success,timeout,failed_images,failed_audio,failed_video,trial_type,trial_index,time_elapsed,internal_node_id,subject,audio_id,rt,device_id,view_history,stimulus,response,estimated_stimulus_onset
TRUE,FALSE,[],[],[],preload,0,1039,0.0-0.0,nhkvsyr89q1gb48,nhkvsyr89q1gb48-2024-03-20-17-04-23,,,,,,
TRUE,,,,,fullscreen,1,3645,0.0-1.0,nhkvsyr89q1gb48,nhkvsyr89q1gb48-2024-03-20-17-04-23,1599,,,,,
,,,,,initialize-microphone,2,9627,0.0-2.0,nhkvsyr89q1gb48,nhkvsyr89q1gb48-2024-03-20-17-04-23,,d4d3c771fa6884f383726d396dc06259f38ece9fb3cabc29b0c90aacbe693f1a,,,,
,,,,,instructions,3,17290,0.0-3.0,nhkvsyr89q1gb48,nhkvsyr89q1gb48-2024-03-20-17-04-23,7662,,"[{""page_index"":0,""viewing_time"":1137},{""page_index"":1,""viewing_time"":6524}]",,,
,,,,,image-button-response,4,21796,0.0-4.0-0.0,nhkvsyr89q1gb48,nhkvsyr89q1gb48-2024-03-20-17-04-23,null,,,images/instructions/movie_1.png,null,
,,,,,image-button-response,5,24498,0.0-4.0-1.0,nhkvsyr89q1gb48,nhkvsyr89q1gb48-2024-03-20-17-04-23,null,,,images/instructions/movie_1.png,null,
,,,,,image-button-response,6,26301,0.0-4.0-2.0,nhkvsyr89q1gb48,nhkvsyr89q1gb48-2024-03-20-17-04-23,null,,,[],null,
,,,,,image-button-response,7,30803,0.0-4.0-0.1,nhkvsyr89q1gb48,nhkvsyr89q1gb48-2024-03-20-17-04-23,null,,,images/instructions/movie_2.png,null,
,,,,,image-button-response,8,32091,0.0-4.0-1.1,nhkvsyr89q1gb48,nhkvsyr89q1gb48-2024-03-20-17-04-23,1287,,,images/instructions/movie_2.png,0,
,,,,,image-button-response,9,33892,0.0-4.0-2.1,nhkvsyr89q1gb48,nhkvsyr89q1gb48-2024-03-20-17-04-23,null,,,[],null,
,,,,,image-button-response,10,38393,0.0-4.0-0.2,nhkvsyr89q1gb48,nhkvsyr89q1gb48-2024-03-20-17-04-23,null,,,images/instructions/movie_3.png,null,
,,,,,image-button-response,11,39369,0.0-4.0-1.2,nhkvsyr89q1gb48,nhkvsyr89q1gb48-2024-03-20-17-04-23,975,,,images/instructions/movie_3.png,0,
,,,,,image-button-response,12,41171,0.0-4.0-2.2,nhkvsyr89q1gb48,nhkvsyr89q1gb48-2024-03-20-17-04-23,null,,,[],null,
,,,,,image-button-response,13,45672,0.0-4.0-0.3,nhkvsyr89q1gb48,nhkvsyr89q1gb48-2024-03-20-17-04-23,null,,,images/instructions/movie_4.png,null,
,,,,,image-button-response,14,46144,0.0-4.0-1.3,nhkvsyr89q1gb48,nhkvsyr89q1gb48-2024-03-20-17-04-23,471,,,images/instructions/movie_4.png,0,
,,,,,image-button-response,15,47945,0.0-4.0-2.3,nhkvsyr89q1gb48,nhkvsyr89q1gb48-2024-03-20-17-04-23,null,,,[],null,
,,,,,instructions,16,56471,0.0-5.0,nhkvsyr89q1gb48,nhkvsyr89q1gb48-2024-03-20-17-04-23,8525,,"[{""page_index"":0,""viewing_time"":6134},{""page_index"":1,""viewing_time"":2391}]",,,
,,,,,html-audio-response,17,83116,0.0-6.0,nhkvsyr89q1gb48,nhkvsyr89q1gb48-2024-03-20-17-04-23,12566,,,"<span style=""color: red; font-size: 24px""> NOW RECORDING</span>
        <p>Please say out loud the list of the actions you saw. The actions can be said in any order.</p>",GkXfo59ChoEBQveBAULygQRC84EIQoKEd2VibUKHgQRChYECGFOAZwH/////////FUmpZpkq17GDD0JATYCGQ2hyb21lV0GGQ2hyb21lFlSua7+uvdeBAXPFhyxhLcopw8WDgQKGhkFfT1BVU2Oik09wdXNIZWFkAQEAAIC7AAAAAADhjbWERzuAAJ+BAWJkgSAfQ7Z1Af/////////ngQCjRBuBAACA+4P8M/wKfftGdF1At0GfeNOW6JCkKPtu9FjADQvuggi2c+1hGoSUR96/NRhfCdK49NsyVIpC9ejRSVvQMp92j+ykhclbdSsXIHx9EW2K1MgLLnKFV4KLLiyUBoxiFWyxKB/hD5wOIIlNzHMcjsCqYBBQLaa/fEuJ8OnDUGwP+aElhfa9vKK8PjykMMM9/tTlPNQFD3l84uT3xnIkuzfdNRAE4Zl4+tMaCJ9GdqMdfOS15SeB1oxW06ogAX6gLVNP/bEljD3U3vg12BOQYcnFZdsSHVG0V9NUaL7lqoziAAAAAAAAAAKzpCYGmiovlRI3p7mcBt3O2q0D9yLUTuF7Tq05A7VitU1l0USuDPFTpJ1kGSDRV5Lg5gRb76FaxDXwKjeeoQvOb8AzU2BB4YhBU4b2kXMFBTbK8qu1bL251YBLVWTwrSX7JdWdkU5eWFAkjWHJomwWIY7z5meVJCwhQJPJWzvdIWwjJg3Krh5sevw8hOQWylSKf0ct18iUom1K5POw58Sye+CmjmaBQNFLgEeMXG+iqDVzBuc+sWyNp1y31OOrBF9m5Op/wXAlSlNJYp2XMMysaKC0x8WS5TpAcRgs1FWWQjtRbHdX7jBXYYdqaIDMTDls1FfdXNFL7FBgIAoX032pBhA1ruGNXMA3KUFeY1MY7YkIaWJLt5CN6Zs4hjIdrHOeoYcSmjiVcCR+r8dphNR4XZVnNSScDAL4b9kY9XcxtoRxMKxlPZSmwdAbtWuU9tE+Tq/3v+XuDvu6JceU401TbaE2MFRNjGjQxjg6RtugfPpS4tsrI0oKYhlbqj+PaxGV6e4CG3kMlr7fvdNFWL35ZL4/3z+1pCZRZObsKHfgiXqEXCICDU7UoDB/vO0n2buK7cFZJIbLeVZMzicg338GV/go9ZDRonf+xnXlqkWEDhplI/xWhk+Dtp7NeukTf2ghSGgWbBOfsZ4w43K2J4RZM1C7ExT+N99ugQVVDxSAKvBl5NZ1EQ8uKej9YGGHcWRbxCvoeUSq0SmbIUedpk8q66BVFVYDvrQshD5eml936yv5aSDhsaOtAaXiIwR0j4kdCMqD0RRr0vlcrTZuy4UVaYEb5MlfFh9IdPtF6AINGXiwgrJAm41WCS8E69RfVv97DSdB/8Cr/vOG6h/IlzG8z0N65DVMafIb6YwlUC3+RGC3PO2rcNx4FkQOtL+vgmzfI/dgQ2gKz7s4FWAqiJNop0kdNvEZQ9eULP29nnAJE6hKY3xGWiAint0hqncYnzfym4UMmK1QUYruMd4lSmk5Z9c7+zQVvaAHCCsaqAm1dBFH9gpB2bkzy57C7dKu1Q7XxnCbkVn/LkDEotEJAcLhGlNcg3NB2ACzfjn7kTHiXpJLtRtVz5a32H/tq+aQ4Xjgo0OCgQA8gPuD/wr/CmG8FD1UeThFuuEXJR7W/l1cJqSIMM5coHIN0NCdMWU8lMPQKV0iVNqErJMmodnw2qMW5LVrAirAmoZQ5/f6u/4LadVAoaxdT0a+bM/Bdxxc6ItEXvjxNs7Yi+5lOHjIRjqBG0YN7DPd9IHOLXQHpq67Y0c7OOYwKZcZRa7zbN6r+AcxglNuBMSCo4WVEa1Op7G4TO+tdKHIZ2KiHlS4qwnusJIsDPBlJiSNwuOPr/Tx6rJffrNUwIAxK4gRjD/xTGCjygYcBylq2/YXlmoLUkb+5oYrUWitxAnm+IsRbmrXqyXVg50UWznU7foB8ujhwC6BkXzB5WAXBovvD0VH4bCBFVD/tObU1QlCiarrtNroYfzux2o7x3s30zRZzrtMzDxv3+IkeTdhuBY4n3ADlm1tSo3OksQEPvz5QKWGDb+WT/iLvAVCGZVc5m/cRlOFGMmhnz//Wy/LwNhLt0iEC3wHr+6bnRHwhTGJCTLTtYTIJKn0A+tQMSepjtN+JvkOOISO7uzaZJscy6Z6AIK1SRf/mpXyZDLs2fmVOvoJxedvfEwAHkuD5opaVi/NtXXdXhzF2op71nAriOTf0Old6SXRCAdXxxdH/iwCohRgSfx0/BikSVdPsAonYnUQ4fg9KnU633JofmbfFx4keIN93JWVZQSF+pxzhUJi7NewsKEd2x30fHd81UGS4POk0epmwBWszx5+YZJYIofqOo9tf4MfxDD5hblNkN3QcHsS7zwlx5NXJcfDuvj9n0/d5LWPVquw62fPeVQn0+9g3grEYDWFPnsgM+tBLoz4bdyJ8eGKmiyZCjSZFHhir71Acd7ajl+YfmKpPm7xkKSdP/ZIC+cZR415gudZVhsAtIXKTayZRZj6L+G3o1TbikCQksLsLQarEwqtNZUnm0aEZHkCo9Y9C0EUS3jMvfyZ5HkadrUHbu6a1z4E6GrmhS8GaY0HPuIP3ob2jUxkrljy4/DNBiPuBiI5/hkCQW5uT0pYc4fBe9JjGFdHfkEYsHmFjkcPQmguTgJtOpvTd7H3oP9CVc8TIz91Tbizl74s+uUSsJesDhvECz1zWUzz2n8u4TbXVve4X3yN6CpVB/o42MLQTf6U5u1tqidAxhvoaEHVaDiaxekaWs7ijZNNwiKTXb5E0VAxJlMwGjpm/YSAj2z2e6qlxvMedveAoaNFAYEAeID7g/05/ix+C0bEsxZCrHE2MkxfQTv9vvJGSf/6zgIYHwlm2wKG2hisyYSjL5NWJRdmO71yuTHDkJraaomgZvp0MBcTzeCCoIqCBB2DgqwJUx2dK+e9F2t4Wg8cwLBfCqlt9RKP+DkthJMtcAojAgEpy+BSjbGGHZmkxSrLwte/l6KQmWVT/YJUubYPp/yW/rsP3UNtvGrrMT/aFue/an2rYUGKy4/7ktgy+F3J5XR0o6MOwHVcDWWa232nKmhLEH1b1fvEyb0OA3nHVPO1unBU9Y0ZP/cdCdGrlOEH/EQC3y6KKjkuNND68hg6mvaF7A0V9oxOwnuT1RaynNcn+j4JGW+qZ9Xwai3mG9wNOLdLQIFY39AJgXbBCb0Dd0Vtl/Rzzb+Yl/gkuwFAl6luf3Y7PyY6t8QbxgBDpG3RGNtdZQdbl7ovHfOXQ97gx+x7ZU0W5XLSnmsFCwjSENymXPrqXx5mg7Kg5YYesZAQ07e3bw/swdNICB+XpZMxJLq6nBCt61Ko2Xp1C9ibxJIHSCOTvJzVqp7IBNj3kjAKSXxk8NePbuhdHe1gDVq4ijd5q9uWsiK7zfJWxrGjQ58tBcyu8ls+66369nL91WSJkiFvQePuXdrc89QYjHWNxUymZxMeH4uQc9Sydi5dGQmZYSrbV6HPbDJhKqDc1pUNZYocTPwvKmPjpNgoVEpRRZdumAUxfvf3HHd2Izymk7sih7tYwo3pdWwqHwAVMo5S0LMyr+xgsLSYiWjy2RVYQXWbrQsSYDl0g6dLupUMmzI/4mCmPH+tiqkCNuyLR3gHQNrgF4sdvlrG/qWUHzuu9V5ONOZ5RjiC9WsodsPSs8LXAY5/Tu5Nel4ROdz08zsZIUA8TDkAL834IRfmN9nIgznAIP5d2sxkokD1WVViaLqCk7Xlq2sfAu6wGeKdNvBI2gBNP592tWGdL/zo3aziHgjtX8ghvPythnudsDI/CDdkKgEeRcrDmd0f9bYwmQYtEJsqHb+F56o1AqVCtgmHwhfc4Eq2r188NqwSK3vMJH5+d6JaKkyXY1cmgjMHn5cmMcUVQnuNEqb99rd+Ab2luTXWpEFv5mhvK+PeEd4qPacv7QijWbJ5/pDDEilcPEPslRreIarNP6grnZzsRFQ141szq1Gh1Hx1tQN+t6tJoGqZiwm8Dq8edbXu5+KCzNobCn5D9xZZvrS9RsNrw9BTjwBdqjhWMf66gn0I+Ihi00INkaklEJEA2cQhdGQo3oJKe4kLCi4cGsjN+hfMqU/CQywk7LRn5dm2RcB/MM/OzAJ7khceHZJMY2kni+eb1lzy3RhNaNP144yHAdfvS0tN+e3hXB1vKhogOaxak0V2qWNq792hh2KwOFnyVLsGmV2z5sWA99yot2bPX7MDBlwu0kDwo1cDhvldgyGO3QjY/DaCfQfY9+vr+44Ifj9/UA4He/DviB5vWiNtGnQ1kzzxxR3XAu9mvBAbmYXvCx+nutV1VlFGHAF2sjAkNxX/jhSqshz6F0CHdOiq1cJiLR7/UyMYRkSby6H5tij97c1qPD6kIA2S43/Y7hTuSdVvj8kJL+imYnglPVnFBoapDK4Qu+4ktRtNXgPLNjCMJvEdlL3Xc9D8vQZSbI/uBDL0WXuIfTOCPObUyCXN0kq4qZks6KBkr3jvGvo6TWdb4G4aBPcLf5kuETt/mJOaKgMGX4uHtKNDRIEAs4D7g/8I/QZv0fDjD4YlO0mloUusV0O3R5ZF/+HSt53ep944xs+IkKlmMi6BTC7Jha+I4szvyVspqg1BrrWl5kVSKiP22LqX8KfYdvJBoVwfSm0X4ByXLI++xrZXjz2I/MOn8LjBmpf5yMNlXuio9EP25UtmmKJG7VV8jb5WDiZ5/ujM2l3xJhhYAamcxBKxTA53lRQg1zubOkL+XaDpBgEUAsuef/WG/qGF0XTgb/ZUw+sT8IH5fpzltegSVAePpRwvHBxL6cYU6BKIqDFMSOzNcoD2JRPDr7ym0j+XTS0T8x5mdST3fdMFABXtaHZ1FVKzvkw2qOP5l7+b8D/Y90BKC1CuuxFddOkF6fivH1vccwMiDSGkUz/nfLnpNeu/K3j/nA0uTmGLYXhp3sVCzotsAFD15a/PEU2pyXf3T9B/aRiSeCfW04jIF4H+7n6QAOXJwi54nrnidfk9tkaSYnRufRcYFg7PGmJGS4vjrJBaRB2Asmq7ZgvvEFIjYCEft0gJkSQmO//M1t5JMRuiSFntWZVDKLV+phBeSBrEv39EBSROV0q0ySVWK8kfAn4/YXIXtEfOllKHgwGFTNToJVDOfzpENRRnA0HhEh22JTaoMw5ueKSPgKXvkeoW/b8DvNQNu3/KMFzAEegjaUF4A+WKl3xk+JnbmbUguQc9/b/zgRfnjGiKG4n3Wq4Nfv1ISdubgsYPQWLoEAN7m3rjQ24bg3slpGKgGwmT13qGemuIksU3TQrYfiTJnlxhlBjOQzSYl6qFY8nYb2nDS/S05FoKCTCjyu5k0zEpJ0+FIdRqziJbBodDa/NCAUQx1R7oQ+BsGYqYvI/Wu+BX5BXk6uJBuW3yZkXoEAxQEmqYRfUvo/2wTo7lZCe9fUAroa/dLaKh8wXHRrJI1FAP0++wZ3oygFv1+SiGeCu+OINekqkoxzLIyrpnrzfQvQDUIk6Ri/9Kdx/O1nslq487gBhk/mcGKiSjDyO0n0enqV61da9ISflHAs0nuuF1nJUZRKn6A+/yTBXeGzRGQRSU74tYIpUw7SaGfO0t/XhzJ/YOrz6LES7aUzR6IBRwg1+9/M/Rf3eXkBQceYvA4u5b4JG0yeb8o0M1gQDwgPuD/QT8BGGHXPH1e9cg47iizbh08cu94fU4PfKVWO9BnlqPWddLWygBsprZo6UzBSecTvZxmdVsnvazTm3b/micfYDQw6xrSMrcdAP6nujpv+G/TIXrB7AnXyKzV50hJ9/w1WRwVrqB4vlGf34R9LveHlOfjioDDyBnLpCRufpzf55z5Xtk0Q6jnis2XSYkG5ix5AKNOCwgZczdSVi1lW9GkxS+W9qLIUKgTWz/GxPAIo84aiWdnZQUDEHu2OIzUecp+V3KQ+ULccWfwNN7LqObtrOhRP0uUYb67WgJ+guB5TX6P1sLwLb9qlK1jl8li3C66nO/RKiOnYsU+/M5ajE6AFU+Fp5EGnHO/zV3oYXYiz9cYZP1fHeun3nSxQ/LOVxciNOCG7lCvS2QfN8HP76blb9PJTBcJj2FOWJxBjY8m6UQjZvaJJpve9MG7JBRkZZ3czNsiZwbQW3IxBcEVolwPDpiKNKeBUrCXt/A7JmQQ/czTPi08/h3Mpn9neRGhabtb4658ZDBcHQW3oyP3VJEi7MhaZhGQUmdAWzrlAWUqsPn/xcRJv1QIbGV4B4F2VzvPTP50d20+9DoivhIYWkqUME2E2yxHW4WpOtv5cD5JG0xJXUYnmEZSABibmzRoJuZt6V84ZW6UL4DLrai5cBf+lnN/QTjTMpR03X+OjT2IR1yoM565d/hW5WbESxaMDvz6IEMhRcyMBTxHOSrc2GKjcW86SuZ7g7gaKHShPexfhV74mZ7yoDShnj/HRouJNqH0QGRtpfj81ypa9zw41ozth08Zja1ow6aSA5lZ5txrdFpge3pJoe4jNp9OCYGVmsCgqcmayViN5NJrokMmP7LdDmzBFAfBowYrb+mmO3YLwXojhZTxL6sdtqN7QguouLnxU+jSpQuv1x2oRP3fvjakSlBhhKyJM6ieCVkj+8eqKZ0IscvpO2hsrYLGe9xoJ4tFikvUIqXCGyZ/h1KAAHa9KMOdKO7bqpyj4FMYK3Zj/mqRAeIYOOJsNHUzwxZjeOzWJgZhnQwN9fQOjXn4+/l3Ue4LgWl7/l6G+vVg9UF0/6MONQRdi7hWY98te4bYiSjQ6WBASyA+4P/B/wRYYmtYVaTm1Q5yE6OjZMTJlBc8J59EyzQL6kPV+Db+Z0DUe0JEnYKIr78KAf60iT8vvt3/E7gR7Do0jhlP5DE50aDZHoFqyJBgIipQKYJmOz6TGmDxPUJueaywFd+GlR0ChiXlmPZ6JIhWjpiyREv4/IyefjsHdH/NDgbT+LuQ1tiiTmcqGf1PDP+242aGIkFgULb0dPtsWmzMU4xtM24TSoloQ3kwmj13O8pDsAgXb+cMMkt3a97HjD2cH+padHe7o2opS8wWQB/Kkl5XeKThfa0in5dqHcWQsUuGN6XhJSrqHFCosUMp0W4/GgOIqm5iRGOZnYUI+qBeuEutDLPpNtaZMU0ZpMl5DwuzoGvUcPZaRZof9zIovu8b2F9VIKqDgQNteh4QYe+iIMtguDvgyElMqpo4E6hekED4dUBLYi1zUMD0Qu+25YL0Ks/ai3uCCwe5fZ7RPQlJS7jFqxX63aNz6tcUxmWl93GtlstN2BStUoKH+qjXexYHcXGVpSS1WhaqfvLXytyzp1ED1dB6r6AtQh1CFO5WJCN+YKABPHfzRS1p4nxaXYkne7g7qmvcWlLn6Ko4tkhneQ+lcxD8VePj3rVWmWnPZIkngM5Wd1l3TvpYLXjRXDHFkmZVlZlrqacLcNBWjm33LqTwQkI/XKFvTEgq/qH84NXoY1EclipkkCOeUrQ328b4sxAPHQQBpBdQ7GUl1OfTtPHegZr38WJXbTB8CTrPmWzGTEuqN94/GAJF173Mvyd8NHbdDBMtrjElwK3I+MrRcQDcYdxIp78tDxbEY97Hu6EYYrQyHB6Mb7q5Ck/lt8IVkdwHOHA1aHRClOTtLbNHMgu3oTCo3QQIHwiRQ+x6OBOT846fySgF334gnHcSFmHHyJVUCC6Avk6B30nld2wHfZe3HDHpfGTk9u4Vk94Zu00nMt0or1pBG5l3SuR7AZOJad8HDjti8SkY/OJWHWHrLCvoO5T4IJn6x7Mj8c9bJIhu/laxUqwW71vx9HE/RQaSryZhxYF0up+lMziTqrgLoW5Qq0WynrRKtUXjlaZVBDomxQieedh80Zi9vs2zcz7/40A7/69Jfm2Igd1p2tyK1YjLEB+VqGILpUEFnnzp1GzXO+z2Tji320uogDeQ9aMMAnvtdkVFFUCR7MEBzwtAzY4Y3wber2NjMYpEATZmgp06lHYNTnWfTTcJT/ve4RBw83b60S602c2UOhLrKb4gyOjQ8aBAWeA+wNhhyU6PJL3/cc50sa19yocmPUaq4GRoso0yo7hvbN0gPeNf0x43S+mhTG+IJbuAMImN06OYIwjVN/sD7RHVxUkwHdCHhVLjy95H2Uxs9zrmo4QprxmT5r4I/92xAhZlKbqa8Yh9gjbp4G4PaNVW5dkRHHq1VBoOfOvRKJf2jeHWkhlYcql7tmSb6ipZ9AtGfYJcuJUn427L4wVgWog/Mn34qbgyddcpMX4pbFlA1v6+3Ak26Icj0+I69fmB3QNF7A7ypKJRcshTkuff9x+scTDEvCyvE/KhKf/VlQTkY41ddYnzmeoYIaorp+kL7amIApN1YLaQsdFYq+3XVYBPxMdLCvnr0YElbVHCCcOFikt57la/Efipngm/Rn76Dtm/nM1Gd9LXFdLeQWu8sBK45oCDBrP9FnxiY45gREXI3Mo5GGHXPYtgUlY4ny5So3gV1u8ETraUlS5Bs/+eciTTiqtL8+7hBFeADPUjUTBD5VNnwFV7oALRPJFU4nP6DnCvNyK+H8OK8DS/ZNcEe5o5AqRoeMeRaBQtFQc/IomQDPtZiWZdXCV2z7rTJ1qWFzQs3dcpvVU6epwkSLIf3+bTQPfIEE72Yjslk4rmMrtZ9Wxo/v3oD18NB9JNBHuH3nR7NuYnkMFRUW8D5W+42Ea2pEALZ3+1KeryCTzFYQVm1ThaOcqQukh4EqBZgn6ggxTN+TzdyWVw43Oy98DqZY0KoE6Z8WSlmZ1pfDD+EI9HqDJeu3EPF0XdVWJ0oDhjXPPrfNI8ibGYcO5pX4T6WwhEP4EM3i6THocO0FCMzY8UZ97+nLqymiu7FpeeuAZ6RUWi+lpUI+FKxNryCMJY6tJWzbIYYds9NFWdHz/llwOvwH8DYwTGGUL2R+qHHVx1HIvGlLd1dQcmMfm10vslJrcYxQwXN6CNifiCH762S7x2mW81Z0BD/asqIEoif4uZRSGz91j6S17j1jmEo9RRGkOEDkYUJYPodauVyCxfDSquYhS8Zy/AobxOOYbZGIW9Tc4PGrsvKyN9v9wv9O6DFBwAXrYQC2UvpLTMvAn1iqjV1yup7gNLsxLsyrpF+auSp2xHuiHGZA9LvitmAP8nszmv5PXi2CME4GbbxdC7dHQs3hoUkD43I+LQ+beEVRTIQgx5em9+XF2KWawa8uggFZkTwSTAgFSptGSBdR8dijeF5qQBb/FsY/KoXCHrOKjmdtlWVCBwMNfe0xZHcLoQM21uHvt4CjHkxHGDeAAn6MZIATOKtQe/ObYeFWlDtGu5TrB65GjQ8aBAaSA+wNhk/VN/QmHU1wnU8fu71drqQEGOBdvXXAV9rptVilx4WL0dxKdDSjL0g8G3t9ZK7owhwmpbyhK9Xssb1qlUwYVYdraHZ2NfQQs+F8eJcF7g654ezEdwCI//hVWRCnZ326Ux0YxJaJt1YhXrdigZQAaSpkRns3sRH4CAqEc5wbELqtlxYwC2Xqc0ZuGiIpazDrEBiC2skAe/UuLlQ7m8ZrretlsEiXvwMC/Flfcj6KID2JCzYNapbAaY1UveByWwQqWG+6uM0gZXYLsKx/WodMzCQeVSDz0n6mWK97e4q8iRkbGkFKVgtjwz3799l3Jt12fyS9cvkLJ3TLI3HQllCgzeF7OKPOpjOlji7eMDHltZTBBkVjALiPKgZnxa2an4RqyxiJvBetuJEqAOFTDxe2ejBBNUZZgjDZezm50PlSCamGT7EEp/ddAcjHhCp4KbyWgtXOSxqu1TTEpG77uHiOS+g0Bid0FRvHz3d/+U8lZ6IqhC+toYbydOB7SY/8vulD8WEAKP6FzeoX2b3i8aTZETzqNBLSTCjr7efqPq37MCBvMq+2YGaXZoKbcmPFLH7EEpXClf+MvczJO/UaZ6xROAdkpfmxM6c5Fgt1R+wIAb/zEnkj/0WRH/gejkwNH2NsmYErkswEwGa6y9Bhsr8Yvsc7epQDVaaauuZu8ky3Z/pqjpVP33mDviSjKsIY6qWJDJYsWTvBpwhwUxeZqpSbb4hEJzl28PIBEPVNQN0VUxyftSnMiq5YIp+0u1dTPp60mZFmA6/wtfEd7wvCUMzs7fdD2m71uzE76A200ol0boKUdH6ee9bIwYU4bqPFykZg7vLKhmDJ3Hv3cy8XEKr4iYbXhq0nSZ4ACj1m/Pgw3J/k4CiaV7/lQogtKHPijCNYcEBwhKj+fOGPDF9lStqKHJlT04/xZcG1GbGYYehY4oozOfq5dnWwwixsI0O7bmJW0skpbyF1XZLOVUXNrYXu/52Wwi+mmKqOcWBOhr46y/rkAIL/cd4i443AJWAqcWFieGTvK0fiS/DmWrX1FuMRlaL8T9tDIPeoLxdqEwCLjHeSj1UEyMWFcbTx0XgYgp+faE5ICUUDjeGjEWAZeAeq2rJ0cxInSIRHsQOYSLDWaNlAoi8Y947gx7nJNIudFXNPL9qv4Oy8mKSvJK0xsT6N4demXEQ9cPWCzlZpH3qtxfczSI/rOZJSvc3shEuOooko/DqhS8qkxDLiz2fMxJaqi3viyB9flLP33MVB0YgHrABLVKHB9R224L5xOXp+ZbUWjQ8aBAd+A+wNhh7Rwww0ZDiNb8iJLI9qu8G9a9HninppCOoWcnfv0agJIdMTIjUhEXnqnj8l+GlNN+PyLSIL6Xl69LFlFH3/mcUfB0JunGveOg3IEkEbdgwH0VYRarHyZPjiDiWPOS5BOycu0WjbO6FDnRJ/lt1eA4XceP1bYcksxoHtkN06Q6ZT9EhF+Vv0Fegk+ibI4MMfX0jOV0twLOqFPP1PIQoRW+3EXt96cbCfLDZAyKk9yZ+RqjQqvJ8P3cJcX0Hf5yAo8F24NTb+a4MNVz7KnlVD/0bFGwob24gz7c22lKhExTf2Tq9GfaO0X7HuBLuvKhaTn0KxjqjRNz8i79ZijqcComANWn+F0sfLtOxz4U3YFro/VTGkmJGlTEDdeIsw8MSRmuC+LtQzxrW0a0qOvAqv1u/qSK9klHLQiAsX1ACgREWGHcDe3h2JHMLin3skwud4nJ9GX0nFhGlniEB1Vx/C0ta/hQx1bAeT1fSc2ZvG0hC+ISHzMduW0f1q3ke9YqS/lZrUOCfPMIekLCn3hvxajAWHtxbr07AhD5YYIbfyQIFurfcnAD4fFOvpcVNcr/rdZMbZywTy0ZqNLKQnGRRROgHnRbN/7HOZuDx3P/wJuXqpUMCh6TZTwBtZZE8R1lNgDZBV2m3ODgx2SkE6C2Dw955veBeL8mrlU9m36lXdK95wwAbqZaYdnSTYF6yl5scpBVs4JafHm4cMxwxDJLbYmwb82W6/TnPQbeOxIRlJ2vh3z1O1mHBYF+/OSegc69KH11OBvjfDXFZLFjmhz/dIaEkyd00rJ5Yy9PQBGAQ9Rb2+ZvEaie7zmxEE9HzP5fmQWKWKFJWQuJR15TkMSjArIYZQRQRfMTnP45xpjWlaz+RbFkHgHOo5NhY1Vlwauu9o/3cxiGK68X+kO7YT/i6zOweyJFnOgWpQJ8aZjQnYW124O/4lYKKPsyljKFK/BWND7rtA/5tWUeYp5UejRtIRnYlGDxx8tsvN5PSck0kdr/3FHpIRFWjIKKqGcCjNNBPFR+m8QPC4+SfWqRn/jbcAgi81rHqwPB9jRZixRWqVUoQGcpLdICzSY6051pOpucoABEcdUVUfO+RhLmEggKgJxuQduwoDkj85bSoNgSroZ7e5vkGhvOGJcBNfY6KRWEQHdSWQ739OGAsWGMs3fulEeuN8oJucPZUwOQg0cp5eV8BOJazUSRMe/vfvePFBPILcSxCUooRIK3E2aI767BIwvhFS8F2mOoOXktEFlav+yN9G7jjSga0ROghUM0dFvThqjQ8aBAhyA+wNhuJJhRRIPC1A+mwwnUSNH9qCEYSCBoBTmKadrEpxs28tAHc3D5mnrA+1QjFC6/Sj3vDWzGBVksk2DQ2X/AZId3O9fddJVB9wfB1ySnta9IntNOJd8EOp4Xu3VjlufjdQGNf4qLOfZ3iHUztL9ZbptCN6p9+zLEkk83AdKnsVcRlFZjKNnYEWlfIC7zI5rshVrUXFRtXG0uPHJN1cn4vBi7a+25uWrHZDrlC36DdLN65NdPZltU0xrw4cDTUYLuR6B8D+r/pRX04x0gpTEaV+u0+46WBiXuuG9Z/ZebgKhD54L4gf7nVrGelfZUV/omr5x66Cp3SqyE+10FyvTqrEjax1EDUwrFpTY2yRST4qjnHKuEtXeMF8rR3jXWsDieSupLy7YR4naJDv/r8jIlBXCfqJuXuyxTTIxvcmX1jEwDmGUEh0sM/9ky+FaD8wtwiTee25bLMRj17yHJ4FSb49YIn0baEhHZtqxSoxI5FZFy+rRV+3SN3qIk4bn4edm4p3LxIAHBp9TmxxQxhW7Qhw45GW9wlS+84e7RtxEuyLnwBNpk1RXwXnAln4XOdHa4z6IctEZTVq4h5AA306AH5shmSwqygkW5NzQxEWC5JAz0AQq4Itx7Gmo7pCvPd59ijGA2Ge0oT4g2GHv1BdzulAViUmu5j+zEmD+LhQ7d/7YxR+xMdQVHiulzbiN/maDT4M3KnoudJDrXUB8aBjQJsMJEg1FDW/6HqxqhMAjKf1zcX1vY0HQ+yuxF+OA7jVsF2dywytMYZkjuNclyxUWRW6hBU+Godx91H/2ZWa4WNQ1XdjpyS3gNb0jL4vpirUlJL+DBDSyzKN0JwjKelP/ZD4YYbwlJliNfABdzx9sh15r/sDv/UPgnrnj/loFcZRksK7RAdRCRDuaagpw4VjjVdhmIpSyquDaVxbWliE00LOMGb4E2hnnoqs8we4IUntW630QPZ6QgRDN/jL+wQklHOpWfLC7ME9fEZI7WDBKd0XbFOh+DpspaNcjehizgPgtv4XwzMMhX/nBjogcKNzzLVpjZAABhOKUczwQeqdQCnvthDSI/rOMSIYFmQaE8KovqX3NbGSqbEj/qR7dV+GFc3ZTU55eA1MjnQ0rhaufn0soDRqS8tnUlU/LxRVLm9GqWG+FmFdpKVzG1vqxyK2Hmj2ENEHPUhGdRF/0HljCKM0tVBZuOHgfX+6LP3boj/159hKkERKjiwiDtnLelnZuiYPmRm22DICIKX9ZVNgwSTFfJrxLE5IrJrK0JL9C3xif0q2jQ8aBAliA+wNhvC3U5LUQFOqd2bLsPW4Tzgr8Erl4nvog81wuRxAuMnZpLf5T45HuYOiwJF3cqt8eJP4iAIXJOssNbXgOfA5DLPjUWNkkjGriucyqZDG+NX37SXVblRNw+liZZ5K1252sdbYE5w0nX4LSVM+DHIhuwcQdPDUtE2h2SoPvDnIIcUMt+yak1pe2J6qEYue6yqSbcCxrGUMVQsnq02a7oJ8zdvqu24s9L1Vl7oFxlTtAXX0OEiCudbtaMF8Qj9NU98vqPjrfrPdQ06BFjqpJWCNTCIz0MtNRZj9v7A095acqKf/ujfToLRHrUckapaKkLcFnS3z9Ker4QrJN742z5ZzzFn0eEcOgkcJR6PAU2p77o/qI3vL2aTSS+n45yAfYAwpLmlYNRGGnRY8qETIKqQN+7OUyV04QwjULq3ZuHuEFH2GTIGxaNDFl4Py2A/Cu0sf4/yGiILlG0OzcR66I3RucNpgIiU4e16An8Q4isxuFEIc6lZOGelk9vw4SMGDq0mJZvnJdBsdRrcbosA5DegKXHECtLO7gYON1UY282UgEZU8RHQa8oxXPPRsl0p0+ssg1AsmbaWCp94EUgQfSQA92lQ1GDwSvNNAglzS/TzS8JO/eFHavAYwyVWtaSAXIVOuV0guMQK/MbihGOEuotOiik9eGzBKF/fQSSpu394UNabUVC6lq+00OMKejOA8/ZglZIUr7X1qMeAbswRjre6AsS5G0o64aHnH0lzxFOpgdvcC/IhDvWDd5TUClPk18jH5hPU3w/4Y3XorLMgg+3OxelgAsynTQV7Jb3ryI70EEnaj9hiI3sSTyCRL4ohmt8gt37WdfHi53JCy3f2cAFUEZYYdqYk8+M91kFfiBaKvHEQpr4HP/+lOxQMbJYXNJafHRKL6OxtlDBig/RHg5f0DnWCCy0lVmCYf+1xkFwWnsEua+2wym0ufhrXui1zVj7JVnAhD0wQ27yN8+tc8B949g784vTFqXntwwmknR2Z17e83gYKC3+mBLLXFgLNKjXyzl5mTqT1mvgPvXpFmQNja+m21pC9QFijn+fRGIDDDrSc2JlLsC9YCkVvcsNDiffPZmajojdRxwjLY6g02Bu7P626D3cwEsd9pAOyd8KVZ2e3to1O1+5rwLxIepR24RK79BeR4mI1XE66t0wfU1Om/qQcq4wPugggsUZoOtwhesjeLc9SC1ZFR+Nx4W26PSbWPUeZftOiB2CNnZtZM0AL6cmWEDIPUC3VGzSRjhSLmH45+wcFveat0j79AyJl73G4mjQ8aBApSA+wNhifAmr9TthwdpdPg5E6Cx4eFuvRhMq9D/Uq5e2l2Y8u9fT6jZ0UdqAC/J/IRh5AfR82cEk5jDhyqy+xfOyNdnu/POVp/cohBqBok0QX73erhuIZxlSxGyISeAOTvX5x4AXZVRGrWT0fSYumgEq6h/vka1tWkrzR/Fm2aSqTh8f2kpXW+d9PmU6YlyudsL/IRU7FjIx6lTMDthrU2RKTrx9pIHNEkzBSdm6pd6y+MHzWtyd3MO39nz5ag9cDOVtdutOOS6/yLAlsObU2F5cLsbAaM/f5PwcQAACMNEQqrs8kpE9kB9BUD64El04eDgxtSiupri0PGWlol1825JWjxBi14Jfq4GZCdi1OUJKP+BZPrt2W/StrWwUrGL0b19mizj49kPxnyCpXkTfPVOt69Eq+YjbGa+7KMdmo4XxBJu0GGJ/vz/yd/VLdOOI5GhDt2ju5jIF9cDpH0BBmuJQahblnpukoqvjNUvKRCnilRr4DRJYTGH1DMMJQ0/iFQALYegyQpUIvDK+2PjVAKe8FNGo8WXv98Vb+fxUgGqVL6z4nNPsHwgfKwuSS8AqC1j1rNsuoqFAs8bpznx+ojHz4qs9NAhD3hqevqVJO9sTI3eoB+C1q8DtZ/BuKiT1hdfDBhOPexz5pAHAYbvaW3Q0KHfELlkWIQ3dhe9+mqMp04yzvFGAkr+yhELkklUYncBWOWwUDwKfyuSWN8kMXUz7VXvEZkbA5k4sRGL+OUvN32FfqKHUdLjbtt48xr2tMoT5uHPLS0Smo+Nd1fSTprXOat30/XToGycq/xnS5gyY07AETIjnD0kPZ4XwWfqeO0GFUlFKVsjKlHDph2bwhsuCUquYbZUGc0V2X/BZWIcC1uktD13YbowMAUiUbOCaUT3UR3LhT7stM5/1tp5OTbGHLUOeZogtsJlpfzxuL13jmXeQrKiVy88035Y61vzS01WnPSGEQ2A4UVlwDbRd8u8pWBhyq/8hBQqDyl/1bNUD5d/TRycAxOIs6C7/TB5zzIssK3f+WEAsVvduGfj6E1XR+ONZ4FhuVpqaZymAAHOko2u74kbj0S2kuIDbkVr+HImMNXBTzZG3BSTFA8uIKPMUX7HMWNibi31EKQvjrfwBlbRNciKnqpSNEvayB18SaoCyWUPH2g45jb2P5EfBjnmpj8F/smbZ9RbkK3tB+0TkTse2FQYJ0Uq0ItvizvAsUww5pLz+yYdicR5ViL6FBy2fmVgXd1f6Gqm9ku2SrCF0XK13spPBSpcBSEzIOisQluHcUSjQ8aBAtCA+wNhiqRqu68QxJmFhPhb+XHmirDhfzR5cPIkCeL4K+8tX00W5Lg+ItDvXF1YEJz2s0t0Td/2K+ZMZ+S7SZVYcyr1wI8vZRIUSWuGkNqawoGEL2k6hbW34D06YRbYyXP3E6b1VvSdtxYCwHQFI66ZTv30pDsfCPWNV7gqSUsudxOYJeAdgOUzn5m7wRujb6RZppR8VGM8AbhGc5qQkLONoXyvb4+znhjinua+y4Jru2ChppQbXeH17dpQfVRw88j4BvZM+RvW02MUsoxMSQW89od7SCHozfFpsXz/uPh8npJH55QYpKJ89rtN3FO1lq6SMeXw3nJgQ9GGjN6lnPEtG6wcmaScpCHFtVgsryX+/P01tvCUE+2fGuiB2/MFp0hxEQlzL+bA2RwiMzQog+qkLeQzuEuzhSaxFyc8yke2Qo3wjGGHpf1C5rBYa7qw288NOsWmqWilbUDeP8svahnQsxm2bXAigMWW6T1JKYckCjX8GuTsFB0VdqMXrMDjINqxrj0qtRp/JN7eJ6A99RRmpXDC79HECKNT0o4KlXsuN84adG7XDpcIUJ3i0YpZ6nMEIY27QMcnS5xkMGJoZNb+niSTuFmKf/ng5gkqPA0Yn1J9QZQcgkWK7pEIdkpp/h5XSzrVODSJWeyjAZo5/YF8HeyEY9P12JDD1zmg7kMv082IwLqhsxODZaRs4nUzI9b4nowEQd0YkanwZB6lu2q6ei+Kg0AkvLhH1rfxUlETrRD3NxS10CBRX5L5aU4Tz6j1efd/VtFRYZlPTSn2i2WnM5heDWM1SdTpbldXxNwc9cmii7ZoxKrzQBmyl6gJLQS8gHgNo3jiDBVBIf7KjArvB+NSYZQQ8Qaap2fAOOylnBdlaAdnkFGMqnWLXZQzlUe10xfWZEBHfyDEmCA6KOo3HMtsKuowRisUrLsh2Tf3jnIGQUjR2gk+hVsVpmz4LCg5wC2l6fqiKtZZV2eSpTEptgjeGXIVJmOKFGTfF18A/i1o3lLX/tMgDdYJe/3YjOkh/9YHnZKqw5oT16S3xBOC8zOOOcPiYwvfARzR2E+qfQQg516tXogYDdQN36Vsibo3NIbuTIxf+QjXkSOlOJov3f6jGDxRVevgd6PuMcfnEBBWDjjr29/NcsLstw1oUXHE4DDdLfPKtUjqTRniZkpqwFHKYkH54DrIAYxI01ksKmMrxLTHPqd2iKGI+K7sCoUGhv1x/Feyudg8BqHA/ldJH4eGe8wCnWpcGGNWW9UT/IJukwQjpGqH+L+z/pzokR7asGujQ8aBAwyA+wNhINx5s7W3kSIHuWwaAI7xE9GO5mrzMu4nZ0VunmDa+5yQgCNkirPjpu8n9Jfeu49QgvgD/JqqG3ONWXNC3N9qac0OFpT8VhwNqCSOYQMZXLoZAni+n6W2GxCP1LSUqUGB94uBrYzoMRQmS3j1nzOqtm8pyhNhI9pnE1dBEAVUk9ybWzs9R7XnpUy5dPV+201z0vrJNcxfrjWuzWS1VUeOv9lYc06mRdLdivin7zu3BDQo1p5xSkJEetSQVY2MvB2ltjT7Xy20X5uCUoca/h6g8mXnj18DwIu7gEUhb2/gpGI9dmIxez5YCWA9eG4CUpSYFv1QIFIGOTqQcJAmUvAz0AGd+lS/6DUEUrq67MfyjJUdiGp2yrV1wLQUXzMegukr9jDSQ0w4uqh/+6bi9LVp9b3KgTVDvCMbS6fkA4zgJWF7yQQvcJHl9Cf+unfYF0PwEQpagEqzu70wmAJsuubrQQySlQpyJ4nJHX2WlhIH0pG3aqtqZUTMwL1XwPk13cHVhBv8/UM2UInS6UX7TaNvCKoFauW1/Uvo6ByLs471zq4rtv5k2QPfWQb8rGdYSjniou2oWi3ocomj5fEs/+idwZX5XjP+NduJz6vIIt20DOfWV1jnI6lZIy9H9lpP+sZtA9e3QRjo2YppK8VraINhObPtz4EASvUgIZIH9yJuY/HqvGPaYa1jzjNs4f3P+unFF1LyRdWFwQlyAIrHzQM0/zSeFeaZrbhrFAXSg6Lbo/PgAx3goO/FWWnKCcJWq/qHDh05B9Ds5ZecfBteMbYayATl4rmXAHNpwFA0i4rRFMI18cR247B8PofZbZqmK7G23F35VyfuIu/ndN6Z6AeFYYDct5rh297NeGzV3dIyrGEp08Z/3sHn7eNMPimrxu34fOZPfXtCpb99YU0/ttsYshPzyhhKNAu5tv9jlv2ol5S+gcvhx/JpBopOLP02s7s+ZaAJjpRuJhqd96o1I5SCEMZRN8sJ5UNTM0CEeXE0pVUwfJbAiDyzFYDKfdlME2KE8kjhTaj8YeLx2+EXRWIA2ozKHU3CdjRTIbMIF1cZjKxspacgPYfOxuMbu9xGemcJtIk4a2PiP/rk/RM6Ibh9i2RmUH7nc9L2gbzAWs1e2R2rvj74/2p8paXVg4r9QUNnSrS/rw5qVbkg0WGMdhvHBX2ns75p1sw8klByoTFiSaE4NJOUFz7X7JQV+LyhOjamSjD6ykNGVQ6bwH+QWwJ1a4awiuEkM/vaFKCoZTG36knbUI27NjYmHeMMbJ9KTZSjQ8aBA0iA+wNhk+w99HiGSdofXzkjDD2Tic6L1Y0q/kDa+dutd7X7Cx/NICkkQA+DxKRhKfk7+y2nI8n8g2zXtrxectZWOhqQQNjhWzSxTzg61hQ15w4SZcaawRT3EHpAdaoQBcaHUPzu+lI73VpFFCq9bS+e2PJMi4KaAyuxX5ZBU4TjfA5GEZ2r9+iAr0NSA02VDCzYpdeGiw+bQ6IUIDlOFgK3r10Hf8tOGUabA8GU7E92VHqwuUmwTYIBH3w+OetrZkmxTbiJbNOmcErE6yxCz4FsBPfeAli8RYfo0Ks8Opgv1VqyTzm7H9b12645VnIsZZ2+dIF+jfMrSYSkkIZuE6XWfQGErVCvjRP+FomNeYGo8wIlXhEmQenbNOLU6tyiudgwKUAcLLZHClfu7Lfw4mFX/W6N92/+cOPuFSVS/adWytLNOmGT9Swmz9ShL04FPe5NIsv5YDUojmS1FKsRbmEzHMYXQR8DWDvifdxedpLcCHyD6ScU9Rj461jK+WvHL3dqpJVMXw9k12v7XZJrqCvlF7q5e/7CCXxYkEs3lP0JlLID9gOruMgPm/oeAt5YA8Yg0b/RbyNj63oVckQ7nJ5gbX4jN4KNvZJ/c/WhaNr3/HKF/tmndZ+L398UXfnV2kQrQuuXZknL/SFdHWU/tbV43MR+hXYvKy77ZntK/kgNafTwGq3T5ILHcMzokCcrK5zGDxF+y7Xxljl0J+WW4KwFeNQJPEqxSRBzUDOPUotBHsPqZar9E1b2bpkPEh3P+/C1XD6CAJ9rYhKXoXXswv9uIsxzYULTdrZfy8VefTrMLtEpZFegSUHXXPy8LEoEPiJFIyOiRkPfQ5NSuA3LTZzO/XUyYbZUwWmDByfyEUbOwLbuG+qcWIDTpbxRhGEBi2P8GLtIk4wYXdGnRHgwu/cBV/knUWDWZqLca2GYOHxg+v/XS6YtAaHorsIS15H9AqWrINzweT/QiZWXeP3YGJzL0d7kddUA84GGsobCLzp8kVfZTrSPpV4zm6E2kS6bLzL2rQ+WNAORUeS1nqXfkn1LJRo3KtVK1x88iM3FKUQujvSMgHE10vBZFBH8Sr3Go6J8fMbHNU/v0inh/aoa2MKRbUjv9ttrBGu2HE1KaCAICd69O9c/UZNDoJBYnL13xJXSYEzN+REtroaEfRb9i6wlFsEqoOu1tIRybfaJj3OCG7rUEka5reH7gBZbRE56eFn/g/FWEQ0vx99EW853yP2KAgk20ZxesK4nVyieOIEM239PNjtmDdUV2kUy/3tW5at6Ww+jQ8aBA4SA+wNhh30xebOJNqehqYTBZ0DnOVcd3sGH4DW+dY/bvK4Q3dYQZi+reeCUYqoqibcVX3pncZjvY4OYo/Rb7K9qQ7NmBSpRm1Pa8Jd+TAnAsimM1q2/kdgXrXp7ac14QSapnaODZmJJg6G/NNu/2CYYgItULGs3qVxuqjRAQn0OTewpY6gYHfAsLLlcXCcupdv66tf3K3m1JzLYfjKTSPWk1ago+92bjVF4SftduAW26tjgsoUZR4dSNmr61p7CzzfrYocZAqgJbADf1/HeQL+Xbm5OCqeteQvMcettyV7kPSA6aXzJlA6IS/DWHoO5DsfteJv9zBR4psbH0BjYKxPOfHTh6HZnPPYiOquaz7gw1rXycYkPLrciAdki5nwB+mCQbIzOK8H4tF/RFajpVsPxCdWHp646o3jiFiUaiGXwxBoalGG4hvZtFAGVI1cGQnpkiB64AMc3MOWtPMwIQmGKxbNZ8uA6txocxu7C7nDvMw8o08v0XZeozktJaqsYBevToonqpIGdAjk/TbqXHbNfuvwcV3AYVCc32Sv/Rn3V9ghtruE0jso869vd0QYX0rT1ices7B5YWFcM8skm1esWnZ09NpDv09RWmZb5DsHQKiur3FlciHGvU2zrINLqdM806uF/RpJrI0/JBvoJa7mXXBt80ckblAIRQwQh3soUIHcOqVy4NTRk0CmSr9sebL48FRIxeJKMJy7cdqwHEjOhYRSCeCmeC4isZCdQAtI8SsWCjsix+wBp2rktvxFca5NUbUy7zb8hCx4i+Rriv9bk1vObH59rVwqWcG42bfNLmB6KgwLi9sosi737n99DLz5uN5q0yM3rYeDXJTUQ5mjOy+bHYYqOijwYFC8U6nJmjGmB29DvMjEq1WtmxkG2XqmwxX0lyYY6hNM9Mho+3yFLR9j6YeWJDXWwpywq59E8Eqm8Z5vr2vKBRtIwsgsqQXgC72yZQhMsRAZVI6R7MeyiPhCr9mWvZtVfLoAdHPSpLlHn2XcQy0M4/rER3pmpQc2ChaKWAiSbCwtLOAGznnXI/Jk8zuSE0cpUsw5E9QqKEgpovns26p8/8Aeitv9ZSEdlMpmQ6wYk+RRzKe2Ak8vBxLruBQ4pD7qBQTQwywfX7wmVhaL701iRUYCehGwHof/o+vQSrWCHNHXOI7hQtxCKsoTb3e2OaOHi54D353CmhKjqR7hLGojEA6PLCROfI3p7juWsiCR0lDkcTwi/49XeiF1WNLGtm5CdiiE6f1+k7tXNkvS5O7E0Z+ylCpZBMB4NedOjQ8aBA8CA+wNhvG5fWFz9tCkppQFAU/GFSe0XebA86KnGtvD1zqHK64MGbRoFbT2nvPQkS2QRv3acHRDV6fKYCRAlQvRzdBgFAOQi+qPoNe8Jy+QzzBrWPESD7rb9OMzdA6jN3ow51Y76n3EgaUriIF9LaJz2TLTJm25gcZb+n/+5QjpPj9iY6S98/mdPUePbnuwGdP64dibx+XFF/i9VYIdGFm+l9lCxzYiXnqtvlaNGdtd7G+4DRC87SoyzeDnY/9IhaP52+As1fvhm9XJvvdqWocIZmMr8MpfLmmnZPrygZ5qpSve139tRtI2F5OV/m0IPC7lJC1hIqMburpWs+PM+gYS9dQHXFC7kYKu58rV9+K9gZu40qc/aFDnbdqHHBzxKM+0zWUpxh2VwBBi85S1/lVOR6n2UDQCDUYHYLGPeBPzJLnjam2F66zdQLIC9A3l9AqpQLjEkPaITvCCa2EpIhK1nANS3huCNhQs93Y2tJKAFsiT0ZBvKmuud0L6WfK84jER4JeRurEvYcueyDweeOpNk7CuYVrM93WGOKN/pdgFdrBt01Ke6f/aQ1CLnBo3oBhQe+zTrbfdTsgnDgk9xyjZDpO2b9mSjumKSQ33CW5HSHj2hEC81ASr1koQMt9pfliA9dyIyivDHVUZVDyRAm4unuFjghlXGNzek1/xBAHiMROkbXSq864jU45iKqsyYllpsRHxdCQ3C5YSynzbYGVOC4mMhp2PpZ2McgwWAxstMf0S2yqoJ4rRrg5yxS7DRlz8QKYEu4u+euhvsEFnCELZfkxHgt19ucBx0NEAsCD7hf8OzvPCyScU9BJPMf7e7tCm8BSx0XbDHdbSKpk7Mif6gkcSBYYYh6A0WsZg2vUGxNypWESvhL5vJD4arc6FyG28Y5QM1kbRh4pWOGgtYtBJ9ajPwC0GQIF0vKUkQVuCB8RYqmTm8d4Cd0PI10c6InpD49q2cQSzwSzY8cy0GYn59jwahI+EKmphrrL+piM31P+7+zoncNRXNlzNoyMnCDoZc05yPShS1Dq9MkWnUGzLKcVHX+/9Nt7VUgSblmCnR0jZw8QmfLxKy6G8BnyLR2cjRU3CmdruhRy/ApeD0uSHCjC+IZyPQneGGZxo6zMm9TwJBWuKvf+3Nxy9uBlKuhr10Y4/qpkFtcQjaHR7INHTtu6dcWwTYjD7DItcjcw23Em7B2lhhyYwR/vUXnwaD+1SoWZJ6NDvvhrrumi36QnRXN/kRqTCCNCNjr+6swIX0/av4MH7NrVBZGKEQy3uNdpbnD6qjQ8aBA/yA+wNhvCUoCqXzd1sHaF5pLwK0AKPLZRdoZmpYlqBBjuEGKsugdBmdF4azvP4m+yVmD5tItY2PUjbKab+0YstdrGucq+o/sE0jPwjzOG1Bbs54uxmmRrVl8UYJHSqUphTyp+g+xeBslzSzvshKOPpEAQr2/WJ7XUoeoYvgrUuXJsAWQwFW2/tY3k2sohO2Ru9kul6cBDLharwrOJVMCPFtTyOTGw2btO2CYsSVRreDak1eT+kPuERg2bquR33qJpjyqV4K5xaf/wuJgZ5pk20xBerLVTBFrs/o0fQ7ZCi86IzFKXhoBPPT898cA2kx/gdQyK7veItdwlk5Fa+bRfG7KneRatW+o83hZp5/3bgLdw9kvky5pcw3kY0q5/YJd3+N2icjauS3SqKxmmBGG18q9jjVW9bgN3Y4eDYez4r751fJv2G8Kj+CtIUsVrWgnd6yhRXtv+WpRrsQLLyEWvrwLV+RzPYG6VIR6cA/HzIsSEjNVyaMkfF4TF70QB19kot5nhF1j7FvJ8tXpNb+yAqYoOxf02azu2E6Fr5b5kw/J8iiYQCo1XERmhnjDWEMt3vwIlzgodut1DDLLHMY0v4wVkN2pCGe4jbisZH4N0LoyEAGkAncbqYmjLm8wol4WZ8IFYuRL1tJTEODnpjMGY7L2p+aXvO4VK7/aemb485gBdUrprXGFiIwcoVXtRER+XYMtvJPMxfaiXo2ojJ1FCCTA1SGS78/qASCtuJB42lros2YUkCzF9izYqCozbsJrYt0dfXnwT1mFNAIfTOyg9iDsExB4ranz46QUU/McLL61cUd5C0IXpoYaU6xaMEiX5Z4E6Gjpv4E6ytMpQCoaZYiRT/2YYrB9VebsEo7CV6aD4ZzYr2fjtSx8Uzxm3ql7qcQPBqb6mx7SRnBvCGch+cwDStARsGaBopBLVg1kJ7ljyUor+5fNLmzOG8ekctwvsI7RFRyMgghdi6w9KjBfyjyQekybgTJ+2Xs54md2PZTC/DPbrgzThP/OWSptxrUd3ZleThgJ89CafpuUBwZy/MqBsjV5zm7MyKPIXGuw/MiRdmh47t4UWSwr6fFlZV0+oCR9Q/NlAYpaFkQ9ifMpVIZDdBFGoyMCCzD8gyzksVD+5LOAYyN1WzQQ5sCMZT8L5x1wsjKOP8Sob9rH1j6Cr3uwABMdjOz+5yEQXhY8u/cdk576vlSuzrziGy3/DWAk4XiFEco1FEZDlTTJSGhdzaR3FnDVxjMx7kBLDb1vQlbz8hXHCEKHL7X6CyyQKq2BqEmItOjQ8aBBDiA+wNhlBgKa7eAmLmkyQG5XgvMuRN5OXT3tgghiarSUBkBhjugCI39OIDGP0CCUXaHTDi0xeioa1SPFrRDjZ/5GZtZB/irq/VQcCKEQy9W5uF/DHNowD5cukbOaMQXcxIj0qHXeA0SvgrVlpwo1m+hMaxq0u3oqvpEekBDFRgbzaWdFj/HubSz7vAjT/TSvgRQkD2gPVVzYOQOEI9TNebF/qPQ8HdTFaHzszfkqT7CDdwveQlyqyfOg3QI8OKokOILpxGRER19bz5S6mLLDaV2T8n+VDkaqYw5InP5Z6wSiRjmS0cfzYmuAn/3GZ1XxDNVjg/9TcMlgbTXIxq6Jc978cNfYzNELz6XxGqIdZotRyxxs5Tn0dBYnvsqGfrF+VhzsurWAXU9UEn7pMhQz+zBIu87UDQ2XyV9dRYp6ptVLOdQeGGKjjA/uK2bBLIRH/9dTTX3H9BbCIQ5mkXEnOEGIfz/DXoTL/DQAZvVfKBDk1GL2yxPEkvPN2Gvp6yaCNskVwvSSwJ/MXFexj2+w2zhdOxdKr5GDy09NpEV0END1O74ELr0FN+Il+FPchDPqwki9VpD3Xs4kpOH6JkMZwbLKFEkE5uZtVWiyHaRkC516BiLROMmJjnHaBECBECoHUlcHmUXqTfuEaVbb1+0t3DqlQryCpobWa3/tIhzqA1x3+6u8HIUP9ePBBz1iDjMgulNESkAUWqCosNftE+4l4JCb2WMoitQYc8xMeCaE7F424RiYa4+g0BQHdwdIlaI1sJCbZpcjm2BQ3V8HUW6OWv3XKhotCUcB7n+kLF6egjC4M4GkTsnoo/1tLsi2/en3h/sNQL1KlVQL1b5EvyezhYZcVhZYYqfJZcwjHaJhrlDg0m33UZ7pWjMj0+SNN9ae7dztusHPjwCvSN41zkt0XZXvYA6qYf41kc3s1flpjAJXH4QdonLewpLz0LHiDYzDQBuVUYTuYzYFelOoQp/F8ZoSSivxGRlmJ+5vbLKyTFFH6eyMgqizVKh1XYDvnGX7qEweaX83Xu+jni48EYs4x1IwbIYHCRk8EC143JE4/mqyeizCl1xJq346M8qwAu9YMignCCraAUS42JmB0IbvphA8W9w1Af18XLNfwmeHQhhrTPupO4+bULMAFkiLKLj/vnLFUqADwYeAD0/AvjK1YOsTjVN9YT1EjNjg0Bf3ysAcFyyzfPW7kUTADXJYCly9lb+rnC3C7KoD7AuSwtLX413dPKWieiGO5Ul4RJY3nLAcz6gcLkpJS67qq22IJyDWZ/dRMSjQ8aBBHSA+wNhisHnvMchuWRO6Tc5dhX1fVXEJ9v+zCDW0IVG5/Z+4F6R/BWzf4OgXJQiouA/gau5urIPHxYAOiE0nNrvfJF1LxEa0PG2kICf8u1gK5IEj9jXqz4zAHJpzlZLi6hvsKFaZ80kMb+DI0XtLV69PlxK6jF+edVorIGs/rV+zquZ1IzIiaGl5yn3OSp/xp3kTdMNxiwbHL+Xg6LnTmq/ChTp8+uA5haZxsb//TV9hH56MczYL3E3PqcsNsYnuka+R8hLtrYXP0QPannJjTuEpyiN71R93/FuBXCTMxdiFPEvxVr1lwtXuhdJ6SH51JSVbX1otv6az+55YtZucltxj1oiDePm8QoboAO2iyz7ggH0p+tm9AKxYo5mgDA5/kra/3s2B1/0IvVNCfQH5nlb7jwcX5sLYu5OvqUb2kweuHgREWGT9ppRlPFY+MlLc51QuPMnHdqkF5YbjEeCnMaNeei4jRbTOpJ7QMUtpAwmN7kt1tR9OiMVLNrWG4k8gPFsHFyl0sIbFGcW6Ug6+EjkQKkoc0L//o1fD9BMGTf1P4SkjDixOdlrI4nuoWB66bmiB43KWcokJWtVuDAhPpK81dQCaAroErekSpKjHPKAyEn0naQeQCpVJhMaFVaDKVfHY/EHlvcfx6SaOa//ACGLm74ss0jNNYEtMlcGhs/FBWNDb4/w+DNAh22rb7hxZyiVrNWxTSP+XS6XCFhwkLl+AXrQkxiYXs3NyVQLpHcyEz5s5Btybr/tgNYnalfhEL+1FUeTldsqOaQhgzcsIUSp9LzIhyrtoTm68Ytg8d8EAoRt7E8Mn8usiQy6Q6ITgI9rd8GfD5DzFBojoP4KkiBetQ2MYYrNyFPck9IIIBxz9gbbs87mVf+teNxxxpvmkBf61eEWxknQIt10B6O30AwFr1elsXIbVAtmoWI7ZuhS86bEX1oWcOBT3VluTrdtTct3xmtFX1L+OjeGRb2WNakvginJaDyPoRjpDBQ0SeLPx42QLkxjJss2FIUfzyH7dazkbss5JAuI54DeZBDjSTXJQlLt7KFLMtcJsHzBRlTTR+swv50RJDCvf7Af06V3Tmq5k18mmtcaI44deVeXUr8FxXYagxlS4C9mfqUoJdMuviV/JatfJEd/v/z6F3xMNmGS0Xo+Y+BA7mmBHWM56ALCV6D6LRezedo64PSTEsOqmfAM8CyRflsebamjwALXO/H8nHBAO9j+WGJg3uR3Xkx57HbKnooGTHLu4xCX10tueeuXgpF4LtwrK5G3MK5OXhJmCKijQ8aBBLCA+wNhis4JzgI+dEYDEP91yGAvg6Xum1SI3J7MyM+nd4Sbe7SLWixyd934AGG7UkC+sFzcD1R6+k61xBZV4sB5chnPhZHVhyX7KN5EkAcX2aQ07ltMf85Fz/D5hbj6gGZdGfpaD1fmROo5VHmxMYyl64kpT4LR3CnUlNKvr5gUJJxq6EOpPgrAm7mhrKPh+fMPmUZoFcFZvGIVjSwTnExzVbWh3rj5rTQMzq0IKNoF8HaSZt1YbQK8LIskqIQ/kUFFgg8qArWhNMojMdTDKdtoedxKHb/67Js+t2NCB2KPF/RoXhUSZolKjrpzdYpZVfeV4SY+F4+GyWSUmxeb4aXMMPCk9ZSTMuNcLOhfMl0xXdGiUR/aOXL3QjeypCx7TCzlB7WkrIGxWuNxjdh41ohnZDMuLTB5IlzdgaT+jq122YikSWGJ/M7WQYMBGSGhiJbbV+ka9NCL1/JeHgdDPXiLDzAWL86/gDyo0XuUl/U+RpRvGUYQHF8az580jKFYhCuly7AGR9gWUTzir1lZpq0mvJXPgeSJ22BGPx5/IDDkn/y1/jUuzNSvZdPuaKwkPbUPgJuywNYt9vCCWIHtNeHGrlPP3WycVWXfEkTjb5tcZ7/dClKmoeN+WKBcr2GqchrSx4rP+dA7Sysz78FCZTPDmP3jaPU1MfyxwGOrHUW0kE4evLBR/22b1zcbC6BEnhhnvyfim2wMfTLSH6oXuFrdYyZFyoxBnX6WR6DvA2NQ19boDJ86N/d7zwcW0TFY+u6swM+FgFyhj6qgYXiOib5WkZ5pTqFGwxfO6dZN7HezKtgbJPXCGyirAX3BxBL6Pi8yQJZ4mJUSvRqsN0EAhMhP4MoKYX2CXya/8VaKzXYrQ+Cm0gN9N1dewG3I2Zljw5RmvWg6duBIa2rNvojug72wb7wibRhtW9P5FaeL40xjSH8eIZyAkgG8hwLSE2N06LQmlSo1oCZ8QHCSvzkJ8K/ZT0aZafFVDJ7ARxCAcclKZG6hR5U30qyaRkp2cRU0xF09V4MUEEaRqED/67ihE3TGGQXY+m0+SHGC7yn0W4M/uWIMAqQ3+IcpELT5GCZ2ian+agLIwSDwYSzz5L1WG5VmmHImiGmXH3jstUY5jnBspPv1DOrRbQc5G9rfuvUg5bVa7tyLa/TdC4KjLv79gRcp07dXmgCWN4mNPL+1/o5kYuv++/I/ssZdTt28th6oT2ytB0izdYZkA7goKjGKeHmfjtH/r3R5fYBaZNrX3BjFKwTveAc2AML0RcASKnqIXbYtstCjQ8aBBOyA+wNhh30gUcYbcicaZOGvOXblKTLGaKJqYBcK4uRjVeZzcoff45cztHk4b1dULxPk/yq8kB9DpAX3hsUO4bxcEAl79zv+yeobJAAWgQmrrhaBXD3y9eZ+wowaFU+7WUEHkbCFtkAdBjXz9dXl5o0jUuSpz2ahyUnzRnupxiQQm5ELrijEyvrfd4TJAyjcfbvw2uStoRZkvCc9QXvXeFNWDMD3t9mxztQbtJzADzz8DCKhHysC9PTThd1BvU1ILvM1LCQLGdnlq8KZ/JdMPMsf3oFKTAbZv9M2T5fSiFxiUzNmLXmg4GNz2VVQKcOuc+pRp4+uN7bf5ApXfa4qvd+P0KkjbGHGpJEEN3g9LWgkqhaH+PNdWmgYD7Vxd488PiAmWu9vyIFbWoFOEGz8EzR18fN8B604wYGlWCcmGpGe412MgWGT9TQqMP2+Oy7cXc7RIeU3pKpv51+Z0QZTycTIS8VJ+UE9FyN7VhtgHIJxWWGMp8bZOTQVDoStzEuPFcaqUqKQJl+u/UAjKMK635MZBmIm0Z/Uk5NI2+LSseAV49FnvGVmwRGbbKI8orQfskIcIVHnOLbPJceIbdOBZP9NreyakaTffyJ6RBlZjmxEiG6B+P46t0C9SFXlci9YG5VivA4HrMGbbWfWK7PeeP3B0leBJYOICR/SaMUlRIDmelzJGo/eZGT+xhY59/vmcMESftzFAZ5w4OCRb9zPohxVoLZwxZ+2dt5Bhk4UQ80NbJH380/YHYsl2MjJoHUPq1IcKhf+PJk3y8dmXxpTVhjCjyf/ZKvQGk0sWLn3xEpVjVUugcRMBeUZsZ1tkslb4Kxnz43UhxeqJSv+tgxYfUowuvFpYbqyrfceKMvIPE+u9kXYl2ZHFgaX+hcg8PDOXqros9G58drMy6XpKg2OZZ1VJX0oJrktMBqp3ZWZ2hOMQ3KfInUcmospDP8JtTJMOVmU2g0hBdKX6+n0Ps3C2cDAp2caOh4TETog0t7cvwED8QkBmpajXtFbowrbPlN22Nt7aJGBTOqS8rGbm8ccszaMm79YdHQBdBtn9nsvr/Qi/reoxju5WG0jmm/3M3OCZU/pHatrrnKh3/n+qlNyILp1GxBl9Vy8wyQXdeX8vMaEX6vvssglitxh3358TfVfMbA8cbvBOQ/6EfysTn8aIuW6VkT76n1vBksClkChqFx/ewQVWOpNw6zkVRdVUxvfGWUXH+sajVkWm+ImBy2qJCPxVoSj2x8HXTB2KFcWFo7q2R2Ji7I3AQMuEm0UCtqOgphrSe+jQ8aBBSiA+wNhvCigZih9uBbpAIJu88JSdv9aFjur8lvTvhwO+LbtVVEvyvJEhCsljzRbXJYqC7xi3AbRGfx0JaEf19l68LYOt0PjjZPqmdjHw5nDD7Nwx5MHWBnAHUp0t/hEoPYY9s8ZioLDn58AWa7tV+vU6K2+c33+533EIACxL9ljA0aqOROqvqDsWfVRMS2XFFR4wvxPA6yYUDRABorRaaluEFt7I+WAmmAO0ZCIuvvPq92B3VNYN5dn9czStK2xdaQ3UpOSfcMN4GfR9KcwCajJxZWp6NhwImgh9ZqmBS3aF5N/mAn9Q2YOY1MHm/rmcfejMt9fF/Xfcxoku77mH+x7tq3XAm+aPKfaPROQCW0ygdokwB4Wh7wcXbhPJrJPw2/s3Kl27YkBPb5wfcYYEjIxwIff0lXRq5bwCCP9j6ubRbFfT2GT7D9LLFbqtOoTN0bHUI13qQdCgEgtuSEWewQDRgHhR5SLRWEOrHBLzlkc7xzoFndzW/fBne+Fkh0itZ2SrIve7skkhFmsJaApk8Xg4ACDxwpC7rgX/pUmJIos2YoXQ/36IjyLbpc23bo9uD/bVemIzIcDtJ46tCWgqK7a7b1ciR5c8oDaWw+vwtMT/3MKPfaEFpYpqnhgVWZsyZ51UqazlYEuOYUTud9GWGJLjb9rRNRO4DsfgbUGeUoTayuziH8AMbptuLSxVm7yOf7rKoJBmatcxmKKL4KkJWQPKT+BwPWG579t/B65mdeYs2enwy07njk/Cbd648QUbglKcM9cepPvrnslx9BF+HUkMGu3Yk5tc1voY852jbCTe8rcFGl6fTRtWcps1PC3x7VzL70UyJV4qcIrtA33oA92LCmyYYd9KDhbbD0WdIP5LhJyRzehoC6Xb0MXdDDqxFg9hoFKyaNy6bbdpXHhderN3NknF/AKVqaIKw2qwlwyrmzusgutGsMfA/gCcWWAnxG4hzviHTD9OWaSF5mi5NoRTQ0JcU1ZVuO0o7l8m0j786/dDe94LAEC1vVtQEpNS6S7jTqHcxPxFTk/C3bP+0HYYqqBd4/g3U0fheBgY+XKU+WNroY4/ijkM1DuSagprUhd7bISdg3a4xWXxodmM0kowVHykGPodkI29X3XZ3ySXDcgpwJWOluRt3yRyqaLGsBuf7h/b9hhwQ1VDE2KR7waoQ39hdOCgkTu4iRic8p/44KeTSVme4bN4VULuKwzqO9SWwVMk+nFmrGxZ99MYyNSYkDdlVMD9DwBop2w+M5iJPMsckTsZmKRi0ynUN1nddINmVyjQ8aBBWSA+wNhtipoiW9Fl3p6nSDbaNjoON185Zmw3Cp0RKF2EPm6qlZWjQWFvRMocwaZ6EiBUml4/sWcE0LIA+zyp1Wa0ezvtq0oS8yXElw4w1N+13fRHuQs7FPZ60t8z+b/qvIbeq4Lx0GvAPTuQf8rFulAorux0Fk4EpY3dY3oBP4868U+4/hVGDf52Q0uxo3Zr14LdFpiy1i13WBlr2mphxCeE2PmRWRIDVXIIRQgB7TeFvQ4oVzsBJEPEjOtBbT5L2vWzF9D6F4yK49v7FKz3su8RFtRYVLuroEYN9z9X3NvyUbGYmm0AjxPIEYfgp4PUTYdv6rvok3SmtIwcHOrJnszFrAMB/ugseH7ai0i9gFloWCLvi0Aiu99dm389BYC3cDFRxvqrVyQLujwFSMfaWK8FZFYDXJoKAHk7jcbmcrIY28D9WGJ8AVZ3mRLL5IoAJU34nRcpZ2hOuaUFjgvQ6EGI4g9R9xA+lLJvDLdy2JSHhI+4QJc1daUroKTGTN68zBxsAynbKPdyCP+Qfg7alW4doFIC2UV/n91XrsJSiz219HtyEZ01jOFBe+MCT/UgTN6VNzNE8bEUQOywdeIzjvEpKc11c7f1Q0yTWvrsu1I8dnhnAXFYhaC+NYKsHoFCeknhJKABgiRaZx0XJF5xfY4/z2zILGdIL7p/7rktKSJez2F6jsIEy7KpSY1RLKWBUE/HxlB+a/8WL5jnWOuHzwxsnxiwkcN+LsiUpWE5X9trQSbv/hKsppkWtD5rR5LDVjQh3BHVWbvwVVO36OZ64Yj5utRQ2tXdOFtIlmEWILbMKD4onE/wkhmAbrqD1uJU97f3IYtSOfDYQTWJg28hKKNkl+2YYqcxFULe2nU7OHJv2kD+uTSvjPd/V8RikbxC4KbQhEEM45+q6q2qxxaUP1ntRWUrt+bDH/TTJXbU7mskR4kT7bBrK6Z4YwgDYUfxUBH/ha1K+DELXSfRyiOF8Er41hQGgUdclwXgsKjoJdG/5j/1nnleP/dOqXmeaR+cXP4WtM2xGIJwsAGH5fQUDkJNGhWgnmsr0Ctp9cp2RajH7VBNh3fme19IfBBPOfew7jq/BvbUQ1qf3Cc9VdIycY3Q1uMQmHai1lyImEAEdMFM7prJEUomHcExGBNC+O/t9y8bWBpfPEoEz2eqJlpMhcD3FAXHUI3lhGjUGaxpKYik7crPkkQry3abYztZLynnXpUSwzkr/oLSFPmuzJw6q4fmfTPhgZw6KhLLGWVi9lwaqv1Bz7U2woVQBsh383sBUP8wumjQ8aBBaCA+wNhNXTXjapoM00LnyVq/DP2EzTO+wOptPKBMhSvWTDmphoKJyIHbg8qjaCzx2oxzwQmnAc9evNFBvPglnju3vvgx3las33jVRFG+7+tOUwRTEPejOGILY97uQ366TKN+RsRy/Br+h6chzqi/5Ho+0vFvvDAAMbFYrW7PWilmCAFgmfEByw5kRckuBoWE1O2G66gJW2yUEj8fzmLBrkwn7VRa7g/kGfyjPwGhfLb83XE+TwyRkc7Yp7vH1lYxqvshh+w0GhXBAUd+fHq2IIp2kXG5OzXwoeyZq7GpWvw6yFck5y/hh2QwqjwyMLjDbN86CxHGsTP8ubuAvxdBYWFBGKcOtXl8/Sp7e3N9ehvhbLahaVf41QaK5DccqOGpCzeGaDmKWFArs6ol+B+atbVKg4OaS4o56Yvt7cNa+ynRE3ooGA6I7IMmD6N5JhYm86Ai2O1amPRJ//3zOUP1cRrjWv0Kc6HQ8Np8RUaMyIrlZdUII2DZryoqdldZ5qc7HilWea8CXBl0jo8hseVdv/jU0k6KoD/pEzpTmjaelvGm3TMKmzf18xZgNFRbLVsX4dt7paRNzbFbUOfLZz0vZB3+zTsrNPKitnRwNkelgNz+vH6W7SnSLrIMfj+VJgw6c3KZNtwNn4lmE0kljebJEQcKUNUAU+ZKWwwuODkE4qsGoTevs8lDLEOgdNaO72p/yyG3nSjhSoULct0zXOQnAiniJAeZzhuND8QwluL5MlEbF3QQ3amFsLmtwIBE/6kfTNp2wv8jl8bp3OunDu1h9BIHlKeyOx0zdcnRru3gU/Q1N33NFxqFvmxc0He2KiYo//uhJBPzJt/LhK9oh66wcP6XKmBYZQYDCeNf7JK1Qh0UAVlDoCS0vFiX0h26CHlgFwjSnyw/0VkDFO0np8KMvOJn3ucF7xjFjrD73tManIgZJAiX2uXkPMsISphz1h9wO+XDO7OSnD/k71wnbD5tiKJwcunU4mwtFLWVXYEEAJcAMkZzktlqpMxySBdM6c525FfX/XK90Fg6532T6PsbLJCMAg3WkzSKRAWKzWu7OAJvK/bO+XGjQIYubG4kLKEfu5iua9isqmCNiAmrFrLn9gYfefELwXbS8wL7I234aVcdZp6WdxYubF/p8kyZRdxYZhN4p8z294qOR+e5lCbRN762WK/CJ0XLOCEZ35QZMQQc5K1VvNQMa+hYwqCanfvb58Cmqo0M06/x88d1uwU+z1GBFWdMCQHdmagJ7P/seOdpqG8iGKdJCabKfA4Dv2SCLzHVzmjQ8aBBdyA+wNhh6og4OH2350N+jf3zWPlR8BqyIBMz+cbgcxf23KkGniwxKNLde/qSyJcGydLeRwJQuAqCD5vOoUnBjRbphPzJ6Dap5HNAdFmxdF3y4Zf1XlFHU8p6RIXcjyrT9FALmOHp3AjG0RowfZmzXFwxATqAGAthtBnY+e9sPiwvVHEjGUo0aSJUEDhFnfoNIxJZ4LBlY3Cxcs,
Syfi7JCc2PIJz2LCUPpaxhacISrvjP+C4E79hYeiwPgA6OsEzdl+GcjS85hi00BJau0iIXB3qZXbA66dAsUqpdcJSusOovd8XulU58iwlCapqrDtbBHhNepGYM0tKzD21i6L3LVdxZgTSuj8ACsHJDF+VVW1RYit3wdcRVyqf8/R8ZHExs6djBuTlPB6mxRz5khed0ffmIGCUR/fH0MEdDM/qUfB99Bp52GHa1qx6NzhH0La2/T1qYSwuG3wbuI64nW5AP0i4w6rGT60HjwPiXKry8iBV/Y/hqJ4zbpLlL/EpoIEbL2P/r9BQBtAQewQURuMh3I4DgOsSICzFbNsV5WmadbWD023z9cW3kfgCUI+ixFz9P0zYxJUsnNjb+3He80vw9K+Mx5cTuL8CO4PGiExhjR0Qm8tNuhzzy3ixGX2bfVOZSecnZKQzIbn2GnDQ9FdKXaROcZEW6aGS8PI/a+YC0AHA30oBG8Pq5pvofwjoN2y/dOIbDPtW7MQM7uKzKmD9av0EAVo/K4dskV+2MG4X4GA/TOBRPpXmnma1mAkbefvWCAUClBOVxNPD23j6hOGbuDmgg1TGB3uJy14nij3vQfNgdt5va8Hw43rqN73NIav6oWai0/EqTvk5GxBkt2KfdnVMF1qYYn/HH3LzzVsv/FzqN6d9HAwZrCkzT/+JSuJmKhwk17BP4AU0s7wpkTDMQYkejwj9JEE8lJTEZOH42icwMKjU7DtaydHMhqhec2K7TdZMyxMYLUkIU7XUTqWhxfsXPEF7DNBM9zeepXKfhj4WTWU6KNgY/E3dKHM1yM+Q1hoReIpS3fbyrhsLswdBFvgoDH4eqHbDkl4UBnVO/O1OpNn7AkzLIBXhomuG08eXDuEj8HlLt21kK5YZaIUtNXIY5Scu4EwQ9jT28cWbY+CU4whn37vCzlz1lf+9pNVaANvPOdEwIml2gPO4bCHz7KK2gEfOOZ8qrloIvI9+pq/EtzMpORUp46k0R+JRF5ueGqCmEWCudZ/cFUlWWlJ7P2UpleyRkFs8oawUpid3hJ7n7kTRuprsOxuDtW3H72Dh9McLuKjQ8aBBhiA+wNhk+Duu+I1+UV4/UoFjFKm7izI9RzxqRKkVNmwWivrFJnT3FINAnyuH7fE8Glzx+zf8XMwojm879391icsJxtmHIp3qUAjECS23UXPJj1bWrq8nmmtzMAmJkiAou1g26ac4KbVH5T9A7JpQMZBFPAPnHTLAAJrAxaclFtJkwzsZtD9JRdcvFeNmlk1sRqsWgOPZzGf5UAdntD8yPya9MXhoGQ7XU1wTzo9MJnhZRP0Ij2RYicNWqhBc5wsE5+WS99BLBGASAsmfeRLgN2IBxbPLlb/mOnltFFhacFGTvTPIZx33QD0IUgsBcYm3Qum45TQ5Hsh3fAk2Fnfn/Sze4MX9d/ESH7kXM0AXu77HhyTdJ2SygnCj68JDPYdJNozvT9Z9F9to6UbtnNs3nv6oTKm0h0BroYyBxYwr9Bek4pffGE16p+hbWs0tzoi0C+YKAvwVIvZU3ZKvrR7zSFB7IfQIlG+4sGJAfmerScAZ/8Qgh8sATv9IJe5pUeNQ+FbtYh3f13zAr19MYZD93sD2JttRb2CRibRRjcaOyjWq+CuohIjFgJ/VM28d260Lv/sA0vnzCk1hQOIrhXNBAwxGSApgFVFYVXfnclmAagEihyT7DZjCOqMJ7RYEFh+O09JkLDyPXUHD8eKfZxWmQUOdp7CMQvLv0yTKuyEDhNDzR1ungNbtLCcOMWVy+ApNX1FsROYUmeweSttzbK0muL/zFgnnJkVNI7wcBgi3x1eOyyk59MARB5QWaBuv5ZHmXobNe6068+1/6u8/KSt2gNrxgKDCRUUaX+j8xvnzNysK212bQqUbixSDW+ztbrKpqUj3Sz5PFp33IF4stjKz9c+67EoYZP0iXCkf4jaaHWGHD+Dt6ztcxRLqeozvFFnOJxRODi/S5d0cnLN2MNg7hxaDtNuWU53KH00cXXL7xBUhAabL2KVVpJ1yQEhZlnS9bkWSBprVN3t1b/L7zumlY+7MJyQKg5I1XlY4jGEVWenT3Ll3XxPmb8QU/ZiSzwy6XKgf4//6dB3cf/gCiXI/hKvhDFqyDdgbHAFqVi6sCXBmS7cJtNmT1NIyGkx8/MK6Hi3o4vzdFOT4l8eIJdvsfxwmwPITGyBiMA3Mduguv3PlIHZGvh9smVLCnwuYteZDVperSBV9c05+YWqvmK/jGH8A0HlNUSG3Oz51GeWFcYMHG5yciSU6R7jUrCipMIDu1/eQsm6toJoIv6LD7dY1z1o7h7JNvXrhdDd2whzXzvMAywEP5sVokFtjlGzML2CjDny9TCjQ8aBBlSA+wNhkw4xHTCznAap6brvSFnrEKTar0DL6W1l7FqJxJMz5arhZAxtXfrCxVjdWN7mPYNS4ehvT5Qq/B3mSKZdXMD1o2rqs6OF2RuVKkHO6u76vg1Rvp+5/SF4bwJ15+EsQAYgqFDz//8yj7T1Y5pvZ91xeD5j/L0fjAivQ7bDwqp4A5fhfnvxMDw6jnKg36EFv/yD7SGDz2mSn24DGOajl8858DaRGDcDXJyL4elznDjnOPOYgvKbEMDiZ/sXgSqDGLzIC3U4IRrW/LMcsvPMc8+edZ2q1tHWo/hHEgh1EhDV2/udn3HpHW0gNIARxbtwT0Dc4IGmS3hleY0rjx+UT+mocrkab6UVTZXa2bxIye1uJjf92aBjFamuQJLMNBQVzAVgRpQdr4whTl7vTzQOmb7DiBXUqZ7h6So7vaabkQntiGGGBHPhqGib8XurZ34Gyg2kqo38pVkLMkNFCep5pWkQA1nIS5NBCKnnYVJuhUNY4V2KGfQtz4WxswQOGzkM8Xpz0uUnGMZXyK7MQ71iMHeBi0Z7a76xf5Uf8zwU2D8vXK0tzZ1IwoKKful1EufRLESTf+Fzff75PDD81qGjY23kfl4MHHw75OxwUH/PmCPly00xhfYVbmjDD85uiN4kr/JOYJ+qfHH592BOFWD9FtS651hwc2HmmN1ncNBfXpDNB/IQ3HO461GoXhQuxH3TYPTiTzuu24M65qu2DvwfMfhq1Lo+uHD1siQkR+YokDnaKz4N5bWvgDAbVUrVAs1xH2LlBr3/RxrWmnvoG+vgckw9g6+IhuixKAR6Zy8MyFFdANY+WJAPSZYRqbU15WP0R+9nq1gg+s8ltEC5yZ8xj+rAYYdtCUL+tF5jYg1WEAIUN1vCT0tLRx9xDZTD6wrZY5rjMGCSumb3cS12d0eQCIw0h08yOETa6Bd6qdj8WibOBJFmcLnnz2pQKwu0nLceBAGgLe/HCR/JG7CBU8Kk7HL2eIn7Eg6Bi8ncul+MrGUa/PnOjj0akGZKMg6yNGAhkybEcFwwGqM6ovAtMHES+81/0giYS8V36KZPBW9qvV5fIDmzFVbWZ+xqmO6hMZev+uH1xUQXi1no9TALVHrSg5wT8tbHM/JvpOvMYx6X1dGoF+KdD5osSemWrH4c31MPwk7nyHkQnwC7oHOnUQb1e3P9Q+sNXvoJnyD/5cwqIEGRIs+9p/b0FV3JmXyqS11veMbi3Nes/aysc6uEgCpwYX9febJFbKVktmejyD6GYU2vtBSn8cGUIlqgq4tggAZ2+MGjQ8aBBpCA+wNhuBZKnoss6HZJPmKOl8njuTqdrqJcY8Fl8eK0yIW4xx0Ay6L66qPNHnb3zJUTNC9Aopecy27+QWKrlzriBYABOv/4yZ4FpSb5L88A1TPjQX3XRcAcJf/HW5P8N6Pre+hGzFfWBUCj9GRV1z9qa7zb7gX/HURFxZoWHiluxPEBkYh+bIrowbC01tnJffzdVw1mzWGY3CjDSJYEJy2Uqe9NGwTkocEiKLY5cNmadAtVf4CBWR8DGj+2VJOSsRMyO28uesNYikrD8Whx2kKk9ynIcjeZoGJScEBlBDvNjTsrHRWRV6kHNfVg9OBXkY0E2ydaiHONuL1fgRGFCx8UAdW4xlYGC3jzXGLeTI05/s8IqPvf0P8AoAyDhOCRXsQWGn/y00ts3pZVr6NGfgonlrjjjQZobIrZM6Ydq8VDs9B9b2G7z/UcJrGI2veNqKaLboG44a+yCZMMCiWgXbFMs/cDc+PFBGarfZESUlzitcQw4Kq2u/LoZiIYQcQMiqeFFdS/EsLDHk8qf056TJK3Epkb7ccJFlha03rhugOJHDaOhj0po5xYk0OkUXJyO9dhAQ2bd9OessudL6XKTZ7AHkTiHEvCL4DB2wjpmoZsI3xrgRoLNdZL8FiznBF9zuGhVwc5cfofobDCBg7+sp2Re7rlRj1MVlrNSxfXpdM0rmV/tSPaBliIbQrOnl+nafyLBPpRrwaVluoszrPp5e9YiC8kej6H4ge7VXExDUcZ3er3wGJBEWUwR4SLQ+jzDETEx47v6MFu6ASQyhwrQI/0sUrsSqNZ45aBp18rNFHwNXF/eeNQ1fxOrL3EWIoQ2Hs90LMDa5Sa8syKof/odQQVud2TYbw5a31LB40jldZsRxn7NfcWHO6BdnRLS7No4MW56MRGEvm0FJaLB9tMadzn6JaNgzka5ZFdQ9Qa94Zw6DqwiT9ro8IUGcTyNoXPzLdvq0+G6scPZ0QrOlwXsF8WTcaRNo57oOkYgCaO/hLCCozBKijYxB6D5TKcfGB+9T73//eExb8VxYE7bmQ2oiS7y59W34Engg1/kpk/EMGLtmVVUsNdueLSK8tntMRq8Uj3K8TUoZiV5LDa8o4e5G56c5WjrnbpJwumZJrZuKcFRq7RjNi7zEwQGaHDLfoRm8Ok15qrfA1YpTQuSzxEN3D2Mbxzr2aqKeWJJb6qPuZy5zzF41kiW+L7OKoFA4Eu5pLaETGP9Iz7eO/X7JY7UxQ69orOpbylcFKXsAaFzT+u9l+lX4sBW8iVKLclLovCOjbtcIGjQ8aBBsyA+wNhkyBYvgRQe+b/WkwVna3IAdOPHMbWy7B8UmEzZo3dS+IxfniqvcpPVSEfaTO32smJbE5oS3EHVc+NBLL1j9HM41wf32qhZlpzs6NyOj81jXslAsit9ZAp/Efy8iEB6REQHfBT5JpbJqrQfiKS4sXVYN3WC4ClAZABx8S7/p/ZJk2Sig0srQugFAyoxj3mamMmtD7C/UUJsghQwlU4FR3EXO4QW19DmHFHjcWM/UJ+LZMgWP7fzF3KUVkm4dsj2pxUqpEs5KQem2ENM4NY581KURFpbEugIRHsyWh6xUuepO1C9vxFfvV+jl4zYKOYKTR5j/y97sAwpCBZOi7j/QiYVHWEjVhQnwwy+TEoz7DLGFqWnLoJLKC4dnwi8/AMhYAmKADRVcJIFG/2OOG0vsCQN0Oe9ce7+TUOms7w9+yy8GG4kdlYESQj7knYruOcSss4syytiE1Ufza7YUzFyQi6Neppdxd25vk6vsF/cdXa8z3vCsE3Goh8bDIzbz/DXTjRdXShhCdNZ+dbJKNFAAu9GugHaaL9OWWL68zr61ZGYSjtU0fnuYKujAGuy2gYS2MhgXMiTOOnKttbQ9ePqnNkZV/Z9R38HD3lgRZsh18kSbIZ25QUdiHV2uM+GAMFs1WjGvAoTY16kqB6NAS5TnnpmDLn5sdZSfHLM0XDLFe4O4IIgD7lcVcWfiHPT0WMsuKpGgBKH1TZp+WY6Jj+V5MBFzXrAA5aF7bb4L3YPphDHddbfJLlJBJGMC2k2g2PKiT3c9jQlx5RztV05PPj6SoAruKMStInRHfedB23UskmqxfOeAhJ2a9xorSC/RAauuPVYJTGql/UpFEgYWsxFUAEYX2Cg4hgkenztDEOT+cZhNcgVb2vcK3/lAnegGGzVk8P6nLDKKCvnCF9ml0DPbQ3SIM3qEoVVem90ELHi7gNvcouMY35fUsCCJMAc38IoFjr+piIks60g3krkTLVOj0qU+nH/lze91H0bK4/1QLavbLU2XPjTWfeWnYhKk8qUniqsBIAu4muBu4qBYtndr98wlCAAuGFzxKFRNIpdZh/LZCCWfX93W1WZvrKe1Lku1fE1p0KUj27dUIsuKBkNBI01H33F82tORnEUY6Ns5KaIYhbuwIME+IPiqT2HKZ8W3pjMBJWgRLoJO06KVycBX1G/Hq0rIy5qypAHdwQxsvSgb3RhcyRGTuy9Zohay6/1eCl5zQ1cY9yPC+BrKEe8wCQHevhL+9O/4og46KjErzLPM0M4oBupB4h75mQK7QasMCjQ8aBBwiA+wNhuG4GLP21vfSA2/LopYfrZ1JOYI+EVP7vLejSHyXAiT4qJdgEU6o3dAC4wTfzXX2gca53jzoQdM961IRCY+5C6sFlY2gNTYbtmj/Au3JhuP6zkdnRtz9wIy6dhRzchdNrmVOiDvPqSQNV73ak7yXUOUD9NSpdYnRsGhIKy3v7MWOwJ6a4mNNOvp4Ei9SmtJEuTRqu6hNYscsOpqOJWC4T91wTastzeohMJoM+cEYB+c+9NAe45CgHdyhLf4FGaA+N/OovJ3m3aklUzfL5v9yihBS1qIfzgadLdGeFdZFj9ANDDQH8kYhCJkIcyIENaT2XdPRK6bqNyT0v4DhvgpQMnU15mVi9sQ0+lXAePeYLMeMMbCoxP6C86c1b9gk6MusOhwh9BXZc1hOccqHS3c6sQsf6BzPZVaUeh2bMtT9+zmGTuzAty/3AEBn4eOcP8EUGclHgcdmGSACtRWn3u/fHE8Es7bzEs1W3twmkWJWQODRxP3Ybzvl+SufMRmanaVzwnL1OXHQZtjJOxSuTlIy1RxOhEFnTWP69bDsm+bXKRuPbOLR42nPltZWqPtM3ldCO+yS2rLjScH1dPP0O3qB30/WHxDK992V0cmnVYn239s1imbh9UK3K5FfHM9TBo7t8RTCiBJxuzgrrKrKd4mqwD2LEEFLXXfokh3EZCbBtmM6e3Cnay/i+Wua1zEWNL5awc8hr7ew5RlNyX+OUri9nLi90MLSIIgPXFtMdseS58iTvTa4umk5BtMfbuTcXuhbv2CZz8ZBDhJ517fx26HO+8SKyDENPeTVaSwc8A9iebtN4Ew6Hq1JkULnvj55Et+PYsLXjxvrwNhvPxBzbF86wYZQYzzPyAIovJ82lmYPzMrS1aol3p2qVFrDLIu/J/8fMVp/HBRjgis5UFj/3P5zzJXh9CtEx8CMX97O0vI2gxA8RzXc3rTsag9r5nWQgf243qcYOx3SrFYZJM3dJ04t6yaOhdsZSmWDkbkBXPtAeRHnQRwAIuhVkpiYl284ZhA9IHDokP5W7J7j8cuRGBWYKFUbnHpN86nDMJlYhRZ+dl7//Dyx9XX5IKtakik300kUf8LCbbYnOcjCcpA4tKvq4kfaCcVMDsY/tQZiBKAt0vJXQNFfLLyQEwm+aRWjBsAfFUO0fhNl79pd3i27SA5oCbs3CnvWSNBIRyXC/JX8ZciscsuhIO5SdD0UHDhw5ZqOL5fTpxGipPzyJgcaZBpA9c9fXKrhZ+FJg6+nVC1KE4rpkCF4Y2huh66pOgBCD1HmjQ8aBB0SA+wNhvG6gCGTBof6AHN5KaMdgW60+qEQE7qLeN/SrV6GNiUyg0V4f+Ikz8QGbRltZA93jJNxa5zJS7rMNSFV5Rxj/gQxaaOlISKN0ckqJoqP8s+Ngnl7T7gVz4rpySY6C6JAvJqHAWmYN/oEg88lF98yT+4IKCzXLn4ZaqoyeZAHhgPAPMuPBKe7kyeU40IKkEbflivYaZWY58GsV4BOchc7uEMXLB7RQPVChx5P9x9wu5W2ticnusJUwiP0LfHTG19WB2maf3Q1UDLYjz6fXIN/xFNDS6plBkwDDp9R0Vbz4+98fGQNNAkXISfngYbQfd7cG9iGqy96jCHAWTtGQ1j09zzhB7AoY1YlKYgwYeE27AgN23zhncIDnNPrde4gku0Xla6FHceLAeOe7a/mLxd/SeS8gzCGlmqZAnZOUkB9u/mGUEilofF8kh5wkwrJw3k17b9sQNmhG4AHlcw/zaFS/Hn0zlotUE6NIwyH+sxOixZ03Et335SPTPAdypDAt8yppef2j3WJF2YDnV+WVCbdrGENs8vsxY+UPvQYC8ZJ+AIJXj87ywT0t4NW58Stm+It1svhbLzEM/mYzdKRK1DyH05Uw5m9DifNTCUghhSRCAxzpqWSi84K4jsS+d9DZiqjAUaNOZqnvN9zO+xBo5EOmxEplbx0POETmM3gu9KBCcDTMvzAO9Xo4glnVrLCDni2jXoinxsJYSwLYQhT/ODoYt5OcQ4wi+EWTFWhlFw+HfA4ttuCkZN2IAGjiq82Ko/pVQ8SE7SaZrHMqjXSoLPuIMnEIVXH6xvJr7gwDFUnT9RIvAdQp5VJ5KAnMIzDL+GmJ5NxNH1v3Eeq7mcHs4djoYcCTluC9tgVel1Fpt8VxpybPpI+nZVGw8kl8g4dbhtK9z7xkb7YdAIg/LQfOYofGgKyHbeS9Q8M/EYSjmuhaS4KM8t4LDcHNuvVnP/wl/FLKuVv6kjMwFsWDgaASW4Qw9HtC1E6kXA5N665CfgJMzXh2ydvFRdSv/EzvSQ+iImT6LlZ1mBASRkbxOhEbHjajiHmRUeyTlwp/hHsLujaYmPKJ7nipSyHLv/QYWUQ8LjxR9R7Vh3l1j82D8Vqp94fN/wOoATPF9OCvuYkWxOcJyYifkZKJEHx99UOUCWO4NNsajMtoQB8/qFXWrg+FCkyg6iTjGW07QZyobuqtzslhqs2jy8gS1nwgpJ1Bh7SW1IbVD5NU2t/L6hodzbm5XIxXHmjuj41ISNcdU78yy5pzagmuQsevOkBl+VKS5IhyiD+jQ8aBB4CA+wNhk/bkRy6BP1yVRtRrCI7g5OvXxXUoKoYaEIzYM4L2L/vLpgr9Ee2gUSVIMcNxNAjroMlJMziGmeIzKEP4jitWKLynLV6E97OXRz2iYNHCNvCyA+su58AVwMiLVrsjHNfi4EuZymfw9nI55LhfHb5KMRitt6b5DcyptZV8wkowMnJB+SFAm/DYWkGGbaM8EDpKUiJAzXpZP6scDMc+DoaB5RZbhr3aexfjBbcibZ3Hp9IFXS0k9InjL3r1K1IA9+mHrX4uFcGUfAwv6ba50iJvPmxrPi+E3SOROYF/yqAwiKCeWM4sWPtrzdBANvWeI9sLXGORTAigDjFwnjAa/74nkvHQtqL8r8e90M7QYd2qmnwqEfowNa6b/lksI5+N57iLzuTKtPyR0cYNY2qVZ6eciENvffqUFCQtydZYDm6AemGT6OVuKCDF5X8gsBJeRAM7NwySP4+K57NgJ1JkwJPY0yuE5HUfiUoML16B9BEdJgk5n7ibnZBpKsauhRVwhHWJvkIksJxcjZttetA6RS65POSylbAlB0ExvTJQJAAC/YzCWptQ1odJnChr8jpWI7XCmXxDezSZNk3AS595CBCi5Ru16XPyQeBXvITxYMif5kBowfREurbmFw2/fY7WJTt0rY1noCBj5Y2JwP6tD1Sjyt7YUHrhUNlTcfuQRwA9x8qiraHlPDsHfdVTaYeyp5QZJEjIfiag/FksyEjrwCNR73qFnYmh0EGCNGY4IlgWuF0CnL3aFHEGp43jw61W9hggifs9RrCOqVuiWq3soaHHYofWEUMcZoUblnFQbGYjPIQ7jazCuoNyR2ip/XaQ9wlwCxrU+swMIp2XSDk0WzI1YYdrrE5MOkGavplx4V2JKeiAaMC3WCqqD02aZnYRxsFxVSa1XAo3+GE2v6EgHYfo3jsCIok6sQ5pvp3wyWX6big+12NVvjWoL+lvfGRFm1DRfVCMhrrZPPHoQCt++QuGycStKQjgjHfwHX1CBurFGOQmOVXNAUJVcv1tz2FeRl1YaEcOMFU8n/wfANoXtIV69kDOrWTcPydMynzypCPhiU90nW0C6lW1pro6ieMZtHOl/6jfIe4I+fE8TQHR8R8Jc4WXk9j4SlQsZrJqLMQzEeOSMxtaGKqoXtkSXgIzbo55zW69YT7geY18Z1OHwi61fsyGzlfYL6VMV3iIKtsXTbxYWKppAtuLFonRTOsQ56h9OfdT7n6aJs9q+9+0boi7aScVWFYKRU98Zm5gZHE/zoW00TVzKN00Ta6rfgW8XUKjQ8aBB7yA+wNhif72X2H14+TVk0gOA6rZ/dfSJIATTVNwti4G7Yua0cttPXz8cUkJbOAPF24yTNVXYls/zwq2ZGenNkcbIKvruYffxS+NX1Ob7k0kZq45BG+uKvt0LaD4Mf6GYBqsvyV3mviJIL+fdhaIuC9ZP5l6uWWBEm1ZUSdnsK7IRzeFnjMtWpV3GEXmz7vHOx5rViYSZmXfmUk0K+o6nM3N7bVKe4BBwGDeusKCuLuzoo/vSMHQhHKcGmfr2Q4E57AU2jl33LDZNtr3ScH04zbE03RvqiavmC/q8vSdI7BUyJwv/CHVS43q3RMoaOc6519BR12dsD6klvFZKS8nLpUnjUdb9OKOCbLmGehPT7+rBknZn6tfRGyEN0QCg8+vNnUgMjIAhId5ltp9VZ3dSf/mOmzmzNBlC686rrLu6ym/2zk+M2GT39th+Hly5kCKxSPVmvTBcSmWXx63ZFySeH/RJUn7RClrHFM/P92/WBnKCMDj+2b02rnD4LQ3v3xXlklNJ4K2QgqWxZRe1+sApuLbvbHNcn2v24pWixBFgx5ioHSJeMeVTfs3zfHO4ewnuMRcO/Yo+8OVNxwmtwx3rbh9MuKtGB8Ncyv0Ofjw0Q9wP+pzouNcS2FqKpwyfY98G9sEXH5EeaDQW+LaajyvPi2TgyGzH1EjY0pHHjxU/3l/q3v7Gsbe7FTcwtXmPA3NcAD0hy1m//I/KqvDDV4313Z4axDSWB+y8+rFIp3xEKE+i2QVGp2hZk6iUbPfLK7dUj2Ws5ENoNHv7/spYo4LGIJvgOn31VKAYEgCW1HtHGHAPU1M7KDaeHfLk3lQ08gHfO6jlRIz7txTWRjekv/wAnTTMvGxYZO8C6xNtSxhd/Niwrf0cPQNpwKWNLm7PS6ETeqMd6fsPhq7r6O87yhxFT4n/VsLSZfo7soUxbC3FB1GloeWjRCqRx1karyKHthb5npQOpJXkURQLy/pVIAhjPVn/nP/yKppkXNwVYDaW2MYpR8XCijt4IZHHS6mmPA3noSrfxrjy9BMdWFp8472G2wV7Xrt9gbP9vT3jNsQkh8YXVkeECi1E2pR5NjhWxwm82UefEmIRbW4L0bYSfeS1PzOP6/KI/ZUEmZTinomijyecHB+TgLePpJmi3OdH0VrD52vwUslLZFRIXYfeatsntgo6lFn1kxPdpZ7ID8ohsS9juJh33nbxsBqf9JgfDS36Le0WiuJrcfejmAzVigUAJckZHN/X+arHF28RGsxqDDcfxt3vVXa/AIXRJ22QP2Dm2ft3/KjQ8aBB/iA+wNhk+xUrGkvgZqU96/gkEa0Du2pEsUGTzEo9wn1CgFCaPpycOGJubTG5cpXVTCkbDvrjvEm/PvjIjAX/wkmN+vKeawC4jKtlDtAegLl58LzXEtfBktmTFuacyPVtHeLA2XfZYp2inyry2DlyhKbwUL2qaLPgp7TUkbsY4eOSmSDQWhQBJdS45OaNIa1GeXM+THy/3CjAdVlE2HGCbAOpcjHO7YRiY8bxqX6tmQOLdfuYl1gAQE+XOg4sM2C1OIOrc6GpxymVDa31+ostsP0teZqBOCdkPGs/++9vK1WqZGDQ+bQxs8ahSI+5xBwdWlS/DUCAANFMdTbJN75oqA3T9lNNNRF4cxuDUbpMKdo0naQ1razk2vYQYRWllzG4v5E942jf5GD2mRud6or1zdMB94Y1UAg1sBTPRYcbfR6PAJr2GGHq+wb6igHjLS9FkNzUvlcSVnMVu383RDR9bKpF51udLL3HEOFYUk7ym19jIVT+y0PbDIj50BG4+3HArsWMc4ZwIwg3lwC125jOC2kvhsRyeld6S9DNGrX64bp5nhEDf4749o+/dyEkXVCQopSPyT0TIyVxiLyXdQdXt8D3n2NA1CKVbT8cs3tYjJvq/70cUPH7ias1lXRhhs9/DPMfBIU6lr7nKHcRtBLFpv5CwINUrzPVzpEdl5yRBmEx3ie716QToJnBv6oC3agwwWFRJln5HBOMQImt06TJ9R5YMJ6aUeS29cnH7MS/1DSQC3f8mLFV0eGVt0J6Vcr3kJ58IbrYrvvIFnH1KOKefWHdfMkQ1dkNDW4nSxybuVQDJftAFMWjRFcjmNZygUS92NjEGQZCG/X1kScs8+OTlb7hZkQYYeqnlK596J+XayZysRGybE3PmfZbL2TgitrbWlnSAqrsGsyAwEgjQqZkEFzf2aYzID/dR+AaVv/RiYdR1F+ICfaB/YCGCXUDvnp5j8sREho5BbCycI9bkU+7jB5NdjJ6nZIR4ZcdysfM7ZvC8OA+GuyrXNhwg8dyatNJfj9i5xOVtMCwIAeepFj43inSE4jAVNrJCpJFzGfhrvqn+EhvKlHE+ziyTxZwrytCsi2Izq9Zap9KanD9A+M/+HfhJjQiGMEhOr0D1QA86VujKfpYbzxV+fMmRfJ6hUXP3rYDYgVzuwzrGZYfjhjAiF6A0mYXJq2baE8PBGfv3mZ0hShsMbrD9xfEsZrRFPha3pvC4SlhRtDyNX7nBdV4+z2jLzsMZRk52I721iykSdJUSZN+lTrG7gc9IqjT7iBZLdCRZKjQ8aBCDSA+wNhk/R+9h6Aokne0e8H2aLcAJCN7DfIo+G19COwwOhL/IW4URhHXVt6N9oZhF3iFpJBzPN1iH1t/reDTbpUrTyWP9wOCoNxSYW+1NvdN3aj5swCaiiFYIW9f7Od3C4jsS+FfXqsYtIkvGQbZuDdnAwJt3ndBxm5JdasqOuve96SmNkYiCPGPvQ88V4QYTtHGZRu4j+QUAu1RsCJGGoFcFeoxD82Zr4R8dB4aYB/R4vGiGX5rSfODkFOd4WhgDu0Q6PXiGKNtcNPcmDk5Y9FMXyKPT7pkjvUuhns78QDtkhyyFkxaDjtX2jXP/b15UITQDFnrZaSVQTspknFh8K04G1re5XSGgUUUN3Y8yhqQDL1F/mpmfJA/ta317Asu8g8xGdKURY3HEbQ0joxXlYj7or6uIqu4uoE97P56qO8l6eRWGG8JSVOAEGkaUcQmZBUiRst6G5RaLhT0XWXsI4ded5/Bk1N8EWqwNAjrLLDo+Y5tzgprXCj/2lPn03Z6zHB6LMh6O4NwmorigFN+iBps4E784d/rX/jH7orR7VyLamIZzM9J9+bWy0rwrKpjFJrJXWXKllgy09vC5o6Kj/6VGGzBxmWEUQGuY7k+voxR5g/LYzP8G5EZpSfr0V6bsMkfKMBdFVc4bx6R2/YenShwhXjoNr+mIqDo8M69y8f+bNFbKCiT6FRCpTKSZy1+QzLaJ9jJv8/xmPC0tRRcSle+cvsRYEtJLugJsmxoMeDrS12MjK4n+GEN+L8nuc/qbu9/vgSy5fPkCfE+k5fj6IGinUaOGRInpld3g4P1q7Je4GLBjAwwgOpk96aU3miT/J8/VG7KMwnJoxtIx/Ln9/sO0n3Ybx+Mdi8fPz9LyjLX5H1Cu1GaUTQ5sMY6UK0Rz5s+etxjZ/efZLnarz7XbegzyJWMd2vur5gzSDaRgjwvPU5u7GMw2QzSRdpHKMQ7Eb7aLF4ETNlSVc+tnY8STvxK9LMeC/tM021bTfnWu+YDVHJXUdj2XTSmz1o+PSz8L0J/7GznMjFyHn5B/KDNWPEsLLh4ica7wB39xDR+lUbn89WhuI5onAL6v7L3FWN8IhP7im1RnPT9MkkACNP43oW03BVCiHgdEFB6BEXho8ygZduf7Efx1yX/banhOS/oxS5MuhcE4yQEb1QteN6chpZrjcDy5Z7EzGkBC0BXw0O/ZE3Y/QLOWvl26APfnL7ZqoxhuPC5Pe11b2CUw120WLxlFbG0riicCSsa/ZAp4c2el8QrfNPXTGOwBGWH3+O4Sh5HLejQ8aBCHCA+wNhk+y4nds6xv3hOiOx8mgkS3gTNBoRBXMy/SWV+aTqCdIMEPMIIJkpdyVPYjNPD38R74i7JF2Rgt25SJ+srIvrELBrAYxnR2sihhQKR1yJAeS5Q1DY0BykutlGnYC50nZC1079JtPurUL1TGVIZ5PG8Fx1Ecs3RzKk8jGqKLirX+zgdPRWoqDx+etgiWF20S3DvqkRVSZWvdv27f0T5rnr1YbHYHFLGLqVX1xpT5eendqopX7dyY3NWyKQ//0GAqzfcd4cpnK9A66UKk6U6pF49UsFDA5ZtUJm0hARvbqzRHTyodj5uQpiVP/KotHauCQ+58iTtjOvcyRB5HJaO7WRWOqSyRZl5Yj35ZpzX2OxAWIKG6sUl9u8qNGCv3YCXL49I3h3yLha76r1U5uW5y7+HSvQjGrTKsUS3yVuVUS0YGGHa2OGVp5OimVpEOZMRBhufsz/WlUYwZ3d8d14xd3wHPffYU1nj5yhdYgpFHGvKSs3dYdVY0c5oMpT5y+2X+4HIxWyd78rpv4eHKWwqN5w0muEUXr7ge7+BLFTa3rZ3gQYTCK9I8Nyiw/0o2QPgEIdbEf7omEmEYov3JtYjdU/AB/rGFp8kf/jphdTfvllTXlYKyTL3FpeBOvtO7+dFuJU3DJMJeQtLZ672gd+YP2rm4/ITBeHfSlWuVurmnpvTVN6oRJl+OEqmlwDQPUKcUuBGwWakZOgIFT0v8qL1Vc8YlEvGk15lAHMoBvUxhEd6fC5Jd30Ky7euOtrkz44qpbmaBsd4iq8dbJkwzASMWAyKiqApUjkDmOHSy6wO2dkQuO//g8mKqbQUspWkqtrgdU8x5hZK8n0NgnNjJNAsp9BYYn/CGfMVjpszVQlFuL7ecC4c/zMJF0PxZfS0PiTVqPMHdrdgfd49Fl/u9LkpPxMBpfPx4hSvMv6e9z+KJoviX0VITXtWylVYMHo1KlHIA6WaCmE2hWU0OWyi+fx/gqi//q27gXuBzHVl3ETDLyw2CjhCA1q5UZkhSj2L5+ldEWVQ6UplEOXmKIYbbdmy604daA7FSUPZ9izFej5EtgPgiRuEjYITfEZQ0/agmQCM6sqOAsSsTCpH9kcoY8ekSRe6Xiez2LKPnfP1QWKE6UaNFXC63jqyQKgayjycck1OJE95kqqoH1Qb2ZezdbH6onFrKHZiuRfsE590O79xdd3OdKXXAKTznI68p4thSgFz/a/QsGRqGOFeWkJYpQGGHw/RgDwVx6sn5tCUH5EoEP2MHuPncBgnwAQ/LiuZeVBygKjQ8aBCKyA+wNhh6VLIVkgr5I68IdFYc30s6Sh+Y+FTVJIthTvsNMfWWoHhPkk0UTI0im2XorUr9Deb80H1xSms52UAUAcmh9DJw8WNK03j+AsLyFwS3BOFkn356+TpogfahISBhM7WWsSnI9qvoZEVQ94UNXtuEyI/oI0z8EaJQWGG5n1IIJuo0D5xOQVq0W2JGdkjGguqvNKdzH3Wqqh4GoEM2kzNjaUnstLRciLTSv8aJ3CD/U7pQtaclqjY/75NxGuPkx+KDdKuW+9n5fmGasPj4Qyd3WX4MbVHcna+aw5MezYmMdfm+Ip5UmT1+lt2EHOrJOt1p3goYBEuNabwT4LHy0fLN0p8UBHBYuhVhRE84mzSbeQOvfmwM+pIFyX7Y07cHW47wUZ1Rs444LwvX4SO/DvAlUY3rF3m4cN8DUzImeRrnLgwWGT6idS7tFR+XBuy/fr2FpeHLRnNei4yvgJx6ZObrGZUJMzQGWeafuB186/2Z/txuGlHxIIc48yUzej9WlY/cKrZPSTr6obqb7ILsbplEBM84DG0P2PwvieU+d8qvKXxPNC3iVfXSvrZUzjquUqgZVFN0nAOwmLKmg6337gUU1YwrGU9EF810Bz37nvUHyZz775wJvnDULxbKtDtN/BV/JVt9QqmeyCrxyk6djj9DmP5OipTbk5xzQ3c0ZXrBnpetCiLEy/lsOh4tJqktMttH917IT01k6+nT4Zf2DGWGbi4BjFz6p+qwvdeTtYgtSA9RlbbLf0kE6vvw510bb6drMperge7EHCC1PtCM/73NVFcNiPWuuw2rd6yn2nmdsBJBeECt6BW4Q2uOCdBrM0q0PBuxPDClCEMyw8i8JWMvbhYYeAlV/9lgD4o/kwgmLQgV2Bztj3CjNk/Wp9TlD+Eo/sVgvhDPEasYTl09W0N6gUVByBiddEbN03eY2sNdjtMdc5vXkzRUGWtjvdb1sVmimxrmVxj8FH1lbGpgsl+xEwEreM2M3KzK2iOvxqhTY1FGEs7zbWLwJq94lCC7emL9byEzaLCa4+I00yE6/Yn0RV1nwlH3SdEBFF8tiu0oCJZZ8wCKe/PvR9FCGUruhUSEWhKv2at8E23y6fxA/xObuFNmERNmWiQUmiait3oeAnj9ekVP5VloARzEfWfZsTJ9VMDYaELXeTyjZ7a87CE77URsRi7zhZnEq0rDbV0wnZPam4f+s8CONNFWHvQnQ0H09QjfLWsK8XWQGBMHyICmoxvVB4EAejab6UkN3613RIEZzRyuBqmAUoDs2s1JENhtijQ8aBCOiA+wNhh6aQ4j3v21VZeKK2J+0ePbkjjvqoPUHUIiXK18avKa8e6uYF061eC0y1G0YdieUIGAhQxK50p1MKjssMUGA4rEOPgU6e3A9brv4fftZicZilrTPrwrquwLODzQi2lDs8eVJ9OWhEKDz4E/5iWHopQqHiiNZ2LxKXjeaWOAWQp9z5A42vp0CpV9fEHWXangwovvnuTx/j66eCB/8N14UlvYkP+2Hgv4qaVLSJh6UflcajlfcUjawe8vmUB3R95n6G+8uOVHH06nwvVcZUx/Op8AVveHx40BPC6/lfWxndNJeA5mjHdUc9xc1VdcNo6CQ8EiJHj7mHJoZrhfBjB1OeeYP/T2prrraDWT5UCqTGatxtLWjC0gw8q3H/YK6hwdDApeC08fXEbgO+IX5QtChPc315K5yOXCIwoPIKeMIhQGGUGiZdqlWLD3b5c/cI67vIggh9de0y2LRhy5U6usHC6uHAGFiqlCccsNG7GeyZcDZioEcFXPotrliosXp+aGUtf18Lf59c1cPi9gU2BGxhOJqB78PVbmc48ER+Yfk0/UEnjWhXRprg9A/pTOriZXskfYni/0Z3QBXsH5OUcJJ9HGPKabZEL2WloDrSjwqhCltRDd3puZf+RHK9MmWCd8tNa0Mj+vYqcjrRp658L/AR7Y+Zb+Fj3inhv7LES19V+lejk2h2fYGXzAPch8aRaOOzPZ2nbXdnVQV0Z1luqjBjZ80IcXOMRY1/O+eepECoEbWeKVHtqMF+0w5opVy4X4VQdBFB3CGkH9GZcKp0XVpjbNFWYuuh7aLxBjyUpLEb/aqKcS90RlVorI8yxVTHER2eIA494O6xty3PihT0utp0Ybx5nsv7mT5vCWRbdjBfdGNiIpT76f+cgVaKlWTZurOV6ErSetPQ23DaSu9Epx2m/BM9n+k3TtNPAYiqwHasVhfoGWlkjQOaG9aP0GWAmevoC90Th7fYyhH53FxJDdhTFRQJ6dYArjDu0IK2F0IixtIibSq2Su9Y5YcjeLmrXzqJa6kKrs1XFD3ynf/0LaGrkAmjkn9TNjewSjFRT6JuecQZOwTRx9Wmh/Fm9Lyb7g+LVsmV3OQixEqMyXv81DpDBI/nOJJ7Q1EwYOWs3qF8KEeXkor9rqW/IVMbVy6jc/60XijtrT0kUO8h8BaqCCOQHuRPblOTBWSVWtVwbfowRVlJz5zBFQQPYZMYyherkC4TJj5ghzoTG8EYQ91IsNs4OYpWn0zvZ85E6lkTObuy5NP8pAarkgXAze5uMnSTYD+jQ8aBCSSA+wNhvH3zMKqmUolaEWH7ygVuCmYjOtQn1UkV6uqK/E6onuqd2IODtOw3Ck+I39NWrrykPfM9y08am72Ikd7D/isbLJJfQByZfEzU6vcl5fNbXKHA0CmmsvES2CPYqL/yIjOkewyvffflc9W/TlxfNJIOhAtRnPnNvorwKSp8OnYPlgRZgHeDhDPDSL0MYwnRbp1ymRL+rjaZrQ+abBF1YYwIlb2GLDsDBg0sDVg2rhTBqHd+Buc7lLkMsXvAab08PlXtvIT5aSiLQvVZpJmvvQ341+LL4OggbGt5uWRLFvP04rOHn/tnRKmkxWUFCKxwGpHTPq+NPiBDcwIeG0zojOcfn6P9CnHThrH28ho8eXfV4SOvBZbuGTvYJ4eYzFZLx2Zmi1GYo1qNjEr37gijO6qnLYJohZajjyZXNVtMXDoKn2GUEfhIVbrk0r0aQR8le2D838FSClAtKaUVFy9uLSpUox1Ijrhi6c3oBC1CqSb6yYjWUs++4jdHCT8hXinSNwtcihhy2pkBF12DE9v0cWd4L4/rcJRoRAfe/ovHnl+5LfGGNaUs1efsauz7/jl+eSCnefsgxicfwtp9N7t9tCzFaqxDSbjutX5td0USzU8CjWhiEV0Q6ZcYrfFofKRJHECRF3xoTPthOX7cIcOnRylr9miD/gbEGWrvmFmWJfpoMw7anWEsgJytWEKR3d1nQwdDbs65RmiR+dD/+y4FdkkNIGjYdYv5yDMKjQSoeW2NQ5aJkf/ufQJ7MF+eggtuvfmL3mMI+YIm1iriKmiQZJwtaS7+fyRBDikfDijO3o6jgvfyI9m+RU7ei/2JQhNKgvUEPqqKS+wzpw8ZwGK8KFz6Ybw5onLwUikY6pVzRpJzXnKxREA8JQUNgRavRRa6oe1gc8Jj5m+/SztKGamab200ECRn6PnLY2JBZEdvEV6Kir5ffMFXLD7qxshbJglhpqXq3CPmucRINRs26FWIprFzrtqBORLFTgeRsLgnBpWMVHzEeVrIiessUSp6qaYLWClDitQw/ajoqEpqj1PPbQrX7s8sX3rHt5j1cSb9gXSDQPbnxIixCteH/L86alVyYApTdOlSPzIM/cwvgruAQ6YgWx5N1V1kfZN/hhgy5y+zezqC6f3IlZb8CWpzUeZarRXKfJhcGsQKc/bpSoEDOTZN2n33u/lIPY2kibX88bbs1aAWndi8h/38vZcgExTmC3vGYqVWJw6BXdMHUTVcMa/Ueys9yqRa/rXsYBclGrmA/d1AqbN5q9WiUL1l7TeJQa6jQ8aBCWCA+wNv1UlVT0KSoJGh398VCafPqBUHeiTX8JMgzNrhus8WiX7uTEBC3d44WDk9aXIoSbkU8CWGXnGUlZq/6XIu9pYX5+d0/egqjgQ8PQlUWIyl+a+CuvguhLSzE+yTHiklfccya0B5UbLwcSlKTvWuRmiE+3BN2CD0DdccLLU7gCq9XCA//ddOR5wGQN8mBnj9ONdcYFZMOWEQ4bpY8kAlq2QoRlua87zy8KeDk9JJ+l71QpAqpNiPyIJ2nL+GpAj46ahG0426C0t6T6t0Kwy6ukb35/WVWN+aeY4D6DyVQr2tRiiBLg+bybVu4I/j4qFjzNfpSJzyF7KAMWxMrRC2rhoVoKovRs2rxdctAgzOvp+Cbg2jg97JLhE/Jze4Lqlskh0fCK4dodauaI5frb8ppXwVXq7tHGk7EzUspSaQKcKW7GGHcDeXbjWllvGw938rUZTdrQ1MCnAqnrT4VqtCQpT1mlc4gG+2d3RfMw5kLWqdCVty6C/pDB3ID2fSNH2F0613BcW0J/bn+NbkqmeCYyhCNrSqpJpK6gKgh6zLIHUczSabTog7PZg1BQe4yRERchAajJmb3ABjNPYseQtdVu/zIOHU0G7LoeJF/XqCem8zFIq42gN1InvCuT9wNPlnR6b1QpKMSrfb6IfGT8EiqcbRoR1sv/GFkURHZOTSCOXQfZrLCThys62yQ/02oysYuVtya1f4rkj5/afzsYJovylTHSGoKO0TePg/BBFjmswwTIGjrZv5rAfhrwjQuhhNewEeEmnbThzSiLAY5fizLxmwqqB64gcKFZJy9DTjrUXeyHtSLvB9doZ+jsE7bD9VbvPVvdeBsHd8QOzaOAX3Sb/aYcCP6ULPvB2cyXplzdLK+lktLYzARXBWdNQiB0COrv7E6v9yk5rUW9rDfq8LyvMwBmnIQCAWlHXmpXKv3trvjZhrkJlRBxsJem1qAJMUhE+adpISFnqaoMDZAWLwWcJLCNfRJC7zySqLD2otdg/5IfsRsBigX8+DlYpXUymYEOpY0kMsY+uqATOisomAUBwG3Knpre+ysaf5xbEERx8Ueu0UnmypmW2Y+ULnMi85CXjH4VDc7NBkGTQdXdbkRjVWgPWJcEzwUJa734HHibhpR+0vGpQN21sqxvsFdwxoKfSrKx+/D8VnCEYDd/4SN/LrcOUa4/knun2wunkEr9rwf5S24AX0pUv8R5dgpdu0prlVwp+rTpAisDlBKis585Qs3tWs7DiRjmhVrItShVinQ2C6X3u8FkGmD76wGdEJ2nejQ8uBCZyA+4P8EfwRYZPpzNcW5pAbmwiZZQhqkplYHf4GqRMQLc1QOze0Q2HvVTw/00x9zox3KOswPuSa7zud5CVEANzEO0hcmmbf8voF1ZVgxkRv4suf9ZQIOl/SBbiHQS0m1ZWl8M6YYs3UWAB4wcd1PLPqonCNEtYov104Bw0b3ORwx853ffykC0rOh3BErCfH7h5Y1FjnvyvBmr0qf2Znp0qEo52KqBa0CfXNa847zr14bkeUeh2dJHgAt+Htb6LtzMV0WerCEroRTvMi9sF2DLimfi5cwjHBfgFGfMaHYDFmiDyrTHz8Yxu7mbxyL3ujAaRvUxxmHhRenOJDU9GPl2e8gVl8rZCv5e3BJLws0WmGqHuyzRHBIdgaukkd1lTLNbXhsV9D8KYBHhJlBZ8xNkIYQZGHE9a8P3ZiCP6fub4y+bq+BifSXTNhurcBrvz9aXUGtyUlUpL4Z8/+xbasvdLiGTp3U2NmWohlGfZfmTSL+pfBXAYgzlnMCrOdzl9+HGQGnbDhuMQ+JX9+Ql7y4VEDtICHxzdefc7ht4gxuERMWJCCjr30qMxZ3tzfSADbJSs2FOJsBZ3cTL2bkkihwG3X8oHYhOviKXx5+zcZTTtZQiVD7sQYiRvgOJqqUWBzeT063xtNrxJOc5LAw3BQpZU4SvLAdCz0mRqwmzez03LDIBYRn9+jR6K12mt4bXMUSElpeFmqCrDcnxE2opxpwuaXaZmcErVHWHMx67OIQ+rvK0goejgHwzgNbVzBDlnISqCZSdvHnVhtbDWafJQhx39UZcZb+ie4XB6frc0ge1VBF0SkrO7rwus+jaNWY9Dv6hZNVlT411+QugIabknxkEZhTP/ImhEid2HAkJ9D/kXFfAcVTcgDoqsn4OwyoAaS/A28S61tiZieGjYpzKLBfOh4PeomUyuBS3Hv+/Z//OLpYY2EJZgkvF0Hn0TNqpvj1IXpvkbKScrSJICpnox9nYua83U6HecDFmXpeKIDYCugoF0INAkcsbzKZkY5dCyjoxkbWkQVAu57dXFQhazsy7wqFGOJF+Y4mWcrOuoaQdBqVF5D0VgAbdMru25+obK78uxMqXKpUFMICohxEcB/uMuXeLSiE35+37WO9Du8eiNmNhcRTUV0XQTQqIpROiyfaTgEpERoMYAJ/K+N51YtUavRaMRGo4BD9W7QmaQP0gVJChocQ8Rl1Srnp27iIoDwe+/qUJJeFE53tWTXpbQ2uEclTjwk5XeIFKEIjRmP/1pls8cW4WojQglYo1T0Db3CUSpPHhw9S5Z0L6NDyYEJ2ID7g/8Q/BFhvDwgSaSYZa2wOw0vo1WwnkLdRL+PleEwmLE7RcE9ojh5gHMOsEFcHCeAIfC+UN/pOtXjvmjlF8VKrffehUQ+gppjfCAfYbUw6lbuNa3p5LvzSNU4Bw8Yv7TZZWMgKcdrmQCTZ5IYX75uWgz1Qa7+vXuGRebA0to08Ir6HcpGDc/bjYUa6+P27prKI0VREnqXMGgvdtysAlFU7URfvD7CQrMsxaljqX5g7fspYZKrddUSDmI8sjzpP2JOSXTchz0XpbZVgZHSYqSyOi2bNsGM3ms1sKOl453bdjMoIDgv1kAcKFG6Xg3/Rm4qb6N4q4tvvyL0g6unFPS0QdFVJfQ/aBLsJ8eGRQC6VVGeFE7H/MuzfOov6WDq0EPubolLN7RSwGksGlFUkuf9k1nB1/TCJlvhGn6Es/9bh5oZ6TtOYZQS29fXHCxgtOtKos8EBft5hEmbR9QSRbHv077HTNT/Z0J7Gdy1JFQP0qL2KOYxsMZ4TjDCwSF9kcahaxgF84CAj/4DBQ+fgg5sVTBO4/7U2AYk+VnhYonCz6n6fUd7mPMVJaHYQjH82V6UOLEBByZoopnJhkAZn7q+5Iy7IKoRWV38yrDj2eOTqxGi3lO1DDH8gz3cI8ewOIguA9Xx6N74B7SBOOY0LcRQ3mMRQhrx25StbQABP8EUfI4cY/a/+lEPkzsFMqUWZsN8Ns3IDNWwzJVtYqmk27YKZhSSehaoTxpQ8Qer6nthUVIiP4n1JTTggvkGqi3qu5AaDgYssCZyA68wjPJeFGCLeOPsKVOn36wKNAdN3uWxrbUxazG8GgDT7hb4baH0KwBdZg5oiCLofiChPX61PKluSDh0xllhh6uapLgHopkQxM2qRqoGU49UPFhmex8LLl5eyZlVi1VnrGxfkjOJS5U2rb3TXJRB9l5s5FZv5zlsZuEvYfMeVjrZdSdswXK2F0XR4HiIAFeFO3GAeR1xCOOYTSHZOyuE0vqiTcWU1AjBd9jtJ+T2Nblg84GDa5fY6yYsG4VErall+ay6VcI10OyF7Bd7OldulSejPYmBVKb3+nQ6OaRK9kV70scPQmJXW7SrEs7MbTVKa+b5Shp44e2wIwo6icy9RqBSN8N+tqR5U7WYIF0+XA8UzuSYi67DbrziVpy8Qb8lj1abv+HTdTjaanXY86UJQPUDcra0IexxJLHXjeTSANp7lVGaFFFDIAjYtueZNyYRHDfukOtF6qOGPrR0ghNXHEOIBUBZtRDKYtuxcfC1p3GXjAcDvxUiE0FzSEiAgaNDxoEKFID7A2/VSTvcc9Qf07jpoFTsa99EWAambDfOUxG/58+/90LpRkF6DawZgsNYD/7F0wcbhP1/hT4DA8wvqqeznR0DLUw6IMHSJX8gZ3EBYLFdhvcUYox05bi+oyIQrPdhxRuvSqPH85LBBb/tjNg3nLSkpEgbjyuQtPmG48wixmaevcaPbxhMv5/7HrpNoQDkrg6iwzrne0XKeCBZAhO40zP9efeQbaRk10a0vdTOW/zgXmV1s12IXQBPt1fOfxAEMPfWTaIdEgKKY/OjGB2KaXe4frL/e1B0+4q5aFE71TXH00w/ov6ke9rIwVBEzRYwutNYP9YjjCi/81bZ5H/HkAhAaEg6Vuidb1BCKtrR3ZFA5w2a1aTLtoO8LyI8prPnDhaMwWk0F/NxU3vLkwLC3k/VjNDeXlX+Sgfbinsw5ACyfYYrYYdwLMPMug62+O18h9fzb1rz9mnvVUAs3X1Gf+nFabJ44BinaBF1vY+WBQMVZApVN6qPMSzUQ0MUljD9WFL+fDaw+f17co8Z77WSlSJ6QWFf3wo6BW3Cxa/uAC4xX7qXDSL4vhNS54/kx4sX/EQKdU/31JfsOCgZIbdi4s0MOfwlV8rAn1wRfuNMc4v64aGD9Y/2Vej0MoIZkAhyekhPnuQyqgltBTHE0T752QcNJ5DL59rTTcPKAP499NbVmqa9HD4oUIuIf0Hl5ViWDs5Qk9Ebug1iCusMm/y16muLR5+4XT+c5B4MtvxmnlT1hGPIuj7b6Jwygg0ekQILhQUo3odJOETPNcE0ElhmRxTTGGE6tLuk1ZcWCjCUBoTnDy+mQoc+taEzq6rfNmUXEr1x9FhvG7rZF04i+32YTtA4BaNhk+wE8Ref8aZP0KUU1xTXnab3UkvlgdxhkfMkprbRcr8fYGFS1Dak6gEjYh4Sk0D9zabfXuQHLbn/724tbBqUCe6kjdE5ZeHe0p6s5UEc9bTob6ij0MmHC2vFi7Km6F1x8q5lK6OhiVD6tGuthky7yYhEmvvwSIVJLY2kkXgq+U754kCHSOD6sD0eSx/D6ssNWUpJej1xTY2P6o8e90xhFBtf1u5fe3ogZXm9Iwwo7GvRrE0GT7s2KxLNIhq1OQPPg+ZCHclGlBupjGYRNO9AccHtGo3FhDw8bb48f7zCkKqLS90YM4L1t70Kgf7MzYOM7J7RtparNruKtkN8qE49QCsHIZSBONfh9ny/Y/YXP4GZ65DccshmlsB8zAKOFcKZRIdSXPV6lynnufvFIJ/1CfySCaA1pScteI22AfJOKqNDxoEKUID7A2GT4dq8VxVV3VWUC6tAlMhvVfP9RvcVRNTfSAjq2iv3YmxTpH4rPuX3qjjFJ97VlsyFQRt/XHiPo8PgK8mOSDoMZ1SJ0zX5YmVgsjJRjA+V66mFlC+b5lHuPlYCkFmqyzdNEAQHuS5DSRVDQUDhCf5sZfVeCTqqCmaVa+oQElP0IRiGYHIVvaruS8PgHUefqzWbqmY07HoYRuRbBwhQ0XkQP7lEMWJ63c3oW4IIla1bPciwiW+5cInYNxBdl2AxNpNO5e7XdIIR3CpW0EhSwyHse4rKsvuWc8rf6rO4Yhf76NfJdxg+qLvsnzAaWoVuDOBgGy1Jdu8t9CKMM44ZFdFA07UJgPoyGJvXxO0jRQXPasEAs17e7mxJfv5hRyGlw5FN7DCBv9pXdgXrGIA8/QBymmWT7lwHj+y7zi4l3fiZYYdc8doHbfYp5P5by8vBgoWplGylTK7hArFbB7oMoLD/2atAMU3GsaTYB2dOzM6i5SXyuWT9T795VHB+4zjpVzd9/b1/pbR2Ae+SccS9+EmPzWbC6qyEThMZJD1iPxAsTDCFqoD6x3zR65gadxFu/skvQPYdsTDtGUHz/osO6RQILFQy6g7Ti07XLNHRjiSKqcR5nUGvtbdPmzkS5fksv5DHh5Al8ywl7l0muSvxwOwf09yO2rKpGzvStjPVBiTgo5S6STymCIgjBUYREf1cYSkFiaSsef/vMjFM643vVBbVT7So3F4lj3sQ57ST495MHIhd31C/FNtff7WSFEnvOL5Sxlm95Z/b+25a/NU8Sab+oAMWQqAnnHpNQLz6Hj77i670t6ywQGNGS7k8pkta0vI1njaEVla0/oyOYxn9T8BhvDmvuGKZnro4IIyWXKQPwvLSej6QioYcGb/stdYAGVVXAsCshGOJUHB79GpWXwtTDxEG+GtRCW7hvAhkeW+5cs4S55fSuEx7Ex6ZJYvGDv3PKNI44lafh+Yjyf2pyPQ+4FHC09GwIbH91dOD/xCtgsnjAzPVdjsl/brJduqoiRP+QwRh1x5BLaWmQhtlWxQgdG+trGKgmvlR6r7u+toVGCSaazy2/z0cZdqGESMlMQtp4AmZ4Ws8UOqM23GesvBdStRpMBLq8Jzsl6jtzH3Z1g+SN123QSD6BlOAiwrhyn7NY45JgCwsnEw+PyqnXpd/SrCCSz/5f9/7pFm3MEyLWy+ev+Sc/VbSleappeaYPAAMK3nEX2EDpxFQk9B9Qvu2pn3jvff8vvJfRJ0FxwMktOPua5y7xSQs67QW3XWhr6NDxoEKjID7A2GUGRGid7lmFvT9Or78HStET0d8nexH9MBdKn7rteCBqSoRLGw8LAfzZEFPN+eW23qIY5Fgiu3HqlRAeFQM0vrylA9er2CQ1jVodhO+TfwXGW77j1GeJ2LdO9V465pOy4tYJeaqlf1UK+y07gTergy6K+Mjjwa2ten8SEY938QAJ42JmhOybFEqVYFo1+ee+S/MMzsJoV6mve3DIXm2+ZUjSqFyTorjL8xY2DgCRMo251el6+v6S3hmOewbFa0C4F8nFts2hCT1bII4eyEVwN9/L1Kg4SIsFFe0dlMdkLWMGh/vzLwvAJkHUifr6lKyPHSUbGr77e7ngJlDAVcpXN/3lNtbdZNSWB0xtjDRsWn8AoRwAFmx9tjD5P25FDekGQtScefJ5MmcuDb8fYIgha+50LVg6ymgpGGrYypdQzpjYYezRJbHiF+Ui9IVxekfrVDWDywM2hBEDXJLTmeZSBuP9+gNV13eZ/X/IZpTSMKwPovv3e9/Qif/Jt333CGd9XAZk4RKnkbUbS59Jh3Tj1eMmAuU4AYs+cbf2HzRGoDLP/aeSHjoSBNme8uZITCV9nPqKQZYEyZG3MOhZG8F6TiLACGH1cge5mz9IwVzJOlw4hZeXqxBV2fyAAwhYUqvzmz4YR8N+drEg1FZYmxAchxW1PTdcSYH0lzQAbGn6NmBqCMJ+hU+3dRVvlaW+HJB8RjyVJh7UG1dwNOWInQHPmWhpm/5MV4MbIS7TF++OL+gw1OngcabP0y/y/7akUoJ1YZN67UlXf89rb05k3LYcLcOdnbak9yDBB3Cs42GaLK2u6GTt5STU/+LWzJTb7luC+k3UpiIfzK0/syIWHe0Ycphh20R6GZVEUoJWVJVYaAKcdfbaDKU4a2zWqboEtnhh4NVBpCXvdq68+YMV8icAF4I87/gKg4UqOFQ6lqBLnuQNVzER+6uQXBuF4+4lNDk5hqjNT3WNTY892xTeRvaOfAJEofuJeaDIoHtcdYcKDPmx6c/H65RyDA4KM8aGg+4ToH7bt9gLYOWZI1JneGoWuE5/Jr1CeXYSkFZrJP4C8457JO2ZcbgSrbfmyEIh8CMLg3P6XLN/4HoEdIT0IzWB1KepX87veIRUWbucpzQ7jmVpUCzgq6NgoE3X4PCjZu/eAtZPbKj0xnj2a6INmsOvViqWA27ZOnArbKSQrszFOV2MGqhq4hK8lZASlIIaAK63VLMI7cLvSs+RFfyNoPKtk4YHdQum8gEs6QDxIHQfCve6ZuL+SsQoaIbaCGOCJB5QKNDxoEKyID7A2GUGM5U/PWzr0Um9xPhLfW+keR3ffRZeGXW9sv+RBWbUxtvp0rt7eKe7NgkcHZYVE6ogro/MLpWF4+09PSMNETM3/DX0+NVD2ISHxWUrrBf5LYmpHC19cXQh8Ejzo+5fgDAOnM7+Jin/uRoB4YuZnZ2W/yRInyvXzefGl2WNePgrJJ+SXo4FyiGqN5Z7S71H/NOwMbeNVQfO7/1JGEX881yXPRqVsBUBHEnBJbuTjvYCtqKZqpFkif72icr6JXtaFEvdCZOQF9RkOpc+Z9hyAPKVSnySXxwH15oU4sBIcURydbJOuambhb62h45Y0uSByblCrhwEq7YtGRxncGiOX5Xz+7dqb1O/LczIpRAzdBOY34h0UivWLdaw/+k/ajFSXsveN3ekqUo7N9Jmp7bOsuGtnQITCEypRvBKKLXTbBzYZPsVlR0JiNQcKtvSmcDMZ22xWJypwi4fHBDRfb07nhtwT0fNVQzE5K+ZxZA6+QYksINdiYX+DPF5fRc3aB6v625EW7rtrsuspELOYTcSW9913k2EKNb+4pB4/Ex7r1VUUDTtHkQWc7Hr2307SLA1QgQaYkFu/op4ikpIH4pFXDtnAlJXII3IQfrOGUyLagObJlw+jolShmX6KxibQNIMRuPVxca9QLrauyy41E6iydKGYoRY19v5T9AcSzCuSuR7noZ4I5hqgXrFH33l7QB75dq6hbt75vAxUEzI3h2ilqXc1y2CnbiS025pmlfi8ZhOu81P0vYS8RG9nHGhVACPhFdAraNuJRTNLQOyxOzZvLc7OPdKqabO43bEWtC3HxUDmGFbn6q1u2L7wVfau4OJeG82awWI8anIYmDT4ekjaNhk+nwPItpHR3aeQThy28zbZfFHuknf3POv67n48KH46p/VPLwFAoLmURHWHre6BYuq0B97DLWvU2XOa5EDTwddZe6xyg+qQf2wa2ivbDbwBrKRdG8DZZ3LTlfxn6LdGKDGwshlkAjOUDytYL8PJA8nskdWfPQVROXaiVjSM9meNUWBSFCsvBHUhQP3a2iziJcQcw8HUjxzawyhyXqjRIrc3Ceoo0qTkmvZxxyeMkuadi93oI1vssML2TDJUgRArd779Muy+4qAh6p+/ydvcfjwMdkRtQZgqnFVLfOdxCVCV6UhCq46ouQzfaleFcgJQGh5k1YQpOWHlSWCl4mWQ3Zhkuguyefm2RtbCor57oC3BzcNFSRnANImYx4ZpIQSnI1GKmlbrHXWhMpNJ4SYbd7yj+gqWRbArDbrE6XyfYY+KNDxoELBID7A2GT7MXgujg+oWuMCgN4HZ4L9CKGfsdtVhseG649X7f1grNyPAKvmlP+blli8eOgGNfaK69mqJ6bIgcJknMoFMbCc7OGGdywccnf8/hVf/6mu90tQismfUysU+JJN2/tAIJO0FNxOgtxGm29SrhvQ7eFyEu3KPL106MZb7h6gVmuoULhK7frWgFa2nCoPtBkJ/OTeX5uvyw1UyAZZiX5r11e9ubRQp5B2oc4Zx3RBdI7R+kszOijy51Vzn95UAfy7tdlfJ90Ta2aLQd3WciYucS6OuA6GkBKTj5tHwu+l6DQJ7b5KaXp0se+8cQlTp6M04InpEsybTidjXEV0nuo0KDhblDjl2+80VdePS5xP4qJyg/5YQRYzp8P02ID2ZSC0Pfu8gkLISslpkRZOaAwX85B1LLImoC7plUGk92kbOeyYZP1bT3hBCC3UTjwEfgMldaPmhOQcUL1p+DfHP7viQJcf/DcZnqLvd0TQhsq8pnSztCqq+RsmU/11OCjoaTkjEohWb1l7oNy5ShcLhamP/nD+fwIjH4C854fLKayXT75pokv7lwxFGlZ0ZjfkzFWuQl7vx53keLPqFx2B6O0o1mlgNot5e68Pib/jHzG0QKCXKCEq+cJcgaY9r12VDZbkJ4K/s7ElKE99PaghOISXtxYwznPkm9F1UigehxMOQRlsXpHxeSp4X1lBOZP6gsZHmx5p9+WujZR7Hv780J2CatbeQNgNSQRd8zkDF1n8QVGVRvhzzYbbTXfzlfyuujQAC3rkgMQHPgexx54HgIQLppvklUUs11LtHNB0ZkUWq9vAPPa1QD6WuObF5YOOURMn3EHSVSzb1Ox3a05WzMs/Pphh6oWMQluKvZe1J1oGg+DdQP6GioBb//DIVO75HyRZwQFIh1k1U5OBHW1YfO+dlLj0l9yzu+XU/6RXDtv/omMJfUJu4Dw2hz4svLVN6hF5qlTHVEc0FAJszzKTpZEhsahUAMrRSU32nFeeyVa13xxjq0DpZvdfAOJY4JIi8AS0iucR+mvDsWfCjbZ4ZCz2lJy3UrQGRb+2lKaE9LBaF+hQYRDeiu6PRpNKrgqvQwq4nWGD5dM4GhuX9ilXQpJBhancu8omeNIoyaZsTEmKIID7svMUg19uFYQ/XY+szBn9bPu6IuWsVQobuoDlZmwLiZhFkqNWwyG8Rr7W/JrL+uVK9KHcGiBtYQ+rcLIBWeQZnVpx6etDlD4KIfhlpbdXNUJtPLCQE2VhPOARwSdgBXQYC1txTeJyrcOibpOFYFpmaNDzYELQID7g/wR/RZhk/VHOxkv9qsbgSDjDiSYWhBwWrmvtUFCLHmHk2f2a9gdbe29ojD26Ae1x22Q6sGZMz5/NMag8a4d4l1BXTmFW2TirvhRfdVDGcL17mCVvPMhmwfM2WCOER04vAu5zMPC9QCOfvJ4JPqr3gIo+fUya01tU7ob9PF2lut5mEY0r/vH7F46u/37IIdGg+K0XRC4szu0S4i6vANm2cAqhvTUFZ4/T3hAY9HYfFV+xBQlWvGQiK/0UtuWPZKPlgOFQfrx+1mDOV6LxF5yn6JwLLklwVtGrMXqIj9iM0fzwhn9HEFKxRnGkF7tqMUvYOueb90m7sJK0DexiIj3SxCvWs0sPY3DbMF8hPYXyX7fzWqzAWD4o0EWrNZVWVQe4xBT90nG7gdWNtqKTGHGVoKK/XrIERJWeigjPaHs3mpipVphomG2KwJ4BlfFAsk5fy6sCK62yFT5X76nPEdVthXMU3qnSmW2afikYb3j+adlz2BExZd6XVz2rXoEf1Blsosqs2uC4bAjHatR4Gu2DQo2hpOmUZZWG5Mz0tzkpUwHMvwDic6QOsXL0bdiwS84VsianjOZKhoao4QlAhD8idh8T5rJFehBjIwC3r5bEzXiTjvH8i/yF97ri9lyqpOAIGowZz1Vl1q88c1wi9Y1tc6t34qZN/U141UZ4AUsvT/8uFM1Qvp+pqFTXW8kVlmGE1TEXaeeE6SW02TObVNKPFSYBm7pBx4ZVffoi2i/MAjQuT8D1mp2DLH3y77WYx8uO0e+6YI5gHHemk8vOdNETxaG73kl7+vgzdluTFecD1Rr4Ms6cjERajABSJEDRqFRwL2UJZ1zcofsd0JFqK1G8228Zv92DlSeS8IuM5w2whagzg5MuAslnyseYYn9aa1jhHS3X+gcTuQMzYr1uaRj4LspluSwpzjXB+hZsD0jygVBPOGYa2YY/3uaQ742uFQN+r/oBlFHL5QDP4WCiUH4fMOI+YLAYHoBSs5qpI7wxeika3C9vW5F+ajfC6/OkHr+AFEqbKxhLgPsjmtVN/jxSgvr0vXI6MforaO5OEcUJ+Sun0cawLLOaEpS8lnB/rBo8NyUucwZRNSkvhxgUA1dtqL+6y20qiZyu0tQJzELXYDQ2WshRwTApn/qurtoBxcz12rN02L3GW8QStBo1yN5RcsYkoVzxSfsFeXrlQH9ACuwsPObZRoUbFVsiEW0hpvQ2NC05Zs7+fdYwMfP+LzX6nLc627kfBF2d3IXtgBkNtMgGSrInft1pk1zsZPoarN6Riv1nKq1GCijRQeBC3yA+4P8K/09fbXVVT7TQVLGHh31EqYWw31IehdtzZLvHZgcG3hZNCKs+b9WGbs+FeKfTQHLgzpEFt2QiOgmVcd3vQATc0UyAO0W4f5zK4s2v6YiSfjhWYHqAk6bpK1xXIX93/AiB+mNDZr+8Gvc02p1RvrThmzTLStCoPmbEw3aU8Ny/DTXstrB7Uc9bGr/1tTVun6OaH9fwn+61/u0FPEq84GrUQ35IXfYTc5hAGp+Htw2D2tW9OadfC7j8e5WwfUNIAuJbNHXJzUlNxP7GYObUDUw2eMYxhkGIOsXSXqoJidi47CXQsldkysr1sX7/5fFgYDYkyDquecTfxGakcVnomNmwjEA3LXpa4qI5aqnJE28kskA37ehDErDmX795Y7jhoH9lldlukSGRtYaTNlOn0jYeHNDyxlBtzh5oc+Ipa4lNdxi7gWtT66Ri2wNulDDUO+2ieZq+UVaVwPzPl89FHnDbGpIE1WowS4j+Q6YQH44sBVgsqq+KZJEqDX64S2ERK7HEnNKiSZMPlGlmdQdyl4OJbogoNtrax6GuwkhKECL0393i8DUgp2M2hO9Z30sz1KDoBud9htpvZ5N5/Iv141lzMH1MciuGKk2/rGWMgE2MLB9vgVMWNrV5nIXuSP4YPa57uy3jcXgMEyg70B2IOv7xdnGmZOf90LbciNtz0TYEQRe8XKjn9kWbZ9o947MyqLR6uO6iC5hO1PIeNPpeM5SeFtZ3XtDaMo73cUXg/4MWA0cIs63jePV/SHeQ2aBHasvGCehn1f5Zvqo/vxF6rs92VVxycsisbnUlZYon0TfxZuFSnFTFhB8M0dwapWmZwz/ikDME0oKevohj2ctcrtsjtyae5elfIoS2fO4N2UzJt4XtKNqIEhkR6W3iZ9uQ7EDbLP/Y17A4TGqBZ56zVhrQaB5W2PEZwouxnUAMvrS54lUCDRV7xgkRPyNP9nMu6OteFjmfTsHlmHLB5IisdGyk1Lg3rtdmWn6A8PpUN6uBf8zrsaI/DiNK9TdIH9yMfzavYclzoXLxLvAP5PLD1uFJ73b1etJFu9O54IZwYTpu/zLREsLTmnFIJBHY02vKLwTztoyBQyadBxbJtMV6M1yjamAFyH9NF0MpP4rmcrPWyN9TRG4dT6OGb3TaHZ7bziL6DSQgwQJqJOYy7LAenJPbgXilJ203ZSQOtQjNym2o8ZIohrBRVB7D8V62WpQXduFDM6oZQSxWWZOYaZkcAGHR0HkiQ+bc/US0NcHVaIFI8fGYiEpTXlg4CuCVTPGU1E7MNMnIppz5srrA+YAwKHzqZ0RQ3FmhhsE2ExAuO3+xxZvF+Mqq3nWxcNXhx68o6qD0nLWysg1gc8LVLAtHInch/KrSme20XPKeh9kogi/m/0Uh+crd/IQHnvehdZKMFt2JnCNiQ4lM1slpNZXk8bxjokROt92KVVqw2awLTPmubJdt+2o7hLx+YLPmL4x0wsD5wBOQIdJjQsag2pZYzKOqVgo3Hif9oj4iO6fROjjwNmE5/QRIekwdOqGvQUO/hLmS8RIJpIlsa+xa0UJ7DH/CFSr/FV2tGXocf4HGlwB7+hFkBEmXpE3itx4EMC34GfP12q/SikNFZYfcLJ5amsKoW8rFI9NzfP/Nd8EtFDPiXouf90egbPU1nc0wT9ZsCUpodM/Sfs1ZlSQ8f8QF/EobTqfiyXFbVosrIRv1M7EOxejQ6iBC7iA+4P8Ef8LfcUN8z3TnwQLWQVUB13iBk1X/wa1NJaVFk8bgYhbovfA68yDfQb4lGIuk8Oy8SMShnni1Yo4SwdliacfcCK9usYiZVNrIW2eNhUMhC/z5lNbx+gHM1RQ59FKlTxH1U3CHeinf54HaHkGcRxRTL20zJNSErBdx4h1FXIFsaXK/BKB9DtJhoZAfg79urEMI9hAySnhRWDP9zvHqfJ,,,,,,,,,,,,,,,,
