success,timeout,failed_images,failed_audio,failed_video,trial_type,trial_index,time_elapsed,internal_node_id,subject,audio_id,rt,device_id,view_history,stimulus,response,estimated_stimulus_onset
TRUE,FALSE,[],[],[],preload,0,16740,0.0-0.0,k3zw2gcrjev8bb2,k3zw2gcrjev8bb2-2024-03-20-17-02-52,,,,,,
TRUE,,,,,fullscreen,1,106838,0.0-1.0,k3zw2gcrjev8bb2,k3zw2gcrjev8bb2-2024-03-20-17-02-52,89096,,,,,
,,,,,initialize-microphone,2,112764,0.0-2.0,k3zw2gcrjev8bb2,k3zw2gcrjev8bb2-2024-03-20-17-02-52,,c1bc9523ced81d0635e45601a11b604a358cab64a2c4d565c22745379c606af3,,,,
,,,,,instructions,3,115708,0.0-3.0,k3zw2gcrjev8bb2,k3zw2gcrjev8bb2-2024-03-20-17-02-52,2944,,"[{""page_index"":0,""viewing_time"":985},{""page_index"":1,""viewing_time"":1958}]",,,
,,,,,image-button-response,4,120212,0.0-4.0-0.0,k3zw2gcrjev8bb2,k3zw2gcrjev8bb2-2024-03-20-17-02-52,null,,,images/instructions/movie_1.png,null,
,,,,,image-button-response,5,121959,0.0-4.0-1.0,k3zw2gcrjev8bb2,k3zw2gcrjev8bb2-2024-03-20-17-02-52,1746,,,images/instructions/movie_1.png,1,
,,,,,image-button-response,6,123763,0.0-4.0-2.0,k3zw2gcrjev8bb2,k3zw2gcrjev8bb2-2024-03-20-17-02-52,null,,,[],null,
,,,,,image-button-response,7,128266,0.0-4.0-0.1,k3zw2gcrjev8bb2,k3zw2gcrjev8bb2-2024-03-20-17-02-52,null,,,images/instructions/movie_2.png,null,
,,,,,image-button-response,8,129068,0.0-4.0-1.1,k3zw2gcrjev8bb2,k3zw2gcrjev8bb2-2024-03-20-17-02-52,802,,,images/instructions/movie_2.png,0,
,,,,,image-button-response,9,130870,0.0-4.0-2.1,k3zw2gcrjev8bb2,k3zw2gcrjev8bb2-2024-03-20-17-02-52,null,,,[],null,
,,,,,image-button-response,10,135374,0.0-4.0-0.2,k3zw2gcrjev8bb2,k3zw2gcrjev8bb2-2024-03-20-17-02-52,null,,,images/instructions/movie_3.png,null,
,,,,,image-button-response,11,136209,0.0-4.0-1.2,k3zw2gcrjev8bb2,k3zw2gcrjev8bb2-2024-03-20-17-02-52,834,,,images/instructions/movie_3.png,0,
,,,,,image-button-response,12,138011,0.0-4.0-2.2,k3zw2gcrjev8bb2,k3zw2gcrjev8bb2-2024-03-20-17-02-52,null,,,[],null,
,,,,,image-button-response,13,142514,0.0-4.0-0.3,k3zw2gcrjev8bb2,k3zw2gcrjev8bb2-2024-03-20-17-02-52,null,,,images/instructions/movie_4.png,null,
,,,,,image-button-response,14,143206,0.0-4.0-1.3,k3zw2gcrjev8bb2,k3zw2gcrjev8bb2-2024-03-20-17-02-52,691,,,images/instructions/movie_4.png,0,
,,,,,image-button-response,15,145007,0.0-4.0-2.3,k3zw2gcrjev8bb2,k3zw2gcrjev8bb2-2024-03-20-17-02-52,null,,,[],null,
,,,,,instructions,16,152235,0.0-5.0,k3zw2gcrjev8bb2,k3zw2gcrjev8bb2-2024-03-20-17-02-52,7227,,"[{""page_index"":0,""viewing_time"":6201},{""page_index"":1,""viewing_time"":1027}]",,,
,,,,,html-audio-response,17,164593,0.0-6.0,k3zw2gcrjev8bb2,k3zw2gcrjev8bb2-2024-03-20-17-02-52,3685,,,"<span style=""color: red; font-size: 24px""> NOW RECORDING</span>
        <p>Please say out loud the list of the actions you saw. The actions can be said in any order.</p>",GkXfo59ChoEBQveBAULygQRC84EIQoKEd2VibUKHgQRChYECGFOAZwH/////////FUmpZpkq17GDD0JATYCGQ2hyb21lV0GGQ2hyb21lFlSua7+uvdeBAXPFhyEOTa2oCfqDgQKGhkFfT1BVU2Oik09wdXNIZWFkAQEAAIC7AAAAAADhjbWERzuAAJ+BAWJkgSAfQ7Z1Af/////////ngQCjRByBAACA+4P/MvwKfbV50e/J0eKT9waOyYkIvZswoIUo7MGyONroQ6GkQBDpH7vxzGXiRk5hk4+kyL5nkH5HqYNFID6/AongEQIA67t6mmkd6LXdOv7j3vuMeZeQ9M1dJk47aHVAJhQpzJbvuGf2oC/B+Ov/fuqNsfn40wcuaCd/zTzDDwvh4J8TWbcqqwccxS+FgtmquAMWBVVMH2AxgW7o58xwTdn/7f7Y1y3wnsmseaEolYBB7LEBlP5nSN+XlzUXX3HMpQhzjIKOnAoKAMRiiyIQR2y+VaAAAAAAAAAAAAAwkQeKPAhqIs8vjCxaAaS/wsY+lQ0C2YLhYBqNL/36txb50Q3rLt8uFE34SZ1X6hEM3wr48L3gEWtNgWK8O1Lz0VxvjNoQFlI9MJYdDY0XLT2DE0RlGawFLtEePRiJp+vbDm2OpkRoIpyR2S8MKxCIHNKqevT8AL+qgr9XVVSERa7XFrDgvRhYzCQ5Azed0Mmxt0R3vOIQZ0J9TqSwKfRM3BM5zMIpV7TopASCE+cJZqm/EPFXICNymH50KVv+cB9Y1aJ30KR4EOdPXRfO7fYvmxmZnDFIM8IcmVKUgq0mzBdBfcLnwZumwK/NS5PgBZVQqt80kr0YkesffTf/uzLJaIv8Uvjwa2CZvbJnROr6w7+/KVkwjD6Kduy3bSOIc0LM1qTRPJldc+ShXwhV10ZdMPXIujayAW36uS+G2nJsb+I0yskvxHaFQJtczOOdCQiUZs8jthynNS2N53VrgyxeX3Hi8RhILgPvh/qLdWeXKMvTAHJpSwRMIwBbiwjNAaGGssRjWYXUcPm4dm0bca7CrpbQ9cxTFd1O8pDZgBjL56sejutuu47DEpDi015rgKz3qTb4k3OEofe72MCxKIxFfigVNt3XgxOorQRBUfTogj39KbF3RmoTq/W/0i7EsVEVCkqCYdVTDo6Gn2s/0Kov9l11QwVFJlZHmSBT6+HILAp93xJpZz0/Z3fQpAhwPE+S2RpnWtiMQGT1ADVL7LAB+MardayGAO9aocBKm9OLPPyLcKpqI/ml57eCW/T7AH/y8KaokSDCD/nOjKRQoKKgxRgDv6noPnWnWM2lmmv/nIjBf8gv3L7ZFPaegpSmDA67iS0UN4XKTwID3ZUZKs313/HOnIjCJup4OgPoNgB3xPPcAaPpasWm6asDgldFTlYU6UIhuF5gwuER6OTraycaQq+RSN8dXK10hpVWPnn43W6dMcesv+hF3q0stJdm48YSuz443wCh/vFkuaDSF/TrALukTfjRcowzI8+Kfz3ggYpStFeBta37Qik9PqgBV3WHJAkkaG/5qICLjP2X3sSk2ibIHxg7waE2u0svFDMUumF/RmeML9OGVMMZwy7IB3a+Yd5Kd30nRdjV46NDgYEAPID7g/8K/AsG/kJztKftV9paAsGbAZZKbq/aptl+nQ2jdKevJFUIPCNomrEAwAlDw3I63dQDC2n6F6lu0INBiMVo+wgVWiko2VGhC8FPr9gIbVIKw8dZxPbtsA/Ul1yFnxwgnKSMcCkp7nCOma7rOybktLRjFl6A/yWXS9R9IBJqu6lhVei3qTu4J0ZbJDVa0sZ0quYvCxY7ZFBuIbTR45PMEPSuMRZ/xostIXPi2MFI+trHM36Qbh1E1GAzNTwlysS6ydAD2PY8EvDIvStGdSguBchFWQDgMhHgURFbsvKY0T7p3KDk8PyCV+N4hwDddaN9TItuF9YsX4hMV6KqPZm9SeZ+WH2CWEkOyDSiCGBRE2Rb7ZSMjRUk9wmJTb1RGlwpCqG/xpvRE9yfvisZGpxXjfw/aRuEwXiwqZFAW+4ONjKN7pVfQINg998XvyNbYp3ImlF7RKo9je+I6hgK1lyO5tMv5evPXzppHCJHqbMgpPirJK6kO/eqmc8f8+ISpOCim3mezE6vTKRCyNK7SbOJ2FSPrqE/u23G7B9vQd4y+IK4hcjGXsOhkV0rtbvo3wplzgb3w6MbeY6HIMnnZBLBVMtWrTgsk6PQTN9oZzxWpHZkUqOwImhIA4UNUdjUyYDYu56B8lpe5RkXsFn6g3AYu7x5TQ6vdTLmDEG5fTBQr56iFaNbDbKN/CdA+YzFtjkhdl9FiKgboodwckYzRz9rE3gogr5S8fjPPQ70bjuFqOh2drHMq4yFvrsRt5xhcQ6+coQQG7fL9AHKEDYFFjhwIqae+PtSHDr33wivRe68X2+JiVFT3A/XROlAnpYJXqAyqO5tqC4gCSywaetSQB2GH2SBoPvy/N/PEMdeTllzsaxwAqSbMgYBrW9QX1YkdeVBM3Wb9eodRZZ7ZgiJOeZufmHqNra+t5jyG8M7zSzzov9LGnd6T9f7W3gRCWJrPnh6k4J+U8UJR5bL8JMG5wWgiOvf6oZD3nAvtBQpx7sC45MkmeS1Fw6mtlMcAmFqJySN9EAPm67zr9nQhdQ3ytdj1FvUX0vhNd3/oGbbOr5/ZrWrJn1KKAW0Ai+UbfUo5WLb9nU/vGkhvMzVPFtdbOj+UYAZtQGkAHxPEgUx6i26uUsmmYUpvp3tUTjjShDScXi+dH/jpgmUsSYYsCUm8wAK3EvewrmeOvxEFDVN/6NDwYEAeID7g/8O/BFRk1hYes3/nzliGETVcV9VikKmq4zXlA+w4yX3sVU6GrDcwPQZCQfBvnDa4/HunCa5lzsx7L7nVJeSDW8WXLuZq/oETUlsiyiGfKfu3BgMajKxm3dGhHlcrzSH3oE0aAbExN+O6qfjQPjzX6H4qPDQJ9twzxtFimcrt8c05q3vV/+2ElI9ZvtC62nx6OaIKjfu2hiJ3jYI6EOZ54cRLY2j6RPO/pGOsWrY4aCCgx2CCekwrTdC4iduCMd/SR4zM1Ux240LOaIaQR0tuDlqf1bMrJW0kb5S5n8edvwZAkQz+2GjeAJTt/YaNhR0pkAzMGQykY4KPCs7RMyUik3rdZIQa8r7iMryoIaa37TrVuDIaO8/k8dWmRdD+8mZVzLpR79SNiyUDxyyZRPpMLfn8zIfaSTArgvGzFJQd4qioyiSdNg+infn8Kl743Ddk0BKUeZVKhljBvWILkAw1LP0wMwKmwecOjcv9EohJDMyqWRk27dWK3frgkNoJNYOYHXgTjfSvoaDpMIYmb5gv5Ix5q8MTmGfQRV3RLStx0F5E59q4JyQ0Fh08y+ISZ1LOVWECl1spqt1/RAtxs4dc43RkiZPIC/DqqgUCvstG3KX8+3vCSKijvhzUMQbdsBOqhrT4drEzbC/6z/r7KMxKKPJWEaIb9VnTCcMV6xEQCYwtTb2hnPxCNKfyzVyblYsCkM3LE8G7Z+gcwjGaSzrA6TD0vxjdQjAIntmjTsVhOilXPSgupMzu50/p+JSs+8bq0lIuIuYertK1y8JmZdZvK8ldCVgX7tFhwOPQintsEnQy3tDAQ6c2IAUiZezt9msFeLCmW0R3nDeLCh9UyPFh7NqvZJ8q5ItUlXAg/iddJxvVtPfSbm2Z7v18Fo4XcE+KN2taktEPaPy+AOrfM6CuIta4RzYttDm+Dv4ozuQ3Yb0Ak2oc5X5aY59M+IejWZOq/iQgckBojT+N3Af/fE/4XHrRAnJoJDUbro8A4cNI5aWWcDQh8wgEl8BvjEvzBBw08j3ggDWxQCvGltlDEd6486bw1yi1JWCMyAp/uLkHbN+gDTB8GFzbqyV8a0+l53PZxZ36vtekwCDQpre4RARAcDL+YJMtzE7dCW8GD1BYMxe8JLUgkxoqX5KeA1bisiyyfSo1hCzyRkk4zdBYpMEd6u8HiHsFXUC6YxEI2L/qTP6KJZxKzbTLpolBeqOibupMukAId3xiN3yy2530U07Hb++bQUkIGM0L2TEJQ2Nf94ZVk6FjdRtlowe0wOjQ8aBALOA+wNR2JAkVfY2SymlZJ2RZXdPWQWVjTGV6NrDRjp+YNWE92AGVlZQFHGczAimBRMLdTiGAa2OLt+H/BwctWJzC/kccKXvxQ1Oh32FF8FdoyxSSDBRGO5WGj6F/JawtxNqODrFfxEt8SdPMsTXrumXTv6+sPWRaSMzPphT/YZzflRceyqtQ0EZXOsdyKtYMSDyI6QESZsFph57J0MIiir0xJ/yKrkhxuJ+AVyrSfsMbHvDoXdU+hnsnGGz8cIVPyJgkone9PApDTeTD+J2jX3Ml4BM4zEdoz41S26k0pE9pmExj/xbhnA6mkH6aZEFTD9llZhFO6M2/VE0dNfAPMjzZ7LqawlUni+/54gQmdT8YvAwRzT/OCqX5nIe6cRvMunHtCuLUzZ1X0Twey5fBtIerxHxjRv5N13HmN6INoeb+u5xqFsjXtIKqEZJJVeQ5J7fvD5EvGxwlJHgxrrEEXWbu53jj6qrFYZkyJOt9aIWh6uxHVg7sD3z34lcDZA97KFvw3YlhdJtqAkhnSqgKM50D52aTl4vyZusipAa1p5WHTrj9FxLGrp76PAL7KUSlnnnCxU7eI4w2yPIS1EallO5okkC8JS2IGPiVr1DD5OGCsUk0pXmqMKRIO1B3XVsTc+JCHHjmOFkMV0RYfnp+uY/51g/I389wlblij0/x2doPCgLsaUno4xB9Pf/mRTlfMGGYYVZvuR9lM9wYpx8pGhN1wGUtM3GvfjYXQ/aqF50lrgJOjhCmUWpoJoeqFqHeeb3nKHUia9q9p75R50u+b3gV32M5lWF5x2lA9iVXndhoZ8sFkhJ20GMwf3lU9eu3KisLS+z9fbtSsfm7Nm1E/+ncDsDWWFSOaJuVy32ObU1gAWJC8a2/JPt8j8EehLPE6DcqyJd6nViZXBBPP7KSwg/lFNWylXL10CK1KTpKlCxYNomxEHB748Rxmbbco6az3DBRoZ8sEXQPktRdHrVxJaZVhmo25Wosq4Fswiwp9CkvADA7Z/IrV01oJPYmQLaLyp/o0Q3R1QG2j/j/fSRN24UIcUWy/HfIvOJMp57rYXu7WgpEfGowrnvJitRmWhEI8Z19jD0FbeNbqwqIY/wziO1SB6FKWEIpJct/IYyK/+JxHRU9xQj7lRgS1uGCh4U5hHocFuyF7gzYRw3uHYVU1ZU0dcg3Yt7IJadlHvjiwR4TOuSoiV9vBx2yPfGxkVsNiTq+q068nuz2T4grpH7aTpoCmi9LQixLPkfEY1SxHpldqWZqOdTNL9ddXP0GAVgV5liiRyjQ8aBAO+A+wNQquOxBX8JYwwP7GDfLTcw7G6xUAsHP2Nv76CK+RyPAbmNRqfIdWjKlx+hUBC/D5TQOi/TF/V6zcQxmWU5whiThKvcA6d/ozmq4TRperW7y6G8lQFn6M66MEspSvA8vEUHvb8eHErh7U+EgbREl0cUrnbeXpIeIBIbgX26J2caLqoYjeqomO6xOrM2bFMsWsDNnBqoj/ai1UiCnxOz8Q7o8DMdKiKNKDfhZ5Z0CngpYAAdCpPSb7mPOXWi6d0GH2L/IZakSZOzTrF9+bE8A5FCb1WLW8okMzYem9U28EWGkTOORBz1rvXDUsrSYhTBCpz7oGW8OrOUax6twPB+DtIBgB8Nks8rS/PIKRwmbXaIA5QVB8GBY9j9jh4dFGIXdHQPguLqafUNvB2+MZgZC7oi8wEVGE6Td7vub/xDRnakSFpQT4VynKiiVczNLpz3wHupyD5xeypdMJZCmnJ9R0byQ87MpQTTy+1zSA736gdaRdtYmTAMIarP6LWjuMXDbDXeHr1ZG896rYniJ5603hmsZh11yoO9znSMSny5zIrlaqtOWBRL8WD/1zd/048/78yxDwlOK3X5AkOOoDa+/1aAAW8XbZP9RbUpGzzRrfavgAm73S22VTRERJ/Tb7mNpmkZLzt/i+AeeJh9ZlJZlTuTUM48e/RTyeG9pkkoxtq28fTJgvwjCarilannYdW/Iorm7YpkBS5n4QQp6ezyTLAcFLQqEtKB2Sd4EwI2zVKzejUgDXuO2df5TVj2DQauhDjzby6uN4rzXRbjgu9yKeG5gIaF3N3fgmZCByNJBhM0/2R4wK7OvMEdtK1YElHaDlsNtBOYubjIg3ur8E0xLydeXeSUSTu9mNLy0PHG6tzgWNQfbsGLt9+eA2aOuzi3OsCxjQOIMbYRnQkSMi/N3XBu2fSCsRn1ZQaCIBv+sRjmyaowN7BNbIbBsmOWheMECBreCMjM6WN3KSq942oLU2wW4hwGjR13e2ZysEo2IF2rgNS+uttcjMuifGcTcRDMZSKhtht1kunMaEucv2XQDRbhMsKb4oo4gD/73Voby9gPlRkdUVeHgD8Vco6w2w3V30FZz47FHUoFGQe9dgMZH2sMAmX0gHXiGy992bjRhAaJQwVk9Hxgyyfjkz/HlXihNNJogBvfYXLsOeSUGPZ5oXTZa0nybjXkOONHNhBOhAbsalrEEbrSCENUU8PnPpTmw+dwJmz2Nva3fNHGxekEWcd91GTNBoXNTWnNQkLbgNE/BRzdES+nwyGXGmeK2+vT/IijQ8aBASyA+wNd/34P4H5SCHksgu4vT3hnpsoGsP1QcrHDmoimEaAOLEgvba8xJDG9JWGDSTgh6aSbfBzuv+MdIcINLCtuyIVMZKiylUG9kkovGNXDp460Ss1pLfi5lr9dOTw9d4z9O4Z7BOlXLEl3p8vbxb2ToDew2gkqNRcguS0VyX+gB0xtOzklo/l62oxmeWfndoOim/bqClKrb3EXUilEQ+yTwAZIQIVnbjo/E8sLbHtTS0sAerk82mHqFO0yduF6C5b7SRHq8w/Orn6DLSHXfIwlgEOiXDjBWDmTRP3IyszhBlVbdR97dFH0LOve1bkzNfUNl6z3nsskRTvMEv/kTS+ZUM6TKL+F/VRhXXKOBbkw7pI5IbaiBdKPG9QK2Jhww82AEJ9nVRxaltgaP7XpgerkSNmfIRXX5qF4BZL3cYKHav/DZFGTYgPqu54NWJ5sPxIp0fU4dsNX9hlTj0P6LgS5qxpcHDg+4cRXXjASHa4PGgLqZ0VfUKd7jGpFXRp6C+iprXgOVEyx8keLIxGmIMu3M3wsK94Cu1RxioHUfbBVMeq4Rd4tOIZjm9z7hNQLPCGgQOGO6DuKUHpy23/t0QJf4iiXguu96p9kspfxczS+WUyvIejpVY25+5YCnfYzAJQlFx29UQGty7SjMpJIRa+kxdMGKnOyXNZidEOE1bPkk2sbBHNRDv57/kUSeV1vkn56BcQlbxU2DCbkNZDWOS42XmkVcNJJqCXcQD6jdyL9yeLHynWFeE64OPDk34CS/gYLBMt6nfhbGehCbwhIE/HhA6xIT1FE4p/ZG6NEGNZh7FnFnWnGt6VpEa0ScBD6TlsCtI7piZuWJsz64EXJkNtJOeY7UyZZmVqdqoX6zvCNC3ENfQ5P8dDjd6zarEFKpSO7mpdzTWt3K6I0sWINqb4dNlmoJMmppVdDXlWLSG3ZEKPssnzYfd/8SYaKKBkyLZKrS2BDn4gjWBUr8ORcB7v4ZDNR1C0RiUfdO9zq6YbD7em/H3NwEFqQTgpGv1ZnBGE/IQSOF7ne1IGRXDdxenojc1PKA69l7tFLsSIiURp9Eg5BCnMjwjFUhgAFCvlaD3Nze+nW479dfOC1cdt/xiDZ6AVkyNDy87M1QOsCkip41o+bxt5Or4MC0+VlQJ8mcIvMUpW+mHZp4tsfoUve1+Qck2FjRLpsH92MPMW1KBwT7wL2HI/tYoJ4nw48Y4tVPe3eyPC8kc4czHxz00G4k7R1Sx1+Im5esyGWjKw6g6BHAShkdBPpxLxv0oje+iW3iiL7NAejQ8aBAWiA+wNP40ksrY1x82RoW4x6ypCqUnHandhugzM7KL212IhMsucIEIeh7yNj+3Ow99Y5poFx4CmEUr/n2dVyIwg5Hs1/JPIjqTphhdFPA1asjwXnNN7IgfQq2TgLvLr5vrWM5sWL8mE//w+6s8DYX9t16hYjnyoIR16x3YzHziDx7jvtYyP5l1EbH2WDHFR5SnEWQZYxuWCcdDwn5bMwOBZv8CmngdYwtD1jGrIq4yQ/WmkFaL43VAUGj0dBnEk6GIS6Njp4wghWfmBiTbOixJ1c1B8U5+Vq/QE5ZZqriGvNZIqfYVEwMOGM6PehJFLLS7TFBkqJlFG6Oqsu/hHFIp336uv9/IxiJFUYMoj+Q9811O3/F/4bGifwy8FVhEWWDzh2W4hGzN6nqGRdCD1HkD1z5StPSQniX2BDMQL/CSDLsm5KnllTevC0iq7moz32Uhs0OEkPqy0BaJkPF7vKV3oceeOD9VI1eoKmCaVDsc9T3IdgQfxVk5UFaFTiOVOOJwlMUjf1WkPAvG0ppUHRgdcIRxpw7fa1s3h5mJgsTEqVcyP8b3zrLc6PEwMUhN/tUSlcQ/xFJuk4l5gM6cdCO0Eg8hvtmGJ0snuvitZB0EDEIgrUWfyqp2av3avRIg2eo+WQgCopHCkebzZTBint+jhzL/92J4M/8Fno//rLx4GEv5Ctl9JUMHVhNrAa1x7yvuj5hCD+Ik3M3d10jor2QojYL8Nn+oxsULxFW0sJ7chG9TODTht0eAfaPQAMuxYLxstirf/gbxpkCaI6Ab9/XmLF0nVM1BR/7HB1lttDbKTza5EwVG7Jdx041hxynQ6Zi2CJAqCWY9+zMVLw5EwRLdP2Fn/eWYpmhFuPJaBfLK4wF/uwWS5ZRH/B5JCWFk9YS+awvuqKICp8HfxKc/bxMTU+B3j6SnpTNVM9r9cajJ5mAegozW233WFLPX8ZNLAHH2e1qacuPQGonHIZE5Kekbl8hYYBf6RgiCwCsErV3AqBCckkfbZVv/secX13B92TdIn8zwjHrxQF+ywfGXrLnrZ/h1gx8BIiuuq3rwCWkQjwvnS9/sGYqRbCKR/3w1Gs+RsMy8KjVGu1h3ntZGL6NYKHNgNgmHbBGB21kPpU2TRne9bIp9XcCexcx3zd2X0m5FwcgOmPRniFbw/Oont+l4LrcWe4JtJqXAu2J32TIBklYO2l/+Y4zN6bWx8G6PI24ToAWfHYaryL68bjXZo5NJdhF33N/jhg6Cnx6j5KIPglkV+d8dncvWTRKAAETgyQAugj85+jQ8aBAaOA+wPHeCVGUWAIzU0g6dUdCw4odJZ89wUY2r2c37g2xn0eiDXG69fpONmD361wact6jCfmQ4/Wszjld7kOXYJpuTmGzuir9rVUQ8o28wjrtuggfKBdsV5vdPPPsJQfRG6Z2pmX1yDGg4stvjeiB4U/hIm8yZA/5incFc968UkkhHYRP8cGKRV/CdxtUyHLtq6wND81aOtR00BdLGAwkF1td1CoA5vvJO6Pqt9Sy6W25HGDctNDImeMpzm7tvUcIvePE9fa/G6e2HA+llMh2NAe6hBdMDheTrBIvNBlCcTfXDHJicGEDkLBC35BNfEYhp9bx5/DCH5Qvv3oIRnzGbKrAaKnzOdH9paZp2adZ+LY/azHoIzMVqSyzbmnYiRIL4qEJmxSI/3QhVhtbm3KDEEOKfaTmhTpiSg+6+S9QNtCR1egl1lFrvdbET6FPPrCCqzyg4sP4NG+IeQDSnovyB+0abw5NRtFgdC46z2CpviH7zMIuT+57AsaBaZ4tAuc55m/bBKwdbzaoP6MXAIi91FKKNMvaswElbbe5rEjHtS5u1xTmajJZMAFmDvnhKvGYX7I3aG142IsNUMGz7RWc7LWPRYbmY68s3+quMqKqcQbUe8ATmC2VTXbYekSQXWb5ft9NbPhPJL9yQPaYrZzZ4tE3A/e+Bcn050m0Xz1b8ArQVw3vPr1yZkZ0qbtvVaeAlpVtpO8J9o4ZbG6QfuhZ8cIhH1fmM/bi4YH07bRmXx76VHud8Zlr96Eq+PyTn7GvPmlwjGOKP8VHShQOnyXCVedChhOIVfhztlFsGDhoxJ4EMF7Fb1Crhc09+EBbCPW26Lfk9jXSN9YwrDeOfBsDFVrvoKUWWjpkVm5gSOj4m9lGr3Ty1bC1bBimGF6MdURWZB5ram6D45SYwstYhM8oMX2HxxJYTimEiN1pcFz7f/ertRSz5mSbCkwQq8xzXVBmNa+Lr0bMRufNRLI0lI6mynQBkuAxlSy9xjsFiPnJdW1VnnTzrTl8Fuiub/zA+7XMIVdmKAUB+21nfnpRIN5xRZwmypvm3WuDZMiHLiA/dF9/faQebMZ8knYZRmEdSIBQYIgboI86fCA9FP6kG35H8pI5gIiKP/RR3vgACLTjQFtSPSxO1FtF8W/xolqa0IWazgJqoQQrBs4j7g0CF5XjsWqM60kGUuH+ef8zoQARDpoPO+tqZpG3estpp1HiqzrYxRTMmivRYbN1mqQkNNxN2LfrOafHRkfDqoRx9ZEDnQuM937X8uF0kPh2tXdRH4NswrZZECjQ8aBAd+A+wNbT5LkudGyQbFQBueGeHk3Q6d+tsFvotLOshKDe9R/GUzdtuOufe4dpQPSPyiG34PLGhPi8tz1PffI3YAXsLHWiZKYiYiRJviTil+pia5KMVOLJolDIK9DVA2l49tzPZNj3cYPMbBTzkfFXLIu5t0G1g1ZUG2V9TfL5mmaeuKlfOvUOLsP8N/NNe2fDczAHCKG7QtHXxWURdpbhDhbmR9P9eFgLY0mFxgM+HzROGiNSMXEzAKWlgPA87VIqP7na7F5EpYIt5z2In72QjFF94ztUs7NPcVahXGWLXYH3OHYRRO2iaxL90ln+pZWb3iinrzCDbHDJd8bSekb2ljty5y0VM2CBh5Op0HUxBRsWdVVHuGzIet+X4VmNnX8UzESx7k6gB47UzGxsKfuTGwMLPDggHOowNKZ2uCBtBJYZTzT+7KQwAAR2nu+opDk/6tbDsGKL/oJHqZpcwcHSMRAr1USG+7f4wPg1WNeMesadKOB0/mA2fXhp9KS7TAcIZVqMFCvWjSxLh25sy/eyD01/p4B9bkT4RStJ24bSs4EAwc/C/kvgTvDMdpypXsMOvaJX/w5iJ+pNtxw8yHpgjmFr6pO8MeeOoiTArYfRWI1yuLc/gic/xVO1Il5VAr6wrrcxPnmqLZCE+QHVqw8ptWYxEJooD6cmy6bLbCgZspvdP2/bK3uMtB4CzZIrJFgX2fTl1hYb5Gnr42c5GGb0fylLj6kGhipIIiM4j0TR+jo4uaS6KWeAhhqzqU4h5TLuD1eNU3l6TUpr9/6h9T23UrTGvE4gKPoX9GD9qeJRyj11sv+kh7TJF6V5+2MT4AbCasVXaFf8RxY5VJnxCfCD1EMyViksjlOMOmBK5sIEb2t84LCWv7qH56CKuaUkw65aDpMO/ZhYubFiV/NTNX5o1c3Fm0AfBWgoh4Be8QmiVi2g/xxiwK/cpqqVjP6iuobkYJdBffW6tMeP1jSC2y6KKkcSWm77jLnq31E99yodrC/mYnODh2dxmc01v6tEyFo1W57zs0Op7HPW16OQ/cOC6AZvvr3wXI0eJbnkml/Ty+rCdt3PjRowPOapSMlbQpKDQ+qtukg6qOcfRexDrviR3WMK4JdMvxK2PP+aZHXj5v9XAJxlpbpZdCFIFohIgtqPdRzL2+0SsMyjsdtp+VxB5hQ99H/9PZ/GeQoqTk7Rc82tFVaTuJBkxvA2CTbUgZNkwNl1AQ7eyYZuUeNk9iVP6pRklA42lkxuFEwiKf15OSvY0VZ69F6KJ/V8iima7S3GfgdlqSjQ8aBAhuA+wOxlZMdz4GiiIKE7MicXUFR830YzAeQxfy6F6nVLIC3DHo4t0UUKKFtB3yISfyZbESOeBLhqrinQI89hFXZGt8geZvCIchH8gxOLGB7Z/MqqjTkAQ/X+csCznNRAnATKN45qG6Spa+e8hqqQPpDGVKGpulcBG6kM/OUH2QazkEfUh5+drpzLw4f6ngd7UVgkuRXvpX/On9/1TE8KSyaUG7WjAKIJfSedd2N7A9AQDlAQpjicHkjdJVdPwrEqPOz8k/6F20/kFYoX/eiA9DInANiB8U4ThpmS3Z7z4a1vTZflw6QuSJxNzHTmlAQ/dlTSaSD6JLczS+0pUajMhOCDHxTMjffZCVndH5yG/s41xNtl65dSwumxBtnHqmWB6C5W5GHf8Nt6hx4AMUMTAoyDMH8rwOhzSw3KwtGoJBmW59onVsfEDYpvbZyET2I5VDynGtNg/jD3uRqF4xFwOSgU6H7rhb+iAZEn4QyMxP46qBhRdIPmgvAgYj1zoMa4cbDXWv1ekgBa+vPgp/OZcob9W3wLqGFJenzHsVTZgA9U19MffhjwSy+RXdkd4IqZoqN5qB3QV+LRTcuso12GhU7sE1TX++eqP/sCiAzqnT+1lwtIdnVsx3cAJrhqTBVjFJQqJCkmOL4J+XhsR1QftZ2HQqPcTeJ+OdDQkh5m6pqdA+uBHQ+CFv9pUBMN8KDSbepowgWXdsS34u2Em4DVG7yyd971/rf4amVw1N4NC2Mq4iXyawK/U2ilaaMdctBB+lr+N80u3HquAtyn4qiGaxuxKfsuusLcEtjdqzixCkSOpQSumdFVM48HBoahdRUpspeIVxb4Y2CdX57ip9vKaHqQkBHW2J0cvUZdcZzoFl3Cx1L8OQvR+BYJpmq3227/PL87fMEaWhKpG0ANCu14bNiaAKUixytb7leZXGtFVJxUClno7WNUWAIDetnUZVtuqEL1Hlqb0f4/CipXBpPID5XratuIi+91Km2axTc4vKyBgn4oktgcsAdc8LU1wDueC8jFT+TeNdpKO14xZLuvWbCWLvO9hE/mLe+rDn5OKm+zVdvXVhy3/ROQb0rg7F+Mxpn621W+ATURe8ZqusugAQICDpJrPsjyYvZAw+W0LExR5+aCt3gsJblBMFc1iM3sze6GeVOFY8c/nnhmQRokyHdb8njgtuJDrAc6P5Lw1Q2IdUNC6P1H9AhBDmZVnhE4RbWroQF0w/E3aJMEz5jLjZmxalt6xjmSpIZmFmUVJl2tOw9gjYlIIx4YsCKBMnL/maDBHWjQ8aBAleA+wPHcinZlhexgSdcqzVJns3GCFkJw8uEUN2Dd7xZLGedc4TBQIn3NRDnc1iBPpfua9f+mwZhVor2moK2dXPl780v/1l3RekFBI5pdPNKERnUIgRv1lkLhQUh4IDDOKNiRQ23IM1XAI3IIyCFWOXp5iVbh5hvnaFbL9nc3hCILA6u8RnENsCmadpHljH5RaFzMtEffrbZTdjMwGpbYUPVR5bt2Ug1jGA4xwljymf4hoj+0FpWqWesyWdgSwuDOkvqQzn89P+C4uwJIBK/Fo8akMl6SxrtMm7zsAAW+3WLgArYp/GN0omAlLF9moKXbq0OXHL58XsvIQ6pTl1zjibAioFyA3i6oCFi5vESejcJcZTsEAG/JDF8vrf19ByEDAHPGkZipYgUPVL04qeXKFwByiM4oCw4H4cASufCuyVk0089FFGBBoPCOd8+HKYrXS71LEqVAPdu+ueISyP00XqVrAGYpKE/AdnqU2vcDLmOyC1oDJvRgRozmnmxqyPMqtJsuyxItkz5B8qgGJ6vPI8q4JBAioASqkuNEmMsa5nQDVv8DPu1HxK7JePwlzA/dMOGROU6imlM9IYF8wAzpqtK/zrEWW26RxApJmSLGEDa9F5kSvUdazBTEzXgDJMzZAfdvHz/0rA9cEYG6VegjnpFXgzMCiHa/j4VcxGxgqcgIFQvbO3piz/kz2TPguHcveGNL1bzxL+yzfcGH83neqsl66FEfaEjHJLoLe7MAMRAIy7yIL8fG8dmsVeDNnKuRg0OEnPKMbhCeMNdzh7hw7Y2+WFowFIXyGYdWUhGqWr3PvT5XbYhL4g6ESX8QJA94WMpWqeLMo0f6bVz2KSIOx7SMME2T6It70h6noSOl2C8BsXcnfvgFZJ0aZTLQaA4IHauxjC7/DVyebzE6tumvx9tdB5K2/TLU0WpBWKlwPCA/Zqz04qVERsG9Ek42Ji/xSju70XmthMB1I6qky2oRtLxDZ0GF6FMP6gi2gN/LO2gIoOSdc8KuY3IDyTLMC7c1yAPFbLT88b8vKSv6WR+3JxIG8b1G9VEgwco7xeXLwYdovnda0MnsYDE9jwfgrHgk/tb+gWIMj1IeUFGDF0S2Dy1i58wiW0J1tx6Mf7agO+PnJl9fKAsm0gDtOhD36RDCo46Oa3jZmgb1L5A9X1ALCntLg5gBqAHY3kyb1PCwNwD0PpFb6OyrHbJZrKyadw9nNmYMHbYKR/Rgyp1k0npakMWcDcYQYSJdIPsLSgDBWfEGSxqKOEGAPceH27x49ovTO6y8vyjQ8aBApOA+wNAjAFTm/Asn3BlIjDLqD/SSP//dYOM0aovxll5H5DYf5VChHIX08a+fpjYMW8XyFxYfY9FTOQa00RF0Y/APe+vhQfh5fcqH8cBcKFzANO8nI3PvrEjAginXYG2iEnIbZRXCd7V9qsJEDclQKM9MS7uq5zynIPvjMk+3D6A4d4sE16iE9u5EHyuf/IX9P7Gc+6OV07HpsXYCgU1fAxXwlnGBh2Njn6PJ74et1h/Q41GR+qlk8hQwAk+nYPSE1vDAwDLnN3e39lCXu9icHdvVcZ3C0LXV8NKWBPTt8cshS/u9e7vwsJk+wl/lE0JVkFp3xtrA6RlN9S8lJGbCmTjRCqWmymW+gGsOnG1VPXsYO2jiC6v7MPMI7mYgdrpX9R8YbYxSzAH5C/8gUQtS5WTgmjkvoRiPsQKgNDvcIzcR88RM1Cq+X6sH5j9WM5uMygRKj9j16vSPVbdnLzZrosmLLeHRUIABDb9L5QgCE9wtB8R9qyEWcH6B3wPYXZilKyrnM6iFlQ2wMgoamwBItrguXD7du3j4tGnRa/vg1MpFpQt5D201KvdVZESd4SAQ2jXCUVhKoMlUaOZqz5VJhSW9yVRpcDvC283NuFVIipteCGzCMSyqhx80iXNskJANfJ577RWtpzIA7j9q2C3Cw1L/14cNVUWI3FE0Hu74iwzroONEwViuomqXTmpApmuhLyoHfA/773BihOkCm2O/1y5Lua6Jz2O2FoUK+6ZMmO48i77tGZYa9eEJ01vIOZQk/b02ib0JzKLXQUhsszrsZdG9dstEghQWa8+j7Q9jo2VY1cCtOdb8s30m+0tQu6ZAF062MlIbNMdshJWdF1BVUwsMG7AWfEmZ+5j6zzhOmE8/QRLH9iQOL8Fc+hXOg+PJT1B8D4O6z/isViX5z+qZT7zoTufpuTEZ5M2eOzlOgCpAm8q2TQsG0npRqEm8dqyZr0Cm2o3JPdBd/Ay2Mthq7x+UqpVP0vhUb1jJW1ZmmEQT4R36x/DDmEQkoRjXHfIkkq6IjwxwSUDMHEmN73c3wVzJ7mg06WSmaMgsG7xZFP59WqLrkwwrwagTPrpIF3qb4VuFxxSny/8cJkh45NzWFKg3pBUFS0SjQUXLhBzCvXpIt7mOPQOsLqYUrB+kk5TNg2EWyiUOrmuH4NI6gpHC/mPAOT7aQ+NrJRBwh+jSRw6lctVMuEz8MMjBgGohA8DLwTHb6K2zDlzPkf1O2zpfgp9CxRlEGRhB/j4NTt6wEWOhyGW1iMjPxdjolne/aXwFLWa0JujQ8aBAs+A+wNeH4g+n72gGQLdZGCTsiMj4+1v4uJ+3DZbGDaZlPmaWRFcVk78Zw1gs1UhRPiVWgbw6dMQF5IA1o8I7i+YLrhm91rmV5eh0Easje6un1IyNJtGfpZ0/Eg9Qy5zcurm3nLFwlKUtYtf0lg5x2rYWeeYFJbTR1pKnlFnuSBuP65zM1u6NcN9Ywys0v+5/FRjtOgcQThUjkE8Y936/iyxbJ66/z/rB/zx8J2mgh75gvLap/el9VaFNDLdG4dizYYn8xIiB1NizT8+FlKBNIAdGO8El0dNbPA6IcbtgCVHX5J51TS5KtRQYzoAjFLH6WYAn4nGvf+jr0wIs54h30Lg6P8Wu9gjBes5WAIEJiqTDwbYmITGnsZBjWhytIzzoeU+haJME5CNxZeTNW4Vvgu0r260LryQIjrRiGQMMZhBVBfa5FnOZ+SE4W+dOkSl8aEpCZKQUixoIskLNy8U0Mpp3HoZS4D5nD3se3qnNlLFGWFCMadUbI/wc0s0skrXKJbPQiQDJnx8v1Jc4hxSucUKJOIJ7asmCVaCBRm24k+N5quaFWRVajt1xEHSCutxecvrhM0u+CYXWnGrIHZK6LF2UEcag/P1RgYWV0b6miW2xYMqmnDF13mW+yWIq2010sSQLDKdS8fDK32BdGXy/Pz4R2LnMX3ADVxB27pGE+Di9eC5qhLoEEnu0UR+kMMphJLoyxJwhV6uXIqeNuLF4l3lNbumI/mgyPBNUnxuUdYtWCtyviQphKzDmGEvyRlRByM61IM9OTUJqdyWQiJnNrc2laAkHwiGk0eL8egA5rgY5m6ryirOVXP11UBCJAL9RgvBDkSPHG5+17YJvujQ/onQfOOQXhWuyX/mKV5uUtzQEpONj1hyA/b7mxpAcFXaz7q3e3isxJ/7CZSMzc0AyhYHDXECVaZfHWyp+Y/PkyA1hWuEFuIBZFPw52knITotda9GFaQXWcGQ0pB4oG+ls/zk2cmIpimny9C5oMSQLkwFbzOwDGp2XT8togf1y5g+q9Ldcp/GMV7iwaix+YWmhSMuUyRaNUwsHPTWp6gC/BrdbdFMz4PelQGcT65BAfUkenyrpIm/Y5U0CKSOhqY7aXbX01MuMqBBzIx+K3ojesvTBZtwcXJD0NEHsZKUysWt19t3XmDmwU7E/GEs2P4cdumcTmH5E1ndyuM9oIxG6HohjqXMjcL7Pbb0pnW7ZJ3/HayXWJOGWKXlM4N3Ej7pq0x7Ycw3HQdUvLNGOfzqOtlrnM7udr1qZXw6Lw03+P3NWznpv+ujQ8aBAwuA+wNa574kdLB5N09jujk3wZxk+UHHf9ytsqtGeYA170L5KH5cSVIAz+0WM5o48G7FzbEoJaMGG3hJ6vBqaTW2M/BORqcbgRUz5uvcTtyC+8FbTK3MQpqHhbq4JRrZuh2mAPIdu3gtnix6aOMEvCzp1afy3WvawHVyHLOi9yGgcV3f6krV2RtViYsHNjOcf/95ZAheOyb1jjEmQpIudD0hOkrv5lOmuGb71iZJEcLylyPSX/B57eAU0dC8S4WPDLRr7SEiLFJsH5w+B5TSX05L7mnKrMU45ekTLKt/tPYJlpJ9l/oqheCfLgBeTtdHayX4OkhLRz9TjSjU/FZfswepSWxN54jLANPPiIoYgakczgeiasvP93jsAiPazLoD3IC1Ks/LYzgZAEoqgi/YdfNDolykzN0sS/auk6ngzprUmuNjDlCm6A+Rqmnsfw+ZnXqZ2LJy+9YVmUqiMNYM/kzhd/IXl78qivMsHRCieN4HG5RjPhS6zS06OSD8Z0/UjGUCKAL2j5E4VNHnLjclv+Mgm9MwDBwdexKw0WQOo3PYmm/jXt7Yco2toE2TO4lycjbVF2yRSBAV7gSTyN0FCziaY9Wr3tOMAd3PihmWCEYVIhmvmaMakKmUYi/YAinbkGEo0tuaBOFWdFOGNFO9Y8bOQBNlab3JzGetQdz0qYl9xR5ayD1nwFnVjfhec9qtlxUSRa/HFUeylpkQaibuHOMPgY8QebLyUGcfOUM49jWCYLSMeNc2abpw/ix9tUmTbkWpZXFOYnYM0LQ57wYlkr1W6RUtu+MThlLejgAXUCV5yaT7oKj5kRWYEEYIY7U1Bpctz3RjI32mOTXKXNw9CXBQgzwh3MWfLrlVUicTjokImQwzOTj1d1SKMN3d5CmDmnxf1dNW1MxBa2g5p/5PQ9ezJuXYfTRK+W97n92U5Zn1+t11FpRJ645Hn54A3hjHIs930DWGyqob5G5f8XY7lrVRQmaywO1hGcYVZnEQFX1IA9rrQCDO7l+XXOMs1u3HVHsUsK5skZAD+aGa7pOJf9zy2vGjhly5MiZksdHgDdxS6sCjpaGdMgL8mlXVEvHZMIvsjXZxoZtODaKOJVoe+BpjMK+huHQi35+65mFYrtAxhALE6pjPDje0/Y+QnDKCwpxWK7i1e3dB8pFsW42h7+S8Wi1j07GIaL24bGmny5kS3j0ykKTAG7Lx0iWfDz7vJz39iO10FCqUZl+PZcax1s9I3VdjppAK/JAYoqRrLTmk1Zi1zwF7awvtVMlx31StajmqibKjQ8aBA0eA+wNT3OR349kmph2KocKLTpX1Eya/YXfpX53p0O4Uskg8TcfT29qVy9lGy4c1ON+X7Fg8ptipAuOvuXbmKOu7IBs70Zrn6ys8rHQ4cw/D4/3bZiClHAbRTpLLjAq0BVZLydDdOi7CxfD+p8FPmD6MDX2u40vUGDaSjRoiFIUKeKrKlf9jmbKw6Cb3kfYmUPIOSRe5Sr8W9/qrUiBwbrUENHuaXmQHAJo678S5PJY08TxWdQJ+w42zr7JYgip6uVpFQTHuqbT5jJKkLm0XbuFfuUCgPwe6slf29BLqVeNXAE/Sb4oSy2VzrLozaaBig8mqZ9qNHKeDxuUjfKpO2x1V1/GkGZiXmmqN79+QmEcV+VWI19QZNg3JiaW9ghkBJa10z8BoaeKXEZ3a0FTOcyhyARw+2JNb3mF03ejYl4eDMgJdasbIpbcNK3T1jw8Vmz0xXXHt46POMILRs3xUlbFYraDOnsTb9JeyM7G23s9NusH6IHk5xswlzrY2u7SsZytEt6+PhHgdCT3BNVuOZDRlnE2goBUZMoanAP6xbS1g77l1fdV1cNuwyaM3HN05OeDiAbWOf1mUyLqy+HHmw+0D/JAqEqwwOwgA2QYl7pBAwH71y8l+tqOSVPyP6Le4bDO91dYfnnJyCvESgxAJacxgXlJSEwiVnTvZvlQ0miWJtvsYoUpPRmYCvllhMnnx4sVGUNvtpHmKvgc0QBA9nSJrwxUO8YaTqnWbiyvjSsBuN83mB7tdYVxio4PS9wNU0Vzd0e35eVw+kM+zQ3KXGKBwwgBdnKqIZWVfS1V/05leCpEk+N7OzwujoXxP5cbS3E+n92j34LogKCL4ZMWu43MutsFHyTUekLkOkLmwzePtB/Dsf4mI4/5ullK2q0EZ4OVAlwhn7eC3uQkFfdUXI7DbmaucQ1Mj+xmfYuSKAWaVIYe78uNWxUQK44QrbclRcCfhylShaVLPe4Nepdm+kfSCz56DWRiPB71HT5r6d/XCLo3TDC/M7pgN0y/skhmsW+qMMrpPBZzCTm/S2nJVV36giov+jgoEFdUOPLuyVhi155gwsEOseGZ0VTHbDvkKAQ1hqw7CZSEddirw2DlchgG5m4XpVjbI6LzT1uBcYjbIlREeHCPko8E+dj7MjEEnvojY+e+qVqbRKlctikmfpOMqCg4z0sqiB7g9/vp5buvAQrgPsQxrrwEDJhErossrbC6ukWyHnjM1t1tADUupQAmkVqEgQgu9ByuyGsh6QqvGOTtaGOISow6OaeuAgA6rr0fhxVCjQ8aBA4OA+wNebHkPFsComM4DAyS0uYQHkJRN/wcjhk25/KZVG2bY7I+AQqleSN9Emg5J5d00ebuMjCkd2BNaLt0SHx2whg7XsXbE4ZeVhgDmmlc7WZjW0jcwIa0Kz0GrFBhykGlVqN00yZux50C/kKgE59TpOYghKUZaXhFwEJaVJyY4xkIyM+WRw8piSgCtM6LlCL0WNPO9UWFZ2jnUSdqSFH05uY+omhaoH/j+1iiMk6y0o9s34apPycrjEAfmdGGP5p3FI8BNuE1YaWspW78lD5fh9EdDKgYtM0Dv6zf9zrI4kXbK4AhMzT87IfHivoRU0RvMRYh3iAC3B+lvujC3m9NmTxu3rZd7VlNV9FLqtq1LahYxq3YhffxdgUaglXupZ/KKKcbVqnQicpkr3oHKppxEnD+HJt2qKRvZlvi04iIVU1DvfrIjUsteOK/mbqOG4TYQaSbXb4P7ybx6yskAR6htF7HUXJERNTzx1FnDusGEUuPgs47MAJ0PlVBVxxI4uj4GXjlRMVTLVXeDKRdFwbSpieezSVYgrSridMLgb2nbazvEbieq939HdxNSRnGfp71GBgE9ry5wdRJTQuoiQWTrTQwzU72Ud1SIC/tkMGPZqB0y571uMI8ngvJzerlAYQxMh0ivKNNl3A51HM+FCZwYiq6h8wF1d9VNs0wEJtfOrlZPWcM2l97or1jsYFD95+8i7h2FddnAITyCdHVchJnu1egMwrumzgbdY1fF7KuXvCxLD1uo8enh5VInIRN/mC69aKeut2ZbPTrio4o5crauYm0gLw6C6NG1lTh36XbdvWO6WpHmMIfrkVRmwM0bnWVbRKOY+dhqmTJvdXhcoxDO2iTjWpbZYalHZuo9cJ/ZsEIy7CMKEXlB+BuErU2+JyPe8kJFrCKbgYqp/OA1KT4fgfJU+JIRmY1ep408r2phNI2CsFqGetcIbBBtRcwhj8tVmc0UvCsLB9BXmXDSDpXYeb30a4Q7PH5xGgjhBtbwYdGDzC3W3nxK0Z17kpmoCxpDXHLIFl2Lj7lL4TFLzTe3BzpF29zEr5Z1xGaymFWXXQ0xoOaPDbWv67O4P6dvFyfy+RaO2VHeJ8Kvv2XTp1h0L1EMvRJliMRh60tPQWTJMnw6/tRtnpFBD9d2UhTDk6OzIKFJg7FHW8wiwlqh1s4TMguJT/QNcVtVSqX539Fi9GCeTdw5sTolZ/gq7oXzPXRRHEKNtLGnsCuDFn1UtdLXz0oOp0Y0wDHomKxYk6fdZWoqDschm/V5vuQMdeg9WVFQ4i2jQ8aBA7+A+wOdNbM0U2OZ0hakXDexMrnJYChiDsHHLHeSmA3WE9A5qFLwWR+h9DHDccTlgT9gdK9/VflBTHhYh9X39JM+AWAdybynKqgmv4rHypzg8ti1bvSPzfKvBExfYYZ9gShPBE5yUKpqVVHq+zV0W+7acjiPrVd7Oarr4o8iLa3p7l2sEg+jWXxJsYA+NFjtWywz27/GlfbYNvmvoIZU6/Y3gkcVXVLen1deV/TEXFVqcACvXI5i3xTAZUzjFxc+lUrFgmoRoqghFXkLG5DuGaTLb1+PLdA1ByvM8eojqK2wkLJ7RGlHNAitgKqSgFefflcrcsbghBnmmirb9rFtLS4+EIXwdZj5gN43+LXYp3b6+yeD9ZfXdU/BwixQ22qHLHG48rMMcw5WG/uLalGeX7HhLwMfADEoQRcn3cgRaIFK7ok5ckA5cYioYoB8H8/i0iMX1YJlt/WQr/8ETzZ4J69v2binfgjVI8DeVbvTLl2cjsyhYh3qR8RwFiY12U9et6blN7RdlZ9h+CX04UlzHvRx+BNmNp+iBXiNbHa6ApRIAiU1GAKj1ZtFDgkSRTlCv6RVeSXh6J7k9BM7qcspQs3+c4BWjGmeU2Sz426umqyxjhmig/6BSWasQqwO7wVq8L0sIgkkGWMEwvxIUvQEVzOyzO64j0q4UOEczN0uAf6SLL14XUULWCa5WkGrwiYFq9RbNvpHWRs6xJ2D3P5l1R8FpBBSUpQHgIydlC17GscwXEWGmqvRGEsSvIAZD2JcSQZfjOL/Op7lChlmkRiLveINk67Xqqq9XSOBE01YbED9UXqRKvwaPzF9OlKgc0Hm5XSwOpE8ON7PUx9aBP7Z2v93SYHxU5BVPe6f9vZTUDEfTrumJ9DptGyeKGp3VtFx9RwnJuDBeDBFYi+jh9oH0Rn9Ii6oJdfYycuOBRXf19Oi5Oe2SsKdgYlMLGWxEVO1T/17i3GwLjDPsyEwW8NdpnVgnf5S7HyTA2lhPU9UCiSovU9jUroNAGumganOwxoe55rL4H/PjO/s2uRuMfbFyEFobF1myR0hs212ceWTk+DtwHPBFUj9aIBNFMuakhfVwihYKG33uIDVyhl0ieb8aqtcVsTqZZUAlTEF7rACxRhafXAwCr151pA7q5cpGOeeC+mtWCOAuBt/lwozCqHl2DzOa3HQtzh9IJLgrEmlfv0VJPp8FvLd/reG+oujuW+zKaE5n4QYWHNkXOqtn8jqWQxL5LCCKaLObSCleZfEB9YiiGT2Obh6bAgaWtvQo96NwMZq/v2jQ8aBA/uA+wNQGWA4BOqCwoGVZaNnQUeW7sdCjlczt0Vm65myKfnNQOGxktMOGreEBkSYUaFz6fzCo9yudz5ncK6hVDt5a6tzTzxrHafQ6zlIxBtFQX3ZFlPqqBHMt82jI70Y2f4y5zLQcjvaxcx3skxQM1ugB0Zoa+q1kRoaGAUN/mep9rKHsJzqENfeeeHMHbz7XMPGVfLZf+5V3yarwszDR21C7Ple9zO+89cRSPm4EHgE4S7WPG5X/5p6qn5PBrxaJ/iCDQPvT5kup4Gh6SsLQQbiaRAG8bKXyphMVOi264oP6m++GTtHFMa8q+CgXEptJJI1FHQUsEeGHdRI2iZCD8p0kcIlF2uOhwMzhT31e+alftupt4OT5efGmqPcEb2rjtbseyFbUbtECdSRqSXTnNDJxOo8Pk1nRzW144hxrH/xd0jb6l45sCl4YeJ3+IQzqhCdkxWs639V+aUMvl15MAdci5GUVu2oysEnb4E6joN7Y86sRjOvvCXkvU+d05iNtzG/0LcNzZgvhncwkVrJSOxLOOjgZ/TZSuhVjloNmwm/jkpjCs523gy0TP0flB94Rx5px2Bf0qMGgKko1vq8AzbA/7d1jujaDfNofoGZ2jcHmh5YijbiDO/GlBfpxldEbNk/XogRnkLpPuDP14kzvAaNkkjl0bgL6JpNBz7hSLx24f8YRrCCAVPSr+4EPGVFoJh89HJSpGNCYkWBQL6HHmGuBH9VTzgVVARzAXXdl20cU6XE/PkgmuQtIh0Wy1lLU0FvPTn9lgdu1fgCMHI3NMaHwyWiSZ9tsczg3cD0e7zTR368RdrPSwMsUjzkRoCo6FGeWvDGZFTmvuFL1jp8+fEebJlsxs/xoU+j7Zw5RGETqdXC15t2kbZwAfDiBm2oDKVdK9bN7gpgGNJFK630L7lRZ24PBV8dNhr4blw9938fIJpirNYKV3qvtTjoKcbLb7rJKDPRN2NRSKDIxB45Jp0KeK/igc4P8G3sweTP/UfPe0QYl9D9FzXiOF4XMmqjkxjuW/j7affWUvcg9pQoFfXIxxyjKeUuT70QChMK2S7IeOTIyWnLyUhU3y6FTfX2quEMGD10UPxpfgApY3pdo64WVjXjZrBs7AzUSUVcRLVNoIbyJADCYVuc1ZNTAO8gxyQtpZ3XtRK2eAXRmwU68ALZboOg0gkiEHzUOUkpRpaEMDSbtWHqMirrFeMo6rTGRBnCadfHsOrdl+LgtWjPw4AeinnhtDaHPf50ol9pEruk4k+lln5PA5CJL9RH/ssZuKtG3MijQ8aBBDeA+wPFnxTk6KU+ocfPOJlETFq2+J3iHiUCS1i5zqcsZPOgRVnfw9Q4Gupl19TM9z/8HV0MyXm3GlU8w26Af6ScASma5jr/E6gas5gDY2ANjY4zhndLy9mPJCBJ0Srl14BcLcZ31nmv1koH8VefKaRJnYYvCUbXpW/78SQTg84xFbFnM8zBvU/1RtTNFIv593teWxExdUrfyDyRjZyhfnapTI6PzxiUiZjTANu9CUEds5rQBuaLFgOfVFqpbH7dqG84BI72+hP8a9JHh0qub+FUDaYJNeWOlPn79MwnQQ7CgVgcagnAYldvmH8QQz87ZrdwnrRRucnotHCX4F48fdqRYNy1DR+wo+71Fe/MJyZOOdQDU+6+E9UlivUDAK8hfbgTk3iMXdwIZup5ay71LY7du7SofkGUo8MWVb6ijsrvu4OoyT6dsWWcxjVKk+xOX6z8qP1DK1Be/cm9MMgTwuuwTfF4TImUZigOBdV7Pai5EgJyb27wbZXcZPgnvyhpBfZ7mf2Tv247TvqS+fk7zrilTggOLwzEm+JfQUdLkIFyKEyhb/9Y1uf8KNvxcb+AugSElhZoEUNiL5TjFIE5mz+BXJo85VKnZTpz1q9PzG+ViwAYa4nkDjECkVChpSYDuZiBFyfIUN3wXiSkXbAvc0VOviFdJc1wLmVZ/pm8jWLjh3e7Lr2yRODOXwVJxM0aDbbxX4NufDQyejHWbeojNb34qbUkOX0AgjUZlykZoVClaSB1Ro9bIB1yzj+8qSvsuALI6CVLPoWVxaJAt3Xn8V2PACxIuSTRpL3rum0f3qqEIp+eDi8fTi/q2Q65VZuXbl7Lq5YcB+ogpQb2SHf9mNAASCx8W2/5bapiY5ZdiFi49OmSzDHkS3yA+vdUgVZA6SN+67tgBbmf00MDFJYYG0W/AHHkQ3ckycwZi6zEAEdWP2znObhmBSmxfXrs6r5EnvNL8SGseTwkcEr2KQy6r6A9JAmnKTqPFF6pZjJeyaq6+VqKufsNONbLzeha4E6+08+iMu/hgpbOpIdGcaLlzFxHoQ+3vHDb48I4mtLy/qqR9ROVQoB6RLjS7eRNoIezAYF6/xQxdW//cldq4oM5hTrzj9MhpY4y6tb9+oqwuKTK4YQ9jrtCeJ6ztnNR7FrcoVsgnXtubmFmk67PutfviRoV/9yLAsPGeSRxyE8N4rd33KaQrSDvLfwK7shzhPNl+acIcVdCIEG3teN1Wg1/McbOEgoGfvnBdrlH8fHlF/B6qN6KPrZ5bA3HhHk079aomRBbc6GjQ8aBBHSA+wNZ9o2ruLG06kjFqFfjBMk/KUOntGL7wm2M+UhD6gt3Q06cZxtBLCNdpIBcpE0hzroiZ/BPclSBiVXCev8jqcIuY3zpoG3vcrxzFEvT85OAvp+u2hxoTOzOKpDVuaN/9a26ev70kEZOBLUgCv7hgNhj9HgsM07m0iuxt4gnmVITAlJ9WI4RcnkGJ5kfhhrYf/dXlVBAc7vTzAkXzWVhRM5gmXNwTADGe28FobL7CZ5XP6xEqBTqtVa86xR0PHxTn3AyvbftKg2XbH+alGP0KJmwc+cOB7/1sOfsjbBLE4sIYgT3fymn8i8y6rBwOa1OfQ3lHUNC87je9HY6wLLv+jETNvAGAE4WFfRMo/VDsuo5Gglx5hCPvc4L1hRSwltP74zTsZviZfzkypPA1lsrYyGZfQcjuNnxJwIvn0As5vlc3V7WetyAChKnWLnDCZrv2cHebhNJsaaQY6N6Q7qjMf3owk52KZRpHqDNYnD+pGalf9/eROndNAO7AkT9tXCaya80N2d84RFUSp4KXrNlM4Pl0ONGF2zIKAEuUvjbmPUDvAE+JcpmtnM6bF8M8L/xylsIf45nXShGnXA5nfzwjD8D5HGTyJ7wV5e4tojB6ZNlSdZrsevgF0mqVlN5xFgKGCFPCHekTY6ALAq6OQrTRoMBIHCAB4tYaZ+8cq5UH2nz0aGjelm31doqxoNkYoSmk7e08+xjYEKrKLScAL8wtObOwejtT/f7T/Jl1JAYNoTUqDhX7GmWXtnZNGdcU8d1FMAqkWL0eyLsF4S/0CyKhqZGAssinktuc/1xincRz7jDGmKVUz0fq8uVnNA/+odWtFTu3xrvZ478MWX807SAojBKG1rqc6KXWao7n/SuFfrpEGutEsHrWRSIo6/y8febpi+bFOjkiMeB3bMnENfGY332kEvH0IeImDBBkHEZcvKVigjhGbONFkeatqUEuSDFwJx70M4lGxx88pZkIyzRh3xe3jmQuliqY/Ww7mCs+c+Dw580MsDUNk58380a739WSNmMgOb00Asv2+YURibGqq4H1wHlMJIqRqni2drkF8j+xn6+m3nUHvRpzqmroM15KEWuCYBIrB9iIUlCCbvsbmJn+kwn3Zo19FoV0BauitLrOsuv6LfL8V6Ap4lrvNxII0OfVzc+38BDDKrF+YWmyzhRYl8/grMY01RYJFZx7t+5oRYw6iT8Dqu1f/waqAaHDQvmF9XJBhuCDF12ZY0td/O+ivNUn4JFunPSFrNVq84L/UIEYrqBMKoJLFZXkInY+NGjQ8aBBK+A+wM/232dJ37hxaVKkuOEyeT+WoMAaxqLYLgvW0rd1Kd76DevMHaVVgW5DMhRqCcvA1uZUKN12AQYxzTU3ihidZee69QLkySgoilEj9bPKY7tvkSr+o0cxo3PepnE4UBJJTjMWyIycRAzj2BITDGM6/tneFElQ3k3DBqZxxXiPyZ0KDlg4aB9jw9Ba4RiaITEWLikjQqfqvtcqx401KXpuuW7jmDpvIhYBN531abUvM8rib08/JvN7uSGWvh3ZSFWwcDkaoJX/S/zxwLMGqPthfC7s2oUNd9BmOO97FzeN1BrzUarOZkXk1RLqFI97hsphjZTSVm7MufkgXf2U9DemyBfNU45+ZVJqanUPN66Ln8rb29jRXHtvJVeTg+b32KiMzBsJlOTZ7qOpS4kZc8qJDpWthmxonC4T9T5MWeyu7lhoFtecGcwMl2bV0bJKcHBKe647iVa8KjlfLTyjPss90PFIqvQxjX60wyRJKs0u4WxQRjOFyXy3ZuVJ2/QQoqReVCo6vUIEqOzJ2fIpvhgcSTEj8B4KhYlcuMBQu4xGmeNZ11Syip9+HsOTYFdgyRHbWPfUi+mPdmAAV1ihYOYeDptfOjLm3vaLWD6smXZ4+rK9DvHh30oHbtO4zCKg5/L5/Y8V4WWuewaJ2Bq6mfO93YZVf6jmqdIYEzh2f9HXI8FPp+jbL/lsajIQ37THMkh5VyV8dBvLK6kX8Sap3AtE9bS2Us4KfhDQNrPUo+u1pc6CXBfjIRto7DiDdPHj1btbFZZTqziuiB9reK2sfPxZzZdl+ixFSmMIKSkSZgdLkExSdSQr9w/WBM5Y33BT+0TKgJgHS/hvEFgII3h3APpIziYXqonaiOnsUVBakffo7uVyGU9IzKAGmIA9935eSMSewgzKhV9ZzPJ2uJS1tLbqq/y2NlGwt6hGeXfjZPSGp+vtXjco/X1xeVa2CRi5fAHdX1DD6LHQOwEaUCrMXMg39mPAywW3K19dLW2fY+giWzLADMXoZ6UEkvArDs+Fb/AUVZxLLGqr1P9OPEJo+ybJg+A9zP7xt3X7i4OA8Zz74858NMyZyLBT4X7ma4SOnisxS3/Y1PvZiovOgKiu0/ded/5kX7KDdcv9609YUaV+kqZcB29pDjdT7cY6cvC4OTTCYOMoOy2yRPpYJJWdFXbK0ZNqIZhq4q0OPvAofVSMxjtz0866UjYKBXvstDcdgQd0HUown2esK8Gqp4iAKangpC5cvJz31SUL2G2cETkayjVC1rAh8BAMj6dun4Q9HSIRPajQ8qBBOyA+4P+Ef4QWZ7q0fKRRWR8PhVBEWE2iJ+1d9+tTQZkFRHLVuMTNAAcj26xqYbJcBbfnboAVfd6Fp+MEXw+sfbwlhkDkiweCrtGd1ucypqmtRQz/EwkMbgTGCTJkEWYssRcL2co+BFUFxFH0cPI2ujFPjVPwhBSuellf6WVmh8wWk74TKtbBlXhjgej3xfNe8e+oC/L7gX2N6bQgcdmhbMankY/iGpst/wYWj1ysjdEJOihaQjUihHk6d5xDAHxWuKA+PWzCbf7vDPOEtvrvPeEwKxeikSIcRpYRpZeeohE4v3+P4iXqbGH+j/x0Az05mDp7olFEAOARUBywje7oNyHklz538zJMvJ/P8nCQT2RPYreLR5PiqglDFMdvN2BOrOmdzKy6NMaEFapKaUWgL6y61VJSIOAF45h+0naXRy+M9Hxje+8F3Li3loYzn7q09tOLyPibmshEloV/mSgzpTAxdFtMYCKyDfNSTTDQnqPltbxeHYbdb/zDk29/wTZseOqm3tTM6mNvS/YlpQxT2CYlLaFv1ySGO6mTN8/HBZUF9e4JYv2PcBL4Ju7rwYFzsv7UdteIe5vY58I6KkQRbfcrEDoleN1kqkTy0pE1/7ucqf+5l22cNVr4SKsbtVULN+nczVzDfXX9ObW4IK0os7WfXwnTaz8JQIBNcl1mnSamoVUc4Hr/u9VGujn1ifSpgBWoUxvJuWlRfyUvTqlR6bChPSVaX7ZRsYxKMYQZWbhUaFqZKuBI1UL1m7LmU96SVgo2bEdWT/1t8efb4FHLb3sKchYd+U3/IAoIQqKlgnNfelW3n4TGOAllzGy1HULoxXH5sd5wyEsAjaSr1aoNvMcOVWZOircN143NA+/Qf/fCMD+3O+3MPIpVrtTN/65gruYBqjdKOzcSiGW/0FmOLitptayBvKyksv3pHzIWUAwX6LhjtYock9sNhRKiER8w9oE+UbHQ7UJOmkXcT8mJ39gToldfRc55hqBSygT6McvqbUoNdGgtUAqXVynaa2R1lUY0xohKHlG/JuOB1PiK8dEE7RcsTTjmBcklY4tRVOTs7IvQeaUdJElME4GI/6pF4ye0cc93UZ2XQY6eoLxFMAvF1NqOdzLu9/9GT8xjalxGiJ+fTEOHYjj3ICunWJPgFRwledPuFcP9GtaeU1OQdojiAqQIns6sbYjFE8+jXNjp4Eic0j/tlZvvvRHRevAjuhVb0Hvg9R0WorcppnTepf34VBnhxBmMU6K+gVmfzhPtao+2NTTxtQlsHmcTn2a5CErDbHr26Huo0PGgQUngPsDUNo9BglC3B6fdysHFfjbykW4BhQYfqjas7+jqWPlsrdaamhTmS/yG2+jiTFFRO6UPnB7QF1T1sOnQYv3BdO/1Two2mlR5W3uzKSYsfU98vMWU1ikBugwTN7mXZcKENGmXDqHoZVnBNmn1qRA5+7mi9Ga+MwyTLh8S1xQNIyhlwbKmwKUVOEMDPqfdNrJCoFpkJnFUdsNY8w2MDCqxUC8sKtRmLP9z/jB5i0mriXRhNcSew5RuYMlqjQnaoyIivN5YZaKs/TjWID+FQurAtKTd57Lihywq0vrdWEYZU3+AFsg021j27cBDImEKLIzgk0jkX0Gh6j/sx5Y6AaJ0obI2XWAuf5YzaBeTZ31rDaOi3a53l5yDkjEIojd5ct5Z1aVsISjV030KDtHal6i/Y5JRCEJvSLvJg+T5sIC79BQ+OhCpN8WhmvHEqRcIsShKZ33Mzytolx0k6EuizFmfTVGTOojWIyniCX7X8hPCfzZqK8oKoXcBhx+2Wl+SLphkY4OSNGTzDX+v3XDG7bw+rzL2kQKcjQkL+Z4YQhYV5C3sXP1lW6TvxOvqrCw7v1PNShd6hafsoxUmTJlrEp8s/eAEIGMtBWxsEpjW2JGP7Qhzc3hiQ4sdKDCMYgVAAEMwyW/fHLMPox9Ne/gOXrbaNIEAvRG252K3XXNdAdKxDvRqoOYe8FfC7OoQ+EuFk5OnFTUA7ITQYO/VJE8S02ZoVcqz0yYsp/x57eKEchNGAWUurMyTj3DjHdXjdo7iEz/1AROsuLQe4C3LQeCP7qrjKwxExSCOThML8rLCfm4Vz7AL86r46P92uMd9caEWUAhvDYkjeCTaFjKo8gkWmJVetq/KlLOvFBpDelVQnAsClz+xr97eQtM6pdAMy2YquYbWmWv7GaMsv6FDPrNd83py0wjeVI9ARkP6AHd7v4glBNWV1NlFJDK2Ld0of4ppHGH4X/BdzyBjqkFbX8mW2C6Hc23Q6+J5MOkI/c1oxJLXD54TmD3tdECdybwomOeGPO2Mvvep4SzcyzNyITubLG9WQztKP9MHVX3CRSLPPWyFN9Tx+8bboj+s4mVd5IM3/XM7kMzszHcKUC/suFjzoVwR8wSIH7LoKNYRGDATMl8m/jU2UM/GPKzK1nA6LYzOTMQFoT/p40B+i5bS6hj4X9TEkNjrI2LrVRF01B4AiYZ5bYkmv0CyKFxAqK/TF7DDYrc6P6eoZJQ/2MWBOoHwWbvUgmEqs3tG5vef/3Z7UTNWYyJ7a/57oEsmr3yiiVAb3PLSw89o0PGgQVjgPsDsiuvRt4PdM4VzFSQJwpKSabKpJ8zDRg3JJbhBlZ97Hs5qz6H3bVEcvWikVRLnUt4czSg/pm8Qw/ShJ4YlAeF81LOsKlkpMDgGsxlsonYZRROhmAxqLqJNYx4LFNH/zDuuBvXw+1XFeBLEAjo5Fuj0Eo+J9P5jO+OjYfObKPzVphszlAw5bGlOL0TeG88WfrszchuaAQRfot8vA1zCramA2Kv1L0D1o0CfR16I1ZKBSUAVSXf+w/oPD6uDdqhHRG3o6Lub4KLIyUTGFP1nfFd6q9yokOp0R2qaLOrC4+fME+2wyxUObFvCnNLembxSNxAMj8oV4B+2o7izDJTyCFYVzYFyFvt1YxtqqnRZsb5w3IdNeyKWC8oQGKEg0ZMsEr8rj6MzZ+Gt4jC+w5Dtb9qyPyM0ERuzcZdLTWLeHn4Xqte2tF5wWTyefdlsA4d51lfIT2FAVgf6zJ+TyA8Dj/2w3iq7rLHBFyU5RmaJBX7waRXVuQJUFYFqn0jXF6kVgcWP6D6XE2MtZipeNGSdObr2uHkQKl8X+Q+D8YvF/pzRaxFuSGrnkSnLyG7/orMgJ14givAiiv1ZmJDFGBWouUaj78TmNF7GBHvbzZVDanLabEMuw1/E7n3m+CKSi8WcOfbVCoViUs8tzzJ7N81sRW13sOth7VoFVCaQuCfYJrQ1RN2ZXiVYFDnEAnkACZsEdmsVrD2C8riYp4rqdhNp7zBaYy3LLrN10e69BkbHmWRBqpRGw/erJTZEFn6rrCKgbaQkcvFsuoYx/C02FBEjub5MffjHkRWRQuXFkex6yLFVkQrlo6/8WjJb21Ut6WOcYeqbFDzOaIrVb0tzv51fPvaZFmOvxuU70V9pIKpvYf9dc1i+drmyDRIa1cIqDIWVNZdMng5gvTru17OvgvvBm45xtEVLzwbgoBXzKW1F1H5FNlMuzCX1zXuIWcp6suPdoEe7qcIq8yWdGac9k0F1W9ftWizXcEcYqpos6ctwmyW7+3vOgDSch21DYCuqRZrB+Pdnym2h7p1Rn+nrXoWPZ9QnPamq9c7yyU4XG/0g1J4m5HoizBwlKZQvag5zOF6kO5ysGlaVu7NmyvD8imO7awyHozYFw7l+/9Em6VPENUndNg4qGeciCu6VN8/TqFwp65oGoBBd+88LTLwWcg4hH2g581tDkBAFQW3GoW/0bI1rKZTQFNsh1CMXdmcRKWhzSCmvVZBSY39N3B+UNWdJ1Dlmh0qIhBabKIzMzIQX8OhQxYyUZIQMqAp4lgOpz+zrbG9o0PGgQWggPsDWYmpqvY7gKdOs8KybAN1IV9LIFPotCCwXRsAlQxx2Gzkfbb8mn+TzigR/87RbS/A58iHPT6t/zC5XQ0+TJ/AFQ1/qJV57m3sVU/DMaV8VoPI66ps48h3Baqbq8NDZnPot8z5A8cV9GNMezVgW9VCTVAmiHs6kztwarozactx0JpxyIKKAt1oxfGklNKU4bnSdnGYtb0Jcok9F4SAmYDdg9+aivvIRyWYT92/jFxSqfDF9E3cUebtc468E4ZwqomkFbSWwCMGwqEPLJuz3pn+TdloFFYkgexbK7RqksyGliuqLLnN4JCAoxVa3AsNSjn4CX58hZuZRstmF6O2DqpHOegnmhBCkdUbTsKzhubLytlb/iikVG40SEb/n1eiTgzlLLPtEcn0+KB2PMMX1B1gP5n2Fithb9D1TUsslk/7LwdSP6Dqsl/Mnh73POVHpDc5WI0ciwyBkkTuZp61rL1Fw4Ka+RJoLOqLzG9sonafuEq9OLU0jZzVbu54BvQfNpqjKGZJTwVS4F0yMrWXWvsSm1hPifs3Zg7W/WAqoKxWoYKJ613kiBXOdNdczcmhQ7pblHqbhrmt5iB0hkQmK6D6Gy5otwHVDRhm6keqTj+pff5cgKO1XKX3uGweRHXv4fdqHJTLm1WI2ahgdUTCzd6VUsGUQDXcHL6zWPHw/SjERSGsVjJLsGkBwv40dh6L2k6HzPQt80mtjvxu5Ch7ewHt+A0HpAmY0TyfvLXKjErr4Ej6MUmKSKXt2nvY2A6CyWuWJhbzxOqFckMdl+33Igq0VQL7JvTIqPaexbYRGPqdlXpzEOWzOb69zl/3qJFi2JYdFs3CGGF0tvJKjCxdHBhealL9hegkVbdnjidwBqxSDQvV5YXXgt+UgBdxY36pw51VhDCLZ4wjYH69W5nyGh/wvzz5ER4igHZNwt23oW6QE59AIQgHqACcICrOAl3bKuuViDkjnZC+DvrY86I9D8+nzIGuCiRngRxoNS3XbhCjLsM1JA/reYriasUg4xwSUyjz/vPaR11GBya/xT88ohjbAzR4P0e8LuvESJ3oEYutdWrqHTQq/gwJ/UpTykbeg9CNhB8+rbG9cg1peJ/9esUWpW0pFYS1E5g6SUm8nxAbTWEtL9iqFf5gwhwfuBDWdJ7Cy1f3zt9ET89RBHH5nseqMnPfMwTYqHjv/ckd0t9cdr2Sl2aweZB7fIIqIp8pZrAvnH2QLhCck/Sok7jc11nICtZL6lu4TFvlJuEHkHe3KVoVwXa27sXrhFjRMmXAwOkUo0PGgQXbgPsDUi6Bc3Gu2rD492ecGMrMW4VNnSgpv9u0r9bUHRcw7UEo4/yGhZC+1Jkxt85k9935j1QXolVsLmZVCT/jjaNSQJG+X160GaTbJkyxMSyUXwulQx93OjOlHKJKHy3nZGwkXl1JRKn5hpHLPavZ9avnWemHqt3OdFchgRM45wrI5oqA0LJYubR4njl4nBwje58D9VkSGXN/LSm5tuX8Ml3,
JA9yPN4PJo/IeQOCM+6EvguaMhvGMOLm6BJ/aQvBjeZNn8NwNal4PLTZKK4QfIRV/2nM+wZco51jPqNdYSwGjsH81XP9dO3Vi/iiAvCFxtx5GcsdEGt1CymMH1AYPVJM0/8JfXa5vqmgRW1yv+Vtc4THYujvge4sU6V3ZhLAtSLW/SXh/mt3N4uklqgo2gOUJ4afHfQAZ0GEcTKoqPaoC5XdNyVHQEoKa77d6airBvZkz7E/d/eTdYDhfch0oJWPs6RQKQdjwalpGkNXQf3+2xjOupQAa7gU9ABK1IDkiebhgL7FXlwAnyDaOXnfHVKD+21Uf/WR06IKpToev501umZsGog/r/ZvTPDo+b6LwYbyPXGInnidhYAeEEoJ5MztVEV/g9T0WvPuCrAvNBOp/iQXfg2zYTeOJ4SksKXrYgqYguPzFM5tC3Ywmtr0leg7YsvOQKhkxNEzTj9mBLv8B9GEUGJhL15ybWEhGqGvZ1Hhn2OYYJ+SQjAyuFLuq2T7yUSOh7rBbBUKOwNUetl8Cas2dsHeHAJd3TCQElhNAvTxUu7MGTKH1WMabwMhoj+4eyxQgUUwgdiHTitlkS125j+O6P15NqJN4oXihTlNYSESkLLCjisYd3fpMIhl649ZGFqijmQqyTPXKhhFz2Ct/DN79RtgkdY6JlOpHWHVCfhvrQpQMSKynREkr6ttjqAPo51gy0IpqnMaYQb2vOpI53jvZPljYSrj1YTv9R7h4rvdvEU9l/CsBlH1XBml5N8884iVncsBsgoYaiLn9tBxXTsOdci1Gfc/Z9boHPT5Xym6PTehbXY71Q2rYbrUVHD10izsP43FW4CeaaeQrVjm4S3O2Jpn0vX2eF+WcTzJxmQVpF1tff2HqzLraGpciNuX+XLaFogFAwgxofqfL1+KwevbhHNQUqldZr/Bcm+dyHWIgt1ta7sUqSCjF3mSMM1LR5BUQ16cDCo3wIpT1zhMrf/+Q1/X4OzHDQ3YjPADw/YIiBKXqGRIr9np0rJyiEi8Ry5RHIgbl1hGNr9dpALJ8zrcKRn0vQco7HpU3SvKf2Sqo0QGgQYYgPuD/BH8EWB1asQFJj3T+i88YDCNvQ07FtqcUur/gRPDPGZXAt7h5HItI7TEbwhGJqE7O3mFSdxxJlacvV0BIAab6nXOHlWZbPjRQo5g8kK9jaUMC4OSXCF7PpBzEpwx6PT3SjiofTDQOT8I60RaOe6QtJBJP5+MsA35h+H4d59pDYG5/fRIEE2/FSkzXz9VaguUshdqpG85mpe+AX/znvCgeCJbfjcOnHfS2ihJASQ7ZJ40bKDpdC5g7FrD9MIEvvmZe1eTHfQBazL+/Uihf7OV//iF/0lWb46rSoMNeiQbYHjVrVepFFHuIuRLN9Mk+Z+C8CtyYS7IUTdSx4xjQbtRjbpwrJDIteDFMIMP5Jz8SMWvW3VUBVYDfUj1SvLT0OY+JzAHnxaI8whGPJCmmlDAGYYz3VPzwma/0mg7kjygh1mb+jJc2DQwzCnAMzRA1rBj+7IOERXmrbxffOinicpJfSSafQQ/w/IQsUiSd77DzVbyHXHlAK09rxXmCzBseeemSMu3DLhZ/dXbiYoV8CJdiqCM6R01cMyjRU2N4oXiozGjFD+e94F0oTiTOV9rUq2HenGyBJzlCRqj6EGcrHw7QTfsBxWxrsQgr4r3grMOhrGLs2NoJpZdfvwiP2V/cg6h3YNgIZrDOaqzB0l1GNRNV8w9uy9pLnKDYJhOMgdDfniLFcvxBgnpSQZfHlNllUBxkQQMKlLFepbzhgIIj2oJunXhHN6e20i7c7nKGRypO1GD/c1JHs+1c43YnW9vH8mpWj5jfnKndwok4XRQU/J7meJpuT0dJRs+LEWtuMnEHJXNRtCAhs1FcO21iyQkjbJ8mca8blnXmTpMdDyOpMwiEMztoQJ4ff+DK+UdjlPJhNj7+D02bouJTv5F+g4qpY0ExTcFUnt1u0aMenhYxn/rabJtANez/h4knYmoKNDFKymgcd0fsU0da4h3suJ3dDWNMS/f7nYL25P7GRgMF/7NywG/zy7QtXM1xmoTTgaPjbgMcUTl5akcOYqrdVfNc0/GKZfkpsx5mHCSgqbmCHSWi2EOmq1TjXSL5/mbOoEd25b7UW7bZBh/BJ4kWDIkBSZqOneYwqRoZx5FuFErgV0yQpeMvT/fmrE3kGJXcFBwH7FwmeCfLPdjIsr40BWhdR5ireIhC1dmKweHJ2dcaPI7aj7MkFjsZeBCs5ZfHo+HWx6+TAGXJ8rTDPIzgmJYpWVLUttLM/U5Mm6nFqirvjXGNWu+6UgE5mo7FSLL+n4dNWBRxjjmyzL4PTk2YMTSPOZaaN2cb7afEF7ly7JxIEGVXLYldHRQvSA38bsuGow8g9rPqH/Eudq1YX21VraQx3v39+XZHto5jutMegrKMeS6SqNET4EGVID7g/8x/xF4rTrhbelTho+p92fNe++mDoeG1/1itSbWzrgEusq7bJvxVd85u9LETmB4QM3eVtrFpQ/qejpYjmQgCfpeKmWhnN1RbIBva8dyz/vyptxu+BM/C3vHy+nylkSB5GYNlLNb/3tNNq8fpXVNhwabC5SeaWN/NnBwhGEs6PzEKP6QEL8/7T8pLbmtEaj19wYM1dUnuFuz8Vp1Xe9KPmVwg0OiopTlGX/itUc0OE89G7F4hWlO1LCVBy873UpYxlI0KxzPtgHW7q1lOP19ptx1jx9NUESM60Co8Od23gsCaVWRGgCqUohbxzktE+pOdYYIl5UYCM/WIx1RZvRkx7G/4AgNnywbVhu33p4keNi0hcb/spYG7qa3IsXLYYh2psdLsTigtycNlJenw5j4BOsqptIY/5oCq7L+vLX9XJ5hEhDEkJyCNgEn9l0zc/AQJveBQ8scSlfy63W2qoL2tnxYP6AYShszcWSxQNuhmswwGrcsB/2AHrc/KXkFR2g6dSXLp6+p3BCNTJrZPA5KIh2XfOnYn00ucM0lZtITnungvEznoO+QCcVYDXqPjXqkEciR3t5GXR4MGZqH46VCNqRWgr4MguHsYF0zFQ9q0gl8wfz8OtqRPa1t+sX73o8N5ivAtJ6WF6HF99QxKYptEj6iqjZFDEtw+tn83momEJXBr4ou15B0jkX78wvb2PIuT2NDZmnBeLEVIg9yU7Kq9UbiT87cNifr6jb5IsiGa2sKP1578K2oej9OcROfEPMpdxEIJD/y0M9jS9wfsWXa7TjIWE3RIaVY7OkKc0SVle0Btw3R8uuhnkQjpEkC7bCbUm15IN5U8mM32a/jOKbtMxQH5e/ZJrZ3Yq66RWOpWu9rkDCIUNHAGo7QeLxM3lU3TVqd2SNbVZqKZTQgrXPRuPu1zGXjvvnZ7pYkktXBaW/9+lcNqYAg26Ci/wNhtdonvsIK+RdikvBQygm8l0SgEUYrnz2mGixogWBzk3ws7hrmIJSutdm3ICL0ell1IXnmvtUVjUqXiOGcNtdQref2z7xRvW4IaSI/a+S3Y61rPR9ARAcANy22CfEC97CakrCaN1En2mEuNfmeWNKdmRjD97k9fEbTc2so8v1j7r/9/580zL/gTbfYwjMXEUWVo7lQWSTPWrKWVMiUl6uN+gB1qadZhq9KqDRIz5Nyz6rj+3aAXkUTQ6Xz8N8SCSuUWLYNYKlVbaK4v30uyy4EZrgUG6o2aR1bo3s4Ku90iSRQi1p6BfYPq3aOigRlqkDceIzDJPTKBlujFdi+Wcc1VUDmzb2WxjShmf0fY5tGY71KJsslqE8ha6wzSuNX3u2SEvg+fPFdqeS0+ky8VWAzC4RmV3/CIBaT72fxtfLnCdFAkxlV7uzb4K9hq3ickfLVrXZsX2OfIJyJzYixJZ8TfVYjnhqrJwnNa59f+sTwPYX4oUQ+4Eq8pzB/4QqRo0RJgQaQgPuD/BD/MVtLQbq04mqltY+eas8f52eA+buTEd/kGNMuDWJn5DM2jsSxftELXQlYJziU6mLV00NxJZs2dwru4XhqoB47HHQuV2jpxAELDbpURtPs2MY+WVVEap1XFg6mlCrzlMzeY/3oM0fb3Cz3IZ7oMrlb4FMkJDt9on+MnB/Ujw6gJyyVREi7w9H6B56FLP0rykFcR4D5OkCQ0EdAXAYjpFYOVLi922ioEyDoGcseNC7a0QVqV3mEjbGkPgE+9IvqllPx1Ko3b20+k36/khzHQwVRrXoG4FOk5gUOC0hOGcK37Di3ivQImRdROw1iKNSxzDPjHcgwdzl/+9AQL0nW+EoIJ2SLW7+NP9CdVx0XLlC7UeuZJpiWjNnxEGGo+wF+1PqlKayuU0VZTFIFnzT4Bve8a+G68hngXss77UDBT/l5dRFcqohw2gonZkCZ3FygzUGu68ywnRM8inqvFjNugsaNHcOJGoYR5PIc0992ulasAuzZo8bzFy1PreFMGyHCRuWFlOL1y2iKULCztlFntRtOAp06XiMy44Y9L6+R75FpkP21rUwxu/qsrF4+rp+1s2ca0999ZDLpsd3LPbErPGQwPHU8eKX3vCtesi/KyTYynkNvOTFoP91L1YNWtqfh4bR/Erf1bZp5zzd6vjNKahLUOo+TxOj05+wVNQqm0q6V0vX9fWvj5NTFBuk93jrEaVJ9DO0bqa01d8b/a6qZpPTRCWGuHnW2KCR1IaNwQ3TUpgKcc5FzVCxldjeps14gYrz/dO6ZIbHhJE4bVhaaBU/xPLCa9aBYPsfpq99SMQfUSB18LDM25avcpXMUGVv0j5GQWbJk9IdMmF9e9QmaBUwAc6zsEDYOrpHbX/H0DVT26YjWez/wAZXjwXERKatAC9JQW8fdZnNepnWJIzSeGJuaIJmLMq3W+11d3YR6TSXlykvXQBP1eDCvAC6J+o3MZJXJkEE7y3jH8Xa4QjwwLl8NtTfD1m3jlFJk45caGonykmDOV6sbetRemWiO0c2rIUUbWc1LnGT0Dr+DmIpQc/m5QcBFlp7VSbcpwSemzsYYlFxh/ga2SLEqi3MvbPe3XG6ul1s+iklrlw9FacyhnaFfe5fL2KF09HL4wkpIWXtZ77S/QHbyLwPXSL7Wj+GOiXe1IrIgtA6dTR9Ir1p5kFRT9TCbtiSSmgeWtnYbRV1KCAX0/brzRLLjwJ/OT/ibK02Df7F4E8OosTjOGgEibY5/8jmcRC1uX3fNswLNjg+UmumPISse5n0nv+JVgcJ6l+vmxBXerZKExYcDsxzPEMxdm5YyESUBZl/v4ZjYl2abJu1sg9oyNXkow38KQ6jo5F7qmvV1Zur3DZu4D/Uk4QhUA8q9277M+cpakoJghG6sKoRKyiezn57fs/jNyY14DNH1tkHUnm5PcJod6pomxzwwQANmtnW51YhfgYJRsP046FKjQ8CBBsyA+4P8EfwRXth6ycPmFjsIKa8ANBbKwZwaz5qx5DQa7zF5Lpt0YnT+9rn/husQY25gEL9AaH+CCfAymDhBc0t6jIuTMkeyg36oKVL166DDY81pzUQam34N2JVrZt2KU14vOHD8NQ4HTyc2x4DPo78AT9HwnH/J6yN1hf/RTviK1qtgFTPXnXDojlDDaLYA62G5tBWjVxIU9S91p5BcxPaLJDca9j5SKa5mKS/++7hDxmaMKDi1kzrwUD9CVOVuMslcIDOMeaphRPiP3OUBJRjBuFpgkQ3fT8Q16Pp7bARVSwc2SgKhLjL8uIoQ4f5+tAR/rhy73sXgCsiI8X02JLW6tUlLBk0o26RV/6VU0p4cpo6L4Haa0Xj/1YFkkfB7aj7gJaBcgH0LtXUDEhV7vHUvSFt6KnPh36lYL4Yica5iAPhPwFLwzEF2hplxSZUkShTOM6R8NidAP2gsxtn1VcEb3Y8cWl3K/muLPzfOCJOrr5A73W7gqHcYI5iubU9gp+g18z1PE2gZ2juIC8mAJhq9a8xWxqufJ+8vCYikZdvd6OQ2Wxhf0N8Itkh5vI+OS88kRWWen8Fr+EdEX8C8k4UKI+e+UZHfTNGla/NJLBzOstfv/9qqs+iyq2nh2DG+ThKv7qDHZuCkRgTS1wHXhs+iYDKeWW8AhMb26j+jLXn8Jsy4nrdbsEh+b+yDkYHC9bu78Zk+8sKMBsva5+wZikQvaYBnxTQ9Bd/oesmkSjmzKyFnNgunfhebp2rAqUGD0g/xH0EqH0xzccRUpFDFz1IKN4JPEU1YWiFbMemsu9m75pN5eeNAdtZguTUOO0glkcZGgHMEkZLUbQODovVHS3+1aEMjZASoGU/EhvBEKwlbuBof77YfsVokaLYIiQeErE/AMOkAIVN1Y5udwCvhb1uA5ckwm4XptuC+AvGLb5/k5thl1y0UYWMuDteHCqTIPpPmRd0TGVq8clF7ehxoDMhVmn8kSw9be2/3HKZjODo04+8fqz4MqXjeO3VcrAC7UvbbXHKP5HwdAUA6G1Ms0O+6IhvBkMkYxMB63AIGonnmmk7l/jvugeT+HfV54ij9sIwBGy7isyL+pXCZsMV4GsLIiUbpop5KdKBbGxmKGALIZxzswAEaLDS0Nvh/INrU7CoxPVPeFh0YGncquhhZ9yMMeWzT9B0BMc5wIxZh9jOWx1CSN4BiWWF9KztcJY5ilDO7QBY9XcZJGN2g1waLDiR3q+mZjfxwSWmFuPJR1fZ9WH9Kd2z8CiH/DG7qX3WjQ6qBBwiA+4P8Dv8NWwYjImo2+9IEyyFNBgcWLZFOPSd3WU/zAwpxzevE4izsubMfnPsH1xe8e5605AiL0OimlygWjyi04xp30hm7VLa6b+dtH7vk4RUGlHsN8b3F15H2a6bApAaZVkl8ZBBRkeES4Tih+7fz/8t8adw5774oBej/iQnfA5n+kpel0XUpCen1HKORh7be9ckC9EUso0jPqQZfVrbXKKc9BAeoFnvg+/LqIKJi8EQ2EhxX6WVODc3ny8p3BPQY2WXIKvseLXOwlpKxVFENCNQ62WB/06KM/EPlcI3d4EBJPq8Xtl49gj2ARw3+G89GXK8i7LOkjnsz26PD+iSncpLGKw+U2IyfsruYsboPAymtiSrt7irZDDDeWdM6ERNfC8EYbBSOqqYTzz5dR9qX14kCsnwF+NACtV9SYRyUhCc6S/TYOjqKB8Aiqc5pw/e4Jj3Bw+byxfRqslyyciHjZokjFPwEiigydbaAvFHEC/nIbrcDv1B6R0DkGPsYVRPFm6MZMD59nfdv7Ie3PjEj8DWq0wlmvvzz5DtwBJWV7Y6Eg9IDPLJqK0Q/qpo8VsSa+nWAnCAFJekoCa8I8l1Se8I83UPgS9FVntj/8yapZiDDAGlhpT7f3Tnd324C6VSdplTI23nSi2KCu/+NMT/uoSF/oxje2e/YOd6L8yhY0ziGaeDvpfB3F8xI2dZ+3EXFjNx9lqrNeIcQ2uW5YNcHEuo+8ISA3DtrbujDMAu+pWXhXAjjyRBX6+hvdtXdRp7caDrdT2UxDWGCqQoTYIuHxGVDoo0gmU28s7djGfLgfMMZ4t0dTjsuhY0Cja7KXjtRVg6cZhX+pqxFXI7QFdP3J3mar2aD65dRgsBlypr6hk9SVa5MDlLu03MSnTMnkD+UAc2o9vgOVM88noRVZGEYJj3mr96nE7AT/0zyVZHiOLX3K5s+nTXGm/SuA1m6AGCdRFMixGBXjk0/VoxQUHdQ4AInyNfIghPJYhHpDDEIZTBucYjiaRNzttaXdhQqRWgRihktfzWFzBVhYyL11undnHO5D+FeamVSkEuWqL0DhzPFWy+idwMUojrWtKpoE5OPR+16Fwsx+5POxdraQ5V2+9htj9QoWH6IiXuCthUlF7pp0c4KtrUMplQmpeuoOw0zqjLgryVol2ZoONgtfslHa0+0lfFsDFH8kJmWGVj6hfdXIxhzap9vEdsTjPaTUE1dvBvbj9qSST/ij26eWRoHqArxo6N5baNDrYEHRID7g/8P/g5S7TJAfy/rgTlwhX6CDUh2GdRDT7ANcoF6YOaar6AaeFbO6stwC+C3o/NKVGv0tI05uYS10PtLiw0g8PBW1UZ21ZKeN67rXKFOIMtZ64EgJYCbz3n80p8rDn6GCDt54c6P6eRg7ygS5fHEVqpNqYFAh7+TsC4uu6hqvizoOrQDeHktKks/9KinVvInDicVkdVCDNeGxzjeLLjDxgNEU6ipHA5ukrDrtmTZfDxNf05DZkiRd+0QM0VDZe/lwvCjGMehq91Y2ye3cfwRW2V2CeZtj81QTyjzuRloG9Vef+7I5qOKsIi3HSineZQY28L11c9cbMkBTi5sco8zcq5lQXeExV2nBc60CQ+T/1wNzxBRISc9nmjFhTVnET4VjvHNHmhO7PX15qeNW3yiJi/GYI8FDGUxUnYJtlOU1/RRK6AVzRS/xOAAOWsu6uT5IAxfR92CMwOuRhGPVJnoHQob/heFAfNcTAOf0/NbhEGOuXeUiUIJPg8VcHMPk/AtCBpUk1+/t1kCOe5NUXAAl8w2tJQntWpsgF/sO9SKBbQM8KVfrsb9PO4ZfyQFYlYqv/I4W93Df6+Geg3b3wOjhnpRbmj2HqjypyClKrBZLvGUNRkADLuWXzyFLVoHcQTai2ghCESIpYWXmUrNIxXEl5wHuevuBrvIAUM7u5nGhpFBRUffxjro5rYtDH63FGk4U1TLZvNIRi+/zLoRi8AdJuSCtxaiZOYTIqf65m+2KXZPor/s4V70nlq2RhA5ZR24G1yKh72JuA924zsZvrGWX3H9ss7PjUBzfpWVXyHQePJa5aN1NQSpEmz7Y/c6H43sVmT08xVqP2TYKPP6Q6hUrLKXhGYGjWVATBIJKi3L/yMFaKJkCCaui2G4/eQnnQ9FEuGphfEoM4h/EAFGPCOXV9QQEXaQ7Pj+iDXsm2T1/xGQbPzVaTxMK1ymxYOXOrFg8G8FK0QT+AyVqTcFEXkTKRo/c59xLDhRF0dRzyu03aeHFcQUJdgB3IZV6aTLxgtPOx+nK1DAyJVyHAzTWFcEmXILt8vFeayvM/1KblsT1cizGRz7jYY4KJ7BjHmko1BDdwLb8o9o5M7/mAHd8iShNzI7fmu90tKCpPbJlhwrHuE8pPhrnWYSCfie5j5ZVVqEWV8uYH1zW1hBdRXJPPBzUPeHiSyWA0uuqyNxmbj47B49EqGamJ554GwM5Bo1rABk9Rd5CRpiBSjkdywZVw96FR11ose7Cm1To0O2gQd/gPuD/g7/DlLeAgsg1jEddApvHnYTODSgQdfp12FBI61rPbl9cKK6THA1URaNh4oFo8YL6DO0qtDT2VasGeQ85QkNDZIsloo7fvrpubS/KL7CwWMMmzYiqpBMBwXcdY4PmDrhvV1BZvDFT3P2gvRfJZ8+bHNJ9b9yfV5tlEVIoq9EfcVJOKC1sPNilfYgxEA4bYEdMeIqnPavzNe7k18G/Ij8zHyD0Gs0KzWrqUz07X1KOvaurTW0ANjlpSaj8v7H5vb7wA77+beY72XmWcflyVXkoqt8NLBkbT7UvVyWLt3xHUBmT8+z9J9gi5i5tCetaauSC8hUyA6ekqF8ZXqnXYj+gjRfXuq5X9ar4IL+F8ZDHHs7UOm+UiwNL7E1JQ8jLsur3VwlPooEtnDo4lXU4+5TlhQXH3d9/cdpn249IwJqlXzudarmsGcrVc8NSA7XwAFlDsYafWOQZLhJ9xpW79sW7UI6o/mECGTNdPKFK184JgoBcK/Pmg+uPaynR9JL2XG8apV92iaxpABue3dCLALTaj9pK84zzB14UOmdyxF5SEmCIydyXKutvZ0dYryKzxtFvTLJ4qOd83Sth+LuG0veiX7BsYTY9+YBpISGmzA9VLUYwB0r2BKMZgFHeRceTU3RQk7kkPsKBEOeDmgSL4NO9oCN0B1NQKhrp0w/Ht+dmlbvVBqQB/+9FMLyOCnnqsu4oIaTaLtJaAef+JUOLv6grE8U8lN4HlQ484h2xL++RAVz/eEsRCrAQyhW4NtMCQS4h15XzGu5uizvbuU6r+2u0yx6Vu+ZT1PtJwJ82U0nMhtOLVmhUM/i9uZpag9cNL4fRl65D2sd8s611WsyrHvAf4qy4UHLDwRBftu7Ev/rbP4XH0ujltQgli+D7o8C0EkNG9/uE4erNQ3CvqyAsa/f7xiGYVOlegTtFB85vq7RA2201vSt3JJxy0hedXdem7wnr3vzKH779lm7W4OsIp57WoXjvOmKM7mVzZmiPEIyscTx4A1pnQ2FMPMG7i2CupX1tDAjWEjMxU0dE95+2moeT7FQV6siWrYe0RfBK7YCM11VR1mQQYyeYyh+XXypCcNpDYwpe0aj3TW/JqEpwOKPsamfoxxHQR3zMiQ2M5r5Q0TiB1YskV2/w/x6QyZSTX/WurD/IWGO6rxRhZsqFgNyeZb3UqFPwpsIkmuPdtv1TlruXpO4lOlpaUkETrTAgzMikNBAYH8bzA9Gi5zsX43swWV6StX35qF62ZGhFDzCDe2jQ7+BB7yA+4P/EPwQXrkPAFASxsG/ZOd7xHPyMKjmdYOZmpg3HrRBOe3ANr6kkVV0nr+QBGODDfnh18ECQ43AgeDLWP5UIDdshcMCDjiflPzsXi6/zhjv7LaZzT320vKJc+Nl9nCSC+Kk++hp2CrL94Bxq1ytfZ973Ha0WsMEgAj/Z0IkveOw5xysRaq0I3Jm7atkxkmI31kbM2E0Fs8JThMC58K7aKKBrO7ezVdBL9lty2pPoIJTUis2VDkyB/7ZBVpZ51HhiUnGBDqHTqwwjIxc2GZ8AC8lDBObIk4Z8KWX6DvbSp8D9h96EJ1rah9tVDQCNLsyr4o9C3AdKk03UGkE/3IpX9QU9yk6NszUp8lS/tIYRuS9PBHcv6BzskuBeq+qQkiBKdUcahd09W5/VlCw2yvO/oQvbnrGphZQRaxMK4qdAiyebkiQO1Dox3w1vf/j1hmztPp6FHs2JXAYw2hwPuCpYTs5ryh0G0jvVAH4PNsR9htyBNGxlLMfLW4DUPEa8t8CKxAxNJLxB4vDeTFKIRdJwEaGTcmSFFqAG+0HsvSFprNi3Xakf0wwJvnrZFTi7N2IZGOVO1uogX/LftWm3+uaR5SSDXxYaGmNuQl/0Qp8LvK4YQoTY9UT5BHFJc1nvBLprNxgWTJ1huVlfaoMoePwhQo7J0vWrko4jLXpiihuL1lN7VYKoy4qBZVF7hbA54Q/LFI7NWggY0X6Ni/1GKXEKT+tIfkyLNFAbPiQBd9cD43nRdq0wG04sSaoykI+ax2jTL3yDlHr0kJwmusX8J9IqYfoEooOsdoA2Z+VS9td/BX/g/+PV2O0Jbs6u7LeD4Rw76xc2KOg7hSb+5XF6lt5CFBayjq2Schgh2+IcgdfXM0OAIylhTWgXxJcpvoQtZ8Xw8ueW8k199UYUfbHboEg27+Ke1n6JyBP2Wwtzu3DQ6PyiO7XCaeXPdiKHoMc0kwLJuh+ua69U+I85DwPzWSnoaqn/xC47PYgCUoqBmKCL0k72xSMNo0ZWMiY/M7RVeCtKrNU6x124xUNNP3pS9rqNtYnqJ9QITT+1pydkcP97F255RhS3PlfGJnlxV+B+LPYLMmEhAjh1Slu/qBoU9sQPSB9FAwIR1KwfXjoo9I5Zsn3F9s6dQ8kay+p0Z4PlkpLxgQwhk1aC9ObiqDSpGRJvn9qWCEI+EIs3/J8fgfs16Ka4YgQycf4q+yYWtpSxybA5EuaxHN3Pk2DXniyCx4jHV9CAB6BITXaxTHdKQzS2yn7WgSxKJGe/TBdxaND6IEH+ID7g/wQ/Bxbb+u00NxiTY8H9LGrlBSTeRd4D+HWtQCNfxwVs4IkYsjYpKvU6GXwC5/GIEUA555IuP13oEKd+qgwkUp1plSSHffNayeR/m9TfsV8ON4eqadcec+1PLhna1QITfeO8oAYOyGcMSmHSHjcnfgJtALzHKgpyqG6FuLtjZzld2B5ia37DOiFhYJnHc4ueJ9oX+xkGRQB5eRXl1UBbp4jOTeeKgJSmswahYLpH2tUjjsH511zX3U9Y6z1zODENFNKCQLQBASuhbgGdLeGJsU+/ly/fu4vd57eI/ywisefoMl5jVj463pqBcbtdqE7wqNqEw1qeZF567eCcJyl3lPugAgZ/gJV/KkI+KyFCF0ZhYbEY6eKyZMnHShAU/TfAwHWOx9w79pa7z66b9zN8E/kKtMURbQRlcStuMNETdDzUOwFsIO9427nsgbva2yGzk4pvn3KjGAt7r3z3jd8Tzwxkk4nup/Xb5a6FMZiWj/Tl7UMxtJwBX5O2wssKj9u+I/WHFQTbMURF/vgky4o3tkFj3tCpFqhJ5ElSuD5QrwtpnM7rCTDPCVgIJY4XibNnxOJxs13uaorH6/kf0p53xof9ffC0RiX+0vFGeS2T5pFeoHm9b6Qc+YkZSEMkdE3p/AH4hT3/9L/8eGKrrf/4TdZq+2V6sriZ6iyuAFXGu7KAh029fp32txlZ8r8oMfubqYkDO56rHvxlXd9nhDvS5RMdo6dwUH0E8Ugu1NFCmBMKfLtn2ygZhZD0jxbbWdgkwLROZfWOi0qMRZ/dHfzFY8BXAkCdZF40eueMBOePiPIF5cdrR5UnTN5sJurk28zr57VroTagWAFVRzh6ikJUeqcYafD9AHAT5rU6e+b0olYlYnDhDL7iNQiEgEaH8zLqLnQP7FLGGyte/1LCVJkYI7vsVLN4wsmE0lVpEDsQQgUSsPeEnqMGD2aK8d/26Mz4iYwn/NZqzka6pTHEUEkLHfBQMDtfKI007pPdftC4Sf9outTUZLqMQuhk+u8joVNQp5Dg2q7aBUJZY9woit+9NlPhVYhzRFrpQS+1ist4LVxNcrqksF0WJX05+aScFl8zMLehDqEU/i3tv4lXFTpnOnTk8JFWRP1TGDq5JzTfx7Xi6pMh85YC5sPE77tKZNuTVDwJjI32Uxa8NsmGcDYxJ6FjLJBrSKWR+FsTy8ARyZWfQS+A4koQ3svN/DktqRZ8FN3p8uP88LrbGAqXfVFZUFMJiLam3hLJQ/DgjcPzCGNpEwzxjAIO4N0hTKJ0fd+FYCVsRnBHM8My4W0gDC3sX1261Liik1ARc+pD/QdWu8ywWqjQ7eBCDOA+4P8D/wPmvs4VGHJIZQnZZH0s3l/SpCMB9CVehMplC5+DD9E3ClXRqJoHLG2+5KG/NepDuEc544F4wM8kpgTTOG92tBmVFt543+CjONO6/p15K9/aR1a/9SaeCc4m5jVppE7odMnTukeW5QDn9ilrXkVBbiVWIHCTWaYb8acWv49p0O87osa8PN/OtFfimYATuld2e3qfCLT8ypbj0vBFllQUioSkLr3siy6dpkbboX/SGL7dGzVjkcaFCOYyNQIyHyEJ60hAv7iWIDBhFcX+YA22ntRXjZagh1N7O94rgKO9sA4tanOZ2zF2GTKrybbOewdwLAcfdIwJBTetA/sYDPE5p98Mf+WnlNzSg/8imj1IoZ4aRmU7fqA4CgQ2wa3civAKOcgW8x5tqdBEOvbrSJfxzRGhftrRgZ436h9nOr/eIG6w4s7rCLRkhQLzNMkCqh8S5koD8WMqwNvwQIokl17VWezdu6Xe+eUBq0t3WWCWXWq7/7AFM42qe3XqjAE+KgE9639pzeogT+ZsPOWk44xjZXt8XxdgWqYTVCIfBxCX8p5JBzRi3qNJ96bs0HW6OxMohMloOP1VxtkxWzuhm3MC/2DTmhM1HU+AJR9ZDqr649csOxKGp5vmfZnr7dNPodyC+4NNHsU459IuqKDUkt4+cphuJUWOHRp39MNmyBDM26AeILiSrDBV3Mly0qQqQkmVNZGgSk1J8uGy9HZ3v88uxjZHfNx9BHS0td79Txy1u2YV1hJq46pUmbZDcbnVHx+VaQohDvTlIsbriO95yYwpEIyRAc6agJijUWspV2uC3I7FVzESdRxr8/Xyiip++Zls9x9YHn8V7EldJJD5Onit3j0mT2r+kGqxsnh1VqVrJqufwG6Lr1+45oJpC+0wQLSideEDqbArf2AAdGQynTn3Gsx/nIL4hDU40D5mfD55ngtOKgk6uITFj6OU7Cbc1t6Ucj23yv9u4mH9pGyO8t07Fn+1P5vmA3YHq4SepOEbOPLAwjC51Wfwrc9MFSZmJQNk1/FULBYwkXTmIQwxANwv+4qIU365/NvylDi723qYbiORJCZLmMEqU08QxMWXPPFfZ9EGcoyJHGiBQ3RP/GuKVlNSvlHQoF321077m8LmV0LwviwId5gOMOD75q5QlR1M8c8FlkiRv3DnYFh+FDhDfIJN7Arc0FYOrntKnPnf4CvLx/KLt4EVavdv65W4yFmmIPWkHZGN4HYdOPfJhfamy9TyINMDA1ZTJATxI906C+jQ8qBCG+A+4P9E/4PWhlNsqoWU/jDKg56w0kcn/LP3N/iBMcPfCi67faZvk5p7/KxR8fLRVzdQ+boNh+i4J4+wN6BceFTCw3uOoes8kHI1MsMUGAokpIY5e+wKRP1xJhsHMqB9/s2wLgBoAhk3LehZINprNPw6jeqU8aYzN8mDWeUvODcufzk2Hq4aXCPKLpaRWuQlIdGqDB5pJXTt5DkZ5Hd0ueDBz8rjAjEdbna8g/PFNCSPzizKeEEbD+YHypESUdrrfOs2G1bIUfHCbeOeJ0HnNRmnQ5ZCj1ulrIznT/1lZNzwz3JtflNZqvyW/D6sNNL1gOlpH7Y39DvHxPdxGPlDtVL5zxRMnuRJzHills452XUHRKGis7X87J+77SaLnj0Na/e1+ZPQ8aISF2E1YeJN9Cqt1tXjbbB4Lbl4WytXL0HJOhP6ejB+zRvizk6XGcEc8deshgn7hTeV338X6Y/+CZp15ENbU9K+S8RYzbTQg6tiWSv7Ae+61IPU8RtsfSrdi7UBJfxD3QFen50eVVxkhIpjxhfUD9Y+8RdBsqoDd8eckkOmAEZNrzcxZmsnNcQVspDfkygYRYzjEgjGtCg0xnVed5+Ej1tFtwPjfycBTS3aaI/yk/3WYA4drvGcXE8oRCgBoLI9+lEEISdHOi9Swj0ifU4wfhCWvFsdAMJZ+ok/L4LjN86dSGDtS7wYj1p7tJMJr6FtMbnJvuGwWnSzYNlEEgR8h+/KualplqWnUsVmgeP9mVJqVL0waDRG9Ye6bp27YpZBRmD4j7MdDeL5eL9hA16bhU6agSlRWYJ6av9MlUT/0iLVXs4rdhOCywPERgyz+ADGAwGNNQ8wuI3OgMEwj8qPl+NJzrVYpzWSB9EbheNx4Guuw+n0NIEH9QwORAv0u7tpSbDLwKzdJcZvS/w9E2nc/XpNIzPlwubDF/jeuSkTAW4Q2zFaYppV8+/d16H7iQitTMQKQyqp5deWOZ4rJnObLhZhdBLVf9OS2G2anvDM0NWcCx6M7bAOLJi0vb7W8MKryA7OFBrOunZnIjFu3YuhdJ0dVIiHVgfUpw6nqOMb3d1cQQ3TlOnuVrU2CmCAGXAHZkA/pojDIbYGjAOoUsV3+af2I/pe7JRpie/XeIVrK5CIBBB6ghxin35JaSZhrXaSE6xM4QkkRs1goDMgnoPDjKIK2nAgmtaD1W/ISrHrNHZXHCN1Vr73RzhA7pPzUr+ttN/fMNd26e94fq51upwy7q/ApUBBy9Zia6b9NVjje6GmWC5u179vvb0O+tr3ffsuBo9o0O/gQirgPuD/RD9EJzT0jHron7FaZS8+RmOJB+/JEua7Qw+z7ynt5eNLPnTeQU0uy3JC7Iu0YMWimyepn7pyj1qr4VL6nom3qxfXmeYVyWrE9mPMtX+Lr62BOkVJAdbwjrW7l+Uz+ZRKixCY85r/mpLTK966PLMjUveGNz6bJWaVoxPLj5FmynjX33CPAiO5QIPEB3wEzVMBoAatWeGmcehg2CKJ2i8FCon45CMZoIhkxXomRh0T6bFNQoN/ES7z6lvc3cTT3NVynLzSXtaYvzah6FFG6IT8IebjC/H0REs11l3gztvGnGBkBVK3wZYgcg3mEXVtSMbvFdaTTrQVMR4/lqjX7FxFik5Wxee0Rrru8GAU75uvNcZTMIK23Y6A2v24J+OlKzfoqs7YaxM5varCU101OB8CSjZFDdNqHRjSt7sBfhRgWN9WpF1yXjnRbU+EuF0ji0i5bDho9Kz2HQLyKG6Zw+MIuUyiY0NfNlowQVUE1QhXekJ4QWC7YjfKbNjtDunsSECqBtxCnmAYUOBynrjpSahLxEzLbTq4u9RNEGlpK85FbwfghP6vCV43bA0Zp5BeQFvnhcFN+djg3UzysFePNsbVbw3oc9ZR7QLCbByQnd0HXQ7cAfyudfTP555lyPOl+Mq86KFylqwX09bif0heTx7PNc/bRqKH2iEdL+gdoSky2P/oqOW2N+vqDlKkTgNCEoDk96b9av98hUblf9IcdVfjiQRE6+3IFdizXMPC1kherI5mkGCNDJSS03spoK4N7mzQLOGFLlHA7WqbqyHXeo1hC7/2K031/e1pts5gt8NceqZd1B0tSaK8WdcyvUC3KDdVXZX9awwMETpPVo0TkOykAYzoW+zD7Auvnuu/1lB8LGqZXmbjtKlRmOw6uCMF5P55MuTyCh7vmeIFRCZnJ7oQWBmFmz0v/W8ReKiTDXA9Lv0YhKsXtqzPaELnyXu/woEKaGQQ/0miIbibQKdeJuNCJa37ikLA0osWRh0JMIjx0oU6UKvTh+6S+RMst0yLAjTI1t1MqMswMd6ccRzhWwtY3Ca8BDV9aeH0tF5hdvYfAdA5ZXLXvxk8ixw7ycnuWO0bPbob6I6epRpOV8mX7ebwIHV5qUP8yzhq1R8lJ5S0WcAXBFcpBQs9OPm+0Eu/tNd2iDBFGbLa4FjKxgzlxHSvW5c2emVbZv/7KQPURQYde0mbNlXVpgUKEYgeWPTHASmqFsZ8X083GyMHzjRB9kUwoi3q/CXC0vUTZS/IG6+WuDa9uP48IFXutejQ8CBCOiA+4P+D/8QUcWaTyHTWjpEYurZspZKQI3bP1uKuhvr7EJm7kZYjwh9mrmMespoiHXikxadM0bUukVbwgs/2uteytrhkYpewHnkNRmyNai5PozwND1ZMSk32ochYvsabRMTRbDrefr5sM440A0UODfeXKQj52YtkDc500iHXW5Q72u4XSeJkTmuAvKxNkrhRmVA/TT9HEkI7A/9Y8ZxEnKZa7h5TBr2JLkruwThZzPI+LszS/KIibJg7wUz2wra8Ho3S/ErTY52jFUUAMhta2Ebtb2KZUgnk2MCg6fTfbx0ZAt7DefMVAHsr/hrIZOTkWFsmPeEAHA9EJSxIiqrDOxKcTkA5Hbnzfm0umPaqUUK5JD2ZPWOSEAJhPRDDBszTCEQD/lQh+OKQzeo1eFpcmf2pFS8jZFZJmQE6RgnXzZ77cic0U9xu0ME1WGzL6aBhfyAojrQYv1UZ6oHx1+5Wq5JWyisR5ytU6SjMuVjFThQZEJSeFXOUqgsJpbcmubzJAYt6e6EL+yv4nE//mvHYpVOVO/Jk3Z4Aafhki9o5Mfa8tY174GZDfUFW5FfX0JhQE0xD9WiE40u9V4BwphPaHAQ3EoQbt3ZKwCTPRGoKmvOfHOraoA5KF/F2JCkca/dAaAssoCD7pG6ngm9fkMac5OULgUkK3uT2/0w83mMqeAd2F8KEOa9lOx/a9JsMDAYLqJwfiLVXaRnePN6MpF8NYR4ZGtNXi4p7pW8vR+BdpwBYiKD7/tsvN2MYvK4Ov+5uzkJPDk21tfg1a2nPNajjohyu+dPQ6El347XviY3bJp0pwEIamDSySsIx2J+2T1yocIODWehD1o/++Qhi+wexfB9P0ck+8uxSz8/InhcrnD6vyz/z/r76MKi6oROjFhRCJxB4zZTFwnlEZK2ZfLiDTSsD/YqUs6lG4A9AvM5EYQOwLILfzSV4jW7rI+EbZD9wxf/sj+3R8EvtVBAbQ8Emzv6RVXgT8grG1+47vk8qOTpw6VXoQRB4ekrNa82rgtUSp2IV88LZdy+Gx64NW8tbt7VCVsk4QCEBhruQQI4RM9j8fq7VP8iyo2CmenBIq4cxu0OW7iYJrfrUIYl83gZseKksBBrJ5g04NhagAmSRwP5r8Z0Yn1gJrbtG2xDDhG25HohYftkJ51pwLuMkLHg4rqYXe30ep24pf7GDk4+hIDrjN9amUkp+HkES/yadFFZzKyaIbYiXmqEKytU+i2PC/F6fTnhH9bu/xRyDluTUf4mLI5kCb1RGdZXRAgqWOujQ6+BCSOA+4P/Dv0OW2HIs+/JXK+MlFH89J9TNuwwGlpmHNsdcyHFy7RWTHa18WUCNVqr0zTYyxm5YjDWiX0owa/+NbO3Bc2aO2QecmdJxnGHibfqXFblx71jnF0MA1v2UNoHpjK95xxrMtI6FGUhwceB/QbgqYosz/FQBRkS3sO4MF1Vs4xxsoWQLuXH/CT2URBCaEsFL1YKB7IBPqXyalH3XCkogPSvGDwt1iDFWpCLv4Wv9NXWlZ+P0MjDGVWcBbvAyQw1kd7tj47zTVehYWT+v+tYR6UOC5RTbJAsoOBF7m9Q8njmaU/AtqbkXlr8VoIjr9TnGNY71ZQafs+o03WWVvkLF+ZVvhK9co4/RLI9ey/EBxldWTwfD18eeZDnGJNbtmeIKp1aquj+3WqAfMyeWvPr5lf209rXa04TNK+BrtcakQYF7AQSXRy4fB6wEuLgT2AKMLrLgTtotbRRH2LX8oOxvDBgc+KTsP/4Bny9WAiJE69D+LajJoW2jZhGdqX8ElDkxENY1G+vKkQpPGL4bKUT585hZJY8/8b7ZFQ9qXQ58u7gWtYKn2RH/7rUc3M4LcuFuHzRcBsXqFAeBfK2kolLsilgt4TSph6WVRdTYqCL2tM/TjiFQsj3SEh/cn5baJ9hDWkSrgIpDWxXzr0vwKPw5lCUUOuDOl3ypXexgIy4FGgD7qRqaoVYusYQGq10QDCOOAWDDnut8sdimoxr3o1+Eob+BQZjE+x5DoIEcGdhk74gxcMlCr/lhouGj4yyq5N9b99HDmgN9UMSmYYG6tTIjG+xyjjtyaOC4QujnS0WkeQQqTJBl2iw2yzqcdHL85GuvpBbZpRSxbaeZugujVktx34yWX0044jKlsVEJ01O/USKH8lLkkC2WZ/2PMZd1bM8P7Djb6uFaZhQ+trhUbqCVdI+4JaH7bHAYOpoVntp9obSnfss+3rB6HfnTVhMIP98z2akwiYbYwxGAL+IJDSKQuvNwEBdRreUdv7mWCHYGbJQ7gfodZLVwr+wihfbwsdVAyCcgBe0pD0nLanrSBL6Mux065EHdkP9v4KH5PHtMllXUwINwD53BhB419+DJl55ZuPeR6xYZKzKzjBtgwLIHR+NDaryqSYe4FGA+Uuy1yiUrS8RsYtoVqjNuRIn35GUvzvekCY0AdaHHiA1A26Hxi+odXBMuzRIlAIdurJG5tp5U1HLMcTiay8IAzqgJesBr1SJVNAElqUAReS//bv5dN/6pOO3Uof1M6uPo0O/gQlfgPuD/A/8EFM+KISuVDiT/sCogDgK104exI2DfFk0P1nl4vG6HhThNPS9I46QAarBktvg8X2rv+QmbEgqko0t6Y2iqpn99HvoMAqYy9qpyj8ENwuPESN+AttxafrYDVbsE3eJMsQIbACJfdqpgDpUbivKtycQBLequv5XXOceu8RGeGSWV29mVtBbaXYLkxc9XKQaayFZ/HAQBLfypSla/Wr8dyZPMNyD5la6DW8O/Jx6N7l6EMhhVgKOWzmkE2QbWwilAR3P4Pn9O/xUjsZeD9mbEKL4E7Iy0Cqgs4x+4P7XbexON5khQsDc1zavdRpfOE80T2Q7Na9SZXgTgTEtugGlil+vykGog4QlqdDM19EDU99w0HfqkBdr2QqW3HPe/sGP+VgKxofDVM3YRAlYXzFfNOkblI0XPDYD6DFuGsaiBlvBaoISITr0Z+6ACtWcfT9dZu0NfSep1GBmytKrHXTTzZw89gupI5NY23v/iddn1sBdOQXiZjmEsfgvzG1qKpLc8wRwEv8xF2ivuf1/l93M0Ag3FvwyyEJl5J1oiNIrfmOFQdFCvFDdK1u2zqQpTixer+NtviTXsyK8I89EZ3LrcPg5IsOt9zJ5yXy+jxrn1AWqMH6uKSEl/4ynEYAvxoCZy6DYae7JIN4HAhqx82ZghTKJPOWC8i1I80tBPmC0vCocByh8BiIBrmqFpCEoOTHXmcIZ31XTDYFkaHAl8TBEjXhUcjDmnPAQp5QRmCRUvsPxwqJ4zAA4Zyt38nrehM7iELYT+euR1s45uiTWKs9t+1hHOjKn2imqMD3j7AuZeKNtTi+rfXDmKIe2g2jhRINPa/4k2azT6SDFXbjB7Ja9m6QE3+vSxta3GAXD7DZlyUCE6hIkiTusylh1RT4QtCYoSB7VRpu7cIJAeWVeBamCZNzozMcxDKYNAVJIQpuU+enErnwR5DfhmHH4gFsxuZyP1l4fw1uY6YTKu3i/+dLQ+LvQpwRkIx5EPeFunfCVHq1EoKnOpPA4sCjf1euHEInE/cTzHaXGhXlMJOVqTzrcldgIbLfA9PDzlzlcUvznmhdt7fFl7THEoeCeoIXLHxDAvZeHJbj1WF270b7xAKLa85C60Zr/LxziIeHxvyozSuAZWHtpyAGZQSJlIGLW2JYaAcNaBEi9lZ1DGWoA4uot47qiOYLCpoXfySIBkopbsDZ38yBGJkGdkTO5qgN8p6vXtl+b+iXfRAPVzgxJkvgVTgQUad13l65qeQKl4J7ZtGkjFTbCT/kOwSGjQ5eBCZuA+4P8DP4MWyLKdEHttXUQGZLQMlkYbcRWIV1jQ6I3x7rseP9gwuyWdyevvLwd/SvmvLjk5RF8APDjvoAmpiRibL+MNmDnpVcxt3oAgrXatTxJkevFbZICAQF8hZ6FqBMRqw1w278xoGS+P3HuOivmPTc3Lg/dEKsBvPMuhNgH9e1nqj2t3w2DY7s+b2KR/m9O+rfJCxVAUudGOftptzvQ90pWhyqLEBmCi/olu2IJSctWMARAEqXkkLSnu6Vho/KWMCR1K/7WMdo3e7wEEeBE1V36E1I3peAOYvSHt7g2htPBo6CLV7/yY1MIWWYUmlKYNgsIj8pc0+sYlNAcq7l5bPB1ml6trQD7FeGR0Bir39UqlbhgaPdd2s/LktygAwrh+LtKeUT714uMrHYDo7H48bHMUlQNVexZJW3f85LVqS2DGrnSsJsFzUBJzLwQ4+FKHQ+makq5q7mCBt9NgpYVdNDMzRDnkqJr5ZhqvyboQiBS5+J5QM39S4n1rzIsFwKqaHuvRStgKtnHRyjihyYc23VfEexiQoXl7q9VVcjj2NHb14nhbW3YKQf6PcsfIQeiH0eeGn+WcSAtSI6hbVJRD7GEsessaywFyrhr6MrC1188JP75x0kpCBefY3do5ENtwxYjJJ+hWLmhnQ+gCyLTvSoKR36i3fLZKZ4W4aHoqgmCVqSTBGghwdDDd/SmFVmeLbmF44cQLbjUYGUs5hbN71+DlVkMMK2ZDfbM0vzxMozPutsFW/QXYzeSgQ9L4YNwW22jpgS/XPhz1UCpoSTLZqSl4mhkFYzazrCRn2B0Puxee6ZVb5r91QWZBpM13oB3K7NMmJdueKxSIpjCWxxmrL7Ye74rRDW8dyDIZst9zJTiMDsZgGOWHX4V/26HRv7RDvyQC6VxpYkZiKuk/NByQXRJMfAqk+xFNYiPOhAIMt04PcXMIejnSeOS5+dSk+XvjFJwSsNxjd45sN+JIKXmiG2OC89Hi+Op9QtGvwwU3y7aE84YQBvqfl6siAZB4OqZ5lLGWJrnqrkutqp1ehyuMrjG4Iu59807RpETtPrWUq3BlVsCIy2IXMjVAIR6J2m7MkggWB37JhirDvoXm6dvzVR5f72sRmyoOx5DXBKLk2BzFa+1fP9QB/1WljyFHAVeIVGSKaFAZvD0co/Z9Dfm8J8UcQI47XSUsNekrzj9VmmMQBhEIWWWeUdIEtv6CUhMeXq5o0OMgQnXgPuD/gz+ClBqszmizSK4fQRLPdxhEtBTjiUu3NrVuCCysP2mIpeSsiWAAOTUFCAXXeEB0EEYwi80+iS6OCq8WEsNyiDTEHeAJlMfRq1pDvkLy/2Ocb5HbBkKvhaJwUx552BO9VuPl25p1YdT/aCMAscjeoEQbKGU8DNUr+uRhSN8VZvf8EqFeEH0QcTxzRUkn6XCmnEZe2UpFpVUXoxcKY2O8FxzA5PWgq/800Fwe3QZgDYumcfUk1D2Ce5l1a9FuaORN108U/jtuWPopUe0eYK7Td1xy4CmPZUnWGcTyxODpkfet4RRW/y0VAOCjKtBS0orVxkPqwh2QXZDpMhZ5mWenzto5ov9Amd1HmOCBV+105hzGjgJ4WO74MfbpcM0vhUbNHfgkfQwwq6Uqf9MwoISEc62WvqtCcqUZ/vpVDLjlPfewU5u4/SO2Gox/S42rn62IO/MXX8MMbAOMt1Lt7im7orFi7yc7/udSCklYzP2RRhESo9ltkdWbVgw4AF0QXfckGE/fm6O9h/5miTWHX1Pj4WwWwShPY7r0E2GUNDNqVgVOaoxCTH2cvGBeRdywvKYqpC85uZuAXB95lEFguQEJoYC/+4KhJ7efXija9MuxyieOVPszTNxn5advdKYhsUFSs8TqQTKSAa6ViMm1gLSlnmmH2LTmyxPj665964EhGEMgwuk9mw6CzOyI2o/+GE9cnZcj78fyouoTT2WtV3Gskj5QKdAjvcTqIxLsrggJ0rPKoYscnIGBOtIqJlHoFG9dekwlh8PJvSpH0GVfMt/TogRq/XjFw+RPTcLP8sfbssq0ap6pW+IAIyW9muBDYOiCudi5wi+UY+eNbgLNgSMbDsOxORA/n93SQCxzag+xXmlO+X4+mx4z8jm1nTy7tnwfXpFRMB9WWeuP2HKn0PY4baNsM1vO/ainv1EN3ZxEGhUfJQxggUzf/C8VAOQ2LZ/Xtk42VJaENtYD0sEPhBafMdH0TNh3QReOB1qETHjuEGIso6azi6yl2hflNPw5DjzbIbyPg3p1AaHDV3hXUqNRy9+X3keozrA1J/l2zaIZFO7aObnyQ+NLDAEcgKJhIMBip0772U0gO5rpS7cFRZ99EPzsD1WIAYHYiIJIefDqAG7NTM3fhSC7bOY8c+Iz3xRngxFsiXIxsorBFz9xqoD8P68I6ZUOWbkF+3Wwb/d/53Z7QQaVDOjQ5GBChOA+4P8C/8LUyf2zZ6T+gcN/ModgjVeIBbCv10RTbnE5b5I9hQIK3PSqjAfSRX+DtR8IIViSui/Zu79At8vNUPFbjxu5UyA8WiD/ry/bst3PwXudeHUye6dQre3lAkA9O9Uh+OltgNLBieAsueO2CzARmv7Wea9TBhAaYrVR6ZP41JqJizjFU1W9lA1St7KeMfXpXa+iTCDeZJA645U/rFOXVzeaIgv7M5RS9qcRxB8osv2+AcHz7g7AamA4behzZljIh23LqF5KMc2sDpP3sjL7z9F/f8lFhne/BFiBLLNWjKil/WCFGDwPeb0PxbIS/gD2lplAh+DW+9ppjs3fnlCEnUXumDJnRWYWcs4EX4cS+/6fbvLK+xnDHsvn65SZTz9It9s+YudWC/o+14ueBxa6QFUafKV0Ta9ekZ/2lGdFWwIUBXKn3US+HWRAj9IK2WNYnLV5AIG8ZWXdM41E4oHr38ZtLOWfpMhdRow64oj7exb/q9J11YWJmw86Kch6okXk9gf+GUhOZnmOVE0br0Jk1gQiyqAbEh6b8+tN1VcjwMGLNSLr+W5KoX1gBEf+RxBCQ5DdJgDqMmInwCWqdwfe2jCQiLcf+bjzqfwUZ/XVemy0oKpeMmQfuSU5oahqQ2PtlwXgHRlcFaNcg5fGs4Lmu4gcyqEb4plT1TV4NcRuEdqD92a/Ja71urhB5MhHKVbC8uFnfN23tUh5X0iglFN1+YIrTiPbYuOIor+b0II+i4965HlzaVC+NBUJvMcncBER4OpZXioMzKe3eYvOlgaIx98WFYdCrBVhl4XgPo/k9rBKaOvUcFx4AhqyD7KCDIjxaBX9m2wcatvnOQt8i0cw8tPutCLz54BwcFbznAzdOQaTS/zo1qXSggBt8V7v5vCnPb5LK7gdaEBPMyivsq7Qe7pa2tw7ArP3MWntr+cNTEGkWQiiKFB6AR3NyRg3fNpsE9ocOk4ZVaeEkoSRzxYLT+PwiCGiy18JelWfWPMXlEmwTY5zQRVkyl+0wxz5EjED4ocwy1xgraZdmGRgax044ZQHggQCGEZQK4QDBTHhaFxTXfx7BUtgMOrVhxgOug+rkIpNTF6CRE47wjE9z04OXzqk8c0ceennzJl3uoVuDk/dzTE19JJzsH8bHIQkQo/MPvT7Qcko9tuOTvEQJ9g0wspb4FFQHO10AFnevzNQdyr9xowpV67Xb6mWW2Po0PGgQpPgPsDYCnGEEbTDfcXkOzGN/V9AXYhS1xvy9ygYV3wzNclPXde88lfob7eHEw2zMHp39UPN14pAEdemeTwFgJ9dETX9VzGD+50/MbUuZlE/b0ekVtwlIgHUVT5sMW7u2N3Znf9eDXgq4EHxy443KvXCcPLVDRh3zMazXyYpsJZNKBVg9CE+OkdAyVC+5Q+378NHN277VveVYNi1zlvuQeni9fQkiRzWNUQ1WfRkMAnC6/ODPIiE5nW045Vq+bJwdTRwkRpxtsrcMn1TGh/a9YdimTA5NQns6BjW7x/IVT1uo2lDjiOPprl/C4TCRKjVNgnw2iqqz6JvUfF09GIq+alfhibhe8KBvTL5fCSZeY6IxZ+gi6V4Ie+CAhCQ/aGgvghvc0A6ze+87o5fIuz4uC42ttYtSgIJDX1DolRfOzy/KVizfpgKj8aF+OXsq7qE5pNWIb6RtdkfzcxluWdr9EVyuZw9ahfRABfRXaQUbVVmiJQEliatv37/FOjfjfdOe36m7lH4/i0yhOCGTiA8ZLQv2DVNcLeawNYMt3BWd0HctmXgFCdYabT+pfPn8SBJlgbq/f2NXrj8jOiRH7paweBp1e6UjAgUS2QDMpa2c+H2xawPwHwUI+7fmUGeaKzXNlvz/DmyWwqc/VH1Iv5EohZMdT0LEn7Z5q2i1zXEgDwr6krsV7yBKMkWQOw2Jsdm+TctHU3cw72q/VFEc6r+D/mAZDTO/y8NbgqqC6KdSUVXr5Y5f6antqBhQL0Peur/z/LC5H/u3iLxP2gtRBx3YQ2V8FninOAQWRkhtWS27YNLtzHfku2yZGJL2kux/e6F1SbuJYWHCpc4RpDku7/In1JsHG5+2BkCFwABRuSFooZKGr5ZJEWn3xGYWZikog9ilvtwlaHlZE17otMKrj0Cf6L3uoLoIc9cE7J+VtFd6vyqu/fe1484/DNoaly9adMcr+LwUcaUnpyDekFE+vu8Vlt7CdX5Zf1yVsznBckOOvD5Az6rCWaNSVGyjku4KzR/3FwjoZwFksCUoN8O/VuMsLQgWwEEx2EhXnRNqMIMcpCnTS72vJOIeXco1FIfK7JTRDYYFTTqCAw65G0eNboCeUXBt2gizLvNdz3VM1R+CD2uIHgkSwpwueKv3xdbmBYJxG8Afx529mspSv4VLQ0f0T+Nnwn7t57iCmFB+AqcLAwuf6MVGzHCplURS2YDKMM9pnXv09RMUFwiUOHXtuGQKw1vLDMEcIsRki/wVcpDkuFn8HEPcQFGkAN6kJQbH1bYhOCz8Ato0PGgQqLgPsDWcfDAtfV/xTBCAjIfiV4vpWzQbTr/l/eFwgvwylprEKxnigcjgAziBzDnkVk8elvnepyTyk3HVlWi5is5Xlo6yVYwHQ2EoC0STfXsHwYOGFoo81cUFx33ZqXuAs45mHI+yf9c6fYsqZIOjd6ABbuC48hbKKFSR3WC1tEtDNLNO4oXiNTKIZXj4Bs53NmQNO9e0+qVJtioGjTbjxRbThl7bsq8bdNbnFF6+FcPysnMbH0MuY9ETkKud1H0uc3HPjuLNWvGtYIaw7oz2ieKQh9vs/4TjGhPKdL8whc5Hbfh5AhYsBieZeSQVVWH5VgKysOmza8fOQu5p13gdA0Nc0LWvrxB+FXKqWMDN/uRuaj8OBdXyaeDyvCeGYLujQfXFC217V6oc45g0jKcr0muOA0pTZR7RNc+KXxjq7vV0rTJZJd+HkfDoiZGxO4kvkjsZYntEY4eWwI99Fa2UwKoz3krT5xKo9Ii1ZzvdvycW7ZEs6R4QNRwQIkBM9IsNF1XdIGGEPGyToC1qhdA+fSZXXHhTkTDFPMaK2/Rv9Lr9ZwNCHC0a+3GAvXl7ii3NtDfojV5r1q5Mn3BjJf7MCtWLaJ9wRW+VUA1jXXbtuQGnVDP9FxxPNMgXuVuHcP8imBDEza8u+SIS67M6S/7PpOSD2yXEV4uFXGPJA+bNH2A80LKJbsBYnnrHcdj1/nBxU8qaVqZlEFt0xBTTJmzsIrHpY8rlJcwpljfiaudwhLjMZHRv7y6JziPeWnRnENqcL5cejlak08b+PlDOdXL6qfXrBvWDHOFiYQwBnhzZ9n8MI5bgmbJzVr1/+j12CTZjQMtmmxL6szGRfm1iO8n9Upohp8vlogUL4g/TD/mbmNqYoODD8tMynh7n1n7W8advISo3tl7+F5pMwYw40oiSKU/23wNM5qroq9a2RPpKot1uY+4EDn+okAS899NJB65lPFvLI92zMT9TRiqg4pRjTLuIoUXxdPCq7esliYGURXy0MyhgltVO1RCjsFFrtYxhJpTiocRdHkZxhB+oE9XLJEoEcg+mah4dFjf64ev9Sgth6JfIByV27xpn/Pj1FM2oHFMAlqB4WiGrikMqYb3RCVkKcEvCE5EzxvmNmS/UGNOE5G+V+dyGMjZ1XqR1tQvCkVmyFNpA1MGhbBjlP/4vgmTqBQmglUhOrGDu/Js2uftdsHeuMR/HiP5YtdFpqM1TgAf9XV58mP+iZeXyeVHxM6s+4oyy0WnNGvELuVq1HtzSsmRGA+DsxhH37ClHHsjTcs9cNRo0PGgQrHgPsDbv6luPqGvtsw/KEzxDA+CYwCatX1TY8tUH5FqJ/uq8jgihc1w6BuBXockYOg/WN9YWCkW/Fe+auOoc0fPraIZHP8guvmlhY85jDTsurEAp923OgLPiIUHPEJd+bwT2FbHrDljVi8i3JDwzb1+RuXun7E8/Ilyy7tCDknKkQ7TkreLr8zaEsGE4dWEirWlMuj7MPLImUwSpjWzEk3y1czh5hMxDvTSNbk2di4+3TLl5f82n2rjZrXWzwJne6UFK0X+pHCotIm47VnZiYLRdt7/jMEKchQXGGBhDlZZDEjJ/15KOZ8hqkybq/oiQI4oFJjAXi1POKzs1QKgNXQRzXELgkAaLZ6DiUHM4Qsvlz4OeLW8uFjg8wTvZ/qkjr1RdekCZFQRf82L3tdnI7dZj9IkvvAvUMLLuol4Fzto3jJo7DG1B+y2bCN3az7/d0vmM+LkWqTGBlei1w45mWPylPwByt9gcaVDHishsDj8fHMuvR7hIPbzv5XTb5E+3LJemJrrxyRLu55KXS7XQdpv3kL5h4FLxFrC47qdPkCqpAQP8wWQd9xtC6uXUS0xW/0Xen7+fXASm7BYewSN5PV4HdH6NWi/yLgM0JBYucf9KT2OZ+t4cC9IiBPMp8TmoZqWZZGMQ8nzeJplMQ2Eo1kuiO6Z7DNSs+gT4mwd0vYKIyyDmlnzUgb4RSTGkF9SuS9nYzEACkVL2HQI67690P36DwBtizJp/HZqC5/iBwjI+tdY3y2gd9epsAuJCY9SHDaiigEjvvQ9ldHM/bfbJqKLAbd1g0UhuqMDm7w6IVe6+DHfOCaUJSse4gW/vACL3qV+Am4Xrzak8BSmQyBHQJCdOXovV6ONfBoMD5W25MrXMaB8ZaPRpIjL0uij84pbhQFCW0wxya4Uo5iUNBKzNaP5cb2MVZMPS1+Xffwt1j1cllTIb+pSW/onUJJeJ9gh/kz3GGQpUUDEFVZAMGcSFH4uAVBQx0kv4DI1YHj0B1GJBsxtVvm3D4kMLcYqX3qWDBYVIHKoYxhn+SEvl96hiTaQuLW9fJOLRzq04IGIlR57usqBpT4qFPa5U2Bq/xhQzdsKG5DSsIh6zA2DdT2GJjncSsNNSVSTO16uxyzPKN7e14cCukl6RubSPpAsLXqFUal7vICOuSBIZRa/WUvgET2NbPNtI8lthOMoyfCC3+CysL7qowmqoxGhwNudU8OV820/IUHKmjRPvKcbg7trSwBqyrly4VlRyJstKOvU4NVqfRlH18XTdbbBnUkh6CYacoLxMFMo0PGgQsDgPsDPs1qxtFio2uSwqiQO1rihxSoucz6Zuyv3lfV/nCgD1VXgzSmnYZmoq/HTQRMGksDtAaAPO/o6CPO405edHg1p3dvVg23IrGNLOFNVbDZaUnCIgSlGZMuYx9ZV1t/0iviMvL9LtTSMdMsQYbToded4QB320i+50Hturo/BgK/l/92Svf2Lvc+hp4hBRpqQevd4YWlDvPsHDyHbGePX7UeOwBVdAheeXIzaxwUCCrai/2rSwInPL1R1e+DzuSLPJvbU6AtcqIR/tQZwSoGSb+WvqGHlNjrSRhxbX+Gy0ek+eAtj6xetcK5py4YLzDGkUUKNxw+JIy/bf3qCMcaprhepu0WqgkIwpKFf22DvZyL6hZ+qsBxTnbmUBh9xGvZhGoE2aF8MoOEr8DbzTqHuPFxWM7OrOUuFoJmKd8DFwuaQ/zar20h23IqDXM1tjikH8WafVxrXmyghZMX2VkGBVDvjL7AoZLCg7r204KmDJ2Hpc8qJHO5FXR5Vp24Y1NN2/7m8Mi6FhkjYHPuIdKR/CZmZjsCwDCY5N6BuvDAOEAeD4q6naFXVwm/+Wz5K+e4A8Q5xfDSPXjsWJyUgwwW1Kixc6KjJ6S+Fai369jCBIGl+sCSJLospWhipEtm7Aw3iX2kQcZ4RvgJtpKqXLV97Ss9rizHFwzxWM6rr4RkUGVc1z6jN/TzEph00xIBTvGoljK6KdKrgmNR83Zuk4tWrA0GTyfWi47B3FovOw4T9PptZwM7wIiFh7Ie59czd1ed+F/aJuHudRa1ddQipFoLIek9Uj2830HS3K2YX4h/qtGIZGOVCAHVfPRF5RF3p8C4P4zYq4vWvJz7mzcSzH2AMP3Lrz+oa17SnfHu8EQWZoyzhXubfc4ZXd8PdHTiF9DgbAtk1mRADD7K/XgIr2QH3n27eRphLuMYuRb0ir1sspOGYD9i4tq6HKyTrF4niM1csCJ2tKqrohqzENkEYUMwpgS3LHtkclhKAMbE34r/cIZX4cDs5ySdpFXM0i0mpQfcC9KC7CHYpXbWTMdnw65AS2EC7R+XwNrCC7LOMLrndELlcW1AbJlc6ZFZfg9Jgz0DTiad7pGxMfNbdRaRDFslx+md9atyiSIu83pWEmVL+f++AWarBvcz7yQJ7yqDURn6sgC2DDCXpEN3OSiNDTqdqEKY4CjSi3YStGfRspg/8piWL3v5ueLeB3NMF+KBzeuzCcqXGy6636TMD640KCjqy7ztYQJNPy2J2+TSZXmMIHme/pq5NaT9JbcUVsrFcpFhCjQjo0PGgQs/gPsDWr1qJYPnpntGOFi5abvMp3k8z2Mcwry27xvBpF7XMvMlbHChdjz7M4Tfp7kwiyz8Kixc5qOrGsP1UnP/A2NZb5BvH2BJzQ0zZv7Bm/0g63MtyePxlegKzfe161ouwk90X3EyND27qdOOxemgfCtq7FsSTRhO3mF2vyQGzmnoQw4gjIPBcc3ERugjfYPMtHgoOZp9ryckCUuu5MhL93jOiCHgrJs/P1ve4BkW9QLNDyf2kkz264ZIhdOa75ilA211eu7Mx96DKkgzFdqnlMnvSX0TdxHnGlG2sZP1u0A9f5Ml7/6kK45c86Jt6pDzSsHphoPOuCbG/nWts47cBC5Z/cJRSpG30EddaYB3R53XHi0lvcflhw+vKeH4qHFNQd6pH5S2At2srZZ4iPzxYdlv/vUJtzGr5wneGOdrAmPfIdrGq8YHiavcDrtb/eS/3Z+fHAompvmm/PnfCusuaQiGQB7zG/qxYDEiaEJmqrsMdyPIQnA42rAtPiMBXBTXX0+ldATp/xOm07Ik2voQUKnVAVDNo1iT1+MCotRvU8L8N5t1kEBKl5cwU8wUC70pjFtOBW91aOp5omYeMv99XdL2+YlkExrNvIQozujAY4h7FVWPgCO0/+PoMVvoxn6MnnJEwh++vHWCs+mhHQYYA+RrJK3mG07kUpvEhl3HoW/AV7oxLDZDVkCKX70Pzel2ZyRgzcOjVFJoBTdKV0/6S2O3/2pjoay06GsRpHvV+2lPEHJq03tq5+U3klrhLManIV79tAOe3qUvIbpdzLDWaYF8+nFgpkLx+n0QZuygA+3Kok57MB/qUkJSpE9iK71hRe09zu14p/t/YAucN4Tg0D6dR8fh8vJL+EU6r5Uq8Z2qu7/6IR0WVVfWpVSxLgiOM/XEdOSxmNRAEfPcFeXw5cTu1BRnMTBEBD1ju+Py33KqLs0ylr7VH92BoGrZ8ddNa3o5hpRz4IZj0zUMxs5xwNRY5wmf/7XVVDeJPYfMMURngE5rZ/mInH0O4LcEn6Sx1Uvcge6nA+tZy5gSfxk2GjEBP1RVmVhBs+/S6tOd2Tf67Agy7nTKAOylKRJPuwRHyO1z7tAmE2AerBGmOarjbFeHoO5zYmTVg98uEKBSLt/5u8jh6XTkyb9e0Ex+eDsAYTCSxdXdjVNuRdElwKqRbA7IaHHHZjhspioDaASvD5C0pPt59vGcsojmSEI3my7C+H2To9TyqdXixF9ik1Jl8AzYDmU5J4+Lx+KenfODO0eQQAFdmqL1L61OSKabIOxlJfVJo0PGgQt7gPsDXiig9+ZIq4thR9u/J6kKHj/iVtwIV67wxvotfdI0LjCrR/4QDrpKdbyn5CeUtqM55TsfaAQGz0l10sw0l650QZ91JbA2dAoI57LG7U8SrrQLoCoMi1nwngQrpnvpPTBebrhDJLzgF/kn+s53exMRwzCt9ZdbmZmmQUQjeSTPiBjj6cE3ko4FpKmAMrlvYUz7MoTFVkNs0Opz40tKTNGb/uIHDiDU4LnUz6r/1kjq2tta7CxizvuyMH0k8kpO4DXrdM5HYcONbAwUJ0vdPEXKHsOrrNTxdTFVJI2eRW85SOo/RnXfShxg+/qhjpz4H7KvI8nYhfuhTPwf1wfyomCUgWf26iGPb1G6+WL2oFeUNCPH/iBZFXp1TGgmUlRC9QlJvZur4EaExdZF+XfNTR1YeSf3qVHvZQB1pGsC0EpMAnxQg+zbZ/WrdkpNmPGmwBmD9vwCgUOCsDZogqAPPfqKmahD6oHCam/1Q0qpdQvqxf/YevNSiLrbJcmI9Sl8CuyoVdB9DXDKpLe0Bip03Ej2GhcNJ8/LQPFx4bA5IfLrlnN1kCBnUoDMGjmXX6enSp4Xz/gDglPSYDNhgLR1evELYQb7bfDz0847DRL8b14wrkcQkOJCvYL3AevlgAHEr+AYteDqFGmOkYLYLbwuLoGApfzs9VLG4/fxdmZiUmSsmvZWZC+A4k3D4SoEljN8zyGU6JpoOnIsETfjUUolV+wOr3dYYhI76R2Yi6Ju3CA3Lf3CrS23e6kJiEoibhR7D2mKnqe3RNDLwcDuDZNf54FstauSsWnAlG66LcKlEtUn1qp4iNiEovjroWaG1aTZrHten69dXZ7R8DzlNS6o0jL33dv4OHDqcHliREnL83D2P/HGZuQrY/2ejveUBo7DIEJKRtjA3z3pu9YJ0s0Sdkxxjgt/vT5PAs8P8cBNX4c17OFV8XEs+/YIK0OaVg+PylK4Ow8rDOtCDQ6YkHWq92FRjEhToq6puMsaFiBWtfNLwGOy97uMmXAJjlzIWh7W8dzZ8FppQwWqqcIAz6x2PgZhI/ro8miJjcx1g5+udt3OUBfKHZ1Otae92raXByTZRj9QquDYfl0XaOkxdNwGI2uDebR0xP58NGsz0alrMTxF5DjGMu1ysndXq+2eiv3Oumk7RfocyqNUtMPgcYf479y07Md0y5QHnZVu5WxNRuaQijmaDN3spUCbkKHGvXu/PhSrdP9kgwSP79/EdyIE5NF9V232HZm1iGio8+0wfMrfHyU2m+EzQ+U9uH0wVgOYuSnRo0PGgQu4gPsD3MrU8dVX4fYt5ZFoz2hYhPHUz3UwEukfbk8opayWcdInFxl7hi19dEulIhDJ5m2RJlyrAKiywXb8PaRuctHGrNlxPSBTZOing8rGKmRvUJunkzHyU8gZfByt/KXi7daWe8HD+OK0d/7W+w/iQaVSH5d86bxpdKBrnNjAHxj71v62bhephiZCBKOMV7hyXzFW6OKYR4+wz96invjeXKomrDeYvVM+BJAIfs1Oy6HmojYcPKAGlOVuekS5FygDJVuqWFbQUqM5Nle+pJuUtxl/TLRr+gx2U+z1F07noxz8NeMhNZmf+5i1PCbP5JkSRw2Fc4WWSnAe9+73IRMh7jhYBktOhaZ3tFbiizBFZhw6d/c5q6Lei3GUVQxQCTwwdiCWgnBjxfKU+G6wSb0ysB7Tiokon437YXTEeJdq02XM0cFQtMVCxu/fn8BotWox21b2ShjfoScexcGwkAu1jE/9JkuY/KwbLP/mxoD1wPiz96A/rhAMcI+o+H7662dC2Ahz2zvDiHMtYdVjWovjJWklaYs5ufLvDVqRkcAqnJs/FKo5lklSYCwzRcv4hVC4g0j,,,,,,,,,,,,,,,,
"3TBPScBOeakWX2ZaKq4G4347U8iZVAOCTcBKXvQe8G8HxGWxMsJpGCLn4FlAkQjAOJXF/sk8dPifI7cE9jFjchUP4BInc/y5WX/yN0G55NlHx/l36LOdP7DoI7r8iNFTrZZJxCpSjHCSSluVn+CoZsv3V7ZQ5wjntgqdQyiq561oZ14v2GsXPoCwW9k/K+lZfJcwKHwzDbJkMJo8KNNw3EaEFceYO67As7W+tRGnemhkVPwVD+m6ZEpx2Wsd4/ZrCMr7HJqD/3WrHty7W7xS9FAW/9YiyRD5Zjz62D35t27+kMUGSRfElsbIQ03VRQw+ToetsZ3SHmE9eJ+SIILjdUSOxI1lBR5qBD9/sgEeIa3FmGeLvi9w0MOzHb3mcDyKBuAu3vQcPrR6+FZhXB9mR7RdOy7T0UnYHIlbilDnn9TL3afX+nUyiiZ7E4q0U4pH/G79dahw28zcLPfgR9Q3jEt7olooym+hkHw7J+CY2AbTbb8nZbeRW7hELzm8UqXxCpaNhUNSF1iIXKFrYoKzLLWi9OQtMzyjtHba7ghseGuIxDHcfBcrG3NFHfSCLjpNYT2f4XZ/hpaJu3jTyz4Ijw8DGja1FOOR1e2K4zmdmAh7PA9K3r224eNCgMdMpz1ppV1XhK760RGpFptB0ZR12QQfmWSiqT9Vu+aNf8HRPWWc2zstfa4m90G/CTXdTQRto0PGgQv0gPsDU+H9AdXpX+juHGuyesAYbeVquPYRj1xfaehFVDK9D0znrsbrWOyWnjOSNmsGV7piNNYd4SvJHxf5O4nK+hzIezqdzAx1U93QmqJTMfghdlbCmnFI2Gs8+vmZ3Hn/L5qjUgU3Ooa3+XQISTHcwWBxZhW0f11u50v1Bz7NbLb7r2xdnxpkwoG/fb/wYqPuXmpiQ1ZEckiik92GDluw/K6vmgPbwf2w911iJ8NWas64BUYRQ6jNpAK9D3p2KFlYygyyNjBVYmN+qSj//ZgyorshsyyMEJ77SqBwYU9hy5EPZGZKLH9hcCsiVvp8CBEVMGW4AJv+XCI3UxDaKBosRKnuxh+TqQAZLKEtYrvBxBtYfm+cUmTQYTdEcs4NGOz6j2hGen++RKBp9zhhvwrU8sdGt4cgBmiQ1s5Vryi4w6aW1KU/gDGNDy7ZajrPFJuKTrrO1qyqUWJ/GKvPND5D1t2fBqcGqSXQkuGNJgp+anaSV7r7SW68+w+fGYDRxJAJkk6O/4sJU/4k+1o72xbMAVw1/poMo9aIo98SE4qja4L8UdBfrm6rc+YNK3cseZaw49yGzRBOHzemJOs5urlWv8bpMz3uZ1+T+mPKvCtZbRcmkIzs/nEVV7vTMbbg0flYuaCd2JYqF8bAVjQSNnzrV7e/HKYEwwmdcGcEQ7nOtCbMHkAUcoHHZ2RbSVQ925o3QZe9mi/3IUaJQXnrwaSFH/KO8ZJmbX00TCAYlXDU/LebzXmglES28tQeSusM8GmxRJuq16N3tCce//p591pcTGfizhwlkMgBq/+E9A1MiJOD1nYCMywsQNgjR1v1Dh7LcZ8+5ERMe9JWMmqHx1Yn+f/YO1tawezIbqOjtZHGaeapuB0wngbCe2i9zLSQLbJ5i+h39sI1hcg/I/d3fpTgkC1hDSD5MZDqeTUrSj1QsCgu8Ey1Oiuz6bpiJZvr05+SciSSJPTvsRr7m0vHW60hzy5F8CPdQMXWcoLCvDV6ZuA4/wECYq1yyMZ0/6MaXptqwJfWP36ft3c1c98rkeoX6J9PlT45y+cXdye/3+KGh7Kz23hT33h/RJimuR6gxQG8LZOvsTsBzaCzV1svFbIUIEMHim3L7KfuNeX7LshWWpY4A0PeZHegXnpoGyI7zwReu5QA11oXHTkItz7QGTZ6CjzEXWojuFwx4kA/pXL99MfqdWow1wYlvysrh1W5dMmkeTC8b7oijsroSE8+dbnLt7Sz2DiqvLoY7IXQfCNJC0sCpouK/flAD3DLwk7IH/0u3fRGo0PGgQwvgPsDWd0qhVxImwMrpls636UP3JmNCJhU1dkjlLMzDZn5vr3BOzXUVfqppnHqdbRN8lunrXnoGgE+FWrOvxLg92u2A+nLk6rmODLm6K8GujMtRfieQMH27w3k8ZlADOGcEfVvfzgvqKwuPeI5vxneyYz2JpLgN/t8NpdyvuXbz3d8Bj3LMMuxQIIywxnJJMxkOSS5KPaKx+Zw3Wn4wrMrnWaSiQ3aKTiqGa+wTPn0fgvAQcvjIEFX4ZOdtWDRA9VUUrLCi/q2dnJlr3AEOW0FNpRuQhGk06edZDvtDvKV71S2deVNvRTYbuKAdnEQWJJ11LepKFqLNVi234OEfKWiawy8FaiDdJRJ++/KeVGmESdA69+12b5t2rpH5T0mk4uHTVmyDQhFJzViTdWFs32GS/ZAI7VolcjiWgznYSDw/z6W0bdP/Ftq9tuM4206ZiIGVbx1HyF9tWj+EVZUzebBuM6P6SQXpjsNkTZP/aFPoD3B+aH+mib1D+N56iBXcbmrOuCX5bwVCEJfNSCyGgbXELO8vJ1ZOLrLT2OwMpoBrPLbTsLLNMqek19/FTTA9KSPccOfg3paMnX4RP1drNdV3OP4Hg8VXplWZxApxK9qznuoK/7EEBaZn8x8ieiqJ/5FDRJa7yQcXm42Mxmim3oz5HJVVm1/iz6mY45QiLTfphyYHAture1vNTsNHsCgus1gm9pXYmPjrjPCLc76lMwUTrabsaopg+1Yijpz+XxiimFzNb0IVadPw/pTWDi3fFock1BQFP628GMyB4Omu+kVYhgcAe+iX8fkddtfgxhXa3ZvgeDS43mvRsuKkIbUohkNmuniQtG8DRAYuGpJqu+R7momSFsmW0mjR0kxMi6g5bRuQmMBw6Q/hzc0WRnEqXEnY9t5qi8K4pswLdxD7cETmAXAn6RDkGKpNtmHtX0BatkxhekR+54p3LtGOooqWUQTq2h2LSXGJaqgqNFkvWxVac9n3ZrkrKb3BiPNY+fBFwDKT2wooj85rQ1X8HY7bGYcGmcXV60U0PnodTAphq6XvusbtKHqf2PPi4IdP+Mt5MwBuHrMMXhU+1ERn3ctOBz9QQCR0Ki/zvmkKhyvnpAkq83lo4rfHwQLonHKClZR0hC22lXldy/aCuCaD1EHsqKx7i86Hu1JyutYlF9vCeP8+B1yryK3QU7VYXwYwFM4zM1z7hzthNXbWTNsSrMBOtBWjYEqbsMW65OjQrnsslfuxqF8JhKSJ/NSFxpUcDJcSoOVMCvoP1sezIbwojbNViD5afU9o0PGgQxsgPsDWxJFvzPeMFKtYk8N9pwsC6wkIEVt8pjzu23Ljr4TQX6N8rr4YwakFv4g3Kz94FjoO8ivYD95Xbjm1weQwh+idgzGNNTAB+p+e0jPaYMOmAYOiSJg8qGJJViempTR52RpGRSZctSwmPbb6aibWdTuFMDtdRxQ3GH1c8y6jNP+d+4hwMwVZcVDhpT+0RCpFWKatI1OvIdl6tb4S91auif0CLssSB1+pxqSYDxAkFBr5It8W4Y8dDmnmnFE6zIbhlCqx8L4y/FaFOJbha1DrujOx87d6W6sgMzEaZgHJqPdEJh/TpK94T0TLFYdCMkeZCtCRwvYD2SexMGk1CN+gaOfigQMNXU4A4iWKIO8IszbAa1iGXpTZIaCehyK+KrSbC3inqtNa3R69wvTrtO+XsurC9ufOAtd+gm+uIZbQQatjJ9AP5bRDlPc8amtTxMxH9a2zKIV8ef82mjdH8XV/9THxKWN/3Bq/33cRnLnyUgxNy4PDqEScyRCvr986pxWjOJiNRihNeCXl28VK1T5i3P6ItBsv75Ji2FcNBUw1bfFxNEQN04L18+GEpNTqnn4m6Tkw85bsI/KwvuQGBNL0JHPKwdX/Q1eKGEsLM2poQ1ASuvTWeo3PhelRF5IXiJtB+Lhax/Aydq2gW9MvwGZA5qWMZH4zm0lF2cQcQIIaKHYZR9qkWIW01/qj6SyhqMbscQzCd959TO2wf/wd+13tNNYKU2jnnwAAqpoumljsQNEOLpu3se3v3i5AvVkxbrX+MTg8IXCzj0t43oZIkGTSPHMAeZp9N7rIra5jqMWBD6m+UvDQNR+NTL+WwcHevIF3nayq5LupVIJYqiawh7chNrt6ln/WH75LYiuCqb+67jNZvbD6XbZco0p8P8xbkcil8HRGuvMeQCVCADoTYeP6XghwC6LVulfbk3vIO8L6gWLN37AeaDTQ/YNlZpIbCY+Y7r1LuGR83DMe8ACShl5P8an9+fAFFwaUMrzs+0r3seOVGc0kiZP0hCDQ92Dy1i6N9i59FDTHChdXroXWU57fQkURYk94kuUm7QnBS5iL6MV4juihiSgl9fL/Nx4DtgyceKowxsO+ytgtVwRbySfqUOsiEy4Z1CkA7EKw5BrCUkB87aqG+0JphUh8nuuaYZf8FCdMi8dXHylQmGL196H3O9zLJUNC/fup7J+VmtPGKLgQ1xGsc9rkkqmKpejqmw4Wp8Am/CpmONj9HX+CV4uFwNeRLPh3NQKDwRpcNCBuSBL8pHIQ0OYqG2cqyT8WJU6Bchto0PGgQyngPsDRSC4A++ZptOyXeaZmvq29g3qrH/NrBmSYJ5B5CYULHX4dO7oVNB/QJtrX/75DrqYzbXK1NoZJJRUoy+egyjrLRnyAyEiQ2wehUnWzlI9vo9IBv5ayjpWuTs7xTHhz+nwtfc3cRwcrzK/o2Q1HW+59cI0Oq6g8V/Yms0Qx5FEF/87SDcrLoUrP9oW+ibzDJ8OP1lAa1aHyWF4aTJDSyuvr2+QkyVCpg1BDoTZEh6eUQPkqnmyYBTPid9FWEVoYZRaHgwEAIT87Kb/Bpb7reZ7sTrYeRwz+u4nt676piGLbexf8uQA0Og1/EFtzbc482HG+tCo8YvFs2Bs0YS1yCRXNkQifYnKZN7Wo8G7SHYI+qTotTsfn144LPE4ugTr4OiAtxpDVehf+abLui/Ky1suoPFIJwN0Q2KjFkQFi80/v6Tb/u038V9oKBe9f6jaexznmmrpycET8ssCoZCH3dHtf4LFjJ8HS2H6jHXkWc6ZB/w5W/4047gsU6B4E3zNmFkGFsAFrEaJzXPjVZyPIn7Q6IXd3ipFrUm3lYQxqjZBXyGIHUX253KaNU8bUya5P6wApLWTWNE4NQ9v4kyHj1UfyfYtp1EfpN/uCnjD0RpVxNmeW8P5TR5iizb2VfnSvPpUfMYP5zZFyhKncpP28RaJ9uhRjZOEmN/fbBJYGjxm582EeUmn4ybc9HU3E5mNREoBf5chhel9fyi6uQoDKDKp/fsT8ukofINIYALhNWq6i+baIsdDj3MYqIAbwsbVwiuX5BUSCfwibRuqkyPRvEQehsBHllsnuemHt0YoxH+qTk6xgARA3HyHbnGdzSugSMgs/HAzWToEqu1qXGL/QkepJVsiAQOlwP4IGjUJGwGKWSjmJZ7fvy+YCoFFaFRc7Vhz8MvFlw8yh0oS6vnVkSSOC5k5JW/FQDJ5qE5QS2c9jnH4sAaMyxkU3Ambkp7f1XyZJHe5sylWd2Q+1829x0WPSZeuCV3FDgE884y0NlwJ1UqAAc4AFuwTIQB/fY5J8X4cAQ7PaLu5oGnR0BdZSAhuTRV1gmPbHFRB8BdIW//tEEaNyHQKv0mchTkxDDYv4fKo3kh4Knw9CpP+PB3CTUdHxTfqmX8D2ZgcEBCGIlk+UtvUukhV0zS6Z2dx1V6TXcQ7cymT9/ICbKdf/MYhNWBo2lt3+pgY0lE17cQPsjIf9y68v7dNQzO/+I1bkYsH98PpoGhKw3721slTHDqPJr7sp5b8KtEyzB/MNoIlY/LAEFOGdVJG/0GnVU+H8tEuiLfYo0PGgQzjgPsDQUBsg3APs4LJW/HwzBGOLkB9pe+s/TPDnigvXEyHaAXrFuxNPk8POiIWTlY5NZba/A+7F9pcQy/yANa82Xqjwb7uGlTOBK3niHINfOf3T3adqA4NpfbBspZdBybLnKT5Cvkiu9INGPRPXv7CQ92u0M8vU92DqT6dqzcoPkS31aHQir/Xq49LMKFgjW8NKDU3VdMdXVZbuT31Q2tB4BY0JVka4xfWZWH3wA5j5nEwNKquwcu448gg7320Ij/jmP/JZ8tlk20SWLL60/LcfxP0xX8BndXwhIMaCKLTbPNGxOY3XRoSNEwl74CEDCyQs+K0a8XpCPg3GAn1HQ6p8/jj7GAUMzfiv5b/j2SWztZPowGgtL+fkui286ZodCjk4wrZ8yLyuX+rtSDl+eeglr8ow5hKEv2xqnJt4VbXSr4JLdVZxrBlnb2a0vmWAmjLNjvEHh6TcEzNXBAMPaF+5IVqwvAIfSq7S0bSI1D+VejAw85aJqCwjrYOofpcZ9651EZx/2RKKNFVwN7vTQ2fPAgEga9/9QTBuFiS0mlA53sbavC+pvh3xdt1FgtS4ompuEXN0KsagFd6r5C4aD81XSZWH4gIzgnMnD6kzhIjmhkaO6vP6bK2ddLFFkll2+CRZvSQF3SkvplHHSBgw38rQjRSnj9/YBEdPtYJ4OLyhCEOsZdXVa4P3U0zWhSIVZKBXZL3lVcA+6uLpn8kQlY69H1l8aX4iUYcJh9PB2aYm2uE49C8+MvSigfut+vh0eOKiUUZrtb300uNXM3vvhoNOou2iXcGTt5JXWGvj+ZdhJSl+P2KZ6XWCLDdpNc/mUKkZ4blyJybCKHJSrqoAe2S55ZZx1IWEPNHDHzPIXd+FvdJnaco7fAX4xLuGUlwOxlxFEGLNwcYnyfG/TB+sE2Pd7guZk+bon3SjH94buR1KpLfJKwFmHLVVEUNN0AaKqkPme07SVqQAimBGaCspnmtfiJtvZty79az2rUc2IGB8IFdQoCL4FCIjNxhoP1dyM6fci5W7vJUz8ZW5dmj4tXzq1uHjuSVOD1I8YlEVH5NK2nHzEMldw/2EV7V7DD3/kmbMsOhp8mVNnoFhZ3/DByQ2A4b7wN+izjfkCh6ik1kjwsy5RCeOlZL9jtmr91TxBf499hIdD0YkbV25nfiFXEs/yyEKoy3QO38HiaMBWhBy37Jnk1sH70eJ1IU6SAmbcPtqJ9tb8gLCipraNveFyPiKWKIcwmWFz/JIYdcb7yE96j7QIt7C4vQiVj/apZmDMxi3F23o0PGgQ0ggPsDWkjutioC/tDvrXkI31rnJLMfxA2x4itWDIfIsYG+Lf9iH78l7CqELe6H0m6/dOzcPp+JCAxXoMUkRG9fBO/qALPDASIGFHto973FCTp+z5dXMfkNKhtlGeYFmyX+J6BrsdtZDPEJUw7Ia7ffdhEAzSPTjsi02T5MvVcsWRAo4BJ4YWaLZldYEI6K0IGFUQCN2XfpLuqOBzC0qv6xeY2S9ehg2q3yia6AVckrkLYIqpaX3NDypkWn70RwitTb1F0Nl4H3Gw6bA2SY/XCSFL2Qj/3fRhORqXe6J1iHC3FqsNam60W8JR5lNbpvxo42S0YhfudMHNDOo0bjZxZUBNC4Dv5KjVv9/ljnz8CSl92+ra1h4Ay2SSYapDgxb0PzIm+avbT44/Ku5BE50XrxmGGdQARKKTFBh0yqj+EGM7tFR/5aiqIWc4N8zRO1kKMLxdT/bSt+UdhCpipprQJISHnu3JeUazOpKRS1N1NCvwwWcf+ulh28saujvc1zosUpUw07GijdSk6YjY2/S3aagF9IGiV0+fv6FoSBnPsCwq28Eadij6/xXWewc1b5yoDTkhR+kXDYrjzoWF5xoHj/hnMB7+PRy+gu/yt21Q3mm+TWZgbrz7Fmv6kwnHtnmhuDpKiYQ3gWyoG8gLWFFmWjOaiWdMr+PLNvRMbEWqA5jfhhR7x3tH9KEyRtWFCmiavmgEdAEIV3D4nuI3N1eZrCBDcB9P2756SzsiUl6CSgq2kCyADQi8AfLo5PW38SjCw53unMgDSa9fkDF690zPu7LgSS9930qLyQ41APt1Y8D6BhNGGDY3+A7ExSoI4KZSkOAEY7ZWlkKH3U5JqZUNO3LZ7jn159Fo7d/vlsLgvzB81iXDEKU2xEq/NYHY+EnA8g7zjgMv0z/QQzNwBVS+y3vgA8M/UFkzXyFGwJSu0QBbqEFhXa1VEuFHveRJNff6UYfMhr+4gqOtk4DzWU5EIYcdLSlPLaG3RdKQb6pOxX4QrqU6I2mvCaZUV3WOwAaSPSMqYhyD56qY5qLv3RrIQ6ivj9uGkeMZjId/rYvvB5UR06T9FL04teff3fdA7geuMbO6GlgX4Mt/JJ/rwUW460SuKEqAaIFnoL27i09xba3B1C3/baIX/odes98TlOK5Bv2NH7HaRZv24XScVbgzyO1JrtCUr2pkBBGYxuUOkzbsg/UVly2NTgaWluQoX6yv4NHjxysDrRjRTE591wfvcVIKHMXvwVN3RQTBW1qaWVy4ySMZYUahuhrXyoL4Na45Y6vl5xo0PGgQ1cgPsDT8vy86ayWRx71rMQ0OG5SY4Vy7kUHcpm0o+6Q/Iyv30H6aK+Nx8f2+dmp9YdXtvWXe1kiAYWTtPbgMaKnqybUhEI8JEe7ysrOyJgnlMFaWfZpwOZsOiYIpFLhiocjYnCD/wZ/3KKM98kk30keG2dqgnj2WeC6UYDHfuPJKp+MsAWHtMdu+nXoJNoSAjtUd8fgJrQN1TXyq1TQsznfp541okCZeYBOdUUk4m/40QHjz/uVCmAlJLCwtumDQ9chnhwxFFVgRJWtnehjogqC9LhGOwuWN1FzYZlHcgkjxAxPetc9q14nBBaFu44jYPdA6FiVa6MkUWn7KWqwpS4yDJWiPb5a0Rbfpyla1GRUq1L4+k2In/by72rACY3CwnPxY2wNdN2bShwqGh0pblYdaEzASohgjFe+XVuefpFulINYwNeLQ92HEUY/jN0XIhdsm/ET9iVpfU0K2psy4Rr3++o3K6BD0tutdgd108V7DkZF/+UCenyRLDr7IYE6P5Hl2X1jEpxObxjzsXTNMxEKFnXDLpDtiJDECJZDn7u6FtfQ2kapIMVRBLi2CLDiHugJHRfHmLikzbRNjw5hXzaBKe0cm8htDnEvs1bthME3YVZEnwl1f2PGxDdeVzrMuqKR1uzjEdA+4JASgLR0Ft7725uJtH2JsG8SrYR/Y75QJqCOQx5dwQJAJ5PmVtSzUrxN+LBCbUi5FDtnGypPfxB3n3ePGrKVN0tfYC7YSm0f9Nf8lKhsetLWdVmiSXcP8cGQcII8/D5i4lk/jzdMCtlJE1FdKQ5Q4aKOSouLtXT3H7irW9rM/UKBvbTkEOPMniHFvL4zdrUKbAdVAVxwfPB5W3J48eL6yR7X30u+e7eysJFRqPnW0h73YaiLm9whECNfrpLdycA/JuHUHGBT3hoJFtkt5ocU4uvIVCykrrP2tXxs0pv+RII0bvSCD7t2ae3qcYArJaeaePmfk86YyxOk36L8WRcbI+qnEdsMPLG9ld0SDQxFeRkfGeswiBzCY/RynODAncCzOPkCZOmR1YtakrTCuWSwjBGjRlmf8ibYvxu9zcjm0VFyZi5r1wOQYQcscPH/I+rPDgqwfrxfdz/mmPxKXgZ8dsjNQP10Od5s/cFq+2/TbnZ60M35ybryJ/P1AzRFOjOs1sczjh3qII74rd8yKAZD9yIGUC8WAug35dTR+rJR5ewCed1UVoprzFsTmMmJrgqRdP74uOYZNc4omABiMgmtE8fVZBUKUva5O+fVccr6psyDa07/PESPMGToYjIo0PGgQ2YgPsDXiv6oMFTo11rdS5emWXXpMdYokwaA69wW/6miJoSE8z4f1mR+q3P1C/VswJUL8c3JvnxDV0qPRQqHfS1AIltqthf6tsUqRL249hWRr7VbPsb+POQT4BacfT1vBdcBDwpRoNoEY/mSEF7cmlB+mzUvUM2h03p6/V8+QiHBwQZ/uBIWr7Bmzxq9y+l+yxeVd0NY5X/ODHBaWLU+lIYVQf8QHHu48zwt+40Pe6rD4wvHhvKHFiGvxZDOeQn8T1hSglpBVptumdsyKlCATphg97yg3xH0s+YvUduUmX2SN8Z8I8IW7ob4cxHc0goaQDcKWt/pBuOJM/NVq/jTQXNzXq5UX25yCWn9XqNdZtvTERb/kV89Sfbp08ilBX87cdWbPtu8gPgUQCfQ17FfqWwoUAlTtcZhGWRLXGb0O+UqgX6qjxeNuLcGs0d9EXmLTouftYMxM4LEemUEcwFzW+DbazUFr2Jg3iRy8l+XNjsOJlz2+qT5TEFK0KdgmRdAIfBGRuxtp6dxuHDq03mVFpxW6t2XLyocXyQFHwl7zUldgGVYTAYf+MTHP7A/1xLy16Bztj5da3+Ex1d3JpDJv0yGLewDdVB/RUw5thvXp0yZJi0W/FSvdG+GSaFNB6hN2YhfsiUaSwhD/wHWldxXo3cje4eDjCGTKh0VNgETo/aJcPgSQmrSOUI9YcoUM0Q/TSYgw808/6S9PLlwQjPsz0o+bsJlWuw/M0QHPqpnt64cqj42dFsiH+8pOnvSjNxBvmOS45+mSLrdEfRaW/kJr5EfK29bV+xVsQHsWhGhsKpnlu3HrMu1hP62CCHhFSPmbVxcCDg734zrM82uuXEgc3CWxus3FJqhoV5T6FceleRMN+alCx4Rg2mK8a962ow/+mccqexb5p0tlGwx9fEvlwQI96mB3CJtiCbGxprv8EydUJUmWnYUQfV8XYHAn3gRJMQaG/DqS7X496a8kvypxMDg72mPoBJ/1T/vdYhvi1Bz8eRYaAZ4Hb+OrDGLD8DBIEtAJbI4dxwA7IQw8eGMnfhVFtu/yZtmONzggZuStuWI4VNWafkky0GvmIEJmBh54VfC/I5VvWStrrrZmGlO7Jon2EHOyzCvFpvcIZi+ZlGurStssqUQqjDfbWcKmoPhP8pzlUMSniLvYI3BqeLoByXWc63l3ZBVPSuShGLtTPVYR3D15QmFSxVeThanzE5OO8b7wOZo72+uCgjrTwvpVc57NmQL9oKi3m/7sBYcjJAYje0/X3vBmQQPUDXTYhu4UcvL+glo0PGgQ3UgPsDU0dwadf234ZoUJqbAuZTGknd411CUUUY2ujYlcoNuyIqDtzYtCXiVMSi22oNdgG+kZ+SFVPBWrueMMSPCvuFZziRMR/L9/vJ4bOiSD0IX1Qp/LBw6TWHKlj7cJskbeuif80hS7+E8d8dE3Oy3vNlwQ1+r0I8bqTibLk+qKuQPomck8NZGqVjJGlUSERua1xXk6JS7MmfbmuGfKQJ2ZJJYntw0Z9NNHmqPwWxHqbZIEBlO4GHzPjlfSYKV4P8qdTgGgbX0aKsSUra69bb6iFcL3j5YvHO4iWteFzshZcXoYWSA1yg59TcNu9gFa2htnWaUNaHLt/550OKYqS5ZyBWaiHJTX0x/nDPaYWUIte5ltWbPUMjpuw1SlfWDhRco/GFLAKxGqUi935v+wM7jCesr14Ukfv4XMZPjcyy0++BCmtQaJgCU3QT5qv9L8/nH6TAsbNYtibapkZGdMSAcnZtqLcik+pDbZZADURXz2TkUPQOGAmnl5pZvB91cJNgYAuNvwWJJMlyz34s85Jmq17f/W7a0cCIXRpohjCAmusO/Sa4+kn1o/w8f9AYV4ERLPX6yrqkAft6AxNe/I4y+6l2VNEHrp59cVlHSRlSdq80/CXOSmEKkfyyucp6euMDIDBVKILGdDJFEBLkmCbrpX6xHDVZMGUqcyupEIOPyMf3Vut4NRsfIUsn3+176+TuwfEhXAAM4ud9o4F8Me4YnwLBAGBw2BV0uOYVT8qNFZ20r/woMo9mf4fGIFQZw/Ig702rtQt+Nqj0CAKS7RZ5qQLZPQ7bFCtClhdFK+r4Sn7lYpmN3jhUAI6PjFJ1D+X0AA6blYb41o8djOZDeEYDugzTdz+GYT/t1gIxPZdDJTzEI/IZ4JK4pqUblXEHYAdApqL4RGpRUvCn1zp3CgRP++eNw3dW442sOTuBKIsU7h8mztKcC08Nc+jQ+a3jnpwSY+4o83yZVyPXMju2qQUh5YdFluF7YmaOvC0JeY6FLjEL836AZVn0L+nIKAIO98VB1ZmEOjdbXEqNLM840SH+InWmhE7EO3BvdIhPEeicLQcnBrgaAj5Pro0NtoE9UuJja/S5fIpOURDqAnY77fKABYHZZ1NU2Mc51srNnHz4AjmCiJPb/hvskk1ITVcAQ7lHOjA5jZnGWpl8wQYxQ/GpToJjx9QpdVFHx7uBAsZ4Ii6AYqmdUk9eUWI4d9ZJNE7wKOWUg6qkSXONhh2xzpmzb7v3TWIJBAtHwZWoAAJ6PL5QoD2+yJDuyD2UM8ZChDMLX66wo0PGgQ4QgPsDXqVE3KWnE9dJgjwIkSbTWVSA9xEt5Ebn6fZwQx39uxfQL/hZuXLAdv7q+8HD9JqM8+hMPQm0kk6Z4MsUEGpAu+B5iWS3874O5vUj4yWcAcQiD3sWdOV5cp4DTm0E/NvHsD2DVFUpho9xPwpwGCVIRBEUVSsvMRB4oDwRNmgNd6AAQPpG5E3cZBHnQYTOY/6uXE0u+cUsRAwxZQ5ZeRdHfQc/Pe+h3aKZSzYRT0lo7e+q3uG+Q6irKoqnGu2Exve+XzGofeocNhqETn0a49QOCeiBjAmcxHAFlHtpT1tXtA1NDxzYJBtqpJAnIobJq5EkK/4gR1zBerNeZDP/+Wo0G+lr2fQiX3W1W6P8zTzV8/FkHx/fphAWONNXWh4qJQjKblDU2opVkQ7eB1/2EpCywt5VMR/ZFuGCzrexhNs2v1vGuLZ1TLVWk/kbyJyWvcoy1/ldTS/Xt8jIMMSK+Up5ODWZkTlGxcnSMRG5H+IHg1R2RyZCSAqc+t473WrQSCVZFbUmxND/+E+V8lypqKkV6XAWIXr/1V5QjYgXzobyJnzGFA/c8m/omCA9K0bhuoT+BRJKNoj27Z9xHjsGzEJ6iVDmlEjkeLkNp4M5HB9tGwMtzu1Xb6Mfdl+9claMMtfoq2euVsdMfabLcQI94WdqHjYm1UV66CjvXg5WGeINhtT81HdvdKW5dItN1df1wnf9TXsq28ZJZNGCfBODWK6QM20t5TNzHq/Qr9Og9kA0XNWSZxOCGcUjKFTyua4q8Kk0lzBepunE6T18PZdUMI5rQlXAOHQLxl2FfnSujhqaooh7lQyXxWHg938Zh/DgrJawZVJ5SfL9xSGbJaH5QcKxE16zRd4TGWiJ3z95ktgS1hbAvlV5GLFdlnlf2yR+aYoGNRkrR1agPjJI2R2dirUb9mZydc1Ce9JQdqDT5WIyCahfmYNYIhq/6KLzpceKRovbUiAKZZuI8Xvg7VYP9FUswAXBL4BVZdDEqyUcZpHFRO/9Wd1euDjFX+VGOwnwxwRSWlhp5FqKf0PWSPZJvmPEMn2fD34wKTrEOsjVrseeaF9dBvOEgrkU5F0ONSr47Px/34UJDw0dn04+ul6UxNBiw8hHmujqbw4TDvADAcJNkLoLd2rR/X0HVTi5MFxov4qXqT3F8ljvOyc9IqfRuzGWgTbJc1R3Zdwp8JDe0pkCvDzrxTXkS3k9HcdTzx+nTu2KF3AzBq2eVq4sRY/Z0BFqpHTA8O2seAXz8QtySY+/tgXl/3o/i2s3I5hftQ4bYcgeo0PGgQ5MgPsDXixhU+fmBLFwbGtSaFRFSgKphukBX+dpm8BgLt/NuoJE8gCjWwe5yiSrScPNJEnzvSEXxNsk7QBIR6gs60JQUisAGwC9k065VJNEKg0vbpqQTx31hnfZhHPmtMiB1HLezmk4ksme+XD2VA6ym3hWqQEnGP4T9BacNw6CX0iMhXSX698utkpnfL+uDUWK5w9f78ONX9gINRtKKgeF9ryclauWN0mqPFN3EbU1Kpb5Ijt4gbuOgI5gmgLTnvQMzKnPc3sDLwpRTg26Z6aflYTOjOUv4BqH1NraIOdFVeQviTOkpL+GCSbc63V124X5DRas9wzWdjSM4l2/TAg21wQcQfqJeBX2R+9W5T8QWgOCbVGMbhHXe6FlId6k3u3QTrQTCBBCClefaCQNCX/qXDa4gUBcicSWsuS28LF5Dlok85VZaQl7Jxs594PYZFowTb7Xm3OhnieHJK2r+0UXGO9/vMGL4uFZzRdPnVITPnBSn4MzLAmg9iMtb+heD3JbiQ4ZXPoAAkbN/V0u7Cc3Hskwe1M4isJYaniBFdPteR3TaMj5DTXFMrbiVEBFAQnBppOoGE8EyQcbokWQI3VhBoVu8OTGFqi1jBjqAE22JRt7bbQYGzipVwn5eXsAxPXgXnpMz8dRtjQMCsdFtcFoLhZ/gjZXucQQ694gvWnxI0grWy0WXE6xGXOhyd2WwAiSle/inE+LjEpI7/jRVUNS8owzEmegwfQGPGevouq0nu32YOmSzOYBUHrKaY7lTZ/IBai+jgAqCzuGN3ovp2ChTOsDpF6pjHJcLUjAw8uBjgY5bSTQ3W40pjxlUce3cBJkPkOlspPq4aG3WJpcrzN/pDsmhN01J8lCBPUuaXylvMTSuodv6Vhq4YcfGDgf6ZE6RLin18BaLHK2I8r7YCfENY479h6bI9mf7Y/qsb1D7UqGc576m/u2qXd/4tDjtCO7DJl2lKyY9vhv1DC8C4VWhewMlWefFHvAldYRCPMbsb9EE3y417bJQMYYTmFpiFo3RIKBHRYfJtByCcOMnZCABqr7xwgsgudpqIGgfR/wbYWyM/HJ60O53+IGQ9E9VS7Jf132QxDDMt3MtLVxDnHJS5awIycz2tyiBEJdFbXV2bnGjMqQw+h3fSM0W7z7RTctSeQ9hxWoOrdBD05paJX1dYn8R+Nesy0UYvxm9AQezrNJYBDOHQOxHOyCLdgaJj6nQ2B/n52E4h4kI758QAfjTDvRVR3uGC9RdqpfAgv6/Vm3DT07Au5ELRTEl0vkL6++FylF""",17,,,,,,,,,,,,,,,
,,,,,instructions,18,165463,0.0-7.0,k3zw2gcrjev8bb2,k3zw2gcrjev8bb2-2024-03-20-17-02-52,861,,"[{""page_index"":0,""viewing_time"":861}]",,,
,,,,,image-button-response,19,169966,0.0-8.0-0.0,k3zw2gcrjev8bb2,k3zw2gcrjev8bb2-2024-03-20-17-02-52,null,,,images/stories/paris_story/paris_story_1.png,null,
,,,,,image-button-response,20,172670,0.0-8.0-1.0,k3zw2gcrjev8bb2,k3zw2gcrjev8bb2-2024-03-20-17-02-52,null,,,images/stories/paris_story/paris_story_1.png,null,
,,,,,image-button-response,21,174475,0.0-8.0-2.0,k3zw2gcrjev8bb2,k3zw2gcrjev8bb2-2024-03-20-17-02-52,null,,,[],null,
,,,,,image-button-response,22,178978,0.0-8.0-0.1,k3zw2gcrjev8bb2,k3zw2gcrjev8bb2-2024-03-20-17-02-52,null,,,images/stories/paris_story/paris_story_2.png,null,
,,,,,image-button-response,23,181682,0.0-8.0-1.1,k3zw2gcrjev8bb2,k3zw2gcrjev8bb2-2024-03-20-17-02-52,null,,,images/stories/paris_story/paris_story_2.png,null,
,,,,,image-button-response,24,183483,0.0-8.0-2.1,k3zw2gcrjev8bb2,k3zw2gcrjev8bb2-2024-03-20-17-02-52,null,,,[],null,
,,,,,image-button-response,25,187986,0.0-8.0-0.2,k3zw2gcrjev8bb2,k3zw2gcrjev8bb2-2024-03-20-17-02-52,null,,,images/stories/paris_story/paris_story_3.png,null,
,,,,,image-button-response,26,188675,0.0-8.0-1.2,k3zw2gcrjev8bb2,k3zw2gcrjev8bb2-2024-03-20-17-02-52,689,,,images/stories/paris_story/paris_story_3.png,0,
,,,,,image-button-response,27,190478,0.0-8.0-2.2,k3zw2gcrjev8bb2,k3zw2gcrjev8bb2-2024-03-20-17-02-52,null,,,[],null,
,,,,,image-button-response,28,194982,0.0-8.0-0.3,k3zw2gcrjev8bb2,k3zw2gcrjev8bb2-2024-03-20-17-02-52,null,,,images/stories/paris_story/paris_story_4.png,null,
,,,,,image-button-response,29,195648,0.0-8.0-1.3,k3zw2gcrjev8bb2,k3zw2gcrjev8bb2-2024-03-20-17-02-52,666,,,images/stories/paris_story/paris_story_4.png,1,
,,,,,image-button-response,30,197449,0.0-8.0-2.3,k3zw2gcrjev8bb2,k3zw2gcrjev8bb2-2024-03-20-17-02-52,null,,,[],null,
,,,,,image-button-response,31,201954,0.0-8.0-0.4,k3zw2gcrjev8bb2,k3zw2gcrjev8bb2-2024-03-20-17-02-52,null,,,images/stories/paris_story/paris_story_5.png,null,
,,,,,image-button-response,32,202624,0.0-8.0-1.4,k3zw2gcrjev8bb2,k3zw2gcrjev8bb2-2024-03-20-17-02-52,668,,,images/stories/paris_story/paris_story_5.png,0,
,,,,,image-button-response,33,204426,0.0-8.0-2.4,k3zw2gcrjev8bb2,k3zw2gcrjev8bb2-2024-03-20-17-02-52,null,,,[],null,
,,,,,image-button-response,34,208931,0.0-8.0-0.5,k3zw2gcrjev8bb2,k3zw2gcrjev8bb2-2024-03-20-17-02-52,null,,,images/stories/paris_story/paris_story_6.png,null,
,,,,,image-button-response,35,209565,0.0-8.0-1.5,k3zw2gcrjev8bb2,k3zw2gcrjev8bb2-2024-03-20-17-02-52,633,,,images/stories/paris_story/paris_story_6.png,1,
,,,,,image-button-response,36,211367,0.0-8.0-2.5,k3zw2gcrjev8bb2,k3zw2gcrjev8bb2-2024-03-20-17-02-52,null,,,[],null,
,,,,,image-button-response,37,215871,0.0-8.0-0.6,k3zw2gcrjev8bb2,k3zw2gcrjev8bb2-2024-03-20-17-02-52,null,,,images/stories/paris_story/paris_story_7.png,null,
,,,,,image-button-response,38,216559,0.0-8.0-1.6,k3zw2gcrjev8bb2,k3zw2gcrjev8bb2-2024-03-20-17-02-52,687,,,images/stories/paris_story/paris_story_7.png,0,
,,,,,image-button-response,39,218362,0.0-8.0-2.6,k3zw2gcrjev8bb2,k3zw2gcrjev8bb2-2024-03-20-17-02-52,null,,,[],null,
,,,,,image-button-response,40,222866,0.0-8.0-0.7,k3zw2gcrjev8bb2,k3zw2gcrjev8bb2-2024-03-20-17-02-52,null,,,images/stories/paris_story/paris_story_8.png,null,
,,,,,image-button-response,41,223512,0.0-8.0-1.7,k3zw2gcrjev8bb2,k3zw2gcrjev8bb2-2024-03-20-17-02-52,645,,,images/stories/paris_story/paris_story_8.png,1,
,,,,,image-button-response,42,225314,0.0-8.0-2.7,k3zw2gcrjev8bb2,k3zw2gcrjev8bb2-2024-03-20-17-02-52,null,,,[],null,
,,,,,image-button-response,43,229818,0.0-8.0-0.8,k3zw2gcrjev8bb2,k3zw2gcrjev8bb2-2024-03-20-17-02-52,null,,,images/stories/paris_story/paris_story_9.png,null,
,,,,,image-button-response,44,230611,0.0-8.0-1.8,k3zw2gcrjev8bb2,k3zw2gcrjev8bb2-2024-03-20-17-02-52,792,,,images/stories/paris_story/paris_story_9.png,1,
,,,,,image-button-response,45,232415,0.0-8.0-2.8,k3zw2gcrjev8bb2,k3zw2gcrjev8bb2-2024-03-20-17-02-52,null,,,[],null,
,,,,,image-button-response,46,236918,0.0-8.0-0.9,k3zw2gcrjev8bb2,k3zw2gcrjev8bb2-2024-03-20-17-02-52,null,,,images/stories/paris_story/paris_story_10.png,null,
,,,,,image-button-response,47,237606,0.0-8.0-1.9,k3zw2gcrjev8bb2,k3zw2gcrjev8bb2-2024-03-20-17-02-52,687,,,images/stories/paris_story/paris_story_10.png,1,
,,,,,image-button-response,48,239407,0.0-8.0-2.9,k3zw2gcrjev8bb2,k3zw2gcrjev8bb2-2024-03-20-17-02-52,null,,,[],null,
,,,,,html-audio-response,49,257744,0.0-9.0,k3zw2gcrjev8bb2,k3zw2gcrjev8bb2-2024-03-20-17-02-52,6152,,,"<span style=""color: red; font-size: 24px""> NOW RECORDING</span>
