success,timeout,failed_images,failed_audio,failed_video,trial_type,trial_index,time_elapsed,internal_node_id,subject,audio_id,rt,device_id,view_history,stimulus,response,estimated_stimulus_onset
TRUE,FALSE,[],[],[],preload,0,10673,0.0-0.0,1srppyg4ssg9s2u,1srppyg4ssg9s2u-2024-03-20-17-02-50,,,,,,
TRUE,,,,,fullscreen,1,13832,0.0-1.0,1srppyg4ssg9s2u,1srppyg4ssg9s2u-2024-03-20-17-02-50,2142,,,,,
,,,,,initialize-microphone,2,23528,0.0-2.0,1srppyg4ssg9s2u,1srppyg4ssg9s2u-2024-03-20-17-02-50,,e35f96b4ae441331c5591e65d0e26d574cc427b665d7e7740aa3e8cf4fb6cc24,,,,
,,,,,instructions,3,28739,0.0-3.0,1srppyg4ssg9s2u,1srppyg4ssg9s2u-2024-03-20-17-02-50,5209,,"[{""page_index"":0,""viewing_time"":1069},{""page_index"":1,""viewing_time"":4140}]",,,
,,,,,image-button-response,4,33242,0.0-4.0-0.0,1srppyg4ssg9s2u,1srppyg4ssg9s2u-2024-03-20-17-02-50,null,,,images/instructions/movie_1.png,null,
,,,,,image-button-response,5,35943,0.0-4.0-1.0,1srppyg4ssg9s2u,1srppyg4ssg9s2u-2024-03-20-17-02-50,null,,,images/instructions/movie_1.png,null,
,,,,,image-button-response,6,37745,0.0-4.0-2.0,1srppyg4ssg9s2u,1srppyg4ssg9s2u-2024-03-20-17-02-50,null,,,[],null,
,,,,,image-button-response,7,42247,0.0-4.0-0.1,1srppyg4ssg9s2u,1srppyg4ssg9s2u-2024-03-20-17-02-50,null,,,images/instructions/movie_2.png,null,
,,,,,image-button-response,8,43007,0.0-4.0-1.1,1srppyg4ssg9s2u,1srppyg4ssg9s2u-2024-03-20-17-02-50,759,,,images/instructions/movie_2.png,0,
,,,,,image-button-response,9,44808,0.0-4.0-2.1,1srppyg4ssg9s2u,1srppyg4ssg9s2u-2024-03-20-17-02-50,null,,,[],null,
,,,,,image-button-response,10,49309,0.0-4.0-0.2,1srppyg4ssg9s2u,1srppyg4ssg9s2u-2024-03-20-17-02-50,null,,,images/instructions/movie_3.png,null,
,,,,,image-button-response,11,50278,0.0-4.0-1.2,1srppyg4ssg9s2u,1srppyg4ssg9s2u-2024-03-20-17-02-50,968,,,images/instructions/movie_3.png,0,
,,,,,image-button-response,12,52079,0.0-4.0-2.2,1srppyg4ssg9s2u,1srppyg4ssg9s2u-2024-03-20-17-02-50,null,,,[],null,
,,,,,image-button-response,13,56581,0.0-4.0-0.3,1srppyg4ssg9s2u,1srppyg4ssg9s2u-2024-03-20-17-02-50,null,,,images/instructions/movie_4.png,null,
,,,,,image-button-response,14,57261,0.0-4.0-1.3,1srppyg4ssg9s2u,1srppyg4ssg9s2u-2024-03-20-17-02-50,680,,,images/instructions/movie_4.png,0,
,,,,,image-button-response,15,59073,0.0-4.0-2.3,1srppyg4ssg9s2u,1srppyg4ssg9s2u-2024-03-20-17-02-50,null,,,[],null,
,,,,,instructions,16,64888,0.0-5.0,1srppyg4ssg9s2u,1srppyg4ssg9s2u-2024-03-20-17-02-50,5815,,"[{""page_index"":0,""viewing_time"":4029},{""page_index"":1,""viewing_time"":1786}]",,,
,,,,,html-audio-response,17,95989,0.0-6.0,1srppyg4ssg9s2u,1srppyg4ssg9s2u-2024-03-20-17-02-50,16040,,,"<span style=""color: red; font-size: 24px""> NOW RECORDING</span>
        <p>Please say out loud the list of the actions you saw. The actions can be said in any order.</p>",GkXfo59ChoEBQveBAULygQRC84EIQoKEd2VibUKHgQRChYECGFOAZwH/////////FUmpZpkq17GDD0JATYCGQ2hyb21lV0GGQ2hyb21lFlSua7+uvdeBAXPFhxRc5XCHmd2DgQKGhkFfT1BVU2Oik09wdXNIZWFkAQEAAIC7AAAAAADhjbWERzuAAJ+BAWJkgSAfQ7Z1Af/////////ngQCjRCeBAACA+4P+Mv0MffX9NiI22MAT2DYqjhsuGDbryXwdU1WqR2W1jK/0/doOgSisAaRoer/IbbEdz4Mk02qsGtmvv3PczK7prevxBaIKwJg+wTS/C7RZFpcxjusbjZVwjVMR3I8GtX1k2VE/OedRnczFpN4rm2zkxU+pIV6qNQj2tkaLmxU5Mq5nawFmg7/8bKkxPZ3ik05BHRgE31LbX61NvcjDdE2KxYn+dLLTu2fRbd3ArD9mYDYnr83hgPwZVyOFhokhje0oLNAJbySB4MQ030XxUAAAAAAAAAAAAAA+Q/PB9K8CzhUMLQhFzBiZyuEWDvyrfW9qTU6anQoY7L7+yryS/Ngq76b6JVB3XcjHAmgtHW/9EH2HLG7JeYFMxfLdBw1x+Z775SrwhDw1TXeSTiwUvQO88S8Cbevsxw8UN9TdTjWvbDwgxNHf3cXJWAHdt+8DtyEZVj8m1seFPLNMf89GXgbIl9c3HuT8fxr9IlLeRHO+OaDiMdVJa166XaUG9NkA/6ftU67nMEZAsGOqPh4UvMDLTSY4LJgXtNigsegjvMkuKNjPpftVeJhuT3+RrkT/qlVGwVN2F6D8q5G5IgtVfTcv0M1iVI1iYSXQdWE52nB5SREearJbAK92DdQHv1DNhxkVkT3J0ImM+jgUHK1J+hG9sGbs+wQFR5IlFDLvxvSh1HDJVxAiNs9oz35Uo0OQChOVf+J6dQ5ylFs6nepKCqpCdtFzgu1eRzJO75KdBDHDz1jyVv9+39p1ckdvNea4ivv+rGcO+l4bR0YzGLWRb9kY0zLfY07dl6S9GubppEFlt0CQnTdhtjhbpYzDnuGViTCtPtPG8LjORihlOOuqJumzC3+3ugHH2hlOjwUkv/XUvZJd1qvPhc/OvTI57RrnvqywzO9ZHILqh/c+HKSEyM1e/9ymmiMG98mVRy+5Z4k2hBEo330yO1HOGoFYir5faK9a7qC40ZqT9J7KHbBilvYwdQtpn0SpnMYZ5ZtOeOl+Or7+zv9duZ5hLNYheRBuZJRc4AtG4YTQGodEVP2uYqMr+uulbfuFgNlXO6DFLb3zA56tqxCDGglvrElLhSDTu1QOXVjTYkRSHt6y7If9uykBnfQOgXIxccu65mmG2FaA0x/LzT2d3a7iqPXcYEaLG9q4jR+jaKHdl8cZxSLnvwANzBKZbV3rHA7XEYdvfFL3IQX+5L3zQQ/S4104V318okUvccqZDzlX8pWz1/KaLs7fz5vsbOGvlYEhoFw9F0XiQD/l7ngWl5ZMePvLZ0A2fUs4Ss0+czvLhooRQAmer822CUk1dAprxP/K1hL9L7abFibocxVg4CHynjt7f4wo3NuyjUeVHAOKwH1OvFRPu+puasVV9ZxNlneLG3SJ6a5Sts+LRPMZlOYzxNIGojiZrteto0O4gQA7gPuD/gv8F4Ex0AORcrT/LgMVW8C/4FlAET/wqzodZGSSQua+1cHcISc5sramtcHDCaCLPO+U3Mthd0eXIxDf5/wv7adYbUEBZ3uBcS0WD3sxPaviePZoZ+LWKaHA0ZJw6Bq3fnWU/7cI4h+cD6EGy7qom0vHdI7Ckq58j8V990GbMz+fe9YVVru31sU2cBVBzPs7tZDId2PJzRA1F5j3l8g+V2PHD26F6fzySYizkJpIdY/vOt1vN+FVzahUNJwVrhX5TrCaN7s6p9pgT7u6WZf1wnKKQnGl+LsYk78igm46aBSM1SJLxW7jewbOPePzcbWeClRZ6FgHhInadGJ8AEyBINcwZ790EsnlKm6+n10aQPanFctSHpMbf+3HysBvPBLeRNBM50ebSeVifrXgYURkEOw95tHnTjpfUg1shNVuM4uHBSvmEilwEHdLwsG6DS8uHxAo4Z3Eu+bHIv4HixaxL0vDc4YInnblQN+y20kKCyXYZoLrxIoQXNjvSaIF09mIlqUuHKIokP6BZ6X019a2KzddYPaPFfP0B4/buoXiZZbdtvQKEORcrZ2BoCaUlfRHh9fPWc9BV5kzoYmqqcGIiUrsygN9bL4AO5X/+LlfrlCt0dX+ZuHPSRvGbp3NBVkrC9E5znSLyl0rQv6J8vt9scZUZyH03aK6VJVXV3BRfl1hlw+V/iD2PE/i0fm8QPhyoKmV6AAcQGcMFvdttZe3dfIwgwhFxGPawYhFttr78ztg4mIdLTM3n3hj4Un8HF9neeSEDS6G87GJ2x0zJh2Hqh1lwkEcP0j+ApTs6KopSYPcrHXnhoQprJX6rViRUhQm4QoHBIWrMiXGOxYtteLjuT3zsVsJmIGzuwCKgvDyUvxICd9C2n7TpmPgQgCQ37n3dUhH0Mx/V2DG8UAKrAvuQVhEStm2ltEV8JuDcUaXXp6dVyeLpaJlu1lm7FJk76U0PNP/JhM9zpc+rrpnXJKZg3SiKVOgpciXWYxIh165V77+lZ+WJs38YvkLU4bhQeMnDP/1XKbYf2aIoZe8crxJOti5Pzbwa4akVNTXejJx4xt/5slmgSIccGdzejAp10f5z5vEadAdIf1J6NmqcafHK9S52Sm6NWS/OdMLn0tZ/czk3pVDtfmegUXwbB68CO6YI5V8nLcFDInvKMvZJqrAkBIqp0Dymuhudsi99tLd1CIgRACsM7AY3WSWUOxX2L01DBiFJGNcUHvqqdbcVQLDev0xxVTn+nahMSo1XK5VmXuARKNDiYEAeID7g/0M/guJAtNWyTRlzaBNmq0z0Fw7u7gG4DZ2qmtNt7GEckRDnDKj6kv9s9gpukD5CMh6wXl6UZSaZqnzt2t8LY93zQ24zZkv+GXdQkO6LEldm0gBvk9qUlzy2all6Fib6NnJvpdOBpn06dHcXer651DzT2FNnNEnBX1dQd2M+xZ3hsfE21zC68VRAdBWvpQiuq3PcfTM6jm8hQ5iuJ05OMONHCMp/mCLXaW2kG3eLAxRUlrmtoJ6fcfbkrAj1ahkhzSG2jfFAAQzMDEv4a5l6knfdWnGiMHLUBZg7HyHRjlvVsRw5KLzu0RQTY64tpxznm51UWvUvGEX51uxVPXpUTZhNvCAsFrrFRdKvY7T27lDvPbKBP2gesY27KY1BDYdxoGcyfhdoL1/BYxYKfysTtOwJPUo8PBJoP9/8iLVjASDroaq6YXPwlwvR7xpk4j/5HDRvYLKW9wFZmnHiWGWIYQrQOGxGa4ZB7vBrZsKH6Qgjg1IsVAT5W6qkHHn+W8IQTQ5QJhM0Isu0ZTgweJW60CBJWXgUoFxzgmZfXt0d/VeXKt6WeZ4U6xGv1Q3pTBTUIH9Hthi/ig4MiUClvFxmUSpa2F4UbXL5gpE3NtQM9woLK+qWRW6w7E8XrYqyhUYW6EFbECUw12T3RWGm7NrztOm+hcft5RLHmL0B05o3xXr7VChUZCijZ+TK81ARuCwPIFBs4wtaEf6raNaeJVPJxLFqx2AdZhSSZGl67cFplHNzkt8J8Ov/wBfw+fxYxqpZLdmo17Wt4hOx9z+BBEJtQIQhV9NhYEi3bcRQWBrCalxALke0b0jkUIglpGunPldudADLe/+mnL/8LDngFkZL3ZopC1vuMs6ICDho+IcuVBWSIo8vs3oBmogT8uX20Ou65GzB+DZ7Sg4oqIH/Gfs7ZV4KUDFtW2el9C8ZvehTrfDWkoh109iMVRGnHVJqYPMRsDiNw7eH4JilrQyxLDvFgyCotu8+lix29YM9o4jDKTw+el9piSv19EUhIytgdltPlxA/O2D4lKCm/N4Oq7sowjDIkdncpQwt5v4o9k6oNv93Y4ZHivpGM/rIOLx8C8w+fPfRuY4WDTd2TufZwfBi3WCLP8kvkQMkTQu5GHIkLQP6aPO+TrQcS+zOGkGJdsxkv2LGEyFx+C5ig93uz+aurwrqHilLVRZoAMN3n4E0Z055r86o0PAgQC0gPuD/g78EWA5VW+SxOYJSlAZTG+LZ0Qb8u+75RHOxavTgvsk+vjjDjQ/g+5If6+8eVn6NNp/ktzIgXuS32wvPbzEvAXzb/t43QzrWGV/BFqyHI1NZws0zP8rba+6bQOyiAnc8DPOHEl2R+RYf56X44UYXIbcR87YpwrmRuiyd9b4mOjAdeYFXR7diRGiEbmiHoHS7MrBzjdFFUwZn/Rfy5HfZ7MyxVD+fqVgqYNkJr8WoSBkrAzAGzdtdt/oV6I+w9nAQRjWYnb3j2OcE/zG7HjKcKruqWGMPAOiLhu+Z0pWDPBLzPkn4W4cw4U6tRuMbs8qvW2XziF0dq8SX8icfBuEuFieYi2T8Vm2ow6QjKgyqz3HwNtsKVOhBI3xvonvIYkXzzJaqdGaLUeYbZq30Rb0ZCZn7EmQxDTLDchhH0ahistqdZAk2bM47Yo5XBtLbTBL4IwRxcQN3YV/6vbipyBOZJL5+sgT/SMUcstAG5Q1qsEufCPfR/9jhS+G0xACzjrkmAx90nHtrSWsnawkQsUiEvNWizNeIBkAm7sDg1GB/TD4Cw3+ybAfDKaUJvZrvmQ90JaFNaI5K5IB7EGnhrJO9wDq2TsEIH9ukIDOyXJ4VxgXKCO647c+wPcxVm2/sIsZMJmNCxqqEITLOWWl77kvhOnxdNO1nu6LBqeAp91yi0BmUimWO17BUDzbF8O8nPuulK0T6tZdO/wMQjUqt79SDhX4kvochN7m6HwZgC4fZaWTwjImWSC9bxISL5CNMRgYZygP2b7b+lOhF/9pACL6tqkr3f06kcee+scgVUaEDC4/wT/iOOC1eR4wEaPwokm9NcQG68TbFqR1W2GGvixB1CC2HsDhcHLkn8ZiIvAWbiNP9ABsxbEFP35svI6bli6RKAsVeN1fcxm08SSsUo/8nyBseUKbHtfboNYb/id0/DLy1uhwORXond749ML4PFP00jvYo/7DL89Gy/cSVXfLSQ2SC3Sr3RAv7EBXbUDalCnjSXfGvrJRahuhcui+nJNKgH5qc6nax6lOoFpoutEjbkRHX5KHFBxwrYATcRGXde7AzbuaW95f5iIJIo7VGl4PBcPg7Eq7woLFnoqOELdvMusXLgPOX4XzkwFO5zzs1r9k3fEdvJu8COgy54JpIFipirHVRLUZ/iuhKIs4jS5EjDAKUUO32764N7vuVeA6hMIMOXBTZPTUem7Hzv3QKUwXlscMI9COUGWqIWn8upGFaGUCRQrHy5j+1CTUnsV8iY03fK4DKjIhjC/Ao0PGgQDvgPsDYbWZcpycdVYmVF9dKX1muIKAmFnzZPdrF+cGkeRvb8T3OJmR8XG4nQxxx4SL+pinOPLb2GEPuXZTPDVudfgv5tAIdyB3Av72NmvhQqYwYBjWE4Dasn42Q5rSDQv0JCpi2koAWhMTCnbW2Lo0SuY1TedSZjhSA+0CowmrOkYNy1Y9q2C5fG3T+5ipRNFiW0+7i6lUI/eHQy4TXyPj+DcLRF7vODyXJkGCrxlRbxXUKg18cLVnWLg52DnjpumEOgfn2gPDPWNP124HKsrejDWsuKigZv7Q0u5ByCt637dNS6kWK1GhfLagZhVd8DFeu1Su+f9bqIDqFey1++++Q7cGpbBszi5i8JTgAHvNFqTHAqVOjEGn+3fccXLm+/d8/vUUaPLXXoyb8RLpuPFKBpBJMLu4+GrVNHOrTScSFyMkPxthu/mdksKROayyqY7rU4w4yhhERkpwG2d+2Trz9Z6Rpi3RJyW/qI9B0bvpZRntHLzvd9rqgB0Rg2j7NMS+FyUo0NcAaH6m8Yr3QjsQzkcE8+6w7Q+IfFipYKSeujw0Vu/h+IDl7PO4wd7tPJs71z1wzfRupCpmzYv4K5dPobCHNoKLbc5Y2Ps5sa4uUu+dM7fOjqxP9cAtM6DGWnrfEiX5toWqiUDYoHTckMlzoZmrJnUNaYAd2A+vMDGI3dn7YecnBCswcSQu7s8s+upHVplcoaLEsvTrdS0XJ9lcVDPbincYzwPGn8J/5ztBDPoWEKtXG9nEkzmH+Of3g9rHjY+dMACsWXwHaKb8JI7P8TNYprAnYbTx7jVL9N5mPnawHWt5rqGbaP0J3rpxDzzAL3Nub4zk6w7lYBjrQZGt+im6NWHR2voPfQbFW1LPbhAc5FHa6DTGC3xn4leldDOxT6gO3qPYSmckgj0yGWrgPPzKznANLFSvJDwpaSD9+51OijIJEFBjSsT7bU+LF0PwzFGEwyD9u9YaKoBAPEWsMsVa55ewOY888iPwXbK2MxLj/75IyO+2CVCG8tXc67HueUO5qM3XxxJPDisrRBuW1aRlIQ3DN9czZ9EbTHoDDimGuHBrSC9lJHyQwpUysYDaKwSJqtHmLDFgNHj3ccDoOyz+BvdFgL3kLRz7jdbMNc9ulFioSjLqc6zsBnA1vzgc/NO/SwP3GzyPFJvABjDSiQSamSzT+QDvYuVw6RG4ncU6xj5ZO+bVMHmSkKYegWdnslzsOm6usA+CI9PCEdnK/xC73fDVS3MpwoyNyuwtLSUx0SJhHTsrbmM4LqFiIBTbO0heo0PGgQErgPsDYbpO5dOWLR1maX6C1cf4ZCAoTpJlhuMecQyoIRQO0FrIBZRA1cJnPSrO430sR0VpR5eMWpDT3HUe4I07BtJsev+6FpSxcqmSq1FjYi2C4An4bzxr8EBEWRWrK6AcGJr4OxegldO6U2ZXjowogIzQ+xW637SK756MKLqPQshSQ9IzZWzjFW81bYkao63MinZ3BDv3iK7QrEpB80GOAYlo206KOh3BPosQ3prSs33N5Dql3IoLyucVdyeq5kBpM+T9nsdBI+z5a+pmQuzF64Xqwj/phgSvpY+kAdWrZhgHD56suXwMwsqpR8QdwJ/e88Z0PhO77BV7Cx7kEzFcraaVpqWAb1cBv4ziMLJ2BFE5EEk22Qb1L8uipmDiAaRBlopLbyyL/Q/ZvYfABZZTxDcIyugoWKf3GCqY/DQrkQpfUS1hu4q2DTPls0+qInTq6wke8x6bvarDau2aQbZODTCjMc6AEuDa+Ldol6pHpNyWwqXWTzoKfVUlGVzzYispdJ/N87EounXB5iUxtAgmzqbrWOhYdtfo1ZSx8522z9b3bSP83FRBMT7f6cVkKQCFNQhpyS7fk4p+bBxeJl84A0VL5HxxzzHydoHbA6LKDb+mjry2fZeQiPEGINBlHJ8ht10iJU7mqYmnngKrU5ZXmWBJuUFGDdQpjinYvG7aXZ89RhcxneHRWm/k7ONX2oKZoijPxM9Yf7bUalyzmD9vt5R2iD5NPglXYGh4W5NHD9hAsll4V0tkAgsGuIoO/QAysuPeS+U0nE06ibc05Xnr2vOZf+CMSFOgJw3GUzm0Wt6QI90O7944XbYlAaUOniR1AiFYojjlIujl8hxcD649Wq56VGG7iwXTtn443D/iEDOqxAeM9SCDW9PtXMleP0Zc9uYH+PIUiyq5Pv04kO/43foLd2MAScz7b4e8nQhmMZLOSJEMa/DERbkE99aizd+VXY1IXeusDBB5cNB9tU0VRFrXubg6q+3dAGnA8hrOI4ME4Cl43HwJbqxEiYn7phHLHorqM/v0BTTJFO+b7G6U0V2yInFvcHyCD7FKy7q1EmwyzUHVaO+3XlokoCcYDJH4WGZhu0kD7dfRF+AgAQq7qr3APpYINtu7mO7+T+9/Smye1xHSM+PbRSV3FALYvK6aOCa+SrYmREiczpG+Vw/LhQD5QeADZIacqVP22vZEUm8yL5sg0wq6oEh+szePj71cQK6ap+g/JfWfP4Kjrw3e5h3qHn6znYGvEL+1VZ+9wTLIf7HW0pnj8WtvFsxw52SHqyIso0PGgQFogPsDYbTbVC5Md4sg81EtnQdws6ysu+v4sUyQAulXyEGdPCWAqZW4uScMaUgmcNKsMyTy1vLo4JnKRM+Cxcxzua6c0ZWMe9mcCWf9O54rI2Z7PyDA0j8irtHfTZBruqTiHNdBkkcjMKSif2HKdKFdfrViZL6d4exGPY+C+ufnKW8n2jvy2Qb5OSgVv20q8YxQ12OCfpTGwJV8bqPzBL6Rf5qWv2aMsQUxFTxg04QSePf3ErrfVGn2jeqzUs90+0F3p3fvbGyljuCTNhA9OMlGSdCgogB/u1BpQlZXrU0wszKBPp24cXNx9vGpcK0zrANnMgR7B7kuKvd61kad2jnLjoLwu2MizKm6UNCr4oK+PvyxSfuUj3b1XsdTgzZ5DfP9M+6S/43EoUxifpjLLLecgRQP9kmUKbSLnUwIOT/qQnOsDONhtGICblpR7DiEPnSHD3siK8lXM+dntpUb143+NY31vN1a6Yhy5aAn4Gi4Pq2gpQiNalx/Z423qXx18uqmAx60+6Bx0Sx2OPWkKcqr0EKX8QNgd1WNspFWjAcSzcp65XT46Z8yp86Mwc+641tUaqY0p2KIai64gi96aD3/5UjAZUuStaZy3HISBvYpJBHqOzkAKKPrEghEuCfpynsCOume51gpmHpBnpy1wPwBaG+KjNHrRB+mTPt0VZqceKnxbgDu7h/WQ/VqP2+SS0ZlYfA7j2nQqth39QCbrUTFyL8O4l1jB3OLcP3zxsHN3kneXej4bULcaCj1ZLhT4gk75kj8SJ+0t9KzzgjyZnVZj5cS3pYhndFeThr01EiJ7dVAkTzGdlzNv9EX4mvwkrcRByFKNq7omp9QqxXMBwH/BvbqD2G7tUBmL3sJh/0SGcX727ZyTYrqpl4EH2m3fDsc1O9/iiScJN+oMYw8R97zanPFl2aIVjKUPZLoFk9i7g7VsTx4elbN8/5cq6tbqhZWdyqkhzDWTW9lLa8kXOrMGwXrhBhzDBGCa3yKQXW9bVEq3xsV/efKQgNkma6PFK41D3xk57ypvojyUBVjd9di+ff4Dkp+5oIitHkD6U2+Rk10KpzoPd4gc6C7aYdd0io7zDEEDiP/7E1fI64kGVPXyzzJyH6TCbX9ViU9BQRiLbiUfMgJodFRu9QQ0498HOaZ61Zj+KFDRJirhCprFRdaCOgQLTsZADqFMU+kTDbGfinIhsA+1yQG4+/kUwGA/8kXxsP0ReMqCdzKhrtfPTcz8CGPwvOsGr8EWAQUTK4gPtuqTz8nWbm2qsCXCxYP7C0mw/h+o0PGgQGjgPsDYYXzz5l76RYAURAEfRJzrPMAOVZvjQqDGgM6f2cZvd3WNrFoHcuxX4QY4vjwsQbSkkToEBnJ88dJuPFkE3dl7NwsGPW3rCKJnTLh4NgaG8T/g0CZnWO0SEHuX+/cEvF2O9+om8qatIvF0hLsUF2aYF3fB4PVj3dJiDhhvgkNCF4T+v05FWsxsIsKrFu/hm1ysWUdtWo1OaQ/CfzMKV61amTo/d/C8Upb0ov/cGXEbujXKd+eSQMT0QDVznZvIW3W7LHzwzTr0BEdnU8jJDPt2QXYQG+qd8DZFZRPoEs3+vEybfjc1OePCa20MDceD7ECUOCZ8Qs+jlKteOkVIjb8YiZ78WF9k75R0dDR5oE4H+UkfnE4TRfxk5kzO6/lzTpSohWiSb3OxC7pMZ4n3VQRTOmt1ArgkSNz2zOLkgdzt5thtIb8jgRtpH/fMEKqgmwieE1HxdUOJTJFZ9QYS2ohTo/H9LM3wUl1dzlWJP0NO60UcgtBkeRSXEl3u3cF+p2Yor3kxU/S1nLt7k2ICbq+THThWEt/j4Qd76LO3zcR6uM81BETN9u1ozLUotsy+PVPY+7nPUWISSW2CuBBu80JjBZzsPa4g/Fpf9m8B9tR6ffVZU9299ast0XRpN/Ut73yRkc6Nnt1jjAKfskqVNDd2gDn+By92PjdVgfaf1kCzzoVphzezPagrGLtQnYMx0eZhwFCd822anPh48Z8wrP5McjcMZrfqWay986BiUq+iHOmMIv1oWkEsxBHvh/Vs3HZCo9m3xsRYsVFHinZLNNb5n73J1Dr9Fq1aN1yLpIQUvtAPhwGIp3V/hp39UVm1t0pkY1qbBLKTgXoFCvV27RaA2G7jQ+5abtef4aUFeAKVRWnkt1j4OwBdBaOdtBlU/ikAQ3i3tD1rUqDPdNSgf8wf36D1L2Tr0RiUzRQ17uvBi19dSiYz+zS2JZwezbB/5tpiiqNS45V6t6EnRXz62MDqZwj0yffJcnW/4WZJS1VhpdL7p2/eFkm7l201Tp8fbLO7x/EDdB/JIuOEdPkipdBRw3oJC5B6TWLiA+sbLooaLDsV94U9KPs++roAmFAcbrPC5lwgMN/U6y6ziCRs7Z4B4jNE7XACxmhzlKaQwjbMVfsA+TKvqRfWFOqxoqZ+hshhXpdfI6amUuTSjhhiDpGntwEgXuleFzdJopS4MF4Zz/vnx9hHEF1+badeR1raerxdzpBU7P8u/5dkt2YoqqEnLAU8rCz1+nOTNCFU4349xFAqr7THaXUA9oz6z1zor6ro0PGgQHfgPsDYdQLYRwioSejqsUN0yhZwv/rU05lj61wVJmVSrx56y2Njo0O0MNu208b1fxLN64riHpYaffyWklmeikHAo+wlQAyrQRS2cnRDhtmdPPYLbusHqGQqUm26bM+cjsEW5kS0PaFcYV4agn2DENA+awvkuTn55t9mjrjLMAoh8R4A5MX+gXiHbhpOoanyXZyK12xci7RqmPUpCLcViZbU4vRKqX2+CeNxdJejR6dTgV4Zbepiu6Mg57hanMUp17dTCzGoGNUm8hTAkbFdxlYS21hdx9a1NsZLieu0s3m/WP6r43BocyhxcV231XGVqNLEuqXVuiuQO9nf5v6Lb1Adc/oHqneJkcwzjLt46c3/F6tXVAAi1ZCIJastUxuC1DpBrnmYkEkg4akGU1cv+BzmMnHhEcGJaMTLr/r7uJTSrdRrQVhtEblYgz2c+lGXH3J8ws4bFHNILFgFp+OaRA/KVs89QXWIn0SGDE3NeIf/qlUAoOP9mogWP6i6PZN5el+dqPGiXEcE95BUmK8EViXjzg2oZ8UiHVKTMHqM0NSTjaWcIbg8JulyLPAxqxc6dFeXY3WkXQZnrp78+5WmpQONU2JWOj8v0ptZe7umns7vvjpSo4owohraAQzNZ5B6sioIKcP3vLbIZOihQU6UR7e0YMtbnf5E8J20UDGmM4nSImCnzzbQIZfgX3fNQ4sgGlMW/HAZPIJ1OeTU/0hCJSYdNz46GDkouKTx5gX0tuYKd9pOuCwsyPmPoQ2ar3ow9ODsDOMGyAjJuUy+iyG4//4uDfLJqAPZbsYWR+Kgy8gTN9SsmLsz+HevfvzYbGy3nIdVsPEGESucOziToHbNZPVRYxHIGG0WpI9T0yF3XiW2jaIWNlty0DaskmIPHS3BEZHAj43LCKRZZTIPxqmek3rDNAmyRVOIoQY5SWF4Jg3KMJO01OjddNuclKHjREyhznzgaluSpn2vbs8sB+OuKuK1DSVYRyr7dIW5//9tfhDlw+AxdfpDUSUZwHPwvA/AxqL6Cd00wb4dAJlZnO6M62upX+fo3V1/JJIbBnvJUxTfm2FVuynO+O5NYBaQlkroMTbjOvZ9A49fgZb7vcp2UvVR8zX09MRZ2XQ4oYpw8g+eyLmfVYt4Wz0uu3sooF1SE8rMPTGauf67JYJmFBt3zti4aCA6PfcpXxnTSpQ3eFu5jxCjd2MvOAXfQ/ExIc5UCVL6vZS2kF6FATLoz/zMt4fPIDaX1sq10taN761/eR/48x1kJsbgzMVpBUIdOhVT+b3v0odo0PGgQIbgPsDYbTS5t9xt7xi6CRH18xRsXQFdzeLMyeXvqrmucAvTD9jZ1zKlvC0yESdtRyJbqihiPYvr5pgwbd4rsS7hpsYx5BPa2BjVipcA6IQQ7qTKVF6xWrU34XXbm8If6xo2oAuU8TbvmPuSD/Rs7RC9xo0TOCDvzUzeHKMNwzxaTAU1TPlI+gYeRnc1Zoja7O1CtKMMOnwdxIwlTpt2qT3t3S9fcbafD60Ug6DDC6NlIEuDsNJBKZE19b8EimebWA4Tll/tgnv0Ce+jsE9dg9QL881+Z3f5w67Mj/p2ri4xi3hrHehV48F715ip2pkBmyiJtg8OIf4r0wJwv1gWf4ZQRoIK09rcHeOUZVoC24mWwWge9G7Wt2Nr+uQ4/PaX++0vQ62kTzolgbNLZf6Nx3XCWJkXdDtquO08mmE6DTL9/zi8sZhuk5j30tkDoiVpgBFYSH7IkEfLU+pMSZXG0cLinSkxbjBt+jHJZaqQX8lnq0uRaZQghFZLdkcy9xSjqrsDkfYCa9SgpY1XW5zWns2UPkj7I4P9Y/EBdmaaxXFWs4WmOssy6e1oxQrBzfonKhMwV4vW6xhZs0S18tEXLrW1OEhLaKTBRJi+IwlrsrsdmVnNYWifrEfUycSnh7NBgcENacV4hF9D4WwH18bAoODCw6O+fwX/XJTCGqRKwFVqXERTlwoHBIgRvDczED2R7E9VpxvZYzd2ZBoJ/naS0/oktD4V6REbY2usWPzWutLqhJTY8azNl4zkzNH0V+Xtt0c00UqS43c2N5Ktz2XjXn9AiFY4qAAr5XgIrQVoZH+ASW1zdzXlXq66RjnDIKYKiBPqIDwzqdu+huX23TmELDPbF7t42G0XC1AhS9lqXTugroGEuTCbxipCoZjH0ZQTliHp7lvERHyReNExUPWmGCt9d34hiQIaFfX2zFgERF0hY1QHWnJKc6Q6GqdcgApRCyOzfwKBDCxyFnZWrug5f3i0bIUxUute8/mToPl3AMt07XyuInth1Yj9gPFP+bDzrNgvfh5M2L8cJVtckZR3OckQ5fFCHpQzXQDCCQbreWDnFjdi64nT8AXVlpox5NWfELn31qnMw//35lp4LtvRt9731r0E3sywKr0HSKxzgQaatPTnKh6o3lohOmT/Q3nNiBOcSEk/sgv+neVl684wZ93Ng9FFRZYcdKHZQS6qVyGvvftz/IsTp6oPXfGSDIc06KBiGjTu5V3UXnsx9i1RBcxZ06cpjzEKYKMTAR1kaGuQMdyPHPmAd3+JgBaBhlCMgCZL3Mdo0PGgQJXgPsDYdCWDm0GuyraGMMQELsNeS3NBAz5eH4szl0fOMcb1NYc+RFph5bKWn7sAQpydSbb0k0zTB/KQieaFE4kc/SJMzkz9vI0irR21PRO/zioKiqwh1kdWPS2h2njbTpijK5ErOmlt0OHKFHUL/Kd/ol3FkmVq0+SBJN8JAq3ymprzdE3acDYx6UACvYpiEW8ljVjI5FVYVNSW9J6Xqwi310jK2bxVFgymMKAHf4UVnrodF6Crucxk7A7jYvlSshjZcdERoG9GrHonLec29kMtgyQ1b3jMOE3SHTzRJTLd94OMUhS3f3N8qWR3XqepAj3qeKiUaOJQqYNwKVNQReSlnUP9JvGiyJX2mZ44K/Fy+R+9R2NH3FY9FxSMD9363PmnBrKSOy3tZfnwwAv92YT6q8O5+rwnD5fKmB2qUN9t8/oWz9htFqRFe+sRz2ANlVmCceKXGLK9yYT9H19mOT9Oz7kp7C7tt3RoIKTXXy7UqrUmRoC2k+zIbqMwaBCUmcM0Ollr5BY2RFmSd+XKcxKJCbIZNLrztfBc8QQsfl8wMx5sceFgFSlx3eL0723a5SwYJxlX5AoAYUSOxVOp8aR5TSmOyFxVqNxVGd7OiP8HCZhc0T2b2A/mqml040+9ufCJ76MiFMCGAFOl1kg5kZ0JWApcSN6OFXGStbh3VKaoQLmxkHpFyW5mUDJ1SkUC4MEdnyjT4s8qva9IJRmyLZfltyFCUN6iXpehDcprUTcQqORWdAlKl8GALxr6SNSunBcZc55Rw/0yKdWh3twTRkl5oYO+wo0g90rPbI4sz51GqQ6iHPM45huzfnCgu6YiNfx/i5TekScuRj0lXUGYJOapO9njmHRhet/957EC7WET2rjNSjsu+jbSaCc0rPQ9XvSJ25KGDWycr41khsFk1PxzufF52whiqqNcKv5mDt5aBqdaw9QlugDBBo/s0D4Q92RlcPkqAKOSpnkQ6qc2eI6h+5I60/uwmSiTeuDdPlaVSyd9jhRKBvmFODf6MvGRLB91l3PbdjpXHTnhRmLykdKJuWZmmIyheerUvIgxhosOnFV9yEtGr8ubW8nwVVkZ9kNdkV8mbxZCaamjiez7Ut0vGNRS6QkVU43tMvwBZXLeGE7EAwVckHh3yk1bFQfXW35yMAkcVTG2fv/fel5tA2KqIlPt+PwBN8flzKuNZ5FgTHc2FlUB6IexiWADxEi5Yk65Fx7fofi0fKeMOGrUDRSsFHgOeXodGOp5iireYrhGwr6CgVjxtDXY36w86pD31gW4rqio0PGgQKTgPsDYbuELFcly+waRuqXAQ5cDv75r6OZmNH5n4Z99pNN9rl0l+6HAZvNc2bCqHvqVkrfxjfMsJSIr0+8AZAv5KxoXlYP41DEQVSY0oGlSn2XKvL6xbJ2u2drdXVRR+1kUwScqQPwZV0NOgnHvZrnpgZTtszCyXqidYcKz/Nw1iT72yuNmV1h3aq3/cBuMH5gxJTy8k8wY6bRfKTRE4iwXA116Ob1N4+LrOmSI9gl0e+hpfwVOOU/MsRrjwTePkllInkhIk3rbsEGtJE0vbX3kFccerbPVhMJ2scwNU2IT0ZiiM+Bt2+ijMgXBYD3ymP9lPjSKhcDVrJymlnebb/vscuLWoUp4owboh2hUU522hGYtaVwhJgvVcB162WQyLCX3YgkJTW3z2F2P4Ej8dmzdGWXOBRKWl2VtNn5GAUIWo4d2jphuoxMMuicbKSOhW9MINb6lG1SlLrmuh5xV7IffWT1e+opugTAy2sdXa5oNdowuarmVtOWWwn+Y6hjZTiFnpyGjUBrJk0AdAOf4esshwltbc9qBmO4B0Uw7thpAVb9OaTuGP9OBtOYp+0wDmHBQzUCtQKHsdazyfXPhalbZRXm8wcgZaNlDv0qJK9PD4Le+YBg74DYGhsHS66b++2XImf+PWMPT7GmytDbQXgJiidN5Kqv6p//UOPbKvIE/2RBmuFzFD79xfdnB6CULq2YmvUr3b6fwPeQQdzwgmKjDI+XzMmM70JfrdKSKCYruG+GWld6T+POk3MwzpY/UZ3MXqFu+Zn66CkM3Ld8+ILZy92RPxR803WGJ4y3Oftyb+TgbdyUBGQfQtW6yG7LKHOM7/IHJp4oFVxYumOpQPG9FIOBnWG7mSaxO76JkD42LdZGPntIF5kp4d+mNFa7IrfPNGF0H657FAKObYYxBtIUzzKOF5zjDpltqKAUqxAjT2rwefxuQMYtGkcDoYS+36/AkLUdcJjxBelgh34UvQOIKGCjm/WGepzEDJLyR4OtybYYAfqERMTq/L+QZoPJDRO+8wzuE6H4ig+sRczJpcMyHG9Y4zpXzckoCyWNCe6OwFd6kdlptYGLHurevNVsXut8OUzGEOuEmuP1VZctcZ6SR6R4WqQifYdOaEo/SLqdluVx02r/pCdf1lrnZqRss1pboKrEPLe360XBD20mjPahxI/r+Btw7d45OsZxDqBCfZmmGQAiw6zoMDe7TyrinC1JtdYzDzYPHO8GuyB6MdUGEJjPDtje9WWlpbP1N9xXiczf4S+E3UAOoVj7dPhSx95YDapho0PGgQLPgPsDYbvByPtoeEOVQiGo1Euzkr/hDXTtcS5AQq2/OtDf3nGzbY3S3J7EkKfafArR/GMZ85P1cCTNVT6Uz47D+bTgNgVM+Qoq9VgRY3IfXnaH+3L+ECxdP2+AusuYaAHl0DcktghrXo3FazzzxkvrfNsnhQl5akOpRSC4z52IQcraOeA0j3TFkzkfTyLsPpiA3uXPu+wPa5VPhTTKeBO8LV1/B3oBeBfYT1SrDtdzjNGbb8sDRq1MBD4xxHb0Q2eDHtf5ryvHDnO9Q732a/ECRZojHQxwwoZd9l9zBlbEFZQNHpxND4COag+mpKfHkiqFeYPMX05Ow3n0CUE3rDECT6bjn9eAnSEEg3BP9gBlF4IykIWcJy7aZhMPdtqbk9si3tMlX4tkosGa7YsYqqdVnIbDTtSyDab291KApzCq/r9fmCBh07J0eg9vzdjgnaZzhJiCLwLWJgCDNhG/9WYLTTe5K3Cwd3T2YfQPVnQFw9H4wJAcQnmNhh6vVwY0ORc/+JVrCVMXdThmb+sMKkVTNDq11xX1LtyhtHOYnyek13DtuxX2T8fux4rx7HvPyfjtV1tLdWDqumb6W9qjNIDRCL/RZP+AoCOQ4g0V32zDHvgL0+VrH7DgtjBaMA6oZ2ns5lEgFebxS1G+67amgviU6/UPoBQOd3HNXrCQHhuEftJX7Gy9FPM2IobMf3ytIogslMGjJLZpTTiPa21FUEPE+IIJ8PXSpeKZ+Ecf2VwgAIQKVKDs0DZxPxzQJeFQCx0HE+8wm7K6aaEfHPO8foz7TnYSwbP1g+aRg6/fZMc9k+TxVGdHkiFbf6Y4KGcPG/NnbM0dudyHG7jTbvgbRRXcR62VPmHR4MqWUZa03+WKMKWnSkuFegWqA6N0g1r8zHWsx2FaK4RHtNboEC4vGwABvR3TZhT/Bpb6f6biwgzy+/t/9b7zxpBQFn6fh34e+VM7vem1IU8KeCn2+0X49vYt4I0Ku7+jM2Hn48qYBgdMtQdqqRx7PWHjD3bLMQ+8IRu30NuuapiLQoC80tSHX2XLg4yzEs3PU5ddjUAaRITrTz6gNvHwy/tkHKQMkjju/gZSQxunZ+i6Zp9o6pi93puxIIH3QYyLAt9k7v3lAWL8Fd2Iqe48OShjLxX+SVZcmlWL0CofF0YButu8ZRWvYH4ItAIzGswsrRZSk/pCG+eYzp1ch/gK4FyWwjh9dVj7ntRg5dqmtZ5emskZr7gIkAyk+nD1+ZUZt9N8RPtsohNIUHEUBCI9x6DwwOmIctW+751UHGxGo0PGgQMLgPsDYZL2c4oRe8j1DhmIr7NTgEx5/M+TNSbGoYZdNYy1BiXJoRlNaekoYdsDwx/7yDI7myL8Rf6i+YzRXHnicN8alfzmNPwyeBmtoDDOD7Vx6Anl/iBOndNfV+DHmL9THT00eNmsuou010HnmUg/XRuZrkgrUWqEPsF+Mw/rONGehwG+ICtFgZdgCxklHbkRbxC9ZY5eal11HJFwiIhpUVjqbR4c+Hg8RFS3en/yI2GnsthaostzXgZtjluXl+bRK02HDaOPkdx8XIkchgtMJgt8Ikm9mqo3Nh8Aom/KRTINbf0XtaCDJauDCzPJUxhT74R8gbCjMTEjZNn1BiExV7I6ZnJMTo7OgMUZqEBq5i9xe8aMG/BENZdM/ZUIESGeHg0g4wL6WTMc274gjxh4kZgA1MvFn0epuHiDuGywMKX4VwmFwjwH5tkKf6LTfyYu+ezJamX+GycwJTyZEhz/q7akBxxmHv1j6qLLIiNtgHMLXQ66EYuYgSz1BRsGq1fvnSPz1jSqh7cdKOmK/MMUZB9AOykn0RnIk9o3IYdTcUrvnlRHhLW/5tpwfXKL4IonOz7GtA549cYXjO5RjP/rAN0wtYClKeLVq1ews4eSB9SCez9tIK2cpfNQ7DTy5rOFacnedYEdYR3iCMmhw0QuwDmkuQ2E3l9V2NZDP6aaRhSrMV133M4cPqlLmLoeL83IjLI3MhkHm+cXSQAJeXooMwRt+FM/poNQg27Tm2w4FtNM/J2tK9Qf/r/LCXCxSs6vZmuiIufhbN44ByJKDu4Ebr8b4rmy0VeA7uv18APCbv0EwcgGjPPojPC3cH1DOP0fW+dHv/6fHDZ1rzt2f0CxrDmEUJxRI3Zb49FxIyJtZTEqWTMX6b0XitLAC4sq68s+Xt+rrgOYfYfJh+/rohqNg8MRrATG43c+zzwTYwIGyg5mnLGbV2I8Bzc37seSA01Vd0MPufFqFAoBpK95mNgis8mDSy7IIUc3TToBl860jg+60z3J6k0xLkmBiKvkTMUYHjfmdn5UPMDHwSqMWeQDlSBTJBTDtP2prFvWnQGQ0dLZ9rHgkaYtQE6Fy2ZEp9AyB1uxcbLGNfyGzYrJ/4vVoQxPeAQUraVi94hxKAXIyPqqNiGAFE3SNYVdDdnnieiC8WkItciuISciBIA6vwX/OZmmPIpWxwAHjXevsihyEzOiA79zbxecQo17vGsnpeWnvyEmod4tWkwfrUxVQOloYDBDHc7j0000XdFYJT2qVeLejU1U4niLwBPRjpVWJDt6OCNgo0PGgQNHgPsDYYj9lbRZ0wqiLD9N7EJbxFIYPskivjH0jRi5fmE/VAACUilx96wi0EGKnam8bZyjYVbZDl9ocv5G1TeQK2eOYD3el7PCfIaPyE4Ggzf9bkKS5E34vYq2BoXLK+xN9Ve/ndX24DQP4YGqK30cwnmC3pWp/HK/kSmCdPXJs5C1S5adJATf3z2rwqe/9xFDMhB9qpJJcYCfiy0UR+8rk70eaHxu9V8a76iseq7r6byOnSCW7Y49O1s4HUQMwyzM13hhMjczMINuP1rnaeciYeqMmFcvrMrWxjMXLoIfV3jnmSNQ1R/KtUKDIwavHQcPAAYsFcqlQHRL9c0lEAqwuwQ/Ddgoh5eI4nE3skNNWj69DAEOPX/yzdQWXSVWfh2bykGWjr/E0jy2XKXaKQ6RvD3LS9ItNlubRoKIEB/x2WHJNI5hiR2gmyyf6iB26efINo1xZaZhhsI61r80Yl9KeILTNzj+XDhFfQDy9S3V7WE2TSiva8IWmhN7TNVPpPBltEDzB75by7X3rXkCa9jlxk3Ft9U65xQR5jVspwmwNJ0DliduE9VCJSRMZEHp1w1NWIpUJoKdhtPe+WMBJ7xsfKpTRaFbWPg0ZggsmBm+Bw466WD66OoByYYdHXgDKv3LC99YdAdKIKQgddYz1uInDRfAUclPKkBGMoqm87tYx5IhCxs0llpyEf1wm5/90K8UScY6RcqqFrwEKX70z+ORO0aO/KBGq6a1fD0RdBD+jVHatatqxJG2OZV4kJqHwljdiXizfd2+MtFjTy0mNMk2nSs8fZg1LncJxr4dzUDL8ncQ4ppaOphAcGz2jG740s8v7WMSK22qVSuReBs8NM/FL2tClGGS7jdu0qe379NyLpgcsmSo7X10ngtIg3sJOY/xsziJonibggZUSDyhfTrKMjV+W5MmssO69OAo3/HpGC45Wc0ZhF6YQVBkrW+91iAQ/wF9RJ/bF61Ifx99kz7yMOlx9A3efz8PRwZKKgoEFXr6SMo9qeWPHAhTZoULwLyBgivqhLLqJZ1YX2/5zwBguDDxBfVbfgNqxHrCBQ0GjlSir96VMt6t6wq6grkseifFqnPkW5wCdbeJ0x6dw/tdGYxatBPOY98QiNHCp/ud5DLyS/pfePZK5fpoqOjpulBljbgC12KC6dX0cy13O+7MPvkH/0eHqZ7Fg/35Gb5QBvi0uqX4jpARYx7cdmTMQ76B+llWeQ2aByZOXcMR6aDvSj1DZ84PYlUGSNpXwHxo9ZBmAD9bgRXGcMudKSgRAyPXhoZ0o0PGgQODgPsDYZLtgo7bC77AFhxREWH2/NUvgRwwDo1XaJIgCRMed1rwcY8eri22q4rMSV6nyNqo2i+SWSwNZVsgHP98r2bCqoLN1oGMkyx4EjWq+hYd791f0K01Af2ukS8nXT7O0bTWWyVBlebq3A3Tpk5feReM2A9tfJMScCt9b3GxBNJuSyXixo6WS+8i5vYUPzxICl+XCvD06ZALIjUx/yuvj0dEqN+S5UW8sIj7ZE/T6wvtys3aU7pallV7hHhnWAE8ONYP8iHj9nRuAKM0G43WJea26fW3joHVTdq54nm0PgyRcnV8Rgbj8L5SMIzHHXR/wFZBaHkkR05Q3+VudEV/jX92zbWDq8S73aZuLVNYmkpyRUQGGMSaOqnvmmRub2ShuRlKX3S02aqUy+m3MaSJQbZK8dejT8SVf0712iWJxvWHs+phulWTZpJ036v7PKyVs6pA1rufinb7jq0IGDfNkxPsV4Z3kGGtS+8oxAfqO/b9kSm+4jx0omkuS8ZrpsAyCYE9ITd9rx814J26PNJhrQOFvQuCGxlOeY1GlYy5HCOHxQEyZ/HiHka+NOJO1BG/c4t3OVc+rEDdFD7w0cEfXgu+4WnQ+gax/LZx0PVl+5cr+9NdNwilFcXtFmMJ8dpjOxCwTneBOPgtzChWGEXGJK27m6jFZbWvfsf+LUyuP29GYd5oyOpuy0DRRwu6TazHJ/WIG6IMEnEW/Nv7KbjKj7EHfEcl1TVge1d9LhJHUB2ZSnmP5NfURUrHOgj7vseSaQOAo5mWvh5tv2iHvKGOv7DqBMkuMxr/GFoJNuoXHmWoAgcymhwVqnRRwohFEt5fkeanDBVS0/LfJgcZVDgvGcv1DmHQIM4I/9K/TGhquLVCrgpQjqW1LUXJdtjzFB5Sg946FYOmuYIzY0s4VVTdpIcgbfwJvnYb+oVkXrVnQweybV9UFW7ibs3jwobj8r4PHfaI+055CpHorfBHevmEYnCJjKHXmtVa2UvkUZz1S/8CPeoeqq4+v5WwfeUULXYiunGcKYYOxEO/qop1LVP7SvF55j/j/+uOwF7mwVhY4VkAUqAXHSJjRrVS7FheHAGHZBtz15kZVXzNWzK0ERfIm1Xa9IScadeRN8dVbS8B7zR0qbtSKr1QEbcDVJ8+UnUYdSVaiW8NJcSqEdtRdrHL2+yQRKsy3KhCdxZzSBVHsaMCR+asE2FQSxYRZc+Oe8lJr1S8tioE8pmmsQTOT3qIA64wnedSTX4raHkgezz1UhlIiLL3PkTQaaxg9+sxkBeVCbzWo0PGgQO/gPsDYdAgzdTy19kQo032KBQEV+9v8evFLJHC6h6uyES7+r+plTeagwqDoG7io5drv0gyzb+FN1hBzeCSy4tj4VMYD0SnEK/qz6zkRBEKy9ZgqQrUaxU4mMp4mjnChFTPnskNK67TCwg5sxIw4Nn3oCUzFx11403rHjBBfuWFzB/rmTmxauy10/9eXOM8Khmjiu5lRXmVKwsuNvCUTp7xCpvKBi0qtt02v1YILjFSpqnDJxg6zXwI9OMmLmK30wSlYBoN0XHUqgujgBkjh68BnE5EdddDeu+AQ6nX/zsmQ3gJCAyAaBo6/7ZZts9zCNk3cvVB2y45BiyxGMfXNcCy3HkA2xk+ZIV6zN95FOaxYroOvFV/3+fFUnTDfm7tZuGbF0UoupnY+viIGgSCHx+l77I+mdm9FemYEoX3GQ/2UYhtO85humONlsg7gJqUgd95EENH29b8Abetk3yEKGg+GKoaPC6Wjb2cjWuDYQR6ome9Sqi6wRjiVha8OSlX1Cga/xJjmP0bBusm+tg1FkTQ1qADh5GMMIBaHkqVFtvniZUB0inA0HLJcUCj1yo4Og9wPzZHTHZ2z4dcN7XmmHb04voK7NRpN35yE3pUV7PoHeZwkhZA6X0eLiRzvSyfs8SuRWhJZ8b2XZSCKIomnvtzYqhsGaD8fOpRJORnDFA+BHUf1KKzy9XVCf54YGIBlYxiSb8TRGW50LMPpZzqgXwgQsO3DwAIjoEK/zsnPLofJSdl/1+0t9XdCdBTrz8YdJuxVInYW4Y2mzacjqJrVEJh42PmFchKy6CQfFAh1ntzhM7urL5NGp9E5c6D7gUc1LA2iLV3MDblGM99GIJ6IwXJhChEzGG5llxomKDu8W2sDUji2zZGJP179WeA63+t6N4Xn+PDhrMlQYotF8p6/OxSjS6cV6lQ8rvV33D9EUPk38Tob2D5Wk/NS7KgXUYvgM746h8wm6HccAoTTiZk43nccTihu/z8vFLFwAVF7Cg35E82YkN/sNZInfvt5PQ7OJcdeuMaiHSbVS58C7v9TtK6gxbnfsz3iglj1MoqjKditU+ZjalPP71XKGph5YY31gupIAB7q/g/GloBC8G94NNlJLb+sgjfAzBX1jEHiguaqPmNs2BpluMD5CFt89zl0cvWLpXcSNXU8Sq3GorVJ2/qa67iXGqlvtuUIvHQq5Ub9zZ9qqFZxoYOlKPPLiCv6tZQkt8yfOfzHs7g9k8TtZgv+UWHmup/m3Eo8FgDsuPKVLGPlGV5NcMD9tZgeSly6f6OtHnfo0PGgQP7gPsDYbqBDkl5Bm96eSwZdXvsW4msEC8ywdrU8VAQJa/3fcOHaYbp+gQgcIwkSamLZ1qEP5xiKgUetqOsLQuEVq2DceC384BlTUrXjTMTPpnvFKtoaRzAOcKHMhxAeFvJQjCYiBYdGpnLzXUhnPMtIlP6ldLDGj1AMtx1VhDiM/W7nIv7EpoaxHZlr0MQXKILoPJaSZKJAkKYQvF8+4+GpAuuy5HN6p0lNyuqSQyxk/zacx+3VUpy01txEpxiFh7sNO6Lk57KCXMFTjrou/8XuHQ6hrDlr/QBz8ibmw63wOwiVz4iRwCJpj/erVsVZ0HTeRx3JrRj4QhTavXINwcB9l9r4mj/vUck5l1sFa+gBUWxTPeBQo+4RLNG4GEVGe+FfZrfuSxOnrEYQ6MtjiBG1KpnLBILYJsO5NERlsDL+ZimAfth0Bu70BiyEsNL4hTTpdFiUPpizmgVkR8lX1+z5TJpWs7Owl/ck7NXsaPdid75lcaD6EGE8RErV/AqbiT7GT68sG0w+c0aM0x/6RiTVAIxd1SLigaCXMR7mX1jzQ2bo/d4L5DGHRWn9UV+PEROUdI9gANV4szmc+C+EVY0+8PE4FGlut1d5GFtD6FXkbd03QyxcHj6eJlThLx3d5ON0bDJkl89p0vIce3+c+HcYT8AIBBuCpNCQxFXw8idpROvUYxRrOEPmoylc6jlnJPN5lK3kwvS+/fMu5xJfZqTOCQ0k3V65l6F/Pw0AZTlxVViETkCr8pxC6EWSAN83SUGXJ7ESCVGP3ypkgu2CoLC2WAJAkSVZIUVSvRVFYNO1GVSKsyn4zirq2ihmPyOfW2CQK8yI5Eloe5sp/sVoC+/+nLIp2G7ltPjFf0jQYPwhxFvs5Xbjtp1SwRkU2++Elr10t4mXq1G3eQNc2t27m3aoUNbkxxnCJBceuuRtgQDB5b6piWNIXDbnUsOW67LAJSKhAY99gctCzV2/LWthsESoZx9iVkHNIw/5iRSr2FQZOJycagaU1hr1vdEMJ6TAw68YjhwrzcPvQm3wrsikY2gSc5aOHrEvVHkq6K5JwONsucul1Mbv/bDFr6ZLwnGomFragFgcSncIHpzPwakXSSNXEaH+47W0U+/EQHpi4bF9MNURwJr+HzLwjRkzhhnXvHHvcK7Ea2tJ6LmNTvtsweXGdwWev2lL5hKHo7lTdYsJC+m8WnISIYqwczzX9OZoWNIO9IX4XRt/4s4faEgn7evrG3gPg7XeW6IuHq+NcNK88nd/w/Xlh6lnLPJT7byqrhh/8RLo0PGgQQ3gPsDYbdRzbQkWA3OW77eaPAXuaMzbUEM48wBQnp/N5RarlbU4+2Q83OqfZkEjGGh4RV6zcJDk6tWwZsiCBz4Ia6e2ZTKJ71hv5FYSsnkdvpJZ5oCD7QlEhF/KjHlTbPTTfC3+I5r8W1UbP0ET3+9SyJC8fHwDnrEljuYd2xdmk3eH6J6oxDnnU3DT9UgHOEoQFbMCfbfP6zWEmO3lmW9VdWC9O3DZNnRzF8wK1x+5qirmNnxQX6g7Y/eUakvFIL0zNsQQc1QFxZx1PMhCGxDcuYNfJ2EEHJftzJodNYviY8x1CIqCIvqkwFKllFSMvMsdrSf8cq9btZHnN0PnV05RCikFHpGDQMeBBS4Hthao+hRm5KQ803xqJQlBSGaB/ZRDyY3mu9hF8hUe60HCf5OOgVGz0xe5wYaPSIV5U3wL2WtRMhhwHFKEBp2ICJ3djvDHk+7aYs93BMphh2dnWoMipNkt6NTsUf1KA30P5n8PnLZ28EdXa5lCXVpBwq/TAREgP/JomDEFZXegDenLKESNsjBTQ9AKAp+3V1cgjJxozxOkqZe9RRwAhW4PumE9nqdyf0l3st23532nlQUAm1Z1cKNDaYzLMOIqZZFR4pbMZI33Nr3wNMoaXKSg4P+BRfST20MtFk+5vjZRNLq4ElJ6r1dEyS5E8m0sX44WMzWGCiwr1OTmQybUQllH1bd2szlGiGAXVKLKMSdmavMH9OTGV/DwlcqX93QFkRSEYCZLcauLyZSYvLHmakxWNkDs8OAEpoRePYZRa4a3H0Y3NpTaEXRb5hN6ppdgC5T7Y6iY+NwCzHjkA7nbaonJJCfw6wQtkynA6X6yy7EX+TaE6EMaaPou2HTjgLAzecvB5jw8LAvLmrBArYEPwNODZDhg9F0TqOsZd9aGzRIGmRRoX7mBQAlU1wBU9MR5HE9ljzvyIbxWw9zfiG6nhcv82MVVqYfjDgdVAVkz4h96fWSc1FBBVpv5uvVphSLPBRhTCOEm2D2yDD77vSXdOwh6CyCltsqH6nuJo6nsTV/H8U0Ee5E8sCkZnxYJ9++vNDrmNeduTHKhS1nKMxiuRd6k5+suz4eFkYBiKWUBDWypoFd69CbtGN6C/kMcGRFAzLL//FSf96In1NU5m1Jsa4pUPjk+aQyqrv/+HKr0wBer/8PYjHjKdWdGsdkRa7EiLYDihrHle7oT9qlx/9yg6EqzE6pMJYLEubaZof6diWnw+c64yIJWpokxMyV2bVRbnV2Ru/NV2YY6MfiygyF654B8+UTDST4XMt/o0PGgQRzgPsDYbu9G6riDgZ17hEo9Skij9YfjTpvGiI2oEQdA4hGaqMTsQ5/5pPo3LKi2PujpwZP+URD0b2n7VmxGx63+r1TjTuZ9yGCEDxRDaDVdO8WVrQyGeBHMhoTMW+LAglwsZUoZRlPU1KsiKor8DW8YPLg9+fECblBBrmjGvz5+vNuiKQeSY2ayQfIab+AdQmoYzu+/E5RIWbDEfKG0qsGXzUmQqYukd0qZstwJqzlVkiwNLBrKS76ovV9NSyjRgTrJgwbsXFxqG5X+j7OEXFZwQkuZZ1vNbQOU8R2iiAWQ57yCQKxBww0ckNajdIQzqPTl4fl7AqJh1ay+2llXjaPDAUV68LwP5FljH1c9ykBGUQb8UpTfO2el/+lEvM8A59ZXrY6Sfxm9Ya6QNR0IJtFElojxFl8eDMvYBYT1iNrXI06BglhkoizqS9FEFw44OnuimRKD7BOwedW12rKhbFFGriTlvAGt9iBMaDl2ILEQHVyGZ/ZXv65ebC4VsXGaAB3IK6kiwCWxjiY9omcz4QcUhh9LgXwF53mDevzFtFdEzE2TXiQMVx29c3qNrr0gVC1LNYkfqHjitmXqCKln9XKp8bBZBKssMHQvejVrIvEQQalNNmpRk056o0tXTmKtvhsUXTIuDGV+KcAaeUmB1oEjEIeIfU1PlXl0Cs3gwyP3kDKDeqOuBDWzYveL3frIkvpXzc95/CK9Tr2cku/v2CUZiU3BrtvU+/pZ4H3Ewg95I7IqUhQltIZVCIuFc29Uc+6xetjbY3h0THEdyvNOwumNUPaMS8cScKLy17tAd1ZawzKIPPuK1CtvKq4gIGYO2lH3w+H+5XtJ1ZUjuT4Y2m2GCn8RGG50iXsMhLOPIBIe+tukUxWk5leM/qkXT+IrfB+aCmgn7ZrGR6Pc5EVC2OuzQS/lR/RNvMoW/W+yXWqRpkqxKRuggIRq82fYT1eFBKQDlNgJvxmVrMjSRT0pM83BB0M/q9vIPZ2iY2QbO3ps5fSfhT2UyCJ8PRcFjvmYWvaqULf7yPUmTn2nyYrllCCWIfUNR97zhO/H+WYw9gtnIXqfOHSDhwXr7QT5RjTvpIDTtlfcbxm1L0+MYIzVVqcp6x2aw3C17ov1pH8uWy6+dIoJbHKtwQFtp3mQR5eDhK2FWIls8KUvbGsXlZkkMOQgAgScEGVRyhlN9JIhDvp341iOyKCaSIJB2mYAfm4am4XvhK5QwmXYAUkPhBzfM52ldO7YnPNt9shweLhiOrZwl42Edob2cNejdYEdLTuh1UeY0lFo0PGgQSvgPsDYbpkdYnEbZ7PMlreOjFTHf+161d9z3h+ncn4ddFxW9xg+JwIHfe9lMg/xCTBNj9lPBUBBmfwriGCQgzz2c1i2X3t2IsPDrQAUQgaxd8eU1BO/cbYfzAbvJe6fRsZHYioDpbRCGOOTSk4F7dc2oV46TQ7405qRVvSchx0GuCxS1PucWs8ur4Quu27ZSBKfOJ1Xp8JtYZo+tpQ2GJUS7XtwdORMigTMyWaDjaI4FPh61Jzo5znvK2Y2X1o+pcEeRNZ0n2jCC/Qf5YnyDZxOnpqtahPennvBrXAAfVorHmJnu0VzHZHAQyZxmZvjccc0u/PVZLuPAgw45vB1uH7rH2eyGObdb78lUUFzuRZKb6Kxsg9HMeEFezU9Pcc4ZQXv7DDM0+EFrJRxfBQSRcf5joKSvAHgk8lo5716IPLqPDMKSph3+NRyHhXf6/43XrXtCAA5dKZ0d/6F2riPOjoITP2qYpJnhrsH+R9UnPMG6Of0fWTZYvheTocJFCXmjDv0mqn0d1wN7zy4DvAamwcJfQWUezGfOlTOV+dQa+Qra3eh827mi6d64CJka19Swy3k/oydCgqGSx27HS+5ocf5nMu6Q38kkHRyPit1TFproiCD6BSOdIDn7g8cz/QBGyfDMxUUOfFXVWVNK1jmq8SPtdiTv9IQSqKiNg7NGYnoQIpok/jed61fCRjnwhnw9KDPNNWcERGGiE0cdbmjOVpQmMx1tqVB6lm596NJOVAeifZEbU+hXqL+wY5MsdfoSP+oEVLjUIDtIO1/qotA8kXbyYzR/L6unvs/OQ9tKBAMUXon+eVm3VHZXK3B9szirJz3PlODbSaBsqCpOXsGS0J85VRlWG7g8+Sxlb4AtTB+uddliSWVSA0TqFdPhiP+KanZtXlnj7chj1EcclpTxWZTDuXloRu+aMoTJJvP4m1W9URttcZZJhExlRsPsGtLLTJSCVu24vEIW5ywHn3ZrZlMAvjza5WDvYZ40g+kN8AaLRuqSxoFgG/famXpjxDrjAO3IJCOHm40rgwBLFdmvcLneXAI+m6BLzvFEksVzosTT7tXBZP0ye8zI2FQCApdskLOiOTmDL+o0zaiNfcqVq/szVzTmCpAJHD78Ui5LU5Fsr2nVNNSbMF32moL5pg+hGka2wI+lU8KOUnbJNF7XCmtHTa1FAoYzO3IqhrV4Q/VuIsNf0tKyjNlt6Jff6a2mRXNpDLlOwz1cqsm1ANNeAJow1VuYxKF8cQWMchxKIeMzJHk+/u2SX5E8xNhtf276TO32obo0PGgQTrgPsDYdGRqdCo3ME3bRr4dVCWTKRifISQQK+LxrD/WmrTzmX5knua4382OaHWP7wb/rrQHRtayTT3zPcVMSj/X9Y+d8/6IEUdHT3WGZUKKlt3WY0ut9AoPtM7WRSSv+FuTXOHT6dEneck1goIeya0UsEr68tVTpKmmXWcXn+M2Ral6NIIAWSEZQL9jQIaw+n8Dk65WmRFbNTK4ctG9ZcACmpSNc54KP/BR5EfF0D5XZMlyFAAVCz6A8171od+9AIbqKAm5RRBRnsBZUQndO6OzY0irs1Vc9lPfyUoqPs7JxE8BLJ+ngZsL7Xezf97RyACac/vTq7ZXCNAhBn27BAs4LbuLQgaTp8nY2QmCoyqWcn/224bsbeEhbaXh2cTiXM6UW6/oBZAnpPgxn3PoUF/WgDQ0cccgd0oAHd05p70VgZItIRh3oSKEJmZuZwja6ZQ8FwcY08cxk/qIowCDIsz1utaa9RC5lR+Bp7LEaPx8YY66oahLzLIpIpNgvfXySK2MqO28JqCUoQ7LPPjaC+W8jWt0aCn3xEUC3TCv3yzwfAs55D5xC257AGnygTssKeJ0uSAXcK8OrTcAU2eqi5SfdGthAXRKS1ifiE4Rl1NL5cN93pqm0CG1GHpuVRe3gHkVOw3gtsxz3IKoJKXmy6thtYFjy3G4VVT5xOeSTh4mDfFNn9WAVU2t/kDeaC+Pd4ObFEbvELj8K1D8RoQ5nR2XpyFZl+1iSaBoETUNdzI3qt4dsrUzXtxULQ+Y+AVq6xi5jh7LLkehAWRmnLt62N5U1B6jmWfPE7+YL8BoByIEUAbAHcC6dr7Bh/TqwNHR8ABs6f1tai2BAGwXvKpJhVY5nRkt2G6aEJ41RcGTpbSKWzx0jIzSEHyYnMfYeMtOvQCo/9rZA7JKBZwdGcU9JTTYfjunvF+gmSyD2I/S5tbAskpTdZUdcCWP3iba4OYHmGrQx7JNQ41H/YRHuc6NJq1jvWqZBNhlic05spc5qiKKz1ybxCxTOUfy2jLcbj2oBk9Yqy4+NLzCbKj8Ut3ne/otapIVFGC4XVZMlPpm7IjpK/FFViYppikDgx0r4kLL9DAI/u26GAJvKh7XGusJ6Bstw1JO4RceJRWFVk9Gj+fFy65dchNwu/d0azMnjSK2q/erFOK7xroI1+i2vsQUVsbEa/pUiYw8lVwwZaGif2DVrYbj/xkkNOrMJltRWOdZLD7otlU9f/X+BuaCJpjJd7QkIs963izXnGBg4HmfWzP/WukGGDVqY9TSmSAdwcc62tnESFKo0PGgQUngPsDYd6mQ/l7aZw5Ze27vokxX5yR+ihPRMdg2gNchcXrAWr+QfHsz2i7li2EyH8muKbGj8DQsRU1/PjNJJt+3xcEfsQ111W4O0dKd/c13ETk2q5cGJ29woT2z8ArKR8+A2FrVUpA4dRN6W8xuXbIpbG1NZBXs8RT0HCxzEEeIR6tdvgn8IiqRqMYg3fJI7q+LbB8V3sjbkiC1FGoHwXQzu5XPW2rjMG8HPXnOURcblJgdKceeBq3vqGQeDF6dJfkPzyTWsf5R9IA1RHiyK9vnM8+mMYsB2ta1IoKgqoBgtwTzIsMhmbFAWL7IFA1PbL0Ca6U3poCQZKIh3ReeCIzHzHRM3lNPUjlqQrcFFtvfRUCKFjp55DiylsxojVLa6SvvejBMuJURVqAs8QR4gWH7mxPeYP809qmA1vCU9QloWcsKCFh0CqZMY2dd4iiveyPgoYcQAopWRzfNogS1AaIf2AAwkCXeOZbhF/kpykiypZ0Pq279GWeH64EwfqPOi0VnrkvOPQuaDfqy6uqllJGQrF6biraU27uu7mI/eOj6XhZb9N2h1TCFIY3wjII+LVNiBOuuxB3eoqJfPBn64EWB0ytr6cCI7waMmdcU7sOn/bhQTEgGLRb+GMz2rbRTlen1L7kfddZv4F2lsM6GIDDdyXvMpF3rqD6AjZu6G7ACrGMpRrwdDJLAfUyWFH+liEIej/QPIDSHeTKaMC8wbucDWi8LSeNSKo2HZcHQXLL7YKBX2iX7Bc1dkAo2lo6HmNfZukMiEZX9BI+ntJIGBPd9YuNSLCYzYf9eS/VVmOZTiH7KAD46BEhbfdzqErkzXGwvbWKbrH5d/Ag7voZdW3D7KDfjWG1hvAnhs3rLAdpq2m+oCNTQ3PWWm9KyYW/dRrwSV1KCbWcpHCuXQTUFZhgfAs7nY3pkuqK+m7x7OYAiBezm9ggPNh76rjquzzuFGJSI+9s1o/xGNsNb0wN7Xcx0cHHfYwL79ZEtzd+nrw2vwgNkF2mmC93Yd6rEG2r33gFweQ6+FV5gCeQgn/V7rINJEBc7cQQgiiBKz7F+f3+tsPE0PzlDHAesdhuk/HW0xFDqWd98XLPy7hm2yY39NinGpvDmA8Rr477ovH5VGWE6c38YM5Q+Kb3fErN+lYT2xYArwvVmUahuT/6HLfFMxhM/5wuoevD4/dTojiCfgEr483FE7r1eBfESBz+FRl0C8VesD0TZPKFqQK62ds3DWPH2VN7T2UPCoLx+gZD1JMSp+/4IUy5+KgI8ubPOcSG8vs+H54Ao0PGgQVjgPsDYdCLuXHvY3CWP15Oya/oH2ZGm2nefZRUowg6oi95h6CPp1ZzG31+BgFCHt1L33Apc7yC867UQpYv9MilY0ongCuhnyHayuBH4R1LojDu+X3/yZEJ4++ag/MKuDyh0qHGIeb3ml5zAiYJCzUu0BSRNJL36fRn/bl2vNdTt9dMfb83uNOw4/eqQD9DUH0AuU6ooqhHUXjvIsjE+wUwsjhOQaIH+Uh1xF8JebGA1whEA8JV9mPQTX0PJJDvaUjIxI1lKcZYOTBElajPAgAmGg0jdHOxYEw8/UABMdp64lDe+018zHvNmU3G0mqMvIdBxlpL4TbR/5dI0QDgOM5SN0vm7rJVGY/UY5HJGRCWOtw74DlBQP1TBV0FE+tHn6A/mo2jPpqZrB7tCSSlUQ8Ykrlp577Ffm/YVBSE9x+ciDN6+d9hu5mGvsjorCLcqUzvITWvC8MtOLikLYy2+PlDGf+3IkWjZoRsj87mA5R7kRzO6iXSRxmwXBGNGj2njNnICoVd+Ax8RVxAHNy2XveyVBAI8/EuRY3kfhMtfUDcAgk98KrJtaZTjpckL7Uq5LNCODxL6ejVC/G2ojCfAOLzcLZiS7k/XlxdrYWYrJRGsBTxSGzvWM/El2mU8yso2AgxrWlAhzwa6n3Y2Egebp9MHZUoMJ262/Q1NxYB6QJGjYGeVGa0Lxom8GpwHh6SXVehOUDfAkV5r3gEdVSQ/usuvhTOKGrEsu/TOm0ughGsJnvqYITwC24hHJMLGVlC3SPwZrPFPjOX45Z9RoUTpqB5dBhPOFh9dzPw1b0R5Wa/utanZMWMCrrw/93cUbI4LgUqaCJjqFoe4lbcUwTrFOohCox2IWG6VRBEwxO0l9JHY7IMFWX4fTJqtLrsModDz+/vcC7ITgL9LD7KSqAhE0gWoPcwhF+d+ihWopMer41eafkvPR4dZGh4aUroAdukOCFmJZ3LpomANRDCLeEnA3ftlvblMT7zyPngrcEFWp7bznZpI/WxGE9dzbceR/4xqZXH8I5lKyzbtjk2RQwat0msOoVpDl06Xf2va8fcWmDyywCG4k0+brBbopo5lBD+QBOXJiNUr59PS+VIJaPZbWbf9YcbjcamKyqJBwHYq4kw4sGhYLrknBVUKgmvg0vV7NRp0QwaHCud25b1KSS9YxP52L3F/Z6rzJyDg2D2VpOOk9+1ZUXrobKZz9PdSZghUHynqBVOhYGJCSJs8wbOckh/4nln+KtBXa3UQkySBWSeYIAzT5KzqT3PYoPe9NVjxevq6gPUo0PGgQWfgPsDYbv5s71fSYMxY55InKyTqPA2yO1wZFQKHcnwTkKPkpblUxwnhyqdgAh4C+J/QpiiD5oHUA15TXaDEJCe83j8NbE8Ov9e5wWToHomdYFWWO1rhNzQA1XZikwSIvwf4egLk6YH4uz2o1rh25g5qCvz00aJfuhkI0/ZwVVrAlyoPjeSkCRBLmVMY7s0K56s8Onp4yi/U9bDvj4cvyP5n2nd5zPLZNeEJbhTcPabIJfjBXjieEUtvrqlfHxt1Y16REBDIGbyQ2KqxAIWBaCpXwmD2jGSlAgA+/eYNwqdu8ceB+CBWeH0anW31I9skEcjIIaeejj2GQS583r/V3+KJtKqXS+nyLc1JWQSlroK3yqS8OhBQNLRcuXEuMY3Cq8UZKy7d5A4ioAzlBn81WmAuJzNbTwjnoC4wpiE2ir1VYVo6CNhulVBZklqGz4FjrZpEfqAx72EjPQtEJZO+3QwhYXi00fqfWBPimJa21MU+mi75SSHz0CrJh2+pYTtF9iJYcu/eE5WBjrfNLFU7IiQtFMV+HLlGnjgh7XJO6Ljmyc1t/UilOyDOWtHsxUtU6rMN7zBHZamiHfVcLBtul4fB5CvgoS97gsy/EFnYQpLiJmoOv8pY4G5501swXBHDPrSDzRIUhetYpEqGw5B6+zG1SFs4ki/t+4G5RQILlhYXn7Ali2+wSNRaLbSrMMe/99sNRk3q+eY1U0BIXWwywo/5Wn3xtDBunaHpgHDASSF0SoTG3lUG2AoLgUQT4N9q8UNBoSI76rtPL4JvXcGTuOWOfVjI3M+9Am86AKL2bThIzMZTLU0K8bXsZmM6kRz4B+et8+x9eDDFMITpeTmWCAiRu7BGGHTiSLKkaO+psXb6m5+/mUcenF3elCo4ptH/+7Uwn4EkXiNCi0t5BnVe03EnQv+LBR/GmQeIPmrQMDj5n2jw1etNYgqvNt62akUE5ZQFWIhzkwnFP8NYQPPXX4yGfhxR8mAoabnQJr7zjVCTkEuGfXfN7jb4WbVPmsL2C5c4rJRK9r/rx0GNK1iPjWMVWymjuh/RJ+gO1IqpOVPHgDvtwuZhkDYZe4gI+G0KdxGLWxONvOH+jXG+JaKjG9I4L3LEX24prDhVu9uvRZHfAOCf2kla9RWBCmnn114rVv1fMoRqxuRkyn7X6FvB4jGjZ7yFm2zescA79EwI8esI/McF6PONJ2lFW9fnsO3LWTmcG19CD7GU/U+yCOyP1jQUXA1LwqzKhhZDaz2O0WkyGPmxKJbT7L9K8ovc8cTy7s1Zydno0PGgQXbgPsDYcBf55yU/CR2AqrkfgynBM3O1hJ/RL+8oVzlUhk6sb2KgRTTyZMbHGOYiKYacVAEVREkfwnZWNp3M4z8lrs7RTMxree8jvfEDZ6BxWOtuWmJGFFTHONluVsa0N89HQ8m9VXmDJRDXxiCTihm8aIcxjcr0Pj/7CTpiB9SxafcEJZSiu1hVINTsEEw19d9uftX6qeHMaMOLbmk3gvlbQx,
uIceOMkBhE1u0yvEZweH4r0JLRET6vsIwQJnpYuNYO1nVvOwcpAD8aY8fs3OrH5v3t65w4+nRhzfBfUA9L50aZCkuNNGqsD5qdnZbJEhOKmAR12f5LxDLltJ/mVYeNFyNNI8OzfH9TTHuOD4atH4r5/QzKnzjrpG8S/LJISCEFuv6ind9x77Kh9kaCiewnC7esUZSRjjSYqE6RDZdJp1qTthuclnJ67/b27ZRpE8/AS5qXdozsHgqTi2Pjb8nW+ZcNNyu1qi491VFxJYYbwEegisHoypM2tOiaNCMDeKCmGFRsF8eEHp9vHQhWf/5kR5OiAIFS9Q45mx3glSEVijW4XQ/ULEfpi8YJTJ36BnUkO//m+l2RKqz8j4Z19vmuTRe3Ttua6jJap9jKKxsYc0Yp5xCPH2DApCWoUfiQftreV3UlRBuPQN6JEWuSVB+SjariTYEaWTxW43SsaUzMdzxklZ6/miNWcmVTCPWsZ07b52ZGuc3KyKhxPYg7LxYLUg8HS/o1A7p42wQoLYYbTR3WBicn2cF/CUvpyfYHlFnbQYJepwMI2HT4D6/H6VjU3O80Gbjn/YFDHoz33ZLCIs1p4rIsdTsApyKmiNJUQtEsDTWw3ddAMRefPHQrJhK/LKCGHTjL11l5/ezRgYR+GOInKEzQHrEEv1kRN9WZHVof5yEP80HJ4d5lbKqHWrRILzRbTwqrCVV/9+wkYd1QwcjTP+1q7gw2NFiVorylfTDLYIZz3XpVs9ojsslF/r/kPP8wHQxMQ2FIXDng0KFAOCoDqC+JPdLWc32CzYji8XncUzD7SyA4+j42qJBxYW8MdcUs1bdtopOp0Tl/OOtCIR7t2V+w4B0G4jHZ3x6QC8qTzFpeBaFCaUZQH97p2QVQXMmuHofDWmwLTQHXktgguBJj9kgLAyfRBs1gAIKL7CYR75mT8BAZjt1ixlGT8JqVJ0Y4W5Bzegl9GhPO/eTUnbd7fthh9bSXJqZ8oIXcnEQPugkvuD4y9Cw6rO/Q3JxF0eElFeG63WSxEVv2HAYPUIgH9+5qCpxAxrdPllBnXYERkHo0PGgQYXgPsDYbnR6QtAbsEjRrFi3dmtQppH02Yf+EDPAqsowB8VGntYRx2z46gvmE+dVfJq33kKyjyjuoO3VgU0FNzgA4lX9ygKteNkA5DbBKJsen2dIp86lJIIfuKuPBY7kw0NYUz8BtIqxdyZgOP39R+4lFWstq/l1cdmWT5a0WFYblGybRDgvPZtmuXRgA4mAbwicsMSVEGu2z0/gwyGG1OBZHQeADYbeuJXY84MoHcEjakKZPEKYM3Ls9RrzUo58RPFMlDmI90n8SoEcfKTrzPQTTkExapgPJ9t3BuaXQdN0Qd4mw26GJIq787ZOI074f2parbpdzKXK8Za5AgN104nNCorpYK4qUervl0eCs0aVWon7RdEPLgwvqCqVw6sq0lnPuxF/vNufIPrL/FQNirc2SlMLwblh6rkAVDz6UKswWthKdNhku2aPQ6BRbeLliVg2sIgSTjOyTrBzVam4xrw1uWSELP83XS+gB+y/zAdcBCX/tvucfteIEUskRI6CLqaqMmOPJI6TlLg/ObISmSyald6XEDP9GlbA5PnztoEWUfH45XbLBosuXXP+3IHua7c2gF3q1Y/993EXclOLLq4DC31mkoZdmAhtSBZBCpmPLdA2l5zPLTSAMZIbXGYF0tK7Kpo5Ed2ihp1fHQH+151bBMAZfjyS/wUUZWLi7PnAH2DfR4dtrfsb8+L+lqKNcXgsNQN12g1GhTigaeD07Y4M4kCnteB8E9lU/wZcLaOfqLUINkDAffh5gkVZs/ArTliQ9mqL5p2XjA5+61+eBhAjUQkLEySIEySxy0lo/SyhQlhIwQ/IrKekfrkE9B6dQ5tXevIvSu9X/fBXIa0vu+h2cey0GHRzKaYkOmtDT6AV+WLd+JKBuEk3nLKPpmxJnWzNdDMYvzDvmB5T8JFznuxQriq1snmm5hN0mMFqj/oqOWJz5rYwVCZW6JS9I6ZAlX13ESum8GjwpP+1r1C7+mM89V0CR5ShyoZwBTHVOSJ/v+L3rq81y4TNl6f2Cwf3II/FLkZUkgxV+LuLZdWSsSJj2q8ULLMg+sd9j3SjcQzrQg6FjX62nYS5KBd9aTZje45mPSTulWtNLH+dVFmCukGnE/YTLTdLmV/Lg54CEtCp8IdCBWpfZBzoBIEAcfRIlkoCGZDp6b1AvUGld1NypoQuVsbFfHPYV49Jk/yoVe0z2wEiwTVEQiyHx4LP/Gyev3OAGxEL9Fd2KW/VU1b5Ww77vaVcK+/Ubwt0hXDq41eoPw1JJHNOOKyNAHfcviFKZjzu34Oo0PGgQZTgPsDb953cvN1K4fzK/bm7fampWipyPFygQdDS7MqrSwj/gR5f2XGsEguMPRSRDhsllyieoP7IVEHtt780ZWPqAreNifLPTaMIkVGucudP3prahWAH3A2V6NOAhshlIj6dVPEInzxV3PaHHuPN/hlACG+9o7GLXIm+bXqMfhj1AJ+Gufu92BLFcCGiFEgH72VLWNVxAoOljT+nPWdp8nxGOFQjkgcY/5D1vzSF8doJDfpvotC9Rz0ht+5s8rGfztA6wi5OyS6HW9H7HoyS/QaNlHuJnn/GPheVCmIUXBOzt+drVG7I9qM8ciBz3SjPHHdiVj7elvq5iPWSq9Cn8TIx7s/spavYtEUxDQmBpnpp0U/tNvkrM0vAmBQMOia/cgiIzaaL+Db/31ZT5yJ+UXzBavV3fdpvSfBEAX4o0lvRdrVamlh06nMi9+0LmCzEKu4/Yg4cTcNFC5GbJWfZcOKHQ0fQSFyxLj6o3UA6VGBw193Tp5crEGrtyxnDLJmpPX3autuyc42ooaBXtZSms9rc0bsQwtSk8SB9EFR+HrML6q7uWBTBSoUIqPbBOkTQfMKu1Q+ANjwAh0F84dVKGu8QUxNaBG9bwyDKChDRXBagx/gsyHvJAcUwFEL2jsfN7lIbWVlWd7I8a5tCxyE0k2FOrP6Zptpl5aHUBQkrinleslIFE/qw8U64I+h90Dy5Zw/ihtjcm41uof0k0pPc/5U02nF8GgLhzNuEWQMcXGQ1qYDF0ymaIEuP48a1TUjmVk697M76gRqkQp99uMryZBfzt+qe/3CbRV87yW6FL2WkH2uOzgR4gCQ7np3vlJOe49FtfG2kY8+cp9bLPgVg5o1XYdbhmHTh7/rsVeT7jCEvI3y4nrg+F+Z03mNuNFT7PS0cV2scKkpMDq+bpOQrkc9snk5770z+qtVSAnHfLTQe5Tx60GMRm7zXQtZyOfyNwZ+LNHOt4q6wJY16EHIRD5nbqTGcLVYj7Cvtmxoc/5QllP9dqky4flXbMo2l+yHaKY9duQQJaNDED5bfg2OmFVBUpSoflGXNqpJX5arFb1ucKQExxKt8LB56O9MwVoHc8ZQecgqh4iksDEr5UdWEO4FxofHGCRgdqRrpERtKf5bRhZeRvvh+U1O9nN6fne1V7nnA4P4voUrzEYXYygue2TY6e8XOVgdiC3/wsKvivCTa4wxIOcp+1S6jWndHGX3LqhlKy7Igwq5hepcW/Xm5RFURBtJDvDi1A8A15JHZdlwnf3U7iNf/eDOxKiHcrasZ9iBvbiyo0PGgQaPgPsDYdOJLfx+lcU/FY6WR9QS/mndlZz+VE0+iYKnf/WplGtaR5epFyO/88e77AnyqGIy4H/73iPewtDa0mH7E96RVaelJXii3Wvvx2ieJSMjXkJZBrhBB03rK5rsUzS7HYaNBUtXSDVEvu8GY8EXzlpWGnkDUnSfmA0Zgt4XL6Y0u0+k88BkjDX0aiYivktjJbHagZzEtEjSw2Hb33JN0rcNC6jq2phKP5PEeqYHblXRYYu/nd+RqZ7ZHtcIt3QA4RQjQNwlcGFWHf+QgUETkNnzZ2UkT2kJRpjczmf50hdOS6HEoqRSStgRBaIC5lhb57lLEPsr0h+HYQ6Osx6zfyt8BOgXAC2HC6C0jnZjsw7crqfvTe8WEADBJHal3oxL5LXn/ghwt/ffD2SLYwuXUL3V2MziTmwqKSXj+kIrXsqmThaH3jQF7gPFgyEPzB8Qp+xIb/w48hUvllfUXdAFO7EyK7BMXkp2SYxRln7L0v04viPqG2ODTM2wuDjThh6gXAhBFKjzwJkDWhG/dRwWFoL1coDWugMFUgFYA8/qgHbpTiLktNACM86K931hvvCMquSHdBooOTjYqeBrPGVgV5pMGFJvM0Fo5iINsIONjPIbVdOCU1h6ZHjFzQ1GJmdoLZi8av6puWep5+LTHUlxYZfn9MFooTEt40U/idPQTa/hn7q8Wpkq+14INI8YcwOdq37hslonCO6k9TSx9HGvqisuzYTuxLqKs5nTzdmu47WUluj80/QXPbWNhd6nEfpErV2HpawTx0vaONacnQwjl7XqKukyKdWfl22BMzE8LvHq2diWf3Lx8Y6wTQ9n1c76AfVEGSXzEuWV+WMfBIoP8xqHwIXCTEjUBtql3kAuAkkoBX2Mg3sHipsOnQcvY4xRiJ+c0FWUO7b5uLjzlLxFCu1b9RXsPNZzYEzr4ag2t2eSsb2jVf72fAEQD0C2k4PsL4E2XiSCr/Kg4124g0ebGwp5ltrdVH6n5KBS1UpELI9szoPKpdajQkiFAqms5QWV6f7z6rDsFsPcxYNxMHO9GNb2dWESW/ernIngwhnq91XTriRuMDwco5PKEq1VdlOP6PNQnNqnLfaBWDMtdpkDsmsyu/R2qewcBixOKjYHQzIGNA6P6XAbfNHVT/oTkc+kCdanFv4wDOwXAlk09sRUl4Mr3piL9RgDj/ruywuxV8nQW7NnW2AzNXhvjJCGSXAU69z9KLbezwKNdtFqA7EFTpyEhI/aEEe2PiYidSEgdROede9+TGvPwTkpWU4ALPBUDSfKo0PGgQbLgPsDYBqTJ+njJo6f4N6FpWXhkmVzInmGpOnVfZj354MN+2IZ2UzLK5FbhsopH6Nwel8sSOt9UMWPCaWmAwbuzO/H9lbtPj6aEu239DdCFmZ5muKrQE/TN8+tuVf6uJLl9KSL5xKxSKQ0abLD1HMjGY+5HgpAc5j0fY8xc9v8BhlWVJQqQUPTb11sVYAiH1wRZRjckFWcbUNm2WDZxaYO7RiFP8y0Uc1060YFu30sM+zBqvs/ViC7DW1YJoNn9nRN/uGu5pArvwcO0podpl+fToNPjq+nGWt0VOcDmBhFIVivZeCrlsaBYhKy3Ikp9GVPkeFokjFfZ0sYSeM88MmrqvFjEJebHPNO5Liu8CuL5epxNUoHtLrSprkeIHhTHE0KQk+LuwESxjl8DZ6VLWFVlrcU7Y2tz9BITWs6G0LSgjhzZ2VhlkFb4VwwvSQUteW1FxKa1YaqUdXZD+8Udpj0zjXtZgIcjjqgyINVrFgVuCAo3yAqVaJnkuJWIvONpy45bZ+EiwH2rWBA+rtOgSgYQHUQ0XvoYk5fDjhaWVn4lO+qCZpgZFne5XgSbL+ciseZkaxGrefo+u8kM3eqDqP9ka2mu7/aoF1AQBRDKlhFTgIR0kLKpk8QiHohUA7eQMOG9QfG6+0wyay0Igyci2wC5DA5JTU28jun7BfGVRcmbkgxWPi94MEzf/yGuNUGne/DwzHY3BbbU2FfMILIxx8C9EyqrjHa4IDEd7xgGduXY5afe0CzOWcOXIZ2bTpBBNo26od1o+enUQkTPijrThirsXSdCIRFT/GWviO2aSVYfAO1JQ/FhkkfgVwUKX8Aafn9i4weVOIQPXVfkvf4Uc+zMWky8F7d0puA8jaOwtvQmEcbK5OP2evuHNye3do6527T4FmfGMKVueoymRGTjkekYWMVRKjFoSIE07cLx1ETk4eLGWCbhuaal6obaHYSihJTP/rhw2DJc0UbnmMmHWWIeeXZxaH6CReRgG6RgIQ4wIXhiIQ+OxchpY7Q9onh0B0Rfs/N282gqEXa0TiQregzhuZSJPJw0BhU89pSTN8QMx/4aqbPN9EbaQ5Sj6NdMtQ096Me+qGRX3Ay60o9Fuy5xSp1vPoswMEtEGvTIj//f1KDyXDttk8QMScd2thct3kU6ih4g7/azXduRxGXUs/AeivGLglcsXLMyCclVnJEEUVwrZhR6aaxG8NXmEPtXWIGU2WJhDchrFIkBRr1/4WIURbB60oC0nfEc96JDynwYtBQ0xhmJ4v4AMA5GStA+Tofpidyo0PGgQcHgPsDRVm5JL5+l9BiAtLf1O7RIh2Rry6DYN1Eon5f8+IyctBooLlb+xFOxLJME6bEN0a1tHELYsIv+INm3h14e09w7KeRMwC34YOGQTnKWP0uVAue2flvpwBBKYnz9hBhBVTvDKrYeQO+X9xb4l7nNdXl2H7pNZ861fIfOytzSU5km6xcaURyu9otb/iGc79vu6bz3mMOH0UcmSxplWQAnqx/7irVB3Yzj/i3OZQR5sM7hFhBwT1TuLsc/0oIXn7b1JbT/fGdYKlIrRklqlGOnnU+BivxUmB2VAGTtiXCmO374RuYmAv2Q0iSKcy88s8TWiU8DLuwQUyA2jcJohFeHi8CC5neUrTdQyulcKD8i1h+SphFUvhTL9Bhez58dXUqlO+7dyrke2hVqWkOI4MdcAyVSqGq/n2O3hd+f3gwHxEQqqJedoIP3zbdEHxCZYV8bmwqynxKcvbln3bOhgCG8ZYLLnRB4Ytj9OD1iflCVgTFv6nkbQUmgKESgpxDYvlXUsrDAJYUyty4nqOakeVGk2u45jZVExR87BfRRTbr3d4BKMuVQ0VUli1EGjTC3GUzLUEwMgpngk9aG3m9FgNyKJw+cwN08wY5JrvPSCl/YdwinZNXabBRv2wC9KDLr7jWDwHRw0fgYhc8KPps30Ar0VmdNrUCxDj6EAbkSuIjWjxDPly945J9E70J3k1+MqYa9PT9EzLxVuMBhRThC1z5SivaRV5Vnq6TfRX2D5iWLm//MqPphirXs4gQu/LmA/7hdzJkULkSXEdt1cA5fpNeGSO5TdZVCi7ZrEoLG8MEBzl065Mz0oxMN05dGjr2cJ/eHTjNgtngdzIXaatggxP2XYT3n2E6UA9T2uDJ1GkjZ9qEFOFPv4NTxsfIPlrqp4KNplTGFYQD2oSta9l30fUWbkHDl406qggHoR9DnkbgHzvZ6hKh7Ay4O4KUJethZkvGJFhZi8kmt11pgSBfnX02d7uW5hKaWfQcn+JCGdyT6Mu7dPRozwe8xAdBmgxo7l4SS6IXfr8hDngSMW5T6ep1DZayIrqBoKj5s8uD9rE4uH5CO5Si5BM7znkT2ZtVW078+Mf2rhXPK67b/3eAefkYl+0ijYSbAcHPrtV16yVBq05s/WTMv1Ibonvk0S4bd8Wp+kj3JjPMrPSLqFQQZegS++xEw2b18XNpMKbbtqTDa0o2MYI3a3kDbQhgroCalkdsFkD2Y7VNGG9Q0cxfF/Ef6BX+hHRwXjUe4qGXEOdSAW973UgKSos3iOCnDBpgy8qhCS97o0PKgQdDgPuD/BH/EV5kuAoK9roVSfCqysLSoXtcqTvWARKsD1m2zH7sVflctWgb66xErLg5WjQDrINwram+0OZWygY3L124WfXPkSZxhYB2PO5Wp0GW9BmH/Nyq5jQFYMi1EBrqYEBdDCq4gIB0EV6Jx3/HmAABGsBwrM9/EwXJxh6yOltn6tCRSEot8G0pfpX4IdX5yHjy9yp/6h4vnvjgRn9hv9+HDxN1geIiLL8WzGQrNA1mrbO5Cp+RkyfN/Tpapx7fRoc4liL0+6yNYzjqGxehsIQshsc2xAivS70ymgTBJbxvAJs3WzwaF1S9qtSCydRMGCPuqy3EEWYTTTfSKph30jqpOrT1T5wEZ51LlBQDcyfTdRPud8SYPfu0DFpOdKm4OAvoQlaD6oscu/iGCDevhxAA3l/9ZO7JJZFemXhkhe28OB17TA4PgxXBfjvu3+KFIa5SRZriXGnvaSlwE/Ch4rmR0ruzd2lvOfZSQFnFof7WDgb2gKs6IJLwPENPOTbGrD4gQ5WDFP3rIX4gD72n+doicPD+UibTJvxQFiZn88GBG2n3yJq+S/o2DqsfzIJMXcjOILEIkNp7DukEYPY4HON3SozJtp+bEHYFQxbMdzoj+VyQi5PG4ElMR1pAieWhm+hB8piXq+rKch+I+OSgVCbqUTea24RyC66U8jz+WbVTx207HBPyLxP8Q4SbkSjKlkXsiUV9fpa3hjS0PhWyJm4ZX4Z9bcOvomW9agdI/O973jgL1g0WA2IqaRlZFDdiKYcPyT4WxGN5SCiT+6++OxEyFPGU631xADCs/RcJ1yCW+ECKEpftJFzMsz11wPSWI3cb2uhHNKCrHWIq/P/CljpYfRcc8pJZkcSHh/rtidCYgrS5bix0mupkQ4pCbUC26Geqy/CH9vXHqCDduxt6+Nm+bHYZOrq0TNZ+SPB3xl2DoJkXhRZ7QKHL/geuB95fq8vuvToiJLL6C3ro6bQngrXsj84VxvXYFvYH7FaE5zrCF8WDOtyJnI1QflqiXdyu6YeOd5Q7tXdXO0nQQmY6Y0ImPqUXmmhs5TyHUhoqnTtOzlvP7HK1xGeczd6GLb/CQwTjULx/N6EqhzNBAbuK1JIe8KPx5G34YWaj0ZaMaySo4B0usUmV75dj/xNGAlq/uEDSCMP5krbgQF20EOVGtDXMaQqRPQ20aTUqUVPMeqxodC7gyyOdlfhT99gxLtKyN0MV4knSHi83S3c111kJqeuOsVmcFgU1qynLbHhouxmv518+E1470IyNvZMPbwbVfOw64bsyUaNDxoEHf4D7A4cFyRge2uU4DpxErzYY1E9zOBCllvr8fLNjV/i26MPSJXYCcADm6NpMhkl8fLTqS3yT3R4zVmgPoyhN6GvkI++p/h0URKo6+ZXnXlRBOgjWbPz424gCROl/nJ5vDY0W0a2h9kR9R4yiYvSxjNQC4ysEJMeQ3aylIqTZAOldUCioKsTZiMENmD2y4CnIOcQfsv8i0o2djcCpu+mydFKavKZ5o52z9UFShm9zvmZd/V2ixq81rEZGnBPiujK6w0WPDTEaP0X89rfprbThOFaRu8N3u3Tw+ed6LEzJ61VFWTuEDmD22eHNVt3oD5+VNFubn7oMqWI4+Xr+WuBkOHTnsn/CmKdkfuDoIYPRP8G2oky0nzZh9FCDEB9fX3xS504S6FGhvoy6WDxJj+jZjsbQvy2Eh4Q6XDoucE+7K4VPGzRUh4Cbzry7CS4QD/04r/5ylFNWb27glcv7ujWMt+0//EpQYT8fHW/VydRMamLnoD4ZJ3Y/HSqaohvEKr1IxkW4MhnMWH9bZOAYTygUdAPNot8aUwAlxDjAKmTwQt3VmEAD4BUWbfzsZJjNBUu0ZmgitxNaYfpN88ceyIPzBeFgrMLJHDzzVlZIeoq1PebRRlEeoGIueWBEVJRO+ryU2rw+t1NRk5ehLHL2Ak9cgwNcH3+GHKXy3YUxCiiNwdLDWCOPamvmr1erKs6aEUs3836Kk1UNtHatqIjq6DOYScJK91wa+UeH6yxfMjPiJ2mmx8mfGy3IWXNtd9ggHNbwuyu/5CHgnMoYW1D2UZtxYDOxtybpRwyALrybWC41djPPdQRRxSzas+waZ3J7i47M/RX9R0/wa1eH/c02s5iFF2B2DSZhum2wMvZmXZklkT4rqctVXKE97i2u9pu9sOmD+OtGYs1m5a834f/6Kv5xxu052iNu/uaYL98MGOij5TTlZVxgAIftcL/gNJXuy0qc0DOeDXciaCylojDBrvbeOxK+X1/YcuzGULk7f1uDnetDnMm7naXChaxjW9LHjdrzwmYUyYJ9i9/iAOQOwQHEgdhjJEVlskUYN6d7s6ahBBJfvhJkxukBOu/itNXd14qJUXvbJad4IsL4W4lIXuYifiesk4zLz5P0HJs3RIfjnGWc76TuifYbXMup7ImHQqUHPd2RegoouzJee3Bv0HRT1xclqMtMV62HVvgXAof4iRBcI2B0B+tF6PHwZiS781Coa992+JWc6CQnFzbPqGBePpG81qMjtbiZIuwHuJhQMWZcF3moPf6pxPFjnHW+Hd1BGklJtaNDxoEHu4D7A2/gaxRdechGTfSvM3GrybCJDw4HZZ0U0IweO8mNeWUdx6oQAFUDgEJWworGqPTLEnpyUGtWDxUVoxgEFFKX2Sz37VlsrJMiqP3aXA6IbGarHVpJZQZrq69Vhl+6s9/zKVNF7tPjmPwfn6IFN2uiiIABZvVOhlBiqvRDOYQ8Xksphn3xqqJmgVhF745e0BmvHiFzU0tPFn8AeikPR6gBcT5SNbT7jNgaC+BZlrEO3CtVtza8ZHXUu1rS4MMIiN5mHltHZKSy6AWqCFBPYg7hrQmpd0bsU/4KHYv/ixWdKxmoHD6eaUq66mgoSrYTQUreTYkgn4htDxBMaUXtwYBUSj273apkSqguY3kZl5mHJVpMXN1w/TZzGgHbNyLjzHiB93XBuHni6xkN20CCvefaj6Aslo7FEZZn67zoTh2KlhXNYbwd0e0ObigHP+ulTSvYqqYjIGsoch1WNhVkumedpD+AMp9pLl61NO/z90L9UiVlmKEfpMav/cH40HWdczrI/y3mVtYWn887z1BLmKWVPG01c9PelnBNh2jK8owtdNYwljamPbwCEHDcE/b5ocxmQwM7nfs2lTjBYA3SQDEQfUZWbHlrVNW5hnI7QQOg588yy4DqdkV24D2T9savoBW8xxFt0ijhsjdTBWBuEP+qosRHyJD3VLCu6E3wvdiEtb0iJqUSyheuQFiQlbjr/iriv66wO99sH1rHLhwYSL7Yb/V9YarqVqBUjq2TiosI9tLUNGW3Pk6YVBw7X14NX5yiFv2UP9ihM9YvdzQcH7l6/Q5NLnx3AEYxiT942Fy704BIiKEvspHbHtYRJPYHqjOuUaTj1AGviuWYDkDDc9KuZENhwHF5PZ8HsMHNrJm0GPu69B+94jeSoRmpxANFydLoCoKziVzJvIyhp1hItnr8CrPqryZW+AFM4jkM124iDrNNG1CcPA8MADqFbnzHfWY+HanT/1i6bSwWS2grdDIoF564P4M1pHp4OzKB7TWSNlJVL66ZYfYSo9wFMoqWLSxZubzTYMKfU+4yVWJ4fy2P4ZsvZxsPatE+GpnBipAcp8cXDJTYdxdBNhE29iwv6cDBxzEi8z0KnBELhl7tsUWtqq49l8Y10OGZFLskUeu+mG3shQmLgm9j+mavB1Pl5ifer/vkGVyPdcPewsMy5iJ/q66IX91PrB+7St4vIKAO8M07I1o14oi+4IsUNqqqgOP8sw9/U+qi5q1vvY9FN2JtYoi8mmfo3kie+TiHvSLPqhLXt4AjbScSBporVBA08gLce6NDxoEH94D7A2HS7AaYD6H6a1QN6UyC19fcVFwc20oq+FYx8uTFZpkamuh5qPuUkzyZqVUEq712VQX1L1JmyB2ugpgWcFsuXVL02BifjVSIRLx50FYmoIpBGGpPxGhGkin4z7mBgl0+rx842PFUAVnRkm422BukP82v691AxCL9Kqt4400vRsiUmPsMgkx2RgdGun0JFpf4OXccIi0mrSKdbXImTPu3+yc15sLnSm/NeyvX2TNVfi4w8wpVMdVQBXmWevyKyCDA5AaTFS1Mw3TGulxQSQbgA5DPdOmCnNxniqef/NgJsLtrW0EGpvztd3NGEivJDgG3EcmteIESfvAAfTmkTGTtSOsxsXBR8gDU0FnnwFdkXT74IraUhFQ4jzg9AzhZOeTNw6YAxubvNyoxArlkU1nsSX6Y29RZx0r/BewhdbBak09aYdB4Jy3YMUg5hb2tVSSHiPbcfB8/QrhzLsBmE7ka4r3HoPwnuuncwPJ4r3lvhnCCmjykh5ns/812qFnTOOX4k+Q3atfE9WafWCSLOUHCjdT63mw9j/GTl6Pm6SbibUq6+b0UNRIrGoMR7tdZkeeOmYJhhV7U8UxuVwu+nel3mwOKVEYBc6BL+ZFRD/3NbByh6SnUb+5o6DOYWBHg3E75RaxKSQzR6uD7f4Q1hsrR/Hx46a0rxfjjmSdNPKjFSBQ29IAbaXgLhuzX0o564YQ4afrUUAhXzf1IbCdQmyCF1k2aud3lgzXowG943YJVh20dBds34+YJlYLX7F972WPO+HpWZHK9YrGufPPFQ0ixVB8WNK+xpGkVj5UMPiAHcegfUkcQwuVnnxRMsvUOko0kl8kendBIwQeIFjHp9WYl7EVhuq9iCj+pOFVOIG+zXJJJn6UvAgwEXT3bv9m2sfg77ndGS/8kHrrJ/3ko+8GPvptM3JYpSQHdKI8y42foYmC8F492xGewVm0OKJ6bSwh1sGKr6GoPLpw/2Bc3DDQDDJ48n9rIv4UOpRQanO/6/JCcp+m9XVaZaUqTnbt064xdfOAn5qHWnUrygB3A88rWQ/rCbev+wYWyl9x9zXBgBZJWDDuir4/uctOoa4KtnqOSn0KeCB2gm/KnXiPJvTU91D2rArS0egPBu2obLzv9Gae3n/zZgQVdS4xmpgNo1PUV3xD8ushUNJcgoLN4D6ziFdOx/0YYxzNSj0b9AG2s3jlcy3gtSABqaXAHFVcWdYW3ZV8ZJKbaCsLLC/V5YbSJJrTcTa3KxN+SBjMg49vXC7+3ZBr1yePbrQbbIBPajUzRsaNDxoEIM4D7A2G7mZ3IBYLpZm8cvgB6Db8Q3AOoQ8cmtGqPq8s5BnIKDA1hwJa/TR1pDjq3LZRiHbCBwsw5wb8WECCbXqXFEJvkkk0hLlQ6QXAtfTlKd9tgMoeh0kORmIypw9v7BSfpNZeiMb46Jglk6uyxPZn0wwEP+ITHL6x5wTD3pTlV04ASDeq0ajWY3c+xbAJTvT2Izf+JdEW8P7QFFyA6wxyGV5anhX8GNfXfGCq5JrtXnKuDjAjpUYqouUJxZbymdQJU7FeG1HhSkrGbOcw+mr1j2xuhNMKwpO41P8YDk9WxINCwZoU+Q/1FZxSKwmfNVtYF0nzCiJCerEqnUfDBZan4MW5okVJO1m/ZHVi47XUPzENwqfYWnFB8DYPRlzF+wgQX7ppKs9mhza0qGyOUVVR4YNncXwh+0dmlhsswr6yrvSYaYdOueiitYlMWTrFr/c2XSj35WFF8fJuOWygysHSakBtBI7of02/wPEkJgS8aCkUmfy84DLD1HUGdxvVMiuW0S0/Hvp8RYwq8rdr5Zw3cQ480/cpsNaYIaPUO/210slpLwfaWrVX/IPiRvo1wwF9M5269T0a+7xSYpPz8qPCmYQn/r0gA11uFDnJR2MtPOItzl6S3SU2rrmJ6KG6WoV0qdh8m3WkLjG+nUUuE9yzKkGNiQt5+kHeJ53d2Lr0NF1lslnMEp+iuGdRrFS5mQk0jjVt8kB/9qGI1FixMnexc6DnetBfi98H7HacFqDETcazZaicdoq8K0IIyy+Pn5PGMXqxIsWKFd0PZciREbdcGVquyOPLTfB+G/C5BvbunCFkQSWx6tVuo3hWHsuP0i2LmvuWADNfiOx9z0rOldP0qZ+Jh0KqWD2+vNi29BhzVbWV5/NXX/pyFvvutQzOPtQUzMHxZNY5A11ZDKrXT5sib5yhmRDlRtKK7wY2WmFN/3M9hatqetBiiTmwABksBTwp41ENKOzJ7qceqCvUk4mzPyG8QyS55g9AyjzeLkp93alVndDmEG132WV3/PGUHLIAb1Wld1sMSoSyikbEBBEy9bk5tKxCkvLkCXZhbRv+GNDNMdd9J+H2OCViUwwq/saFZBS/wjv95+RDhw6BBcIqAVQXt2Vek7Yr4HmBcXvbpUlR9IZH1NV9mz8sIUhXfzL/Y5Rdt4ed+bld89xkccSDRWHE4xT+ySpC/FytdVGXKoYp3mt80/h1zgdbPa59Sf7Y5Id0SIEYf1+r2hsw5awTg52SKZ8RZrDZAYNgntwft0ZgpxcdV0ja0BAPnhAXfG5r7SqND0IEIb4D7g/wR/BGDHmNphM+KParfZbFKTCvPRRV51KAaibXsp+V4+t4WPfESDzRElQQ11mTWesOr0LkBWsqk841q1Ougi7vH5dwi6JTrotngzsCSmdNYfCG2FFRFlGJZPPK2xez9w+gfj1nJhaYqmN+1Kq6AY3XNGpkd9i1+2r2zpkHVi2TWRcLB/DVmlwpVBYxPvFU7oqSqKG4AYAsZ7t4PaU1Q6duEhSQbxsByhn5IjZuTeQf97b4EsSllsWeT+TmdjRhK3w/N46EEfunmr7Rxq4uCzm0CSC7k3a0LDt7UmpRdqnZh3UTfKXtJ0qVekHcx0n8zYJxfJWlmKxsv8ihB6nGIjXN/U5vpkX65mCdQViT+B/1Z474gVdujrcG+B0kHVeU9EkI2S2eHUJ8QdRKEFeeMMN61peyL3mnJ/0VZLg5zX8H4DcCmUIbeb1JPJqloaMeV4onRjIH0hgizHCL4R9vC9hFpUCJMELY7FY9EvfeAOOgJqvo8I6TwtFZrszyBmGnU9LJRB1qj+F4CPkp4itVDMi+EUzvPOc7ivvI56TRlPX67CByvXl7uESaRHEHWetQO7r7laX6tyOv4OLWla28ITryv+Shtdxos/puQoFaGDJDqDYnFmT2/xgXHiEC9mIAkTckFfb+cRAYlL2RSasrtS3R8Ekqyib7O4tFI1kKBnhLyz72m8iWemymx5cenCZ25hL240vtIgaEaGVoAW+kP0XCuq8YUbwTWq0AnPFOPk7+ZB8azZbzPR31mjPfHIuBvLtgtLW2bR0Epi+z8KPAE7P/JBuOiarAFAvvUXET71STkJPjoTmQdxJ15QHOzNRSteK46Ga1vInRBUiyvPpX6QN839fo8hW+2I6msHz38CsGy09b9mAFidJFIGJxX5mZ/pmi3KcCekVAPnTMMF+DO3WgruM6Sih4okdHzjEbgW5rWysSDSIfwxPtpmwk4/RwJmrUpSy3yLzWcqJ3htNPI0pcttDGBF1TzXh7r4nKusheOkYvzGkN6hqhTz5HhXN5wpv5TCNuYaldi7g58m9QDU5vCfYbpxx6m6BUVf8wlunknd9pJM59egw/g2qGFtPoxQAoktXuAWDhCc9uhAcz0w1hF2lFwrcPbfVFJOnbBQiX9oHq0MzSsRUao0zy1I1jR/dj3oxkrkaW1ZJ1NsDYSBUFpXLzDK+LZ+i7NNYOcK2GCZr1LW/2PgbnvWO54aGt0CxoebJX85lO/4NkEVjr+gda7t+ofwVQGai2C8FXBK3AeW15+c90EO1d3pUxBZjuF4rjxZSFq36P75UujQ8SBCKuA+4P/EfwPhTuAJP//eepY7gIuxI8ks6ExhTcEue7snRoa+jv3EdkRF45RluYDFDE6PVsl5de+aSqGFYTfUgEJqqIIYvmsokjslxJgvf8Eg4GyFVAp7Q6u/SKVjZezUmTKUcWvX+CTDjsqXjVkK6SHFx0QmdTB6xmVHtxW5s9YZvysl4+NB4DNTF1b3B//VdphfC7UzHeh8G0k0uHoSKOWrm0+p9hHRQ8gGExDJrpN904/ElUxtP+fICqUwPLoV91LZoWpMDAlrEsfwLM+h09cTKrk84WNsvbezWfigTkgwKOLHgtgfXuHrqv7iXa2SpoANo4F7CSvEevV7OJE51FbO7T630QcCjb6xy+tBQp07YzLukPutMtuHLAunTE8suhNGSIZjte3z7vYzkaGCSKUiRXTvhSDkTnDq3cWZ1dAUJNGFejjHChEYEthehelLPDWDLdbcYwPsbG6awsD5bOiy9Jb3OCZkgXDisgtnPmZv9GTsK6RmiKwZBlw3Bs8T6rAqqTo/F7x8YhVMrVpJrIMCSHWI7Z+SW44VqUOqUhke8mz4YRiS0qy7VNdx4TKkuBzgZIPpwv8RPPuk7LD9VF7B9w5UQGv7R1aHrBK8vbNPXJZDgkn0aJqsUDTFCZnC+gZS/QcYoPLoByUk9lgvgps9AuBxjp0Y9OrWEIUxF2My/IU/K7XczP9wQKx/IvUKK+HYLM3+0nMg1+g1hMz5a7gFYs1hpgpIoMCyAFpFkovHyM80hitbckHmDBN+H4GelaVHN6kLMfgj1iMTk4oySvCUwPjZVH3GQS3B1KMYBMhhb/5G4MF4z8pR3X+jEBH4Dz0crw9i60qZmsCStiUT+O1v8FhtfXU4iGFab4PXlXVtFt2xrSTZ0cko0/NkV0Re9vbZPJFNVYW9mKadKcoM5qx8hXWGJ+aKl5lGFBi5NwcEy76KM96Yt4p7Tk9nWXfND/Nij5QYreHn+15qetoQLc/D2WI0pLQC4qWtwj7yuccRQV6pmB2Ri7CjEK9248I+DEKtblniB1oCFkE5ItuvzxUcAPBtEc508iV/1wwPgJeJJzwOF41JNCCeKyO2Kb9N/27lK7K4t6/NMB49T5BQ6V2aNhch6kL8L8qjhyN9pradSiKx8mKpqXFjuoYwpj7BfnYyERASLiUdRRfCuGblaZJQRwvPOuBiZ2Mg94beSj0CScQ02JmJJyyJlUgpnQC1S0KWr9i94h1AZvSlclJjWtzxLYUkTBejSxYvKN3ef2xhV+UGtDvqyS/vh9yz9lKEtfDo0PMgQjngPuD/BH8EWHT3bVxW1hiZR+a3fZtU3XoAJ6m6SHjoUdGxhnJnkC2wYLC7yFBPKvkeu5H0GW8wJNQQTo/xnx5uec82E24nK1OmKwDRe+pcOOfTRId/cRmyewaxcuwv1pZWZ+Ss11aHOiQzbMqAD3f+CpkLs1hKyyqaw1w8gcCiSNd+YqGmxTVzqFHwnVkr2nqlQFojHxCL3LPaqhAiI+SiEATpVGIK3xHfEolpNvdC44sO+BjtqPjHhDsj6fP1KHoFY2Q4jxs8nnRIunaVRj9TbrqGdY7ILnEdJnr6zAcRaZjhk1QBWrpCHqSLLGrkk58yQGB3g8yC04gi+5GcMhkhtTFnf9JroTiobrwM2CR4pPmdldeHOUh5exI6qpUuBfpnccsXAjISRpYd+JF6fMhMslSdeqv8VHF8zxhx73yPFtxeH3f6EhnnXUh4v/6F0OJZSUkjvfLHTZwseJUjGHoOR3lFuJEKXXnhw1/Ki4kjSiqI+z0Agkw54MS52MxEgRFijgHNxAFs4eA18zOmJdr2P4R7gnEV+H3PYqn0S6iwB+FqWYdWlZptuEvt3Q2Kk7V6t5HDPSH+oE2g8iCXc7DsOpV/uMWiDN41YP65X5GcV3J4ewOb56XZp8Xe9oRZsEz4Z8e75d0Mx93MNXmkMbEky1mY/LMfh2jViqswjfpdrHAHtDrjIQqpBvbp3AJzwEPzOJ/IV2MM7WTgPUnArFj8HGe4J+8tL+FJJ0xhDn7vdxeo90DURicpJidrdZ5UL5bSiKigEClLCk8WP6q4gAxz+4dsvC2Zty7Po4l80bHjWcdSorYHbjFuOnP5XMHFElL1PRKH7To0erKD/TCDKfdNw/ulOq6S5mda99nN4pKaLtBWaU9R8370QfrCqp8DLc2sXtarGPks6L0lHs8WBQJuHTG69tOmkolRQ+dXEYYx65ZW75oP7x5c10M9k3E536cNRtQHw4QFNzbqNXeQ+dBTcAxPTwNZGZSw27UjMYlZf9lEUK1Utb/1Fn9REcHZaDtqB9oTrJphxl4qi4Z3HDoVG6Z4BOOPpDhDMTlkcShVjA/4HSLTld84mFtW5aaFEGeE9MEAVqBOiAuPNh9c8iZ8cZAIqeTA10MxNIDLIxbS6+L8GIUYg3jsGNyEbg5KSTtUCHLq2BF1LinSKriF+5GQAZqFrFaWLMe/kp/DaNd/b+PaTOEwukXU75zRDSom5hg0iTEGAK+51GiwfTtIf66hYRN2Hz/cYVlzCSr2W2P7gWQOSMLBYa2HCDbXrL0AV1dQfszuS/qTwJ2o0PIgQkjgPuD/hD8EWGT5jZUBIrvYU7xanGJAKC9r06TngSlp6pBk4q3WUkfzVW7q5v5uuV0Vc9VN565ONYT4JPaWJmRHY50XqD/OzhreyKd+msVZt7lA8lYEUTAq9/8mIVQMjsKwhK5ao/4LRlhL0qElMyLT6bKILdKuObcjdDV8G/uHCCRCcDYb+hck0HpDeAHwAwOZDuHcKB6fVEz/NmEx2koMm/1CfObBBDlfSbx8YgjK7TcrhizP/xKuHBI0Gjdkm7N672ow0n6v5dIDTJDO1NByDX9ACMLFhd8OnxwgmgZSrRVUlxSWc0mbzF3mK9qfRAacnrRP7FeqZlp5OD9XVWotnsV8NQA0Pv+U2C4oeLO5HtdRGt3v7Sp+gAH6xhwajLiJyL9nPWofaoUwDQ1yQsAgfHDn/+ZlE7ISjypyTxhAak5irz8amGS7aIlxC9BuSgXWoKik/rcZKm2gcYCXN2JkwaZTJjcHvsjqLgNcgIHI/1lphakCjvYEwFklY3z59kXkJZ3ithmLDOcxCMCI4Gdh9AIyhtFFKzwjOat1bQDAOS/2voh8RT8GwDXUtLAarggr4HjAcAxsKRZ+ZZVrIZVlmsIh2xvDcHy1yA8EQAgB5MlQ0nyshuTwDXJnNG2MfyeJDbwdk3XvYLQdDqRflC1vZMrMO2FE57359D6ghLpNuBysDdG1bW8/fA8OUxh3ci7M+OesybE8vq2Fzh3xxnMos7ceZzZBR13tm/a0eOKQAS/rBrIsOrhdoZrhib9rTI2j/zC20b8j2MSgWkFonHmIt8pZ7P9vY5iRK0zvGZu0EbJu2Iuxi58s//WOrBKZPqYl0y7VZYQ4rKIKdxTLRpjUyS0brJMYbpYWf06I2jkSuRDLrftASo0CKXG4ZfqBwfuDQkXtoUKiJK5t6DEZBUZwBYfHQWqCRSVwuo63EdYGSCJ2v66rd3demMi9pOXju84mTGunTr7XJkA8q0RpDlMNbQnXVNkq1WIDETLURB8/WxM/9+Yj9YTA3yNCbdeN6+W0p3tfUXEJvcBOv2UdWdFE2a6G6fgg1BdJ6WLqc8cPag1j0EVFAEXBDiDJUkPvwsuI+aJu7jFz+E8ICvkWftg93mR97WTO6g6lsHdYGCnU/H99DP+TVZ6hwAHJwHvQDbB50ZbuXde9jX1GXlTO6d7nMkWnEyOa8J/QxZTp/hAMpeq+vNeGLX5ZzOIesEFxb98r/bmrxv360ecmY+ibc1ga5X4S07MiSlZVzLhrj/+DiKlKipcmgcmgbOoIQ8XQWMBQgYO9kmjQ8aBCV+A+wNhwF/py3TALCtFuQlF6E5BfOlJQBzj346BykHllAvvr8D/BzkEkwrqx8GA2kcelmtkumHFSpXfoKKSkugyvmztKbG5aHtcFTINFq0H23G2YQCZxlDCr8bNX8zCJRB2A9tJZFF0Go7t55nrjdKTtsJwbdnWpiC1IULzmuiOBi9NyRhJsn8dP/uCGembL80vP/gQhzlLQFdFfkC8Yzpx2Xd+gHTqt3ZQTUnLA9EnAZ5GwCi+OGV9ulhDtxPmE9SkgeImcqHawqRK4R0miPoNeCDRLIba/ObxnJU+dw4L1WYi0JYFhaK0xlsFg2ImnGT9E0XjAO+Op97MplTK3EezpLKfpF1Q0XjcCXvmKuv6OkVZFNNiY739/NNHyBqjp+ROG3pAsrutdAAaz1MCmAUINb+ITGs1+lXszgsHaRlHitQuvmG6Y5oBWkwJ6r5kF6svnNx6+uzsSinT271EktuckWZe6ONZ6Fo1vV2qwJh3DIs0Xe91NbWyu11lIVeoPcYqFdK4AlEhCp7vDvsulFJdBCSNN6XF5rduN3kbtQ0GkkHR0UbAV86ex5B15Gk9df+0YbB56vlbGL9hOtEr3gKt56U8cgzCvhtY6ufE/4CB0TdZ7ncLZedEhqOLTreoOsLVpOn7xXamqdfwn74efyyyoHVISYHzCEzMpoVflpsn+DpPlTSHt+r4cpMlxAIO2n0EsYJVQZ51WHhWPcHJULnze7ONgOumPLwoWqBO02hm4vsGooklqRxBJrnmGSDutH5gJQ8AVv876lVtRY2XO2FgBkgh9XNv+idQSb3PYzdup84oaY2swNdiYHA8ofdwsLEdHC953dcvK02UGQnO+AcUrCWdYbpVsoNcKSah/DWnJsUqPzZ2YJg+0q8r0ZxhWe6q0WfPDygcfEzuLW2HgpkCZoV3itHmwtnb8pMbCSGT1F8odiG2xLb67NV9QiJZiy7AjSkpcH/ht1SxzuJjfJjzq/i05opnx0/q5J8aU7OwtdmQj/luLBhVRXYVrJGRBf6KeCJ8AEWOPUvIES/l/Yqw+Z8z4uIR4zT43uFwXA1er/d9uJLApF5wWiY8uHD4ntVmAdF7aEeQ9m3kcbpp5Bsv0Gcpgd1kU2i5tNhl/ZU7rNtTFRHK8lakfxFcfrtHQzz2I92LSnsf4EbxChJtJCfvu8rrShqZ2IUjPRo80WKJV6/8QGe+D47TO/aAsXYu8wlqLKHgvB9vSL29iwkeV7EZjJuOBOhVi/7qN8+whLy/QmhTsJsuqcaxFqf36HTp0Dt2uE2jQ8aBCZuA+wNhku3Hfi14nEbbjYEt/97b2V5s5pFFPv2R1Pb/2CclvD0tLDfi+SgAJYB4kZONvKEOr2erF23cbuAfP+v7oKE/rU6o2IiLCMzBU7I/Zhe/ltsMULg3zY93Xl43dFddbx6pgiHGfFKvLcONwnBzDeySDuoP2Dq52ZktJO8eq8ho3JhzzMSkS5cqqMFal+uwzNsRQiuLnqg+PiyL3xGoAq7YL4486I9M09mwowKDHhhgG09zMJsNz7cG5ZSyyH/cOa0y9clieonTd4VDFoUa9WxYhVQFvoKcetO170JEaHa2Dy3UNnutM4QYEoKGHByBwaCTyzVurZLHt7fCWoYJSK1vSezXNiDCX1okgRpo6agE1ZCloutHyB8yIt+eG1vjxScqLW8bPxaSfIQiZX5W3OJtbFwDj8UZj4PoJDHUymvxIGHAX+f3usMpih7x0ZDASOtrKL78HJn3v3ZOamF1SyV7KVPYO8gZgi0trjclXGDM0irHnN8Ibc4mO/qFBg/Zi0iolC2orPdjP3xjoErAz5KfnnahJD9BQIQMX9wGCVZjT2TyxZkbEyUPXNXHBZiPJb+ZUrafaYCvddZfVOmUy4U/7IwA0rOIh5/AC+LeBi8SiEA0iXDfPRQEndFSzA8zWzeC5GzMD6YilSg3ds8tYkVv7qzieOk9nuPc34FuZ5W5C+To0e4CiI3mlaUFQUola8WjJyOGRDMTruAbZODENrFN+QZ90N7tq7bwDyrR6BLoRYkOeR5wZ9X6H9H2BcTQjNeRDbEngTxxpOI1OUb0+64ozmSlxmQhXfJhJ+l73xCK3uAknth/qABkJyC1gfU+ajTQ8yD8g4sodftDkYqbfEzgYZL48QTaGDzwkuxogdeSl4/9O9qbXBhTiDCXuPtuZFNpy7+Ukc/DhB6jeOEb0zuo/gzGBr7u7j6ufdWSo2M46pDpBeD0yhnMhFb8lWvoppYWQHhOv6hyAb25BQpKGf5xHk0qgtMUE9HzNUhO5Vl/Dy5f6x6nzwcv80zhCClCiOVoZ8nuZ64vx5cR5HYXch82qSPodbLrB0Qkpdh/JNjJ/bRRppxbn7n0Rm5Az7HpLDwZwdc8cR57G4FBFYrtlTmkEKKOMaN0B149Gly7jImSALyqtQpSe4yQrHp05iZX/jTizuE0bSq6n7wljhw2UuslaBvdkFzBTXfPJFExDHc/PBSuHXq6SzceWyMl3elwWpcFD4HReqBZ1n17dfNSVZp2RtgdqR1hksW/Vt6HIcQ6es+/jk2YmPUU6UY0vxMMRVqjQ8aBCdeA+wNhkqzSyPSeQFqhaIcCMvjmRfWtym1LidX5PcouY9z/ZAtDeVcZnP4h43FWZsn3yAaDlp9ZUGdU8aCracbuorV992LOPm5YDoL/euR/fbRltAlXQaKpH6dTayCiznaRYAprSiDSXptROwqSEU6MgEGbEs8Qy2laZGASVlKLfzHzROJXydHDtnH9QHrsgk5XMsp7rmuvIbxZNioLtFL9pdO5ZjdllbdqfBCzGDNw2IXuElpPjeNYXTlnuG0h8rdc+TknlDu1yi8asI82D1c4QJL9saRj1iO5ou9LytNuLw+WgoMgvdiZ9KBGPaiOiznM0Bn43Q5HUaPAGN8f1RyXLZUPDxH2vlzWIAN6f5ZVvYQf4kgUW+Iowtkai4f7yzUtOdxxMR95uREPmL8p8I1NwO8w2RXmF/LlX3XmDeh6/HQsvGHQlnttjLvhsgM/t+JwrigB9/lvJjxyKwps5e9p64zfk3qTcyZ5Nb9QLjN3i3HG18m2OhBwjVrBkPU8Sks447s0w+bAfED7XviNY9RL+biUjGxgXelFL3gilSdefW/+MftpD1S5c2ZCrw+TFA2JjNE2/j9GBhaYtHoSZhpUigxPTNTjTmJHbMQ8ZL3JB05rZq14Zj0ykeeSEIYoq8LWFkelW2HYVF0WDAYD4UPlOOIPNqiRTk02eWHRaRkmegnUg3shBbFXmR3nVM2Rn0/3yxtMJMEehUrRQr6Qfo3p7L8SFRIB3o6OErGsSGDsiyZOcyE1nEQ2yo72j8xGz/5+5g38tV4CiSFP0EXPmr1lKOONQGyTTK39wFuNEWfT+wLSJeMrVyg9zExqyezwZl+VZh28lLldAlvnA/5BziM9ceVmYdGFqOnKYQALYsqOv1qpR7SxDf6mvZ297q1DDhfj8NhcTzlhJPrlfLt6o+AGu2QGYpnGhdN+JKDEHSDuXJr1EFZuq9B/u0Dosq/4mUCLnkRP96qMbNOd42iHRyASbXP2AfL7OH4KpawcrbRE2aTkBx9Bdoblz6/B2V98N4IVaNvuRYT3qDTBT0cqe7WYNvK/+4nt1+1XMflnRv74EwTcjWAEzjpFcSihTTrW54B42d0J5XLAa7gq6cT5BSL44XBI1RyI+aoLfRm3ZbGYg6cmpi4xZF6Mmgv/jWo5ghUd0FVipAhp3w81jXKFod6C3rTCSAKB7q2YFUDVE25Zppz21XPxZieTCv3n4+rqMCGUjYeZH3LvElH43143exARcJ6Way52YM8rRXZodJ30DXfkF9NrE9OXl6X0uA/DmXpOpAyjQ8qBChOA+4P8Ef4RYbpjknzdxwC1uq5/0G6kLBtWM+XPfWsZoUIGsbVbyBs0OcLvGY3lUVEWWvx/AYi9UAyJcZWB4KVFF+RkdpU+yV08pTGS3qLo8dvSDCUcVz9OPNPWJ61vMCExewWPpitucKoPZxbV0Y8Q6j4Lp/RauqZR9/xRpjJeY/eLYkr2hJxmX5xwfTVz9rOFZay304vFopvtM09G2y9Ndd4uYtzG+G+rJuG30kVXs4zjCvhgdD2UM2hL/K7DAjvZpUZXTHHwm4QTivKm9oLxTH3arYpaX7WvIg9EmQe297pS0JG6cEnC8wsUiOfGr2lK1xkPN9kJRhKYljrNLU3Q3RXVYWqnlb0g4Hm9fZYUaFOgAZo51VzOxHhXQ8OZk0mecwW3hN9v0jJM3X2cvu/kjD09OZiJmNZG2sP+rRJ16CcwFihYXSBh0Jt0Xm1xBODtxFJ16ier8eoiYaprz2uz0dmuDkg0Xva0nPSKQP5RbBoJ3a85dbn6DAwY5mjyYb3KutflJqjf2qdeMlyqN0FZd/qMskgJT5KrxYGfK99BXeQz3GCSkAw1cWp/4AOmgoM+5zVnnhcYy6JG0kjvj9ev1m/urruIyLqw0a7U077sMi3kIEqZbveTTam95O7WZGxyiQpxAL/+qvJz/1aATA0024eV3oW5jNq0rNtAc9ITTAPLYw4PxZGvVn9KutBS39I9EhMx18SDuCezgT7QIMUuGKsAgc3K10hrQ8jTjjxdkPwq+aeiUpUmNvvGpCSTa/G8P6rB4NEQYW3y4x3Dl5gqPEBX/PslQ8W+LvFo1xtgKopXxHsj55y6ONasdsTm2U16orbOuwJwYtirvrkyeEPgy5L3bedpzErRYbpLuwOX7a1L/07XQrvRod92TZ/mprkhdZXghU3MY1R352xNEemkB2/2W/gDgvk41r7EA0ZDBRruW6SOeePMhhD6/g8t3dgcMEchM34JcF+22yDhLi4eBf0ZNRaRFMVBV1hE0JQakJuKb3xnhHXgQkGs1nwX1bGDJIyzaUKqwWM0ex3H3YuQwHqpulbO/7Dgb4tXk2aT++E4kNzuTp04iQDvvuUtaHHOl6O4c1mN60p508n2WOwUbHfu0wlwV9KBfzJmQDsHBmkaaaET4SXFK9GyCECSea/X7IOaFGVgHvz0OtZla1RBpYUqGIUdQomOq4FXXEQRIy17vzdsDn6LYrzgWJ+kd6NdxQ9cRXZk2p4pRq3RHYgmmUar51o/1rbJzJCZf4Q3F82VUAEoAKvjlYF2kZA9CBRkXgmGvVMBo0PGgQpPgPsDYcBxVf44bMBqPylR/cOOddtXdJ/A4ODzhlmB19aAPeGWs18YUR7Zh3dbHKfHK6/0XeJfwAy6+xD84lJcNFnqXw3WqvWxKgWywk5WtDoOzB/6oRipujbWB396qcGsGAmPIcLoDj0kiUMYs3FG2ubkJm6aG8Pw2cdhvO6PWITS4A1pjVQHeXDEsJx8CdzEjhV5gBgBe+b1B2+elaJ9GJHquMVMiTkWrY248JWciqF425UU05cPFVGycqY+EE3N7yq6a+JcJyPtwu7gwA53KXdow6VCquOtbbzRYK9tJqAbLwQc/J+6uBc8fPxL9hUddsOl/JViRtWlHMynvpB29tLSCyuUTLK+3Fl5OXWKeeI59+k5JowxJdaTWKQuaPFVuomoOAtxOGDU0/pUU8twvXi3rHoEKR1s3q3zye6LlAwpgxph0BysYZpZ51WsJeLR44xqiWaDze9yOLbTYyNS3Tlt106AIsBTsT5MkYK32BKq+SHDs9T4Qjv8RKSMGA1upngIlYUTYPmgZe4L9YpXYo3qykriyXlzHtqrC03igV37pN6FddZmDjUdfcZuiMtFJ7vVB45+wnw7eZ1n3icc22UHjD51qlX670+XbovVs4olvZ98Bb/MmG833u+l1lzyln9tRXqsSp1vhtGKSFX/ztxPQY+HSYK54QpwJae8c6nEGgSUpbF6thNuHQNC5TaVUQ9i3HrWRItLodH1QBJ9FJTd9DgQhp/uuboSzqnQGBoD5VAGo9I7kMjCM8YUKFj2qNWt4zRXpwN6Y1FM65tU3O0GfEXttjRitx0/I+VKd39Xj33tycXsrhe0mnAyT06CyWsJ+/XHNCGCg2TXS/BicIwqRWHAd7pj8nKxXtDQ8LOGQmWp0OHh4Sze8C4f8sYQ3ghwq5uRO94NEtlkxrkOk0knWHz6UrhcYVlQeBmIpD/c3y1wYf9io5cF1i0yfc4p60UWA6XzqjLALfAbAs+dF5bOrl86R0pZn2l21FqGdbglcOJux4lEIqyA8dz3oWmVs2hJhLQAnLR9yjw+T7iKEKeT8AsiCtnHLYIy1Wc+U1EveZSJJLkEaEBd1DFNVinvl/CCkpipIvgxvESujp1opGODbjZkO8T14x1A0gCsINZcdkrZw+K2mMvacsSMeWn5RIrl5TJqYQj6Rt17qa7DP4xG1VJDFuPJUem1V2XC6MjGflYv1fLYIhpdHQpWhgT9MspCVlNOPWtG0if/kC64AZwUbSZjjMQHUiOn+eCyZIgMOal64+WXIn1aALoTcbeHUIGwo0PGgQqMgPsDYbpnpWh21RhbGrdvZ2LmGMfL0wYgFuYmaUKguav/aUijf5CZ9zIWdFSVIgO+wDWrkT80VPbJjgj0G+nAp3+6By0YQVdBgiDkVWz46RIAK6FOCUglxUfakcQSpQtVCF4+rNiNp3oACqUNGQiZ1u8yFGRyQju0ZDUocKD7Z0kqWHTo8BrRlooKD+d7lryrnS6SLThpAWrb/11Aau3R3X7OuVX4cbU6v47re4fTV0xqPCEga+7pu6SC6cTlNTsd5dK0vuW6p3PKcK/ApmzIKEc+0mYkqHYtSTnv3fujMF87MwHJh+KSu/XeeuLmd4JrbQnd/ChiHNQ5hvLr1x0qksKyjy1lt44V5yA04q9Jaa9CIqTxDW/VdjkYtYhJSPNFHcqGVbaVgJyNACCHmu7rzEWgHr4JISFZfIn06E7P2gS9Iwth04nwEQe1lZNlT4Oa/WBiicz8gVjlWsMQqTTefczWv+JItyuxpRJkomBt0+jOmaTMPtNXH3QHZnLuyEMgOKoJlt1xRnNkNhjU4FA/t2vbUt9HnGpjPtSYw1Ou7vKJZJPR7CPIfOsE75jWKJa+6gN8sH9mZ3faTb2Vr9QcK3BYE3ggKpr/cqC+OCt6LZlth1pGA2OPgW7rCneHG5hbTXQGnJ7kwMrj+baGi5znR6nQgiSt1GgFMM0jk7xN9qMMc8aOU9r/UDCs1Qt1Yvpy6eLHLiCD8V/2OSLTaGWXr6BObELkmvuJ7n33uSXNQp0vsH5p3RjtRyaRUOP/m/LDp+bzNCJwtIW/4AQyXXQMFiVEIBdYEubFlPwtUXHh4jTziyaaB03OEMqZBkzBaXAENKjTpr9/rmWx03TJUcmT+ica9GG5m85/XxHRCBHM8sN76T3IIpGGvAvMyIZOPHS/SqbINRY7aNDJU617z4fhfbKCf/KkkZi1D9rSFNnvnyhQrFeG//hhs8Lspp2/QkkMAkQGRImHBS+0o526yPfWoO04oWV1csHwFoG2FzHZN3k6jszSkvoZiQtEGLuGN0vI+Z2Fk+GLYdyJlf1cjl4AEJ7XFgDHZI8Vqr+/kLVuCyqAj4BJN8Y+xNKLTSLY+4t8XwZ9GXZZ5fdMC+X1wNxyt3VbSxJ42hnenreR93dT9G7wug/4cPXLS5tbPwMxIudagBGNk6ynAFOXTdbYW/P6sSx6ukDp7pZbHLsdMJkxe3Bwn2BRGkadis+u1/z0McDG8BBvO8iz3VdueeH+kiDuVFNGNsPkFSGn+vrx+fVvSmw0pzK43nnUJqRcZLUwSy1DhnrIo0PGgQrHgPsDYdN5zCOwGOnmxz47M7mBAuKwLN7WbINUDQRb9oVU9pbYhSEDCU1gPqmeA28IDLKKEVPrTmgu7uEgppgWWsJdBmZheBNniUrh7dWSpZk9kipeIuJmWubnFf42/lar2YCvg/b+UininzWFeIHNZZdxI9qxfywZ0GxVgemnT0VgmSmH7BV4dMPG3vBlIOxlHng4EQdPLec7weLrDQVdp5PKvO9OTR1udz+LHLhcbAs/EJER8Rze997kqpaq15OxY3CPAWjmelc5Kl1nflaIJgFGeehJUMRtskvs+2PL3RkBagoU1ym/rY4zlEQfDq+38KSV0C3lHAp2hJyO/UpIbSZEBNT8CaectP5VRh4AS7uk/gjGxYqTA5SQoPUYecXq5oTVt5VLvo7nH2oKtEYviMuJJNbdjhqwWDWD6iULBc7OeEth3fatbCii8cy0uWRToYkvM36ipzzWdwPttzZA9J6JVZ8o7qyXWP4uJm7mhXsDRrh3xJ+c0jmFUjFm+KjHgXwgi3GjT6W88XnYTgBeF/gJBcfKLBRamTUskNjQoRCig//mgPc1Vrmtze1DSdYnbw34WYyUZ86EFnQprjyOO0tkBsRfleNhvs4r+RzEu3mwna0u9qeTzAFoxgtCSGzTuUJJQPTeRwhY2zi2oJleXu1/Ot0gpZObDEWlrjVmCwl9f4G9od7ccn4CzcRTM7Ou5WG4gTuKW5oEmv9XfkWuBdUCmCMwIi9atn07ahVUVWq1jyunhf+egWeKu9UaAqolZDEF5b7aFmhSJp6vnM0VpvftzcUX6Y8M08gNV6wjBp7ka1KIaIJg+w7uI2bqPH8u20Pp2v3JsxkxIOfQI43ms4IXGGHTek+ylM/XPmk493pYJZ9qNiKOqtErTYWpsda+LbV7KmSDCZQu+i7LkO1ULZrTdSoENwCoYnfAAVZjMOK4qRjNFSja7n+UV8UnQ586dcGcnRiD4MRQah59bY5TIvp6g9Jbx3XgBuH+upFlMdizZFjQKrukeTsbnVIzA/msu4EHCQVJdb0QLLxMXOqeJ1E+5+ulv6c/tu299T+I/t5L3myqnr+uosU0KNzvkeecdBgrfJxpbqeobrUrQBPYLuW2fwz7Hdu2AK+mY0yt6csfUmO4iWhita/EGCXOPr7UtVdVZccqFD+VsOcfgak1MzBgdTcHbvPyp/+ZL3MBqIvP4T6wUXJwRMX3qqgwmA+oABcXtmnddS/T+XJ3OfX8UejKt/hXT25xID12s1/+QhScaeB0WGyfLLiC86gua3XM6O59o0PGgQsDgPsDYdOslVbjGBtS+5YP2qW/NC/swKbFoYQKsTVlvOZtFr6uLheS/4uuUXx2IfsVATow1J9RxfMSuQz76klVJYRp6Pb5bf3TowUVo2oqsfMAfpNSFZaFQKoEXyM7AlNKvSCWqz1KVeJkJSkwDVU6zO38NfCvzW+dztawJbLikYcoNHTChdHda4ZST12D5ziSomWatVQjzz+GGQIzS/8RbHoDi4Z75RpNanuedJWjwTC58zPHbPVjyORKFW4TeLoahBRuXC15Nv6qxrQXwx0RF106mwjb+1Y9qeViB7ZFjW51FsR3rvfwY8IeVSTXZlSRXFHlGcGE3aLWVFPaBgbTY0AvnhW02rKITYxKbJSWwgeJIRsvGYHkmn8G+xTNNX3ZKDhuP2MCLAAHhY1fTxL4+w5zYUyF5EGYEQnk1SYjqCw/oBZhwHNnJTEp9R2eldcFwBH/usQgFcQ+Lk/Tl48KEyELRWTnOYTAHbnfmzBmTbzG46vZQT+7QA+005bR9O6+/7xD3gK0S9ab9+yd512gh1n4qBAYhg0iXrZ9+I2Ujd3OECcT5Wow6YCAJGjOwbSZnUu2jXfxHfSnSfvgGx0nILL35C2Cg4/KFVQKwyr4ZMqGsmYavI3repQtGB4RZzoXpofwDbNkBfumkgDp1QNyoNaTIxkQPQgvCj0VDkSnBwJsQ+lfeGtIdp9ycsWKOoLw2fR8vOVzz8aGu57SE+h7AUZjHTbbgMQodi3rOLPzqozGa6xFBXy0weiOEspx8w2xivshPQVKoWrKk7+BspG/n8KvArn3Fnoeffci+iueFD8qrR8KSIILS0JzkIlWePagiYtMzZJa4fl8EQDrIK3ShjhZk2GS7uMYQeaGt7Q5H4m777nWKksNsZKduoWdFadhh3aBBkJ4gpLAS4/xXhhRxwBw7sRtokk1l0KAVwi1xWssKavDE0pAquCtla4Sr9IR0Pyqkk/9av7StcvJy5YONKmokT1NchekehU5DrIotQGQEJmNeBVb40po3KX6PE0PNU6/38tMl2cqFJMKt4teB4WyGZft+QZN9Ph6jggTpaHPczQhKSan04kyp30lLQkSXEwpzXhlqt0qjB2e2QB+MrQfU9ZSL23jcA2dLe6v5A3wlLU7pZbAXQEgXyTY14m/CcoM3dcrTBQwjNNgf09Wqi7h9VXf4RJdtOviVO1KVoxNSHTUwlg/GfXthBGf6VEDHkfhfjLb/rLnLArv/RJtz85HunwIOsWVOLyfrBjv2hRw2Pc7TIQm+Gjx9Lcl58GJ7bJeo0PGgQs/gPsDYbpVjdkPKMQPGqCq07IrWG1TrOPObTd9MaBv4tyWotzSciPvZFY9VqAqi+HD551IiaHLpfTpSy+dlL3cC9JMFCUFyDUkusWPZTnCcQ9f2reALynAfp9ZYTDYXADdmFbXYeLLMorgsIXO0CWhsiJmN3w9TP7Ufhnauc+9cHoQBNvZUsAgJ85a37csMdhnnYik1T6mst640Cv7PsM/ffUbgXSSqY/3l1BxpHTfmCFd6TYx9a8qr18VVZxnIKHLZoigtRkvjO9yKaXYC7L1+HTiLWeCh9+bprkBHpyt9oTgW6+R30Gp5eDfnOrzchDTRP0twYwamin1tWZSohHun4jV1FTBHPnB23qk7xxN1WEVASvLhs/hsxAJCm13+VQyW3bplUAfrVaOHVxeUjxPbRYXf5XEH4W8n3d16XKtuZqiQcRhwA9aZ4244d0T9hjNM6S4XNHwMVMpByfbyVtpKHdtLOndaZv1xkjPUDP3T7+xI5lPE2pb02cRULaM5dR2gXj0WU4hwsQx5gwHbxK+n5IahauosFkw2iv9BIJ1QTeQ2pqnL2LuJbgU0yvNd2JBDBtxfG+miMfvT6MFx1RX6tnUq4XSinfA47UeL86eFOJ+JQbrE1OqXnwZ1xd3+2RYnOsLKscz51tI/FnZYPcVD6mkUCoA/vYC2zI6bJzUpu8CCIa6Aw6/uuFzTdK6SEZ54feso0OwcLtMc0sAvZuv5K5tqqVgmIxpJ3YJfENCUpczn+NsHtUoGd/Um6HhxPD4lETLyfIHyYt7pjDHx7nxpmHzP4H4LzVEriX3idtQL9exf10ne9DYzgZ0zW8GOH1IReCkyjGO5UJCKnHF3vXdBKYvIGHeZZaaoKsFQME0Da86Tr/g1r+C/OT1oo+fXYOkd9HeNrzjdwsa5kLS3XCtGpfGAbnJJ3Qa1pQunmaJ59mUl2ths6Tkvr0mQaIVPHwVHLS6KPkW8WJnyvznuT7X29HP3Jj8FAIqZG7spB8guaUE2uEVYAT+tHGpDouaMP1LjUJye40F//dfXu6dvwP80mWiNCIZGwETj9BvFrFpGTKBnSGP9QeenayeoeDbFcnWHYC8cazog1HtjutGkEnP7ZdyjWkEvP7VSuFReYPCo8H+2BpfL1w4ErfvugOMeDsTntrgyv9OggmyhJYUFomhpcP17iOZGwxNvhGDTjD1VfMydbqwqzGh33dnU95GoUBiNdl8gFQklL+d3nLhp3L3AWg7A421b5EXdk5it4WOvJNOWoaO9NSuEqRj8+hh8iVHvx73o0PGgQt7gPsDYcANznH/EfouhU+QL6JF5zj/axa733oyDDgmg+VdB8lpWJzu39QzL4f0BSonP1aBwUQ/iDJwHvz0NxwQ55uE2/qVjAeindUAOVXtjBZQWMp4PHcOJM6raxPc6nyFEHzfpLA/TxfwWUrRZBnOBmCzgHbMvjhl6ZooTYuXGqzWCg9X9XcGPBt3Z6ks2lv61MQ2Qer2Un0EzQ78qOvxx+4cUH4SIivJSuswZ6mznBpXvbe/FOxZRuOOW/E77urMa4K4uw0xrtRqebooNTjlOvO/Bg1UsZPTNA0xi7lSCdY+K5QQCWD/zPPrFEK6TOX7Dw/akzlxaniTFt2bKGaem7U/7DeUQWQErNoM60s0ts0h9V5selIGaiMsUzImf6vtR/pSdEsXmN950rD7nXoU7kL+8hGknsyHVvFjlyHs6AX7+hhhuaIyM8v64wodLGS+0ApqoVo6TFC1sZ36aZeATpa87l8T6CsZGKkjEcQoE/k+qmBVQ9t7Kl/oFFYD1/GE863ltuAzdkarcxj+2Dy9+dONMWjs18s8HwIV5Gx9CTwjcrXb9CkndDNfK/LOAPJp3LH1u0u/clPXJjFMrNPTyC9JTTxZmcdCj8+VAXLLF5EVXezRS6cL/pLj9KpOricouNozZQJ+C7y/71zO9/AlGsHApWQimnbH0ZwwkNko2JzhlWg2uxQzkaZEZEf+ChftPSIZ96nC4q1ve3gR2lK9FORMeOCbgNlr794uaFFyqjkndarYm/A+8ZfJTZqGiGRmLRMudNgicWgrmmwoL+GSrats4WjHpk2hPE9eKgGRSPYSujABhEfyXEZMza4qrpXsM+xyp2F0cv0KAYT1XtNUeyh3pGG50d0SsOKV0SJQCRK3V5pB2mXvj9bh/C7pkm9wANmqZgv6pKTxNH/B57CnuicgmpfSCPqaz85BH3KKcAAb/tQ1c6cFNev2vzebqK0OQDGSHhJsnSTsnZfuZ31rWm89tdOeqgtBCsA7mcaDELwWVf4OFVhL8lynDrYve7k8vV+dP9Wqf3SKuAu6RL86I9pGuOjeoDzCWsPL2HLA13vF/XCjvgn8Gps43RrcNT9bZwP5dlBm4h1YvdTbQUmckXiHE1wCxhx+P9jmPmbpzv6ncnO1alcF4xfHxCtCz/9bYNIYmZv5LxzFe9NGA+LoFaNarCE2yWoKmehqvf1jHTvoSemccH6DvwE0ZLuxDNagYoJrGiNi+oklTBfAlOh2CxX9IdOZeUjmPzn1P4idv0eM/9ehb8kwhtMT4djxx9DsgL+Ro0PGgQu3gPsDYd+dMK38pzc8p5Xg6H4ufK/KgjUMhEtiRP4Je+mqGxjNoTUUvxf2nUGHAdM7V5EfcoDSn2iZ2GQsFLFK7DXn0iuRtq9GKrEGH/lWldu4XFUOspjynF2lM7xwOmEdEECZFuVDOvNaqQ+uFhxILTy/l6MGYARE06LD1RfkzMFjXKifT0ehXfMxFvLvLN3BzaiNg9a9PIQnS/7JL6oIvq7MkfSJdhnMRmk0Xbk0QMdP0wUTijAnEW+U7r+RSXZ3KG6ihZWL+7XoVGez2vJPSI1zH+Ba3YSnRfNCKDV414vALNctxvswYsMLx2INUN8Bha+GiYVmZIHL1G4ZMhI8bkaWYTcxS37g4wk1IuBGJ7oY+51UGPzo3aFOVx9wuBLsc3dr4svhoP2lHZR6PQzRqD34xy7pKcBVZuoLbiRhxgk2U69h3oWTQAVC3KCjGcDQ7LdUQcV8pY8M5IglYt+fV+vctUs/kMagKmeiSRWfHBqhcIUMzqIgvQR7re2zspdk1QW4Vfs6KdpLuHqtv9ZpzuJAb+apXwAlrQiye1fjzmiLaAfyRrbIn1V4WBW7lWIcupJQ/g1c7So7K+9PqsZlIZM5UYoKDh59Tq9jirxFk0v80gP19kuwcoLDkM3/E2PvPsa,,,,,,,,,,,,,,,,
