success,timeout,failed_images,failed_audio,failed_video,trial_type,trial_index,time_elapsed,internal_node_id,subject,audio_id,rt,device_id,view_history,stimulus,response,estimated_stimulus_onset
TRUE,FALSE,[],[],[],preload,0,2729,0.0-0.0,4g2yqq30avok993,4g2yqq30avok993-2024-03-20-17-03-00,,,,,,
TRUE,,,,,fullscreen,1,5464,0.0-1.0,4g2yqq30avok993,4g2yqq30avok993-2024-03-20-17-03-00,1726,,,,,
,,,,,initialize-microphone,2,29561,0.0-2.0,4g2yqq30avok993,4g2yqq30avok993-2024-03-20-17-03-00,,4XfxLSb1NMFIwujcTlRvsbnlnIqgAj3Rr6QQcVKwgRU=,,,,
,,,,,instructions,3,70350,0.0-3.0,4g2yqq30avok993,4g2yqq30avok993-2024-03-20-17-03-00,40788,,"[{""page_index"":0,""viewing_time"":2280},{""page_index"":1,""viewing_time"":38508}]",,,
,,,,,image-button-response,4,74854,0.0-4.0-0.0,4g2yqq30avok993,4g2yqq30avok993-2024-03-20-17-03-00,null,,,images/instructions/movie_1.png,null,
,,,,,image-button-response,5,77185,0.0-4.0-1.0,4g2yqq30avok993,4g2yqq30avok993-2024-03-20-17-03-00,2330,,,images/instructions/movie_1.png,1,
,,,,,image-button-response,6,78996,0.0-4.0-2.0,4g2yqq30avok993,4g2yqq30avok993-2024-03-20-17-03-00,null,,,[],null,
,,,,,image-button-response,7,83504,0.0-4.0-0.1,4g2yqq30avok993,4g2yqq30avok993-2024-03-20-17-03-00,null,,,images/instructions/movie_2.png,null,
,,,,,image-button-response,8,85046,0.0-4.0-1.1,4g2yqq30avok993,4g2yqq30avok993-2024-03-20-17-03-00,1541,,,images/instructions/movie_2.png,0,
,,,,,image-button-response,9,86927,0.0-4.0-2.1,4g2yqq30avok993,4g2yqq30avok993-2024-03-20-17-03-00,null,,,[],null,
,,,,,image-button-response,10,91430,0.0-4.0-0.2,4g2yqq30avok993,4g2yqq30avok993-2024-03-20-17-03-00,null,,,images/instructions/movie_3.png,null,
,,,,,image-button-response,11,92347,0.0-4.0-1.2,4g2yqq30avok993,4g2yqq30avok993-2024-03-20-17-03-00,915,,,images/instructions/movie_3.png,0,
,,,,,image-button-response,12,94267,0.0-4.0-2.2,4g2yqq30avok993,4g2yqq30avok993-2024-03-20-17-03-00,null,,,[],null,
,,,,,image-button-response,13,98774,0.0-4.0-0.3,4g2yqq30avok993,4g2yqq30avok993-2024-03-20-17-03-00,null,,,images/instructions/movie_4.png,null,
,,,,,image-button-response,14,99760,0.0-4.0-1.3,4g2yqq30avok993,4g2yqq30avok993-2024-03-20-17-03-00,986,,,images/instructions/movie_4.png,0,
,,,,,image-button-response,15,101564,0.0-4.0-2.3,4g2yqq30avok993,4g2yqq30avok993-2024-03-20-17-03-00,null,,,[],null,
,,,,,instructions,16,106572,0.0-5.0,4g2yqq30avok993,4g2yqq30avok993-2024-03-20-17-03-00,5007,,"[{""page_index"":0,""viewing_time"":3910},{""page_index"":1,""viewing_time"":1097}]",,,
,,,,,html-audio-response,17,135264,0.0-6.0,4g2yqq30avok993,4g2yqq30avok993-2024-03-20-17-03-00,12666,,,"<span style=""color: red; font-size: 24px""> NOW RECORDING</span>
        <p>Please say out loud the list of the actions you saw. The actions can be said in any order.</p>",T2dnUwACAAAAAAAAAAD1PgAAAAAAACCRr38BE09wdXNIZWFkAQI4AYC7AAAAAABPZ2dTAAAAAAAAAAAAAPU+AAABAAAArH8+LAE5T3B1c1RhZ3MPAAAAbGlib3B1cyB1bmtub3duAQAAABYAAABFTkNPREVSPU1vemlsbGExMjMuMC4xT2dnUwAAQLwDAAAAAAD1PgAAAgAAAFZwvrP/AwMDAwMDAwMDAwMDAwMDAwMDAwMDAwMDAwMDAwMDAwMDAwMDAwMDAwMDAwMDAwMDAwMDAwMDAwMDAwMDAwMDAwMDAwMDAwMDAwMDAwMDAwMDAwMDAwMDAwMDAwMDAwMDAwMDAwMDAwMDAwMDAwMDAwMDAwMDAwMDAwMDAwMDAwMDAwMDAwMDAwMDAwMDAwMDAwMDAwMDAwMDAwMDAwMDAwMDAwMDAwMDAwMDAwMDAwMDAwMDAwMDAwMDAwMDAwMDAwMDAwMDAwMDAwMDAwMDAwMDAwMDAwMDAwMDAwMDAwMDAwMDAwMDAwMDAwMDAwMDAwMDAwMDAwMDAwMDAwMD/P/+/P/+/P/+/P/+/P/+/P/+/P/+/P/+/P/+/P/+/P/+/P/+/P/+/P/+/P/+/P/+/P/+/P/+/P/+/P/+/P/+/P/+/P/+/P/+/P/+/P/+/P/+/P/+/P/+/P/+/P/+/P/+/P/+/P/+/P/+/P/+/P/+/P/+/P/+/P/+/P/+/P/+/P/+/P/+/P/+/P/+/P/+/P/+/P/+/P/+/P/+/P/+/P/+/P/+/P/+/P/+/P/+/P/+/P/+/P/+/P/+/P/+/P/+/P/+/P/+/P/+/P/+/P/+/P/+/P/+/P/+/P/+/P/+/P/+/P/+/P/+/P/+/P/+/P/+/P/+/P/+/P/+/P/+/P/+/P/+/P/+/P/+/P/+/P/+/P/+/P/+/P/+/P/+/P/+/P/+/P/+/P/+/P/+/P/+/P/+/P/+/P/+/P/+/P/+/P/+/P/+/P/+/P/+/P/+/P/+/P/+/P/+/P/+/P/+/P/+/P/+/P/+/P/+/P/+/P/+/P/+/P/+/P/+/P/+/P/+/P/+/P/+/P/+/P/+/P/+/P/+/P/+/P/+/P/+/P/+/P/+/P/+/P/+/P/+/P/+/P/+/P/+/P/+/P/+/P/+/P/+/P/+/P/+/P/+/P/+/P/+/P/+/P/+/P/+/P/+/P/+/P/+/P/+/P/+/P/+/P/+/P/+/P/+/P/+/P/+/P/+/P/+/P/+/P/+/P/+/P/+/P/+/P/+/P/+/P/+/P/+/P/+/P/+/P/+/P/+/P/+/P/+/P/+/P/+/P/+/P/+/P/+/P/+/P/+/P/+/P/+/P/+/P/+/P/+/P/+/P/+/P/+/P/+/P/+/P/+/P/+/P/+/P/+/P/+/P/+/P/+/P/+/P/+/P/+/P/+/P/+/P/+/P/+/P/+/P/+/P/+/P/+/P/+/P/+/P/+/P/+/P/+/P/+/P/+/P/+/P/+/P/+/P/+/P/+/P/+/P/+/P/+/P/+/P/+/P/+/P/+/P/+/P/+/P/+/P/+/P/+/P/+/P/+/P/+/P/+/P/+/P/+/P/+/P/+/P/+/P/+/P/+/P/+/P/+/P/+T2dnUwAAQCUEAAAAAAD1PgAAAwAAAChkRzwpAwMDAwMDAwMDAwMDAwMDA/9C//8S/7P/Qv9C/0D/PP9K/0L/Qv9C/0L8//78//78//78//78//78//78//78//78//78//78//78//78//78//78//78//78f/4MeBgI+x0Wzp6KhNaepAf8Fz4B8Gtsjmlg7FxNWblKXZsDODQlOrn/G7SfUjxlwvG2bPRDAtTdmAiyjazIf0K501cfEzZhbVXAcmnSATQqm6kTs3qV/W75dNO1pI/1FGD9BqWwBxCtFTDrp3fmj9wY77erwJ1d5LDuVFcxc9wt37/cdc8c8EvfUKpv2+40THJIp65MMIUcGQhfCcjOEoJul7xqzQ0Yhsd1zVBN/DJtGxcNjLTgk4x8AKdgKwDvNB1CqWQZCOnoUHmUA/mNn5VS2sWo44XEtfnRTFEcfJiSNckn36ti+2KpjjHkg4EyYRP+rzInzcXyEt2tc0GM5IYAX03yp9QvueRtwprJHwmMIIexr0dRFZ7Nb3Zhp1prp5Cr+NKDwtEozu+jcdd0fSXQ7JYC1pIAkCRQVaCqVfX8f98AyWp+4caG8g3dC4yhi1P65C8pF//yP2ApuNrBnF5GEKhX1dTr5g1Xme/hSPTXarOP0SCyPbgLBxeUzuF7dukcpBvzmdPyNeodAcBaZwuQvwpo5DwbWJbeUY0bJl4MJs2vi0baYse2trZ/r/OAM2aYarob2y6KO2DwyuLeCf5mqx+JWixa5JuZzas/CYEg5OGWME2lRIyDAtJktL6vTDRPZ0JMUmMl21SJ1ZeakPTrd7ay2uVWnxqL1yythWStPkDZ5ygP8/wV6ItNzfacWy0zFFg3FxEBhoYz8n3iQODdpSBZdXkja5lbO6AgPaB3a+JovbxNnqQUHKyMAUb34cuobayrBmbdsHi515MekNOSj+4AAAAAAAAAAAAAAAAAAAAHmfn/n4qDt/leg0gyCGmRa4F3CBB4XZF+t2Wg5U8TZvx1wMwjKuflRmyJYGT4EePxhZiUfOBE01tayapTVo0J6pKGtRT9OhMO7lkiutg25495Trpo1cWrAykCs7CSHR38/MlRWRxpzSsyjQOutUMsG86Sz/bRp/JF1fPMAS3kkhg65gU+mgSl89eowrv4Fe5v822ISSh6KfJT7pw/AkhRHxPH4sK28SCegHXWtpyaTQf7j0XPlH0DJ/jBWbqsmaklPNPuzJqiemKgPvdRkbyEHOf6Qun5Eo1UxZTUTO2T9VZgNmyQEgLsD8n9uTb8fs7hyna379XjUav7XnX668OKR35I25mlXdzqUtRjSLilzUpsu8vDh0CmMWZUAnEwMOzkGXeflXyZoYzrA+4Uhifs2m/peE9sYb7oazPOZC7jazVJEe60P3lsMhjNIISFmvPBinO8LdjB5uM21EQjoLiH7kC4otx36WPKNK0o8HS/w29U4Dc/ES6fTKzoZL6cTeApy5IeLy9EfBlkmZ5Bb3iSOHVen7IX4NaMEFZMunS2hYF8orQ44J6pQEnOKM6rJ1UvZvk8EJyHBP9kt7h2QVilLE2KqsdrTQEec98pyvD9XR1Nto8dh89czMOl1kUt5jRl6hOuDX5bQn/41Gc64PGWOMfC1Zm6iewJIXztMYQV+eYri7ssDVyVQVMgItLNxAP9EsJsv4J48fosVYeDVhdnycSU6B+kPV6FahmX8U8x/niC54SJOVDr1fA7iSuG0yljwpQMR6jXQOr+1te4Y6YS15iY5RBIw18EBDoSUxmWtdAaKJuakh7kHgnHg2AaadyO/Q2SJx5HfRcTnVCa58IgoqTHOdIkqGm3b5hvlqCYHtVcxL+S1v/9IABJvwACv/zG+bqyjOwclc61Zh2UNOQ1R1dqC2SEmd5HqNTm8n6Eu8eqvWL/4a8laIKMB6wX2q6vK//aJ549/2lrkvS9QDL4EatD7LEFYYouLcd2LlmYBExOheOge6fq8YpWyo/pKESQZbM0jvJvcXgMsQT83UWFrixWMGRxGS8bjSsbgNFf/HuUTJYJxLMPgGRGu+1ZIUPPzNg3/RrbOdVqfNBblQLFGFd1c1BaS29x96nsAyHyxz+YzJ7tRyVtwheechqch6teOi3FWOlWC68yJDL587SESGmHAwOuX2GcGpRssvUgo+S0V0c6nPJjtbrxWf8LBgLw9/AyJ4hTg5XGbk3DsPLJgW/Da0kpyERDpB6GkCdCJyi4rpBZhuKcrApZ9VGmjR5gyKQpWurVm0uhFHAUwWeP29v5ALf/yQBslfoEtiJJvfzB7igD93agaR38zOslWehrErlLJv8a4lrnSGLy9E+SzQgEDQ63wxaPolOzKAuACm/7i79tUv3ahRvAXIU+69e76zL0rydYqdHzRX+lKVBy3EMw431Y3vPC6YgU/L2hYBZsO1bneHzDXZr7IxPiWC7suX6OgL7eG+6qJ/pIlxfFnDccZYo3A+UoPYATKT3FLpQbboCKlKbydjd/k+xUtubUGAxL+12bSex4VpCWXMsSLZ/HsUfyHux0KVVr50BkTfCUY2efQV7snDISwRo6pHMAxiEXwLPY0Joar7rqDHWus0vnlafmgpZfjw9IYhoHC2rnh9sKvN9Ahhii4bjA752Y/5HqYiSw4tm080b/aXj4VVdn/cm1sN/+BPWegEAr0FbyyzKgBpcWyXiLvfKoJF7q5mbSUiZCf2wr8mlWgoltv/zLofyfL1KMUi6Db6IB+c+KJsff7pPwCvOMkxlUGEEgDkX5Mp56EPHlVAoUUP/4Y+erh+YfUaSIhWPef1f32FsxiZluHJrtA919M1LvOTOm0Mk+LZghIFAK0l+jlkPqDEKMQC0N/DWHEfgfWpf627htJk9cXOp2CjtezhGIAWeX+CcrYFMa330V7spUOv29sfCZAt0URBHYTfhBW1G/thDcAaoSQ2JlKam/gpR4zQN0S96fvoEZge/mMzI5qc46gpf+ONliCbV26Ne4jqn7pRHyShI7flFbR506qUbERl2ZjiiYrSKdTQ6I+N1W89P3or2wA7aTKulnOw5hDSK5Zyg0B3STgG7jRWf5iEP2Db00lros3+UXA6zk+R99C3wM+/r5Frjo/bsEaecINgcySFL8mSRK1u0JALfqgKkJScb80sLOsyxpLPQ1hvV+tVHu9arDc659oU9gWJv1eKyZDW4IIHH53RhmpNi4r7duEcBe5mfjwxDeY7VfOPXv1J0Q3DlbxOAn0njWX7x39Tnp6HntLFIYKJOfP0GCoQ869KxjdIE5qxKL1850EPuM/8jRGJxt5nveUlcjje1Qafg20vMRxNt+edbZO78Mp/YTVkaWgh2f5bsQYkhYFwVj1F8i0wqc36WqRYmbwKJ9QEf54MuE0630ErYY8OwuqZ+jkkvERshmBuCFmVUhEgK/fUkDxI/u2AZSrthz5N9EKroGqv/OBCjTVwVPpqR18IJJabcXf5q+wk3jlz06ngBL4lNtOwZSgQVxkMLweihYJ3A0Hvip+YI5a1D+e4fy2JgwWvMDMafItFwZhLxHUCQEtm5LQGwPyba9aSVVScf80AB5xJYfbUVMlUtp/CSHUhxCBWjtJq8x1+IxHUd3CjvuE3GJNIaAYy4uyGCShCLebAYRbjH2do+6zyiXwd6FEyq4pMKmRoooF0YPElntfwQX1pyeaVJRIAuRCoyUEhbPBFaD0EAaHrWSCGqT504oI+tVxe7ry0Xb8Ht5ulYIFzwtRS73QGNtpw4bE2KmzF1hAqiytDP0Orm9WM6gNMNuwDlkxVdpnozj3FBDc6MjaLBrNt/eYKMdDj0JojcuTUt1yolBT0PqYD6x7u0aVwsP5hdi/7URNGW7g81FILK+EDVuVrKLD0eSujGErGCf8Djtv7hLLPfHHmkp8Jzs3ScgY5C9OootmzSAYNiHGn59IOwtN7ioptaNCLN+d1BdZac8C/n+mguu/0lME2qUQ+YW7j7JAHv2fbJF3Atbtbtb/CS3+goCf90CxfzSwNTZYVBMFuG7X5HU7ZVnH2/51hBsDf+ssjeSqZ2ueysBY8AZMepGCQpx9YQTgpqP8BsVOMFpWPWM9zdlZU8pnmLWXhjLT7n8310a1NTO5o1n0GsEHkJ4dMXBmC4duvtR1rnrWSc/aNtUiqqmzzeqBCCNWrA1oXafVKe3BVGM6a1dvh+82Pqb3WR9kWqYnmbqeYUNqSenIYAAAAAAADMwAwwMAIJ6XnfD4xERTcAe+3um8IcBfoDXaIPhkprgC9h20Uq2rSnAqebvKB9D07F9C7f2QEW365OGP5Dm5XjBov1eiLZPJwuMPD4Qus55sywFNiLd3GC+paGeGuFcrU5EsWz9UtNIB2ZjvVhdtxHqgzA4W0HCuEKdrubam/k0MGa9vwzOzBCdwb1DPsOkk9evM9ifwACSf6Jk2D1/9L9KyPzQ9ztFA9vrOSRPHUXDTBs5xLYTxl+ntS1jZMACKR3JxsBIVtGpw9godb0EWXRf7rQbv7T6/wLoabIttZjhtgwe3BPO9k22azDqY/esHBr5Wa50yZNsBGIzVlGX4P+f5dongLMZyFs7BQpevY2EpY7vPsnEvPPj/otkwE2jm9LfDQp9Wm1fEbIMxza2DUkGJkWnneAAAAAAAAAAAYef554YUjnx20cTtN2cbLmuA1z4kB4udtwth8vf9TTdmtVgUpmXxVFoiVf40LVPZ2eAzHEe++JU5Ak+Xv+HamrHC3dICIO1sdyn9cdSI7fG4WbbyWnxgZmjW6616Da4tkhiv9lX64Neoq3FEiCcH3hqlyVgBpmya+cEfL7opP49U6yFpUCuGYPeoE2ramyxe198jt1XciEUiW0tgKkkS+qpKQC2yfzQ0Jlu+j2LpJfVecPkfoTEWiNv5h9+ndcyzDtpviBj02069KndaNfe+RJGrO8qvZj0gMh4l7XOfCNL6dHtZTH7yo2WBQ/LgUvNhEeF+cGJ00xxO4xfoy399F096Mr5U0A9hwd5bOmmqNKz+CmXFlWavPFb6JtDFuEOTN4jXAm63Uso0ESpZ5lff4Se2L+GsoAAeZ5hh48Qo4SpaHNUh+VzZsrmDYLqBp0RdVEsS6ob4MgjGKdr7l9vKv6P/H02v33yKeRhyn2rDD0aeYKhlhY8n9j8eUi5QDfjhCxg7BdbTMLykLglY2PCqmRYXnuA7HT7HC5PSminyFsbnrNZlZ3xgaF4lIfcy+5AwrYA6ojnbX44WpjzgkHjD4Hxh94aVgotDx3iGEud/iuTCvRnCwhbStJItiZJLfwWTav8FAbC2PzqRLi+DZzDTsDdMht46aDukO77wnaF9U04lKrbRyxhTmL3s2alJCtU1u42O/e0NW1p0giioMs2nQkrpHmJ+1s+DWA3qkjrlb9r5aMlIg3igNfo2hp6qhBWmdUJh4pbw8FVAZYTnu/OT+pB/B9E69ZJrQZLstqzHLDcynxhV5dXOb4D8656N+eoDhNIvXmZl+s05SgfR5v6uQfi2Z8x3rrGxxmu7eQ3bolg0yBBunmDdEEWlYYDHNVmk8Hd1uk5Aev8YItm83HtD3IwEbWP40NLGgiXHXFSdioTeKUSyb5U/9H3p/rS3pEn+8ktdmbYF7yD4ab0I3XrFTGFEMmiXB6j4rc+aNPs8h641WmO4SVQ7H+drqjeGespJcvipZaqn4AEjfuJpEZn7u96WbtWWiZZF3XYAEkltpIAB9ettWqprE9nZ1MAAMBZBAAAAAAA9T4AAAQAAAANixE6HP9C/0L/Qv81/0n/Rf83/x//MP8Y/xv/Kf8n/zf8U7rzTPU68uGulFhXQllfbde5pikmT+0aOcKZkNryivdqZorvjqLarJPV745mi9LXbyF/YYKDiqTMh1B7oPfVKisLkBqOHKC+3QA+3PawXm95gL26snFnAXl0ziGQh04EUcrDDM73/E9lKz7r6H8m/CTWzwNIeH+HRRq6w3NK0EK/ZQ/hkPlS7tfmSLK5mms5zBPESgzZ7sXXvoQIAkR9X4vCLtEcy/04UNRo+I19uxbnm94iOYvirzJuMwWfWpq64yABb0mjhtNNOaFGLXe3b/gGgP5WOlbZ7SDg6as2fWr8Or1A5aS15Ahs+tSZma/jzB2N5SA7MfG4Kbrku1JNLFxUcooW22BPx92aGgm9+fRx3QCaTBjnbVscG+lzftdFbCkXHLTP4l5LfF9f37C3mSPHsztAkSJkS28P2AApabD8duDohyaFrmSEuLwpP7EidgMutEZZcp9RWJB+3Hbs6o5KpkPWoOU88oax5ZY9B2IIQSiTNiGGuWuWg7sHRDKEb+klu+DcjTiQxrgVbrvtjCTlgLbDEdPazudT1g3RXWinl89nqslxl9njybrL8/eD2UtGcq5vlURqJ6x5epNZ0UqrLqgkRl/tTeQYpayJ4MCqFeIegqJL47oGndH3K05ujF7bIHW3p5meYhXnkTiGWM66uDvUYrrkkjwOsvnxpT9jeXGtERbh/CpMA8ghhyQDWK/Dln1Ka7/CL67DY91hQzEaL82DZpF8UdrhumsEsgNspBp8i9lQCrG+pvIczGXHD3pyQm8Vqfv0vi+d8lioenzNaNwzkRRNwwwqBEL1PEXhMjsuPcKBB5w/W2aYTx3DlZp/S/tkAt22AJG1r6JS/Mb8U7sGxgJ12SWtPGel9HS5KwtjikA5w2h7/kyqFGLJzHci9Gyuf1axz88Vn7dFzJeX3dWvH73KisIFjirhEU3KH9pQNEumDw4Md+URuBRA9gCNgl0uDQbZo84Kj9kBwGY+f9pgJPf8YZTq9orfdkP4lYvoZDQ0kV87HVgc/XcWfkqoVkj6ZhDP8CC373GB/8poCTPuVB1NKtKH6qo9483w96fSFs/PPwAxWoRosRqcprew6aJp1rHeO7ncUVmcm+a6yBG0p0YtS1rF19VkfewCpphljkqcUSNbMl1LHI4dG34GK+dnM50rEXgrI5e7Ak8CtbkEh83ZVwjRndVLDCJTmoqWvAJsIf5rLezCvqVcS627rwRf/6VeCRAxzJtIiQxHbYJ+ajNRdNZNRZcMeCv3+39nh/7SQLUgLbVAF8kK+l/80PXHeETCayFjN+HnO1Oqob+21UfjPnCTF7cd7/RHr9CzHE89cbxJoEh8L+b83o5e+D/2SWQd8U+nupqN1gVaJ43RgIU7fdLZbnrGEAsigjTPC2T38T1ufOuDXcGTFXGQRKdUNFlnMMybhIdy5I/gFhef5ll9psOYI6q+Yr2cjuqvDNXONRcGqQP5+2G1IYf6gWwU6HghDk5mIJkcpTr1UxFfVuWZS3Jj/8gyC5lHZq86GnCtg2aQLtlS3iqLAvpCeHD8kRzQb0tH/o/H+yX1klJOv2a8YSCoPSL2ZqLOxg9fr2G39r3wp8CCQ5A/G/8jYx2e2AoeFKnETcT5csMal0GNP1ZZI14YS2YA+p7SRw5o43pHrGItfWfXJ6TVnoNU+Va5z20trW5CbbfpJulD1q22R/zSws+Dl8hF2n+bG0+8jrkDhZpbfktiVdChB0wNQBHZvcYGOKGCmNJ6MtCKDzixDsPWvhBd+JChIH9IGB/8lz8SNKvz65Vp9QZDNl2abw5R+pFA7LXrEOcSsAY9MWU4XuD9IELR2Zd4Kod2ThsHGb+F6TFKmtUen565YjmRgqmtXA4ojeai5AYoZR13XXec+6VWJbqUI1iY9crG2NePo772OkTZYM0x9sppe8OCVOYHIckbgSmb7j3AztPMHuc/zIjTQnFXJ+szdRnj+OO33q238w+CqMmW84dVAWGkyG5KvAEtDxEQ2jhe1zA6WeqJ0RfeqtW1m6UpA+HECPFdmtFKILlHr4qJXDSboIErzc/i4GOj8On3YNuJYw+pyswaw4efyeRAHGLBXP+oCUqtIAXej78aJ7p0/utZiUrWwLaW38mSvCQAbkb80PX8H+X+KV3qPsm8aMcoO8j2J1+gmOomgbPLIsznZB+oKXK0Wyj0W8cWXT6urmbRTjHJ9ZBGPCIU1CBgKmLsO4DdE/fbZEWFwRo4aBBlKyMUocAm5CajHJSeZEOFv7DIo/ljC3S/hFU0gsD60zlNSYEXPuNtmGa/AKydV08yBVGBclRRBh5H3hK1WHVUEvtDfqfQP2/aAgIU3X8P2MxesnKmlqQ27FGwddHHq1p8zK9drbPkJsONMjNXYyB1khoAwog001XZRi3jJ4u+sJLBbrGZRCn74/wxwzPjjVch36Htrowu++D9OD9hagWuyd6dr6V7v4nmrC3SAHTHbuCB05GRRiLKn69HNrYH6dBzAL5Q/X9k6l+RzlJOTGAa3anJO/+ldCLotf8ECjuXLciBlVYjzMtVW9v0if/0kiaCgKbJSkf80Pcld4lJ8din88tBRkMIS1P1eYps9o9F7GWEfKuuFzC9qg57y0KS63p/R4W+GYBc2DCnkdXpb/wbfWQbngWrzdIUGN+PzL2t4QhTt48sitvruoAe7UqOjcP+XyTM5wfQgG81ltt41gcRSeZOk44SQfOvfG7PMqYF6qNAWTbsqK5sa1PLKZz21b4Ko0MEnc0g9qfzz4Q6GuCIOeSGAGpLHhkl5HPVpEkPA8OlvL8fO3D7LobHdlWIYWwaNZvQOeqbQWVIGCOxgEnmd8iIagbXl2tBInfyHieqFE3DSqMkiS4EF8qka9kqUqqTVA+ZkIg+EzOcyYbGIGF0kHg0+H15eHnLQC/9Kc9llIgGDvGpZQ5DunpWp5yR5lD65pd/YNp2J9vCNNDdSESbf9m5AVtKlBW/20pL/NDREt9PreIfrtNoHQC+p4dHfiZ3nIKAsF9Y3pGK9Mw88PaUEx+TynWBhZ+wiu76b2XA8aGg2gQwCi1y5Zswqyp19GA01q8eMTLbGxo9mTmjpTasr8ywuRveV9kSrln+59yQEqX01ksOKF3cndgO+Dij1yha37tNKB03+w4ow2xW9wXNZzRrOn2dUUZ+X196dajZbc+2UrzjIz3XDFkWCS2LBNczsJDMSXhpSEgp5Y3t/J5CcoMFmiTjSNUcgCUaynC6Jze9UAi3WMZ2P6gTdRtANl+H5L6UF2U4cwSsvw7boHCvle+tjtx91xD6tDSz//tfw6lA6l1DhOix9/341gUBDFag4NuVqW5H1fhILZV/2/0gP5PD8laCl22rTfzSwtgzfuzvGmgjrQ3dR2Fvl8c2q+r6BsVzt+CjO8PX1WVI4yyK/m2DvbJGO9x7xm1EpIubzwYUGB4Ohg5P1FkEUAF0fhOU5/xyg0TGDSn6DYYdTFinqcW7HwVV0cKPcqxOMyVgumFwf6UjeDVasx5L3paYjN/RiyH0v36HUvxh9zxuw6n25F8fyZZvY8KFzbGMAbJqG7OqiAjRt4H1n/HjKWPO/e9H2s6P4sL1B2vKtUwEXjjmLd7IQm/+3LAioV4fXDbwjsGJrUIXO310V3+rc+7uCy70jBA9uYT9/XBonZA54Tg9vR2QMi5v0S9drEqhvEHiKRgsMuLNNDss8lrPX7dzwexNYcmSiww1tQzpg3fuJe+Q/OpkoiHsWH50hF3b/bbAt9u1vw8JP+5tyvzQAHl9jLq+t7tzxKIc4ArBLucTwZit8fOi1MW+Y9t4+EMbsTF7sI+ByozxGhzugQockDYMtoyt6bbE4O9YDsm2V3gdkJubKUhU+vwK6qNRuqNoPL++KtmOaI+orOBKvybzzhhRfNDe6VGlB8h5tjWBNS/KOYpCuCBfYqsG7cHlNqAHbxQywd9MvekTjxCu9uXSVIGFGYq1cCbCYsHMssquxfDvhiBJ2VhNO0Bmjk/AYUK60mN11XwgxHN/8gt+DspXDW9UBtpbIiZUnveeheJDjESE6f3W0HWFFciI0uX28Z5x1HszXj9/7A5dJ/vcU/gVFZ7RbgEvJJSzL17k2Di0XODeP9CpAIgzb/SAkbr+T8PXw2JDTfzSwtRAG/kYQKrFiCq0F3tTZkpCll0Su9ng2pjoUa6JvexMvrusiw8JVXbD8Lkwn2y94BpfTSUEScQ7ZkoFPXADUmm6JNsYORxFim/hI1ZtzTciGRFtAIStJGVHUUU6DV+SjInk0VSsOR5ZUEvbqU8UrnJj5lKv5yJoREKlkNc61Ic7XMzwAMjBvJCuwL8aXqqgqWphaSGxfQuKM8s9U/5BLTYVBeNwv138aaT7k96LUiUyZ3U3++yCgs6A0O8mpp79lXDjB8unyNwcS0o426h4sjRfMuTL0+mVayZc51imF782GD+E21OINN7/pluVhb0smzR85atbsHHdJ/PhTqWiBcIebR4+13YtdyLuAA2bSJpSW/rYFJA/T/zSws9+Yh0XywTjW2yTZjGduaPXCebbun2AJQI3OgfsMhhBnkbQO10/qH4FZTckNQ3HmOMA5majHajXUwbbYLWOr+U+zQmuJEmj1RQUmVgLbiLuJ9Zb8F8VZwKHfRimxpwbD8PLVoRbLvyg5Qbv1UbB83tQzpBJdr4NrROMDMW0hZzXKVzGuZ9hHyfVMXNitW+D8Tv++lgdJf5XJpOXgrPAEQbkl1gEELOGHu9ATLxKx72W+1F13MEFX2fcyoLeehSr/GZNyl+FRsSrsoYQOcBxs5x+HHGGtDzErI5nYhkD8vplSlGcgWHPoUiBqy8LqqbcDwdC0LTi7r3Sa2qMQ3FdEInP8H9YkYJkysKMf18FCXVE82smb/5O6I2bJt2kUlJtaVQEgG9Q/ND2Ls2ElcIVlh70YamgJREH/E4GvcszPZeKnAyVgwDhhKyCRXDgDhNRo5ZzRx3eKk8r6hysZQ9zvPR5mEpbEan3h4bsZoFFeWQC7uV5ytKgE9PYRRPVapKQVCdilk6DT1zP0YtpMJnd5Yz/AHV+j0Da9Q1/3NeX64EHxSv8Ry46mTKhd26A8Du6k/uaWQ9Zj7mVHqezPySSeZ66NsYng06ue/y2S2voRlERRebFSF1gUX2ht1hRRdXbU1/u6+VJRq9NfzjrQXgNc/n3UOF00CrMfai15HHusrOs1CrOujrgrr8pNinBTbT0skQpMBuzT4InwxNaJsmAKMN2httrrIhfMmcZ6BV2szk2qVyHJtz3/RT9JnP/8zkAkJ/tUnbYFqpEiW9T/ND3OwmBc420oPYdNjxGHwvQkAU82WdoRvW5Z3Usukn71BzJUs3x+pSck7vKnjHPIh0vq29zBfI3hpOprrYW/GcQ3E8KVwx52+k6ZmksVhN1Lr4OoX7EVlaGMiRZ5hh9Cp5/4TZQ2DN6/izTj20PT+VqWH0tINrJTJ7jqDhCYkCqcXHMlzyFrYRCQrFCD+TG2wNaTZuMRys0Uje7ry9CLKcFs8Cb/VcUTTFOM/8nVSoCXj70Lb3EMrKyI7uVDeorTy7URt2dkfW+HsNUINgUk3HYvekIK3eQVv+kiQd3X7saWAUHoWNKhPpMEbf2EUt2VA636BuP3citdidA9YEc8ZaYugJixJRDcIS2FJtJWjb6lv+18J9Qr6s8hJnK1PfB0/lcdhPvRmtVZJEiZG19uSqAP/AXVE9nZ1MAAECOBAAAAAAA9T4AAAUAAABUKD0OHP8t/z3/a/8N/xf/Jv9C/0L/Qv9C/0L/Qv9C/0L80sDQwGA7GVWQ/LTQzLAxuoBI1p5D641eLvo7h+tuz0PSewPLF8LSdd4bsLzTGRQhtdlQqL/uGJTQd+aZOiAKh5uIwkln/b7r++NOaLqjZg9xlnM5k3nIIOmBG6TTslanWs+TU/j57osiB8VYCHA8zH/TUhP30ah9T2C+EoUQ6BIESSwiAAAAAAAAAAABmAHgYH/4GnJkkFLI+hHrvjLCji1Xm+wNpVe3qFGZ1iPMXtcMcM3DA0DQWHiC1Yjb6e8Y46AdEQgwoHChp0z0bqXFEAJRnQjbTrZNzO42VvX/V5+DGJjs43Y5KGzoLMEtpo/zrw4W9ZzjaXL2a92AblR6oh/awGPUm6//Dsh2Ze3O4tQfimAzAmV+iPNxCzyIAJSAbS/2BQbVQ8Nrflf8Fgn/m6mallI1oY0bN57Vyya9GkddhhtfoF3RV9zn5Sqr0pjzMEjxZBe+EC2SU4ImBkyNCN2t3vMhYMJYq7IMUifkRrKZb7gmQRRP3cOOM+Niwxn1Kuv8B1777ZKxeq+eLzX5LJqGMVJHADXnBex3ndhdwGGVpk6mLTWy+L/rdf8F0tcnGPnvgmqdWrl1WIMEgcICGEDg/Olyo91GQIvpq9faEJmASLp6HFtrI//3jaOKEuurChEPfIdG+QuWqHTAz7gbHCLEgduJsxciwDtSClZX97GwSHULyuHJJU8nEkfzyl8BA6eXnCWtohOTWb64C3m3DfJVTHwH6R8/MkFNzo3nauthxGO8juFNQ6RFGa6J6kgsw9H6H56q4iCYoQO0w2X5Y6+cm0klfnYeg7/ttSkAbkkACZK+l8FS/Hca1rBNuRvh7EPk4TcnukjIt70POI1E1hCBXk+pONXMtJOIbU+9kP4JPobFQmy/O7N0FAoLR46cWkD+/DQEy7EYGTffnjIUvTtBtHXlKNS0zwhZ9CYm24OT5PgO4A/zBcX7gZx7vJrGtADPR4KO1S4YbXECbnEE2QBLBviDa9EMs0aRXxGhhbFvHj5tAoiAtiwJIv9/XPgut9f75fHFI9nRm7PmlgPVM+i3T2dXlY2AEvtpr8zhXjRY+wGgtpAOdvXaZCMzltUo6Wq90397svNTEx482I/COEvWs/ajZoI/SCBOFCMyKyqoZEuthGPk74pgTqmM6NvNQzEt0XXfI5celCvB8E1ougEporApRYdDqhSHNVHESjHIfYiAaMJNiCEoDolIxDwrAPv0sR3/jkwmtXd8ZA97kxijC0rYacyN/hIoOIkXv0x40gjdm93eHlT7TU5cIka9V4onfZtttuRtIKUFAqm5AJn8U7sGxkOtHEddxW5tUMNNM50m1uJcyASbg2arYdp7+qGkbA+jt/HtxEmptdkDTFu6RmRE2XMitjba1tOweCzOYRTKfYlF0t5Fby7un4NOm7zGOtBwGaCZ1KtgrB8kkjm3OPry7LzoGeNcijQJWd2fo/nJ2sjE8w4w79l8ELjy5RtGBLDVQa7c8TSyRxjv9ZAwZaapCtL6Ako194mSRxNxrNmoStzITsUSspIEoAWn4jNjyF3F7rs7mWDHiZqfur8R4O3qcAjoX1Upuerqyv3MvDJQLNGDfpY7QlzlrvkSaEXzsMLOwMpdaN0tB4P8vNGxOOygClLXKsqZKK1e/D25lV2AkAtAr/VVCqr//EI+kte0J6Uh0t9aMJowBnhGH3oXOzyb02I806Be1d7dpbSp2uBiYhSsrmWWuZJV/qLTGobru3JeELetDdfESijqPNpQleruH9NQhf5/ZrM4DZMh5br+Cmo2uvZGHLE9Gg03WotcYo4U0iPm7ho06hyBeIpUWmHW8X4O3a1CQM/qWkxkKZKsGCrgoyLUPHbXL1/3dnAeQIVdy09PJVQ0QbjN8VP232o4mPq2V0huzJvYIvavT3TXSc78BgTLo4tndRHgNfy1SxlPywhntKAmmZtc+8/hHCruijokE1TvIFu9YfFogEA+BD8Sak61sWk58fCwzJtybmc/L70aCiIJ83bLw81WlsR3ckiu//wJNkg8A9f8FtD8QYnbrFtCHdFj/jbf01vFTdspT7pfvs1iTgk8qPBbqaiUcDnue3QfIIEwarIRhqKuv10T2YzvCEeYTzlW7s4HXgsTfxfs71+ylHyiyiDhiDPgQ72o93kRJv21NLvV3b2xVhz3nSE7vPQjDyrEnLQBfgoC8ybj341evI3nDsEyWoERPAfkAAADwDD88A8IJ6VXC7EoWCKRhE+wzASfgfInTVjy+S/6jU05rnw7nQg5vbQR4kfB6EGwu+8QpcKkQronn6nQggCwd+q/giH+q6jdftVv2oTk/f8Cr+PNBUUTI38z6Ki5nNH8C6nvgt8pnSYNkmx93hDo7UXsA7PYEWmYKrPazzTfVUyjhm/9gyvo8nw516nuqJdVd0i/tb2S/D69VoF/+vxBexbB2179bi+xTliHV6bpzMbWYCgF/hkG9AUf2JyopUjj0gOwwWG0POrZcgCdSTPtV1jCa4IbzR+LT2CAysiMpZV+uGIrysVAUyqiqdCKc/303uT7XdQaH9y5EG7GSwW8LOInXOfZzr1Ck91gdmbbwexUlnjxW/9mdO9uWh6A5/y+6K+btatBgD23EJFkzQkJdjtRmH/RdHSxAg38Qeot88Pr82EAUNkOg2Cmz4g0AI5rz+hemoKzZ3iY5D9uiA9XrlHzj8fY8XKbV4XmRBNgXD58v5rmh1eZazYCIPEKCvfFXPf+5CYOpBr9pEDIuO4PMcweSvfHgaGWPUQuv53OWYqK31IHnQZKDP4sttzYxG5eYAw1b+Df+xpcC8oYotfwVVtV7DgnJolAHVkGkxlVGlZ9mSA/2Sk/SDwX1pf+QPwBVg4yxmvQnfpZUbpzhfWkiUlq617h3I7LTxG2BUQJogosinQcDxAYFI/k/bEXSzze4QkwhrU007TXjyBvG8J10Mw0s4WhwVQNKUOKft8wIzf5BGtr5afR/T8vb/F0czr/9wZCePh8kb9Zog2J74xVuQTlveMi/tzMREtvlKOndkFHCC3yVEzLeqXfF9yliEa2tdbti10fsYYQOKS+OqACZ2pr+KBLCZI+bg9DcqXakdcoLMUKAoBNNBOJkZkwJmz7nqmz816vynD7o6sAmXvzbsEhKS+wG0HPfpFIun3hcWKHM05RL0oQjRrGCO3Jwwr3CWOaLFTq6dTWYqoNx3Bi/LGlhZs1dcU89zJS+NMMCUiP5xN1KbizrlVZ+aCcnXhdaMjJqtBuIrUoiMysyIjtybMkCRttJvaQG2yVAAoD9fzRAEI4vQn1BMBjNNw+mAgU7S60SkF6FrZ4OJLeuhmOTD42JfCP6pmheod1m1qw2PIcGU7s6Q4rtvnoEWLMD9K4XB9NUEO9/6go4unk9Mcr4pj2w4jKMFNRyKXsTRAOtQOMjQughHYUqik9HzolxVE02ot2CvHOSjoQG1hOzbWaVis66OKuYQDdyqKkFdURkbPC75wkvgraXl+pHutXli6+lCengWhE6OSfK62ekkZ/zHRqf5ka1o54l0FStFxi/kIaAEFL1CRm101CTS+u5CxJK2qbLrN3CIpAKdEVcoaoBWR/kdMWzf6MsCcQX2catV3o8xSHVsVSAwge4tRMTKSddXVbSdIYHqyhwi9YWQhOXWkuN2Z3M3WWvJPIYau//nmshQJiTxV7KM35ESjNySLT/AZvwCf7UvS2kBVDZJJKWfzTe/08cBTJSkorlzI7P5L8fcbyFAbht3/aYZPDeOIZy/bZuUjs6Rrg63YKGusV7vXZLa9WGbduITu1/RhE3UtwgxgL8EJUyjPi6AHG5zIvItxjAQQW6+q9DCHQp+F843ey/OX/hNb+RybZUn6qetEvqLm5AkKiGGxvzuIhzdEUkpcZ5oQV/5y8VG0abPsC4GD7ngC+3ehnv2Olvej7O1+XNbjdnJumkTaX1HWDD9i+sbhRQdLp6m2sK9LXxpcXqyXX3VZkbFvWysQoKPlf108dUAXlaljjoihVfF+V66KyJJfhtVYaomRgFdNwEPW/LEDVwTwaCnAqYc+pi4rgXKrMkAakjfKFcGG2CRnEiDjGO0R2u/oJ1+JTatF9zdXu6Mk7HN2Qk+/zphiw5jBnzhfpREswC0D//////+gAN1tuXfzQDK3rZpLQSIrEbrCL8IEhLHo5BY4zWHH7ZLqH2feIvzuCcdRMc5v7MJInNvkJqAxWuHInriQMApJKjb3+43UflulI5UXSdzPtBRfriJ1v+DeS83oJoUEhSLdyWg6saj+8zlIc+xjZl46xSlb36ckpBtln4/T9JXwiQqHHU9J4q96l7v+pCNBnY4iZPGPOQ8ksDzNQ1Yr02DsgmadxFwvHs8dX5CT2Go0/vrvRTuK9bgMqwLXBNQHs7GymADHXJsmb6TYTqdyKkw2SGDBL6exKj/AR+oiRCyoP56Czxq0UwEdZimVXNfVOtBiG/YnReULU9QPvgvlr2VRaeiLkXX++cGdF4hVspeEYQF8MngcBmCEFjqmCJbUiEy+iRO4I6XvXuI+qu5H87o0DylWCTp8le3/bZJv9LYJCW/+g/k+2X/wAUPrIhQcbojsJTvlmgPmwunvVCqKGOh9FYmQKBGYHQXAKzGhrEGVdyndauT3RHk5uHfxpzfhA+USn02oEkFMiLe1SM5LVPPinh4xSmwSpXRDRZOz35rODPDTeYBGVrOawX1400CZTD/UzCxPhz6HIiZaARp/2DYKEC7yBDowociVzPZoyO4Nb5pWEC8l7ZJGlLA6xJwhyK8qAEZ18UhYLbxMj4qZEDPxxGLbbSf1sYL74A7VUCwIFK5zzy17hfH7grysy5l6XLq7TudU5q5j24K3fMD34FSUIYQqv6D34XJeOgdHcqmt0MC5YfID+4fdreZ9rX/8wQDKwyg1cGSu6lx+NmH34s84JMQSTWYoRSnTpv9e1+dKDx/m/JGxpY5QKB1kgpyxPstdmDIkBAbI7gGI2ANidm7bakJ2AAD/byfzSwP72VuXUajd6agi+o0UxQ5jQud97zr48brGyOMFe5cI3UQHixQOyOnJojT3tJKXJt3Q682eDEnAXx3vb82HksDD4xWP/SL9su5KhoLrk25mKzhjD+XvG+zIa3gagtOfyp4X8L3nCXw/qeg9NGYvBWMLLYbhs51bW1vIzD5UrqXvUBWiR03yeE0mON1v/cjLDi8bxaHkl3rgXojWwb958BIGWiWtWMvFZpZp8xhAJgK5cu0z8hE+PctOPmwknWtusDMLIbYxr1fdc0wNZ/kEEkJYEUWEFG7oVokMV8mLc0gF2BXVvyq9pVY46audNHlga0pCZF9ZWajzQ1hABBjb+AGbnGOXMl2SU6Xh4ptLHnW8v/vNHH/8NX66Ky6WtqDo3t0bte5D8VS4jxTi0IwLlqvwBtva0kn7bQAWg2kBKY/zP/oALPuUQxg0FNiqZUP1YeFV9vcVsh8qzwlwo0N9b2yLZijQyVQF1EUqf+bxLHAJn641EU5q7mzU+pVRQEPETmXIFkn6mYjM37HfMhNbkjrReIOR60m2EKRV1cyS9ow35Co928Ap+qQpqt6ZxgCkRXBEw7RVmGbxviemNztCMAcE+pCjBC32w79Yyza7OtI8ijBrp/FY94kZ1/uPyhwlGR/qK16PxFJlA3onCullnUb2dZnbEhGZJs1d1ldfH5Cdww0gpli7jToZ1Jmm8J4yPit9kprvfnw/SpW3h3Pia5RrdRMQtmbxun6D2C2yayYm0w+OAdXd5VZ8mlljPnnjhQjIRrDhR7wsSeG0j6PKN9irIyyKPK2Un2wjHax4/ddEQKjp8QdF4xIX2KxzD6z/WXfb8nYD+1L0rW18FSkACY09nZ1MAAAC/BAAAAAAA9T4AAAYAAABoHg6OGv9C/0L/Qv+q/yP/Cv+R/1H/A/9I/wz/Qv9C/NLA/uGumy0ddMxnKmsVWLMDnn8c7W7Nhu+wrApLj94voJuWYqPYbBubW2+XyGfP0JrcJkHhpVewh7vzug9pl0FffzYhFUh4Wv/hsI7XCgOT5U9braVXAngHKsgz8cwU+bDH2EHisQqfJJAwofAc34L+O3UJHY7hdWgj+v2nSA7tDN2XFeQYsNdM4eijjy1Ah0cNaMrHzD57oV3wLafRKD1km9iQpkJOwc+41vQkAxUgf7g1SPuHeVMgWAMin9VcpzXUKqOixi5MjI8QjF6xnMUlFxalDn8PX+MDalM1IZO6ZRfX8LJBvmDlGp3wCsdeoDovewQzWTo3ifxmBSL4QOdHG/3W57NYs5IHKfTD/pxIqhEeJfOxQTyxVw/Qg8DbzUWU5FT7G1eVI0Run4D7ICdm2/b2///J9KSRfWtktm5j/NAMpEc/qNOTOcd28+WG/RjRGWA57dErogjDVnt4TAE+XEbkWfYzlbXEUEIarO0J3uxPcIgTum9UpS2E0loAN33oVyoVB2m94sQFyDaGc6z74K4T9VB+uSvc7/NahbxOKUuFm7QZg5qgmdZJei9wUfO6vP104dspgX8IE0Mkh/VIlT88p5EG2u//s2NgOVoaC4po95g4Ab2mVtKGus+1qYeiAitkh9jX+xPhHG8DpPvtp3WXAVdOrF+RthZ1C/Dm/+pzFT+FRETebFqynWha881wf0VBpKcMXS/j8j9HFkDsosLzd/BL957L5zM1yXu0ZYl4FStBJGgTduCtyHRe2sD2TARNW1E6xth22OyCqYR5gGvKhJQCPTjAxqwJ5vBW99fTF9VXr+OTABHPS52GL8K2bAtbtA/JJSAAr6q0LZJi/NLAgX8OeNpMjSTsHyOYglk/1Nlc325APVSQInRuBZQcg3+YDpu6TOLCGiF0dqsL0z/8b+5iJDLnu6Ex2x99qPyLd4kywuNgRlooo3PumsfGDc/VYua3Umyu2MAkYaY5YX2Rw75LAJChZuqI6MZcFuv1RUKRD3tvuoeBOxP07NX1m7P86fnO23xbXaMlR+CCG2Q0JNpkPn4yFHcGqMkEUlbBBi3fSHUl2mTN0Xbj/QkvzgbMgUPO5X0igfMrp0IBqXAB9mkMuFEcjmgjPcJwDJnzX2kWShw5V1uvakAtUbTdfozrzIvltyMrg/ImTPGvr83tuPIMWxdml6ZayZZsqzeU3RUHWbU+emkyXLgSURFxgV8F6j0H2M9Sq0cRzuD5V+nmO6ZdfqRqItxPbYUNvMSt//J/AS2kb/k2X1DYC2lj/HALF42PkT6DMaJXYNDDnc/MkB+FbLpd3u+twm3Vin6C9npE8JG3KogjT2Qmp9d3a6URpj5gkblE/9aez3IvswcfW0EfK3sbr7WRBu/c4MxJWm9oI2UhfVLY5J7cPkkxZ770eE9UbBLhDqUSi2rKwxTIVagxtDj+6yH5kWAdrn6KMZ/fFwHl24rxeO0TC5oV462p9KSPqRBjFF4JeslO2CM09xlIBxQsYVlAXL10Tt6bpu3Yds95pg/JkE8K1jgKgeNAlvtlwZ7SwD55vuXe6lgalFf2C+VI30iiAdD3eEEJgk/hw5d7u7PckaWFCCkeAvtU7vh4eJFvaehCoLuZ2RHtCXgEwOfPhLwYJucJ+dTe15pVTrnotPoVsn4kUPiNQJPOPWWUASR3XXmnO7BVhg5sGvSw4Uyi76UzVZCeBYPUuAtB7lUz/G/uUCGlL51BiSd7Sxyng18Gq4yha2kzgMX46SlkzxBzHUWtcASRoMDYHoa076rTRO5TUW9R0gjUoJDcBWixtm5iMey+NhClQmETiOEhkeWGmEqoARmW5Cf29tpEpAu7V2D8U5PRfnMSDOKe1kSbz0SC9tvQGhSuhR3SbdnH09SDl3cr/IKLiKH3iscVaCgjZTnkIF+dEXWEGlQ7Op3z07G1BjoTsdvfdHD3WCSkmaL0bXh2YEIVCwy8EbR8vSXT7Dcc96v7kKULpr8W7IzY2OjAm1QDA3N4b4/J3bvlw0B5wgIMX+1ev8RXt2AZBW8jxemuStu/HusxUE/WRL26ARuGrqktHXxw/4IBLuSby7gbxRsf1BQZqDzn26bSc8tSsg4w8eEJ2e9lDirijMcTOYUASlo13Yyt0zT/iR2d4Qvm/rvk8KC0ooHvumukORxtEdlsUdcKxga+nX35c4ShMwNtHYbFSv8p+VmmxQvW1vZGfitf0n1sAA/SSS2tqpAKX/9IEvxbX6SKy3MXqYbJpaLN0uNuBS3bSV99OG2s9d1iD35A1xN9ixftDDTclXmEXq00lOR4u6T4afCe9tr4fvZ5I1AO4n5EeEgpIq8opyXgQjW2ozuxPa7jP2O5azxa4VAPGcmANEyQeBfb4c6YfOrtM9bmi/hZ2rx/zf0JlkkEKk6w6YxPaRsSXKnEbJziCiTbouZNt++fWS9mvGqsjikztUfJ3Mya1kfLAYSC4TM4nnw9DKePaAMso0GlHp7lFwFaX19AGWf/MFPXViVcAzVTvYIQtNyUFImBL4QqXjbhOKW0tBhCcLo6BOa13HpG8CRgBfJAnrn/uvs4CJUSNSiN2QklIBtapV9V+lX8e/WIy/IZvmqpVSpP7FEUqx3WkbUBScggwVaiegi5O0O5tYFF11qLD/3cI9Airi5TkpSCokz85qLgqcXgrZHrtQCiY0brXGmZqqJRo2Ox84xCKCZ4+ehkp3lP0fn5b/V97uvKb8CQ7N6jsxAdStUttZ6MD/dVQ4sx/jY5vZJCU/rACJEbKgo434TIOKGVyKKc+LZ9rJ0bh6mAD9FTjVkDXbIMUYoDqyGhpH2kPRV/9tg+G6mAjPEr+OFETSZXDAdOiaMdASC0/VDwi03T9KFbXO5AwAWAgrZg3GWWESYMHv2m9jJDE7K2B/azwQqopMgmU116+sFzulLmIKOQAV0rmsYinjNbHch3b1p1bqCMpGkVI/4JX7mHKOu9XA6jR0/70B7Zq9OgNmab0YRHOrIw+BZ6VwDufwuQJ5Ert63rOgMuutMWNbnrNyiWCH0V2ZMkWmfva0L++3e0T52Mvi70O5m5xajWvRT7lTPcICrVcAxey645fqz/bpgUbkmO6lvyPbWaRJv9L//ZuT9VX1oP/HlYOFhs+putkhlTz5OVRP5JKzZLPrpgtZGEq2oBgbH5hKHDmq47KiLPb2HBnv7IFEpc8AjK+utI21PH70Uel+MB0yxQoeRWBR0c++LWOD9b4l6+e9yDcHQYCCtRRoupnt2Kb2ikxXnWln9NOftfimnkWYqbwnPXCqkDxCnqUEu9swCuoriWyzmGuP2Kvf22rn0i+Bm0tsMLGg9vmcfiSWyYrFLqT/b7Zc60wsYUICZHtJCaULvXLYbzkvoiku7jSnTWLQ++dvMYzmtER8B/6yZ+inzXdeAQPgdXlAbBX+bYInvCGAjLQ9EJH/nTo47i//uQEfpsDxUWkUHXztj+02S87Hn10vnqW8z0afCVT4ziYNfoIkxaPudSgtfPUXdJLo/PcoAOJxgaUBxeAmX2q0IdFii1maGV6lZyUQrAjYkAGdmkkbJtkJbAqRsAqq+g/F7eTnBYo2j0DQqDspHGSl1aVsEaR3/dBkJzKUXO3bnOpJXHXQdB12znCvWKmVmCPa+fengeL5iIwzNOyQUL3PdYkJZJFTQ2vgZ7/5/AyUe4CxZtBJXnUOin5wbl1ndFE1lVWNFA2KMSY0wTIOS1QbTc00jPQqJeJ7ewhOvDW14IphW4jCjKIjcPw0mM05Y0/6pcvCNzwfGhwtkAM+X43dlX4JNLsa2nbmQqqLVdLBPFN3jEDiBNVCTeAGTiYINyxAhPGQoKa8HCltr784zN6rGzu6AahnMOi7CiZl1VpfQAsLcGbKUq2fDz1PVUGVD3fWLJmB3zGbZu0C1IFX6pf+36/HAwVJKz+t8DRmlmcsCjAk7KaKHTf/sEh1DRwlbZehzcHPG3ijt55R26xJR1lbiUlBkLc5tuFGPvm1Fmrt53HKn0TzSkFHG7GBfxk1yCkRNR2r0HbcJxoOkvEY9LmXmDLwS0NbxchT56jpdTLVDVkrps9q+OfnZfQWyHhy24HKiOPpEyzk5xcBtxjRTBaZY15HdEyx5OnzZikNUu+lcHfpOwpPpUtb3PhDc1VQ176BaE99Gd7GhkhUZvPgMI0iWxOt/yqkVCmkDVIPIvMbRtLCdM3wbGiNBAYJla5H83WF+YO045wUjxahyR1gTtxpRAvolkve/+LIzSBbmM7LlfzZLm0GBmUSezBsxfPPH95wcXzo3uh4btCMWuwpqoCyun0PqIK6PD/ukdC5zsbyphqC6QiT90nqOuALv8DZJvYkn//2VQpZJF/BhQqFyJ+tfHiC4ypCPK5Li3xd+otuV5K7+cMFvHRultcKxiPGl72HrgCZuvXDMKNF92gG1OGmRGklfRrMYF0dHHI7rzxPmQJngT2cxUbstzcOCiZ+LJZ+EwaQuDcDATEY+jDR0NRNWK43/Im68kDrZ0UlXqcLPa2bwstyx63vcnYs3CqMeK/YO1E12GVM5Z3JNM14JBVoGar6zomK/sEy+3jP+8AcjFX3n7LliDoftRCmskgD2nx6WO3iLfLdvw17C7hkqrEP/XSZkomaTs3oR1rVt0qgSM84Xq/l1JOgF7WxGanwKT6fBaDywXF7Qvtz1FtW7P8maM2UIkcjIhH9tv/bZvwbX/pVJJ/NAB08NSYYefHa10PmMxKBSG8dBx+q2ZhBRZTm3exliysOAahJlnir8F+ij65bDLoZbaWfCROh+THhg2R8S1DYt8FOJ/YR6eebn1j7OJTsegf2YLjgC0h695BYFKOswT+ZpOpjkoUJjpTwHtbajdK+YHPFDdlAhVZfGfMrHRitiM8f0wQSY3z6N2aQELhxp4+tlclOlMd/o8BeR7o4sqS3c17yUB0SRYxaaPyqCVCtMaDk7ZH2irKz9fjeOL7l9CJ4Ar+31LuRSBfAy4r3NMDxMTHKVidWM3p2G6iS4GuvL3aPLyWS8lsIfOxOXTzIv53ghkdy8AJ9bI7/C9KJSf58SWT0+CrHKmQlDbSmWNy88GsvTZY4cYc9BWOdk/cXmOWfluqaY0xW+/jpkLvVRAX7TtJ/kSbbtSk/JApaAkErZf/NDWFKhXfUiIreaoeIqBhJDyfhcsq5LFWcuVz6DVLRcZHUdz1EidvJ3khmX3htlaaFpRzmY9eEe1lDpnDByJ2FQi5jgzO0gNi6IaxhQXoXJcip2VW2m332t1FqQQ/6+RBsPl7lSCPDZfoGW2IVFvm7SA9V1oe3YUMAx006Jw0N19UC4hQiJctKdeYhFKd1yGn6ycGFOFLIwypfraGoC6I8KdfRhcTYGoEK5JX/A7hLee3IPBO3OmqhR/yLWr4NyD7uw/V55UfJOTb9lKFuk35Ic+jd7kdQKO8w+a4qboUyx0Co4z4PAIHyZGFh/IZYFtzCeiSLKg3QqcLi1NhMw15BRWBdQg/ovVfVnOyGwN0mnjITA4jcAiIZh6kezpyhATO5A2sbGXaQt+Pk0fS57hwsFLZsC0lsCS1JtugCm29rbjT2dnUwAAwO8EAAAAAAD1PgAABwAAAPLvnVUZ/0L/Qv9O/0n/Rf8+/zf/O//j8/8m/wv/QvzQ1hSoaAU5r+dFk/A9knV2syIUJOfDsSkSQS9avcmUIC87vqoxU70a5/mFkonKtxYUah2oMMwClOxjS2AUtlMyRny0g4tJZdvA1tCPDi9eG555BBxMfm8069yPyL/R7NvnnaFanOtu1TMenjst+LxMcwIhN201POR9Mj26Jlzcf0Ch9fJJrCgzVxCxR1Ee3akGiMUIqfQ5ht0K0SKXlQZsP6jUSVlShmlI8GnDLO3AWRUctyR1+7sSjD0CyaN/jIeTUdWeG3vbooDl3zOm1ie97bq1piTqQISKS43IvSQeVrcMuaryMUnwSKVQH1QzCAsnvnkFhHbsJt1wmsinCvnR/pkjgwLbcCI6XxQAN0JRoyQvArYkKj+tzh41QxTJHLFCPh2D1wLuwBXKUy+OoStaNpJJCQJP0m9gNvAKtJq24vzSwQWsAsxNRlYUlgeMoUFxajbKSSDKry5PmIpHULiCjGyGawIMp1dpysb039tx/i11jhnZ2qcWlms0s4c1AAEuYuL7gCDdbEHG4UFT9tBcezxufrYwkvB7dNhB3vkgXPOFCNFMARMyppess+QAem0uZAFTO/o+cNdwyZ6nISl3qYXtBC4Ydv0u4VdYkOLgrgUxxsEoYaBq41RaQUPy38tikeu3rA04AzjzssY20AcHm513cVDxmOnKaFN26RsTLWP6cBARNbdDdBRP/IaXMgA7WzpHdUiHpZ2mFlug0vD6Yympe3vhSpAfWVnV01Uf2dnK3pa8sMZpW6ufSF+8p1oAD4+0jTVGHZQjMXcfi1D9u7F0WQQB0p/SJe7Aav+o0QNzWM/o4/rkDE30jwklbOkPv/0myQJCbUv7bV9VbSqS5fzQDLUO8Tdwmj5UHRhOpZyOeJiq5W+bli9RbMxpQxxIeQH94C9pS0Nj9PgrmHWPD7lkixFcZeKcuYAsjXBdX3xo5you7+aMptZobYJI+CJL3ciPP8jntXuppirq4spPh6xKmoQElLw3ya6rgbWPomFUzTAYcU2I4lVndB/60p0gMpYTJnZ16IPYikH38LZBJOtA70bALzAiEpD47cPAmxJs3z96gDVuOzTuwkGoyVmnrP+Z3DrYNsgizT8FPgnlbYq6DdK2utN3ffA2mCHUKd9WluijH2OZ756S11cwnQKcK2Y2ijwH8FWPQKcBhwzuVoalU8UJAeBmocMzgGQ1A8E5AklsgbGFr3i8hd6z360W/uHjy2dN3DDpkADV2PSi1xosxDO0AFRO5iYr+VOHTOlNAld8eFct1syU13B+/5CUmwALUrbQGwUFAJom5PzQ9ieAP5zMCzXFEfBf0m0FoZVlQCMQEIfGiDyYG1ZhrtRG3FKS4twa5UchVot2PDMAljkrN77ckqT+tn5HDL7YAYfA5v3O95KjF5VzqZbiHUSUKg5cgSwMxKQOU1WBvrzrcHlsNGINBeBIJGTjcCrtIDPrk6OYKVDg2nzUMQ8eOFHnCqDSJVLczFNjnPmx5I3YdGZ+PYEG1m7KuCYDBTId0a+yBiM6K3mrhVeEhhHxt2lEfbkd+s5aCfMFUeqWZDij7wr3Y5ThSwE/SjqyluAviic4858DQXeMypoI0k15EzBz8skK1h2wuRWIdu3L8R7gmpOAGtGFpIkvPEg5txwB6hVzPX2s9LXbN24UU1NsD8fFUYBJNMOYWwdcKKme0uY3C2elH980d/5FEhz60G/s0PvTDABH3wJAACdkiQG0gP5Pr5JPSmL80AueHR2bl796ZYncTn/vL881awP8lci6dJ4zd3BXcyhT/fVCUD4lraStfMJLQAeQMJ9HTTDsLNazdZR5SGuvSz8uQrR1XNOPNrEKjKjWFLYG9QumQukQ92lProAbGv1Lfijfteq7OB47i64yApnYbqivtvajND+s9kULVT5Qliw0R/1Hg7FjWP5zaV648KjBHJqwled/reVXqimPFw7wVPVDN9Gu4Pub43SH+f68vbtz2f6q4f/OvD8fuKmIsCvguvfcD+PulIj0IzYmPNndEeKzokWPzEitqLFfUHlBSKd/bWH7+aZHA8CEBlqaBd741rK2ozVNeBfI1mJrn/3LMhpvwBTj1IoLEZjNUxKbFfI8dF5VyhBxeN8v4vAM1LD2I7dPUe4Wt7ucjQOrGq+0c4fGRHYADaT8n+S3YkAPpZP6JmD803t8YX793Y7+JHElRidLicZvNcw0tNAog2mJxZF8kZw665lfmBiW4eniFf5xU2Wks6nMUusX6owIBM5TYBLSgbmMgHzbFSooTD6OaEWQQcC8WUTZQbryD6vr4isk1/+ICsFZ3gXEPxsHcGfPCqdyT/95KMnTQdfA1o263MbjUeAgBNEbDe71PlMq1cxnEnAc2qAMpheAc8hxcrkX4Gv4KPdBIQsgrNjE+zBucOY/60eyUShQreGS/AVUaHOZH27y6Ff6qHFuGLQPThNGz2KZwcqDS0nqYDCKnQwuc3tJmTPIEBx7isoazdw8GxRTXHqJ6K5FeXI/Y7jN5+dQAXvjiNZcnRx/d+e2XQ+6WsoQpZTeduq4W7VMhanU38/Xj3WQNa5QiXilHve8qugtL+q/2b/SSAJAAX69K3/aY/zTeaGVeOsjTmo9vrIux5g+YVIJB8nJ5Rbp344EviN1VPYrazeCTFNsF9XFvYiMd1xN+3EwtQu8nRvqIuSvSGa15kO+dj6Sel8/VxK5kDT6n8HaJzcPixo9mS4UoT7BrlfbcsZ+3LoDERS70DGNUpsUcS3XnXyqRodz98zRPAIxTspOrzUSenxSxcKxusXc46TjPxWmkKXzfLfmYDZOSCGgJvveklhNISpgVcSXpQSQlyo2A0tmN/qwg6B/0j4t5EHZvUe46T/afYpSYKDLv0NYKiy+1IqK52sQqkbDGRFsb0YSo+QcAdQGqPBh+EBbQBfRCVoeBpqZoJkBjfs5WExqUg+4a9zi1ziOPlaHiDgdpTdzNgLgA+N7cdmSYa3F2cU1RLHmXr+1mbkAkSb/BL8BaAPwKWT80r2V8mfYZdwWa0KGcJuGCwk61HX/pOY7ENRWvGLz5yvOsKfCGinXq+joJFleLqDafjZ8Sz7+VMA55yA5oDlKcjMwv4fuuqz4PiS/C3u5S0yU4pKvKOm++LRqAxvMsB0EMkeTXYvv38D/qhbYw45YurAxUQB2aseXxoIZawAb9oUThvxrkGhaR3/oDO3D7LzpsI5OHK3sd0V/TQzDLXjt4hE5JUc3z6w+8OyRey1cUUGoDFLZyBr8MMXriT02AnnhJz9JUqEdDzgfw78tPT+i2fbbNaErv/2VpC9qBR7RQ6DNZ1vR7fB2OncJH4AAJVncL0fT68wVr77AbTai2ahZDg5LkdRW4CosTvij8yR88dQS/mnJo1y8yRGezpuq4gDOGYHISvY0DbPFMyLZtu1tL8KAAtkoKtSpafzVTdMsNmM3hLobIvOoez7XQRZcSSuto2lF8tZJqZtLwM7PIu4uRNhRbNqEzOy5g078Y0F2J1BEUdgffW8gLdjHyNvGgwuKjWExVebi1YVTlzgdblMrqyjUO5uE/92v6/l9sZcsrRRid9MWXx6O/dlA+Iq4IC8WP1aIV96GUWS7r/f8YGyNF4JSX3apFYHxHTqQJXJRbC/E7jivLbnC+NWfTrgekXuXIsSUGuCDhy1LmI8NYykR/qF7yTtuxwq+zROml2Jw7zb1vtYvutH/ITS/p/YOAy7O2CNpLTILAkSCKmFwp9ZDn8mYax4pKMr8HZ4qHkZeVUwp0kQ2LhSxC7b/Q/v4l351WbT8T+sHo8WEa8ADM/z8DMPZGEMe+ZgUKsim7LUp1csxQhThgEwBZchDHRDT5Zsk6SDT6ue/yKdrCRnoXLYhJjC/19cFZNg+rJ4H3nUtvF33eBLOtb8HLeqVdqfjg/OuQ956JUOHr4tyU2Zd81qxP/rDolwJ5hntpAqeWpVZpA693h/dTdL+Khw1u1MeUXoNkTBp7JIARYz+GcXFM5TO3t4qBbN2EAnRZP53cRiiTVQnaddgtpV7HLf/5NiejqtY+jXdl2aA+A//sDuAJb2t2/20iW+cmV8kmpFk/GB7TMXrhL3bnP7wilWdfUD4dZjn3nL/UD32EgGDzeAEcNri54xDRH12vlQAgJS8C+MxMBjY9NHzjYaxVPIgbzmOw1Ce/J99oVG28tqj3yBGA3N46xqqhQBRltsdXT96Sp+U1C/hMZVao6IKAaWdni1MOXSNuNwWaybm9NNMPGy3kjmF/piaebEnWjHGGq/YIZL0cEFkprhCQko3Ff8nKIszQFDxSxxgUfgk2qOrjOx4yEdVDQ6EE5eBTBuWNL2g6rY1ILeJ/9rqg6tMN8GfutXZL9RJ3OejVsIkEo4ihDBG50fUXe//KtASpu2gqRuraVVJ/H/5P/5vKLi4msQSPpbf7jLgVtwfbA0pGFAAh2XOu5PXIq2pYExA8SRbebqXUvz0Fu2n81Q8py69JLsqw7PSKG6iaRePYsOQw1m+RNSG5mRp7hW6TQr87YzlYf4zhFpMRHpG7n6PiZyN+A6jz44AyE7AtRGL0uqMu9gteByhA9CKAgkWsdmIEwqNeNisShTSkAIGTaogrfPW6FnStHs1W26CFWC8jwA7ZpxuaeaM22Dt7qYGKExtQHQwoiJTvIGyqtMDg/J/8l8fb58VF7dtLCbYQQpaR1FO8AeR/mrgFurW4iERsb8KsQTFXz4y4PS3qn1VwsXIuDYUEUIt4NAKlFh7LedFSGz5mO2VHnZyo+L06cZdjlzFDP/kAtJbbAPk2tbkVfr8YeUz23YbLRqLl0RR5UXkn6Axf2bcMeAXOwi09y8KMKN8dUXdDactkzX9VRaXDq2bJA34HtLqJ5ktHpue2ad2B6zfbD+GhFbrPouuE8I0375xyKKoYb8OJq+/JZ0GP2Us6bHjY46PsSKJ7pXGkAF007Y4i0YfEQT9ufkZfKgJQnBk7OMpTwAOMyTEPkHh3sfSxm6p+Uegit/QYebBZMUFw7D/k5JMHgpUr6F4mNIXH2RhaNqXKrECAVq00H26dLkbRXxfF1Y0nvycPBs0xM9qYrjTuHydVNJqsaPFwjBYmzU+cr0V/hbdEsepFeH1kOktHp0Mz+GemAWCH870wAh0tgEkrQqgBaVVWvxh5TPb+ORt93sL+rAjLkU7UkLndMairu8ZK4odfFFWusAJhTyYetllKCsoLvpvUy4ngswcQmvGIn0GehHU5LKQ5DtxfRiTJJzbzHFA9EHc1Z/3ZvQoRS61nOaee4RwQRRgCZYItqjrYbfWDbRDCSTG/e1wJ8eOFOMz3Mu4Hk5DRFzBty0dx9bOBMEDjSztyCLVViMsftImltkj1p/koYWvZ0MYHNCjsd+Q5g0e8dKPEwyFMZqV6NzFMP89N8opRUxxmRFu2RKOUZ23XVXMqPJhTcrEzJrK0V4N9njxzku0Kp3t59w1TWdr9I/KIyH+CgxEk148KC1BTga9friP4x7rfjRjVOL7c+UQeD8MnEPcYiuj5bgI7w3hndY2bcU7fOq3lcj2tP5AYNOWFW6x5T7EsYwf+2bJk/2JSD6bD/Bfr09nZ1MAAIAgBQAAAAAA9T4AAAgAAACbfePIGv9C/0L/Qv9C/0L/Zv8e/0L/Qv9C/0L/Qv9C/G/xq5dV8ghSkRUTNaFxzhjOQaDezuSAPpj3auZpKdbOKzs5i4P2/v7AVsot45UeLsPDKOlskxpp3EV2TYYOrdGRQjAG5jrMMQWs30mBejbxMqx/ccmggGet+2V0g0KunyW9VjvntqR1VeOk+KpC/KHVNo95p1+RGNOnU5p8AL3VA4itni50QDD3U0nAUKXMamj+54Ne3uXBwGzI1Vq7FVwJGi88glMIfmA6gyuL52vISSUP+lZrmrMLEQpqNQmfwpcO97ouQczffZCujFZUO5GP8CT6gSU39/j9F1WQ9yOEhfzgNVkP/EHgbco/PJT6d08YO8n+EQIBoAahBQTgn37hfi31Bc0d0mft1R3OIO3z6GXsKeDMXNScM+CNdqGdzRz2ISXbnVOxuwlIQ3W4aFInUq1UlJL8n/bZSaWgpa/w/GHngA59xSGU2L03LGzhOMsE3E2pwlrcd8fqwXKY5+MNcgAAeW8VKRMmuSP3b28kNPWKebaUxit0OPmnJynj1ejoGCOnaWmT8iCw1b2Fqa0tvjvl/SzhBVHY5jZFNqp/fZTM3339/LOHWZ4GpgRtbsNlxLVZcEAQjnb5L9Im1IZBPDIYrxVaIA7SiRwGG1LQspbwy569HCFrkVMv6cZG/NCvyq7WIHLecFlw7Tiy8SkxTbcY9fwSxJZ6nElgC2wHKXp7JzXYdZ4T78SoVUgY7+RTm4C715/gEQ7mud5StOyUsoEG+laoqUQZGhHbkpnmNHotTXr67QqfnYRjNIdNSifA2MmJv2DrerzU7QRDKAgULylAsHyCe8Ga+f9zVLpSCuK3WiLP8zQE17d8WIKJGoX01LRC3f9u2SRurV/wCvXw/G/1uDkLEZYWpyhYC8TZ3aq0uTD/1AJyLVP+LgNzqUixWNfsbZcGQER9zr85lOqhIBuRqI3u+ziJMdgQtvYajrKW9Z1KtJd9NTsMge3J+Q5qxap2UKbgThr9P1qOaAGUfcrAqA6ekbPXIZXn3V9rwIYZywidBTaFIuiS/8Pt8Su96Ou0I6vJCzv/9hWkJyjqfhwEgUW+C7GTcMfsJVLxL7b1YLn5YOTm9yt9kfDzlcQCVDSoqvGW2KnxrIISYqBqxr28obXlT//Uf8seabVk23qfbFS5VPq/RSEIwYHMZSrZLiRhS/7A3+D9km4SPwfH/JvgpcKeDzk1RGJ93JwrtbTh7rg7uaIoN8jcqOaRBNkDyVX6C2CDhnZWcOBTbEuZwYu5A6JqGuUDMzroc7vv+ieB2hJv9tL/b/a2gXb1Dwr6/H/9FMByWLeNrneToTSOVpgBh0hivYgMyCbDylcdzVxkEat6jmEnedd+8MCSv51RWdVhmAr2idKmSRMCVCDIIcVcic1pdjAbWq33bS4vT9o2/WnUPJbr5gXsVafWvScjGeKGEJIneyiqwQnOclaOTGue7V3I7E98WI2OLUuoq8NoIfDtM39bTD3Fagg3MvUDJrj4F95g5xrdLkBZf5a7TFuv4nBtm8HJTnjhG77LsInSB8j4xfblz3HbWvzv5zixYhQvPsUj+kqFyohnyLiCay0r6aRMXE8AnZWgg2v8r+rsqv2KbmmGerG5Pg/SABKZMJNeWSUlKdQj37+zEJjLX3TEiI9b3lC8XnrFneCI5U1iHAeXmSH5cx2whbB2vPCna/3NXotPYV+fyN+YZQAnW20SJuVpJCdtm5EgULQr6CgA/H/72NzlVZKGIArA1s8SfWPAqB8Ebz0U2HsrMbZJeGQRy+CWMFGCDSIhBuhM9Ut0pOSn9eIdqRsTeCdh7mQ067/pHoCq01lDe3ufyaa1ff3bS7iNvsKZOP620zEht7XVeAyuJ9Q2vsOzaH34JiGQ/SSYf/84sFqBVrt2FJSJBxW7/N2NTh7e7MZ1shO1fPooqNqIr3CNLqTlu9CUI9XltvAN2t8kYuF9QoSyiIyYY8HVyJb02nmgzVZcZ4DwauXFiSC4JYoBp2t9zyuZZpy5IHxQtB4h5Zebwn8mTy2b+qzyjpuPrPSkO/fey2GspYiOFVex78x01h+YKQTZPeqSV5Z9WmfxKy5lAkAjFs24T4qYRZZT3fn79bWwFyQOUcttwptoqLXG7cN51YPVaeHQt2GdpxP5Lb/dA2/qgr1BQJVf/H/6yMim/3aeF65U7yYq79bG1jg2vMEqZQE+dPdKLtUkBB0UwsY0MrUXwA3lLJmiDHnM8t8lqi1GZpvaZrRLuXXnBbpKML5fugtyXvFce/u0vtolEP3/yoCFhsw80q0c6kRxhVQHGR2M6OGcJuuxzNB2KfooKLh7k9Gi6/ZzfmCj5XWS2hPpAmK02/No8fAMKCH8N1UlqHNOY2ALh4GItRf7/B3tOC78upMwkIZ5balQFPwvZBUcVxZ/LzzdguXDd/eYRH3h+w5bCFvhjHRVNeCDUM+nIFj,
WloZq75vbrH1/7TDSaEgO9bSyM64IGDF+rF7kqgrv8qEczYv2kmVnT1JAfx+cpuT8Kg/LcN6eWKLYDTd4NmYzghRQtA8kIFDRReEr2FqIqVgPISTNe+1feJ955DI5THdP/corigzQ1k6nkS+qUnye4mlnqBPevXNG8GurjtN9WaQluRsn/a2rdraCgUK/G/hkNu3XGb+sVcpuT+Z6RjSzuAziKJCEImIA5ITsHt4+PxR2B+TRuYFWLI6+x6mg8r6yK5CGioD9Fg3iQ5NeCMcYg2du1463kmvzbTmOXcZsEFD/ilUPWazb90+IShJXKvaIFeQlEGHYe4ezHDTk6bzN5cpf/Hzmws/c4i+T8ISycRop5BaehJ229hBlObqlB7pcSH8Gu2XGlt52kHZzUSyxJV8cW2kuC6Va6qcU990o6e+7pUM9ORycGhVE6YJ0HFPbU+3f5QHzAOm4FzXEkOIIMb4k6SvkDsygEmlPIcs3+hyo2bGYKXB3MBY8zDt+W07pL9jZgyyr+ZSU8n5tDLBtjd8aMVjzyPaChj1vyJQW5CW9trQCtlrwBQS/G/0E/5zf3BhE9f4qIWkm3Sllcf0pr1+k/j8uvYypLCsiBXwGZCQVpPtDJEQi15ykhkWJn65KFH+nWO0QrqCKAtwzy5Xl6seS+5VhYmaD0grWgoux0lD5p+dmbvA8Ks/ddFq+P0xQJJ3ne15Q/6g6ABMEBmNCaHBIbIkCQKtpUHRjSWis+1EDyuLE6U9a+tQOyWVpqg8RFELZEYSlOms9BULmKzunWJfQtUGWhQbeoFjlG4cVS/rVA6I0yb/iGGm10Ji8g2s0X+/856vnp7WDLxNbT7FjeJulhjDUc3RXjx4cajU4U3uieOAitsGd2HyxBdW0zyjTUugciV+fYF+OflOx926CZqBGShUuwEDsdSfwIUMU64vBQnIJGMWdUjvqpbTkvdCNjxyGjK4ove1DADjgVbSSdv7ZLQkkb//+lt//G/xq5Tw7jvFhW3NKp39vMxT8VNCEpMCLl7yE1fcgoUXz6U7VCigs2zVqkdVN5rkmLIs1j5vYBXSpMxdxOCtruHNb4hfOjVQuuCD7oW8KtFNOimek5FCbxbI3gJ/RkMFkFpITWfgyfcJFGHqK2v6Pdk8L1imDZae/NrwG7tJZY6gai/LNE84ScAaP/x/2/4oIc4FPBoEf9gvCzpDoV27objPS6p+hbJp1anmWwipbStHbue7TZjiN9sfrqLR2uhRNa+VGkfNa6EYVH7n2ycM4gKOha7h0dufXWFQm2iMZSeZpqT5/9tVlu5cMNc7ZQv79azxT1aO0Wm8fUlHv04rmNqco7A83mrFAUIUoq+HuEqueprKP4RvVzTs9QzUzmgHnG74FeCWSkeJ12MG7IalGJzvXAI/wLdpJGwSb2DwVaSA/G/xq5Tw72qJrPAAr2Dy3CDb5AMNj0DAmftq7pBb4vqmn0Be74BGk3LxWSuZmzMx3V77R3Pyj+PrTG8hii74NphKPLPawCmTCUB6c6TE9AUM2UI1GsCq39+QtIIpCtMTTrwzQtezqGBskvS+03Kvl16Iy9gARqYj1FcVhD2P6/nriBV3wDuKNydtB2vM+YV+6mf4YKyIVIhY9QPCtPYtgOA91sFjqXKPWYzr5UDwkG84ErNMGgGVf5Hv2FZo8kxHEJqDy3vuNHYJxICHxjK9loWtgpY4T9A5cGjobsVQcbYMzlVO+Ptry5D73843RRv4MnaV+jRnxIPr+sL4jEgmvxk0m65zrR6xaE9vJXMI8Re0vN7CTe36eqMehGRIMTyOMdR8aV10wzSftUbMIbt/slB3qkFZsADYkBtL6BKg8A8K/GHqkAvWl/HCCM5c+oVxBP+d1k0gpSy/w+rcibkstZxyYxWo4dCNhevVzky173gWxSFzHYzM/qgWM1WSkZPc9W4KzOLhNoiSLczFVZtctX5j3Mv/NbhxlsogSNUu1DBKsCrHPZhUg5dGhiRaJYfw0Zc2doTWFZLp3ZN+iIpR1SnW4IDmdJCz1mVPE+ROLpNwD2D9tlbq61aoqzHcIx0YnWdoAQC4SCZ/AmqXDsbQApULq8qjkT1WZy2dasmiYGL/5NbXDCrQFoxjuQLaYvsYNRb/ZuJixgkcuVApgoZ9w+5AsRbmucQvGWBm9p/oS9YsdbftHCM7ZteazCbiU5vCUWTfNSje0JRMhKvfKmb8BPg67xpS6kqAeNWTEhIvp9WAg6TXojqjEmiFKgLKqsMgnfXWz/IwCZCW5Nra/W0Ppapa/G/1uDkKX2V+ifb4qh4bftLD6/8cqsgpv6nJJN88WNpRue/+PbL5k8bVxsCNcqb60z8w94Iob7W9QxaiBukTmGHggmuO8cRfRpuCjrx6lO6BB6i7cNSRKNxvH/h9+3/6Sl2tBSk5zRwS91IFP7ENTmacrCOKBo4c0Jh9P0z+3eaQqpz+ZPwYi7J3+Ho4EjwE/WwE1W4s7NkTtGHR3YuvYx4KI+mXlClEIYDGTRmGrikZ2bB04f5TSG93h6MJaEsfyhZ/JoJBYkGftnvA763bbwfTmjEfC5sqKZvf6MUgEdQDnGjWH3DQACNzScXEV40bqvHAZIwOdv3Od8SmpKpn3lKZtfbS9BqAxjt5DC4WeYeNiW3o/w1jtVASPB52D5B6ZtWznM9Mk/SKyDaT3D+MH/UDGMmpE9rZLUkltq1a+gVa/G/1uDj/5QQaH79hrkHm741ZN2hbcs9BtMEtmT6aUVKpgmrAX70WTVj8wl5twC4CQ+eq9Z4XXmJCih8JAJCNCfSloZytPd3LEylPNae5hiYI8M9WSgV31sBTshgB1q4NJ3P0YTpzpJn1Ebicc/dF9qnAxlYnIZ61RSabWINag0317uaBEiSnNt4wKH8i2dVhnukkArLlVeJQBtTWn7HZYnGv7Znp8Xqw93mGhNd7Osl1OdZCygOhWvSIhhuPRZjObVp5EYh2/IFomO/MEeX39T8OjlImfMulmVcWZyanTfJUNKZjNIYZ3OeuaF7xW629Or14PWPDJhEAX4m5VcAis7CACL+TYB2mALrEYR7SUXOxwCwf2sM0qmE3/LqTyqZ9qXhEgVpvNVDFQVvUC3EsXTJSAyqtrZJNtktg2D9V/1+gT2dnUwAAQFEFAAAAAAD1PgAACQAAANqMcg8a/0L/Qv9C/0L/Qv9C/0L/Qv9o/7H/xf8T/0b8b/W4OkKXSILTiB+X6VopYzcW2r08vNm1uxzs70PaMXHCobP4ZkfLofkMH7jxmqHW1v6Ri8Tn8iqu1/3VCQkko22u+vbfl1PP+PZzGuhLDJUaq0leNz+UXyppwiFC3tiU/YP72uBBeQFWvkZR+4GQCEm5j9IEotWSHYJQpUbycZcsSYqeaA4x0UNMArq1vOClNQlhF/Ilv41CiZdlDgeu57VT/B/lf68jaVnoSSOJek1JdD2kKMxiu5JmgcuWRlU3DfXy5AWCDpgzVuh5IpPhvbfgSmXFszhGE7b6O+6OaIzWJoNpGT3y1k6LL426c7b3qp4yj5tRquJt4u6xqLZatAoF/8/fZAY26kyPtZnNXZxkdjw0yS7T8AH+UybLlNZzU/vasLgvlHGSxPHAQFD6jFD1/RgLQLdtkklUNlD1APD8b/bQUxBAlnLDcQhplVhMn+Se2bEhYB6knNBDhRd2DJUgafUT9JtWnFfj/tOwsP4e+BWS4+VE3k3haoEbBTvgR+4Qxsz0kd+99EGPKgoSS0LaxCvYpaJr0twZqTZrC0DAx2Qoq/hGvj1WDyvzR+46wgtd2hNcSoQkLMYZTJK44WgD7X42F5YEZ/NDAYn6UmuhBXOONW+I6zgi0m3NbM1KNGQMCIl+ecq3KjgjtxcZgKYCf/6KK+ZFMa+teja79c1yIGypb1MTVoJxCTftaldFv+QCE5kg4vD5Nq9UNZs1jJHoJxPxp4Gzz+zs0dVF2AWQkqQG7Y0uptJiz4izIbmoklReYc2trqhgZYbukPLzCGD/US38/cKFNwpt+R3b3bWJcQGk1CYbGi7F5yy256hpLxMi5SG3NpJJG2wqpFqgWl/8YewYCukfMECFz7zgPHVmR/qb8PpfBbGz8npEK5i3Mm1BK7usREPA5tRv9l5DQQpGfeNGg8apaUU4n5sQsEYQGKuhvs1Dt0CGgmCQxPsuRGc3Vf0Hiw8O6PnQn0QeTQ5UGAAfUH00azbec/Rckt8DahtMuMvyqzsYxef7Oxq+ciU4rvYUFbCkYMcrFMsocW3b4aHhy6wSQrlmtejOmuMcwyzN77Ti7Z0cGPg6LBY78zB9tCDR76t/rjkvL+SIYf/8y0gDBzc6CjxZ0lj6iPGPTt117dX97bVFoqTouTzXLFL2On41hZ7C63tLujZL4tkmUvVXP1D5QVtBf06vCHk8mu8MkgZLbFcawsf70PWIAzFH2OUXN/HSShe3DNfWtCT9Vx6fLlgaVuDtYrCPpvvyDAbUzliQJCSdm5F+iQoKX1/8b/W4OP/moXl8HMfZ/ebCD6jPwi8ftETbAPB6cqRIxOimVzK0z1gYF06ZSgR3Dj6mtDJoWWHwP0GHIMS1Y/pPq97LKHBP07d0XDxhwTGwpO99d1qUDm1ISO5WsjzcPDeJNzoiUX6qWaQ7F0q1feWSNEsZ/9FYKfvQG2ZhFHp+fqMjlcmTWdiodS8VZGx0aTkqrEg1DpeNJXKWxQkwAy9iXBl8tUGj0wjWD2LLq0r5dcRgIHqNY8vV1dOSOJf8rofKBePuwJLbZxkaf5aAdKTMrDctXngrYHuVm4jKgTF47hGNVHJFwjV10MJ1YBHz3H0RZZjUgzF1dpVCYhdr1l9bFFQVsFnl3rsIl5IXpFtWyGOCcMJ7BG2RrPJXxANmZv4tTYgjWT1IZPg8z2To/V1RzNL6xuW0v7bdgLfX9qAFBQX8b/W4OP8DPo2y3QwcDR6jWhGiZlW+2BRZ+mzpoDJegGcm+XcSPp6OAT+y3Bbi4spRAVZy5zByQOAgIsVlfayZk5xQtESqhMPj8VMVmgMyNEed6qlx0WOiNMH5y/5Hg5ANZ7/EgW+HdSC9obgJ+G6aPPDakTzAAN2+GAJqFjg9DB6kgX0uhdU0UB4eIiwgsXEuoZyUDj30WpNyhO3yyf2ny8I3iyFGx9fRjzo3vt1eTLK5STuiuWFGrANCMwciN4z6lvOdnudsDBelr/fzeIM81GAUursWwSQh1u0ZhKW7e7DaHY0JqHe43x8hZbrUomQC07iAX2JyiCaR1aTISaFji1/dci9xzGaRqR2ahHUG7a/Y9QsKm1F3ZcknL8OKb/rpzgCMr249HA9mz797Ria7LKrOsrLANidm9v/UJACg+gD8b/bQUxBAJ3RtP8tdghqzjHB2m+8bettp8VfNlPgXBh4Kjj+0hDDJSwTAPjB1FQsTKnQXZ8eJ5VIuf0dTciA/8dWRDBeUw12mmeayOiRebwBpZThX9I12X/DEgAdcfb4gRBuGpcmyp7H05BqZt1M5rQzLAtI9Rq0lNmyLcpyT+udhil6ucwLXw5SexvDYodgsNprW98wnVoYz68WKnlFMUpea8qLBOqJfIronimxr2Xqr8kcYTGL+9gvihCUpOk7huc7uttWIBPbVVngcOF6rd+7EAw6qTd7VLl9fjENJs8iXFTIciycc/wU/z+tzSJhe/aaGFxKw9HhmuBdlpMlGItsSVXBdHMA2E2bo0SPZgdhoV91MGv4eqZ6A3SPNQY20YPJXdwDBDSbwJFXEAyE2LiYEARmwLdpEm26X5F9V9Q/8b/bQVJR0f6WhHNxLJa3xDU8jCL0bIwm2bbINymk15OOfLUR3gjtWtEO3Hy5I1OdQD5INBNIOPcxPnlJXEi6M+JNGvyPoHXRsu0dxIBhD8bD66rBjuNKivm4vdf770YJ65544vo94EIFJ4LXxuRIKd1oh5vF8PSS/od7YN6fqLRdzSUcZC3x2Aoxwvo/JdcrTnMddAlohs9Lr2ICSjp/0HFxjbPTOaMJShA8vP9IPSywxxGQjNsziqFHlOA2KiM12BqVa9RSpS5uet55LfYUcKt7RSorBznx4lHsD+HFpDK9mKv73DBNmzfbpZVNwE3Cwxjks8js14WE0Q4EEx5MsFQDOhezR14uIKgk1qvp6uroArukr2TUkHsLTfKquS8TNUQZlQmelaFceIDmcqRKN1ioZmcSbkk2ttAABbaD1Cvr8b/W4OP8DPo5w9pQgXyAcymX00Bw6JSrijau4KfA19ezwXWWxinbwSOYRyCA81sk7Xn3A935qyZYKwXOv6pZogz4wT+dCJ7RUKk2/4MlG7O+QVNb7Y5BBFtcfgz0jxAa5+5XfJxbUlV1ED47uCuAoazst8kTkDE+70I4q03wCxuA8cgROhAGthiZBBLTptKbVE8RXodO/Ze55opKXnlL397QJMySg7WFFWD+N7raQLa9XBFkcuxhcGRDfi9VtqxCwfSQRSn5PZqwu/z/8ZNo9GcqDOqmtDN0/+MyYQv/VoHqPqNK8KLr0/bH2oxDmxM3BPQD80p70rqBerujrCVLd/ZVrX7Jk+YrFJ7L1Y+lEKtHSn/AEBh70s9V10VqgOTTduIggwn6XtUVhHfUw1K4uyOlhnWNrZAEpJP18LVAA9QX8f/cKnA8Ai3Bygd3M41bpT5TbkZAk31EUCjGbe/SEKLe5mVXjUueMW8qaID54/8QkZ8VGY0b4cV55S4zFg6Nd37w2Nz6h8fPFP74jiDu8JUTnMVTxCJSVNDbX/6wOBrmitFri4GTuoyEYHBJCi8UIgJ1Q8eawjuaiAOLG07M2a6JbveEtt3LOoPDjhaKvWZj/S/4Mfz/7IgCpy9Zy19YaZjIr+wuAAAAAAAAAAAAAAAAAAAAAAAAAADM8P/MwOKsdVHPA7J4HoEDLa+6IHqW3XypeARgw0/AcfjPtYjRKWt1Rg3AlfO39rWwz5+KSGhwK6pc6Z374qenGJ3oWCRYTXqZ1hqpRHvg98uLEYO476rMYpzHTqQzQOiRVcIlOuabxbUBnRCNxkUQ9jD2mm1mM4VIwcy3+MLB9AMDfkmgJLN2gGaetGj5l8/psM3bVYdIFZ7LfmDCuasAAG/0iUiSf/JAbpaqg9fx/MDwsbSnraWB1UAZuTeHiznx4IZZ5b8yVCvlmAaXhsopkdliRIfYDskEzqTYmtLKrw+cP9s6LsGzPeqx6vgdTbplPVWiNP64iSB81k/lKfaYFf1btVblbMBWhIGS5EguAKIcoPcPr5vsqki1nANTK9O5TYKjc/ogETAkmTKLdCzwsPTz1skV1LE6QNVebpEjJ6XKxlKNdU1vYNU4UIqselmkInHXxPPYz9gyQx1J1j8uw5mm0tbKJF9LaGQNOTCmizzLDunAyuzkblZ2fE7Kf4ru8nOvPO2lQVoqtf+hv4M75gvrA9RFi49ArFQhoneEwjPJkIZbrneR0YzJ23TrAaT+BwWFqXH8ZCrZc7lThKDu+tx+9QZaHt+dZnNGBNK6MaokC7gjUYj7qzlsZL2nHLGd2S2RgQrk/V/Gx3oeiiidJv/8nkgAiD6b2jDYOm12+6AjHeMb2VrJLIrv15Zv1Yy2W/zS+UbSph45SH4JpuPNFCHahYK4HZf0fkzDJDnPhw00IMDc24N7tcCWDMDHxn77VY8m4VxQvO0Ba/yAp7AAHciEUrW9pPyQPBbQBUvx8riFc4YSmyZO9cJsEFWtk98sdREE2sYfDIuQQMDyA44WzWRAizkgil0oabLJYrJlvnkvXQ7PLhoAFWf+cWVKXTkbo5Ev4PeUygbwflhxDMgh6zBFP4d3Q7dXhY/L/lhYRwKSZ0JG20CdbCkR6ggnoQT7gvK+d8aEMWXHiWIcuFeDqmORXgjbr10LOomkXiPDWqWGjkhtpdeIHK8j2FLq5YZMWvdjGVHsvK/HEGMIF7A0dNMX7AO2cu9HQHQjNc+SVIYnxn5jnFU+LWdwVDWDzWIcBFL2N1+Nd6KoNQetLOHY8xaR4NyUsMFppk++zCCEAFKks++xCRKRLOMF2gYO9zEYnRjqqmrdK5b9XAy+X7HKUXNnIXBwp7fyQ3ZmCpkGyxMVtgDJSo30a1hfZMWXUL7umc2LM5CK5kj3/1qfFwBrrWvq/QRtifbMhRgZm+eYkR1jlPkZzy4nAsxPvuL3qqExFcgs+O4N2mvYV5rv5SDY54PfTQPtMOS2//wEqDR//xOGgxOJ55H7UiGGJf3Orc953seEwUQ+Q7VDfT5QJkJGFWc4t24G9YkPf0C0o75zNnOAARJdzOSQBIn9JJtv6t2kt/NLA/1ryOK3taiL2l+nNN2FlBFbBQ9MPoOyPdvA/BcsIdjcjg+XndGSOCu9eqvgLsgMF37cTxwEm5BpoWuLUk1hvfzKA02ySWFu/X3OiZUvEMxcR3bMn4GPYWixNowyjoRtEJpcDEQek6YDggN+wK59RkB0OmmELUcqO+zkzO/AU/R9j7/o+CoWpEbAWiqdRQZR2urCvMpL8IL5m9swgpY4l40C5ljBp9wD+BQPRoYuWcfEjcKXMPRcZc38MMgKMw9o9jWD+QFzM8LJQDeqfKya/l+voPxLGW3MndOtdGP2FjQu+l0WrRFhVCefZRildSVDLfW7x8atMPX8v0kAGgzzdO13tJ/tktJ9u1JQAF2kCWPzP/n1uVxtORaA9ogyfylW13bRCpyZWPhhl/B1Eei/p3eR8I6bJXKZq8+N/AbX6RSgxoO1wmY9N5vtRAqYpudICbM3TVFQqhttV3v6D4Ee8tMKrz7ETeKO3t3ggPmrUBXL9h5nG91JV/RA3YzcOkxsxHqD5roYkArAFjWgMRUUAUX1uWqbaVvJWou5by0sRdzqoA6lkcY8+MODhJiNgpgYFbkulE63/mkspLmgr/W1J/Awc1ig/IAg5AFGe0S+sieI5pG6nXiipLW/pXi5ZzXYGMoa6s83lh1bCD/d4m9v/CPWGImd8ijjv4RfPVmXa6GZgaDo2GfMTHRqTD9akndzvcUFRy5i6th64GxmcO28seT88alU2AnHxlGMORc9rx85bhaebzg53oR1DKyYJbNKEZj79Pe0lJLZtIAnZskkF//6bAllPZ2dTAADAhQUAAAAAAPU+AAAKAAAAx0kpNBz/Kf8r/zb/Nf8t/zX/O/8t/y7/Nf85/x7/Kv+6/ND10Ez3UiYBECKxRcMzHjK9/zKLHb3T+hJr8yGJ7Gld0obMQVfGCfoP6B9KpKqQbnXRWD35LcH7fD3BWUxDkuOzcJxF09dKLiPz/sxnbCFx2LWUXIsnTZ3FiUCeozjbP2QA2GPy/IsuDa7U1sDy4X7/nCHtbRh1Tjoy7MU4QnvffiP47Bk4k2eTncmDR8SJvWVk6BZWEyzYamS4FvIf50BXiJp42p+hfAr+r03KpFnteSep6wNZtUo6z52zZuazBYf3dJUGPXcG2NeohZKwJGUtvcAcRxyt8rVLxjE5Aq6gzXMFYxIqG0/MRXN76i64TMH8CHbVoG4Qvhi8CehGqo77/2+5IljV6vC0GQ4ywFoG/CHjgg2gHi2TMJbt2kJXZsnw8JAkJtn80PXM5L0fAbxNA82pZ0ngD5fP+Cy/XJ8ptx1vtRrM3RhOpYH+gF3c9TRIbmjysPwOrCyrUI6SUeaXsySEjhDjEiOgef78lD4CsNGai6lzwKbi6VwofMsV4aDmaiKGEX0H6NrW0nLNkyDzrpVJiXGskAjq3yg1X2HA1ZhOVeW1P9YNo7fQeMWitRYhwnJjwHHd4eiTPHUdEzdzct69XmT3CGli9g57CriEPYLGMgTukHTSYlsKhhr9zQH/OVqZgIRZ9lDOwH3bhGoKCubxSHRdtAlTmtFGhldZdHtTs3nysBUJTLmkUuNzsWoKAatlHIvrLA6ctX6w+rbUQc3QL5PCl9igKWQ60E3qsmmDS4eslHORl0qaoyZB6Bn9L/2kbkkbVtJIFrZKkm7X/ND1zf0RQiR7ws0PHUV/xKNrLcyFw3v018apKNCzJAnHZ2VWBMVBixqHYbL/spvnNQvrPTEi5zk/SOJH6GBzqRTSmI2twgmpyfgptUumZ/xzS1c1YeuugCasHjxEdWqcCraDK0VEtZeE4brNUE+69gSUvDPK7hBsoo5XAz+G/vT2+DMqgcb+TljqDnO1DNLnOyZwzT9Miusz9xk+WvTwu2hCGpstX/qjNiI21AbMX80lCx6Zz2jwzQutCwIKvUA0zIdWaVgunMf5DUfdEGlcr4QbP8sohj5MzDV4w0qyJst2AVsNAjzNjsD8BGlLwsyEznHVBFHMtlezwZp94VPFI4fsE4Qv8Nu8kk6LUi4VA+B7GKL/cwmCWhD7XeIjXRC14yzIZLStiG/7SSWybdtqJ+Sm0krX/NLCzsvfZuDLo9Y0/gBshEWW8jSsGmiGc+ZdBE7uO2ZhHwBVMnemUNaoW6IGjyoo3WXes14pVISOe6o4HjlZ5cc26KGIY7hS7hynNxK0TET++ZbmY0ot98UWPSZnQbHaelEUpkk31R7JqQP+DsRjLTJfsd8fDtVL26LZlO5ECu1++Xp2iEzhkw11BJ/z9r22D36yVxO9auINdhV/Hvp19oFgZRt9NJHMsMpEfMXNfngBxkWGYTHCDEaWaZKfqvgYX04Icxebx5Xydx+KqMAHdsKR89r8Nze5kg4z1FBwwR25+pG6ckt1a5sXle6mcoIvZkQc3UiYgO/T/9IuKyq4lQjPOvtTEmK8R4QSsaPDf8cnTwXSaDhAF359Qm3uTCAA0haycm272SkttSSAASokG1SA/tj80PW5lP5o2osRPCq4Sa9EXi1ciclv6guzyhBSBUSsOdiy3vvv2s5Yv/stqji6r0oyQHkWXOslUmcE+9Qyx5ILRaaz2M9Famd291d9bmXXzFWVTH/1QUh/Ppe5M3JwZK9gCmleo7mk0bnipsMU9D8GhO6hVaLtlewT7rWIax9imILAvyaoSBhS+EqzN55I3kCp3yI+9h4jJfxN2n9YT7ZbtcAxVqiatLQZqYDP+P7fpUS2gl4y/dngvSudxK4YmIXYtFav7VLRgonImGYb0sVSkezdgyMFBP6LPrWvqNCN7U3CKbYdX+6+BPPBeBoy2MJQMZlQ9hU+hEFbkD63/bm/eeZFw32qGBpOs7oBdTTe2+lqm1f1R+Xd17Ypa/0v+S0AD/ZSf2/UPSJJbtv8z/5zahvSWH32dWbY3awyYPiGwokLfol6K8slUzaMiWvhlHKNNDNTUBwKfVwNerhw/ZktmVOsiacfwf15uW0hs/9k3/gQ4d7sua5FgHLaw9wu9TYtYPtWuyYGL6c9XOb4B6yrD3BiDe49wwMY9C1yTXxVcdjiLn6FDrgbrBRfwUJhCl9OV2QkOhH9suzoSAjSI5CcSQN1O59IBPxrv/a+fDV7T4Ii/uLkXkU/haenPGagI6DAbOmj7OVMn/9DO7lEfb+oJHtV1tsxJKtjYXJ6bLN6QyhI7gaSkOGG0Zhq4GR+SA/mtMzr6z2c4yLtNQojkSpwaAWyizJyGVZED2PzNXWldX8/68jFzK1A/raiLY6lbuVtmww9fe1AjUvtcEzQkZC1H8C0Bsn/ZIP7SVUASSVK2/zP/sKiJ/DFDa+7hnSjAGF5S56N+WflMXyW9ulPu0sxzCWXK+RlEhmADrzYOQ0SvEulsRUP2zmWlfivCiC4N0f2r18CCSwPRM1fMr3h1H/ndhdQERvotAprNN19ptGihIvwR9cD86Ti0qaWnbktMxeXg1H10v9/v/rCueFdDGMsme28DBHsHTtfxCOCQyAZXsfENp8pCtCc1/sGGYOGF3TyUn96zDTJCrD9NA0K8mRVeMJ0Fov+m2tdH8xuahwWi0ZZdDoXgaJDE0cZqbWSicNcZf5N/IU7SBHYwz0p6pr8dTlh6yx/NLU9YaPxzIe2mQAm00Sjb6nnJUlbS14OVBkvE7gudVLPq8oPNt1/SaNdw7VSkHoSKIrNAWW6jwcsibc5zdMI7lBQW3HMAuybbSf9g2bk9f/ZJQLb/ND1/E9nWA7OSGuG4sxl9h66ruU5qK+7c1b/iHS9q1iJXdOpwFblnKWApQ653no3YWqhFKfs4tz0zpPyQhQIheziA8Zk1zvyoHMZ9CXIfyssTPb9SxdjLmGxAaOFIW9daspiw9cRFReDA0WA/VQf0Wyin8FM5afYu1nwLPeu+kZyeDvh1dlHUw/oYfDuqzN1zW0t5bXNoL/qQMPAhuvR/b1NXTe/KRHa5NKZtIo2Wv46C/Ah9wBFyJfJCbMEGHv5YwPeI7VOHCTVVLasiWM0K3olBx2g8LqwRNxR7WS8DA8IyaeQ0sjvnYM0KZy6uQF6Kzig1+w1Tl6/D2P/Yr57tDy15wygOHk9eswx/l+kB/7G+w3UqQtl9Jo77qXuJ7gP0pP/wCQAPr0m25La/ND1/YgbQVOqueZq3SCnLKEvWYALRAPHfJ9oVqVP0iXxtDblOaDCgNjHSwL1ogmjdNhddXot9B8e3U5rDDDq1Y584PXviqUscIzvfWorJqIX+88LXOfRU6ozWGgXFziR44tflv8BjPpchSgaVfa5arO+K+TneNUqbWtu9wuRiHtwPVsdYvJXYZWaAzEKJeRwzt/pbv2eqJk8PVjrRF+u+vm+8u3eCn0uIlrRhM4ZpHrL5U71mNgv+PAKBTpaE/kRy6vy6tRftm1YeibFHw9KwVUrFDq8RH5Pd6AXdYmYiLMR+0Y02TKkBCIs2V3jxiWZK7a1A1GuMcw7I3UbpjxeXcFrCLMOOcUyG6T0GStAfx/4dNsErKzpOxatCqxY/uEW7f/20kqBu1VoFAkW2fzQ9gBkApoxP0qeC5UkYkYyxjOaDXrkokMdJgyj8oNO/6ky5FO/WV+VB+nmLTRSZC/3iPNykJt+kT5diOgWyGOByvT5rCMQ6gJHW6YOdiBVNYtR2QPXh1zURyCCLY33s0cmDl2guv6KFdDkdJIXQuz3vdn1icPme5dhuM+jkY9Fc1NO6YSLl5nPkV80+wADDAA8zMwQayvkzI5jNCK0kcv/pSpbZxZz1ZCo709LIp0Z7DPwsdPHg55N9HxQd4jUgmFsgh4MTK2o7mAfwp1iiF6bVk+XbQxWeeLgItmwAmPnbk69Ar1NJX/sflrpD8mkSoxRZ8HH9O64sMTDBvgH99Bu3fM+PQrSAf1mQOtp8xZt+zMsCu2TtsRDWxhmr5OD7LuPrVpyJ/5NgAEm9l+vw8AANtrZ/NAAlKGcCsvKmTH1HW7sR09uADIoypERKDvXKvWOI535JRrLlGsv6FzJSRrBhSOEaWZ/Vhz9iOn20m+S4UTTB79xZmX04vgxTqWpno+WAkhyPgXME5SPJMEArBpM2JFXijlyJlWOTp2thzB20mJNPZGuMBX/CVSFZrN0vUK279AnOoLYBl656LU4AAAAAAAAAAAAAAAD/MAD/ET/ZLbr3WVnh7K8jvyt544BIimWHi521fu5c1AWNCiI1PWwP0Bd2s5JOunmEk0+L+n+GDkCF/QHTqNqAboxeH7Y82ar+IY7EhxPeGZe8uJJSEF7tJX4J+VMedXK4pMdOUuHDiTi8iiRXp8QTEAKQRbsbORDZMJPfPf4xd2SxzpqrM9MjUM75Y3IUsFhz9VFbmW0trUm0qoPwD/qtgLY/ND3PEPothytWk2tNAl1DVd/UCLnifh+82rE3kfXObRzcGjll4d/qyuw6xIfAJc8absjIiTRqtvLeyX8tR0JDOAPtYeZw5gpCHh5xfLg91M4ekj48mk/gqctLx7gJI/7+l+0SQrty/Rf20MvthjEZh78qSOlKlCWd35vjiPyasAAAAAAAAAAD/MM/MA3+lEbeZ4kNNUOpaqBmEk66XV9LLoRJ7c+Xphfqz/OD1ukSVnwhMwl2fKi/1G+80W6RNLtbC0fpkxJDSUgQGo9fSXaL6gQmEA30PZxoFAi9qlKrZzGnRPRikfhqtOAI4UxoEjY3uKtCP7AKzfj8G+JBEmtvN8EtNLJqvNrLeBqcTUb90n/8CSS1Jf+0FX18Cla/BQBxx58XEoeWEq7vN15uBBycCb3sQ9gtHdQ4KNxjvRTzP4kUqt5uj+ZFP0i5b3V49kyGJdf82Bb//Hvf9EgNwdRlSphkf6nSWu4izH7R++085VHAHCo0/BuAnYFVQYq+XoEhvBI4b74iMFMV4ucPuxc7dighFZGrpRIzPJFU1SBKiXhrKpy9470qPwz8M+KtI0RQGmceCen2emQQgc8NSPDMsTQU/cF8qLKj3wRtM0nNcEWy1B2wovVggxcQdDSZbi8tEAZTv/YzHfhv2CwOAJahumKsmKb1b89TmRCkL/sQcbmlwcWRYk4xUdXLulvBehnago+3z3dE9TYCLHcbWTPD7dPHhUCSzaBL2JHW9Q+zfLoxVd1qSaliESZkSt///9K0nwWtklJ/H7Ova/Mdo26K24v9uAgP/j5wXTva8fj7fyl5PuNyUXGQj+W6US7+Wz0x7vjyyx4oYTx5afHHz0jHGM5jz7+dNXC+w5Dbu1442KfNXKEIjJVNgss/vAMXGWGcDCSSyIXFTjwfUBGc1Sqh6gYhag+XksQoq5UdlrMFpNJRT9BZABzn8KrWHp/SK18GbfNffYyGtwRTDwCVfRB2jVOwK590q1YfsqkoGlc9cnkEMgO2fkw0gofpDBVikt0fC7bRVmiLo5C+6UmoAAp0EdjsKRpIaUx0Ma8MbfJ5CW24WTIND/9isifr6/GMlzwQpQE2NtKYiSHtTe2jxILKbF72QiLh6iNhqxkj6Guj67j84uJHgCGLH0Sbs/GrzL7zsCGKr9NNDRDc8vNzIpMRWRCCITTlOwrw4XJlTiHf7G/i4T0XcLJAoavIbLW44+X/JCF+oJkRpHQRAFkqYygUmWAMbigT3RKjumr0DGMc0NcFFrw08ZR2AvFfdSHFogx0eWBMsijpyJNJOnZo6eiW7xAstwsGigGQhx5SgU2iFImHa9HGW9vKhcNvvcjoZ8iSqImwGyf5P/yfwBfStbbT2dnUwAAQLoFAAAAAAD1PgAACwAAAEvII5kc/wT/h/8L/xP/Kf+C/wP/2v8C/y//Cf81/0L/QvwTu7n3spSWmxviFfEZrCDRFXuOurIHSYEh3SoVEed+FjZwXUFsZua5bstBVXGB2dmusKV26X3kty5WjMyyXfAd7HuWcfDy2WgmQ7j64UF1qmoX4iEu3S9UnAQ7UDe4ZBI0G224HDkB3R1DuBS1A+b2HWRXChz//EnsUruEbPLfj2WxeoJAA1q5JJR5s0YWukNMwU8eimdc3PqqXc+S44l4gZSC54BIX+aOzC5WBBl4wnLPFCKpFxCZrMpaY46yqURVB+f/59wxm8mxD8PLx1CVFyShifsLyHk1m+rt2lQlVj2k8bIPPGms2NYBhLBKh2Hft5/AzsO20kkAlsmgBf8Kr6X8cEp/4eLYy8LjyhX/64ZOUZ7iI3TwQv9RjU4FVDC+lhPsfRtoXrlc/J0h2PzxNyXpSNZZafzKS0F7S4/PSf7rT6I3iF9RpQXrbUzndq9qE3Tof23KR4u33esaBjAJNlKoaer0m3L7KFfztIlXr+0JFgA+19Q5R9y0uK5yd5MUDfTbuYz5rVhQR2DE55Aj9ShZ4Kbz/xCFyFqDGartMiTFOdNayV9iw7DZaISDS4P8h9e0C1LvNh4H6gBNkaaa7mD7/aexcwolDAuzbXahiiPzvGhjfr7yLazDcbDeX8XJrTw2dkaE+2tsnYG/k2+jM89oFo2XvN85gVratuYPziXMGIUWyaUjdAQfZ3CB7BXo7k8C9E3maC6bYqlysdf7U1j9q9hk5Z4QiQykXh1xyuOB00lJYLg6PePvPTwSBTnq2v2ZZuZhCdqkb7/xhPYbgUuSo6XHHTVf5MC+rtBWte483Y2aJB5376FvkVnAAm2ymQzBnnFKPmL/9iSe5smS1KT9sF+rQD/8FdJQOWbtzsaoPEC+BM7iC3edCtTi8j/DW8GO1luuhVolHpMLf1GIHL5M3PX06Uw7gKkim963KmqyCRAKspk1rTuwhbDC+3g+uZWGw8IRSYxiLORnLTcysIoNaDuWH+XHHR4NYR5QReIurEPEtSX8NaL48UyBs50SZbemYoEGkZnOt6HpgibGM1ydCd7+QBTlOXRH/Q9GCKP8uBzPeBzJV6LmuynAMZ/+8XK7rez0XSp4SzOOudp9fhYqbTcPRu0YfRXz8Wc+8uhb3i5cPf34wWyS+e4QCA6evuzHPhAQbkFWssigtLtlTAEwD+Rf1WkR1jJKC1ZWZr/w9lMQcz7gAJEgNgrwr/D6//xCckRW2VDOpavbtjNCRDSbLaAvwk5WYxcUKMKx/PT2Hi6BO7+3v9hYG6DEaHQ15vnjsq9om5x6DMxR3TDb1ht/LCqiyXuFBu7Y4ds+9PjQK3PlQMnLKRfH/LT4/CrxqAj1sptK8oKV6R7NaDqysrtqnsYWpWmWUy4juzSB2OA5jjwz5tI7sVM8urk3yr0eLAOqzWLljv/m1k+8NgevC+ou+VJafRmOV1YiplAlZ44mJAzZY0oK+PIkAph86K9dUc5RhlKCPv3XNpDdfpmgmkVwJxwmOdFC+eyHal3HEbHe4COusKuv5hMq1V/3T6BAo5ss3rkazNHLcthrQK+iA5t+ZFTHbM+6RuRsBKv8kAX/WS38ADJPmxTdX3nZUO4jrKtVqlaXdd//2idgKXdENcwDw3IvKY7n7tivji9maVpn4Fbfe4BpI9nffgwP+SHszo8oZ6a+rgeI6ldlR+N1kplcXkP0dHXkUpZxIb2wUZUPUzeOhkEMMYLkmFwocRgl5iU5354E+ep3mMIxoYkiwpcFZ2JQXAEuEZYf6fW354P860EwgAVQkIxrKBCUD0I3MX6z/eDhMrJHrCTBETfhIXmkbc3EtMoehyQ8W1y9hLeU3+0NmR+v9nVm3PutVfU8GROQjGrrDoUpcVp6yxTdHLX8GznLuNxa4/0ugbVKHgkMm/JVjmWcAvBuxXrcqPai3vj4z6NI6pC4GIZQTlbzxn/VJOKbXnxATIiTwE5JJLZCW7SfbAAUA+gALfx26MMsBHJnBvpS5PmIxX30R3C/tzxajqDyflUBO9Bu1I3hJlFdv+e0DoG82DoEY9aQatBBFTdzKFdpcqrJAG+LTjWusnccB95tyqqHapqbsxiv+6THm8E7CcOQqTfzM3xNPy5xt1+1UA9WV5y2AYkUD0n9U9y8DfAbolWLTUhGQ7IakgJB5WgVWYksP3BLNgS+1RkHtHRnit2JpxLQ3puCrGxStHIuxMFrgU+q7B7V1cFq9ZRfGHbexksKd5l9Aaa4ChQ20gGr4QAnx4uIhHquOUQmNurdkxC29tSJtRCcL55I+xRmLLI7rRppT0vHtklu5XC3MRU0oK4jUtbMqfhcGSHDx0bww2BOuqQR1m7hvABPCy7q2V3E092EXWyboyaJ3yqiwDKmgQ9nvLnhNEYcjFotwgtmjofC9qVAc/i4Lhyj/dlZ5SLaYXedUBLYmQqYKIk2/xK84J7Z1drrMmkqPdMvgqMWpm1cqvrEpt8PADWBbWyQP9tm9gJtt2UPAAD803rCAvs8ckdSHRqRMP1mrVMYS+rhW2+iEHYjDxoxaL/pOHQ0v2JTP2ZhM7lIhYGd5L9XJnuKt2Q83rhNNis2LX5UazrhryDL6jKdpNFolauyQtOC11vZbzNJegI/WpEmRvCwwyylYByZs2Wo4MtJm3f0TuPvf6JyFq4xzx21FaB9RWdUKhJqZPvst8lUHNz1LB/FCwn20JQiM6DRLq7Xsrk1WfEmsIF5JlqTzFUQ+ysZYRLZgSR+rXGmDOcyn/UD8YmrsOtFKsBbMN0IExTLYOTg/wCoatz4kFoSjrokJCqyoQLgAW9ruBwmad8zuRDoTmEZMyQBLYAnb6WgD1r6tWL8dp5sLSFsMFPGqaqEBgeBMEfy2lB4bEv/YbWqPo+ICkMVZ4bSiLeDV3g4tSHAX049sx7en5GHIHzYf1tIwS+5pK4DMWX9OmTAlsx5gV2SfOKj8EYRlfjkAbuJS6S6+L2ttQxRbazULv1rD/qiOHNiJ2YQlYAaW+oW7g73GEc5KlG8aXNrnR1pFHuqvgX8ACyKDOMA8Sgii+iaIQKY1OQPeQvmE0psgSiZWdqOeFJZ7U87MOJwMMmxDh0eVw4L6JA6W7bgih6uBmtRyd8Yhz60xwi4vlxbL9CeEuP7OzRk5ZV3KmWISQdnYP6WVNbYyfg7QP2kSAJ3EXVgHMZGKzZs/3RyGzfyFVcjz2G7YzmTIyg0nXT1oISpEckqAaZJGz4GGu/pzMHpNeng4QCQQeB87AIZzEIt3rn89k8qTZLR2sg0uuxfGWzx9dfb3e8tuNfF8fEVTcqK2oEhfVmJYm9gTVBkJMh4v3yAcJOdbjvSn/6c4Ltje78tw8AxrsL/1WuB6KbXTqvKb8FeDQRoNmMsTOd+gg4W1tMYCiL+9+HhLvm7lcDo22qJzKK6RupU5YgLwZh6bfuTS0Z7s1dqDHyeRZW5SbqUa0tTH8iEUm1VslJvZJv/7VA9QPxbZZrAzpzYWcoD91fQ1np3rvDGLMzqLucvfSVvtSFA/vJ5L0fI6rw4fQmZz9+rt+s7Hld6EjF78YWQRp7Mc+asImkO2M+pB26m6KvaOXLXEFy0N45fso603LwQk6/pCWZNaD6ap2DRLn8PAljQqkzl5ShcLVWvlENAHBiorMjx1+gvb6ToqWvpE/I1nsVyt3BdBN0+8aKFLgdI555CYO7WL9mSA3zJcLTiNRcXxUDiy0r922Og1SFb1Yh3Jbzohpnjsugfqz2C38WBcS5qZBCL1A00cY0gZrSDDDh6FudCl2NFys34cPTSCY6NxLaGSyNEEXoQbJSJAktSAP/w/wUP/FO5dS1mP2WC7nF1kkRl6cC/WuTrgsDh/R9z7azhaCYiLaWAzawx2qUZaDXGG0FxNGDtX/CcsSoR4OGxpSC3T1vgFO84Px9Lw9rs7/ASBt3iqs5F+wY0vsakRI4LBw4zcrukOni2x3Pa3unrCE04jonlnhYLW85AWmb12kIJhsKr80HaRIELCSKuaHJ/4InFmCreLOEKqQCB9AtrxcEzZv6QUa9CDFLgqy/p7j/pUZodEZb/zBFQ7rH6IfIhHxTsfkgkgm1qBo7xVqv3N8pZ3ti6+2uoZwTUGIfsG3s5w1YyX304/H2hZXtKVWM1w7sSj5xVFJlEmpDaNjP4Ed/SZTjUmuTiPSL6L+bo9UUzdX32hIOnRKwE38xfia6UIxW4qRJPwAEif2w9fCl9QS/8F04ssP4Fp8KZscHGH2w5mpxyPn/JKS4dN7ZgeN14Bl/l6NX+hIBWyicb0ZDgbIwinzSN/szvI04VZcgO6notr1Ca+D1bLaZZ8yhOqmyl0YaVbyANxEakohCbamAfWIhZd22PdtnWYJVrLfN6/kWyWpip+xKWplhkm+mcr2t4W52YcAzJ9Zy95Uou0e7HSx+PzWSpCDHfQdysMgq/+gnydrnKvxrlfD7VfZJmn9aouZ2bNucH2A3ai+7+Md2FEkuj/k02LOBLWWyQyCektO+ubekPyHx+cWodJODaX6kVbby/ra6elI7Jz5UOVE7hbrrwEpHMGHrm8pftLtEZidiQG/wrwoK8KJX8Mb964FSiSziNW9lCEY8pxQSzZd4KGmOAkKo19FniQGCRwPDecGCUQMSvWrQLxUtFK0/aBiR+ldndgkU4/W9sbGgg+D51zF0Ndo0ODVW5HNPh4UNYTyOuo+G+DbVDRuPOnfOMDXsS4/lWe5tb1m0yg7NplBVwf/0A9bDgqDI2JwZz1shLJe9dWeAapT8GnJE8cjFOkt5qJqiGexZ/LBFyvZnDLvgI1si+kneItPC7dUX/dCBrNiDvF3GIVb8elyiO127RGP1nFIlWvAKrna4TPtFaZc/TiCc7O795QDgebp08qSQaCFuGXFG/IOfnEfSWksaoHlNr/gXpX3d9zusSFzZM3/95qHqE2pGpWBR/Bg/qH7xO7qF8wMgZhP2vWOkgqfo7R2etkbJAAk//+rSQAKVZG/zQAdUovgdCw4Mg3xZpV9Lmei+gzbQuvMKTHPRKW0soaExbzrmpl6thvJaNdImz0bdLBrA8dSBiSRLofsqUXZ8CchmrSfemVf2B7yjiO7sif1e8kT4eGcI1STBsMB4GLlfv3L6LO9ZX6WtBfZX5LGWTnVJkfWYUMdmN+iW02K5gZyvL9QkRGm0Z+iXLaArtEtvVlOYM4G/V8vgiA6I1yCGc5PYwuIOziovutHRoU3sgV6Ca4SidgY4jW2ZthW3y3GDPl9xiv7YBBdUPquZv28AhIfZQKiLYrT74kI+ojXszRw/FcKrqIbXQmH2zrwtbxK4LEugKanw8qeME4hA0B/hm7+OBYeXq3+RZEMVQwVn5Eo/m8MRiBZJUFCf4mOWMoSSE2jtITN67yVUu9q3OUe80PJ2tkkAb/kAD9sAXwAJB5vzQ+BfnOzDN4DpBVHenqeqVhrSZ2YVIOo12C5rLqTsAxZWVZileCHRCGp77NKikIS1xUh/ZsHcSBMkm3eBAPXqcEF25qi7mPnLUia6GAE3qmq5nABhkuG8mtsc25eH7FT1M908JG/wltT/Jx20T3RTtEt7VpeCeg5z702DX65RF6nfo8fyDnUwOpeZREfqHI8v4nMvJC6D6HUV8syK1DRHscdUX/4umFOhz7GjrzDYSYBEfSmRTXitc6OdftWbY0d+WM8/JUsxE0hsM9nqk97acuxgfLiWzBONGp/c3wH3s6ACyf+VkSBnqR9owQ3sXTs9CG8SXDvQHfhGe1hIjgXdJ/cg4t3b3oYFHvJBy8BDaxoPHjwUfpXZ5oxedvtI3VCTocGbDYJdU1jG3BZrzUL9qdJvb+RImT9f/yV9VAJSVaE9nZ1MAAADrBQAAAAAA9T4AAAwAAAByAuV8Gf9C/0L/Qv9C/0L/Qv9C/0L/c/8R/7vn/3r8QnI2lScvPmNMoI+j7X+4+oLqTG2DExBL0bkoUlnjIQ4K/oGlfyiQyBjHTHzC0n9VfZxHafoWaK2kkhRXdcM1Qx1/V7S/i8o/TE2Blu8qRnyIdKTqoElGfXSSsOsQMewFtgvUEIUIenEovrCUc0C4aM0svHBcu2C2+f7rcvkEHspm+l4q7ODP+zD/oYUQjimcEuTBLffFKn8zUa0IYR8Xhzl7WPcJajvDp/FN8yXXk2EjxmYyPbBlJs0C+LJpAM5MS9op0TbOLmr68hsaQSLvxZeDKfkOtZNDva/D/slR5OzrdVkFcl00mTNn9gKgRb10qGzghJivKNt1cR/xN8sBI6maQ00eZ3GFffccB5lrniMtWpriamX7Iw0x271JIWf1VqEwmMxOp6sJeWavGuwHBCv/9sm221JJv6SbD/rb8n/8AAHJMkU9ezHflRWB2rbGrLn0rkvxcb9GywTA9B4yobm6YLvQABD4cd5DZmMGkzRB2dGdpbO7G2hdQkOWHTva+dP9mBdhF2b2A2zrkWeRGs/y6fDg1TBW+vSFQ8oIJYtNsxsvF2y+g7Y3IKL0SoWS0QzjG3ziw6PuKjv/PnV8CV6ivK0QmQK7lEvwVlMUOFSyNpMbBCtcO7YUsutl4blvalq6MEjhYL7w6QCYzFZg6d2HLq07ZO5mAIt8BKE6ZBx4IQRv9/Gj3ubY1KClNI3EdllZ0RRJQTaBCMZi7XmlOVyskGQYSGhikDEcg+TNVov/frgrF/KC7Wt9M+qrNZCE/XOUjng9x2WMpu3da6h9086HNOd4OI4lDlZYxQPBfoLi2M/S65zKotc8WQNwi5qnZIIjkJ2kJAkktom3b6BVtAD8QYdnLBtIFg0GczSkA8svBBOQgG2Ghf8Y9WN4cI4/u4/GUVhdxjhu7oMnhCblGBfiHae2WXBn6SB3jIVMEBo3HQTo0Il5HTXlc2eki7B1k3euu6SUzrMvgee4yCHzGsz93dAwPUgngmdC5Pkf4ZJJkxQb8Fzbi98inEc724ICBzI6qwMndgTX31m3/m/r+rX1zWiQR+bzo6V+p9cqskZNxDuJL7RCEY3ZRL302Yt/9j6RilHDICAMJhFtw96GJ3sp6wFDFvCgdHF7tdLYTcqKsl9u1o7VbjYrCRS/BQ7/CTNuXkYilEonW6KllZ0YiOHktKss4ITSUtxWrwCVDBd1EcwP0xy37Ve6A04igAZY33QqEhVYdjJ9Nkf1enURY1kuPh/SJRyFZTBe4xDHjtTWm3b+3YAD8naT8G0rQVa/Jkr8U7mmITM/pfJrJt2DNunWl/6yA0BweekHE5/G+j+rdXmWjlPv+bs11hE8T/QBD+/Rwdwp89A3LJoo9uRb0cUi/zTu6kWe0wsKVAm7JF/mwdfRFMs0a/tw8HN1RK/ZwGftZpI7vyVGXVD3H8wtXAy2h9EP/2cdKad3drpfMEBEcL2QLCMOzpFq1M/z4+ZZJ4czpl47HWEFcBRkh4w5cTjhJI0bTZjkDU1xy/JZOhwxhBld4WR13Wu9tSRDHeihAEiq6/kj1Qz7FD7W6AhwUbns5eLJQPtQKEGbmQ87iKJRNkbQ1KE4SMWKUDSr5ZxI22yuW84cq0UnG10hUoV4UXkdeB10DalrC12GlhulXIUKDf7SUaS1rcViSWw1R6AcyyEPAPj/oILXAooXE3vAmGJsMW4SZJCZGyW9iSQLfr1S+T/80rgRf7fXQ7XXRVHjUGzVbwi1i9xIKTyyPE+vbVk4I79YXtU74jeDhTx5TIGduQ3ThQj17r+G9F8CXhYpTNvduI5A8V2CJMrA4dipLT7CZBp4it3ka5fE9jDfWbq8BPlxMI3ix3KxBN1bYWFNVRfAFWKZhLvtxNVFPLkgGTHimfLMKkusYFe3DN34hUev/X+Zcwfy750UrX14PIboX0r73XiOWIvaYZ8HoV4O25y8EsbJBc+9e2Do/iZb8Wzfk4SApwRH76M0wTYM7MYz9fdBmOlh2LYP+0fk4wjoe8kcZw+PRD6dUg22oHfkc5NNfuaWFqtxSiPMED15c/5N+QF1O9xzsb4+gmSKgm0y4+5cRtzf9/E1Fc99ISjdmQzyn4gabawOHyKx+tsPtymx+Dy3U7W2/5AEpJCUpAFWrf122OP8QfAAd9/KfAo/zTlqU9zNKaSV/MbxSe7OS/NEvB+lp5h+ZX4zIdzNeic1/fm5dMsG1XvSoT2b3wOk9wwYTOzOytfbQyoBaV/Zs18RO5e9I3yx4u2GoBa2UOwluZzKZsST5UduNc8BdRX7+O3/p9RBtRwD2GJVrisrpxSq6Qi87IYMDmT/ATNNiNLteHPl/tANSQza4E1GuKs/vgef33kXjQDpJLvM7LOz4KC6s/HpK5RFsoKjEuEpcicjcmRwx75EiLOKBo/71Ao9NgO7oC3kzNBsWhx7J1vpTReN3saS2WFW8SFDAxe4dPzpx+iWu9NN5zB1xJfIG1vgmuiFmEdPcZDejFQLkKulu3n2a8nZ/SXVOem5SkJeOL64VzGPeU8HJjXnwzWPtLPlLeZN6SVffKbgG7f22/9pNmybf+gbABv8W2Llbr30oeC6yDrVLz2Uv/zIZH16BHlHd9yk5xegLDpY0cFZmtcgcokiEq0F/6D24fQKd9slyCoes2LodsAspsnnK164eJ44LBhc2FOSvZBCnj3EoDYoH7dgfeKZ06dYpSzgvLxXrQ1pDmYdwbfshbJLpQPrJ12yFRsiuMjOEFEoELDl1PbpYy2aHEWfZUba2BY7K4pgLAYET3d8kKiQI5Efn/mRPgCaO8quwOQvaCNi7ROgg9tPqehXIysdmYps3fIwIirxIEkh3lyR4alEihWLqcw8PzOhnYJEl1CYwLB6+XfzJxsNHW7KUgFyOoLsw61U5uEeUhhNhEJ3LlWZtZ8nLPxiuSvkS1lneRYgHObKkVKawPORH4u5IN2KINjiyhZlf/THYWubypES7+C7vHMdu38m1sDYkACUqD62ASr8W1jhGTMnRp0nb6KoqTIvrBUBdtA2PM5Kh/iXtMohwsBPQe0xY1Z4EDI2CgNjM+zO9NKsJZ3HhPVHn3qRmAueldIvpvut6bir4O7vSNPbunIRmmnXMjsuhqbk0ySZJEJ04O+cuvEjutzBRfNN+G+j5rfA2LHcdWSsb8Gbo3eiWoTtauHLX45u4u/LMHMxHg1yR1Y4mIOlXekdVKgZV0woYMonn7nQrP+B/I4VMYQan+5K3lTZitWSM0zDdqyQjIxmkaHnf45VeRaFm45dgCcfF8I+7I7pYFWorS3i9AnHzvnsz+tDwqsoQtkIhJ+v6uo8FRA5/PsVBVkl1LXxb3Es5jA/CRBgHV8kj+5BA8FRgGnHT7LEkZTTNYZL5T0+hmBMNiEmVxzzdG56uRKZV4L/t1h2//tbAkAS2J//WlStWT/8f7ycZRtsnW3Df8vbbADPUP9xQwhOy14aqz+TFCd6ITt7kK/4XwH6y+KT7za+ZPpE2oesaa041JM+C2axOjnAYdBx5JY+lqZR6RLz+0LacTrwCnARPWvNSOyotvzNDG4YzFF6rT+ru8o/74PsuCXvQ0yMn8PyBAdONm+p6pWK3Rh8sU26gcrEgf0Pmge3T9JYGjt07/paVwDMRdDJClCvSjUTJEMqqp1PWwRwxub1bkZgFxD1EDdMpVSvycPxic//2p+nUbCFcgJ/z8AP+gmzcvfqn3H0n4cp9DMLBINoTvMiTn8emTjtK0aPDsqGSqtGAJp4bVlvddsYE1S7t2DscOcHm4w9/olmbzjNM5uS41fJnOL5mMXZsZ68QeRK/JdPO4FsHu+b7SiLRmvivy7TFX5i++1RZth2+Om88YsHz7Ko4rTwC/4kh8iA/t0GlcenYpEhNqOhR9x99uaz7wvtgbH+7qmYC0mST+iZERmX0kv1/JSk6YmP1Q+b4DxhkOoHBH8hMBM4/P42xUIFI5MR8ToLxghKZX4TLjYOMrxvKU1fp+noHrcs9oyJ9eg1VHhj7rKPRFaShADnGJ6vzvQq80WHRM1HwO/4Ws1ffKpf/tyVeDNNA5iMu2PnyUux+m00BKfcENrzCw9MfIs6bsihNawhNtY2WIijQuiwe4nfk07lSg5TM6l04nsy8/AZ9ocUlGnN7SLtYKcUO3GCvRg86643CwMu7Pxw8aX6WcQN2HWHXINnt7iE7TlR4eRCgFt3BoG9r4W+yMVggW7gmEzPRhH6E3b3BKLZqa3gv5jZR4WdIEPJVp3kjbc5KIv+keResitzgEy23+T+lQBsG3qC+sX8f+9IdGQf4C5ZQRf124R0VAQZBtr8+G/PWX+GjRHwj1NmAf5E/Jwvgr2kHT4yf6i+IUb5UP/2zAcupafQuULN9sOK4m/qGNS7UMimzmqNwjSwrQyhO0002PCHRgYCR0GZ0758UU77vb3U097+kQ+chlf2E0Sv2D9+IYlrQchhiRMMcURpkQwm1KKSnZCdhyyKLcCZxgoaPMDjyVp6U2nCiGwAmUnWVsKf0649Mhfyyo3nVzHnR8HRaviwVZgNO/IEo1r+A1x2fP5Hg/lzMrS9gWLD2RSM407kmrXw26ZSnCzucx/kB1dvW1q9GQrB3KzCDqxOtXDszonp4OwmCT64v/Sn11MzooDZOX96QxhKjYZj6H6xo+0sJ/Shn+dg0h+U8fDUk83LaowUaJVLhq53IoRNaFAlZfq4zNzf+dQtiNA9JNJ+k3Y4yAMSQqlq8jIHBYV2GNNlh6eHqms5ycYaQwz78x1FtIKGacskLlsPci0g4/5Sfud7fModMUjED5yk7KFTfOHy9tFskWzrIhNaNOUuWt7tv2Hcv0E2puh+gigePd9lcp86lZo2QG3+Rsn+RuT8D939tZEq/G/WzrxWWvd/amjlDzpXkjf+g9EAhWG13Slfu9GvyEQB9JPD+E9xY7cO0qqGIb9adiAYrQ1qS5/usYPVnKB77OFcLuTalYQM50/TIgRAp3YINdM3C/feY7uxYIjO2U7hDc3BK3p9VZVcBFqoE29BxkMvphMOIyxoOYLAo2ct+95sC6dNEVOIpIRVMcbmZ0d621rHQqlNPtc7O8rsrw2ZzIaxCpNoS2S9GdcIvvEn8iSacsuJC0ZhalF4vpvm9mHRW+GAr9wa+QRyhmGmqchZiCXcMZSoUv9Y/LzPEm/2wKJ2CqUFD/AK/H/3CkfcfpcIjqcfo3BpKI4phyjI89wX/fPvjQLiPAGSyUuMCu4wRTU/eYA0Xmsr6AjQ/1wO3p6VlgPS+gbglUPmTskZC05Bj4NXascFOZdboJYA0l9fn6Rhdn/f4ofNfde6DSnxqIDGmhK2g6ChOv05x6/34DkSglYIkarOSZ3HWPSaJBgHcDDemjLwSjXoJbc0IwVYYuNxgj4V+4RPFRIycv8imLG2DamiB3veNo/3yv6+i2hi9QKdRsslAHbCaS5aVDrLXbQhnWH+1KFyfCMOFlfndjXt0ywsXd/Gcfd5eXRdOBlcK6NrFJKeQonW/C+XguI0X5a7SFWy3LHQvjpMH3JwmjSVPpqBLiqn6CMrUVel+NTsiGhrzknoKXTJQbcBF2pkCtMQPTh3MIRzOvEg8k6Jbf3kdGfYqhyrQ5cDp3I4X24ZqZOhhJKZCFI1DOAfABuGGQ2wSucBsieMlyXvuZBQtOD5iYGAJLQNpNhECl22pulk/b9PZ2dTAACAHwYAAAAAAPU+AAANAAAAAKTQwxz/hf+o/wv/D/8N/w7/Ff9C/0L/Qv9C/0L/Qv9C/H/fB3sESCbPsl360M/dILoUNd38he2OkbMSyL19AZp0P0yKegcWY/PmEKU1s1bKdOsBZ2KJZlU3fsZg9jHV2VMNYESI3X+gKCJ7YIftQcYlWO0Dp8OHefVYU4EeR64jQLeKDE88uBm2hUOG4IrqOTopU3CAblsX1QVUgh3ml97O5LA0iZ4p1Vs7Uey9mnY+Pr0SlaZpKmv8471o3bLHnSumf5xHj404ozQsB9RX7knU2RkRYU0I6o+4mWosZpkoB9JF5EPghUEAJEqfXkR/4FifQIdwEOifZ/i9WE5L/LnaTlhW2JP8ggr7enJ6UVoIdKb7wJIrRWCYuUw6zjuN+qGV+jO0O834MH+xfBu3HZgBdsaepkFlRG1hz9k2bEsv8LArYfbo/KUYxvd2SFd9442hXEphOyRVvLtAJeZXWdIgt0lWc978Cdvu+oG+dvf8iWNhziTRQGRjHacPi6TVgE8RqEUK0OWXtQuEdvj2FoVQjze0PSM9iW//220tgAAFk2Wlqvxy0KFzpWrkeUaG1peIuTHg9heLnVzIboHDtQMERCzdznUHGT7va2zv3VmlWebYKQunRQGfqHXOxXUuGAEfpV8pdrYGbXW5b6zRQoSIO/L6tz2ghw8zOtrHFM5xJ9W4pLXgTjhLnXrBXD8cYHQ0uJDinSbKPsEde5g/ey4wK/HIcnKNWmibkPgrDVB0rcmg4fikh027zO8GFmnOODrA2bC1ZzgAZxokJ2QbwXguwLkfepseNiA/awLibvZfxX6+cGuZwDGfNWvp+dwLWsHM3VRoC3jurZik/DvqxUBWrHDpyugq6r4tL9yx+EjgSLtLN8t0pcZiklI5o5zTiJZVH51+nLxNIiR/bRnoZWAOJYm2RMudSW/4MVAclCy0aZNwU3fv4/V16/PpJjCs7CRoj30xL+dKLp8V8OFE+uOaKPXaDVg1qxrxLcOuZmyv+IKcCaev9MLbYMPQKs1M7Otz9lWYKZdKM/Vlqxd6Nb4rwugrVmZNih+6OrSYHSMQENZJ8icG7tztFD/CgWJrKQDM8ZsYy0V8IwZg3RIAAG220pGyWwP2/JCvVfxe3jF6BKhQUB0jpt80NmLA2+tcWNeWTiZFkuxXVJo/tQJaqoKiB/sDg2jz7c7/aKHFW7JYA/OH/WRijwehvLOXutCN4UNUjxK28FpYdXeJde1B8jlszIl3imjHCfPLNfuBHpy4UY6qeGI2rj4yDDAK4HJIn5EELjeMZ9HmiEHrVHEiJMewz5jZjxaOzz3LCIJyLRNdP4+0xHEmW6OAkiXL476+DHdnen8BfB5cA3aSRt9PAuURnYFl/xJUDRJMVrjOSoT/nPnm6NnQcn+f0xJsaG+vJ/15TAJwPM8WtchKFb6d7iCasCTydKQOYmyE38x0BHohi9vZ3VjB8HqUJk///tkJVf/6qg9f/FtkyVXVpnQYyoauNAjWLRwEN97R7BLOY2NqSYCAeYzyVaYqldU0EJP6MBPM+HcZo1AMj2/e7D9uXS9TwwTcQvuoiYpDmZq8EGRaffQ0NOyeJYcPh4dsBl3QoAtMugmPYdiTwcGKMtSqPLDMDK4KOmEwjdLmMRRcY693OFGREeZct/nKO1VLLV/ka9XnzLLzpXnJuGOu6RprR3V5GBhCrmTWBBIHw4lozYhPflj6eEaS9OktcDAr1OpOo8HyhIPpsx6sBFfkKO1aAY574UQBYGWo8yJ73R81W9vX3OdT4F2ubryf79iPmz3tZJbFXkiJl+kg5R0PRH2xefhRM6mhE2kE/2tkA/S2UKUPVQCl/F7eLEQE0MdAMmteANV5bc+QSHxJx5NgXgPCoWzl7glfs9DzGzTt6jc868D9wsRDY5NJ+nSat44Jw5XhweTOeSg9Z+WJRYIygIUIbD7mduwzLJeuTsuT/c52zqBxlErf9ubrTzw+kdJ/wD39TATkNxRAq9JuO8RqBDY8fSCWSzLrvu/IGbfU/vU+xGz6Jr1IJDnUDhXxyfo6eN5wo4EM46dsUwSfwzfnRNP3uvCgGZxeyjTK5bBHE9gXrJ/5aqiZtWDcmQWplpUpVOxhF2YX4B0bUSpv0kd6mJZ26lADR1dENqBkhfMMQ6k3EV0UlpBLwqqT13wvRz3eNoOEMiuEN/27fyUkmwUABVCl9fxTwe02VtRQJqRlX06PdIR2Sggsmkk5DtVrO0XP2ZMG/DZXZYi2lCcUwCW48ANbiw/Giygq56v0110uEUA4diby6CYLkiGYdgvxYSuq0m+26SRbbKdvr2V6GSQ6Jr7NyBPPVlOXxIrpk1coxvrcMk71YHUVHpG3UM2wi+TrT3WHNJk8Xv8DFJYZVDF7pDqlPaOWxSu3gT8a4XgUif7l62qRSVjABNr5DXNv9NrGxLDSRPOZcVx/gxRpi1Zy8M5Vz3hwVSJkCeHY3CbH8bFo61t+ZFUqUCtABSdWd6Vi8IHXF0ooGWPMuzBQinBpMbP9lXF0D0wcpCyRgPqe5wCQE497JtSA/k/S/wX1X1D5/FOqgoWjZufRgEFdOVkqy3ONGSkyvJ1+vJa2Sa9e1sfla9eK083mIcChHBc91LO4wLXUN5UgUnC7efW1/AvcXJGw52Fzm/dvaZfSahKmtDc2ffSvYOQrLALdmaSEXX3INd0csV1cx2Edwxt2ZbUMwaoarzfQ5zcoDraSqYHFxNfnb9Ihg6/4fhxcXD0CUpj4ViF/HJW/9H69fXZsB896oGnoEOu38KkgJAqCmaeljNC1CcslSUmlOauy5aX00Jcm6nfH6Szm6RTetmDuQsx1s54dZycN+LvS3KV7FYXzJJYZhH7tMqUqNYfxe0enN3N16XKqsyWCLjydR7IIHRzspAZMLXuwA012JAJtAkA/pVAFUFBR/FOT0Rl94zqr5wNx5RoTmTQLYGSPXc55hNrRdeD3Lfmr1A/x+HqgUR/tWSEiQZ6LysvcjCPlz82XdTuZptbHLCbusYSzx+aCIQ/ctx1XFJcPkl1NfatI2tGeRASYlaO3uezA5qURy7N2D19G1BChKecVB6JjBz3WlwZMYK7QaXD+WiDfydOoGKlniOrkS+rApLKJXZgJViU+9TiqV9oARG2yTNa5ChVGNr8Jtzj155ebnIrna4O7RHsy8JKm2rtfNIHaEsAAklViL/hocbLR4P8udyTTz0dPwIVYElmSb+6bR1f/FsIFJVBuI1OA0Qh7lmq5ffXJ8uaf6Z+mnndhIlxjFJEaE57qr0CG5ezpv3YXE/HPUrtMyc9CT07cdJRUe0r37jQDgGVarKbiAqdT09T/6vZn/8m0BtImlUAPUK8F/FtY5XLNgoDbzm7DZyKYIaB9oyCDIw6qJmQpF0NRytRU/tf21ZNjlE6Amee0VFcY5woNnFRS/CJkXF6Kv7nFthQrEMSPjlLQVnkGHD8eY1j+C97AiKV0STtW3TZ6GmAE/ulKxc06rezG6Kw8valzixWVs6EyyaRThb/ZYgNMbHNqCm79Lo0Q0QXHeieT5EyYazWQ7XygL8PRuYtXpc8laZGHL5prc/r52QP3dCCRGorKvG80kailwoyaj+JQFLIWOd7/d55Ivr5ZmJL0/Gi4asNl7yzMoscl60W7cGLZZjWRdc1wTyehYK2RJH3QluQD5S3HCBMyI93mZ+qihS3csL3BR/Fpk5r1Qnfs/98pwZJm/z/y5CohqOuFK6iIhxUJgjFAfCfVkkGy0uJraJmhe7xkKvDMn9JJsmST1VtVBfqv/FtkyAwR0y/NU+ANaL7ehKZkKP3QS9TQ+iuRvtm2JVaedqnl5i53D+fvSHRuAGi23K5rFWn9QS5ela+lgRzKJIaD6gzQKLEhqdlkDjWVkW9r12rCUINGG480D85KCmuH3wcPeRi/DrnbsJ3HH5vD13GTxx4e2/5goGz2ekqf6hWpIQ2U4MmkRz1iq5oNSiog++6z2k2dnN+cZcZWIbDFk1XNnf2E6RJQ/GRffflS9tiAA/oo8QT2z/L2r3Osm++eH1pgevl1keYcvrnLIeuWcPWE5HY2aHB8MFL/CJds2pfvz4dF5hzb14YHQRgXKV06ZVoleP7CwhBTW2NZQcqKc1WgKluqeCcKtJKHn3gldrMQAZko5dQEpE646H6S63Oivlj2Bh9JD1WhhBSDtl2orgaWtHjMmTYBIABsKDZVqlX5/GE8SEqyhZvyuSaq55BB9QI1eRpo/3mx/4vyakf6iN8ILzbdqy73M2Z8GQ3teP6i3qh5ZVOSmqR1w6Ga0J2zPHXawrd4OLVGO0PlrHEi6edcz6b1ETq4GQ1qJ/WkFu3Khq6nXnYAGCoDXuPdp+BJTLPLvyaJ35W1RkkYaKCx+g4vyDfwufH+q7LVIqJCWltTBOmgIY46USUC0uQvdqASgJjOQVaJw/PypceTpladfM8LcDHOkJNFXWnorCYAVNoywgZyNxUzrJZ9Or+V0871U07B42NF239MVFnikOvX+WbCEosDMf7ZbYyVBJDJU5OC+2bG0TzEmGSM7RqP2MG66C6fEZVPmflhiv2V1+Oe+UH7B4hasZBPu3oGYdNBqcPA/AH76q473EocSCvqG8Vfgr+e2URtbJktk/AAF/pv1tD//GHB8wdr+Uc/syCKGrrboNnmKQYQnf478tRFCHuSEcf2YyiUejKD+c85S7fx6DFHz6kI+YYrlQLvhNBsjXVaUYgkfIOZoQK/n7nxVxsf1pWNtscE6zva4UfqSdRZQcwmwGL0frXRJYniQc8hlpD/XGFYDwrQyxhcnudV80/nqoVwrrpHCaX5MKfUmPlW8MvnSU6Gmih8lnFE78/4KzGhEjP0UTYyqK5AOT2/m6PYIT8Qyf5nTSsQGFIGl0hAn+1raWqHmfGor1EH6Ib9WnQgApk195GUEpiE2Q1x+gbRhOGgRNTJ/PC43OMCgRlkTfmMvlCaDzHefB10IpsA1YXJj01M5meY5UpsvjJX5G41YdpE2h/kn8lK6nlV6r9J+XTY3NPngI9haXcmnOypjRYiY+w9ElVdv5Cf9trf/1BKSqoF/GHB8/X7Wju8GqR9Qg8l62Sr9DvVgGpAO0UHQY4r3xVVY8mNs44JSFqOGmSdYq5EEnm9URm8Yx32LSKm9Cw13I/hLG7GdNgpne267Hlk318vqbn5zRYXrs6O5eDlzo0SXnB44th6TgNAOXI9ZPhNQyKABzA9Ve9+ToIiv4f66DHMbbRoo0eb/35RZJ5V1QPBnN1pcl0dEb24AiV3DiM8ygPllEj5KxzWA77JEF1SkPTe6dW7P/o9U4sFV18qx0CEVmqB70JQ3lS+gNyJi0RyQrQ3K2T6IyZ1ay0Yr3GN6LqE7NfEi0K5hopl8knR0E6MAmD1UVlKUNn71RW8li9AggFTKN8qi9LZeP/tQcjHbH+vTR5Ad55lqr2Ea4VCe9LHJKDfmhTlKJrd5Mm65HCsTRt7h+621IkDb8lsK9JbW6///F7e2W54g85m6mb7LUCy1v0dDK0rk3Jewnod3dgIBojvPXHsNHpje7cze4GtHYWSajYyr6Kb2JshiLWqkIY71hr9XMn0m2SqavDBQ0GclLAyrctz5ye0VtRqMtJSjJAV/955g37ycV6aemlhJMdfch1Fy105GJxACWfz+QzhVX8ts2ma1f48q8y4Z+qLTCyELjFa5mDHmRhY8KCZb1D1riPKYOh8Z3NvOIReVjfa8dFrNe7R1X0ANZRCm23nusGUOTI123D0Nrl6tqNLrviIZj7/QckQmaJtAXyujsNqVrXTK64twfrivmaf8qISCbv6/YR4oZJetTiIl0X3gVQodXgThcgcRJJqJHutm4YhGfvVvOSghvzIRW2G160GUnQIelfx4I6M6M7yney3NtbX94uI9ASbb/AtkbbVZFWqzAXwT2dnUwAAQFAGAAAAAAD1PgAADgAAAILWC9Ma/0L/Qv9C/0L/Qv9C/0L/fv8I/5P/Ef9j/xX8br06/LV4DwBZpbJusbslcTS3CAGvVhOp9gTCD1Ctxhjtdl7+QvozAiL0n5Cn51sV58BNa5I6inKc/dni8od1rWg,,,,,,,,,,,,,,,,
