success,timeout,failed_images,failed_audio,failed_video,trial_type,trial_index,time_elapsed,internal_node_id,subject,audio_id,rt,device_id,view_history,stimulus,response,estimated_stimulus_onset
TRUE,FALSE,[],[],[],preload,0,20539,0.0-0.0,wnbqfuh4t0qtxv4,wnbqfuh4t0qtxv4-2024-03-20-17-04-32,,,,,,
TRUE,,,,,fullscreen,1,27528,0.0-1.0,wnbqfuh4t0qtxv4,wnbqfuh4t0qtxv4-2024-03-20-17-04-32,5983,,,,,
,,,,,initialize-microphone,2,40813,0.0-2.0,wnbqfuh4t0qtxv4,wnbqfuh4t0qtxv4-2024-03-20-17-04-32,,e6559ac47950e0515b74430716f1162f132f1564ddf8830602efed8565b926c4,,,,
,,,,,instructions,3,52958,0.0-3.0,wnbqfuh4t0qtxv4,wnbqfuh4t0qtxv4-2024-03-20-17-04-32,12142,,"[{""page_index"":0,""viewing_time"":3314},{""page_index"":1,""viewing_time"":8826}]",,,
,,,,,image-button-response,4,57468,0.0-4.0-0.0,wnbqfuh4t0qtxv4,wnbqfuh4t0qtxv4-2024-03-20-17-04-32,null,,,images/instructions/movie_1.png,null,
,,,,,image-button-response,5,60171,0.0-4.0-1.0,wnbqfuh4t0qtxv4,wnbqfuh4t0qtxv4-2024-03-20-17-04-32,null,,,images/instructions/movie_1.png,null,
,,,,,image-button-response,6,61975,0.0-4.0-2.0,wnbqfuh4t0qtxv4,wnbqfuh4t0qtxv4-2024-03-20-17-04-32,null,,,[],null,
,,,,,image-button-response,7,66481,0.0-4.0-0.1,wnbqfuh4t0qtxv4,wnbqfuh4t0qtxv4-2024-03-20-17-04-32,null,,,images/instructions/movie_2.png,null,
,,,,,image-button-response,8,67790,0.0-4.0-1.1,wnbqfuh4t0qtxv4,wnbqfuh4t0qtxv4-2024-03-20-17-04-32,1303,,,images/instructions/movie_2.png,0,
,,,,,image-button-response,9,69599,0.0-4.0-2.1,wnbqfuh4t0qtxv4,wnbqfuh4t0qtxv4-2024-03-20-17-04-32,null,,,[],null,
,,,,,image-button-response,10,74106,0.0-4.0-0.2,wnbqfuh4t0qtxv4,wnbqfuh4t0qtxv4-2024-03-20-17-04-32,null,,,images/instructions/movie_3.png,null,
,,,,,image-button-response,11,75512,0.0-4.0-1.2,wnbqfuh4t0qtxv4,wnbqfuh4t0qtxv4-2024-03-20-17-04-32,1399,,,images/instructions/movie_3.png,0,
,,,,,image-button-response,12,77320,0.0-4.0-2.2,wnbqfuh4t0qtxv4,wnbqfuh4t0qtxv4-2024-03-20-17-04-32,null,,,[],null,
,,,,,image-button-response,13,81828,0.0-4.0-0.3,wnbqfuh4t0qtxv4,wnbqfuh4t0qtxv4-2024-03-20-17-04-32,null,,,images/instructions/movie_4.png,null,
,,,,,image-button-response,14,82911,0.0-4.0-1.3,wnbqfuh4t0qtxv4,wnbqfuh4t0qtxv4-2024-03-20-17-04-32,1079,,,images/instructions/movie_4.png,0,
,,,,,image-button-response,15,84717,0.0-4.0-2.3,wnbqfuh4t0qtxv4,wnbqfuh4t0qtxv4-2024-03-20-17-04-32,null,,,[],null,
,,,,,instructions,16,95365,0.0-5.0,wnbqfuh4t0qtxv4,wnbqfuh4t0qtxv4-2024-03-20-17-04-32,10646,,"[{""page_index"":0,""viewing_time"":8975},{""page_index"":1,""viewing_time"":1670}]",,,
,,,,,html-audio-response,17,126243,0.0-6.0,wnbqfuh4t0qtxv4,wnbqfuh4t0qtxv4-2024-03-20-17-04-32,12283,,,"<span style=""color: red; font-size: 24px""> NOW RECORDING</span>
        <p>Please say out loud the list of the actions you saw. The actions can be said in any order.</p>",GkXfo59ChoEBQveBAULygQRC84EIQoKEd2VibUKHgQRChYECGFOAZwH/////////FUmpZpkq17GDD0JATYCGQ2hyb21lV0GGQ2hyb21lFlSua7+uvdeBAXPFh5gF0aNUJGmDgQKGhkFfT1BVU2Oik09wdXNIZWFkAQEAAIC7AAAAAADhjbWERzuAAJ+BAWJkgSAfQ7Z1Af/////////ngQCjRFCBAACA+4P9Pf4LfYhACBzF0dzOydcB013zoPmTzMjzQJOyflZUoD8cOraqyoBvODXZbeT9zqIzQM+ZORm2LG1aQgg9bRuTRjguLe2LlE/gsGp8ClEUqZjQNjgmSbCzQyABfk+OgyOSxOTawB4CKNbetKWttF2tzSfmDP+7o0EZYCut0NCSwins2nUZdUfM9u+QciP+8zUC2J8Y56zZqn5+esjIi+rs+aRLNJBJ1nvsQu92Tia9fqWYpi4qtLCzhfragdeMLW4BmO1+kShDhKpwllkeocqEoaUdncqMxdC6ZEB0huLnB/UDwP0+bJGE1La7CjNYqoPm10P/cKGjfbwAAAAAAAAAAAAAAACeZljF6onA++cLH5cnYz5Cyer1S4w6JYk3mrHAc5p00/OW8rI3EQ0YvkGDm3xmpaYliEtmyi/PAHloMLk5QcKhSzR9ozAebdHvwjEN8Kom7AiZQKoNXhxUyBIbVP6eEZHz8PJhlGvl3DYMFf3s3127+qjWI96emH6Mzqz84GIuxvcjZC/CabjEryMoel1mPpUcB4HMvK5PF1nQqLoLF6/jtHmn5+g+CyvTujdvlCXfWgJg5z/uufNxfUQ+j8b6ApML0DTCnPw8uiKizwtdsGVjrrojrmkquiQcnJc39FE6kJS0TI7pVWlkLCV4TRTtClxZtUoHFrUgJk7RovhKOflKQp6YlyNpoTboYxwLk05Aa8bulhygQ2uB16xac8XDJdEI225SOrEFscE7yGdfsp2kJH3gE+JA4aOQ59I2Fr9zJYAoV7MdrSfnRfuoKGEfWyrgJsjwDUrrgpXN8tHeyrJui4g+6x2wnxh0m1FKqy4+db4vHl/OwrYbOuv/6v6a0WZb5IGbSNCvI3MthvqPcOACk8dlyEMDAR5dumSo31c6rCxfweLNagLka/tPnhBCw8Z+7aEHN7PIaBDGJTQOdro7peOAWAEzpOjhda8+ZMDByvWANCuElfeaF6erRnvOclY9kFy3comT8/gzgG8UCbValn7ILippatlvk/8NRnP0zmHoEFEpvo/kg3ldBgqeNPcj0THe7WkqFvgWUgIuDR3tQOep8ne0n5gtfzliAV6Ts47i9XqQf+Jaah0cLeUzJm4dR5ZSARPo/aZhU2CoAdJj1qPwsvqpE8cpKIFCyUWi5UWgZETMTVhalJza74MNOQQxrkjLlGgKThjKEAmUDBi26dZBu0QgByUnaWg1AmrLQ/lcosW5A6lSSjwaug8cTGV5Zo2VDWFB0YYO3FkEjLeNNMd21aDLtjJcpgD4I80TPMtSuyNb/m1A513CEAT9N7bg3BURAsE45uVjORtTmVV4v29EYjrKZPJcEE62DU9pu2H7X5/s0PualVDtxOJDnrzUfo6ochsw8VbZ8bnMtNUmNsnaPEQ6vaHJzA9AzZNdN+63TQfBZxjB9RWIlcEpJLOePZB6CPbS+1m+epQ/mbKh0PEY7bajQ5WBAEWA+4P+DP4MWUXr/wd1zYOQ9PTzZLOja+R7trvlknQqJRpefQs3wT0O05xKodhXOzOv0QywSx0pwG0VMxc7+Wq7W3yQYfD4dXUzeX8T1gCXXUjAfcdPB7FefWmXcLVAsN4cHp15VS62LkEQYizaAUctgLYxTeg+2MXWcKiLukRiytszrNNzIzewcMg9yXzt5eXUri9OjgJ+A0lApkMwpR365j+jhx+bimbc+ukmmw/mlASpr8x/6VlmB2uQyGwWKRtoGgKJyMdvNcPFNpbt7Kw8m/0RODPAXgFuKqh4Lp0t/pNdgWm4/0/9ZAfEPQsd5ptgQchB7xRF+e8sdppLrOz613ANv3r7f3nhEcIC15TEYOCynKnKmemjrYq5qgz6Bi7ArQVM3Ws0yy7nJmjAFdTYX7hrKaJQhVG6jkHv/stgQzhQEgPkfTOq6wQucFwRVsx3u4aG/ke8YuWmNXBXN4s+/6eGTrodDweBJm+H1FB/V0Yacm5GnO7ITRR0FFDqbDRac2jCJrGE3ZPixcgX+i05uGJvrau+C9nj+RHI0AUTreF4PXz7My9g8COfhmLm6/Wm3sZAhcil3KM9Xc7GVdAX3UJqlEWPQ9h81zfooHaNe/B3HL7BdkZ6diAUVh14M8lg/+RvRyMZHGL+IQRQ3iZJ4MrbsAc3CCrRaJj32LoPCFQwtslSMk+3at2ZrqJLFKs6DOTVhpVOaDpJ4T7uVv2ujbQ/9eG/GNEl3tJBHIVifLDgUV36w3CGLXfgrDdTFqvdfQNZSYerfqj3ZdffzssfP3sApSwcuEsnl69W1muT7U2zBllpHZtKCD5dl80J6QvSC3dbMUrDtNc+YsM4oOhAiqXAtcZEv/tAngaEPTtRGGJGFLd/v1B1NciHK9j9IaEeTRq0SQ7HXv6vJwJQt6bfdKyetka6B27q9pJhjqJCLC/zAMABI2+qpi3kgKh9P1RfVhajH9BRpGj9gMMBEw7lyOmIVRzvdVRGuLc0VVgvh9zeKA0bsnwxTgazi3/ng0uj5winu8+o6Q/g4NPgjAajH3pEyRvRn1hZiFaDXS7jIPoXquLZqG1PXwUUlCsLpnIp8YlT6/OoaQFQojd2g2yty42XFIvwYxkXUOmyUU+Y6bZlsjyaiRNVm/tXkbgS2V/fnzhJ/RRj8HUys80PJdQyH4ydSwZ1GF9eaGEUoM1uljOqW1sHjE7hs2LKbIEpdao8q6NDloEAd4D7g/0M/wxZybgAGmFIxCGtfeK5p3HleqxtOWLZYt4rtYaeE/++fmVAs58qOE7wS0+f4CXl3PhK1ik9C64adrbCeZv8ItI8ulSffX8REqjYRH2/AF++kLXK2D8fkrBZt8xler63CZJYNjjZtnhpOrxIWJyId2S+0f5Pu2n3dWLVCLxLK1LaPt2ZaAowr+8FtIA0MuzsoWwYa++Ef1NjBZD58ayWTNNf6GWrLBWFISm+4WGDW6Pq4vJdxKgAK6UejJE6G39W/mDHD4NjPE+/o/jDo/Fh5P6EeUNFjMQbi68Vv+KkRXG/uEJOV6X7Dy6VOjpaLvFwdVJ58UsE/3bmgsoAF8ID+tsQebgXayiifT2wrqIsWYJzWhugz66peCRErXT8OHbLZFXA+o63b0zlLfffWEnaT/jjpWlQs0UiOvnYsU0G5OdT+KQoDVLcRLS9PKbkxTmddd0aMckXJ3X25PwjREwAmMsWoDZbatM8K9rqezAnBVz5Uuvf07WRug+wMjO6oL8YOnQKDm8WT3i/4pCpglXnU/QKAO5Y90bMscp8FHu1T37ST9CIuZ5ZXqDsHdGMjx5Ox7FQ280/uCi0gbL7yv+LLaIk/HUm426NOtm9lXcZ944Vzw3lK9UreXj7k70RM6GkWMt57RmMbsTJbRf1SzjWuImn1sSBzhIZl4vGgav/25K6pluKNmonF00AKF2URst9e2kaTkwvgVGjPJ3igMYgSMXWekFREGwQJFgN/1IsJOyVNvvAGdV33OwfqfGY8VS604wcA82+taIhThyifjXzq8iuF/Eu7R1NSZX0116abehzHNv0prkVKIUhws3vjcKHKtenszAV+xfZRklVqTESZNmsl0qkmFhAFhExrhI3TEtU3taXqNJv3XyYNFhprrzrZd4ERfUaWEQu0EC8yDFkDBaQ/6/vW+mPfsVNfhICZe7+LIVUyrBQenHPX0Y+qTIF4sPuodDF/qY1XBBLIfOmuvdfn6FysA0f4xNINQmOzOdStiiDCatoOQZPoeB/hEg75N1Ny7SAjfZw1o27MIRZJy3dVimP+jX2vWPFqm2EYhjj00KpIi8hvtHpMAXUWRZ8HyC3kcFZhZ+qi3fgeC4+bNV0FbgHmbBApJRPetsMtKoGt+9hPW98wZ036PGS2eGsW743PC8f7sZvLhRFnSU6Xe2X5nYhI7PmkB9/6bgBkMFANcpnhErzJCUfZRE7RqNDrYEAvYD7g/wO/Q3JNV95X5Myg8Ig+EzrPgl/W3Zrfb1kbhMjvsxRUcbAUeDaiHSeXHWvgQwDStRJr0bTKkp2bj88JIv26P7RLo3LgMSiqAywlMSk7nVqjxIUGlx9PkMTAXxUTCvv88HqvczNqJiCUMqyNEsfRGBn6gmCif+ywI7fos6H8MkPKqWWajQUBwDGyyg7x/XXkLkppgJnVqoN5RcBu8+ToZdmkSIi1OjhGik0h5/HEzto8TMhTJPBBg5JS14IgtnZoeK3Z6ZYiAinW0MCTq6Vm2jbmRitFy/NLFoHSGWRZKQx3e8/ZidC3rvbAHSzvE38qbw46xiHBf36HpUCweBwow9GzYZOXAmhCGUnyrKqCxn8Fub1KatKzyFjJZyPNPd+rjkz4SspyVFtLTIn7o+6IHxuqX1yXMs1TD+H/4SzIgywKidUGVxk8tOFc8Oy0TbdewyX3f4Ooq3KXa+DRzNXyxbXEW1v5q7Z274iNk7042JFVKGxqHNesqpW9PwQzi9VrQFniaVENEFEYf6RZ4eaOB4YuVcOZtIGBYgoze8c/vfPsGOF8j+5Tt2dpRnV0BCnxj7SJ+GrCLC8OuV/1IUu1vI02ASTNfGbu1nlxPNboNz1AfdcKZV5LGPcvwQdpGIfk6odPY9dR6f1dSP9ks8HiueqQxIpPLzXZQyy4jK5+mIWFq8Vy2F0Fh4rrilobDMhJ4kRIb4bIlrDyMBz0ZZFXjw9Ea6hXI1U8UO40tXXeIWw/qHbYbUfxAVHWGJul6S9Do/Ft2K6a8kl9T5/dgYCPyiElJ8Q1tQlg2JJVc2FsZN//679/gSg5wANUogC+h3dSjx7c6LjCGYuqm07+CQgknFc4GP/5Fk0tYikHpXV/49sMhCO8JI/SEfxzIl20uNm89AucXVenxpkA6EI90PKVKwS8H85osJPdlVKLrvf1q2vTuz7cgVgwoE9ZMEyLtdkbFVqfCfmVyv2Op80E0TgNXRypNoavtvRP9ce8x8FdWCUPZ7Ub1FL3X00Q76MjmZnAyiOubEfhu4U9Wx5doMmIyNjy3PHZbuvKyfismxDhe6GlyHgBiKlwhCAY70dPqELZ2C1HFZDqL/EfrdhVPIK+FyU+2WohsWHUWE8jXZ3uLDlXvQbXEY6MWqQ3ei2HWo8tx5eXMn1yxnY6I/6djYuarrJSHw7MrQKxFWKjb3V97rOdAd5KsaLrs/xf24o0RGN87cDOtEe151+Cs4nvShSmgO3ldCJFLa8o0PGgQDngPsDUQRyYjEhIPQQUmgqEqIIQEU5d0vuyjZwPku5X2SvTfYJ/9B2vrkcsbjMWLIewzcmFZyZA5a3eX9OameL6PNTMc9lx58+yQyCEON/FzH70A7EaW/DuGTTm+/GxFTugy1AuIzVIfzLLKnGy4rZhBZOhDZ6FgrIZ/WZminaIyUbKYX4VHuRX83aYioVX1a5MXNBig6ZH7sCff/0pd2DVFewpvtxki5ILJ964lYlEtwgfS+34ynyGOCUAWr6GTkJWLXVn+7aaXHXcgZu5DSAtZ6UOt/KE56Ts5YQG5wnQx2V1AMgq/untcjvWOay8ip6tOgvS3J26ZTvMqqY57nQe2Xv87n9mTRemGtL5lfW+VCkztdZLXWqyox/4/29zIuHSXt0VwvQUU+acoMok0SFdgM5bJ8S65lu4i2iSljTnLCdtXtREGbKM6n7cH4SmbG1P/ZAKrtM6+h5EiLKXqjFeec8mzoPK/0WVwpizpUIjPzE6qdh3ySlZ9E7wOnYQJ8qJVSjsOxS50C++AOKsFgzOcoahxC4l6UnDjDHRz2QQBKXJmfS03SQ+Jk7yo1PSEBhVymQEEvbUQB3Vbz7AYCNmWOpbguG7SO07lOubzjDkb3vY9Ltq4AbizKKt9y/8wnYuGrZOFB5FGR6qTBzyd41WCMJE55z3qoG7BEtzK1E/Nqkmy6dk+f7sFwn5zHnYphDxXfFpT1bas9yO9Hmd/N82vqnvIhay+6/EGzveO4YKbj07XfpapQqbw9Ox/Tv4esP/vHXpxQxluwi9H39tdWkO67roJXAwOfUS/ke7rPKmJF1bDSKBF84nzwyl2wT20E+K4aEVyROgEeBB+/nNnXF5iq5HqzLAd3GWMEkRd/vv4bH1/4uczSCEq1O8C2oAi6xa5CgiXieMq+8LGEWZvVzamdRQw4CgFHA2prjnehkLDbgriV63LRXbW6elwhTEFrNGfrazoZAxwyepRhvu64efra9H7JXlWTtSexdSJkpXDMrYDfhjm5KXNWub9yvV44aZvmSg9FXUG/OicQ+1DM2RaSLJ22hZAjBMmlW5ie84NSwZrGv9PolpdoaVloqA2EadYkwYGnnuUVf13WSiu3c3PO/vN50eDwKnx7AbWC0VZWv7t7bAaSO7INcL6LwYHaoIDJYFnOV8BFH5lGVX7IumB7UsjZcdoLt6HPjoNQlg7bA7tSmIUWdd1YKlNZTpu3kxshWoepzXmN+zOQdXTHPenfc4jvZOAhazsqjNekR8bST6Aqs5Qf5eohnG+ZualndmScoo0PGgQEvgPsDrY2Msamqd8Q8Nm4JrC23NmSdvJh1B7Pg8kv2e5srvbI7zgXd1ddHGDXcKzLwryP36Daa3B1f5Z/gM/qlOgC4MIN8/HB+4d7cqBYAWLJ/Lzlm08MTNgymXNJHc6oB8dtuM+uOy9IHVbjjw8Me6MnJkgNrmIEc8N41aksSMkHmtYGAzYedz8OM0ci+Auc4hkfcEtIywjEEWvGKBGXsp8sc3OwMVjwpzwmozMszCnOrfdZA9HPnk4E5Vq1g/nkB3esoiVXR1N6ABybA8ftE8/Y2wURBuMXjGzd8jznWBDEucXi9OOvSYH2vXlTR1Np0npGjcpVwTqq+ZRi4+1rErN5Iwd/YJrWy2KbogEjG779TczghvqXHC8MhSNi/iN1X2CF0uwAqokKJJ3UdEXMKfBJjVZ1MvrabnNiozLG6gIZ0pmU8Ks6aVpUX+iqpN5iN4woBztHPRSlO+ES3CpZWKG6dUQNq9TNpgY1HhdsPyIVSTDlfyzFQtWhhOu/+II4R9UShYo/a8i71/UgdiAQoSikw083P7HZqCAjBFt08oQgH86tZ9rivfHqWyABE7T2bCf5jlDWCkwP2fTgdYWII6gXq9YVvYEewbqW0eDViGLmesPmKQwPdFeOgE3sNaoaQ3bSQ7i26IZP2Yjk256Xtkjs3w1yzVu6mqE7xvYWa8ucvj3erIlkXx1z+7i0FxKD2ZJPgVLbzjUxvSPCs+0UTdfM0ZfEHOgQwh9+KjPEoYsUUrxKFz6qfS2Zan8BCT1Ka5YvCFpZUY+qTFc03sD6grM9LkTh8hFDrhktpoqhNEKyYtJHcpUlk8F8XSm7j6AmpQQbe2DrcFD92nlF6K9zbouoGMVJVYlHVdpJhw+LdNX0v5TCMM3wHp4MXC7basZcc6ZE7/xIlhKDQuw4wz9v5PaX4DwmnDOYxqTr0mbD+x3Wd/7BjNSsHWpce5Zko4PWyqIqTJ0EH/IzM3kPHZh8fky25f5opfEKjeZRPB2xauc/aqcB2wm74pxkWZMFajgcep1c2cGUsStEGirOdM3TzO+PClFU0Sv5sampbycf1DrqhzE93QwasZWaX9ZD+CODVJPMmZy1wJo2PClx03awTJtM8ItmBBZPZ7NBWUmQHM1ngfCE1ux/X8rCdOr56xiGUcMjvyedvaEarZdTl+UFg1bVVxtVpvLlGk0+GA2Za0x7N4mwOqgrq59NT4gWPoLVMDgor1m6LIK01dQvqvoLn3/xMzkHI93+iCgrHkOWZiAEtYB+GCFDVJjSmkL8x7A+Fb6Hto0QggQFhgPuD/BH8EVJTqaUQZFh+hZ561jX0zBE+vnhvAJ579nnR04stwuv5Ye3BPLAh2w4SOmhZr47U5r8VY7otZV/kb3fb38svj6u2DeBN35kDO0ivyCrwpX89g6xEdV5h9fJNExb8YkSx/cgbN/F56i37DVcWQoXKfjCeOuJm7+SaMSMn5cCFgVx3J7DA8bbiWHMx6cFuqaIlN+YW+uggkB9KcnCIeAaYEOk62rlB5pO7hT5Ioermb6KWGG+5gYvJ5EF/PkeGBzagO4YAifHcxoeJ5ez+ycinWREtUBzqCin3eIWQPFkWlKIJqq3YkG8JKkfGdNJA/voCL/kw5gfKDKJ/ck6AKWFESaH2YsacjErQYFSYuW7tGxuNGiWcDcFhU6G4y8ivG0Fyyc1qT46uOgkdmg+kBQ3PzLgRsoObT1ZnTe6UIDnvvrP3UlUZRHH10ZNW9hbygZXdEtO2cybmUW47bBsrVeM4rTzbZnI1nXlygneYrqOwzn927/Fd6d3AkV4PPSLMbwd5ZGnYTzaMIRXFIAj5AnWu3DDKtTL/k+NMk7MqTD+QOOXM6yf9guxtXwh0zcx2mRCs9NsW3lltRtu2yxqjFWL31ArwYf4O5ddjE1H/+ernOVtg3fFdnIiIIDRSLfCc+kDWWvOQR3vlgvGF2/SNkyj0FF+ytIs8Bq3SVju8da+9GBx+wfyGv0yCMokmL6jw32qRVMmPc8Lysj/ctgMTqnrf2NU2krbrd46EzDygeyhlzPjNMVHz/0GqREBVYLlRivYCObx80tKOkSwq9cEG4eZSATJhCdGUmkDVJnkpL9VManESpvULy+6wj5Ph7YpzFBE+EEbi/6GJumYAqhSTHAOZdqV4diz4DYsTkgE70PYYVtD/PwZXhQwsBIyHB6dhC4/Cr82E/f+AR8+x+MadR7V5O47hogGyiQ8kmtod92TZnQXO6DEhAeNSFtfpzFvGpOD9vpcP7NgCdfcsFf9mnv2J3QxOuY5Vn71pUV2MoWR0UFOWsjWx38A/GzBGZE+oZXgjNFjt2MyK4wHf9Y4cdKrpMdQEO9endiZA24Dz7BGwI4CjeHBLGL9SUNperVA0GaRkfHddjzd0uhQUkzCtgea77260GhLrMhCXa7iMnGvhbMcK/0Uviyaaa3XeJOWw9ETrmGCPwsUAfuici9ot0wpxjupb1q2CYrrpPZQKjTQUdHQzoqwhJ2FT988wmCs/XYPwhJPipt3JpL02okaSJpQZqv9GUM30GvPXnXX5c8EzQPciheu8gnI6KjbJXAqPquUN7WZyk18KKkXvho9tX+fgUL+wRNpEJNOJjvwZareh/SAQmPWseg8JhVgURRFWz36M+a0Fp2uutS/O++3xvbw0jjJk+6ZkUIigCa8rOKO5HE9awy6WwRMmo0OtgQGngPuD/A/+DrGHvI/AtKOzHin4yozlY2sav3lhVdoYVQUk6FQ4nALBopaQuyqH3bOaOK+Aj6sssQcvmoi8Z5Ll6szv/1lw/asRXJ58CPZ7kLxM9qfNv5FX0MJvHdeq+ul1Zu8jTF0NXMl8Fp3XJ3gidYvJoZlBDwum/m6DHeBqqPpwTRNYAlq4KCDk3SA7+c9N/CWVyA5p4Exfgz9bP3gf6mKIIArZMKDP1BF0+wlCLHt0gbmtKnrh3Fpw+Pi6zSG8cB0MLy2XUY7OH6OBNADvI87AtiywjNbeApc8StyvpOQWgXALztTaMs0CEPmqlwIhJLwEUln/aHwMv44xllUVbscz3m65PnaQkmOweeG5u8Y1bxwnrb/F9rPhQNzC3dIYJEZ6tnlT3x/WzAFzzKdWtljVeLDK97wlX4d53+BC3VKLcbqD2ZADvkbIiqHic5JFouIARV3x7UKpG229hfMzS8ZoGG8tFSlQA3d/ToyZ96UEnPvTRq3vhoBzV14hAx75ZGhe6Jkv1lvsCaajh0Q+r8DuRtgiMTF/KAnAmY11J0fsOyGTMmmAGsPnaTBaZ+iRu16OMV2zUPThJ5lt8hFPm6pN8Y4szgEXxzDx6igY6VFGWB60/TZmOdld9BQagSERXItXePP/xR8r+ilxsxRv5VMczIFeWOSMBF/HA2FQh3oRcuX0Koh7+rq3HWYNRJFBH57awsO/u+XEAdvQ/Tt7gfGtNAdl03TIop4qC2H6BQS23tNjsv281UVUcwoh4rqBE9tgw5wycI+nSC5QxnhD0RdXDOVboHgvYsFj7ce/klxQb14DhbVjgMk/NEYCyT3/LYkgDdtaqkZLXKfEUt0xP7FhqO4W2l8RvCo4Tb7+uWlZctkZmulE1KeXYdBVz/VAhQbSN071EUlnP+D2y+6+cbgnraqXGgPfCFqdF4S/tY0rDooZRph4N8ptABUGJzXOrdoD/jVzpl7hpdbHX5hjOjJ7Bj6aaLEG9Ig4ToP7zC0GnY3zioNItdqr3USu9zxZyyFyalJlbX1p+wAM6oqH/jdg3nR3OCJk1TUZsKjqSUvIaWVDFVYs0PosQpBbYPQVtoeLJBcsK8tV83wghDIRbalIRj99VTtzhqWk/7sF2wYgsRUkRPVMYxMEcC2xwnwcnj8j5RAYzNMdiYjKiUgaeG3GJXuyxSnF3msTkWO9tWDet+miUvPb3EGhNVnc+BcWc7qJPTetDowarb0uj4B+/SlkLmkTLHtArbajQ56BAdqA+4P8DvwOUXgodd5G3FoyIQuH3c4Qdb+mLhpvTxeTcmd4kKAhmTEvWWdzZPisEcaM05io5tfi6xrw1TN7VLBeSCK3ozy079wbOkRMtnJ0z5YYtr3vc45x+mPczkygx37fwUa7Sh2GHGwDJ5uhChPUuWpIpU8UZIFRTf8KnDvBObmeKTqm43Z43TtKxngRvr+iXOXdcyFmMUkBEPsbc2TPBj/L/it3FMdjVAVbxVU5zZ6rBxx8Ni8bt2KKZtFEHx6dBIYaSTElQCGxEkPChsBw5Ej/7eC5t1XSqd3Mn3YfHj7S4AJJVb3FqHbqS4oWHorU+xS/fpTwOEpISEltugJfV1erlhpbG7ieC1n6uBP/A90RdnmnWDKD3dChvEdLNBNRV0sD+x861pIBLHMH4Cd4CtVxGjLUGUEJKwpZguPHeWFKIsPebfXXQgetYro+z38NnwaKosgR2qmKbWBpd2YYzalQFvUGp9YSasbvTR7RYGTb8ss6I8vIhL3fpCcuEOGCW3XjTm0LZfwEjzoUJI61PXHUsA4P2fk6LBbEg7nN5CjswPhsLSn+Pvy2sgNyl3IrBNhDdaoNEPrLq+TlwjDnAXHUMznMAEvF6NfX5gIUFrWvkYLd33OfoytW1vZ1AQ5FBp2N8PHaIQE96zcnhD4uOH424rXVqc12PvXTZuFB4+hpA9guMG3azdvGvn4b7b0/BITgXVIRqxbCl7rtFpq9NfrVpAknVJzKcANkpL/YhcSuI6Tqsoc6ud5w/dbvwtHBTYZgEQG1LgO96jQuKInupELOAoMS7l0LTYE4SLDHJ86K+u/ESDSr/n40SAL6CVCDuRKYXAlO3psW4mv9JE9ua0Mdul3aeYVjAgDD1wBxqrNXqgwTspWy3A8BbA3oavuqynorHE10urWm8gZJcf1ljqzRNfuTPloRyZ/rcTL6mD3ogzHl2okI3hwg2GgnPcPnrQxQyM7ZrxvjLZ7HDWVWRxTCnU7kUZsL157Jxb+s4PTSeujHTFm37UFJjhMJnZYJV0CMz7rZpqnyG5hphefXbc2UuEUi8NNYKpLISiY/FKUCSiE/o6gzv3ccVSOeJqo6jythawDuqKm9QPjXFD8LUIbEJnzJ0lw3MeemdRauvOY+OBSVU67apIPlUXvNlCtpM9n5uyZcZ8iV7TvZCq1qh57rCgqIXATuDdTC598Hu/eHl0W0nAtdcK0rb9Az9jExiaeAZjpZX3tuAqNEEoECH4D7g/8N/BFu+yKvEO3Ve3U4CvZcDKyu+crk4VSCWb2obUHBTb5XQG2Ll1ij6KQTHC9K3ngEpxk6ok85X6xZ137gouL5Cb7m6BD1/ltrwhGgIZaK/KW6KmkNw4XxSW8i8kJ3VRrg5qBt8cfHqr2QBlYslEJXVyTTt8jTJnlVSocRn4GEOtDGKYXj8EFZQCGqIqveKEfmIBBIQZPgzOM7Ji/48ixcrBk8RDZWK/AbMh+cIiGwbE0/O2omo2mqkZlG+28Y+anfDzacI3Du2AsTYD7x4rBD7FfPQwmROy3gLolNRm/xfF9/gj2IuSxRbTSdn7Zr4dDeL5pS6eB7/Sc+iPuD1jR3BGMCUMuk1LUXqvaO+hzrP0Q1R3UiilRkr0JbMZjb0vL1WQ/Qd2TFYqH0x/LnLZVivGM/IC4aUeJ3XsBpdufU4jNFURMgj4VHUGR6FNaV0/C9gvgrOg1qWMyWMk9C0JX/OEg8jaljbj6IGOkX4Ah+M6GA21YCa2j2BJsHWcAI0TSFWqr7L79/Sw+a1AhVJIHiOAO1nY+kXSRMefQTEGQB1kZdT3N1OM4mtIPcc4pIsUWgNvkv6JcZU/ejGu8HB9n2P4RAV10lyHF3ubzCZktus1Tan/OrXOkrrkfHfRTQ/AdT3XmfsizBAnNQ30W6M+p6iyWw2emfUq+cQKpozndn8Wmf1PhQeT2KLvkRtFaHA9M25pah8DyrjumFTPQjzrmaHEmScgnY6ZSIQM7rvSnq7Ay8WnZ3/YFYRCRTh65mFRakd+YVLfNS4ILjZEMej9vv7Pk9v1hiIXgGTCzNHfjNrClQvlzfFBAAthdwCTsdso1fxYoQ/vp4oPOsunbo98RZyXfJ5gH1jzKV1/IeoynHuu0vN7TfRAvVvUniV1R3LoXtC2wPqgF9YfyBT7pxJqCo8ZBAPQ8A+rnjCV/iHM5Bui44E6xLn/+vm0V8nAAc8bzPXHcX8/NorO1yEUguC6/xDoK1vQW8S8urfTFzwkqn77Zrgc1m+zBVUeMpGJIihlY02qUAoPpjqxLyfsSgGZ482bV/hgA1NKscTzgrX5pYxm0yavQjvqFvK+GxIuuaEbcqvZgrF/PvIK4C1nP2kozKoDYUuSEUk5MZzUklGB/2JUuNcBvIdX1Jd56WiLPIJa2XjOVwVPLcHuPeWU8ANv8yO83iUTvWGr7jCrEXDjYFrhTnkVB0nN2Ruj+c6qfK38nyI54ka8uOZ4yQ5t/2OnQzXwJdRMzYHm7cqOfhHZEigZR6gO8zSbbUah2WN6t3DPqMrZwgQKW130uimjQXEhU/JHylJQxIeS/XRpSAVj7QFP6acjIntEJ3VqlLsJ9V3oZKEo5JyXdAO7VPeFHIqk/cLuO5UZA9qoVcMuujQ9uBAmWA+4P8IP4Ke3ZsectRD2fAod/BcizRhqXiPJtSbnl/pvs+7fw8f0KF7I+gsbn6FUtudzzvV8XRMTYh22QSbC+W4JMcW5CBZLsUtnlBmboZaD4oT3cicleNuInzNe+HnNEeC9Wm4YOZ03bvJywc7x0ICkkeIbDh3vtLIBivtWvLbe0v+/2SF/zRm1mJ341yhcZEWLsJmU5PCns67pVU3WmBfHzNqNRqNLNO3DJi4Ml6P2JD5DNgx3FnGJ8999hl8dPvB7T9d/sSJU7YLyyvBxKtobHREg+ZfdSvqTv6wHA8Kkur8WixE6eaixKn7gvgPLEbgBiuaou9VMwdbNPKKqDC8GS8uNMvV7SwdbgCCpXnZeg/NKhKUgBhlMzMCUCImAXNwgPgaeYqcvNrj6YmQyMHNaquVRja56HK9eU44iQstq0Rh6PDZH7FwMEjJG5rrxRzPqDcFr9BWrp1fyOvv5sHYiMHoVnX4Fwj8qwodgZgdRq54kQ6xMsbnMpu3ejQ3cYqCEZebToSM7E95nXKhBbAttaBbYt1Nr2xzplOz8cYXCE5FslR9SSRQLZSClIC1QTxuEVodU4A9S1JG2QWUAzMQHS2XbwSt+ZdkjftOBrT0ORZ2b1r8K+WPA2vjF2eZuLLk2xACu1Lo0MpjPrnFL2q9HXQWQgfo36fGblzu6qSbPrE1OXeNu2Z1L62XRKrG838KsyDVGQqT8pjFXkiaDC2j5P7k59aeFCRIn2+mrAFHk68exIhVux5s+/bnGvgOkGHVhNyVPZM7irZKU+bFzMZVmWJO18NaW2dQWfK10yEmQAAAH5Ix6fHGvSzNQlTsicIaa9fAqGk85u0xgBiEkYOr4kOylT+AP6ktT1VvjWiJb+D+Q8JDPgBrWewZMOn5xKshpV1WFK11NVawgW51bklYOEkgzTkBvDAlNVrWh10LgowBItmaMbbA5vEhd/8Kzv5Qnjn2iDKK+IHOO7jkMlOjSNAPyxr5Zt3yCmEQmrYpP9P8jxxM6/EmWjvhqAZVVqSYaCP/84JC6t4p8+AX8vvfcYl6/o5oFLaE5dFCBlAzwiylhvrHjnfwDLVm5ff8xd3x8p1hkJ7m66aZo1QZ9oezHt8VtsrgQBTsKFCfcN/mMJ8iCfg9IYfWZjOd4Ncukz+FDRKNMA3in24j/UMUtk8fWJ0ujsXb/ybq7jHApBfBQXFMaIgodFKJfUtB7SjhFNBzLhmiHxiyZpOCWeQqptHjfqNteV/7Kc94+gksiTN0mZgJDzRt2DsoMcHf0PF6ljQ46w8v7sGmAn+j7QiFdtWQRcVOpZFoq2jRKSBAoyA+4P+R/wRf2PFaoF+kvkTW+zvyxj4Xcq2ac8vIc76CwXzQwLG77BuBr9YVkJDqojnQ3iKPyRq12cU/PPeNYXhOvNo2ZkZPso6mdw6vkndNQDFLnzj+a+Jr4h9XpA85wF1PdxEe5RS/J+HTwCUi3ux8VrceYBam+X/DDEhRh9IbR/6/lKnRPuFBOAP/D+LFEzu6wMKqnPR+ER+lJTNUuPJSaTendDS0Kf8XS/5xf3LVxdLJgCySd48/FPFF4NqtmE4netEqHGAHGbikcJ8uwOEga8DlEUECkHl2/iKXS/DyDNJTxx9bgHyAxvE5zFHqBzHhJrK1kQr7Mxl3tk30NxWoTDx8amjavHiWWZEi+GwrFmQPi+aq6uPB603UHuYVVBdtFDQtSLlPcOpEBFhYChRCvEbFLTm2/yXqe5ThA5LXZAUSILmBIRd3itvpISJHBKxfxqbmCylDZIS4RIwMqxFY46k4FVV4B4TCichXIgUBD3iUbWPOl1IlXpgQqpkT5to2JGwf1srcCSIMtpZVDWokrPvgjPGguJueKaqL3uRFt5+LhTeJiSOikYJ+vn1lKPtbebP8f9P4HB1KdsweZmvW/RY2jR+FgBs5BKe8LF6vNd3wYIBCkNsAv0cMQSsxgtKUPzvqcfonflVB/1HVs/3qQ0QpvPtl79M43Hqr3VJ7qsLUQQuwJqqedtk7Wml55aWDgtcF//cfObw9i5CtrDL8nIyrigUZAVF+xqEzjGQKyqaIvZR3ugtvhG20gGXk1RU/ZQ486kVVBcFqKqy/3bnNxe8LWQ7YSC4beCyfGdbrlAEu4bUaKheXMeZl6dpPlAIe2rQ2YuScqzAspwf8UliayOFI/y2agKYhbsGSsbTV1oC9w2NKgt4Amup5F3E1ZwRqabPUBxY+gNNoze9VG1yTPaamDRBq1xk8kR3/MC1cyKKjvQzT2PEOGtz2XRPP4WQ1h3Arn3tISlOul69MrlX38kygGSlFdhAc48cmhTi+PqxTePuryW+ZelMYvbEgNP5kyhMEvAswIqBgVG9Ex/OpnZ69EIp/4nGdXkJ1WQY+keLPxQjdUg7Xn0NlxYQvEzkxgkWdynidKDTutXcpM2YBYinpisy21GCEIgN56rfjPAe7ehiop4QQd63t1dJuwk4fZqRjHkwVSi6BbZoq5E0zJ2o1KNDpm3wOiQS93QvAx3fL54lt9HUaC1WAnsgb3KHkVvIKx+xq8nZjIkrMMwY1T0qLK/CVaQWhycVtiThYzU9xh5m6DQ2xOXuvubhG2nDBdGydWDcTLTfxLhnbYLRyoCGEeXhVU1PzBH+f/9B7rQ8+A5Mt/rWJiqXN/4I7rDSMVnK4QCP7/DOqJyuEAi/NcEDWmbgdRjFn7AXUuLQ19Du35F6cvxNl9OLTFVYBEdSSZMokGWiPkZK75XmwbWKdKhczeLtW4CYdkW3sVIJYQb1A0Lx3bmGm5493hIE7QZiOgliH+uzqpI1oOMr+hkBWajfCIICuTMpgbi2bM8UaJZtKCm0UpRLzlljR0NtfyfMq5qtN82w6UngvYmGIfrh2jzIOPxBWlKM7n5DFUBRPP+jQ8aBAtKA+wN8k9Hng6oqUj2m7tfsfpFNMJza8KkrPo4xM3ZtuxLKdZvUSq3V/QPaDqF9mVZptZVF0MyG0v1sbHsqTw0YDkOTjoiRacgUshCHXLrtMv6I22RkV6d4Lw+b9V8RBnJ++Sqlio2nIju4fpcMYTbGyuU73Z0lsdh/cIUKQkUw0p+b4MR7EEAAAAAAAAAAAAAAABSdZM4dAkVLkTrw3EPUMF9ZGxGxCiE/GLjOd+rD7K+ox9jhLkW3YWnI2qNl79EpKuq/RHytc+24F9xetxzfMoBo65+HUYaNPkN76eZTg9H/VV1UFtWtTUJHoiPQC7Cv8bFScYOsc2AjrDou9KkHH2EzzEQ/Rew/ncvQmHQNecVE/lBG6rFFi47W23/uznDfNanp31NLJB9M2IxP9mZh9g7+2gUApfiPx+QqkSHQF/oPpAxoFpgOVk1OCRtAVHEZTPuguvuz/NrTCKhzmm451i+uNl3jGss0VIdaFvs3PMCV/YHecnjvQmE4017IgsiqxFwGPX29J2PrIHMQ6gImByCgGoHjO/tbiGkQJrG/bEOR2h3I/S+3BxiQRin2UxO+6alKKRHJl34WV594SodD9nur2VFUw0DXPrc4A4o8I8FgtVTbPldKSt8MmHZh7ZCMOB/Q10YsnnoR246VmfmOFOPRMYumRhjw3sDH1Nbbl8rRz9Mjnc0gxNotd2piHbt2Qkf+8RdhM9YiYIEBFNswIqtO1DxPKPnANlsIXIy+e8ttxAJg5f9Ld383gozCaTK08x9WV/Bgj/h1HodWPj13g4O5t7i9OZ/k0puagEaxASXX5RdnV8j/pPWbj92YcZeq/h26KBeeESwpYoZnbhr4Y0rOMvZXvpVUS/7bY1cbav/Qi+eunTLy0baP0N8dDYAhTm+RurozvHbYh/ms8H3lQCV8Scvwu0jXxZpAAwB4G88qw9h3h9m2VkYFK1l3QmEb1ocBoCkBM3JuZ1bAbPR8ojjfZyhR+SfcEVgvNxmqrLdUOQLmzMTWHBf8FNg/3MTghe1rlDxRBcrJATYSbPIDckbqM3/6ykKhyti21wCz95rWjtedM7jR/2BttQkTmqBzmIZ4vWGoUGNHhCaprPu5PdocYinzMzenuCxpZUT+rgqQykGKnsNL54uifG0e8yhBK2WhuzzvF8JD+l0p0fGn8uE7qhstrD5ftb7QOC6O46toYqke8rjM9C/LuHI7ulRDJjIRON24SDM0R0a2FLDuUXBMthcElaj32g4Mb4/LwWMT6Dt324z09e8m5jXwkNzzjLijQ7GBAxmA+4P8EfwN5TS1hcnUaDhpT+msSDKML+4+8Uk9+I9n8P0jGveavzztEYpZVzkgGJo9pjI28nqFfQYWhYt1jbRg/sKbNhnrlHaXI+vLv3EKRSefFiG5LMdF8jB4qWkl/WsaNC43W4m6y3vuCZJo0FIdhgk4Shfr6RgOeRfM5CrPoZx0k3TTLjKHqCDuMVP44n6foJS17J9NdHe/AFSK0yf9dNBgbZT67y9SLDu7yVL6/H9G2Zllc/qSVGSWsD7YZL8U19vyEYJPDv6xryGr4WMjYNQAHAtHdcdSLZ1hOmeGykU7whgGsrfTXC3asIWRGxqm8XNgg9l7DW5dzyt7ebr2l6WEiL3hfGJg+CkVR519vu/1LMQxzXFoxxuuwUx2ynEtu2InrCahkgnk/rcsRTnxkN18m2Nt5+npRDt19VHMundkbr2mA47M45snAKzLEmcJeyogqn8PolDu9qWlSFV2utjM7AwKGK5cTapCctbPJ9fvXsGB7Ya5eP3XmqC0UKRFufjDJKwTmX8uAkGqpdgN9MOfcBXlVEEx8uaTZsRIfn0wJnib/zpJd4+B7DQJvXi13nSlfiLR+7GLoX3MGVGkPMnI3G5c+eXTMUdU635keMp5sgu13ti+RaZ7hSvv3OrMtHkGdl829cjsZVvdxfGy5mHzJDZU9Culu1ucvbnhbYNg6w2W11HPhsTuQNTzncv1hj3tKO5E2SvDzPHxEaEu9+wX1lMJYcRmiX5+n3QC3tHTmOY3CHHjFXQaT4/RXaK2OhJtg/201yRJW8m/JhifafJmpsoQPCmhNGCOvLS++JWpI3b98j2IlfktNIthta2qxQGrXcXF0iIZOUM8onctehq5dLcB6HObi/YLN/NIHyFS6Spq9ZMjMYKO1Q+v6bTK7HMfNCgwvK7rb9yhreav+WO7UnHpa2fuEXx09PoIgSCX5LXPQCcjT9xy98/7NALHb4d2WCMcWscTpS8AFFHBu888TfAffYsu4I882xJGfI33PSOJCE6UPJoCJ6lcXTVCOcT36yr4pdudYm7bPSFXjXZMJ0pQeJ6brIVBReoq7dh7RzEjyK3zYcmGsyNeIghsvIC4VimVV2A7mebK6fQu3IHnw2jC3r7iMFVQxSApueigtl0ETurRlnFjav9HmLCfMw4jbkMj9JLMFOIn4qUsUwoZ0cuSoWYNmjzSjHyfCzrc2WG5yYcemov3REmZw6I69THtloLfN0miVRl8FU3YIk4oNRS7/sleKC/bucSjQ+OBA1iA+4P+Df4NM/6hEtHqAO//afvXuQHWw2oOd2WP6ykzjk5Jp/17stkE+4KHWoRiXnl9XVz2XFa9MCC8bhodROu+bFsJr9/gfFC7cJCHO0XCedI3Q41vfKOJ8hgwhVpSymmkksSgz1oo4JJW9HBWTsJnob9ZqApSrQFm+8jpTwglIov2Z04pUF6DKXHPbOgWiO754zlYA3x5q12CjQPGNslmd6LeVsM2dY1E+1XOcCzocs5XmIa+0lctIq6YNiItvXmdbKmZ7qnRrvZbiF7T9T7++WR2GKmUpxPgaf9IKQNe9pKguz/Ytv/Y39aPMuyCmqJlRPwSKL18IM3AjeTYi7MRUJLUO/ujVFnC1LXY+PHjR/RAveOdN1wJ37/oLj5TtMcmqQ4Z7CTiJdQ2jLY2CuaXW+DYCaO4G0Wp0ipXDbwh41eWg3vcTJGsc53xy+XdWYrl74QR6oesip3pHEG/jRcjov8OJnGVQ09ExMpZgknvmXzUt9Y06Ax8zmAMa3cdsb0zN+58xjong18JT2kLiAk6a6yeAYRgoy+pu+GjvscP9Bc7vZ+CR74TSqbrJMHx5Iz6H8ZIFUI3KuRNyD4QSQ16KWw2JjdX8JbpyD0rjeYf4AzguBuYhYU3sT8vJZ4Iye8w1BkMVfiPFJt2SoSMMUS6rMTHTJb1eHHFyU7YSc9BzKBb4la4y5ccA+/v9N/uZWcZollmW3VBBbBnXihLcYD20/zexLmp0dD9fY/ttwLKuIIibdaAm7vxWGzNpGZPHB7Ve0jwsp4L2A6UIwGjADQKr4BJFn0sd+nFOjdykOYTt1EuVurGg29BwdJZf4Yf/zBYm10502vSfd28Vp8t/D7IcXVSXjMytD86lc1WT6baSg98TVvRzzApe0r7GGY2ZbOmCX157xHZGn83/FukdibLQk+DxOZswPJ0SNBjFCQO9345kaMNGvzSztYTaeYYdjSEHgjv5zYoamta8hvgCicftFXbz636kyGxOIiOnndx1pHTxfUA8mfPbuYoEUWRtAUR+3JPwQTSQKYMIZSgXbJ+qjK37Rb+zNNcmH9TAzDpe8rxYT9l9Cc/6OIgHX0OWb9IpE/sPAGXbEkW4SBwM4/t4fmbbPm2r4k7zTdcGjqLbydNT3MkiNng0iu270OzK8m3XOxoMVIG0uPeAZWzBd+Qu51lSkDaL+Ig4Q8t7u/znULyZkAs19C4exty0DxzrwAXpOUS+v9vTbezQkslEy3u7H78gUxZZe1mkiaHWywJWE8SIsLCNvJMEaiBgifrjBFZ7B0GrZTPkxk6PtBOi9Mbejo7Krr1ayIdJdfyj+uLraNDkYEDkYD7g/8P/gofZvds3eK+Mq2eTQoYZqD9RJ8/aNSIJnqZ7SplA85JT/mrDXK1KrfBdB4LDBGz71SL4/34dOD+3vN6yjkShOcH4RUvnj5dS6DKKf4OQlM6uVom5c7Gttu1rYQxhFjPoKx+DmJEaURt9EiOHHiRhA0ZpV58bONTCoKapM5rscBEPc243/xVlPjk05b1aII0gtK7SUeT1oxjUet0GT8fcJs+ZAf1SIMdV2R6oz9lAa+Q4s58kB3nKwmQZZYqT2yTJwqb6S3y5+DVfMyz5hZM47C97nD+WIN6buGa0YDIrFNy72zEhWpotBlRIFwJvs9l8y5EKQO4c24k092nNi74XIAWImlgvIym6xWMzhQ9vt8/ZATE8GZjZEmXYESDQMppmVCzQO0gOzgWhEWqNPPUaS6PAhKaHyWbTjlkGugutu2lIZ4fGYZFNgzThZI943jEfHUsJJOuHj2TF3Zz2q2eP/uypdmw1UMU9Hg6qhedfWflGqprxEBxjLhFVQ+T5INzMMtMjjEajesTdANTbIc4KUsTXIGrlRmJN42PvOjOLcpXfKeF8sgEz647F+sgFQeDH0tY89ArV6U3H1/ofqsUc1TNYzKgVNDvJyBRkYpwyfPFuIc90vVB+1NY32r7PGCQXw2Z25JNVduadPCD+tBWUUp0uy/zuXAEBtLw+F945m7u6cdf5e0LrDVwNk7/H0s7z2ctN3OByo6f1Qk8MYu7MEEqfuZspiOent+LyyA3Xy//L17MJ7ZoE6Aljn4XYbOb5RF2sJoE1zwwdGc8ozCAWXEwKK72DPBdvtdYVtR5uH9TaOcLY27uYF390elKscICq9TSerT1X6qQyElfYCyFmF5WPN6RUc+fVwbWS2sAtKVWQHFkAQJxj5u3NUbeCtQIfQNkqTZ6pfDIBJ6Z6UisC9ZfjGiq1JnS3X35vyuu9RXIcbF7mByWVm+5s4w6i9JVtAfJi0pyEut+AcBLImyfaSR16JaHcsoxQka/5JD0/LLrdJ8QZTjhfMq98BRcxwanZD9cIV8OysroC7sgNBgPmhs5exSggwDUNhSYUDXX5/Ec6lS1JmyDSHiG3Aki+34ifN60AO4ATmXkr5m7nKv2rwmf0UEMnT710PkpCShFE1JqMUfRXSrAovJDGmEBn2dpSFYtdc6rJZkaYcCGnZ5bm3G+kQajAQNV9PhABrqaxI18t+V3sPSz5y2jQ5OBA8+A+4P+D/wLAZ0ujhPU6nYklyovl/7RAWbLgs3e79y9qzBOFZ6Rr2MfcQxssTRvRW/V4+07JoeKuSc2oM99ra0ThbcFKv6vBQySs7V003L0uYR7w80V7WYi6/QUijvBYF9AqTlKn+LNNm0LwWuq4XGpkdzCoZKfUbPBxZvoKN4DmKYXQMlsykBsyH5DEWc2DVGFnrS8prV9sGRvTSb2Ko8FRosvrRrpIgyppQKWKCRhvi5gDqs8WVhlVboFkDFTfJhQNwYopl5gKG1LF6eJEfH83IlA3H6gFWq6u5aHMscoKLmx+H/jStkzi5o03oWjMcL2QjtHjdquX7Q0v/Q4JvzfYwgYTe5CcIGx/gpgaLpw9yOtNzWTNzm+3zZ0eqF/y4TaNS5s9LmIerAMfwVm0ELFT8QBWVNiABjibjClswX46z0dhvurbeceLeYc6TZt7UaKa2z1W9ZTSweU5qfWx9QNTAxU8CvZxwGb9xf3+YW0Z1w1Z78e6wmxSJqyn7DcdQb3hE1JVr087vJHqJn+o9xMoIHDCxdIOvaESL9XsCSA2u7rWb3PKA7+wyVT0bdlFitPn1/Z+gQX3FhzH80KBx3Mt7te5akiIF78x69THqeS9t8j//auGvi3lVhy3WGL6K79Ymkr82PFSK54hBYyJGB9aob4LBNQN8aWOKMas1abrmBuFmnLz/uW5Togv///YGkycvuWDZ8akc+gZ91jkbAitSnRryPgRKIn3QVXXtqesuEQFXMRYBrwf/EnVxu0YmxjADHYFMiig7Xm+yNwTmM6w1S2+p3rxdoby8ggUY5uWie3Fwsp60CIuWuEUIsXJlsmd3dp58OGOMGL/6naq5G52D+7LevijUc3nvhtYj2I74O/M8CqliPeMsmiPdJTFlF+ug3mNDkIAqrvtr1MuzYBwfDHJKgGXg6J//l7HCKU34duQ/6pQHsiNnnTW26Ihu00znMSpaOckcngSwK6cCb6VuR8/MqhvQHVj6SlzWn5FyHRVpTbGZMrlhEZt3gqoVnJgB3NtIkhsQY74JwNDSh73Cz9FKOmevigbyUZAQxPqw0nWFJdirSlpQ2ffqjWylZ2pXtJ8XTF7rF2SyM7pSOjqfgGUgg+1IrRIb/5KvtsMQc2EJtFUOAAakwebSZZU5JgwWQXzxZw7Bi+306MVAqVueOp2olEcPsRJ7di1ohZe3hiV0nGxMRpAfTW5ygxMlSjQ4iBA/SA+4P/C/4K0ixmYQH8dlgViuF247LrakonSWXYY3apXGU0JAdGpGOP0lGjLR+lH/4suTG2BhfDx/xAgMCozS23YVQQeaLEmmRBiB1d7sUA0EaChKfmm+IWvL6jVnnKOebLiX5arz7BCXUyPsN0Rxr/QkYN0AVDmvHWqAoGU7WPgTS4ZGFNvffO10J9AGfwVvk7rsZ8+0J+S+/bcbFEG5Oubak5jeLA/lvW1vEfXRK+Y5TJhR0dSLvSYDRD62U5kN3MQNuIbDZrhyNfuxo+6fCNwfH4ZTAC5iCVmIQNTJmZLGcopxtIEwORjE+kOMyHq5AaNKnbTIWdQ7VuaTa9Fvbhn4a5Z/pXhCTa7zXgNbgEquJ3vCCJwEXrtbndjmzQe02VoVSJPIRx7+fZBwWC9gS3vT9MAsZuKYaV2wOPRLJR/y2TQp/T7q8lJqkD/MAjntdVsghNXlUukQYkDm9DifwidG1c0ZIGehGGiHPg5TO1DXDGVusmkM0TUhrGY1vEzDDCQNGBbsx2rd5pqDOiBObsTx9dop5dXan++U4xjprDho40CWZxtjihQQXQ3ozGxCm4I/9nucbjMr8h8x/wra9XO/V9NyDAtsncAFumZ9z9UNnLcle37bNUYgQ8/50/B3mem14SGI0Lu4vp0UivodKViM5glmWRlJgGZE6VoCuchtp1n5QhRPfF6rVhbbuD7LQ7CxZ8tQBiJrM/EqO0Np8saf62R2rGhDo3Jmpvzhyp0iE8iY+e6eUEONAd/XZPA4MEpN8qCg+dnrA5oqu/G4+eJRHGuPfbgnPl25wbkgH7TR/JFlcfVl50AMg80sbHeVPxtNWBX2YZ+/CdWF5mcA74Z335L5N/6hg4ewi3DrvAxrtJl+CsJ8hKEY5FbOargnESPkTbt0w3DFdTMJGtkG6XfGghCqSQ5tjIZU0Kwu4/yXEzp/MNVWSzhAoPUpLnsKDAws4aAbmTdB3v8o3Ydps2cfNGtogdtv0B8lmEkkESWq3gaD6N8Qrl5nYV/QFCS8KGwDYn58NQiASYxnG46U0/BkAqO+Qr/duHpwhJf/LJGut0qsoM9spd8mikdfKlie2x0++KDYF/CwQlT4itzk+PpjQR/3iTFasqtA3dv6hXzJxrbGMedYcBcvPVuScr+qMt/SBK8PiP9+ZkAf2xHX0peIEhl5g2ntqIojeXCIrLcMR2p2uLo0OcgQQxgPuD/Az8Ded11aXvjOni/v00ZUo1snrVSyNhzViPrw6ZjVXpXWQr6b8eG4Q4hkHUZQ6iRz2R2XykLLkUM22iqxe8qKkhVGjk+XRd0KakFhLGkYC1SD3kjvjrFkk715On2ObsWoxVfonZHqkNioYRx9R6Sl2qK94G8pQbJtYodSB+SSNIBSHG60qJX3ohBKG+3DjLntnV9AOs031RJL3N5CZHNbFWBZdTpcaarO1g/V7rIVX62sOuIl0XtUvVKDaihs/3MLdmfNC+Gkn6IzGhql1RkZ8fKeRnjOp5xOG9/lZ4S4bJC7semyEA15RKEsSJBX4vAXJqMtGzFXqIPoXMWJcrS1mMSNqq+oILOQHi5a+AfrMEBPeuYS/8ZSHELD2BXx4GJFsZ5JKU+dqHNz4hOGMznVgFjQ2V/B9Z8kTdJqXqqRzSu8/2PQFoqwHV/OTcCAsq7/6LN3BcheMZkCymCUyT9DmyUO8UL4M3ECU3Zdgxsy0kgNq9E9dl3wwTLMpDfs4KyynE+kBKWBzpeXIE1E4S0M9AEgh+EtGigXGBwo19/CU+hmemgsT+fyejpRRynZU4Goair3PecMXKSRLf2r2/dUeKaB8oNtT6f98kWHZVmJZQOKf/yC6Nc3oXwcQkiVBwVRw6C9HkkL/lkYfLnSd8HR82fMUKceKNCY+akvaQ/N6wCNuy/YhP3ylJ/EbTY2ycXoQiUDI7UMzD6YZ4I96HKmqvyyMW7wpHJVRHWVunU4JkCG+3czsiATdD2an1zuXefxA9a1zs/XvNxm4YBrtdGMPNjb+tO9GABcchYYK9diDTMkbEDtrRzX4lUw5duOxGSF+Bme2FgggX1G+UC3KgLNoYLqtVXqvKYOyCpUgeeFfGZ/7qjhvHfNGb2pftrjHcuLeRmfPXZnxTCHwGU0gjsiUdklgIaBPgN2G20kjjXGD7tIrtw0smbKNN7cessJqtR505z/LVNL7OUL+0D11oNlGE26/CoISFogyjhvf9Cfk56Grp7naARp2J4whW8ICyWk+KSBGdnPaw/bPax7woLwRWplCrnaBfqPnYYpRnSbN7uv7+jtB6pbRm5A0cxaPfHRjWIb6x1AAidRLBQdutyWd769Xfrg+5td5PsEL13sTNrjRz6HQ3L+dQOMjJAhB9FZ0SQHe99yWwJp+ostn8ApS2FQPJD9A3u7srvD/56zD5Q+ZUBfiHFLiUIaZd1na/ASwkdJHRo0PxgQR7gPuD/RH+EtMr/581YessqxpQt8cLCy2IUaO61R+M4+ND4yc8d0YUbMZ9oBxw01Bwcnx0UUmVSAS3CPlc7hLimSG3mKSNq6pWclOzZRqhCh9+x0KBUFSdMjXIMnpd0Rurajeoce7ZQpPbtf5/xo4oDXLYrBtwyzg7TfMYDjR2XAU3Vn4q8cMCTad63rvRmgCO6Y3goOXdm3OFV7ugj9pBSw9sOS0uh/dquqCdBnq4GZsUefsNWPeRe4MaV8FGFyaXL2iVdNPDvuddTLYS6OZi9EwWeuNLJAMJBD5F2cK1R1S1jLn+04tV3xKUhoookbavhPw1l5LvoSSKWt6LUDnb+pYuRKWVw+VZ355JvrJt+MM/SZasddLlHBrLUtsK/eKnyrx7mocinyv7SMrYx5x/zlX8uutF7qm+Tme/wRv4tDwZuof++1DNztMq2LhRMgHjR5FtAS0FRSnHV7pBE+jWiL0xo9FuzQ1Y3t8tFiXeqJZ7eiWm7br++kkFKW2RLp0RbQOXBVltOgpHGcjBZ9rrec781mPuLrBEDGYAjpBh26eI10+HBqeE+39q9Bqcm+BU0EJIqHHjOQHFIk7HYEdHZiR1g8RMM3S2T6ODuWcz0/XciVZ8kqxNzYwfRcR/PT91r/Kio6Zr71EJ/ao5tAbYQEPHxeYND+cgJf5SVLv+oFmjwBYWh/NsG/XwUawD3pz/Uuk8QBGd6mDQxXEtP4CXPAnIILafbCYzYubDEL11QgowXKiZGrATfIhwh7Eiv/fvjgb26CoztCAXh71AcOrHfpTQC04H97VkOs3lUvxFKAgwutuPtBIp1uYfuISdH1Qf/QRP/Mt0VKUiGd8CAhWot7jwVl74tMcqeLZUihHP0y63mCMVWA/XY8puFm+x2Lh1FyAaKE9OCJ0uEq7mkusFf79VI4KfM89aU+7rghEoBDWPTFckvRvwGayGefZRumOBNGrqswESAIjhZechRQooyV7bjiXWcw3oJYxuFZwW3rZS4v7SFiirayLYXbKbQydj2/BPe8I4qoB7LXRIr2iZO3WWWMhQTvHP49tIRN/vlm4sZMva+YCb9RVD2aEw2N9B4nJ6CfoSuVTK0kE9OKB8F4E5Gng5xSuNUfSKEs5ZFhAAaRJJM+tHM9iaJ5WEpF5CVstrRXYCTxiwu5RoSiHkv5+5SlrLtb7PMtroQgYwRk2hgkkSN4rG3zfDgY8OlEmXPyrDVSW1vSQOW5gLrM49uUGHX4f0bP5xcAvBGn/c0aR9OnROB4XtON7ejIQ6oGm9VKWuMx0Sm75yd1itsLMpXZu2psKbaFj8EtQUeDr1aFLG6o0//S6zfdyxxkWJ0aNEcoEEwID7g/wX/y5M5P8gBQnUQcZ3YP+bM274SQDbF515siDsbGHQFg+c69JJQTvEITYzIcPNv9/le0HFIeqvM654DwyPxLTBPTJQJtloS6NpFIDuwFQNJQzvF8buepWrGfwmN6GSN00mJu+itsIwYscJ87zNJHpBzuBRMIQneMUEZgp8uMg1Bm5WYl1HWhTNbsgUGqdU9NKX30bR6Mn9iiDN05qhFJwg+GON1wWa0lr707LkzJAzqFGYrL6I5XxtmqCrAeQHOw/cN9iHZj3gTXRrO0MB6xVehTy30QWdbqyV2b7OeK7kyUpkZ3NP0fw73ZeIbC0HI3XW1sXRDQFipiALyMctGXXIpvchK4sAlZrd/okTTpVqvxWYWs5Sd82VS/McwiTwR5VbFq/OTF2ZFUKviia5XiB2uZIu+O53nV5aSN+laHcq58g74aynvAuHJ2Jd1pQacICzx2X/lAW+yoE+luqA8gCecIiLwCFRAPB909e6P837HLwobK2O23EaR92qICBEsb1syWEkBCpYwvXKFlK0ZO/nj12sDNgqftedbpKneILMBvFO+IUuqSLZ6UwJc9DulrPuXK28SMamkH7XhggKIpe9IP+qalMACVlWJe9Vgt4HjWTM5YcCn5Uc+g0VqFwFz7wQaMuUc5co2RioJZUQU645VXg0rn3BmB+CLvvrzd13f47NCDQnxC/dVh5tIfUMABQTUMOS/wx52f7kfNi7YFpDF4E1ZOGl+Vz+VzDJDmIQe0rPNCrtfbwWXx6V8X7BVsTr9FpcVuMLnZ/LKyHb6Tifp1BXnUpOmiPbGjSRKKMfu1yAxETwangPi4hdPu09EFe4G8MACw3Vixb0eq/OYgWwLej9jbT+y/7aUHv2iTTYPUXVwyc2dfJBGX6HGsq6rLCavRx21SDuSC+4zHThc+jIh/OYy7+GpzVadFEclyw/rWvJ7Sxda2RQI8NN6YIuGyv6R3LhLFyhFRY4K9xwDt+rJNhMOLYNneIRQyxJpVqUdeJ4jGG7Og73xYI8GgbQFN2+XtoMRPSHHobumWUMWOmFysnl9F3QXTRXVquTQ/WdwYLIBhuBqhyN3Zy9W0cQejHvPY/V2TRk7yA/s1EnP+jvhbeXTQnCc+brSnpsBUvfjbfZckEf+4GUSPZk+/Epnor2DjRqm3KrWuzgfm2gbKdD0OX34rPdcrPDsY51ihIYdx/FX3NY/RcoCh4XZb4zFNJxcjrGPjrBmjeJeYFQt8PXKbcjaBUuqygNoquS4a2xP+XV1Wj3M4BSMFUBanlED6Lqmnl27X4+S5jYURxDxxhrY736s7DzABLCkcQ0r3OewamMJqXlMcqv3iD8UgHhDM+RKkeg2ncnYdehx2wssFR/Y4IeiyMT1oocSt+AP16a8rGEoF60ExydzoWhfJlS7tlol5KHjfSRYOBoxHso3rMNyZhRWk/XBs+Z2+1UJ5Skz+oGyKPFU+FRaxc3QZ7PZl0wgsjvYV0hw8hq02Bz5b8gvgmi9w1degqlBMGjQ8GBBPuA+4P9DfwZR4dr1m5QJQT1pJlW30BTelsuQ2ZgXJACCuynhtudPNSTGVVJ4Di5lnjXPr4mYpmQ++Ar7cKGcwSKuMH0GBC6UPbs0OwJpJE18YY2oOcwLxClFo+0400HeKsPg0go1HZ2TZJgpuCR2owpIMZldI6FJE2m9YfHwBi2x4DzywXGgFXCMwETDo+Up7ft0Sy9+KmrYs7bN4B1j2IczFlOjzXjD2jzNPyRSj2SnMyZahahk+jkLR7/P0s/iO1wy47mPkV2nx1KZXU5o8cBv+5yYQvUVxO7nH9qgjuPSHkO4KOjq2LEkYdvPFBuPT6xBrlARVXvAfz9bzfxLhiRDUicryckgbVCAmRXxDDLvdbMHrT36LcFyHUaPNmkN1C6MV5fHNUpJMnLjfDOvfph7Uqyeqb+fyt8kd9k4Ro5VEw592cR6M5p/00Nho8ifQfM/VFy/Z2UMekWKI1ep463dIEgac2GXqieXSqjDRt1qQgkKbBleN+VWQq8CLdI0sHkF4CthfHmkEt7v7sTZf3PuaVzWkZQWazkDmsW+cdbJBcdBVHpgs4nqX/zRhLi8875ihEVGkxj5zPZLUpPLzZyH+xJZoGmxciUTv1lbQvDOeZ3vIvr3Q46H77uXAi6Qrh+XB5v0+E7yL+P2yveLNNGgNTOqIniHS2UQkCFVyFgVpjUKo/gOXSK+Qh6XdYLXCTZ3UIQOS7sfW/FujqATGkWPT7rxRaqbld9So+kXzRzXPBnJJIen/d0Xo/ZHzoMD98VUFAJhX1S+oblLIDGJiMDEw9TIfJfpMkH6kTcFGIWY1J1g1+YqvaXN2/8ThKYrFPbeK2C7vGOtgoAkCRPWjtvj+E/ttbHGEaSZsQI5cApnh3pgC2NlmBI0kdrWtkTVtMA1AobHth5Cj7stLyaU8b2Fy+sKEnsSBbzdYOV89KU/o90AThSoQkDOEnVAUY4h2Wok7KlQnbQuZ7noDomwJk8SJffxFlOui5GCDQpG7yP+diXsBkPNArVCAOhKNGPSSqj/Htn2Ko/t5AXIx/1kPHIlDep6BVB24CTajDoQrAMt9pY+qdI4eCqBoGRUmvjg7a95SjLRhB43A8JETlGphC+QwTGLFmCgaG6w7Sdh0l6Kcc8WtVqKsojEYJr6makrFJgfyA22UnzZhB6B4sHNohIkLShGPX9AgKMutBik3OiDrcQ/SJD6monN7NSDEuCr27ZMzqF9qLnQy1v/dKRkJ66w28KikqZYE8M2DSMdXhYm4Ym1ttFYK/VHCsQAny5o0PkgQUpgPuD/hf8EXyXv9S2kQviCuZYfEDtZEe6/0gxIHKfUjBhnI/WfiyeRDcYBgkxV4X8SxZs4a2l21PIRAsMExygANjoz3b7XWAv1rBOXcn+pQRhvnihNTmc0m2OYwTpv1JAq7n0AiCX+9GMbdbvnB8Rn8evjTRvJr5Ty9FSe0ZDwILHacWTjaDIdH/klwg9HrSNxy+lS6xHFGfonVzTxKK8OofPVReIGEgOth80vLfhPXAJjnn6InnyGF0i8xoXqr5I6ms3AYv4srCnp76vHK1zVWdWCctQ/uymtJ+wHvROQCjVBA4KGxt709sXd0c0hO4rPDAdbxnX5nyQNJRLRiNk+GJzX194DzRT58yGVOadz+T5Ipn+2HOyG55s+D/zLIcD1VNSjXQFTD98yb8okjyiQXmkOTF2SHVqpAXcQGopfng+v+ClivM01keXkfFlUW6DhKI2lZ6ttNBav/kDy4G7Vl/l9GPrBayM52fMekN3Vp/jzRPAFGJGqjnk+Diw/Cj+k8KSPUNxQFIb3UbxgTGICcf9fa4wmTot9rKg5t2vvLecbrEp5ieMsRLR/W8HO+VV34yJ9aMA/mnqTVrsh++cfta+S5OFr70oeZPVMZU2u/CuC/TrErgOoGCvxx0m0bThpekVd2o5nx9QjBk9LBqLKvlBVMros6RrNBsPA3D8UWbF0uMyF9A40GBWqbDzWZLHApG9EbVm/IDuETLVZLY+QKctGq5d8wvRXoOuZtEx9vEPHR3lReElNuWdkJTr4hKIjiQDRGrJ7VnH5Eg4yGpIgx3YNXNp9ZbDwANnxZ4EfLWNdqmSx78OZO/67BW9D8ItYNdKsYNen9Uq7/pfgrIEyK7S0bjqCX84Y2/zeeLeBqwTmGuBvFK6sawH0iRCXpJh8uqJ30PWENv64N8l2yFdxINVguxzRrrmabSEgbAznQCbGNR7Ds3B2VMSOsDUJsq1Jtcq4RKthZZ6ACCG/KT1qGWIVRacLh0TZXRPZ22gokpslgauYs5qHdnhGwFiPEFD9F4NzRq0xTB9xCyiV+6eHw4sFF57Gkm3cVHcDn5Ug0fkOr2DAGUJgxNC7Fsu3jd2EdLIv3aMTAyt5qSRutUvApncf3Ar4AculPbjn0XqCEUuIxGMd9z+58Y2VIdOQ3IH4XI3u112nYcui/eMb0ljsDqL/yJqKKdQHc5i0tN+ACbFETYft4A2T1ckidtA379aKZnWN0rBc32UtuUJovuiWQgTZsc5gqWU4QXLPRf4xbz5mtIBtHKyqnmMQdncPGvNHDYbEgS/zsYXtPUE8P7jKUelxwpD2OhRbpi59eFLnEvWo0PGgQVwgPsD6myvH8trxe0jR6xrT343FtHvw3aNOdEdCH5lpm/kMIvUDc2Nrpmd9J76r3OK9Rt545fJmjSwPZl8i4vCqgYf73Ir9wjg241RJENHLkekUtQE+hw3E2rSGM0wWjxXHwIDYzlMoBU1Nm12lAolDF3Ds8cXCCEPsmvXqrRPaikKse90a0jxArqOadQxQ6uAuWMnn9oV77cmmPZnKKFjM6MLiezSH1TlgS6flKkJlcvk6uKtyDI9hx7+RZXNPjo3ymQrcc5cDAi5K0snOK1/7Efvst8V3TQUxp4yGX7P0Feey6YnyKjLIHFTqUKogln8+HL2Zofi3P/n1AyZekvuHwV19c9DrhohRObguaTTyJTcrsUWj5yr6xOseiJ1WA5r/cd62QPEGEn1e0oWuCkxN5F5xTcGuMBG0SXDBKyc1k4me9vqci4LST1UdShXCHaitBXUuodk+5rcfUXMJ2oWvv7ZRZIS5YaGTh2EBLBakm/D4b5hy1+VNptgjA8AlwA1hghsdTsBEUdvvhXEntoXwsXUY0IFGXZXrAj0cXYjg78h8yaxV6nzCMkM7LQfZXoAF7NAOZtakilM1Ud8MJRGc6laOumzi+lMZWCVE2ak+qJNdkI1HLzGe7hx1zwELjQVYLKhsOBfAull1BroB93LzejWCyIhcJp18HBefq73ONbxHMZeGW7SUAadU6v4jpezUblyxZ4BAU1l4JtwtE9Lzd6/TokFvO98EAsSb07zFSwShulrGJH/XXjcLBozukFDtvD1mdCpvKoqpmn07NvnN844bJdjvP+32Y/kfssk79TY+UbPofP0+n+Kj1o7hrkOqPGoVje02LlHdChpKCGPdDXT2upyQZ8McSQ880wzMoKquhlgGIonfEYgLHopH1Q3wPg9NAdk4B4zhBLCkuk1YMk6FDlfOSxQ3Tqss8nUFuzbRdra9MOSf1Ds3pLchv8NbOBy7WW3fPc+QgfXgIqhKNVCvNoTCJngKYlAK00oB0aIT1wVp4AXWHfZEifZcb68uOZRSDxq8/RM8NHSOtrhxVf/d4Ce/IJJHXkuBmU+eenOPPxC/WkifQuPErpJNhyhXzsMNODFxOqMPyA47pIYtXSa2KcLSphxDpAiTIu+H2YRkdf95tVR5mG8bGfwVS5hyXeOZdVxdZEL2REuqRk9IaxhJGtyVQc18GbqFWlgVxGeRio9OGTUkEEanQ2LWvqmQDosTVtRiqSy1fqr/I3aUz7fekB8Pvni7Gd3ggQqNF51zpwHQuLd3ulvhmzNCKNFR1vTo0PGgQWvgPsD5fOEUCZVMrdcZ17xidhtP27NGaE8yT4jBRYl5dsXKingK23kwLAqy8xs8yyeb9E9DkhLE6EDVrHsjQ5ebvcBQjlfX19wYSK1zRgqKmSvfhU4vy75hVfFUXwFXveXxysDT08RGEzvNsXnivTbesn608iZj4N8jfziSuMv3VeP1QgF0RdxTukw4I+fjjXFRrtbMLyG7bYjj+Y4IKSrz2HF0NLIxHCGjJalrREhbmJKGi657uEtvrktkjFTHO2+7MUQHQiLPbqgPLSTgaPJnnUzAFOHm3PqYZmEmsmA25nDvhvf5GyWtqUh4UdyoTFN2P93Bu5fIHSSHlgo96HvVbnZSOKLfyUMvzbaMvYY6O9NFTQZKGJegZ2+mh6XjUDZgvEdtcgcnLFuvKBuD7XTItwO2H7B4/zTTt/r7cjMC04wG83ofPfym+K5Ai716mgLEq2kuLXOAcwSGdyW9tWtgk0W65TIudbG/V5GuK7EDHwRd1cTOzOp7NNYHH/HRfPfOJXAEUWm2sd8fO4VYW6TSf+g12h/p2EJ9zvpVr4q0u0kYW7wnOhFG9vsms8tdNpaQfPHEWqGI3zf6KahkBZIo4MfFzRDEnDkcrAu/E+hif4nQAjx7C4QyM4Hh0BxLXjgPKd/l59lIdbIxOGagU33qaKhrcD/7H10VPm8yltMMNr7SOFz/kknzYaKXRhdsnPvt9D1ydjtBDeh0GJ+dWaN1h8BoXGFqFEofcpMzlyRJ4CWrnA45oCHh1mA44bMnuJB3kCNxYnCFDl1toyU3Jnd/taSoLrIG2CYrQ1a19+uAhtKoASSdKH/9rBzFtcnnNXSuG1G2hq556JFKJuS+sEDquDzyuX76BRdMvjT5t0cJIXRfBqLhY8pZWKdV2rTZJ+ieDqvXltngtffTahBcXL9kGo8Ab9nJIYxWfIt3fK9EcB5X06dxasKTNmVaUYochQ2TdhbJ+3r229mNZVS1NOBA+iahd1zVGKPaIm,
j7ylf11M2Aq7pZZ4Tdk/iULjSU0JI3NF7eEOjw7FQleko6xxtk18s01TDfpfVLGf0uoul6rWGnaIppkGkwzusYD6JCZBxsI1bDetTfLw6mk9b2FRhkB6bdLpvl3KsqD3PNgzAwdXjljZ+wIyAK9oPoeu6PRW39ePzLxZDSCwfMETJ/Q99RFcqfKlKgXXh+kY0a5RuN4qKKjU987ApBnqLTXLPEmZPfPdv6QTrhWW3VdpYZuvcuKXzWCvgw4KZRHd4M2If25lPq6hr4WfEcGjVAzrkQuRsnvFo0PGgQXggPsD6N23qFIeUn0IzlIdxoSV1F372zpZ/VnVsoQzd7lvYAtNsaoAj1QdlxzF/WYNuJ707JAVf7v7F5PtFFJyROOUPSwycql4Oy6+wJq/CXa85IlFp/hKnf5CUHv8x+aJW2jVu4D63MU37o0uvV6MGv1XvdIfX5u9rj3PzUP/tqgScTtMeRIJ6s6IQAzcxul9PNQvYr3svteWRiwkmdPz4sPxNlXw4MfSVhs4l6lYZ0qrHliPgBNjX8FjjrZzoCRIODmU90qMRrc3GaRtk0tY6aUeVbtpVCQvSrG3uY9/gpgh8232ayddyBUFmbg5q3pdnkAlnWqtTxkgsv3LkvzQFg1s00ehPRgJOEjr+ZAm3jbrIl3yBFUG9pTvuKO5WeboVc+3aHI+BcFNxHufH0kSYLIdY+aY8e78oWDXtMscy1YJE7bnda9urYbOkX/Awdt6I6yD/ymWLeHcqxxq9TKg+HAviUctjCKREGPEuhakifMFacoOEZrs1RMUVLewfOOrffzB6R9tTU172VD5gADoyRturmwQfl3SqbGomMqg5vY7gLaLtLAeqo1P6MpCOu+W4F9vh91J60K69nZbBkmJjau7wEq2Ho7o6cqauklfbfI8lO20y48VZyoidMj+7iUlZlGuw4v6QMFkckEHQgObw9Mn/2moUnQe5Rv6W7QK7GK/ck0kMM2gHZv7SmW/90KfYLGt3qxhgwTbqnwS9qS6Ooyj9wONqaOcDEptSazVJwoKbqjycA2ctPMNtgwRcwT9jms+U5mGopt4oP2lx0sNgPsg9PVbhhGhz+MH9ETveXFsE1k+GfuC9HCTeQLN+2QJiH+5MMYSm91Urou7CXiOaHoMteqAvu069RSaLYBMLPpByUonmtOn6uvTRip0+rMuHC+XmVXn7yS+gOs+cCEqYZREs+buApoD7F6vBmG65sGF2CQVxs0JwP+qk6XUMj/XhtjujW+no782hn8iLSGYgSgKM4p2nsewWHKsSVDxE75FmuGR3w1Y6HjYDUs+vCi82FH4b+YbQchESoAaQSQz3KF9k3lQGH8DoP88s0uu/tdjNNT1VJZ3W4831/iXrfTXUhy4z1asQK12zqGZ24xW57ClizD7l8JNNkz7qgetuzJFMyo3Q8xcmsCFD/yVOOGq/Ia9katlcckxFjBDXkY47wL2G9WRqiCuSu3Uvu8UAcp9wniv5pCL9QI2WWZzNLoGJGoQveRU1KbKAGuvnJehFIFsu8nr0JAeotFh5QdEXaYfoql4s1Ex6prhdnA8gkFML5y2o0PGgQYogPsD6oA35NODm9AsBpEIwWzVVVcRwopzYTrEeTRSQTG+5oF7PrM9BRx2R2vrJ9gtSk/BT7X8t0RlLqkEkzeKDBSQSF6csw6plzFvgCYAdyv0IduEau06NV4TsDm1qUbwGGsMK6eUcnup64IXSffYaf/e4c3DazkeYQYJO/F8gPJE4cY+yEVmm4oetxXl5/rMC9JtboxMosKh/skzTOwWUP+5Twp0mQolrQ2IHgAanbjFb07HSpLaMIV6i7aOEQQbrTTFazL0TAvf0ONeY9ztC2WDdAjAaXCCPtAVTpZBKyiqOk5dwrstGDVsG9TAaZyi4oat2L4vUzl43XiXd9K8hBrfj/q3CL0SI9rs0aEjEDodAz2DyVPbeXTikDRICXYZlCXjwCFmr8oHvAuUxjMaLtx142FFHPxEe+fjsPVas4tco8B7RbRP2g7yxBvJmXC3+5syY5ybcN73VD14aKEbmWKeShSHQf1tTGoPFUToWsAyhz6YLoOU73SJx2mNlAc1+iWnLnphMlkP1ebhEtTZHQLlMJ90GXbKuRqfQVf5C4hvM42xq8KZWnVwxO2JtJl4UUSenggCoNchBhGvWPUTZIUgMHjTryTpGjcX3ghYjwQbNJCXfj9jkZK6OhpS0sy84IxWCGMvRqhNoDKzWQQJEQMs0r1yWP398vj04VaxYIE/DC88xmqfwGc/sI7/RNeAPuroCK/QMmvKMQUCLzgyRZXpIT0T+RyOkd4k4FPMPdz7x3YE/fCvXp8b1pL7EQ3cHRnIqVawWtcRC3pvI7h6Y5x/LFXSzbNeomiRsY8jZn05cNY+ozKt0fFIicOiGMHbm75PsEkE3fT1As3ifszN6D+LH3xEEyh+Mq/68uo9XnzVEnWFPQ/S5MxDLBehQa48rEj7Jb0mmNI0cB1iTLkeIwj0cEHIUsyxBCQKMJkEENNl/bpVAmAosuS/EO8TvXwp3azp3RC7V16Cs20EnuXngXshve37UlL/IVRXChDMjXmAoBJCwfwrwVkRKEGX32ZyeFQVUdDUi7vq19WILaq/c/MfbNMZDB4Xw/0icKYF9u3ucM9v9tXPraenNpfKXDfNp9/SmEZhE0XyBMCvg0j8wCx9lu+t8tmuOG0py75BZHakbYgV6i1s138GOZ9KpM8kxIasQWpZ3+SUttL39mB8gxsiqtkFhGoRNWW0ucQPXw0fER30GN9VUXp/HrvCVw5EFPCYvEhL8nIIVz+v8XQf15MWPMGEVMyIe9KiksNChYOt4e7eJm9/RqVkCy7caNt+7mGdo0OSgQZNgPuD/Ar9Eubiap3Wg/0Zzp8LXFL0LfCC92GPoCzhP4+8nDfE8v2xpCsGYuLDgYOrfaEGlniFGbAb4/c0PGrtbIua/OntlyPrBEJXQam4w7/TKz+kXrM4ne2CpRVhBa8G7famF+eyZV/2W5bWHbrCqJcXfNzHdy8BOTF6ii2paLus9jhZ2D7IY8R9EiwoT1cXizfqeNPTmq/e1i3i0b7mUoZy+LNKaaie3RafZSuPkkHJ+iXbTWUuM4cPHe1rHNkzehECH1U7G0zCMiLky4M0cOiW22I3Mw0z4AlKt1VGgaMzQtgsMOQymSQEp0Aq84dCJ1Her3e5GtCxyYXET2g1u6oXwAWa2ir16ukukd8rdzQM3LUKzlRnAhPgWZ6qdThsGI8dlQP4axQgCtFVNDNJu0J1tcC963rAYveXgHKamDzWhhSpVxAvm/DDZ9D5s6r1hzyNCX/jkX/fljLwE732NJIRXTRnYu4sJin7RC0DgpL01jwiPRPp9h7WRqIPVhL/44ly3sHwcx6h2ZPsAHGjHUNuNz1Y1y1OF6p5a8ECeu5XoNNDhMMtMrQLXnD2l60Pc4Ms5nDac9O8eb/stVQQIggcjtEmxyVt76GLEdsoHTAsa1ciNNaYMmJmxcB9NSojJB7CyAOWT+SeuXUbS3jJfQ0AVh+KZsGup2RqpXKMqXDgH988yTCXp+TkxBa5AGEKM15UvQ4EecnOk9pagQOJ3kPJaPNLQfsmb3B8Yulbo3eNnZ89LT0/g/2F6yfjlEHqCsqbHCnN514MlzxV54DlIVCzYaEcrhgCLNlN0T+XrgsOVbQyZ/bUAzrHlTlDTPE/5fvXdcoijoM2Wk6cR6fdwR2Gb/4kxUkUgNr3SEzfMDrykxPidCZzZU0cJzFD4Z9p28hRB94MqT4Y/OUf/E6QJVMYQG1NGago3v/nK6aEWRSwgLqX6FXZHBR2S692evUaRGtXnMxHEz+Pz9M9EgNPhInlhypyXckxRWkx2Jf8orJCjq1iURONrrnbxoguifZQ+NJWqXYIGXmShj82npnDtvmWcRHADjWmZJ86FbF61dpP+xUgSyymZlKkHupWyLzKW3+028F1zvwI3CC3R/1/PbK0QLeSXI9PjXrCsr+DZTwVuif4aFn150Gphv417irkpsO2DwsQb/lZ86uf4VqT44HvypA9z2h1hi5zJ7SYMfGfsqa3klbkuyHYl8TH87SjQ6qBBpCA+4P+E/4L4zUnMEjRVCRHjLlmYDNaELtCLmJAgPCK5sGek6auqt8pR0WS7I9gjmqspZ/aJkD4RqkDAlnvU8iyV1H4ufGGR7V2I9OG817QNZblkQpIJzuKDstl0vleo8+NXlZlHyhZ1V6pWN/6dTO7VgeVP4zvuZEgsFgGsbfmKYoNl4SZH+JFrzEWHda3u6US8B5zvq3+XuYurPd8WT8pH55gECBAcPHhBxlFSMSwLmguVYYbkPj4+P/UCI+prU0au3PnAXT9KbVKbWOcWOcR59B8XyeGCu42MSW3OaU9t7Yb9D1Mo6IUtHP1b3pVRBRVw2XUW0KNOphYsP5CRbY34wGTmrDBTXhppzueLg9po9cwCP7StLysrj+imdSA6xW3cvkZvW1+goBeiU5hLAe76XHYE4D2fh9+JmzyHS6/E5gDeosC5HuHGWCg/dKlksGy2aSHW05uZpT9ybsfzl48VRPmg21OsAn+6aPNtPo1XW5QJAKDS9EyivJsgNIUF3LSRIGygwtHDdv/3YVO5rWmKhyNS2fQl3nxGs3DBhrtWJkGWBucVBc3OWnYf5jfUzK53QMNhFFtG0TGf1s9njaPbWfjbv7RCG3v0NhqmljjdXrX1yjZmxeR/Fyf0AiMWF2Ux4BKYjrs4k7OuG2O8yiEtQ5IqefCS3Q7z2HEmg+O+HQYmJhaUV0tGIvpb6cG5aqW5uzI2Uy3Bex7Zz+HRJu3tPg9Pv76wcFZjvaAEzXjgd4t3yaGKvgWoyjaKNNQvCVhueU6xyVc2VUBCTb92wGXVrNRzyRsnHseyMtGyjByKG262bIrJmFZAVMzcr/iBZ+i5tky3FzKBrqksdm4A+dbcGXTmY1PPMf38rkosPZNpbCruW9KrDJzRv2Xd/eRjXGe3qzQq9C4yJmbZYZRkf76Kzsv+a02InwvUiIOsEfds9fj+JAm3xktLD1MhinjSGtUPZNd8qZYoagzYmIdayHSY0SjRTG27GpP+cmdVntHfPBBq5cd1GskGc/7aTFDHA0lqYcU2zEWSa90PnKlY3xZr+YnO+3VLLZ+EnaVF4nRBO+mXE2zEMUbnzW2d4jVCvJYDbD4tJ1u5VYuAqNKUidQAND7SGRFojjy7J+5SWKIm4w96hoOfhBw/5MZDVgmwR4dgj1jc5kfuFDI/eE+YtwZ70StScJmnlK9ZQJohIjK4LmO1VYgvkjhfICH7xtc5b1wAqKxaV0FltuieYcT/E455lOPtsa0sKNEIoEG0YD7g/4O/hTjMezvorn/EeS/PE1RMu2SykLuYvmqS7q6yq193EoAPZbvtoVbLNFgS9H8ViWwWTdp60HJGIe1+/0jeAG7gl/gDrwlB/jDeJYPoOLpKYVA7uHdS1hV83pw2qv5kvDpIm66bPEfNRcOXEMHAl1CLD/DWSlMfoc3LRsXkiD+x+94sTXfSVKjUuOuXO7oToLSbPjdXlG2OFIQeF9joVND7cxdbKqpk/ePJij5hAqXyNcZDhWdwOZlXaDWOIAgRarDtE5sm72VTvk6FCcdu7MM0zLN/p/X0UHhx5C6D+zmN+jz+unP6vYHssFsxrDJSmtL8gRS9VPW/TX1cG5SA/Erhg0v/BeX5o/b98Ij3rzf9+rTEkxO3A8/POjdR6i2p5DlYZ6M5Y4IwoOlr8oun9N0+IL/QCbsO2qy54yswcV/BYYFCpqRJga0fXRao1yihjzVf7l9CthK6jRFT47jEkEjPlL99GLefsgoMfFlKGmfZvBXitNFAtsigU2Q7azNtpwCh9pFJiY5oDdbeN5uOPqS+JjoGnrn8nImn3a5F+AwKBbKtL/wTZnqxBs1oIDWb/LIM4HNqAkaak58REU5LO93BYYwEMSne/pqdMjzTrAYYTq6wprmDsOJOFuJwS29EouX2BAM9Yz8r4y70ltIsewwg5r+UcqmOvcpNGOY801jd1JryM4QKUc3f92Uq04WfYkathfF1GVOfLWdIKhoHpYxz7fyRQy9YCHJV0E+pHD2aHuA4UjOc1yakQOuU1u872HXWbSsKmH40bg//IShZtaiJdqODLsMUZ6qCxjTJthOQH2jvY3IUo3apneg4XzB8Kv35AovTeW6rO+U+6T2sODccw/2vNuqunyFfxEaAQqsJBQOYcl4s4w+GIt4jIh6sK9owEe5d7c5of4d79rgxvUzrsE4Tn4+2K7PVok9uVPp7xI3j//wO2L0XdInEY0UqvrN8vZDEyLogTikn4GXuuaO0eZI9swL8gcl1aZmBvolf/+lBfdeBeZ6lBJe/G14360R+wZtiInriX0OQFVs49HTLLhTgh4BhBSbI6PcoR6gPDR1WS4TnjXvxTgan7fYnvDpuYzy+XCOs0poRWAi4h937PTP05mjglgpsmeQn9srjxatiaRIW90hg+MOdiIh6gYaanzzNKFSZszxoGTHELOQ/OMfuGfk+REgMp+7DwkqPDQ49+nd+jlV9+3e2EScHREaa6olIW4iG9mRnAGFZm5Mbht9Wdww3SvDda3hcYSu7eKd+D7tjnqcpcvP7QduHHHyNa2j6emf8KBm89vVb3V3cYuwcDzx/xe5u2znqxPLvwwRD/t6wG3aRumRHpJY/haFxc4MGOif+jBbpeltlQa3J9sD4sz24hYZLroh1Yu4tnyDqnH5tBI1lZtNo0PKgQcAgPuD/gn+GOa9BvExkWfxk2e4y7UMtsalgaUkOU0SgctCW8AuKlCjVTYfXyzX5OsGq1hk2990/+1NHwbR+EJPJ8Gf8/pAXbLQfimpZOfQCnKUN03PnGhTQ6hiIcDWTVepcM1SUbX5BAas1302qvN/MQodfdc49zdmaXgcGiC5oO832mRQkoFqGLm+RLGL4DHSqKC44G5mlYnVo4rn3MDycwvmBGy2hy29m28kQW9VzBYtAoyyXfJwVlQ4PdmScEkCXryysXLduFhvVTdn1nnWAxNbWDm71gt/SV20HiPGlyv1y6xKXxZZ1+cfvkaRdHt7nyu6UTu4h7+DprRtMZAP1iuAWGbOSB1lK+b6L7srOB/JlyXlcsAQwI+BbFm71HgxW3w3XcKpveKv6oLGLEDZK24t3fcgwTsvMqlLAqxtRNhBMTws9pt6d0oTL5Z8MGqRMMfqM4Ui8P1E+57ZU260wxGgdS8CLwB/9D57eFiYcG00Ul0uCu3JdLVlgS1DdWICqkGW+4KjH9l7o4WQUJr+HTwPwqEj8QDt23cqUBkcnK1yNZ+MLKB9X7gLAeeqppW7yBj7ukNLiK9Ke5dnjhumNB2MdxDOFaM96VV3SYTZmcvrW5y/p2aq1zmyhZcdAuSFSxaiVz0wtH9eNP9Tgd2+3N3ofl/oCGnIQmlN0o0IFR7VhChMvn0D/m2FunH28Qaln9j+H+keIf0rvBAeDYaJMjb3xwN2Hlov6OGGwDsjuhl+CKnMdU/gZhD5Vp7cSs6zYQzsiqHrsBXqK3rUn/ALMtDcED3KXars02u0SsIKseGMQtJASF5RGwMvGB/tjoD4wKIen9yjv972TNeE5L3oqvVkr0MbEsR1F8pCFb4vnlefWMHq0E0uwfKiYzakIZdAuJzf62sD+ZI09fN+OJp15elae/Jwodxmpehi09ERSSEQYSDHXPm6i0npbFt0DLC5osIPvljRzGVfcJnQwsKmJV0AePOnlQH+DtlcYXztdCQ0zyi/3zp1RukM9pEhE6mKdHzARx33IAAAAAAAAAAAAAAAAAAAAAAAA595/C4dRqT8HtDkuj+uHHwNYWmZ1Hl+ATPeDhQ6RQq2b+TsPlb3jFhNKO7BQYvgUg8sJmK/91AwUPVU781PN9oHmg0+RYlXTXWUJo3vTIwoclr3aSHFs42FJrLnCzvCAzrnnRLiDnxbdp7pIQZC3lcVR/ht/l3Cbai53olv414kx0dFdzBhaZ8nb1B+fZi2NyjpAyU062ZrRhDO+hPt1DG56y+oVPyXdsBgKaIWZ6NDXoEHS4D7g/wJ/wdoLmZ1gn/2kdetQOp/qsdvp5fX4iKVCkaVGFQ7zb/ei2JMZCqgj5Ky4ujKe9Px2Ch8TjV5xhSIACjFlZVSXfbycrsFw+752vxFBEmboHMPNdE7OnOD9M9+ZX2iDbVved0aMPLoSLn66I6IvZnRFa6RcHgVqGj3wtToxagqkxkpSk1vmgCWzBnB8stO+wlb+oQwzLM4K1ERdEhTkNvUv5467jyPtBzDNNL5MG6f3xBxA1NFy06AvJLClaS1ZeSZ1TSHo5sfcM53yEoiyEwOYHj8DoZPHscPM4IbfuXIG5b5thuGlrnkLdF6NBeH2cdc9aBkID+oXkkLTnWqqOX5xMY/Ux4EIXJPMueuus9xof3073+vna18fF6apwC6ORGuL0sDvuLHji45j7dQW2oyg+KjIICj12TTRpxSOPbSGBg7i/poR6ipPYjvTwJxy1BET3GYSOEcGGjv1s72XmrjDw5UXSN153psHLCig9nCQJVBz9s4kWoxsZ1eXokbdMbw9niyfle717+at/ypeyuUOx2Hc2Nsl1PbH9KyDy+XlrRAxW6AKHqBxGi18P8ddP/TaDf6Eha3plkFmDW8ak9lW+TzKLgu8/77Vw4kDbCXevdflHvGhg7lUoDxDYX77cIVBQ9PBZC+XZEfKVEBo5JHCwdLaJTtS07J965tNU2peHlMAAvW0F1W9OaY7udr6uLI8QDw8QqiTidnLjJshZh86m3n8Rfv3D40MSVU6uOP1Rx/y9UlXyUv8P6ppgIlA8BQE/PUPmYsSRkeOHyOPjKbXSheMfLIIYvBaT4iW8PWtEd0EvSue/cnVD4uN74P6/2rZ71p/sHqTFWcCz3EdClmuy+hFLYQz5dDlOQ10P13ekwfuBHGNOBwhXnrVxLhxD2Ou0aKXomKT+USju46FZZQoFPgmY5aC3rCMxXWmJglnCw7V+Wx/mFE2dJoTNgBw5XvFkqFb6ezuFeY1A14Ff3wE4DCVs9v5ACT6094gQ3uW/gFfKU3ys7nO796lqbA9/0JxEPx82NC4edu1l463KMizCgF+GyNw1iUGzR5G+RqcpyiY4fWIa8z1nl3gKh6X/ihROKr8fyTDmaN7shg1UlAmS2L4/166ODbx1T+mhml+BT8Osn7c/SjQ16BB4eA+4P+B/8HHo+mMBf0jmp8G9/aAjbPhPgVWakzfRoLgjAXxWAY0SZBEsSNxgVdXIJZ5E2ExMx1UKRt3oNmpNX5PROcSxN7ggNL96pBr1WRp94wubenneUR8E/OJuUQ31I9rjBVBLo0J1shOfpMCNkSPqjCWV7s1Bdh0hSYSKSFjAcDd6E7C1ysezD4AsjBPU78gm9MRfgZpbOSgMPaNrQh6i5iTuW5A3aPzq0YVu7nJ+u4iURkypXlEotOt2g6Tdni1bdRXxzCotbxNapZlPzpdlouyCr3fkKD4ncd+h975yJcz8jBL1ObCdIpOla97WnWPCVpLSLL8b83CRuZ2mnhu4+q4F9n7ZC1jPGCH82Z19Ff/0cqAxa729iG9mDrvDARFR2zKFYzHHz7eMI/mqsGb+EmoEO7vi8dLntlhm1RByOMMJIjmW6q4nP9Clidadu/2xxNXZjC9FT4rAlY0WMaiCT8f3+yOYXqq/dHfEk5mZCt6uLgQ7OuTKLNpsiTjoGkM6BqldPNhwBcRXxdZM8wDOo8m6xN7ujbHXZw3qLBuG/4DcBCpdo9CyroLlDx7HKCiuyQrk3QfuXA0ydr+7cLv/B0vRUdOb39w5YOdHzsBkl3Xu4nVbYMnOI5TqiyA/NwVLZIbGWbTwkqNVE47xwNfrOv6DeN011cLPAzzBApFnJUDfIP/Gepb3lajC/mqZJS4rsGqKHIikqLaj36RjZnIRn6E35RLmK5OwqsgSneD589D3DAa6zQgtybWVh4jhWcETsmJrF6XiHs/v3oRU6uM4I0qBjKPoluXtJKNNFN99AI9P/QyzMUolppj5b3hVlnZQ1zbVaOBQcZn5ZUhz8NjZvU7JAzkqdjGIOgaCFYw3HAy17mtyuWTU7zFsekM3LrylPx+tY17i08oxYZpgdmlIXvaCj3ThsGDTkIYei2feiP4Rmwv9Rn08AFUILfTn7gElWd5stIv2CjYrUREGoWLt3y3WQBSmdWulIPJHYdeKZf2ZWOMG2waYXU976xaOlAOYtbyt5jRlRelYWjWeYYLxtJZQhp6xxqFiCTzAfeWZ0sAt/XKzkD1hym1hQEcAY53O75tGgEVlHxI9/oPaGHQah873Fr2a8a6r/indwYwNNoE9NtW4VWWiC6o0OLgQfJgPuD/wf/Bza7OvZTI2v+N+4yOHb/6wH2I5aHR0Kt4Z1VTLJjfnk3JzopBJEh+BkkC4btPukHqc6zlrUoFRugtZ0Wj+Yn+k/VT+bWRI6mx/XXLHFX2n+fBIRLcgJ31Pb/j/eVWYl6KshgVS5cu3eI+cViia/4KW4uDoxwjap0MDV9rhKSwwEV2psdWChhaAYPmUWVxMVD4VYoVUkXEQGcSNc/4MWKEMwakKn1rq5qPTAcwSVmSq6cHv3uTkfS59TgDfFbLErL1rIxlOYjJaiRnA1hoekcMpe9rm06gjqKMFi2pgNIEtVWl9Nr5jZvbkQmjSsOxY/96li8JBzPBPs6VxJ5quPG1KdzVQ6fpeMDmb9HSBqoayvELDpUu3iKZuDP7XQ0TCzlhlzldbB8QrJw1d+hu69D/HUpln31LPUjlD1pRLcgm29NSO1o9D6xWCOaiVSePwU+lONOgaXqbBThi+aK/hvFVBw8uJezpS9Eppis86kNlCm5TtpclrRxsyvNRtEr7TOeboBu+RFKsSVYxR1jiOsAewqlQkAOv+etzv2BIXa0ozA/PFmnOdlRLKISr2zrJiz90XSK+2uk6B1BXcwfaUCzy3ydIIfO9g0vrPwXvMlq2BIsag2Z9oQSSthzx8i8uOSinIf11HXFPWzi/3AHODaAPG4QjPDoGwJXWPBYsvrlkI0spi7FlMhuILs1T0sH0H6RhTPkKhI5J8IC9kuMev3B0r5wW5iB+QRJ/d8BTY/L5x9HQubiQv576GtGK4mA+0ck8gi0nnDOjUMKe7DwMUlsCxIbiKqTE5f77yCFliI5VL/iVR9EAbVAxvqmjnY6PHXmx80nnmMkw/ZFqMyumcrjQUC8C4/fjuWDnIE10wH9qKILpl34eEI20BbPfOAKLU5eNkwLXBG0eAfnKGQczhIECYiJceB51FwBomivWxa2TqBg5l6L+hcie0c6g9Zh8/kuT8lCakZkVZ3aH1BrtK67gH//aGe3x/vC9gAucQSSVAiSbC0zc7fjBj5ca6JsYKYSF9PpanmpuKNvvpIcFhN+1e/l/1q3av6wZQh/cTAgn7IyucjhimFKKrmUceWy6NSbbUDp+CghNLEFgaKFjZNsW/ZEqBNFBXqy7oEEKzlSTdwjbkEOywV6ZYISt9t6yiEWeiogtV2nntO39Gxw5vA2cRC7oyX5rLgbFH+Qeeb9APUJ1qND3IEH8YD7g/0L/Brl7vybPMX5SCoReB6+KRcAbnhKjD9P4IuMcEfnFPYpNfcKAr++OgnImwHUwOi2jugNQIyN11aChIOFsIpRWOvnz+qnWGHKjrfgBikT/8k707PEXNlDRhp8tIqjw5s2keGN2dR6RLq6wcpJH4USwyVME5aYms2l7hpoO1q1g/EMLHl72DLlw1ZGTJHqfQ6JSTQ42cxpmYsQOG1OsSEOnRB4bQeEGbSsFeVOltCfedBPQLKOAQQrI6P7qk6RTIhgsaprKxErkxMBifaTYmBy3oih34bHWL5qApOHrniOdco7gDpbSx8zkeSR5UVl+YDq7wUSZGzrhfymSNXHlVoPR2PHPFDtGIZQDqyc8TgyFJBJnufHGoRBxxPHWt+p1Wzqhn3xtlFPm//DKcd7BkJO41PiE5C7nPy/5heSJAE9jYMGKc0TUnH7UvR9xAcuYl4I4g2Jmwjr8Jk6Vvj/9AODhCcsxLV3RJ/4J1jXVqWQPjOne5YCJ+9iW88ZaKWLtrHWYbTChFIqqhInu8gKchLPpquwfZ6XppmP+h+yPbf+V04UIBICVOpPE0ONGZ3xn7/pn72SOplCcY/ZA1GePt32Rxtu93rq8XqNVZ5WEiVNJ+rzaRTT74eFq2i+jCvAjsevVjRXgFeAJnds5Nvj75h+K2MHiRDiG0t7ju2a75qkQPHK+7+fXHh8ssoLdaaxKGhIgiQhLAIt/GvQEUR30aECwYegAlkYXniMUNH4sUMma9HBk7AE48RZcR0jBDBiYXDFbKWXNPVPvUZF1xBl9AYs/bCds1+NcuqKlznyC3XLyyi3HVlpPTxqrm++4JN/zNY0ZbJ//XjQTokx4CVd8BXUk83kHrMa0ruZt6909QFCvQqfm+yIs2aADYqZE1t0ANvaDhDlgZDKzU3sxJ/Dt+49oujYnrWFbKDtSnnBKavJJv0GyfzZ1/Jo4H350h709UfzwSnFYEvXo5xy+o28U8UaaOszerRteHfvER5y1yf8BjiQQu01NJHz4LnJVkuOq5ZNZbwDOx+LPcmPL/Bx4Szd77OQuhnTPHEcVyUq4cB7w9NaHG5zUfnuRQkllq0luQiUHJptmaYuEnxKhQOSH209C9XbvZaQrgkQPFNyDStoK1fhRW2ylkUHvw05i05FzWYdPLY5YyxjpC6kGxi6Lx8j71VEeHm1JBmqop8l3UHGG4JViD7VsICIae/DoQ6ANy5xzajNTuMBeGAbt1+9/Tf+5xWQ00TTYoFlEkH/280nndhegX25ba2mpzKhifF7mFbddLCsv56sxhC+kvpA22WjVduEIw6jQ/WBCC2A+4P9Hf8YefFDeUlTsrBPFN1XvVMBBOQ2fLg3ppQKIVZ9wLqlemmcvq9TcaTLATNxLpzx3KIWhe2nE1E4MMXxYoUQDySe0gbb1Wmi613ozZ1YLzoIgxyabpx6DbOwMkF433TVMumaTBb6xWAu2K/GtlxaDdhWrjb41vcxL6wEwCTMt0xYeYHgMVkFR6aennc15uP1FG5UOJjUisZWTEY1S7aCbuusT4VSPTHZjdXmHpbik3x+LZMB5ddb++d9S0uXA6LNnjo5d57d+2LpW3kHZSm1hS5XC4/f7dtHzWXfDMnfS79MZow3YIKG05TN3vdwomBFFtijxMgDwgwhNMxrnt/DZlBUuZn68mz2o0ekhX7TU993gghs0D/I9mGg/JnAeXbTEBEzmxKx5rTIEjzRcpCQoplZiGNY9xseKJ9+k7t5sCBdFM8EGbrparjn8+BR0R6DOI6EVvFEUdyzor5g/Pq9GDXtJLsDxE8vRJqI1ab11KqL8+bodZvrO1jsS5YlthijS1jlOZDO0i0RodFBDOPcdXDJkCsayh3thtvH3CgqgcuR4PzdcMliQxI/8e5V6Y1NBvEHBEVAoXOfuxUS3tbU6VAcJXNj62qcCDGRXEo0I2S4UTtHbtuhXE+WZNCnJL+RJ+F35VXCzZ45A3WCDeHyVuya+3ONHU9ulvh87Mz5O4bshyl6zjNOO0DBDvWIGagxSlhF8OxZ098++q8EB+kY5yvlJXl7L0dq5Bm54j6u8mUv6Fqxhme/m61qkNmU6PueOu6hZpGniH0ade/NgW6lX53aRnH9ex7Z/wNXG/mFuFxjp5onqW8VV0PWO08miG3tS5fajMEpc9WSL5TCVKIZvVZRtdUhauWxt4OG9RCvWY+D25ljQiOgznf0FHRiHLfUptAJHTbkBVuixr3ozkxyVmwE/MXLWi+2DA86qk40rtdT3sYLWqhPxnIRvAeLYuZTO3VH5jzmy2kXn7WZcQ0M1Wrp4sAfxEpzGT4DoXI6G3/yPE/ys2NR3N6cErhNLM31YgtT9YMtW0oiZAxVw18SZOYvIE4YXFldloFVMpj1zOmw+yWtXmLH/eF0FeVbTzSG7AOskVYPInf6rDd+2wy2BKehByyo65NbiS0Khcg6GTtNRycz6hxY6wOlRdAdJWy3D8Dk2yjYFcWpmG6pVSt4lS/OJLk5rz3nrtv06edj+zO/i0U0VKQUH1FZ5ZPnvDVvOhPapju5oTdnPPNqua5WTjBs1ASqf1Wp4dDpmtI7oqtwK+bmnHUvlmKgN5JQuDwH+77wNGRv71HIflLGmdKADjTwahn3/tDhrp6SjTK10f2ZWBo5C9tErF0gC+vCyaNEpIEIdID7g/8H/kHlWWMvv5rzaEIoKAR9RHUDtJriVPKXAuMZt1ORvzIed2N6I/F6Uob9gi3zKAJSUilPvUR3B5UbqRlGIQDJ8JDjiEdaV5Q9qsQTwqsj3jmtVVmaiQJlV74Mv74er5U27b/QkO2gdRq4iG9ePwabIFiycdaemrfVxGyceeGjtLXvzhAYz/t+c/NPwcTECzZMk9FQ99MEFRY4WVOwd7R5i6Xba/miobl1EbUUXphXRw8m35U9hExKML/kFWzLYWHkeOL0Fo88Ju4P6juuvqf+KCJ3XPC+1JByjJTHFBI7Iof8b3JnTyHQHv5TVo6aksdFBpKzdOJccYYdNXL2i43pXZQS3W/Cbtbqeqdzu1JCcL6H2riaJ+GBM74UzDLTd3dRVc+5JHkIIAODWV73OdjkxDk9Kj8hmOOct1qOxuf16xu6AwRBSrpSKMMQy+YunIqJVLsxubBmooaCg9alFc7tjHjx9I7oGAIaF77NhW8V+F73dY1VIiZqNTBSo1LAiuHmMIpyyrz5X32rv6JVaVvKJyriX9YBBs751aBXqbET5LL62GhZ7MnF5IBNCe4DfUB+Nyl7WPUlVu7RPQLL4eqMbtsA+MdUUx/cl/mDcm1AYdOvh4gaHKqD/lCjAzqXeRIIEfUhRUFKJ5pd/qI/P5QLEZC3LZCd4DkEKYdKbIkxkDr8QBs64TSfdR/RhCvIJttWVzheIBQJXq4yXk/JUhiGhTaqjqAaZuavPvofAsRxsp/BZNi3yQWIR5/V9hGtXKxZ3FwET4OpzZGtnYIF6XIuqaRg9vfXAfxbdN77YKyVVVItvu9wbL9PpVTA9zuCD2Bz1Y/S0eU8bDBMgm5Qq+6qA1lmEf9y/op0lIBPq0kiuW5I+pJ5rccHzqf763n1NF4bA2+6Sci+llYNi8cyB5TZBwHbNWm0cEOkLvgfMusYxeeKDchycE2+bJtlTjML8Z+BTGlIeGVs+2JcZFE0ByUuLdENxRXApN15doRHGyyMu1hqF+dbfqfq33zpC1twLv34QhdOBqbY9EiC+Ksi4TL8dlDJu8K4HnGI12XGm693GXAjF1fd02stMQPg2p5JVjpzEkAVoLHZ1bpaRhfM/N3fz0GW70zayjAa3BVd9Lw4n7dKOhNT6cBxVPMiY2tlZe5JZ2FhBV7wGU5CokXTKFJWTTVUQ9fT/srHPBi5HPc18rtf4ZTNL2LQK7Bw9mr30FkqxWRhQGa6Z+x7KaEFUJ1Q/yaNBgCrPoL6Uq5s4y78OmIXaDRcZyyHgLQtUAAAAAAAAAAAAAAAAAAAAACs5Pbm9fmliF6MGMlZHx77/KJC8o/Hp10wuMHnnmwfJUKZInMCKa2sNEAivpy45w0QanSCI7Gbv2R7GaD2PiI4eIJeMxJKE/dLcByIKp41LcoQdxHpkgbamasXZ7jzSlVhP6GEcHaA1JGqarTWciyR+WB+DYWnAB5zmN8r3qW7O7C8WLzkcoDrXGLo3Ots5mLgOkOp4D9wFFHC4z2bTxwrWgDEDXXUYeiu9eFBiDIacSMp2yx3zVOgYZMRtizNNlOrol6D7stg6WBVYLm3z7tSP6NDtIEIpID7g/wL/gbnwUICctXGl8tqOF94g360mc4I6YKuQELDuVm+OWc4XLmPurTII3X6DsXOgCWZRz1DIkm0epIEKebWt348Fgj2cIs4d2gOtoBr1o02h3QAcrO+lhwHKDawDeLKkinDyF3NF7SFIb9zBCAjSCjlA8mREXeCW46xaxWsA/atNNhNS9xQYWnZtL0KKQ6XuoqroOakUuAke1mfE4gZ1iJownyyGRUwI+Zd64UVOGMSIOvGPj6nFJHdIi5BHYD7PiTDeSyvDMBdy1X0Lx35LQGvqItmcdl/hcQCuXUQMByrI2IS/STUzAdLBwzb9T3ddkJ9rFykSURUFKrDn+vngk+t6BkmRcD8llfYxgeSGExIlDWzw+CcLcTl+LyFUorScBN7qhP2uFlcyrk7PjRvpA3BDaJENVMlBXaSVgB1+BTNsf+BUCTjwqmVlgDQLjQYJ+dXsKty9fI2Kns9LZPnMJ5aRVC2smnkWpnmdmFD55610A5DpQ6clN5/RabpsNyfeoWI39Jyl1Hqm/AjJHJUh/gPoBBImP9KxgxVPU4vvsgEOjT4yvBs5E7o73VR+FGplM0jpZRtBm0a1lBqDJbm2bsBw3e/pj7aE0nnMxgPs5rKWugiCCBQP5eTt1aBQ+sjqp9H451lRWW4D3nOHnk1gFhKM+Gz0TpGT0il/XRlpTzbBT9+yQFwqUULGXYh2tD62H6HSimwPEbVNbh3OB6hMUMIoev5D20zdAUi8e2iQA1m2orzCQq/rFO6L1jEnpjrIDYEfDyVeqg29gc93PMhi6Ekz8Ew4WzHd2uogbCyyydYyUrTRfDkNOl2WKe9oxgRUL/gbcNhKcDEvI4+V5aNHMZ9pd5LD0/cEeMA4Rnn4tRxFEmOfKuM/luKWrLPUQ74ink2ekLvIp8ap5czgPt2i2Kp+g8ZakHPjNuTWTusZGeDWA82MyknuF/d+t2BJr/982MNexTyq9z2Bxyg6SpkJv1AnzTWRov5o6dy942J6J1PXRyatl3Qgiex0tX7/i2/F+NC1R2blYDnGiCfc2V7nSsKgJ8xdWkHuVmZhvKng8ATW0GD90VPlv/ZpfbBXld7mhyJYDupVqQC02fdR8cDbLQRX+P6/XuuPyc7w+v92s70w7zGIs6wGsIXU3nysgHCUC1sz5Q3kNHak58MvQp6xJz9qknBojLyNobpfTwVoER3370/qEixfbZcGALGd1WV3cF60S/b2/ry+QGaQR2s+PfFTtdpz16EQ7npPG/Q8KND4IEI4oD7g/4N/BrVwf+ZeIpY4f8wgKInkDdSAkTgKnB+PFFwpiN5IXAo9Ri8eaEvO4hNfDGjQtUwfD009tHxkD3ZPPwBfAvicfFOrhixRK2H+xHtONXQ6uPIDwrmsvLaulYGPV5w3SQbqWhm30cNZfCFfqhiZoqZY612xNSV86KMbuaZDN9bH6PkT48//VVph41P9hIQMhEQXaB2CXVQFBfO5/S5D776kfgsGxwucasv6X1JsN9kbNZJcX4m7d8I6PKNczfQakySqK1UyHu/kkq6lw6YxD2oWftkuUnrTTapQCKs+kljjQQAYOAeKkPHJ+tgX5RR4RfT8g/ObRdHIEyz4Asd1+wwFyzarRmGarwbdcpPWxPZQvN4rIgnJeytInpGWKo8HW4iqYUW/Vk3baZ6wA2H8cK2PowEWtB7SPknqyEXs8pz1LRbR1zAO0f/xFJxYYzwniTrVXPJhSRiDHRjExkP8fXeHlyPp6bQ5IAbFWM/McrX5ffgVGmFtxWdPv6f3aWiUtHF83LbQTf6s2bnRwbDd+OtcfuglC+7cuPsJrBI5dsn6ZHT9gNh6QFYLa3rEjkVErrvcHaEDVGVWSdNEKkeWlx5RDxyLMCGjtDtXWe4+TpMoyHxzTElM2rn71t1mKb//cjb3RS/qlOJL90CS31mMf1XsU3HyImpFXrop5uNT1O6yjf+RFMvKHjzIfMUp3m7CR5tVZatpvxup/EK87qtiit6o7rAVnUnMJxy+bzMA6dvtapwskjz0YR8LGqEPqza67pVMj+GZrF4q5b1+qXpGD3/kymybB/I2FXwtT0HjP4CF4E7uHotFqoWEjKTyoiVU2rJbm1cUzQk3gRuiQ6tJ7og4QJJDthbnoS6xHvy8v8I6tsKXxpciNk7Ld8YxBN8pndsPJnybCsdiSN0AgFpd+j6nm906xfgpIgJJPqquzUudbwLKFCt2HuFUCEosfbxGrbjOD24lLAFKoVieDeKeYyNPIVncAlI7lNvUkZZOjIS8S2I81P4m5SQWfHBj65zgwCtz6kHJsN4YvoGCl9B2mh/UOMY2GxcI7MGQN45ZLcrunTIqgu7OzEj4tC/fS7qaEXoXSk46jfspQ3sgcvxr4P2895RJ42aWzwgl69Cuw3Bz0Vu+9K+eWILI+Of4spmz2dTeRh9mEEtuR8JbV77OQNxSy9rG/oiHl6n1oH1DQzF0PKJBP9pPl5fW9LNgfAXb2yrZuCFgattcpMKna/7TV7bKT3U6B2h3mwQmycrumk3MHVU36ya+rtEebHwHL3wV/8yvkJUPwixwfswKJtug9/Y4900AQ6Ep0zUo0O7gQkpgPuD/BH8Ed+OVlhWVjsljW4yTbAaMXXX0L8aMQGN6/pNvpFZ2xi3LrbejnNh8Q4DVGZwaFfDj7rdToCKuP35d8DE0RyPy82SUygNKjv4pLQiXMwUEQ39Y0rbJqfHMm1w6K8oMjwIqjEvuQ+ERSiT3FYCizSdeFU0HfgbM4f9OBDLtzQAcst5nADSCM14hPx55ZaS+L8o0p/WCHO9a9pat/bcRHztfwLYGb9R2sEtw55Cw89vXtp5HnFyb6aLe3YJM3+6OMclLdEPIuJt6D9cNjhoS//hkbIdyUoas9cjLECnMvK0Uqp8ciZGjoyWIL6drZq+erOXnkR83+sjAMykST4livKoofzkhO4hGZ7DF/PvF9r4SIfThFzg81UvJgqxlcNfU9NFvfVwX8DNeyPo10sPn9HxfRQlFR8zIQk755HgPKpXDkTV34ZFZ6Z4EDwuhbm4kkLwl4obqzCJXe1C+UlqaLLoPA24J2rucuFdR3LRUEll9P4nSlCnFi+JtcIrpg4zQRudFmjTRSFIj5t1kqD9JDeA6e8QgysIWkWsS4owgV/px/48o9LztG++0em2PUucNy71iYDhmUs1fidN5pEkgRpmQo6dpmdaum9Q4v5eJltCG5WnXBtADMRsibM+CIv/1BucT0uHMqM9AU5G9JqtcTzYTf+hAIh4vO9+0qIPMX1e7IayHr+v39RcyqBK9aRevuvbCSaSk9CMIoLvAfrvll22bVudZwcErxz1v4MtkpuLrzDaNc3x58ySmwDeWjRhLSKUP/WARKq8hI4yQ2enCqDQeXpgyV5v0vxw6q0gYhaXonrLDs72Hq8xGxqgGgt/HIX0tdEcMnzWk9CV+LiAPDMyPNnVgO5UJ+iYRRuJh5jLA/kDiHKethtJB2PE25heaqZ108yAAj6ncQwSX0gHBZQXNgckaV5P3p+AdOLOGKNqaQGmrsu3xCotbS6Xrka7BWVNJoDybP4FK3YxEBik/7Ps+sHZMDIO6ArnpF1gKGdkOsiNp+ZlE76dVN/f45vUi8ZnbFATy2rVaK8Gq3sj5E+HaW4OAI9cj+vMk1ZKNlmNmnBtVM8cWczoFQABcWOsB5DrH3XIC7JHoPS+7Ob9BAPaFq7KsEzbK/bTw3piKThKZjZCmCidAbsppmvDGvRWfzhjSqoSYsrGHi/BQndW3TX19qkqi9tA03VCaik9LimbYChbsrcg7jzQZIw4qkX9SbsxW5ogJ7EZsdDB4t9lBTOZNndbXWhHA8wsx2CLEqgDrh1S2qNDyoEJb4D7g/8U/BHZlSd6iqFLEGR2x74F4IAA6e9smj6ymVteqYcpVv0OvnjFFKEPb9QU+qmo3YaUjlZSETecV5N2xi27G0OZwZfO0Vi96OKUkwS1frkx7uSqZLQV0IiWAGzHR2Ry6Fdm6uPxC7Zcsy+coI2o0z0VzrKk4l/2ax2773GG8Tkkm6RzAy2nG7Ae8feQeiOjQmEZCpQQh9EWoyusRrjnOGmrsytjAMTjiUuCsES4WTa5iLHqlKl8l1jd0ziG6yOq+Vayhh69W2WJNevT1YBptzpvTu7sg7Wk0BrYArCVflq0F0azabHng7ee+SVKH4HgbwRK+aR3iKAB9gR6kX9XwRsx0nrwUOWhMBUU0an7cmYgiX919SHJAQiZHOhP/8BpfdRJcBLPicq+ReXHMP0eAGjXmGoy/tM5AXJuZ2/frBozH6zw8bwNb3yFDkNmRCEsdmCa3zRvo+5pXFAd1bt0R4I0OE9qiaDYXsxeCl1S9KO2NYYeVLtL7kPjA1cl7STD4PXokPOr0UOILVaQ6n30Hz61n4M6Ev7IvmSpdWMWvGOSm7//x3wZG1sFRqDFj3EqR98tV2bx+ngMZV4cA4HG6le9hYDM/SydmKcg50GgTM3IjkVZ4S8bb2NRgYcO6AK1Xt21UbDBjwVZTtaJB910AyN45CO2gy5ti960ViPHSkYuVHBFGC93W5Y/LiK74TDPIGkfAzTvNBAVZ/a2kMfyAMmBAoaT23bDE7H08elP9ERvJpxfSMHVaCQ1uqtYzO64XUtglv+4Bh3pI5NX8GRU3w5cEtqloC8go9caknou7OzGHYnddQRx7LoeXYjZpAFeXJadQAhMCVxOCxgrw1OUsA7FKQz2dnj9vyHFhRFtJbxQ9VckCkeHDSMUDrwFKuTuVlAy4VodAT+QR6msAAFau3WV4XXo0o6LyEd8eEGgV2DVEkieRdZWVPQzqEVNGC6Q2J3LMCh4zoaYgNYrCKkyjDWPbQ81ioWEqJHsIGStCJ5xDHW0QTTFY43NDNWJ9NuAPdNVsDb7IznUBaoVuWUszAbDDkZAciP+HLX1Ijuolk2vMePD/7pi89JTm3F1DOk+xSj6Oy+tyKil7mcKdgmYFUNOvO1zIBZjpiqoGyqHXSsUPJvQ566IiraE/5NnzsbeVjY5mrkiRe23INcQAi9BncOoXBPeHV2v+rb1alJZUc6V0MkWeSsbYWHuAJtvmmxY6EAwHqLEwYBwu6VLkpp0ACEmsiRpPX0RMCN78fm3LhF6HPpxKPtID8y/X/0ST0IcRo90zN+jQ5GBCaCA+4P/EP8IN3LsgG7G2o/kVRcrlE3Sq1yTgBhOTJLoL7duDpm3y+SxpQ3EtKM+hztwmMFSWom88EdhhM7rMy+6R62JH+Dq3/zK392HSS8mzTr8noSabPUSuBhepno6hWed9WevU/KV84x2uzgXFFPwWrRuf+9OwxApZmp7ArNFevWOBJ0F2ENWu5W6vw6cinyAs5gq46ZcZ5pcPrlKi5188aKWvmrXO/XXi8RbD26rhvDjCteeG4y0EERP/mtkz6eC/hwuMhksBxCSRcv68lCC3Kh838+SYWFrT4aQGsYlYhk6n8kNMH2aXdtOeT7r+EVwG+oDCGwSHdUqPLBcbWVrb6FeDWw9DzSAO/cTVq2/dJWMPqMBi13pqOXo/axrnV0zp5H24Oesspa3S2CwK/Nkel2fKMZSuTzJEM/KJwokoeCFoJksWTLmQ9UYksFqOlsAbIZjbmv2iZrGiVEETk5cGCNy8apXCaY33ygFsXNhH4wrO/7u0cKosCahK2LqfHDkr7tKWYDvplahXFne9S54nzu1V1ISfObRzF77Dw1XBlZnhV/YD0aAU++O6kuwIW9jSwkRFgDZaZqWbIL7jqx/ueHCLtztgcJxUXUjpQtQCHtbNTHvtcMzinH+QtYCscvvU3IL65zOLcZO7RLyAx2Ae+IKDLNyWRXgEj0dQ76RKcdddGC8OU50FDvYzy/ZDyYMJoO9QMKhVqzQd9LHkVqb40vM9QgnD3tAr9E8TXtHfA/FPRqX/FZjCLOedDL+PpopxVcsZ3h/uSb662NEJ+MVv+S4mvJ1oxAB64YlxPwNOjxt3QVXJ/4BHo33QB6Jr2+FiNmKn2mpL37poWw6Tfi2mopX/Cd6uvKNXuXBW+7A3tcIlCD8DzJlVRsVFSsGbI1TFOQV76SmATYuGP3ie9NdYlarHuYnjsUhOaTMOodmRtnUVPj1+CX0t4JCLEfg7vS3bOx9A63oByYgDOVYox916fLKL+/zlvw4VGAFtfHpgbeXBsYYZpT7/uikrFkN7De2VwyEsi2+6NPOyjgCUrTmpZ2VtkxwfDvOtLjSKGpN2q8+2re3UDhukxt6FW1iggSZJbsqpCP2YxZyJAeEQVba0WExAwjRJuni9Ja7KQ/8wMadqIt56Ryngj4quZvw05wukRZ71lijdy2UaUL//wm0T1r5gZ5p3krfsDved1BoRjctpmb58qf4rcma2i2vo0NUgQnZgPuD/Af+Bzdlm0gInU0a9VUrI7oRFzWAMiujahFaNFeI1i3kwr0EqynUGPqZuXMEoJwythaJji71JTH5s2guDAEAUHArmALMuehrDAZZvV99sdj945ABQawjbajfpN6BbJDgYB/W4EbFXP9mfN4NXT/RXrfFyufWquMtiIk/3pGBMACVMljzQf/06DuDo8Z5/ubQW5099NJbFjTs5YnHGI3f2IRbJk2GhFSjSsOcPy4JcXWAHS8T6oy/dHe6dGDgLjQN5vgVYhleSs4ZlhGxfCkSOuaHpSTyT9fnQ+4OszRGYlBXDnNxuueyMQfDKXwSEJkfibefR5jTwB5qfIk/TsQewvxwaRS/3FySk6rRYquC+t1xbMBGUaObRhvkrRkL6k4fB94Lvwtiii/yLRP+Fe3nZf+O5qckIti0paJyb56saPs3eDKFTqPa4396QGzJojHkAPFMGitRLpBteCgoigxBWHc8mKDPUcB18AzTdRIlx0TrnyXYER6GrYclc0Xvdc8BKHR8JXuM5iqh7B4mhn2d4dc8bu+en57L3DdcbkhjI+uTePJqqRO5Thr9g1QSAbpqLG9bnrWIl++L0/t3EPmpZaNCVBEWL77kWE7lNeD3cGRCwiitnA4hxhuMc1Kk10K63uK67DPj2vycmFDul1VLtIOszr6v0ELwCuLcI7cdHuC+IcRG1M3e0v4RA+bjEdQI+FlFhoghs/b0EW7fXZyOKUqSrN4Adrmir2Z/WibhYGwtyEfcRk0SgotsG9mAra08vwoQbkLcu9pEEcAk33qnDoXK5SRmZBkGdQEtCmWgKGrjrIay6/mc2cjUwIhG6HtBVAeHiV5mtUX7o8Et+gjBRIsyUM93A5eqnFMuH+v9RRFE4NpLcbFGLq3iaxhGmkH3amPVdjjyJL+jyY+GjZOIvWjm7A+QlS3VgXUgx877QbBfhodED9NpyIbZUaDiMgL6GIz0EUWNUUaN+JH6KENLp8lmnFkrYbR337d7LFL1w/dauwaqfzCrESBPotHgxUOh0Vbs/oUhw2p3S3LUkwSnHfQjhVFwrK4zOc8WoVNhpwwGCbIjiFuPzpWpgEDO/4z7sQXItUROUM0razJz0TPHLaeavZkDeazq3jRB3tndo0NIgQoNgPuD/Af+BQOUYPFWgCqAMA5ee5vqhcJcQTP11oDs8mSlhgCuXwBsZiQgxOW92rQVMkDwXqnQfUF8PgagA+jWxiSCLwzZuR/gkd4o3hTeIx3Viqg4kDAmEnnHmWjnUq5mwXkpaAJK0aq8eOvqRy1angEuf+gbMxIJTMLMC9NVFnLBHpVbuXxxuieSF1+49zGTtVqQJMLUbwWPn61cM7Q2+cRt3ye5zN6C+5xostpaEPPuzpDCDwZUcpbJj8qXlDo7uGxdmJO7Usi2E3sD4khILOeYBmpaKIZz2ypJA3/aHEYUerXqL9fgq4aKctDmW71UwIEGs/O63goF8H+vlqYHwoxpYKl5OwvS9x1s5bGpmBTkEOWIKxyOqqmCVllghaQRG+jOdOoX/Wfnlr0EcXtCNFkEf6Gr7/bupmJsPbqqtqPJ5NWVek/zY926b0EDJ4uKaiTcPA/g6yMP6HTchjB5iEZnMucNECnpBheXtNxuT2R3YAJxHuDKAeJxgjeVxjw9/KtkpUYuAIzic/FATbWfvjgES62/X1OM5GbgvPnxmogRZRMS/YVO2mD5aSoZvNYhOrzYjO2T8xguWO0GhSMUXRy67cU9o07zt6PwnmxTL1p2WJVmWB1OrcIbozAVIcvAvkfOa6+PB2UsuZaf7jqyuXERFlgOQAMk3+iMsKdLAzEi068ux0zFc34uEJ6CItl+ksHbmaK9LwhZeMArFQ/ggGwJJYqseyUxpeFZkVBeE7sMEB2v9DtjGrDPgcjLSMYJ0kjBccEFGE8tJFWKwD8oX6ebKn1uUtlpYP5WDAq1gWqp0OSCzp11HzHOiNSWtdbF2WXhZzofHxQf5Tbvp0WfYLZ07ZP8ZaQ80y0HPWgcCBAyac5yvcOpdIBp6hWMSESbU5vRHN6NSNGtcMyuR3BMU0ASdS+pEtZEII2lKca63EfJ77x51yyR0/0B3XGO9S1F9w8KyE+pejcww2ohtNhlPMVD02F3j9BbLhyB+J3CpmQD+LcbI3EUdhmOEEQxaCCcq2PCPd2WECqWKdbfOABnwrWAcayrf3tEyY/EAjcTLjacAcDflREoRoNLRMaOgmu/TwAWXqLyn48R67n4iZksBmFzbtuyo0PGgQpegPsDIc/3sXeGGfhYpZGkiEtoux0yYw1f0h2OFSDC/hVk3N/m/LgaqlM5stIh5NPVp4Y891dXNil2qunQjUczvC4JxwtafJBhQAaAeUPBFoEomiJaCODJOH2eqhy36BrE5WX+ulhdeTVuMbQaBeSO2SeGT/QlCQt7u2HaoHK5r9nvczmzJ+F0GcW/Dr3thBiWK+IPL1mNDFKWL5bwSrY+L3VRqmhrHq1cfHbo4adduj3HeEUfqruPn7ICFG211g4H5W/40eZIBP2PSW3TRbl+vV9GRNPeCESr7lfYPLOpW9dV1tp/0dGy2+WWh+anjkx0SaQ/YNToLlRAEYlv4bxGEIDCLzcPos0JbOIn8qVTbdeqf4JJuu4Vi5Y1OrYnX/hcVGDNp9bznwqzdt0uK/kThNoOqbKZw7pu2ZokxXWrMK8KCigbPzU8HM5boUJdmYlwUcTioBfCO9K64/YCojmIdQ9E2zBfqfWaiimAnonMFGthS8OvZxD4/8P7pxPj9yZck38lMij57uGoYADlI8JCiBN3hY2LOuhdyYUdXJrvzcO9K/cwjV72fM2gcW77+AGGkpHZvlTc3qP5QTT4e/0qqWpZKWp+ga0ot7z/rwsauZmZYcAhYS4rEG+OixINDfctAQH5Z1Iv9Jqb9k6JKFYWnCX38H4m7o0F0KH6iRSPNbLlimsne3E8kgOc2WuD8CirjWUXhQP9ndDEHBHI2uh2AN9zf/WPsn5PlClv2BC182TO7UxlB1OKXhv33zvkYxyE6Ckn3ZPHnmE1AzEAphC/ZpSvp+vpzbhRS2nRgoiMW990rw4QSL8W+Iw9NFk2w/KKdulzlSjDoQAzNVGtmeXyacWul1M/ax8QTv5grwCE7ww59kfcyShE8xMdji5bvlKjd0Cfur+zi2J9wewNQCIlleNfhLSN5vj8i48P1/GZhTLzsKTmddzIqnG19E10vNRcmZg6NJLpUPe7lu0By5yhDhKQZ37WqLrX8dOF1JJPL6VI2lQojrgfrP3hSG5BpWs1GdbdcHn0lOpBfX3/Zl5+Ru5MlaZKRAjAx7wlJMFPfJMYd4GPeAJIHFHsgcuQeZjdc+nhv1q4zkoTJQhGwd30riyh3EGun44078wd0OiYY7AIxXsEwIjp93uLIxry6yoYWfZBwJOodiiyMrjn4caGWq0ibOzB9dkpT4P/J4CFU8i6+ykiNmjzYK9hyDK3m6t2BAnRO7l7SLHN9F27tfBForfJGGb3NHaip9OzTxQkbSOL0+RNjs+APG2KJUESJaszd+o7o0PGgQqDgPsDr/o9JTYvTi5xxS2e0Ymo34YZ85ILzd7uv6wfShIIvX/izTnKju17lPxaMNDonMV86ilVPV3lU+P+7CvFim+4VkZx3TdcKXmjAJul6FY9ZRwoOy/MqF4e6QNI+NfS5DvjbXPVdrI//vAlh7dSkvTSxswizmoUQq958a8i1F/vV5Z+1qKdliPpaM5i4L4UIAFpJZzuGozrpBhzy4oiL3GCdQUOMSzk+y/+s/GSjLJWTGw1ROW/lw/2c6zC8wWm4UZ2yfWIO43cxmwDAfbkcT1/u4sECZIEngarNSpgeC8QUvovKoAAavPpn6BNuyKN1mT+gVP0x+CxgTPWD+5eqzZBUOa3HAAcikG+0nB+rtnY/QGMFdCvDw8ls4X2VlwXsRk5IQpqWRjmv/ukZmMKksFWMq7HiOkscaB6cmxII4SyiomwC7Ipey5CS6nKICEo3bZu5cWGuRbICBWY1QbXpWG7gIXxR2lhp6WuMiTD/s4St5Cuy9F22UsOQhOkIqqXvjNaYlguvRuMz4IeqwVOIA5D0Fd8dlQxyGilNFbLoWBtrw4dMivs8rDXRRQzkcbyPMfmmEJNArkKZcP7AsdWZouSe+ttd4EXLafFCaLQZQcLuKj9tNaemkqmztro2S8G2Ci6oRhTmie4H1HdlWC+Ph+guz7Ga2TiWnCV6lOpeirlhgwaKdeyonudQ8KE5bMWUXjoyukF5YXL3Eilsq/2ox5YKY1SnxQCIMko0+SRwBdo1wl9kVOLqREst/M6pdvo+xF3hv9xclGH95DdqPoJc4i7q0px4WmXL5VYBCaw10esU4F/HDXhWIcnUDUiXp56EGB6w+WSwE8mK0BOvpFk4TluibFOV9j9UqgFyLzI3P4UjM5dJCOb9Q92nreTJkFLeppVkNrfGMu8ZQp16LNWDomnq+gAjuVIj9n6i8MzQOJjbaYpOuBukY53lujPSVZzSIB3ntc+xlW9INMgApce7al/SqJ2PzH9M1c3iJBoh3+smg7RIwVE/I8qRipdUxjCAQXnVNiW5W+5200VSDbbhdWtsZR7z4iUt/huPWkV/KK8web4IYZJjKr4omq+NW1udbjBbzoszv5is3f1Ui64OpmuTb/6gghGDZEo0HD+fPOtWwqxWyZNb87Aka+v9knwr/+wrruKmZjJ8MmF3s0UPm+lkeTg4o7dV4mAYfqAGB+W6GpwZntYs9p+MpwSS9/6CLV2iPhHX9mskRihlBzDkuq6JKUBx9n5VCaKLFFP9JENxsCQaN/i2LjDaqOiB8ijyraIo0PGgQrIgPsDsVAWnOHs7sjid2mdk74CSMb5QBvws4+5+FF8R3jWHSCv8gjDSxjzUU/aP00RL8LBXCE2fUCRH7VBIzPrvhHXS6LF205kyuBPZ0Ugs0f1oFRZJ/8abjb6/tWhN3meiapmQ9GzjjSoZO0IlOWQfqhCA8OVEuylQsTLw3413+JPcJnYsNllZyAENW4OiJBx/jCSfOCognFg4wNIIFbsnAgKgTMPpopTz8TT4AB6ufHgucxHxhovDC5pQcBkyYKZ1p0YdAFhWUDWtCqS7QZLiNmp+Ii/VPP4yWvW6c6p7Ju94/CHW+4WXkVX5e4VC8ogo2s+/2n7+mXsfgXduCx9+vtIOg5EKiRIftyMJ9iQ03iDv5GJyX8TNVvES5bryzWoTDNP7eY+VcLHwlYCLLBKbX6uL9eR7IU8wIyUqDlGQZJTdIQ/85v8yjPC51P2Ajj03Y7VCglpaNT+w5PgFFrOz/by48/CKIDlpEEQwCRUB0318uCWKWb36QcHOH4ZuY9zXS1i1KnQfANRWmciYcVJBabKg1wqs8tNZL2pVYFuOvLWsEL4XAmTXmGYk3astUr/FYQltNKxH/TLZbY+UZmnYfBQfpy52vXS9JmB+vQZjUAvs99OX2FImGAbrGtKA3jtHIfcm7cOEKC5q0y5MqXdGlen7G81qvKuBgqNB2W48WIsuDkgjl7Ut1uLpAuBaFMysI8qaVPqYBq06N+ky0biu0wQFNt6CMcEG+RhqTzSmoU+vj4Z5OOG5ahQ8TgR30AWwlXa1sbcOk1GAx/l19fmCRiEtkdBsj97lq8j7g1QaUvwgPtK8Wo5HOrh1ATfNq95ydw5f79bFiY9QCwQcTvFCmCH0UB40KjdtMIxAK9zvNAv1prVbSROTqN1tzrU9VXQnrz1SgeVU0mFjgUyspBcZuzH685QLqmuEf6L4eLv0oc0VtOjDDFq1GI6NzEKcyY8vhH9z1g/yg3Rj0/XiDIrmUSUjMfkLWjCJrX4w6oHmXnSSfe4fGxoJ/6n6A4Z54i3UwUjFB4UkDAjB2cuTtYvMQjRjiYOb3Np/C2W8nj0Hs+lYe/+C+c+PhYTbSVaB6EsTGJrFQnatLrZgbYgvfJgzYMkOrOx5nEyGWhSfD4LkwZrhY+f6JHjDFyTslexb15YmdOjfyHHC3Kaw7uRnPM6F6Aw7U3cO8KZKUFDgxXY9bHIZhrimUBOE/K34KDfexK6PmhE26b/GuHJEl/yP9pwzINcJoBbhJwbj5Om9LpHul6ayuFn0pVACw9QoHXQ5mJ0Fkqlo0PGgQsFgPsDUL/nSqCqF4skOKiX50OQW1ezFSSJkn6l4TOh/2eRIKVSNhgO6wN06FDIkLEe+mtMJenCvfASkqZFPyO5o8Yhnb5l6Aap9tw/+mMaJJ/VMGnzdcvSTRIHtuF2mcjbGgVEpSj1b3sJKyEakWlvLbAnqpZ4au5JaeLFEBqa7qzBfuogRvRPpYLvwqWw03LdEJlqUZT41IanthVFKCvs9buG47I7RBlHm5To0d0mpbtQ3MoA24XpAsKKtSay2I4PXS0ElnZ0zNI7BXyVH52/oepAtq3fEbZcprikbfoYvXdhJGlN+/WRC597RvQaoaEU4vEykjEW6l4iYCAL52F9oiQz6G4KQL5c4dTSzXF/C0oLcZjx+fROG/nVYkWibghttESDy0Jo6SzPcbmlBLjBg2wOLO33hCVChlTbdoOm4Q754StEN7DUnZ+PcZJyiVm32PqjGout7MgnUr1Tc4QnU8bsrShJuhDjyU5WnF3yAgoENWZHUlGqJEZrzEWWlcMGjRE5vAUFeiYJExe0oIiAcW0ZDMxQWY1rFarTwI2mMKZokve4OBfhks6zgKQoPDSF65laTZg6pq78V/ymAYxlFPXNClkL0Ty/wyr5zGkwOfH2nVPO1OA8cFjpUWpM0Co1mW2G8cXCAVvRKsHLF2BPF7ADvypKDKYsMHrT916eX/cjP/GRWctLTB8zFrQIeI6KmIgsvGulM99Ez7azL9N+V5wN0QMk8k9q6I5+MjQENZcw0A0hl/ubhBkO7I/YbOz39+WMNjh3F6311s24Dit+J1L47sDP0+gw4bO45ezv+L76l+9swvL/XU/AFDDSCrfZ7YpUq/6SgFPTCOqI8poobTv0IlqRZbcxAo3meQaQMun+yo8kPwWtjqbNKgUYFrT4zHWZV/lQBfvycdztDnSrArjVUngaE8AFitZ0cUpsFerRhBOrthnCrwKkMQPjDZOxen8/urZOs4F7X0hYYf/Frc0FDlj6D0d5FLPT8QD3iQljpggviWNhaLiZdghusWgwQNBxVFeFAdINUsD5t48bXIi8TMRgHdkF4Auvmakhhd/Hh2Mzf9A3yTTzrQI8UcqlqjWY40bA6IPZleP0vvrkmn7Cwe14BNnl+Upbz/HzYdE4WM98aGHtl4Bc7lmWCXCeFs8tNwcPLXyFjypZ4FG5k3lLrsQDN9N8KcLYmy8t4biJFmNcIBHmHpu+gLYlBRdgocu/hFk9SzIfLCtDZoqgAVynzkRAiH6cYHUT5oJlYWZcpwsugWQCilUP5+e0LYwLsbnjo0PGgQs+gPsDUiKvCUzvAzfDBLzBGe2rVrBQ5bHv04i9DcIcnr0PEoQNr1kEPOs3QPLTjJlbWWWWTqvkBD4FU1P0ImjLWD+fxNWNYQNiUvShN3oBQTovc6SWtp1tVG+mvd/FBwenNv7GhJXAaElbukqQrkR1LtKPncHwIP2shj7FELqkSjdREn9XLq3RVcXHY/iS5rn2TncdlTPwXKOi97d72VV2uchx16tjudEYSar8Kzv8DeRNbbSryz6NXDaiA9A9OtEqUvIRYzyMNZ1CeHa6Dc6u+Er6LGCgOMOjB0sbvruc9//lOwArP8kFz5vGLH4VyrhHyglCfnNEimNfZuAWbKNZIIZ0D7NDrgPNs+qECWzgnBZndHeHTqXz/MO1kK0tkAlDJHFJIcKx7hynpLdZsP9TJeTOnDUCWCT9nvj4wtmVkAa1+QxZ2V5RwbVAVtdNTfLW+OJn2XZFK78T/LDx3+buHAtB8xxyZ6DtZpXqAaccSLIW97rWMKulGJxVDlSYulSMMJ+7YgQTUBWpY15Ozr7Bi+0WwLyQ0Cy1muaF9conDBiQFCQQyHO2UQ8i1g7rKHNg8AXmsUFKo1tnYVifpMiWBlOTt02gNcTjR3tcL00Nv6XCOdqPOtj6aTiryu4iDhmCY8RjEpCpzn5el6FQGCdWCP7d9BPQbl+yk53r13xTswE2QpJNYv6Asm1Gg8SXqj8cBhppmamKIyb7WDzGy71pkfZ71w+c8CC9lqR9Fxpvqlcu/7KHDWvlyGGnxpfsiVYItOA8nFNjuuuKhHbIfR8PsWIYrxAfmWBZdqa5w+nyBLdzlBWrMUFLjWXpS8y5U1hYlo1h8I91b4A80T9XrAxZNLJZLVnUOlelT7glktgPsjXAqpeSvkjRdiNdnX5Hh6v2x6a4wpjZON09F/Y9iZxg0t5Hgg1CfWowwmTD+WTBFcaBNxyRPSFtFzOR4Bl7lQtAZst145B+LYb2YpP6b9F4vJ2sUBSvptCqMyNrQHVj+EQafLBUJCp/IIW77najZ66Q+GVEumSqUfca4mOehNaxp6M3RXEw4jstKuCyOVLBh7c1vNhEmiKvDyEuqT/9zR6CJdFXjLmcbouNWfiQy7KUGUr+4kRl12Vh7rLzAgXmfu3bWp0/2GdJrddC4JhEi4fJtz+77eV7zfPOeF+TFC8hnh75Bi4pP3q71e+TlRNmA+DX7xsi0zK0rnrLi+sCwgiKQK/LHFegoouzr7R81svDPHMKDWzDoYBIjbxr9qjvhUsJZqU2iscDol0Sa9CyUHSVagQPo0PGgQt0gPsDRFolCSXG/9SrE7yo1c/stOia0lESsNee8RSqRpaVyF/P18evTV8BXReNHL1Nm986K81HtKTRkbIk5DAzdjs+xHaU1RaVsK82b2yJVZYf2ew/SnBzhzSi/N3V0v8HLRphWpkdUOkUHkRZ8s9wQgKzJWp5E9RzkqS3tSNOTVd5eDeXsDiTvgXagRn1ZBu068Jsnu6vOkTVc/P9A/faSL23ps9mXTIV1/HLRdygTpVujeHxmXca/7UW6/8IL+MkrTWyAApKmXUylu5PM/Ay0jMvsiY/26l1T9EG661CBL2yTCs0T/6D8X5pq4Q8imoxh/Ou9gqy0SI+KrYrn3aLX9+IQFFlyPjiWC0IrO/vqhUhO3zeKgdYAdQOfrZp5uGouvFvUTSr3/zG9U3GCdWW1IztBw443yVjHdjUfs4moBqpq4FRRFXuJeKi9HlLUU9tiF0HUso/suIPyb2jO8sefYB6aMo42407JbveIB272jRzYFRZR+5YpBpbPPJqEQP2iIdWd6gIQjTwol508Oow42rbEXKHahOaT5LUkmEm+RFhi7N6wqgbMejc5O+1qJaPDyzdEdLgDh+iwrL/mLlGy+cgG8DjriOsHV3KL2EQlCljNg1zs1ds7UYRdd0JzOFi6wGqtVGeof/46QG/hj7Ny4joljMnkEOra9htJ0WVE6ogqLGjDG+EfYStwA5YgYhoi8LJtQ40Hd4tJRMHSe/zKJOsDecyfIC8qEsNOIJlHjlrkAj5ykmuwGbd4TMnajHL72doeH1Ln2XqTGRFiIxjStjElTsdYCUD70J113uBjtx/7nBvUp0Fk+aE2SKvHSsguhsxcKaizNAFvUxvOAKd4Y6ueVF6V2Ys0gz0qPH73VOLHY7Rk+YtUdbNQ9ZbFUZeAqBSO9hrC0w58MRjmuG1MrHALd9eh/MuHUh/GcYuSQzcvBH0cQMcuwo8pT+ZDxVn8sv3W3Bo5gdaa/ixGJUSJEkLCfzNf3uWpIYs1FYrtDIJAap8F2nd0dbgfZMCc/SGqSWQCDFIXUC5sCZEKPHz0kutEzOkZmokgHXHlLvArez9AfNqcdn6mnfthuqdZK+Iic+jlpE2MU03woR0raBd5gJxFKSDNq4sMqsE05sPkQ2WmshlpOIi7YfR5wjrs6jwiivCLEmnhhfFNUiXo5Aq8eOCiC9ezTvYNNnVZcrJkwiNB91I2JVao+N6iWrT3O4G9ORyvX6Ug7rVykTEIbzipXJcuYXxusm1XjX2Fm/aSy0o/HJtrygubls5j3LDWUn49nOCo0PGgQuxgPsDU91GC1Vsyq2n0ajFFxf15g7IXJQbvbuW0unjlXRemer1gq7tNg1k/nRqTVAjXnFnE1d0oMM1FBmy/sAYwFrGTkKcOZcGuHODlLgU8gJgaDN8IBZunJ/SRSHAZFbzGwP8bLzzwC3PeLk/Br5nSOG6FC07E4zcG4vXulVmzj4rFPp5PE7nvwgyj8hBSoaE582zijAeS5j+2sdIjEma20f2LrPscFyD/C/P3HgHsr+MZmLHN31oeKBTYB1BCwfLdmonnfjZ5fKOQmsCd5n3Y2rgimVp8tsGVrdUaquO3OyCz/eh+3CO2O0iWjrUm9KbJNqE1fzCPyg/qjibiLEjT2NipMTHmODS9ReR3MmYhXaPA9t1Cq3VM6JNoHk6qjquh+5BY4IxUlvj6aspEJ005zL7AmBSY7WnKWRYzvGcaeeVIaFQaIGRSy6JeA1yIs7H9vA+7QOMLH3g9zMgHCSD3jjybYDVOWzvY3nLqQgz6bvhVL3mWM7,,,,,,,,,,,,,,,,
