"success","timeout","failed_images","failed_audio","failed_video","trial_type","trial_index","time_elapsed","internal_node_id","subject","subject_id","study_id","session_id","urlvar","current_url","view_history","rt","stimulus","response","choice","question_order"
"true","false","[]","[]","[]","preload","0","786","0.0-0.0","D62F5F78364F4EB0B6016C4B37060937","D62F5F78364F4EB0B6016C4B37060937","71dba312-90f3-4e44-936a-87f91da73ec3","e622c465-ee29-4445-8260-1f3431e06587","{""participantId"":""D62F5F78364F4EB0B6016C4B37060937"",""assignmentId"":""71dba312-90f3-4e44-936a-87f91da73ec3"",""projectId"":""e622c465-ee29-4445-8260-1f3431e06587""}","https://test12345.live/?participantId=D62F5F78364F4EB0B6016C4B37060937&assignmentId=71dba312-90f3-4e44-936a-87f91da73ec3&projectId=e622c465-ee29-4445-8260-1f3431e06587","","","","","",""
"","","","","","instructions","1","11212","0.0-1.0","D62F5F78364F4EB0B6016C4B37060937","D62F5F78364F4EB0B6016C4B37060937","71dba312-90f3-4e44-936a-87f91da73ec3","e622c465-ee29-4445-8260-1f3431e06587","{""participantId"":""D62F5F78364F4EB0B6016C4B37060937"",""assignmentId"":""71dba312-90f3-4e44-936a-87f91da73ec3"",""projectId"":""e622c465-ee29-4445-8260-1f3431e06587""}","https://test12345.live/?participantId=D62F5F78364F4EB0B6016C4B37060937&assignmentId=71dba312-90f3-4e44-936a-87f91da73ec3&projectId=e622c465-ee29-4445-8260-1f3431e06587","[{""page_index"":0,""viewing_time"":10426}]","10426","","","",""
"","","","","","instructions","2","13565","0.0-2.0","D62F5F78364F4EB0B6016C4B37060937","D62F5F78364F4EB0B6016C4B37060937","71dba312-90f3-4e44-936a-87f91da73ec3","e622c465-ee29-4445-8260-1f3431e06587","{""participantId"":""D62F5F78364F4EB0B6016C4B37060937"",""assignmentId"":""71dba312-90f3-4e44-936a-87f91da73ec3"",""projectId"":""e622c465-ee29-4445-8260-1f3431e06587""}","https://test12345.live/?participantId=D62F5F78364F4EB0B6016C4B37060937&assignmentId=71dba312-90f3-4e44-936a-87f91da73ec3&projectId=e622c465-ee29-4445-8260-1f3431e06587","[{""page_index"":0,""viewing_time"":2352}]","2353","","","",""
"true","","","","","fullscreen","3","16126","0.0-3.0","D62F5F78364F4EB0B6016C4B37060937","D62F5F78364F4EB0B6016C4B37060937","71dba312-90f3-4e44-936a-87f91da73ec3","e622c465-ee29-4445-8260-1f3431e06587","{""participantId"":""D62F5F78364F4EB0B6016C4B37060937"",""assignmentId"":""71dba312-90f3-4e44-936a-87f91da73ec3"",""projectId"":""e622c465-ee29-4445-8260-1f3431e06587""}","https://test12345.live/?participantId=D62F5F78364F4EB0B6016C4B37060937&assignmentId=71dba312-90f3-4e44-936a-87f91da73ec3&projectId=e622c465-ee29-4445-8260-1f3431e06587","","1555","","","",""
"","","","","","instructions","4","20195","0.0-4.0","D62F5F78364F4EB0B6016C4B37060937","D62F5F78364F4EB0B6016C4B37060937","71dba312-90f3-4e44-936a-87f91da73ec3","e622c465-ee29-4445-8260-1f3431e06587","{""participantId"":""D62F5F78364F4EB0B6016C4B37060937"",""assignmentId"":""71dba312-90f3-4e44-936a-87f91da73ec3"",""projectId"":""e622c465-ee29-4445-8260-1f3431e06587""}","https://test12345.live/?participantId=D62F5F78364F4EB0B6016C4B37060937&assignmentId=71dba312-90f3-4e44-936a-87f91da73ec3&projectId=e622c465-ee29-4445-8260-1f3431e06587","[{""page_index"":0,""viewing_time"":4068}]","4068","","","",""
"","","","","","html-button-response","5","25267","0.0-5.0","D62F5F78364F4EB0B6016C4B37060937","D62F5F78364F4EB0B6016C4B37060937","71dba312-90f3-4e44-936a-87f91da73ec3","e622c465-ee29-4445-8260-1f3431e06587","{""participantId"":""D62F5F78364F4EB0B6016C4B37060937"",""assignmentId"":""71dba312-90f3-4e44-936a-87f91da73ec3"",""projectId"":""e622c465-ee29-4445-8260-1f3431e06587""}","https://test12345.live/?participantId=D62F5F78364F4EB0B6016C4B37060937&assignmentId=71dba312-90f3-4e44-936a-87f91da73ec3&projectId=e622c465-ee29-4445-8260-1f3431e06587","","5070","
    <div style=""display: flex; justify-content: center; align-items: center;"">
      <img src=""images/blue_deck_1.png"" style=""width: 300px; height: 300px; margin-right: 10px;"" />
      <img src=""images/red_deck_2.png"" style=""width: 300px; height: 300px;"" />
    </div>","0","0",""
"","","","","","html-keyboard-response","6","28271","0.0-6.0-0.0","D62F5F78364F4EB0B6016C4B37060937","D62F5F78364F4EB0B6016C4B37060937","71dba312-90f3-4e44-936a-87f91da73ec3","e622c465-ee29-4445-8260-1f3431e06587","{""participantId"":""D62F5F78364F4EB0B6016C4B37060937"",""assignmentId"":""71dba312-90f3-4e44-936a-87f91da73ec3"",""projectId"":""e622c465-ee29-4445-8260-1f3431e06587""}","https://test12345.live/?participantId=D62F5F78364F4EB0B6016C4B37060937&assignmentId=71dba312-90f3-4e44-936a-87f91da73ec3&projectId=e622c465-ee29-4445-8260-1f3431e06587","","null","<div style=""display: flex; justify-content: center; align-items: center;"">
                    <img src=""images/causal/causal_series_14/causal_series_14_a.jpg"" style=""width: 300px; height: 300px;"" />
                  </div>","null","",""
"","","","","","html-keyboard-response","7","31274","0.0-6.0-1.0","D62F5F78364F4EB0B6016C4B37060937","D62F5F78364F4EB0B6016C4B37060937","71dba312-90f3-4e44-936a-87f91da73ec3","e622c465-ee29-4445-8260-1f3431e06587","{""participantId"":""D62F5F78364F4EB0B6016C4B37060937"",""assignmentId"":""71dba312-90f3-4e44-936a-87f91da73ec3"",""projectId"":""e622c465-ee29-4445-8260-1f3431e06587""}","https://test12345.live/?participantId=D62F5F78364F4EB0B6016C4B37060937&assignmentId=71dba312-90f3-4e44-936a-87f91da73ec3&projectId=e622c465-ee29-4445-8260-1f3431e06587","","null","<div style=""display: flex; justify-content: center; align-items: center;"">
                    <img src=""images/causal/causal_series_14/causal_series_14_b.jpg"" style=""width: 300px; height: 300px;"" />
                  </div>","null","",""
"","","","","","html-keyboard-response","8","34277","0.0-6.0-2.0","D62F5F78364F4EB0B6016C4B37060937","D62F5F78364F4EB0B6016C4B37060937","71dba312-90f3-4e44-936a-87f91da73ec3","e622c465-ee29-4445-8260-1f3431e06587","{""participantId"":""D62F5F78364F4EB0B6016C4B37060937"",""assignmentId"":""71dba312-90f3-4e44-936a-87f91da73ec3"",""projectId"":""e622c465-ee29-4445-8260-1f3431e06587""}","https://test12345.live/?participantId=D62F5F78364F4EB0B6016C4B37060937&assignmentId=71dba312-90f3-4e44-936a-87f91da73ec3&projectId=e622c465-ee29-4445-8260-1f3431e06587","","null","<div style=""display: flex; justify-content: center; align-items: center;"">
                    <img src=""images/causal/causal_series_14/causal_series_14_c.jpg"" style=""width: 300px; height: 300px;"" />
                  </div>","null","",""
"","","","","","html-keyboard-response","9","37280","0.0-6.0-3.0","D62F5F78364F4EB0B6016C4B37060937","D62F5F78364F4EB0B6016C4B37060937","71dba312-90f3-4e44-936a-87f91da73ec3","e622c465-ee29-4445-8260-1f3431e06587","{""participantId"":""D62F5F78364F4EB0B6016C4B37060937"",""assignmentId"":""71dba312-90f3-4e44-936a-87f91da73ec3"",""projectId"":""e622c465-ee29-4445-8260-1f3431e06587""}","https://test12345.live/?participantId=D62F5F78364F4EB0B6016C4B37060937&assignmentId=71dba312-90f3-4e44-936a-87f91da73ec3&projectId=e622c465-ee29-4445-8260-1f3431e06587","","null","<div style=""display: flex; justify-content: center; align-items: center;"">
                    <img src=""images/causal/causal_series_14/causal_series_14_d.jpg"" style=""width: 300px; height: 300px;"" />
                  </div>","null","",""
"","","","","","html-button-response","10","40789","0.0-8.0","D62F5F78364F4EB0B6016C4B37060937","D62F5F78364F4EB0B6016C4B37060937","71dba312-90f3-4e44-936a-87f91da73ec3","e622c465-ee29-4445-8260-1f3431e06587","{""participantId"":""D62F5F78364F4EB0B6016C4B37060937"",""assignmentId"":""71dba312-90f3-4e44-936a-87f91da73ec3"",""projectId"":""e622c465-ee29-4445-8260-1f3431e06587""}","https://test12345.live/?participantId=D62F5F78364F4EB0B6016C4B37060937&assignmentId=71dba312-90f3-4e44-936a-87f91da73ec3&projectId=e622c465-ee29-4445-8260-1f3431e06587","","3507","Was there a person in the picture?","0","",""
"","","","","","survey-likert","11","44555","0.0-9.0","D62F5F78364F4EB0B6016C4B37060937","D62F5F78364F4EB0B6016C4B37060937","71dba312-90f3-4e44-936a-87f91da73ec3","e622c465-ee29-4445-8260-1f3431e06587","{""participantId"":""D62F5F78364F4EB0B6016C4B37060937"",""assignmentId"":""71dba312-90f3-4e44-936a-87f91da73ec3"",""projectId"":""e622c465-ee29-4445-8260-1f3431e06587""}","https://test12345.live/?participantId=D62F5F78364F4EB0B6016C4B37060937&assignmentId=71dba312-90f3-4e44-936a-87f91da73ec3&projectId=e622c465-ee29-4445-8260-1f3431e06587","","3763","","{""Q0"":1}","","[0]"
"","","","","","html-button-response","12","46228","0.0-10.0","D62F5F78364F4EB0B6016C4B37060937","D62F5F78364F4EB0B6016C4B37060937","71dba312-90f3-4e44-936a-87f91da73ec3","e622c465-ee29-4445-8260-1f3431e06587","{""participantId"":""D62F5F78364F4EB0B6016C4B37060937"",""assignmentId"":""71dba312-90f3-4e44-936a-87f91da73ec3"",""projectId"":""e622c465-ee29-4445-8260-1f3431e06587""}","https://test12345.live/?participantId=D62F5F78364F4EB0B6016C4B37060937&assignmentId=71dba312-90f3-4e44-936a-87f91da73ec3&projectId=e622c465-ee29-4445-8260-1f3431e06587","","1671","
    <div style=""display: flex; justify-content: center; align-items: center;"">
      <img src=""images/blue_deck_1.png"" style=""width: 300px; height: 300px; margin-right: 10px;"" />
      <img src=""images/red_deck_2.png"" style=""width: 300px; height: 300px;"" />
    </div>","0","0",""
"","","","","","html-keyboard-response","13","49232","0.0-11.0-0.0","D62F5F78364F4EB0B6016C4B37060937","D62F5F78364F4EB0B6016C4B37060937","71dba312-90f3-4e44-936a-87f91da73ec3","e622c465-ee29-4445-8260-1f3431e06587","{""participantId"":""D62F5F78364F4EB0B6016C4B37060937"",""assignmentId"":""71dba312-90f3-4e44-936a-87f91da73ec3"",""projectId"":""e622c465-ee29-4445-8260-1f3431e06587""}","https://test12345.live/?participantId=D62F5F78364F4EB0B6016C4B37060937&assignmentId=71dba312-90f3-4e44-936a-87f91da73ec3&projectId=e622c465-ee29-4445-8260-1f3431e06587","","null","<div style=""display: flex; justify-content: center; align-items: center;"">
                    <img src=""images/causal/causal_series_17/causal_series_17_a.jpg"" style=""width: 300px; height: 300px;"" />
                  </div>","null","",""
"","","","","","html-keyboard-response","14","52235","0.0-11.0-1.0","D62F5F78364F4EB0B6016C4B37060937","D62F5F78364F4EB0B6016C4B37060937","71dba312-90f3-4e44-936a-87f91da73ec3","e622c465-ee29-4445-8260-1f3431e06587","{""participantId"":""D62F5F78364F4EB0B6016C4B37060937"",""assignmentId"":""71dba312-90f3-4e44-936a-87f91da73ec3"",""projectId"":""e622c465-ee29-4445-8260-1f3431e06587""}","https://test12345.live/?participantId=D62F5F78364F4EB0B6016C4B37060937&assignmentId=71dba312-90f3-4e44-936a-87f91da73ec3&projectId=e622c465-ee29-4445-8260-1f3431e06587","","null","<div style=""display: flex; justify-content: center; align-items: center;"">
                    <img src=""images/causal/causal_series_17/causal_series_17_b.jpg"" style=""width: 300px; height: 300px;"" />
                  </div>","null","",""
"","","","","","html-keyboard-response","15","55237","0.0-11.0-2.0","D62F5F78364F4EB0B6016C4B37060937","D62F5F78364F4EB0B6016C4B37060937","71dba312-90f3-4e44-936a-87f91da73ec3","e622c465-ee29-4445-8260-1f3431e06587","{""participantId"":""D62F5F78364F4EB0B6016C4B37060937"",""assignmentId"":""71dba312-90f3-4e44-936a-87f91da73ec3"",""projectId"":""e622c465-ee29-4445-8260-1f3431e06587""}","https://test12345.live/?participantId=D62F5F78364F4EB0B6016C4B37060937&assignmentId=71dba312-90f3-4e44-936a-87f91da73ec3&projectId=e622c465-ee29-4445-8260-1f3431e06587","","null","<div style=""display: flex; justify-content: center; align-items: center;"">
                    <img src=""images/causal/causal_series_17/causal_series_17_c.jpg"" style=""width: 300px; height: 300px;"" />
                  </div>","null","",""
"","","","","","html-keyboard-response","16","58240","0.0-11.0-3.0","D62F5F78364F4EB0B6016C4B37060937","D62F5F78364F4EB0B6016C4B37060937","71dba312-90f3-4e44-936a-87f91da73ec3","e622c465-ee29-4445-8260-1f3431e06587","{""participantId"":""D62F5F78364F4EB0B6016C4B37060937"",""assignmentId"":""71dba312-90f3-4e44-936a-87f91da73ec3"",""projectId"":""e622c465-ee29-4445-8260-1f3431e06587""}","https://test12345.live/?participantId=D62F5F78364F4EB0B6016C4B37060937&assignmentId=71dba312-90f3-4e44-936a-87f91da73ec3&projectId=e622c465-ee29-4445-8260-1f3431e06587","","null","<div style=""display: flex; justify-content: center; align-items: center;"">
                    <img src=""images/causal/causal_series_17/causal_series_17_d.jpg"" style=""width: 300px; height: 300px;"" />
                  </div>","null","",""
"","","","","","html-button-response","17","63525","0.0-13.0","D62F5F78364F4EB0B6016C4B37060937","D62F5F78364F4EB0B6016C4B37060937","71dba312-90f3-4e44-936a-87f91da73ec3","e622c465-ee29-4445-8260-1f3431e06587","{""participantId"":""D62F5F78364F4EB0B6016C4B37060937"",""assignmentId"":""71dba312-90f3-4e44-936a-87f91da73ec3"",""projectId"":""e622c465-ee29-4445-8260-1f3431e06587""}","https://test12345.live/?participantId=D62F5F78364F4EB0B6016C4B37060937&assignmentId=71dba312-90f3-4e44-936a-87f91da73ec3&projectId=e622c465-ee29-4445-8260-1f3431e06587","","5284","Was there a person in the picture?","0","",""
"","","","","","survey-likert","18","67410","0.0-14.0","D62F5F78364F4EB0B6016C4B37060937","D62F5F78364F4EB0B6016C4B37060937","71dba312-90f3-4e44-936a-87f91da73ec3","e622c465-ee29-4445-8260-1f3431e06587","{""participantId"":""D62F5F78364F4EB0B6016C4B37060937"",""assignmentId"":""71dba312-90f3-4e44-936a-87f91da73ec3"",""projectId"":""e622c465-ee29-4445-8260-1f3431e06587""}","https://test12345.live/?participantId=D62F5F78364F4EB0B6016C4B37060937&assignmentId=71dba312-90f3-4e44-936a-87f91da73ec3&projectId=e622c465-ee29-4445-8260-1f3431e06587","","3882","","{""Q0"":3}","","[0]"
"","","","","","html-button-response","19","68551","0.0-15.0","D62F5F78364F4EB0B6016C4B37060937","D62F5F78364F4EB0B6016C4B37060937","71dba312-90f3-4e44-936a-87f91da73ec3","e622c465-ee29-4445-8260-1f3431e06587","{""participantId"":""D62F5F78364F4EB0B6016C4B37060937"",""assignmentId"":""71dba312-90f3-4e44-936a-87f91da73ec3"",""projectId"":""e622c465-ee29-4445-8260-1f3431e06587""}","https://test12345.live/?participantId=D62F5F78364F4EB0B6016C4B37060937&assignmentId=71dba312-90f3-4e44-936a-87f91da73ec3&projectId=e622c465-ee29-4445-8260-1f3431e06587","","1139","
    <div style=""display: flex; justify-content: center; align-items: center;"">
      <img src=""images/blue_deck_1.png"" style=""width: 300px; height: 300px; margin-right: 10px;"" />
      <img src=""images/red_deck_2.png"" style=""width: 300px; height: 300px;"" />
    </div>","1","1",""
"","","","","","html-keyboard-response","20","71555","0.0-17.0-0.0","D62F5F78364F4EB0B6016C4B37060937","D62F5F78364F4EB0B6016C4B37060937","71dba312-90f3-4e44-936a-87f91da73ec3","e622c465-ee29-4445-8260-1f3431e06587","{""participantId"":""D62F5F78364F4EB0B6016C4B37060937"",""assignmentId"":""71dba312-90f3-4e44-936a-87f91da73ec3"",""projectId"":""e622c465-ee29-4445-8260-1f3431e06587""}","https://test12345.live/?participantId=D62F5F78364F4EB0B6016C4B37060937&assignmentId=71dba312-90f3-4e44-936a-87f91da73ec3&projectId=e622c465-ee29-4445-8260-1f3431e06587","","null","<div style=""display: flex; justify-content: center; align-items: center;"">
                    <img src=""images/semantic/semantic_series_7/semantic_series_7_a.jpg"" style=""width: 300px; height: 300px;"" />
                  </div>","null","",""
"","","","","","html-keyboard-response","21","74556","0.0-17.0-1.0","D62F5F78364F4EB0B6016C4B37060937","D62F5F78364F4EB0B6016C4B37060937","71dba312-90f3-4e44-936a-87f91da73ec3","e622c465-ee29-4445-8260-1f3431e06587","{""participantId"":""D62F5F78364F4EB0B6016C4B37060937"",""assignmentId"":""71dba312-90f3-4e44-936a-87f91da73ec3"",""projectId"":""e622c465-ee29-4445-8260-1f3431e06587""}","https://test12345.live/?participantId=D62F5F78364F4EB0B6016C4B37060937&assignmentId=71dba312-90f3-4e44-936a-87f91da73ec3&projectId=e622c465-ee29-4445-8260-1f3431e06587","","null","<div style=""display: flex; justify-content: center; align-items: center;"">
                    <img src=""images/semantic/semantic_series_7/semantic_series_7_b.jpg"" style=""width: 300px; height: 300px;"" />
                  </div>","null","",""
"","","","","","html-keyboard-response","22","77559","0.0-17.0-2.0","D62F5F78364F4EB0B6016C4B37060937","D62F5F78364F4EB0B6016C4B37060937","71dba312-90f3-4e44-936a-87f91da73ec3","e622c465-ee29-4445-8260-1f3431e06587","{""participantId"":""D62F5F78364F4EB0B6016C4B37060937"",""assignmentId"":""71dba312-90f3-4e44-936a-87f91da73ec3"",""projectId"":""e622c465-ee29-4445-8260-1f3431e06587""}","https://test12345.live/?participantId=D62F5F78364F4EB0B6016C4B37060937&assignmentId=71dba312-90f3-4e44-936a-87f91da73ec3&projectId=e622c465-ee29-4445-8260-1f3431e06587","","null","<div style=""display: flex; justify-content: center; align-items: center;"">
                    <img src=""images/semantic/semantic_series_7/semantic_series_7_c.jpg"" style=""width: 300px; height: 300px;"" />
                  </div>","null","",""
"","","","","","html-keyboard-response","23","80562","0.0-17.0-3.0","D62F5F78364F4EB0B6016C4B37060937","D62F5F78364F4EB0B6016C4B37060937","71dba312-90f3-4e44-936a-87f91da73ec3","e622c465-ee29-4445-8260-1f3431e06587","{""participantId"":""D62F5F78364F4EB0B6016C4B37060937"",""assignmentId"":""71dba312-90f3-4e44-936a-87f91da73ec3"",""projectId"":""e622c465-ee29-4445-8260-1f3431e06587""}","https://test12345.live/?participantId=D62F5F78364F4EB0B6016C4B37060937&assignmentId=71dba312-90f3-4e44-936a-87f91da73ec3&projectId=e622c465-ee29-4445-8260-1f3431e06587","","null","<div style=""display: flex; justify-content: center; align-items: center;"">
                    <img src=""images/semantic/semantic_series_7/semantic_series_7_d.jpg"" style=""width: 300px; height: 300px;"" />
                  </div>","null","",""
"","","","","","html-button-response","24","81709","0.0-18.0","D62F5F78364F4EB0B6016C4B37060937","D62F5F78364F4EB0B6016C4B37060937","71dba312-90f3-4e44-936a-87f91da73ec3","e622c465-ee29-4445-8260-1f3431e06587","{""participantId"":""D62F5F78364F4EB0B6016C4B37060937"",""assignmentId"":""71dba312-90f3-4e44-936a-87f91da73ec3"",""projectId"":""e622c465-ee29-4445-8260-1f3431e06587""}","https://test12345.live/?participantId=D62F5F78364F4EB0B6016C4B37060937&assignmentId=71dba312-90f3-4e44-936a-87f91da73ec3&projectId=e622c465-ee29-4445-8260-1f3431e06587","","1146","Was there a person in the picture?","1","",""
"","","","","","survey-likert","25","83738","0.0-19.0","D62F5F78364F4EB0B6016C4B37060937","D62F5F78364F4EB0B6016C4B37060937","71dba312-90f3-4e44-936a-87f91da73ec3","e622c465-ee29-4445-8260-1f3431e06587","{""participantId"":""D62F5F78364F4EB0B6016C4B37060937"",""assignmentId"":""71dba312-90f3-4e44-936a-87f91da73ec3"",""projectId"":""e622c465-ee29-4445-8260-1f3431e06587""}","https://test12345.live/?participantId=D62F5F78364F4EB0B6016C4B37060937&assignmentId=71dba312-90f3-4e44-936a-87f91da73ec3&projectId=e622c465-ee29-4445-8260-1f3431e06587","","2027","","{""Q0"":2}","","[0]"
"","","","","","html-button-response","26","88368","0.0-20.0","D62F5F78364F4EB0B6016C4B37060937","D62F5F78364F4EB0B6016C4B37060937","71dba312-90f3-4e44-936a-87f91da73ec3","e622c465-ee29-4445-8260-1f3431e06587","{""participantId"":""D62F5F78364F4EB0B6016C4B37060937"",""assignmentId"":""71dba312-90f3-4e44-936a-87f91da73ec3"",""projectId"":""e622c465-ee29-4445-8260-1f3431e06587""}","https://test12345.live/?participantId=D62F5F78364F4EB0B6016C4B37060937&assignmentId=71dba312-90f3-4e44-936a-87f91da73ec3&projectId=e622c465-ee29-4445-8260-1f3431e06587","","4629","
    <div style=""display: flex; justify-content: center; align-items: center;"">
      <img src=""images/blue_deck_1.png"" style=""width: 300px; height: 300px; margin-right: 10px;"" />
      <img src=""images/red_deck_2.png"" style=""width: 300px; height: 300px;"" />
    </div>","1","1",""
"","","","","","html-keyboard-response","27","91371","0.0-22.0-0.0","D62F5F78364F4EB0B6016C4B37060937","D62F5F78364F4EB0B6016C4B37060937","71dba312-90f3-4e44-936a-87f91da73ec3","e622c465-ee29-4445-8260-1f3431e06587","{""participantId"":""D62F5F78364F4EB0B6016C4B37060937"",""assignmentId"":""71dba312-90f3-4e44-936a-87f91da73ec3"",""projectId"":""e622c465-ee29-4445-8260-1f3431e06587""}","https://test12345.live/?participantId=D62F5F78364F4EB0B6016C4B37060937&assignmentId=71dba312-90f3-4e44-936a-87f91da73ec3&projectId=e622c465-ee29-4445-8260-1f3431e06587","","null","<div style=""display: flex; justify-content: center; align-items: center;"">
                    <img src=""images/semantic/semantic_series_3/semantic_series_3_a.jpg"" style=""width: 300px; height: 300px;"" />
                  </div>","null","",""
"","","","","","html-keyboard-response","28","94373","0.0-22.0-1.0","D62F5F78364F4EB0B6016C4B37060937","D62F5F78364F4EB0B6016C4B37060937","71dba312-90f3-4e44-936a-87f91da73ec3","e622c465-ee29-4445-8260-1f3431e06587","{""participantId"":""D62F5F78364F4EB0B6016C4B37060937"",""assignmentId"":""71dba312-90f3-4e44-936a-87f91da73ec3"",""projectId"":""e622c465-ee29-4445-8260-1f3431e06587""}","https://test12345.live/?participantId=D62F5F78364F4EB0B6016C4B37060937&assignmentId=71dba312-90f3-4e44-936a-87f91da73ec3&projectId=e622c465-ee29-4445-8260-1f3431e06587","","null","<div style=""display: flex; justify-content: center; align-items: center;"">
                    <img src=""images/semantic/semantic_series_3/semantic_series_3_b.jpg"" style=""width: 300px; height: 300px;"" />
                  </div>","null","",""
"","","","","","html-keyboard-response","29","97376","0.0-22.0-2.0","D62F5F78364F4EB0B6016C4B37060937","D62F5F78364F4EB0B6016C4B37060937","71dba312-90f3-4e44-936a-87f91da73ec3","e622c465-ee29-4445-8260-1f3431e06587","{""participantId"":""D62F5F78364F4EB0B6016C4B37060937"",""assignmentId"":""71dba312-90f3-4e44-936a-87f91da73ec3"",""projectId"":""e622c465-ee29-4445-8260-1f3431e06587""}","https://test12345.live/?participantId=D62F5F78364F4EB0B6016C4B37060937&assignmentId=71dba312-90f3-4e44-936a-87f91da73ec3&projectId=e622c465-ee29-4445-8260-1f3431e06587","","null","<div style=""display: flex; justify-content: center; align-items: center;"">
                    <img src=""images/semantic/semantic_series_3/semantic_series_3_c.jpg"" style=""width: 300px; height: 300px;"" />
                  </div>","null","",""
"","","","","","html-keyboard-response","30","100378","0.0-22.0-3.0","D62F5F78364F4EB0B6016C4B37060937","D62F5F78364F4EB0B6016C4B37060937","71dba312-90f3-4e44-936a-87f91da73ec3","e622c465-ee29-4445-8260-1f3431e06587","{""participantId"":""D62F5F78364F4EB0B6016C4B37060937"",""assignmentId"":""71dba312-90f3-4e44-936a-87f91da73ec3"",""projectId"":""e622c465-ee29-4445-8260-1f3431e06587""}","https://test12345.live/?participantId=D62F5F78364F4EB0B6016C4B37060937&assignmentId=71dba312-90f3-4e44-936a-87f91da73ec3&projectId=e622c465-ee29-4445-8260-1f3431e06587","","null","<div style=""display: flex; justify-content: center; align-items: center;"">
                    <img src=""images/semantic/semantic_series_3/semantic_series_3_d.jpg"" style=""width: 300px; height: 300px;"" />
                  </div>","null","",""
"","","","","","html-button-response","31","102666","0.0-23.0","D62F5F78364F4EB0B6016C4B37060937","D62F5F78364F4EB0B6016C4B37060937","71dba312-90f3-4e44-936a-87f91da73ec3","e622c465-ee29-4445-8260-1f3431e06587","{""participantId"":""D62F5F78364F4EB0B6016C4B37060937"",""assignmentId"":""71dba312-90f3-4e44-936a-87f91da73ec3"",""projectId"":""e622c465-ee29-4445-8260-1f3431e06587""}","https://test12345.live/?participantId=D62F5F78364F4EB0B6016C4B37060937&assignmentId=71dba312-90f3-4e44-936a-87f91da73ec3&projectId=e622c465-ee29-4445-8260-1f3431e06587","","2286","Was there a person in the picture?","0","",""
"","","","","","survey-likert","32","104704","0.0-24.0","D62F5F78364F4EB0B6016C4B37060937","D62F5F78364F4EB0B6016C4B37060937","71dba312-90f3-4e44-936a-87f91da73ec3","e622c465-ee29-4445-8260-1f3431e06587","{""participantId"":""D62F5F78364F4EB0B6016C4B37060937"",""assignmentId"":""71dba312-90f3-4e44-936a-87f91da73ec3"",""projectId"":""e622c465-ee29-4445-8260-1f3431e06587""}","https://test12345.live/?participantId=D62F5F78364F4EB0B6016C4B37060937&assignmentId=71dba312-90f3-4e44-936a-87f91da73ec3&projectId=e622c465-ee29-4445-8260-1f3431e06587","","2035","","{""Q0"":1}","","[0]"
"","","","","","html-button-response","33","106464","0.0-25.0","D62F5F78364F4EB0B6016C4B37060937","D62F5F78364F4EB0B6016C4B37060937","71dba312-90f3-4e44-936a-87f91da73ec3","e622c465-ee29-4445-8260-1f3431e06587","{""participantId"":""D62F5F78364F4EB0B6016C4B37060937"",""assignmentId"":""71dba312-90f3-4e44-936a-87f91da73ec3"",""projectId"":""e622c465-ee29-4445-8260-1f3431e06587""}","https://test12345.live/?participantId=D62F5F78364F4EB0B6016C4B37060937&assignmentId=71dba312-90f3-4e44-936a-87f91da73ec3&projectId=e622c465-ee29-4445-8260-1f3431e06587","","1758","
    <div style=""display: flex; justify-content: center; align-items: center;"">
      <img src=""images/blue_deck_1.png"" style=""width: 300px; height: 300px; margin-right: 10px;"" />
      <img src=""images/red_deck_2.png"" style=""width: 300px; height: 300px;"" />
    </div>","0","0",""
"","","","","","html-keyboard-response","34","109468","0.0-26.0-0.0","D62F5F78364F4EB0B6016C4B37060937","D62F5F78364F4EB0B6016C4B37060937","71dba312-90f3-4e44-936a-87f91da73ec3","e622c465-ee29-4445-8260-1f3431e06587","{""participantId"":""D62F5F78364F4EB0B6016C4B37060937"",""assignmentId"":""71dba312-90f3-4e44-936a-87f91da73ec3"",""projectId"":""e622c465-ee29-4445-8260-1f3431e06587""}","https://test12345.live/?participantId=D62F5F78364F4EB0B6016C4B37060937&assignmentId=71dba312-90f3-4e44-936a-87f91da73ec3&projectId=e622c465-ee29-4445-8260-1f3431e06587","","null","<div style=""display: flex; justify-content: center; align-items: center;"">
                    <img src=""images/causal/causal_series_12/causal_series_12_a.jpg"" style=""width: 300px; height: 300px;"" />
                  </div>","null","",""
"","","","","","html-keyboard-response","35","112469","0.0-26.0-1.0","D62F5F78364F4EB0B6016C4B37060937","D62F5F78364F4EB0B6016C4B37060937","71dba312-90f3-4e44-936a-87f91da73ec3","e622c465-ee29-4445-8260-1f3431e06587","{""participantId"":""D62F5F78364F4EB0B6016C4B37060937"",""assignmentId"":""71dba312-90f3-4e44-936a-87f91da73ec3"",""projectId"":""e622c465-ee29-4445-8260-1f3431e06587""}","https://test12345.live/?participantId=D62F5F78364F4EB0B6016C4B37060937&assignmentId=71dba312-90f3-4e44-936a-87f91da73ec3&projectId=e622c465-ee29-4445-8260-1f3431e06587","","null","<div style=""display: flex; justify-content: center; align-items: center;"">
                    <img src=""images/causal/causal_series_12/causal_series_12_b.jpg"" style=""width: 300px; height: 300px;"" />
                  </div>","null","",""
"","","","","","html-keyboard-response","36","115472","0.0-26.0-2.0","D62F5F78364F4EB0B6016C4B37060937","D62F5F78364F4EB0B6016C4B37060937","71dba312-90f3-4e44-936a-87f91da73ec3","e622c465-ee29-4445-8260-1f3431e06587","{""participantId"":""D62F5F78364F4EB0B6016C4B37060937"",""assignmentId"":""71dba312-90f3-4e44-936a-87f91da73ec3"",""projectId"":""e622c465-ee29-4445-8260-1f3431e06587""}","https://test12345.live/?participantId=D62F5F78364F4EB0B6016C4B37060937&assignmentId=71dba312-90f3-4e44-936a-87f91da73ec3&projectId=e622c465-ee29-4445-8260-1f3431e06587","","null","<div style=""display: flex; justify-content: center; align-items: center;"">
                    <img src=""images/causal/causal_series_12/causal_series_12_c.jpg"" style=""width: 300px; height: 300px;"" />
                  </div>","null","",""
"","","","","","html-keyboard-response","37","118475","0.0-26.0-3.0","D62F5F78364F4EB0B6016C4B37060937","D62F5F78364F4EB0B6016C4B37060937","71dba312-90f3-4e44-936a-87f91da73ec3","e622c465-ee29-4445-8260-1f3431e06587","{""participantId"":""D62F5F78364F4EB0B6016C4B37060937"",""assignmentId"":""71dba312-90f3-4e44-936a-87f91da73ec3"",""projectId"":""e622c465-ee29-4445-8260-1f3431e06587""}","https://test12345.live/?participantId=D62F5F78364F4EB0B6016C4B37060937&assignmentId=71dba312-90f3-4e44-936a-87f91da73ec3&projectId=e622c465-ee29-4445-8260-1f3431e06587","","null","<div style=""display: flex; justify-content: center; align-items: center;"">
                    <img src=""images/causal/causal_series_12/causal_series_12_d.jpg"" style=""width: 300px; height: 300px;"" />
                  </div>","null","",""
"","","","","","html-button-response","38","122497","0.0-28.0","D62F5F78364F4EB0B6016C4B37060937","D62F5F78364F4EB0B6016C4B37060937","71dba312-90f3-4e44-936a-87f91da73ec3","e622c465-ee29-4445-8260-1f3431e06587","{""participantId"":""D62F5F78364F4EB0B6016C4B37060937"",""assignmentId"":""71dba312-90f3-4e44-936a-87f91da73ec3"",""projectId"":""e622c465-ee29-4445-8260-1f3431e06587""}","https://test12345.live/?participantId=D62F5F78364F4EB0B6016C4B37060937&assignmentId=71dba312-90f3-4e44-936a-87f91da73ec3&projectId=e622c465-ee29-4445-8260-1f3431e06587","","4019","Was there a person in the picture?","0","",""
"","","","","","survey-likert","39","126842","0.0-29.0","D62F5F78364F4EB0B6016C4B37060937","D62F5F78364F4EB0B6016C4B37060937","71dba312-90f3-4e44-936a-87f91da73ec3","e622c465-ee29-4445-8260-1f3431e06587","{""participantId"":""D62F5F78364F4EB0B6016C4B37060937"",""assignmentId"":""71dba312-90f3-4e44-936a-87f91da73ec3"",""projectId"":""e622c465-ee29-4445-8260-1f3431e06587""}","https://test12345.live/?participantId=D62F5F78364F4EB0B6016C4B37060937&assignmentId=71dba312-90f3-4e44-936a-87f91da73ec3&projectId=e622c465-ee29-4445-8260-1f3431e06587","","4344","","{""Q0"":1}","","[0]"
"","","","","","html-button-response","40","127879","0.0-30.0","D62F5F78364F4EB0B6016C4B37060937","D62F5F78364F4EB0B6016C4B37060937","71dba312-90f3-4e44-936a-87f91da73ec3","e622c465-ee29-4445-8260-1f3431e06587","{""participantId"":""D62F5F78364F4EB0B6016C4B37060937"",""assignmentId"":""71dba312-90f3-4e44-936a-87f91da73ec3"",""projectId"":""e622c465-ee29-4445-8260-1f3431e06587""}","https://test12345.live/?participantId=D62F5F78364F4EB0B6016C4B37060937&assignmentId=71dba312-90f3-4e44-936a-87f91da73ec3&projectId=e622c465-ee29-4445-8260-1f3431e06587","","1035","
    <div style=""display: flex; justify-content: center; align-items: center;"">
      <img src=""images/blue_deck_1.png"" style=""width: 300px; height: 300px; margin-right: 10px;"" />
      <img src=""images/red_deck_2.png"" style=""width: 300px; height: 300px;"" />
    </div>","0","0",""
"","","","","","html-keyboard-response","41","130882","0.0-31.0-0.0","D62F5F78364F4EB0B6016C4B37060937","D62F5F78364F4EB0B6016C4B37060937","71dba312-90f3-4e44-936a-87f91da73ec3","e622c465-ee29-4445-8260-1f3431e06587","{""participantId"":""D62F5F78364F4EB0B6016C4B37060937"",""assignmentId"":""71dba312-90f3-4e44-936a-87f91da73ec3"",""projectId"":""e622c465-ee29-4445-8260-1f3431e06587""}","https://test12345.live/?participantId=D62F5F78364F4EB0B6016C4B37060937&assignmentId=71dba312-90f3-4e44-936a-87f91da73ec3&projectId=e622c465-ee29-4445-8260-1f3431e06587","","null","<div style=""display: flex; justify-content: center; align-items: center;"">
                    <img src=""images/causal/causal_series_2/causal_series_2_a.jpg"" style=""width: 300px; height: 300px;"" />
                  </div>","null","",""
"","","","","","html-keyboard-response","42","133885","0.0-31.0-1.0","D62F5F78364F4EB0B6016C4B37060937","D62F5F78364F4EB0B6016C4B37060937","71dba312-90f3-4e44-936a-87f91da73ec3","e622c465-ee29-4445-8260-1f3431e06587","{""participantId"":""D62F5F78364F4EB0B6016C4B37060937"",""assignmentId"":""71dba312-90f3-4e44-936a-87f91da73ec3"",""projectId"":""e622c465-ee29-4445-8260-1f3431e06587""}","https://test12345.live/?participantId=D62F5F78364F4EB0B6016C4B37060937&assignmentId=71dba312-90f3-4e44-936a-87f91da73ec3&projectId=e622c465-ee29-4445-8260-1f3431e06587","","null","<div style=""display: flex; justify-content: center; align-items: center;"">
                    <img src=""images/causal/causal_series_2/causal_series_2_b.jpg"" style=""width: 300px; height: 300px;"" />
                  </div>","null","",""
"","","","","","html-keyboard-response","43","136887","0.0-31.0-2.0","D62F5F78364F4EB0B6016C4B37060937","D62F5F78364F4EB0B6016C4B37060937","71dba312-90f3-4e44-936a-87f91da73ec3","e622c465-ee29-4445-8260-1f3431e06587","{""participantId"":""D62F5F78364F4EB0B6016C4B37060937"",""assignmentId"":""71dba312-90f3-4e44-936a-87f91da73ec3"",""projectId"":""e622c465-ee29-4445-8260-1f3431e06587""}","https://test12345.live/?participantId=D62F5F78364F4EB0B6016C4B37060937&assignmentId=71dba312-90f3-4e44-936a-87f91da73ec3&projectId=e622c465-ee29-4445-8260-1f3431e06587","","null","<div style=""display: flex; justify-content: center; align-items: center;"">
                    <img src=""images/causal/causal_series_2/causal_series_2_c.jpg"" style=""width: 300px; height: 300px;"" />
                  </div>","null","",""
"","","","","","html-keyboard-response","44","139890","0.0-31.0-3.0","D62F5F78364F4EB0B6016C4B37060937","D62F5F78364F4EB0B6016C4B37060937","71dba312-90f3-4e44-936a-87f91da73ec3","e622c465-ee29-4445-8260-1f3431e06587","{""participantId"":""D62F5F78364F4EB0B6016C4B37060937"",""assignmentId"":""71dba312-90f3-4e44-936a-87f91da73ec3"",""projectId"":""e622c465-ee29-4445-8260-1f3431e06587""}","https://test12345.live/?participantId=D62F5F78364F4EB0B6016C4B37060937&assignmentId=71dba312-90f3-4e44-936a-87f91da73ec3&projectId=e622c465-ee29-4445-8260-1f3431e06587","","null","<div style=""display: flex; justify-content: center; align-items: center;"">
                    <img src=""images/causal/causal_series_2/causal_series_2_d.jpg"" style=""width: 300px; height: 300px;"" />
                  </div>","null","",""
"","","","","","html-button-response","45","143958","0.0-33.0","D62F5F78364F4EB0B6016C4B37060937","D62F5F78364F4EB0B6016C4B37060937","71dba312-90f3-4e44-936a-87f91da73ec3","e622c465-ee29-4445-8260-1f3431e06587","{""participantId"":""D62F5F78364F4EB0B6016C4B37060937"",""assignmentId"":""71dba312-90f3-4e44-936a-87f91da73ec3"",""projectId"":""e622c465-ee29-4445-8260-1f3431e06587""}","https://test12345.live/?participantId=D62F5F78364F4EB0B6016C4B37060937&assignmentId=71dba312-90f3-4e44-936a-87f91da73ec3&projectId=e622c465-ee29-4445-8260-1f3431e06587","","4066","Was there a person in the picture?","0","",""
"","","","","","survey-likert","46","147042","0.0-34.0","D62F5F78364F4EB0B6016C4B37060937","D62F5F78364F4EB0B6016C4B37060937","71dba312-90f3-4e44-936a-87f91da73ec3","e622c465-ee29-4445-8260-1f3431e06587","{""participantId"":""D62F5F78364F4EB0B6016C4B37060937"",""assignmentId"":""71dba312-90f3-4e44-936a-87f91da73ec3"",""projectId"":""e622c465-ee29-4445-8260-1f3431e06587""}","https://test12345.live/?participantId=D62F5F78364F4EB0B6016C4B37060937&assignmentId=71dba312-90f3-4e44-936a-87f91da73ec3&projectId=e622c465-ee29-4445-8260-1f3431e06587","","3083","","{""Q0"":1}","","[0]"
"","","","","","html-button-response","47","149180","0.0-35.0","D62F5F78364F4EB0B6016C4B37060937","D62F5F78364F4EB0B6016C4B37060937","71dba312-90f3-4e44-936a-87f91da73ec3","e622c465-ee29-4445-8260-1f3431e06587","{""participantId"":""D62F5F78364F4EB0B6016C4B37060937"",""assignmentId"":""71dba312-90f3-4e44-936a-87f91da73ec3"",""projectId"":""e622c465-ee29-4445-8260-1f3431e06587""}","https://test12345.live/?participantId=D62F5F78364F4EB0B6016C4B37060937&assignmentId=71dba312-90f3-4e44-936a-87f91da73ec3&projectId=e622c465-ee29-4445-8260-1f3431e06587","","2136","
    <div style=""display: flex; justify-content: center; align-items: center;"">
      <img src=""images/blue_deck_1.png"" style=""width: 300px; height: 300px; margin-right: 10px;"" />
      <img src=""images/red_deck_2.png"" style=""width: 300px; height: 300px;"" />
    </div>","1","1",""
"","","","","","html-keyboard-response","48","152183","0.0-37.0-0.0","D62F5F78364F4EB0B6016C4B37060937","D62F5F78364F4EB0B6016C4B37060937","71dba312-90f3-4e44-936a-87f91da73ec3","e622c465-ee29-4445-8260-1f3431e06587","{""participantId"":""D62F5F78364F4EB0B6016C4B37060937"",""assignmentId"":""71dba312-90f3-4e44-936a-87f91da73ec3"",""projectId"":""e622c465-ee29-4445-8260-1f3431e06587""}","https://test12345.live/?participantId=D62F5F78364F4EB0B6016C4B37060937&assignmentId=71dba312-90f3-4e44-936a-87f91da73ec3&projectId=e622c465-ee29-4445-8260-1f3431e06587","","null","<div style=""display: flex; justify-content: center; align-items: center;"">
                    <img src=""images/semantic/semantic_series_1/semantic_series_1_a.jpg"" style=""width: 300px; height: 300px;"" />
                  </div>","null","",""
"","","","","","html-keyboard-response","49","155185","0.0-37.0-1.0","D62F5F78364F4EB0B6016C4B37060937","D62F5F78364F4EB0B6016C4B37060937","71dba312-90f3-4e44-936a-87f91da73ec3","e622c465-ee29-4445-8260-1f3431e06587","{""participantId"":""D62F5F78364F4EB0B6016C4B37060937"",""assignmentId"":""71dba312-90f3-4e44-936a-87f91da73ec3"",""projectId"":""e622c465-ee29-4445-8260-1f3431e06587""}","https://test12345.live/?participantId=D62F5F78364F4EB0B6016C4B37060937&assignmentId=71dba312-90f3-4e44-936a-87f91da73ec3&projectId=e622c465-ee29-4445-8260-1f3431e06587","","null","<div style=""display: flex; justify-content: center; align-items: center;"">
                    <img src=""images/semantic/semantic_series_1/semantic_series_1_b.jpg"" style=""width: 300px; height: 300px;"" />
                  </div>","null","",""
"","","","","","html-keyboard-response","50","158188","0.0-37.0-2.0","D62F5F78364F4EB0B6016C4B37060937","D62F5F78364F4EB0B6016C4B37060937","71dba312-90f3-4e44-936a-87f91da73ec3","e622c465-ee29-4445-8260-1f3431e06587","{""participantId"":""D62F5F78364F4EB0B6016C4B37060937"",""assignmentId"":""71dba312-90f3-4e44-936a-87f91da73ec3"",""projectId"":""e622c465-ee29-4445-8260-1f3431e06587""}","https://test12345.live/?participantId=D62F5F78364F4EB0B6016C4B37060937&assignmentId=71dba312-90f3-4e44-936a-87f91da73ec3&projectId=e622c465-ee29-4445-8260-1f3431e06587","","null","<div style=""display: flex; justify-content: center; align-items: center;"">
                    <img src=""images/semantic/semantic_series_1/semantic_series_1_c.jpg"" style=""width: 300px; height: 300px;"" />
                  </div>","null","",""
"","","","","","html-keyboard-response","51","161190","0.0-37.0-3.0","D62F5F78364F4EB0B6016C4B37060937","D62F5F78364F4EB0B6016C4B37060937","71dba312-90f3-4e44-936a-87f91da73ec3","e622c465-ee29-4445-8260-1f3431e06587","{""participantId"":""D62F5F78364F4EB0B6016C4B37060937"",""assignmentId"":""71dba312-90f3-4e44-936a-87f91da73ec3"",""projectId"":""e622c465-ee29-4445-8260-1f3431e06587""}","https://test12345.live/?participantId=D62F5F78364F4EB0B6016C4B37060937&assignmentId=71dba312-90f3-4e44-936a-87f91da73ec3&projectId=e622c465-ee29-4445-8260-1f3431e06587","","null","<div style=""display: flex; justify-content: center; align-items: center;"">
                    <img src=""images/semantic/semantic_series_1/semantic_series_1_d.jpg"" style=""width: 300px; height: 300px;"" />
                  </div>","null","",""
"","","","","","html-button-response","52","162691","0.0-38.0","D62F5F78364F4EB0B6016C4B37060937","D62F5F78364F4EB0B6016C4B37060937","71dba312-90f3-4e44-936a-87f91da73ec3","e622c465-ee29-4445-8260-1f3431e06587","{""participantId"":""D62F5F78364F4EB0B6016C4B37060937"",""assignmentId"":""71dba312-90f3-4e44-936a-87f91da73ec3"",""projectId"":""e622c465-ee29-4445-8260-1f3431e06587""}","https://test12345.live/?participantId=D62F5F78364F4EB0B6016C4B37060937&assignmentId=71dba312-90f3-4e44-936a-87f91da73ec3&projectId=e622c465-ee29-4445-8260-1f3431e06587","","1499","Was there a person in the picture?","0","",""
"","","","","","survey-likert","53","165363","0.0-39.0","D62F5F78364F4EB0B6016C4B37060937","D62F5F78364F4EB0B6016C4B37060937","71dba312-90f3-4e44-936a-87f91da73ec3","e622c465-ee29-4445-8260-1f3431e06587","{""participantId"":""D62F5F78364F4EB0B6016C4B37060937"",""assignmentId"":""71dba312-90f3-4e44-936a-87f91da73ec3"",""projectId"":""e622c465-ee29-4445-8260-1f3431e06587""}","https://test12345.live/?participantId=D62F5F78364F4EB0B6016C4B37060937&assignmentId=71dba312-90f3-4e44-936a-87f91da73ec3&projectId=e622c465-ee29-4445-8260-1f3431e06587","","2670","","{""Q0"":1}","","[0]"
"","","","","","html-button-response","54","166592","0.0-40.0","D62F5F78364F4EB0B6016C4B37060937","D62F5F78364F4EB0B6016C4B37060937","71dba312-90f3-4e44-936a-87f91da73ec3","e622c465-ee29-4445-8260-1f3431e06587","{""participantId"":""D62F5F78364F4EB0B6016C4B37060937"",""assignmentId"":""71dba312-90f3-4e44-936a-87f91da73ec3"",""projectId"":""e622c465-ee29-4445-8260-1f3431e06587""}","https://test12345.live/?participantId=D62F5F78364F4EB0B6016C4B37060937&assignmentId=71dba312-90f3-4e44-936a-87f91da73ec3&projectId=e622c465-ee29-4445-8260-1f3431e06587","","1227","
    <div style=""display: flex; justify-content: center; align-items: center;"">
      <img src=""images/blue_deck_1.png"" style=""width: 300px; height: 300px; margin-right: 10px;"" />
      <img src=""images/red_deck_2.png"" style=""width: 300px; height: 300px;"" />
    </div>","0","0",""
"","","","","","html-keyboard-response","55","169595","0.0-41.0-0.0","D62F5F78364F4EB0B6016C4B37060937","D62F5F78364F4EB0B6016C4B37060937","71dba312-90f3-4e44-936a-87f91da73ec3","e622c465-ee29-4445-8260-1f3431e06587","{""participantId"":""D62F5F78364F4EB0B6016C4B37060937"",""assignmentId"":""71dba312-90f3-4e44-936a-87f91da73ec3"",""projectId"":""e622c465-ee29-4445-8260-1f3431e06587""}","https://test12345.live/?participantId=D62F5F78364F4EB0B6016C4B37060937&assignmentId=71dba312-90f3-4e44-936a-87f91da73ec3&projectId=e622c465-ee29-4445-8260-1f3431e06587","","null","<div style=""display: flex; justify-content: center; align-items: center;"">
                    <img src=""images/causal/causal_series_8/causal_series_8_a.jpg"" style=""width: 300px; height: 300px;"" />
                  </div>","null","",""
"","","","","","html-keyboard-response","56","172597","0.0-41.0-1.0","D62F5F78364F4EB0B6016C4B37060937","D62F5F78364F4EB0B6016C4B37060937","71dba312-90f3-4e44-936a-87f91da73ec3","e622c465-ee29-4445-8260-1f3431e06587","{""participantId"":""D62F5F78364F4EB0B6016C4B37060937"",""assignmentId"":""71dba312-90f3-4e44-936a-87f91da73ec3"",""projectId"":""e622c465-ee29-4445-8260-1f3431e06587""}","https://test12345.live/?participantId=D62F5F78364F4EB0B6016C4B37060937&assignmentId=71dba312-90f3-4e44-936a-87f91da73ec3&projectId=e622c465-ee29-4445-8260-1f3431e06587","","null","<div style=""display: flex; justify-content: center; align-items: center;"">
                    <img src=""images/causal/causal_series_8/causal_series_8_b.jpg"" style=""width: 300px; height: 300px;"" />
                  </div>","null","",""
"","","","","","html-keyboard-response","57","175599","0.0-41.0-2.0","D62F5F78364F4EB0B6016C4B37060937","D62F5F78364F4EB0B6016C4B37060937","71dba312-90f3-4e44-936a-87f91da73ec3","e622c465-ee29-4445-8260-1f3431e06587","{""participantId"":""D62F5F78364F4EB0B6016C4B37060937"",""assignmentId"":""71dba312-90f3-4e44-936a-87f91da73ec3"",""projectId"":""e622c465-ee29-4445-8260-1f3431e06587""}","https://test12345.live/?participantId=D62F5F78364F4EB0B6016C4B37060937&assignmentId=71dba312-90f3-4e44-936a-87f91da73ec3&projectId=e622c465-ee29-4445-8260-1f3431e06587","","null","<div style=""display: flex; justify-content: center; align-items: center;"">
                    <img src=""images/causal/causal_series_8/causal_series_8_c.jpg"" style=""width: 300px; height: 300px;"" />
                  </div>","null","",""
"","","","","","html-keyboard-response","58","178601","0.0-41.0-3.0","D62F5F78364F4EB0B6016C4B37060937","D62F5F78364F4EB0B6016C4B37060937","71dba312-90f3-4e44-936a-87f91da73ec3","e622c465-ee29-4445-8260-1f3431e06587","{""participantId"":""D62F5F78364F4EB0B6016C4B37060937"",""assignmentId"":""71dba312-90f3-4e44-936a-87f91da73ec3"",""projectId"":""e622c465-ee29-4445-8260-1f3431e06587""}","https://test12345.live/?participantId=D62F5F78364F4EB0B6016C4B37060937&assignmentId=71dba312-90f3-4e44-936a-87f91da73ec3&projectId=e622c465-ee29-4445-8260-1f3431e06587","","null","<div style=""display: flex; justify-content: center; align-items: center;"">
                    <img src=""images/causal/causal_series_8/causal_series_8_d.jpg"" style=""width: 300px; height: 300px;"" />
                  </div>","null","",""
"","","","","","html-button-response","59","180582","0.0-43.0","D62F5F78364F4EB0B6016C4B37060937","D62F5F78364F4EB0B6016C4B37060937","71dba312-90f3-4e44-936a-87f91da73ec3","e622c465-ee29-4445-8260-1f3431e06587","{""participantId"":""D62F5F78364F4EB0B6016C4B37060937"",""assignmentId"":""71dba312-90f3-4e44-936a-87f91da73ec3"",""projectId"":""e622c465-ee29-4445-8260-1f3431e06587""}","https://test12345.live/?participantId=D62F5F78364F4EB0B6016C4B37060937&assignmentId=71dba312-90f3-4e44-936a-87f91da73ec3&projectId=e622c465-ee29-4445-8260-1f3431e06587","","1980","Was there a person in the picture?","1","",""
"","","","","","survey-likert","60","185701","0.0-44.0","D62F5F78364F4EB0B6016C4B37060937","D62F5F78364F4EB0B6016C4B37060937","71dba312-90f3-4e44-936a-87f91da73ec3","e622c465-ee29-4445-8260-1f3431e06587","{""participantId"":""D62F5F78364F4EB0B6016C4B37060937"",""assignmentId"":""71dba312-90f3-4e44-936a-87f91da73ec3"",""projectId"":""e622c465-ee29-4445-8260-1f3431e06587""}","https://test12345.live/?participantId=D62F5F78364F4EB0B6016C4B37060937&assignmentId=71dba312-90f3-4e44-936a-87f91da73ec3&projectId=e622c465-ee29-4445-8260-1f3431e06587","","5117","","{""Q0"":2}","","[0]"
"","","","","","html-button-response","61","186613","0.0-45.0","D62F5F78364F4EB0B6016C4B37060937","D62F5F78364F4EB0B6016C4B37060937","71dba312-90f3-4e44-936a-87f91da73ec3","e622c465-ee29-4445-8260-1f3431e06587","{""participantId"":""D62F5F78364F4EB0B6016C4B37060937"",""assignmentId"":""71dba312-90f3-4e44-936a-87f91da73ec3"",""projectId"":""e622c465-ee29-4445-8260-1f3431e06587""}","https://test12345.live/?participantId=D62F5F78364F4EB0B6016C4B37060937&assignmentId=71dba312-90f3-4e44-936a-87f91da73ec3&projectId=e622c465-ee29-4445-8260-1f3431e06587","","910","
    <div style=""display: flex; justify-content: center; align-items: center;"">
      <img src=""images/blue_deck_1.png"" style=""width: 300px; height: 300px; margin-right: 10px;"" />
      <img src=""images/red_deck_2.png"" style=""width: 300px; height: 300px;"" />
    </div>","0","0",""
"","","","","","html-keyboard-response","62","189617","0.0-46.0-0.0","D62F5F78364F4EB0B6016C4B37060937","D62F5F78364F4EB0B6016C4B37060937","71dba312-90f3-4e44-936a-87f91da73ec3","e622c465-ee29-4445-8260-1f3431e06587","{""participantId"":""D62F5F78364F4EB0B6016C4B37060937"",""assignmentId"":""71dba312-90f3-4e44-936a-87f91da73ec3"",""projectId"":""e622c465-ee29-4445-8260-1f3431e06587""}","https://test12345.live/?participantId=D62F5F78364F4EB0B6016C4B37060937&assignmentId=71dba312-90f3-4e44-936a-87f91da73ec3&projectId=e622c465-ee29-4445-8260-1f3431e06587","","null","<div style=""display: flex; justify-content: center; align-items: center;"">
                    <img src=""images/causal/causal_series_4/causal_series_4_a.jpg"" style=""width: 300px; height: 300px;"" />
                  </div>","null","",""
"","","","","","html-keyboard-response","63","192619","0.0-46.0-1.0","D62F5F78364F4EB0B6016C4B37060937","D62F5F78364F4EB0B6016C4B37060937","71dba312-90f3-4e44-936a-87f91da73ec3","e622c465-ee29-4445-8260-1f3431e06587","{""participantId"":""D62F5F78364F4EB0B6016C4B37060937"",""assignmentId"":""71dba312-90f3-4e44-936a-87f91da73ec3"",""projectId"":""e622c465-ee29-4445-8260-1f3431e06587""}","https://test12345.live/?participantId=D62F5F78364F4EB0B6016C4B37060937&assignmentId=71dba312-90f3-4e44-936a-87f91da73ec3&projectId=e622c465-ee29-4445-8260-1f3431e06587","","null","<div style=""display: flex; justify-content: center; align-items: center;"">
                    <img src=""images/causal/causal_series_4/causal_series_4_b.jpg"" style=""width: 300px; height: 300px;"" />
                  </div>","null","",""
"","","","","","html-keyboard-response","64","195622","0.0-46.0-2.0","D62F5F78364F4EB0B6016C4B37060937","D62F5F78364F4EB0B6016C4B37060937","71dba312-90f3-4e44-936a-87f91da73ec3","e622c465-ee29-4445-8260-1f3431e06587","{""participantId"":""D62F5F78364F4EB0B6016C4B37060937"",""assignmentId"":""71dba312-90f3-4e44-936a-87f91da73ec3"",""projectId"":""e622c465-ee29-4445-8260-1f3431e06587""}","https://test12345.live/?participantId=D62F5F78364F4EB0B6016C4B37060937&assignmentId=71dba312-90f3-4e44-936a-87f91da73ec3&projectId=e622c465-ee29-4445-8260-1f3431e06587","","null","<div style=""display: flex; justify-content: center; align-items: center;"">
                    <img src=""images/causal/causal_series_4/causal_series_4_c.jpg"" style=""width: 300px; height: 300px;"" />
                  </div>","null","",""
"","","","","","html-keyboard-response","65","198624","0.0-46.0-3.0","D62F5F78364F4EB0B6016C4B37060937","D62F5F78364F4EB0B6016C4B37060937","71dba312-90f3-4e44-936a-87f91da73ec3","e622c465-ee29-4445-8260-1f3431e06587","{""participantId"":""D62F5F78364F4EB0B6016C4B37060937"",""assignmentId"":""71dba312-90f3-4e44-936a-87f91da73ec3"",""projectId"":""e622c465-ee29-4445-8260-1f3431e06587""}","https://test12345.live/?participantId=D62F5F78364F4EB0B6016C4B37060937&assignmentId=71dba312-90f3-4e44-936a-87f91da73ec3&projectId=e622c465-ee29-4445-8260-1f3431e06587","","null","<div style=""display: flex; justify-content: center; align-items: center;"">
                    <img src=""images/causal/causal_series_4/causal_series_4_d.jpg"" style=""width: 300px; height: 300px;"" />
                  </div>","null","",""
"","","","","","html-button-response","66","206065","0.0-48.0","D62F5F78364F4EB0B6016C4B37060937","D62F5F78364F4EB0B6016C4B37060937","71dba312-90f3-4e44-936a-87f91da73ec3","e622c465-ee29-4445-8260-1f3431e06587","{""participantId"":""D62F5F78364F4EB0B6016C4B37060937"",""assignmentId"":""71dba312-90f3-4e44-936a-87f91da73ec3"",""projectId"":""e622c465-ee29-4445-8260-1f3431e06587""}","https://test12345.live/?participantId=D62F5F78364F4EB0B6016C4B37060937&assignmentId=71dba312-90f3-4e44-936a-87f91da73ec3&projectId=e622c465-ee29-4445-8260-1f3431e06587","","7439","Was there a person in the picture?","1","",""
"","","","","","survey-likert","67","209821","0.0-49.0","D62F5F78364F4EB0B6016C4B37060937","D62F5F78364F4EB0B6016C4B37060937","71dba312-90f3-4e44-936a-87f91da73ec3","e622c465-ee29-4445-8260-1f3431e06587","{""participantId"":""D62F5F78364F4EB0B6016C4B37060937"",""assignmentId"":""71dba312-90f3-4e44-936a-87f91da73ec3"",""projectId"":""e622c465-ee29-4445-8260-1f3431e06587""}","https://test12345.live/?participantId=D62F5F78364F4EB0B6016C4B37060937&assignmentId=71dba312-90f3-4e44-936a-87f91da73ec3&projectId=e622c465-ee29-4445-8260-1f3431e06587","","3754","","{""Q0"":1}","","[0]"
"","","","","","html-button-response","68","211035","0.0-50.0","D62F5F78364F4EB0B6016C4B37060937","D62F5F78364F4EB0B6016C4B37060937","71dba312-90f3-4e44-936a-87f91da73ec3","e622c465-ee29-4445-8260-1f3431e06587","{""participantId"":""D62F5F78364F4EB0B6016C4B37060937"",""assignmentId"":""71dba312-90f3-4e44-936a-87f91da73ec3"",""projectId"":""e622c465-ee29-4445-8260-1f3431e06587""}","https://test12345.live/?participantId=D62F5F78364F4EB0B6016C4B37060937&assignmentId=71dba312-90f3-4e44-936a-87f91da73ec3&projectId=e622c465-ee29-4445-8260-1f3431e06587","","1211","
    <div style=""display: flex; justify-content: center; align-items: center;"">
      <img src=""images/blue_deck_1.png"" style=""width: 300px; height: 300px; margin-right: 10px;"" />
      <img src=""images/red_deck_2.png"" style=""width: 300px; height: 300px;"" />
    </div>","0","0",""
"","","","","","html-keyboard-response","69","214038","0.0-51.0-0.0","D62F5F78364F4EB0B6016C4B37060937","D62F5F78364F4EB0B6016C4B37060937","71dba312-90f3-4e44-936a-87f91da73ec3","e622c465-ee29-4445-8260-1f3431e06587","{""participantId"":""D62F5F78364F4EB0B6016C4B37060937"",""assignmentId"":""71dba312-90f3-4e44-936a-87f91da73ec3"",""projectId"":""e622c465-ee29-4445-8260-1f3431e06587""}","https://test12345.live/?participantId=D62F5F78364F4EB0B6016C4B37060937&assignmentId=71dba312-90f3-4e44-936a-87f91da73ec3&projectId=e622c465-ee29-4445-8260-1f3431e06587","","null","<div style=""display: flex; justify-content: center; align-items: center;"">
                    <img src=""images/causal/causal_series_13/causal_series_13_a.jpg"" style=""width: 300px; height: 300px;"" />
                  </div>","null","",""
"","","","","","html-keyboard-response","70","217040","0.0-51.0-1.0","D62F5F78364F4EB0B6016C4B37060937","D62F5F78364F4EB0B6016C4B37060937","71dba312-90f3-4e44-936a-87f91da73ec3","e622c465-ee29-4445-8260-1f3431e06587","{""participantId"":""D62F5F78364F4EB0B6016C4B37060937"",""assignmentId"":""71dba312-90f3-4e44-936a-87f91da73ec3"",""projectId"":""e622c465-ee29-4445-8260-1f3431e06587""}","https://test12345.live/?participantId=D62F5F78364F4EB0B6016C4B37060937&assignmentId=71dba312-90f3-4e44-936a-87f91da73ec3&projectId=e622c465-ee29-4445-8260-1f3431e06587","","null","<div style=""display: flex; justify-content: center; align-items: center;"">
                    <img src=""images/causal/causal_series_13/causal_series_13_b.jpg"" style=""width: 300px; height: 300px;"" />
                  </div>","null","",""
"","","","","","html-keyboard-response","71","220043","0.0-51.0-2.0","D62F5F78364F4EB0B6016C4B37060937","D62F5F78364F4EB0B6016C4B37060937","71dba312-90f3-4e44-936a-87f91da73ec3","e622c465-ee29-4445-8260-1f3431e06587","{""participantId"":""D62F5F78364F4EB0B6016C4B37060937"",""assignmentId"":""71dba312-90f3-4e44-936a-87f91da73ec3"",""projectId"":""e622c465-ee29-4445-8260-1f3431e06587""}","https://test12345.live/?participantId=D62F5F78364F4EB0B6016C4B37060937&assignmentId=71dba312-90f3-4e44-936a-87f91da73ec3&projectId=e622c465-ee29-4445-8260-1f3431e06587","","null","<div style=""display: flex; justify-content: center; align-items: center;"">
                    <img src=""images/causal/causal_series_13/causal_series_13_c.jpg"" style=""width: 300px; height: 300px;"" />
                  </div>","null","",""
"","","","","","html-keyboard-response","72","223045","0.0-51.0-3.0","D62F5F78364F4EB0B6016C4B37060937","D62F5F78364F4EB0B6016C4B37060937","71dba312-90f3-4e44-936a-87f91da73ec3","e622c465-ee29-4445-8260-1f3431e06587","{""participantId"":""D62F5F78364F4EB0B6016C4B37060937"",""assignmentId"":""71dba312-90f3-4e44-936a-87f91da73ec3"",""projectId"":""e622c465-ee29-4445-8260-1f3431e06587""}","https://test12345.live/?participantId=D62F5F78364F4EB0B6016C4B37060937&assignmentId=71dba312-90f3-4e44-936a-87f91da73ec3&projectId=e622c465-ee29-4445-8260-1f3431e06587","","null","<div style=""display: flex; justify-content: center; align-items: center;"">
                    <img src=""images/causal/causal_series_13/causal_series_13_d.jpg"" style=""width: 300px; height: 300px;"" />
                  </div>","null","",""
"","","","","","html-button-response","73","224497","0.0-53.0","D62F5F78364F4EB0B6016C4B37060937","D62F5F78364F4EB0B6016C4B37060937","71dba312-90f3-4e44-936a-87f91da73ec3","e622c465-ee29-4445-8260-1f3431e06587","{""participantId"":""D62F5F78364F4EB0B6016C4B37060937"",""assignmentId"":""71dba312-90f3-4e44-936a-87f91da73ec3"",""projectId"":""e622c465-ee29-4445-8260-1f3431e06587""}","https://test12345.live/?participantId=D62F5F78364F4EB0B6016C4B37060937&assignmentId=71dba312-90f3-4e44-936a-87f91da73ec3&projectId=e622c465-ee29-4445-8260-1f3431e06587","","1450","Was there a person in the picture?","0","",""
"","","","","","survey-likert","74","226622","0.0-54.0","D62F5F78364F4EB0B6016C4B37060937","D62F5F78364F4EB0B6016C4B37060937","71dba312-90f3-4e44-936a-87f91da73ec3","e622c465-ee29-4445-8260-1f3431e06587","{""participantId"":""D62F5F78364F4EB0B6016C4B37060937"",""assignmentId"":""71dba312-90f3-4e44-936a-87f91da73ec3"",""projectId"":""e622c465-ee29-4445-8260-1f3431e06587""}","https://test12345.live/?participantId=D62F5F78364F4EB0B6016C4B37060937&assignmentId=71dba312-90f3-4e44-936a-87f91da73ec3&projectId=e622c465-ee29-4445-8260-1f3431e06587","","2124","","{""Q0"":1}","","[0]"
"","","","","","html-button-response","75","227929","0.0-55.0","D62F5F78364F4EB0B6016C4B37060937","D62F5F78364F4EB0B6016C4B37060937","71dba312-90f3-4e44-936a-87f91da73ec3","e622c465-ee29-4445-8260-1f3431e06587","{""participantId"":""D62F5F78364F4EB0B6016C4B37060937"",""assignmentId"":""71dba312-90f3-4e44-936a-87f91da73ec3"",""projectId"":""e622c465-ee29-4445-8260-1f3431e06587""}","https://test12345.live/?participantId=D62F5F78364F4EB0B6016C4B37060937&assignmentId=71dba312-90f3-4e44-936a-87f91da73ec3&projectId=e622c465-ee29-4445-8260-1f3431e06587","","1305","
    <div style=""display: flex; justify-content: center; align-items: center;"">
      <img src=""images/blue_deck_1.png"" style=""width: 300px; height: 300px; margin-right: 10px;"" />
      <img src=""images/red_deck_2.png"" style=""width: 300px; height: 300px;"" />
    </div>","1","1",""
"","","","","","html-keyboard-response","76","230932","0.0-57.0-0.0","D62F5F78364F4EB0B6016C4B37060937","D62F5F78364F4EB0B6016C4B37060937","71dba312-90f3-4e44-936a-87f91da73ec3","e622c465-ee29-4445-8260-1f3431e06587","{""participantId"":""D62F5F78364F4EB0B6016C4B37060937"",""assignmentId"":""71dba312-90f3-4e44-936a-87f91da73ec3"",""projectId"":""e622c465-ee29-4445-8260-1f3431e06587""}","https://test12345.live/?participantId=D62F5F78364F4EB0B6016C4B37060937&assignmentId=71dba312-90f3-4e44-936a-87f91da73ec3&projectId=e622c465-ee29-4445-8260-1f3431e06587","","null","<div style=""display: flex; justify-content: center; align-items: center;"">
                    <img src=""images/semantic/semantic_series_16/semantic_series_16_a.jpg"" style=""width: 300px; height: 300px;"" />
                  </div>","null","",""
"","","","","","html-keyboard-response","77","233934","0.0-57.0-1.0","D62F5F78364F4EB0B6016C4B37060937","D62F5F78364F4EB0B6016C4B37060937","71dba312-90f3-4e44-936a-87f91da73ec3","e622c465-ee29-4445-8260-1f3431e06587","{""participantId"":""D62F5F78364F4EB0B6016C4B37060937"",""assignmentId"":""71dba312-90f3-4e44-936a-87f91da73ec3"",""projectId"":""e622c465-ee29-4445-8260-1f3431e06587""}","https://test12345.live/?participantId=D62F5F78364F4EB0B6016C4B37060937&assignmentId=71dba312-90f3-4e44-936a-87f91da73ec3&projectId=e622c465-ee29-4445-8260-1f3431e06587","","null","<div style=""display: flex; justify-content: center; align-items: center;"">
                    <img src=""images/semantic/semantic_series_16/semantic_series_16_b.jpg"" style=""width: 300px; height: 300px;"" />
                  </div>","null","",""
"","","","","","html-keyboard-response","78","236937","0.0-57.0-2.0","D62F5F78364F4EB0B6016C4B37060937","D62F5F78364F4EB0B6016C4B37060937","71dba312-90f3-4e44-936a-87f91da73ec3","e622c465-ee29-4445-8260-1f3431e06587","{""participantId"":""D62F5F78364F4EB0B6016C4B37060937"",""assignmentId"":""71dba312-90f3-4e44-936a-87f91da73ec3"",""projectId"":""e622c465-ee29-4445-8260-1f3431e06587""}","https://test12345.live/?participantId=D62F5F78364F4EB0B6016C4B37060937&assignmentId=71dba312-90f3-4e44-936a-87f91da73ec3&projectId=e622c465-ee29-4445-8260-1f3431e06587","","null","<div style=""display: flex; justify-content: center; align-items: center;"">
                    <img src=""images/semantic/semantic_series_16/semantic_series_16_c.jpg"" style=""width: 300px; height: 300px;"" />
                  </div>","null","",""
"","","","","","html-keyboard-response","79","239940","0.0-57.0-3.0","D62F5F78364F4EB0B6016C4B37060937","D62F5F78364F4EB0B6016C4B37060937","71dba312-90f3-4e44-936a-87f91da73ec3","e622c465-ee29-4445-8260-1f3431e06587","{""participantId"":""D62F5F78364F4EB0B6016C4B37060937"",""assignmentId"":""71dba312-90f3-4e44-936a-87f91da73ec3"",""projectId"":""e622c465-ee29-4445-8260-1f3431e06587""}","https://test12345.live/?participantId=D62F5F78364F4EB0B6016C4B37060937&assignmentId=71dba312-90f3-4e44-936a-87f91da73ec3&projectId=e622c465-ee29-4445-8260-1f3431e06587","","null","<div style=""display: flex; justify-content: center; align-items: center;"">
                    <img src=""images/semantic/semantic_series_16/semantic_series_16_d.jpg"" style=""width: 300px; height: 300px;"" />
                  </div>","null","",""
"","","","","","html-button-response","80","242915","0.0-58.0","D62F5F78364F4EB0B6016C4B37060937","D62F5F78364F4EB0B6016C4B37060937","71dba312-90f3-4e44-936a-87f91da73ec3","e622c465-ee29-4445-8260-1f3431e06587","{""participantId"":""D62F5F78364F4EB0B6016C4B37060937"",""assignmentId"":""71dba312-90f3-4e44-936a-87f91da73ec3"",""projectId"":""e622c465-ee29-4445-8260-1f3431e06587""}","https://test12345.live/?participantId=D62F5F78364F4EB0B6016C4B37060937&assignmentId=71dba312-90f3-4e44-936a-87f91da73ec3&projectId=e622c465-ee29-4445-8260-1f3431e06587","","2974","Was there a person in the picture?","0","",""
"","","","","","survey-likert","81","249401","0.0-59.0","D62F5F78364F4EB0B6016C4B37060937","D62F5F78364F4EB0B6016C4B37060937","71dba312-90f3-4e44-936a-87f91da73ec3","e622c465-ee29-4445-8260-1f3431e06587","{""participantId"":""D62F5F78364F4EB0B6016C4B37060937"",""assignmentId"":""71dba312-90f3-4e44-936a-87f91da73ec3"",""projectId"":""e622c465-ee29-4445-8260-1f3431e06587""}","https://test12345.live/?participantId=D62F5F78364F4EB0B6016C4B37060937&assignmentId=71dba312-90f3-4e44-936a-87f91da73ec3&projectId=e622c465-ee29-4445-8260-1f3431e06587","","6484","","{""Q0"":1}","","[0]"
"","","","","","html-button-response","82","251004","0.0-60.0","D62F5F78364F4EB0B6016C4B37060937","D62F5F78364F4EB0B6016C4B37060937","71dba312-90f3-4e44-936a-87f91da73ec3","e622c465-ee29-4445-8260-1f3431e06587","{""participantId"":""D62F5F78364F4EB0B6016C4B37060937"",""assignmentId"":""71dba312-90f3-4e44-936a-87f91da73ec3"",""projectId"":""e622c465-ee29-4445-8260-1f3431e06587""}","https://test12345.live/?participantId=D62F5F78364F4EB0B6016C4B37060937&assignmentId=71dba312-90f3-4e44-936a-87f91da73ec3&projectId=e622c465-ee29-4445-8260-1f3431e06587","","1600","
    <div style=""display: flex; justify-content: center; align-items: center;"">
      <img src=""images/blue_deck_1.png"" style=""width: 300px; height: 300px; margin-right: 10px;"" />
      <img src=""images/red_deck_2.png"" style=""width: 300px; height: 300px;"" />
    </div>","0","0",""
"","","","","","html-keyboard-response","83","254006","0.0-61.0-0.0","D62F5F78364F4EB0B6016C4B37060937","D62F5F78364F4EB0B6016C4B37060937","71dba312-90f3-4e44-936a-87f91da73ec3","e622c465-ee29-4445-8260-1f3431e06587","{""participantId"":""D62F5F78364F4EB0B6016C4B37060937"",""assignmentId"":""71dba312-90f3-4e44-936a-87f91da73ec3"",""projectId"":""e622c465-ee29-4445-8260-1f3431e06587""}","https://test12345.live/?participantId=D62F5F78364F4EB0B6016C4B37060937&assignmentId=71dba312-90f3-4e44-936a-87f91da73ec3&projectId=e622c465-ee29-4445-8260-1f3431e06587","","null","<div style=""display: flex; justify-content: center; align-items: center;"">
                    <img src=""images/causal/causal_series_3/causal_series_3_a.jpg"" style=""width: 300px; height: 300px;"" />
                  </div>","null","",""
"","","","","","html-keyboard-response","84","257009","0.0-61.0-1.0","D62F5F78364F4EB0B6016C4B37060937","D62F5F78364F4EB0B6016C4B37060937","71dba312-90f3-4e44-936a-87f91da73ec3","e622c465-ee29-4445-8260-1f3431e06587","{""participantId"":""D62F5F78364F4EB0B6016C4B37060937"",""assignmentId"":""71dba312-90f3-4e44-936a-87f91da73ec3"",""projectId"":""e622c465-ee29-4445-8260-1f3431e06587""}","https://test12345.live/?participantId=D62F5F78364F4EB0B6016C4B37060937&assignmentId=71dba312-90f3-4e44-936a-87f91da73ec3&projectId=e622c465-ee29-4445-8260-1f3431e06587","","null","<div style=""display: flex; justify-content: center; align-items: center;"">
                    <img src=""images/causal/causal_series_3/causal_series_3_b.jpg"" style=""width: 300px; height: 300px;"" />
                  </div>","null","",""
"","","","","","html-keyboard-response","85","260012","0.0-61.0-2.0","D62F5F78364F4EB0B6016C4B37060937","D62F5F78364F4EB0B6016C4B37060937","71dba312-90f3-4e44-936a-87f91da73ec3","e622c465-ee29-4445-8260-1f3431e06587","{""participantId"":""D62F5F78364F4EB0B6016C4B37060937"",""assignmentId"":""71dba312-90f3-4e44-936a-87f91da73ec3"",""projectId"":""e622c465-ee29-4445-8260-1f3431e06587""}","https://test12345.live/?participantId=D62F5F78364F4EB0B6016C4B37060937&assignmentId=71dba312-90f3-4e44-936a-87f91da73ec3&projectId=e622c465-ee29-4445-8260-1f3431e06587","","null","<div style=""display: flex; justify-content: center; align-items: center;"">
                    <img src=""images/causal/causal_series_3/causal_series_3_c.jpg"" style=""width: 300px; height: 300px;"" />
                  </div>","null","",""
"","","","","","html-keyboard-response","86","263015","0.0-61.0-3.0","D62F5F78364F4EB0B6016C4B37060937","D62F5F78364F4EB0B6016C4B37060937","71dba312-90f3-4e44-936a-87f91da73ec3","e622c465-ee29-4445-8260-1f3431e06587","{""participantId"":""D62F5F78364F4EB0B6016C4B37060937"",""assignmentId"":""71dba312-90f3-4e44-936a-87f91da73ec3"",""projectId"":""e622c465-ee29-4445-8260-1f3431e06587""}","https://test12345.live/?participantId=D62F5F78364F4EB0B6016C4B37060937&assignmentId=71dba312-90f3-4e44-936a-87f91da73ec3&projectId=e622c465-ee29-4445-8260-1f3431e06587","","null","<div style=""display: flex; justify-content: center; align-items: center;"">
                    <img src=""images/causal/causal_series_3/causal_series_3_d.jpg"" style=""width: 300px; height: 300px;"" />
                  </div>","null","",""
"","","","","","html-button-response","87","265486","0.0-63.0","D62F5F78364F4EB0B6016C4B37060937","D62F5F78364F4EB0B6016C4B37060937","71dba312-90f3-4e44-936a-87f91da73ec3","e622c465-ee29-4445-8260-1f3431e06587","{""participantId"":""D62F5F78364F4EB0B6016C4B37060937"",""assignmentId"":""71dba312-90f3-4e44-936a-87f91da73ec3"",""projectId"":""e622c465-ee29-4445-8260-1f3431e06587""}","https://test12345.live/?participantId=D62F5F78364F4EB0B6016C4B37060937&assignmentId=71dba312-90f3-4e44-936a-87f91da73ec3&projectId=e622c465-ee29-4445-8260-1f3431e06587","","2469","Was there a person in the picture?","0","",""
"","","","","","survey-likert","88","269244","0.0-64.0","D62F5F78364F4EB0B6016C4B37060937","D62F5F78364F4EB0B6016C4B37060937","71dba312-90f3-4e44-936a-87f91da73ec3","e622c465-ee29-4445-8260-1f3431e06587","{""participantId"":""D62F5F78364F4EB0B6016C4B37060937"",""assignmentId"":""71dba312-90f3-4e44-936a-87f91da73ec3"",""projectId"":""e622c465-ee29-4445-8260-1f3431e06587""}","https://test12345.live/?participantId=D62F5F78364F4EB0B6016C4B37060937&assignmentId=71dba312-90f3-4e44-936a-87f91da73ec3&projectId=e622c465-ee29-4445-8260-1f3431e06587","","3756","","{""Q0"":1}","","[0]"
"","","","","","html-button-response","89","273356","0.0-65.0","D62F5F78364F4EB0B6016C4B37060937","D62F5F78364F4EB0B6016C4B37060937","71dba312-90f3-4e44-936a-87f91da73ec3","e622c465-ee29-4445-8260-1f3431e06587","{""participantId"":""D62F5F78364F4EB0B6016C4B37060937"",""assignmentId"":""71dba312-90f3-4e44-936a-87f91da73ec3"",""projectId"":""e622c465-ee29-4445-8260-1f3431e06587""}","https://test12345.live/?participantId=D62F5F78364F4EB0B6016C4B37060937&assignmentId=71dba312-90f3-4e44-936a-87f91da73ec3&projectId=e622c465-ee29-4445-8260-1f3431e06587","","4110","
    <div style=""display: flex; justify-content: center; align-items: center;"">
      <img src=""images/blue_deck_1.png"" style=""width: 300px; height: 300px; margin-right: 10px;"" />
      <img src=""images/red_deck_2.png"" style=""width: 300px; height: 300px;"" />
    </div>","1","1",""
"","","","","","html-keyboard-response","90","276359","0.0-67.0-0.0","D62F5F78364F4EB0B6016C4B37060937","D62F5F78364F4EB0B6016C4B37060937","71dba312-90f3-4e44-936a-87f91da73ec3","e622c465-ee29-4445-8260-1f3431e06587","{""participantId"":""D62F5F78364F4EB0B6016C4B37060937"",""assignmentId"":""71dba312-90f3-4e44-936a-87f91da73ec3"",""projectId"":""e622c465-ee29-4445-8260-1f3431e06587""}","https://test12345.live/?participantId=D62F5F78364F4EB0B6016C4B37060937&assignmentId=71dba312-90f3-4e44-936a-87f91da73ec3&projectId=e622c465-ee29-4445-8260-1f3431e06587","","null","<div style=""display: flex; justify-content: center; align-items: center;"">
                    <img src=""images/semantic/semantic_series_15/semantic_series_15_a.jpg"" style=""width: 300px; height: 300px;"" />
                  </div>","null","",""
"","","","","","html-keyboard-response","91","279361","0.0-67.0-1.0","D62F5F78364F4EB0B6016C4B37060937","D62F5F78364F4EB0B6016C4B37060937","71dba312-90f3-4e44-936a-87f91da73ec3","e622c465-ee29-4445-8260-1f3431e06587","{""participantId"":""D62F5F78364F4EB0B6016C4B37060937"",""assignmentId"":""71dba312-90f3-4e44-936a-87f91da73ec3"",""projectId"":""e622c465-ee29-4445-8260-1f3431e06587""}","https://test12345.live/?participantId=D62F5F78364F4EB0B6016C4B37060937&assignmentId=71dba312-90f3-4e44-936a-87f91da73ec3&projectId=e622c465-ee29-4445-8260-1f3431e06587","","null","<div style=""display: flex; justify-content: center; align-items: center;"">
                    <img src=""images/semantic/semantic_series_15/semantic_series_15_b.jpg"" style=""width: 300px; height: 300px;"" />
                  </div>","null","",""
"","","","","","html-keyboard-response","92","282364","0.0-67.0-2.0","D62F5F78364F4EB0B6016C4B37060937","D62F5F78364F4EB0B6016C4B37060937","71dba312-90f3-4e44-936a-87f91da73ec3","e622c465-ee29-4445-8260-1f3431e06587","{""participantId"":""D62F5F78364F4EB0B6016C4B37060937"",""assignmentId"":""71dba312-90f3-4e44-936a-87f91da73ec3"",""projectId"":""e622c465-ee29-4445-8260-1f3431e06587""}","https://test12345.live/?participantId=D62F5F78364F4EB0B6016C4B37060937&assignmentId=71dba312-90f3-4e44-936a-87f91da73ec3&projectId=e622c465-ee29-4445-8260-1f3431e06587","","null","<div style=""display: flex; justify-content: center; align-items: center;"">
                    <img src=""images/semantic/semantic_series_15/semantic_series_15_c.jpg"" style=""width: 300px; height: 300px;"" />
                  </div>","null","",""
"","","","","","html-keyboard-response","93","285366","0.0-67.0-3.0","D62F5F78364F4EB0B6016C4B37060937","D62F5F78364F4EB0B6016C4B37060937","71dba312-90f3-4e44-936a-87f91da73ec3","e622c465-ee29-4445-8260-1f3431e06587","{""participantId"":""D62F5F78364F4EB0B6016C4B37060937"",""assignmentId"":""71dba312-90f3-4e44-936a-87f91da73ec3"",""projectId"":""e622c465-ee29-4445-8260-1f3431e06587""}","https://test12345.live/?participantId=D62F5F78364F4EB0B6016C4B37060937&assignmentId=71dba312-90f3-4e44-936a-87f91da73ec3&projectId=e622c465-ee29-4445-8260-1f3431e06587","","null","<div style=""display: flex; justify-content: center; align-items: center;"">
                    <img src=""images/semantic/semantic_series_15/semantic_series_15_d.jpg"" style=""width: 300px; height: 300px;"" />
                  </div>","null","",""
"","","","","","html-button-response","94","286683","0.0-68.0","D62F5F78364F4EB0B6016C4B37060937","D62F5F78364F4EB0B6016C4B37060937","71dba312-90f3-4e44-936a-87f91da73ec3","e622c465-ee29-4445-8260-1f3431e06587","{""participantId"":""D62F5F78364F4EB0B6016C4B37060937"",""assignmentId"":""71dba312-90f3-4e44-936a-87f91da73ec3"",""projectId"":""e622c465-ee29-4445-8260-1f3431e06587""}","https://test12345.live/?participantId=D62F5F78364F4EB0B6016C4B37060937&assignmentId=71dba312-90f3-4e44-936a-87f91da73ec3&projectId=e622c465-ee29-4445-8260-1f3431e06587","","1316","Was there a person in the picture?","1","",""
"","","","","","survey-likert","95","289989","0.0-69.0","D62F5F78364F4EB0B6016C4B37060937","D62F5F78364F4EB0B6016C4B37060937","71dba312-90f3-4e44-936a-87f91da73ec3","e622c465-ee29-4445-8260-1f3431e06587","{""participantId"":""D62F5F78364F4EB0B6016C4B37060937"",""assignmentId"":""71dba312-90f3-4e44-936a-87f91da73ec3"",""projectId"":""e622c465-ee29-4445-8260-1f3431e06587""}","https://test12345.live/?participantId=D62F5F78364F4EB0B6016C4B37060937&assignmentId=71dba312-90f3-4e44-936a-87f91da73ec3&projectId=e622c465-ee29-4445-8260-1f3431e06587","","3304","","{""Q0"":0}","","[0]"
"","","","","","html-button-response","96","291511","0.0-70.0","D62F5F78364F4EB0B6016C4B37060937","D62F5F78364F4EB0B6016C4B37060937","71dba312-90f3-4e44-936a-87f91da73ec3","e622c465-ee29-4445-8260-1f3431e06587","{""participantId"":""D62F5F78364F4EB0B6016C4B37060937"",""assignmentId"":""71dba312-90f3-4e44-936a-87f91da73ec3"",""projectId"":""e622c465-ee29-4445-8260-1f3431e06587""}","https://test12345.live/?participantId=D62F5F78364F4EB0B6016C4B37060937&assignmentId=71dba312-90f3-4e44-936a-87f91da73ec3&projectId=e622c465-ee29-4445-8260-1f3431e06587","","1519","
    <div style=""display: flex; justify-content: center; align-items: center;"">
      <img src=""images/blue_deck_1.png"" style=""width: 300px; height: 300px; margin-right: 10px;"" />
      <img src=""images/red_deck_2.png"" style=""width: 300px; height: 300px;"" />
    </div>","0","0",""
"","","","","","html-keyboard-response","97","294515","0.0-71.0-0.0","D62F5F78364F4EB0B6016C4B37060937","D62F5F78364F4EB0B6016C4B37060937","71dba312-90f3-4e44-936a-87f91da73ec3","e622c465-ee29-4445-8260-1f3431e06587","{""participantId"":""D62F5F78364F4EB0B6016C4B37060937"",""assignmentId"":""71dba312-90f3-4e44-936a-87f91da73ec3"",""projectId"":""e622c465-ee29-4445-8260-1f3431e06587""}","https://test12345.live/?participantId=D62F5F78364F4EB0B6016C4B37060937&assignmentId=71dba312-90f3-4e44-936a-87f91da73ec3&projectId=e622c465-ee29-4445-8260-1f3431e06587","","null","<div style=""display: flex; justify-content: center; align-items: center;"">
                    <img src=""images/causal/causal_series_15/causal_series_15_a.jpg"" style=""width: 300px; height: 300px;"" />
                  </div>","null","",""
"","","","","","html-keyboard-response","98","297517","0.0-71.0-1.0","D62F5F78364F4EB0B6016C4B37060937","D62F5F78364F4EB0B6016C4B37060937","71dba312-90f3-4e44-936a-87f91da73ec3","e622c465-ee29-4445-8260-1f3431e06587","{""participantId"":""D62F5F78364F4EB0B6016C4B37060937"",""assignmentId"":""71dba312-90f3-4e44-936a-87f91da73ec3"",""projectId"":""e622c465-ee29-4445-8260-1f3431e06587""}","https://test12345.live/?participantId=D62F5F78364F4EB0B6016C4B37060937&assignmentId=71dba312-90f3-4e44-936a-87f91da73ec3&projectId=e622c465-ee29-4445-8260-1f3431e06587","","null","<div style=""display: flex; justify-content: center; align-items: center;"">
                    <img src=""images/causal/causal_series_15/causal_series_15_b.jpg"" style=""width: 300px; height: 300px;"" />
                  </div>","null","",""
"","","","","","html-keyboard-response","99","300520","0.0-71.0-2.0","D62F5F78364F4EB0B6016C4B37060937","D62F5F78364F4EB0B6016C4B37060937","71dba312-90f3-4e44-936a-87f91da73ec3","e622c465-ee29-4445-8260-1f3431e06587","{""participantId"":""D62F5F78364F4EB0B6016C4B37060937"",""assignmentId"":""71dba312-90f3-4e44-936a-87f91da73ec3"",""projectId"":""e622c465-ee29-4445-8260-1f3431e06587""}","https://test12345.live/?participantId=D62F5F78364F4EB0B6016C4B37060937&assignmentId=71dba312-90f3-4e44-936a-87f91da73ec3&projectId=e622c465-ee29-4445-8260-1f3431e06587","","null","<div style=""display: flex; justify-content: center; align-items: center;"">
                    <img src=""images/causal/causal_series_15/causal_series_15_c.jpg"" style=""width: 300px; height: 300px;"" />
                  </div>","null","",""
"","","","","","html-keyboard-response","100","303522","0.0-71.0-3.0","D62F5F78364F4EB0B6016C4B37060937","D62F5F78364F4EB0B6016C4B37060937","71dba312-90f3-4e44-936a-87f91da73ec3","e622c465-ee29-4445-8260-1f3431e06587","{""participantId"":""D62F5F78364F4EB0B6016C4B37060937"",""assignmentId"":""71dba312-90f3-4e44-936a-87f91da73ec3"",""projectId"":""e622c465-ee29-4445-8260-1f3431e06587""}","https://test12345.live/?participantId=D62F5F78364F4EB0B6016C4B37060937&assignmentId=71dba312-90f3-4e44-936a-87f91da73ec3&projectId=e622c465-ee29-4445-8260-1f3431e06587","","null","<div style=""display: flex; justify-content: center; align-items: center;"">
                    <img src=""images/causal/causal_series_15/causal_series_15_d.jpg"" style=""width: 300px; height: 300px;"" />
                  </div>","null","",""
"","","","","","html-button-response","101","304846","0.0-73.0","D62F5F78364F4EB0B6016C4B37060937","D62F5F78364F4EB0B6016C4B37060937","71dba312-90f3-4e44-936a-87f91da73ec3","e622c465-ee29-4445-8260-1f3431e06587","{""participantId"":""D62F5F78364F4EB0B6016C4B37060937"",""assignmentId"":""71dba312-90f3-4e44-936a-87f91da73ec3"",""projectId"":""e622c465-ee29-4445-8260-1f3431e06587""}","https://test12345.live/?participantId=D62F5F78364F4EB0B6016C4B37060937&assignmentId=71dba312-90f3-4e44-936a-87f91da73ec3&projectId=e622c465-ee29-4445-8260-1f3431e06587","","1322","Was there a person in the picture?","0","",""
"","","","","","survey-likert","102","306821","0.0-74.0","D62F5F78364F4EB0B6016C4B37060937","D62F5F78364F4EB0B6016C4B37060937","71dba312-90f3-4e44-936a-87f91da73ec3","e622c465-ee29-4445-8260-1f3431e06587","{""participantId"":""D62F5F78364F4EB0B6016C4B37060937"",""assignmentId"":""71dba312-90f3-4e44-936a-87f91da73ec3"",""projectId"":""e622c465-ee29-4445-8260-1f3431e06587""}","https://test12345.live/?participantId=D62F5F78364F4EB0B6016C4B37060937&assignmentId=71dba312-90f3-4e44-936a-87f91da73ec3&projectId=e622c465-ee29-4445-8260-1f3431e06587","","1974","","{""Q0"":2}","","[0]"
"","","","","","html-button-response","103","308921","0.0-75.0","D62F5F78364F4EB0B6016C4B37060937","D62F5F78364F4EB0B6016C4B37060937","71dba312-90f3-4e44-936a-87f91da73ec3","e622c465-ee29-4445-8260-1f3431e06587","{""participantId"":""D62F5F78364F4EB0B6016C4B37060937"",""assignmentId"":""71dba312-90f3-4e44-936a-87f91da73ec3"",""projectId"":""e622c465-ee29-4445-8260-1f3431e06587""}","https://test12345.live/?participantId=D62F5F78364F4EB0B6016C4B37060937&assignmentId=71dba312-90f3-4e44-936a-87f91da73ec3&projectId=e622c465-ee29-4445-8260-1f3431e06587","","2098","
    <div style=""display: flex; justify-content: center; align-items: center;"">
      <img src=""images/blue_deck_1.png"" style=""width: 300px; height: 300px; margin-right: 10px;"" />
      <img src=""images/red_deck_2.png"" style=""width: 300px; height: 300px;"" />
    </div>","0","0",""
"","","","","","html-keyboard-response","104","311924","0.0-76.0-0.0","D62F5F78364F4EB0B6016C4B37060937","D62F5F78364F4EB0B6016C4B37060937","71dba312-90f3-4e44-936a-87f91da73ec3","e622c465-ee29-4445-8260-1f3431e06587","{""participantId"":""D62F5F78364F4EB0B6016C4B37060937"",""assignmentId"":""71dba312-90f3-4e44-936a-87f91da73ec3"",""projectId"":""e622c465-ee29-4445-8260-1f3431e06587""}","https://test12345.live/?participantId=D62F5F78364F4EB0B6016C4B37060937&assignmentId=71dba312-90f3-4e44-936a-87f91da73ec3&projectId=e622c465-ee29-4445-8260-1f3431e06587","","null","<div style=""display: flex; justify-content: center; align-items: center;"">
                    <img src=""images/causal/causal_series_18/causal_series_18_a.jpg"" style=""width: 300px; height: 300px;"" />
                  </div>","null","",""
"","","","","","html-keyboard-response","105","314926","0.0-76.0-1.0","D62F5F78364F4EB0B6016C4B37060937","D62F5F78364F4EB0B6016C4B37060937","71dba312-90f3-4e44-936a-87f91da73ec3","e622c465-ee29-4445-8260-1f3431e06587","{""participantId"":""D62F5F78364F4EB0B6016C4B37060937"",""assignmentId"":""71dba312-90f3-4e44-936a-87f91da73ec3"",""projectId"":""e622c465-ee29-4445-8260-1f3431e06587""}","https://test12345.live/?participantId=D62F5F78364F4EB0B6016C4B37060937&assignmentId=71dba312-90f3-4e44-936a-87f91da73ec3&projectId=e622c465-ee29-4445-8260-1f3431e06587","","null","<div style=""display: flex; justify-content: center; align-items: center;"">
                    <img src=""images/causal/causal_series_18/causal_series_18_b.jpg"" style=""width: 300px; height: 300px;"" />
                  </div>","null","",""
"","","","","","html-keyboard-response","106","317929","0.0-76.0-2.0","D62F5F78364F4EB0B6016C4B37060937","D62F5F78364F4EB0B6016C4B37060937","71dba312-90f3-4e44-936a-87f91da73ec3","e622c465-ee29-4445-8260-1f3431e06587","{""participantId"":""D62F5F78364F4EB0B6016C4B37060937"",""assignmentId"":""71dba312-90f3-4e44-936a-87f91da73ec3"",""projectId"":""e622c465-ee29-4445-8260-1f3431e06587""}","https://test12345.live/?participantId=D62F5F78364F4EB0B6016C4B37060937&assignmentId=71dba312-90f3-4e44-936a-87f91da73ec3&projectId=e622c465-ee29-4445-8260-1f3431e06587","","null","<div style=""display: flex; justify-content: center; align-items: center;"">
                    <img src=""images/causal/causal_series_18/causal_series_18_c.jpg"" style=""width: 300px; height: 300px;"" />
                  </div>","null","",""
"","","","","","html-keyboard-response","107","320932","0.0-76.0-3.0","D62F5F78364F4EB0B6016C4B37060937","D62F5F78364F4EB0B6016C4B37060937","71dba312-90f3-4e44-936a-87f91da73ec3","e622c465-ee29-4445-8260-1f3431e06587","{""participantId"":""D62F5F78364F4EB0B6016C4B37060937"",""assignmentId"":""71dba312-90f3-4e44-936a-87f91da73ec3"",""projectId"":""e622c465-ee29-4445-8260-1f3431e06587""}","https://test12345.live/?participantId=D62F5F78364F4EB0B6016C4B37060937&assignmentId=71dba312-90f3-4e44-936a-87f91da73ec3&projectId=e622c465-ee29-4445-8260-1f3431e06587","","null","<div style=""display: flex; justify-content: center; align-items: center;"">
                    <img src=""images/causal/causal_series_18/causal_series_18_d.jpg"" style=""width: 300px; height: 300px;"" />
                  </div>","null","",""
"","","","","","html-button-response","108","322079","0.0-78.0","D62F5F78364F4EB0B6016C4B37060937","D62F5F78364F4EB0B6016C4B37060937","71dba312-90f3-4e44-936a-87f91da73ec3","e622c465-ee29-4445-8260-1f3431e06587","{""participantId"":""D62F5F78364F4EB0B6016C4B37060937"",""assignmentId"":""71dba312-90f3-4e44-936a-87f91da73ec3"",""projectId"":""e622c465-ee29-4445-8260-1f3431e06587""}","https://test12345.live/?participantId=D62F5F78364F4EB0B6016C4B37060937&assignmentId=71dba312-90f3-4e44-936a-87f91da73ec3&projectId=e622c465-ee29-4445-8260-1f3431e06587","","1145","Was there a person in the picture?","1","",""
"","","","","","survey-likert","109","325154","0.0-79.0","D62F5F78364F4EB0B6016C4B37060937","D62F5F78364F4EB0B6016C4B37060937","71dba312-90f3-4e44-936a-87f91da73ec3","e622c465-ee29-4445-8260-1f3431e06587","{""participantId"":""D62F5F78364F4EB0B6016C4B37060937"",""assignmentId"":""71dba312-90f3-4e44-936a-87f91da73ec3"",""projectId"":""e622c465-ee29-4445-8260-1f3431e06587""}","https://test12345.live/?participantId=D62F5F78364F4EB0B6016C4B37060937&assignmentId=71dba312-90f3-4e44-936a-87f91da73ec3&projectId=e622c465-ee29-4445-8260-1f3431e06587","","3073","","{""Q0"":3}","","[0]"
"","","","","","html-button-response","110","326177","0.0-80.0","D62F5F78364F4EB0B6016C4B37060937","D62F5F78364F4EB0B6016C4B37060937","71dba312-90f3-4e44-936a-87f91da73ec3","e622c465-ee29-4445-8260-1f3431e06587","{""participantId"":""D62F5F78364F4EB0B6016C4B37060937"",""assignmentId"":""71dba312-90f3-4e44-936a-87f91da73ec3"",""projectId"":""e622c465-ee29-4445-8260-1f3431e06587""}","https://test12345.live/?participantId=D62F5F78364F4EB0B6016C4B37060937&assignmentId=71dba312-90f3-4e44-936a-87f91da73ec3&projectId=e622c465-ee29-4445-8260-1f3431e06587","","1021","
    <div style=""display: flex; justify-content: center; align-items: center;"">
      <img src=""images/blue_deck_1.png"" style=""width: 300px; height: 300px; margin-right: 10px;"" />
      <img src=""images/red_deck_2.png"" style=""width: 300px; height: 300px;"" />
    </div>","0","0",""
"","","","","","html-keyboard-response","111","329181","0.0-81.0-0.0","D62F5F78364F4EB0B6016C4B37060937","D62F5F78364F4EB0B6016C4B37060937","71dba312-90f3-4e44-936a-87f91da73ec3","e622c465-ee29-4445-8260-1f3431e06587","{""participantId"":""D62F5F78364F4EB0B6016C4B37060937"",""assignmentId"":""71dba312-90f3-4e44-936a-87f91da73ec3"",""projectId"":""e622c465-ee29-4445-8260-1f3431e06587""}","https://test12345.live/?participantId=D62F5F78364F4EB0B6016C4B37060937&assignmentId=71dba312-90f3-4e44-936a-87f91da73ec3&projectId=e622c465-ee29-4445-8260-1f3431e06587","","null","<div style=""display: flex; justify-content: center; align-items: center;"">
                    <img src=""images/causal/causal_series_6/causal_series_6_a.jpg"" style=""width: 300px; height: 300px;"" />
                  </div>","null","",""
"","","","","","html-keyboard-response","112","332183","0.0-81.0-1.0","D62F5F78364F4EB0B6016C4B37060937","D62F5F78364F4EB0B6016C4B37060937","71dba312-90f3-4e44-936a-87f91da73ec3","e622c465-ee29-4445-8260-1f3431e06587","{""participantId"":""D62F5F78364F4EB0B6016C4B37060937"",""assignmentId"":""71dba312-90f3-4e44-936a-87f91da73ec3"",""projectId"":""e622c465-ee29-4445-8260-1f3431e06587""}","https://test12345.live/?participantId=D62F5F78364F4EB0B6016C4B37060937&assignmentId=71dba312-90f3-4e44-936a-87f91da73ec3&projectId=e622c465-ee29-4445-8260-1f3431e06587","","null","<div style=""display: flex; justify-content: center; align-items: center;"">
                    <img src=""images/causal/causal_series_6/causal_series_6_b.jpg"" style=""width: 300px; height: 300px;"" />
                  </div>","null","",""
"","","","","","html-keyboard-response","113","335186","0.0-81.0-2.0","D62F5F78364F4EB0B6016C4B37060937","D62F5F78364F4EB0B6016C4B37060937","71dba312-90f3-4e44-936a-87f91da73ec3","e622c465-ee29-4445-8260-1f3431e06587","{""participantId"":""D62F5F78364F4EB0B6016C4B37060937"",""assignmentId"":""71dba312-90f3-4e44-936a-87f91da73ec3"",""projectId"":""e622c465-ee29-4445-8260-1f3431e06587""}","https://test12345.live/?participantId=D62F5F78364F4EB0B6016C4B37060937&assignmentId=71dba312-90f3-4e44-936a-87f91da73ec3&projectId=e622c465-ee29-4445-8260-1f3431e06587","","null","<div style=""display: flex; justify-content: center; align-items: center;"">
                    <img src=""images/causal/causal_series_6/causal_series_6_c.jpg"" style=""width: 300px; height: 300px;"" />
                  </div>","null","",""
"","","","","","html-keyboard-response","114","338188","0.0-81.0-3.0","D62F5F78364F4EB0B6016C4B37060937","D62F5F78364F4EB0B6016C4B37060937","71dba312-90f3-4e44-936a-87f91da73ec3","e622c465-ee29-4445-8260-1f3431e06587","{""participantId"":""D62F5F78364F4EB0B6016C4B37060937"",""assignmentId"":""71dba312-90f3-4e44-936a-87f91da73ec3"",""projectId"":""e622c465-ee29-4445-8260-1f3431e06587""}","https://test12345.live/?participantId=D62F5F78364F4EB0B6016C4B37060937&assignmentId=71dba312-90f3-4e44-936a-87f91da73ec3&projectId=e622c465-ee29-4445-8260-1f3431e06587","","null","<div style=""display: flex; justify-content: center; align-items: center;"">
                    <img src=""images/causal/causal_series_6/causal_series_6_d.jpg"" style=""width: 300px; height: 300px;"" />
                  </div>","null","",""
"","","","","","html-button-response","115","340601","0.0-83.0","D62F5F78364F4EB0B6016C4B37060937","D62F5F78364F4EB0B6016C4B37060937","71dba312-90f3-4e44-936a-87f91da73ec3","e622c465-ee29-4445-8260-1f3431e06587","{""participantId"":""D62F5F78364F4EB0B6016C4B37060937"",""assignmentId"":""71dba312-90f3-4e44-936a-87f91da73ec3"",""projectId"":""e622c465-ee29-4445-8260-1f3431e06587""}","https://test12345.live/?participantId=D62F5F78364F4EB0B6016C4B37060937&assignmentId=71dba312-90f3-4e44-936a-87f91da73ec3&projectId=e622c465-ee29-4445-8260-1f3431e06587","","2410","Was there a person in the picture?","1","",""
"","","","","","survey-likert","116","342201","0.0-84.0","D62F5F78364F4EB0B6016C4B37060937","D62F5F78364F4EB0B6016C4B37060937","71dba312-90f3-4e44-936a-87f91da73ec3","e622c465-ee29-4445-8260-1f3431e06587","{""participantId"":""D62F5F78364F4EB0B6016C4B37060937"",""assignmentId"":""71dba312-90f3-4e44-936a-87f91da73ec3"",""projectId"":""e622c465-ee29-4445-8260-1f3431e06587""}","https://test12345.live/?participantId=D62F5F78364F4EB0B6016C4B37060937&assignmentId=71dba312-90f3-4e44-936a-87f91da73ec3&projectId=e622c465-ee29-4445-8260-1f3431e06587","","1599","","{""Q0"":3}","","[0]"
"","","","","","html-button-response","117","343969","0.0-85.0","D62F5F78364F4EB0B6016C4B37060937","D62F5F78364F4EB0B6016C4B37060937","71dba312-90f3-4e44-936a-87f91da73ec3","e622c465-ee29-4445-8260-1f3431e06587","{""participantId"":""D62F5F78364F4EB0B6016C4B37060937"",""assignmentId"":""71dba312-90f3-4e44-936a-87f91da73ec3"",""projectId"":""e622c465-ee29-4445-8260-1f3431e06587""}","https://test12345.live/?participantId=D62F5F78364F4EB0B6016C4B37060937&assignmentId=71dba312-90f3-4e44-936a-87f91da73ec3&projectId=e622c465-ee29-4445-8260-1f3431e06587","","1766","
    <div style=""display: flex; justify-content: center; align-items: center;"">
      <img src=""images/blue_deck_1.png"" style=""width: 300px; height: 300px; margin-right: 10px;"" />
      <img src=""images/red_deck_2.png"" style=""width: 300px; height: 300px;"" />
    </div>","0","0",""
"","","","","","html-keyboard-response","118","346972","0.0-86.0-0.0","D62F5F78364F4EB0B6016C4B37060937","D62F5F78364F4EB0B6016C4B37060937","71dba312-90f3-4e44-936a-87f91da73ec3","e622c465-ee29-4445-8260-1f3431e06587","{""participantId"":""D62F5F78364F4EB0B6016C4B37060937"",""assignmentId"":""71dba312-90f3-4e44-936a-87f91da73ec3"",""projectId"":""e622c465-ee29-4445-8260-1f3431e06587""}","https://test12345.live/?participantId=D62F5F78364F4EB0B6016C4B37060937&assignmentId=71dba312-90f3-4e44-936a-87f91da73ec3&projectId=e622c465-ee29-4445-8260-1f3431e06587","","null","<div style=""display: flex; justify-content: center; align-items: center;"">
                    <img src=""images/causal/causal_series_7/causal_series_7_a.jpg"" style=""width: 300px; height: 300px;"" />
                  </div>","null","",""
"","","","","","html-keyboard-response","119","349975","0.0-86.0-1.0","D62F5F78364F4EB0B6016C4B37060937","D62F5F78364F4EB0B6016C4B37060937","71dba312-90f3-4e44-936a-87f91da73ec3","e622c465-ee29-4445-8260-1f3431e06587","{""participantId"":""D62F5F78364F4EB0B6016C4B37060937"",""assignmentId"":""71dba312-90f3-4e44-936a-87f91da73ec3"",""projectId"":""e622c465-ee29-4445-8260-1f3431e06587""}","https://test12345.live/?participantId=D62F5F78364F4EB0B6016C4B37060937&assignmentId=71dba312-90f3-4e44-936a-87f91da73ec3&projectId=e622c465-ee29-4445-8260-1f3431e06587","","null","<div style=""display: flex; justify-content: center; align-items: center;"">
                    <img src=""images/causal/causal_series_7/causal_series_7_b.jpg"" style=""width: 300px; height: 300px;"" />
                  </div>","null","",""
"","","","","","html-keyboard-response","120","352978","0.0-86.0-2.0","D62F5F78364F4EB0B6016C4B37060937","D62F5F78364F4EB0B6016C4B37060937","71dba312-90f3-4e44-936a-87f91da73ec3","e622c465-ee29-4445-8260-1f3431e06587","{""participantId"":""D62F5F78364F4EB0B6016C4B37060937"",""assignmentId"":""71dba312-90f3-4e44-936a-87f91da73ec3"",""projectId"":""e622c465-ee29-4445-8260-1f3431e06587""}","https://test12345.live/?participantId=D62F5F78364F4EB0B6016C4B37060937&assignmentId=71dba312-90f3-4e44-936a-87f91da73ec3&projectId=e622c465-ee29-4445-8260-1f3431e06587","","null","<div style=""display: flex; justify-content: center; align-items: center;"">
                    <img src=""images/causal/causal_series_7/causal_series_7_c.jpg"" style=""width: 300px; height: 300px;"" />
                  </div>","null","",""
"","","","","","html-keyboard-response","121","355981","0.0-86.0-3.0","D62F5F78364F4EB0B6016C4B37060937","D62F5F78364F4EB0B6016C4B37060937","71dba312-90f3-4e44-936a-87f91da73ec3","e622c465-ee29-4445-8260-1f3431e06587","{""participantId"":""D62F5F78364F4EB0B6016C4B37060937"",""assignmentId"":""71dba312-90f3-4e44-936a-87f91da73ec3"",""projectId"":""e622c465-ee29-4445-8260-1f3431e06587""}","https://test12345.live/?participantId=D62F5F78364F4EB0B6016C4B37060937&assignmentId=71dba312-90f3-4e44-936a-87f91da73ec3&projectId=e622c465-ee29-4445-8260-1f3431e06587","","null","<div style=""display: flex; justify-content: center; align-items: center;"">
                    <img src=""images/causal/causal_series_7/causal_series_7_d.jpg"" style=""width: 300px; height: 300px;"" />
                  </div>","null","",""
"","","","","","html-button-response","122","357120","0.0-88.0","D62F5F78364F4EB0B6016C4B37060937","D62F5F78364F4EB0B6016C4B37060937","71dba312-90f3-4e44-936a-87f91da73ec3","e622c465-ee29-4445-8260-1f3431e06587","{""participantId"":""D62F5F78364F4EB0B6016C4B37060937"",""assignmentId"":""71dba312-90f3-4e44-936a-87f91da73ec3"",""projectId"":""e622c465-ee29-4445-8260-1f3431e06587""}","https://test12345.live/?participantId=D62F5F78364F4EB0B6016C4B37060937&assignmentId=71dba312-90f3-4e44-936a-87f91da73ec3&projectId=e622c465-ee29-4445-8260-1f3431e06587","","1138","Was there a person in the picture?","1","",""
"","","","","","survey-likert","123","359118","0.0-89.0","D62F5F78364F4EB0B6016C4B37060937","D62F5F78364F4EB0B6016C4B37060937","71dba312-90f3-4e44-936a-87f91da73ec3","e622c465-ee29-4445-8260-1f3431e06587","{""participantId"":""D62F5F78364F4EB0B6016C4B37060937"",""assignmentId"":""71dba312-90f3-4e44-936a-87f91da73ec3"",""projectId"":""e622c465-ee29-4445-8260-1f3431e06587""}","https://test12345.live/?participantId=D62F5F78364F4EB0B6016C4B37060937&assignmentId=71dba312-90f3-4e44-936a-87f91da73ec3&projectId=e622c465-ee29-4445-8260-1f3431e06587","","1997","","{""Q0"":3}","","[0]"
"","","","","","html-button-response","124","360432","0.0-90.0","D62F5F78364F4EB0B6016C4B37060937","D62F5F78364F4EB0B6016C4B37060937","71dba312-90f3-4e44-936a-87f91da73ec3","e622c465-ee29-4445-8260-1f3431e06587","{""participantId"":""D62F5F78364F4EB0B6016C4B37060937"",""assignmentId"":""71dba312-90f3-4e44-936a-87f91da73ec3"",""projectId"":""e622c465-ee29-4445-8260-1f3431e06587""}","https://test12345.live/?participantId=D62F5F78364F4EB0B6016C4B37060937&assignmentId=71dba312-90f3-4e44-936a-87f91da73ec3&projectId=e622c465-ee29-4445-8260-1f3431e06587","","1312","
    <div style=""display: flex; justify-content: center; align-items: center;"">
      <img src=""images/blue_deck_1.png"" style=""width: 300px; height: 300px; margin-right: 10px;"" />
      <img src=""images/red_deck_2.png"" style=""width: 300px; height: 300px;"" />
    </div>","0","0",""
"","","","","","html-keyboard-response","125","363434","0.0-91.0-0.0","D62F5F78364F4EB0B6016C4B37060937","D62F5F78364F4EB0B6016C4B37060937","71dba312-90f3-4e44-936a-87f91da73ec3","e622c465-ee29-4445-8260-1f3431e06587","{""participantId"":""D62F5F78364F4EB0B6016C4B37060937"",""assignmentId"":""71dba312-90f3-4e44-936a-87f91da73ec3"",""projectId"":""e622c465-ee29-4445-8260-1f3431e06587""}","https://test12345.live/?participantId=D62F5F78364F4EB0B6016C4B37060937&assignmentId=71dba312-90f3-4e44-936a-87f91da73ec3&projectId=e622c465-ee29-4445-8260-1f3431e06587","","null","<div style=""display: flex; justify-content: center; align-items: center;"">
                    <img src=""images/causal/causal_series_5/causal_series_5_a.jpg"" style=""width: 300px; height: 300px;"" />
                  </div>","null","",""
"","","","","","html-keyboard-response","126","366437","0.0-91.0-1.0","D62F5F78364F4EB0B6016C4B37060937","D62F5F78364F4EB0B6016C4B37060937","71dba312-90f3-4e44-936a-87f91da73ec3","e622c465-ee29-4445-8260-1f3431e06587","{""participantId"":""D62F5F78364F4EB0B6016C4B37060937"",""assignmentId"":""71dba312-90f3-4e44-936a-87f91da73ec3"",""projectId"":""e622c465-ee29-4445-8260-1f3431e06587""}","https://test12345.live/?participantId=D62F5F78364F4EB0B6016C4B37060937&assignmentId=71dba312-90f3-4e44-936a-87f91da73ec3&projectId=e622c465-ee29-4445-8260-1f3431e06587","","null","<div style=""display: flex; justify-content: center; align-items: center;"">
                    <img src=""images/causal/causal_series_5/causal_series_5_b.jpg"" style=""width: 300px; height: 300px;"" />
                  </div>","null","",""
"","","","","","html-keyboard-response","127","369439","0.0-91.0-2.0","D62F5F78364F4EB0B6016C4B37060937","D62F5F78364F4EB0B6016C4B37060937","71dba312-90f3-4e44-936a-87f91da73ec3","e622c465-ee29-4445-8260-1f3431e06587","{""participantId"":""D62F5F78364F4EB0B6016C4B37060937"",""assignmentId"":""71dba312-90f3-4e44-936a-87f91da73ec3"",""projectId"":""e622c465-ee29-4445-8260-1f3431e06587""}","https://test12345.live/?participantId=D62F5F78364F4EB0B6016C4B37060937&assignmentId=71dba312-90f3-4e44-936a-87f91da73ec3&projectId=e622c465-ee29-4445-8260-1f3431e06587","","null","<div style=""display: flex; justify-content: center; align-items: center;"">
                    <img src=""images/causal/causal_series_5/causal_series_5_c.jpg"" style=""width: 300px; height: 300px;"" />
                  </div>","null","",""
"","","","","","html-keyboard-response","128","372442","0.0-91.0-3.0","D62F5F78364F4EB0B6016C4B37060937","D62F5F78364F4EB0B6016C4B37060937","71dba312-90f3-4e44-936a-87f91da73ec3","e622c465-ee29-4445-8260-1f3431e06587","{""participantId"":""D62F5F78364F4EB0B6016C4B37060937"",""assignmentId"":""71dba312-90f3-4e44-936a-87f91da73ec3"",""projectId"":""e622c465-ee29-4445-8260-1f3431e06587""}","https://test12345.live/?participantId=D62F5F78364F4EB0B6016C4B37060937&assignmentId=71dba312-90f3-4e44-936a-87f91da73ec3&projectId=e622c465-ee29-4445-8260-1f3431e06587","","null","<div style=""display: flex; justify-content: center; align-items: center;"">
                    <img src=""images/causal/causal_series_5/causal_series_5_d.jpg"" style=""width: 300px; height: 300px;"" />
                  </div>","null","",""
"","","","","","html-button-response","129","374194","0.0-93.0","D62F5F78364F4EB0B6016C4B37060937","D62F5F78364F4EB0B6016C4B37060937","71dba312-90f3-4e44-936a-87f91da73ec3","e622c465-ee29-4445-8260-1f3431e06587","{""participantId"":""D62F5F78364F4EB0B6016C4B37060937"",""assignmentId"":""71dba312-90f3-4e44-936a-87f91da73ec3"",""projectId"":""e622c465-ee29-4445-8260-1f3431e06587""}","https://test12345.live/?participantId=D62F5F78364F4EB0B6016C4B37060937&assignmentId=71dba312-90f3-4e44-936a-87f91da73ec3&projectId=e622c465-ee29-4445-8260-1f3431e06587","","1750","Was there a person in the picture?","1","",""
"","","","","","survey-likert","130","376168","0.0-94.0","D62F5F78364F4EB0B6016C4B37060937","D62F5F78364F4EB0B6016C4B37060937","71dba312-90f3-4e44-936a-87f91da73ec3","e622c465-ee29-4445-8260-1f3431e06587","{""participantId"":""D62F5F78364F4EB0B6016C4B37060937"",""assignmentId"":""71dba312-90f3-4e44-936a-87f91da73ec3"",""projectId"":""e622c465-ee29-4445-8260-1f3431e06587""}","https://test12345.live/?participantId=D62F5F78364F4EB0B6016C4B37060937&assignmentId=71dba312-90f3-4e44-936a-87f91da73ec3&projectId=e622c465-ee29-4445-8260-1f3431e06587","","1973","","{""Q0"":3}","","[0]"
"","","","","","survey-text","131","403657","0.0-95.0","D62F5F78364F4EB0B6016C4B37060937","D62F5F78364F4EB0B6016C4B37060937","71dba312-90f3-4e44-936a-87f91da73ec3","e622c465-ee29-4445-8260-1f3431e06587","{""participantId"":""D62F5F78364F4EB0B6016C4B37060937"",""assignmentId"":""71dba312-90f3-4e44-936a-87f91da73ec3"",""projectId"":""e622c465-ee29-4445-8260-1f3431e06587""}","https://test12345.live/?participantId=D62F5F78364F4EB0B6016C4B37060937&assignmentId=71dba312-90f3-4e44-936a-87f91da73ec3&projectId=e622c465-ee29-4445-8260-1f3431e06587","","27481","","{""Q0"":""The deck on the left, the blue deck, seemed to have a higher probability of featuring hand drawn images while the deck on the right was more AI generated""}","",""
