"success","timeout","failed_images","failed_audio","failed_video","trial_type","trial_index","time_elapsed","internal_node_id","subject","subject_id","study_id","session_id","urlvar","current_url","view_history","rt","stimulus","response","choice","question_order"
"true","false","[]","[]","[]","preload","0","847","0.0-0.0","67CF9A0E1DE7432D878DC83B71F94130","67CF9A0E1DE7432D878DC83B71F94130","bcd0e622-c99d-4f59-8daf-e6bab9fddbe4","e622c465-ee29-4445-8260-1f3431e06587","{""participantId"":""67CF9A0E1DE7432D878DC83B71F94130"",""assignmentId"":""bcd0e622-c99d-4f59-8daf-e6bab9fddbe4"",""projectId"":""e622c465-ee29-4445-8260-1f3431e06587""}","https://test12345.live/?participantId=67CF9A0E1DE7432D878DC83B71F94130&assignmentId=bcd0e622-c99d-4f59-8daf-e6bab9fddbe4&projectId=e622c465-ee29-4445-8260-1f3431e06587","","","","","",""
"","","","","","instructions","1","2671","0.0-1.0","67CF9A0E1DE7432D878DC83B71F94130","67CF9A0E1DE7432D878DC83B71F94130","bcd0e622-c99d-4f59-8daf-e6bab9fddbe4","e622c465-ee29-4445-8260-1f3431e06587","{""participantId"":""67CF9A0E1DE7432D878DC83B71F94130"",""assignmentId"":""bcd0e622-c99d-4f59-8daf-e6bab9fddbe4"",""projectId"":""e622c465-ee29-4445-8260-1f3431e06587""}","https://test12345.live/?participantId=67CF9A0E1DE7432D878DC83B71F94130&assignmentId=bcd0e622-c99d-4f59-8daf-e6bab9fddbe4&projectId=e622c465-ee29-4445-8260-1f3431e06587","[{""page_index"":0,""viewing_time"":1822}]","1822","","","",""
"","","","","","instructions","2","12660","0.0-2.0","67CF9A0E1DE7432D878DC83B71F94130","67CF9A0E1DE7432D878DC83B71F94130","bcd0e622-c99d-4f59-8daf-e6bab9fddbe4","e622c465-ee29-4445-8260-1f3431e06587","{""participantId"":""67CF9A0E1DE7432D878DC83B71F94130"",""assignmentId"":""bcd0e622-c99d-4f59-8daf-e6bab9fddbe4"",""projectId"":""e622c465-ee29-4445-8260-1f3431e06587""}","https://test12345.live/?participantId=67CF9A0E1DE7432D878DC83B71F94130&assignmentId=bcd0e622-c99d-4f59-8daf-e6bab9fddbe4&projectId=e622c465-ee29-4445-8260-1f3431e06587","[{""page_index"":0,""viewing_time"":9975}]","9989","","","",""
"true","","","","","fullscreen","3","15137","0.0-3.0","67CF9A0E1DE7432D878DC83B71F94130","67CF9A0E1DE7432D878DC83B71F94130","bcd0e622-c99d-4f59-8daf-e6bab9fddbe4","e622c465-ee29-4445-8260-1f3431e06587","{""participantId"":""67CF9A0E1DE7432D878DC83B71F94130"",""assignmentId"":""bcd0e622-c99d-4f59-8daf-e6bab9fddbe4"",""projectId"":""e622c465-ee29-4445-8260-1f3431e06587""}","https://test12345.live/?participantId=67CF9A0E1DE7432D878DC83B71F94130&assignmentId=bcd0e622-c99d-4f59-8daf-e6bab9fddbe4&projectId=e622c465-ee29-4445-8260-1f3431e06587","","1474","","","",""
"","","","","","instructions","4","22576","0.0-4.0","67CF9A0E1DE7432D878DC83B71F94130","67CF9A0E1DE7432D878DC83B71F94130","bcd0e622-c99d-4f59-8daf-e6bab9fddbe4","e622c465-ee29-4445-8260-1f3431e06587","{""participantId"":""67CF9A0E1DE7432D878DC83B71F94130"",""assignmentId"":""bcd0e622-c99d-4f59-8daf-e6bab9fddbe4"",""projectId"":""e622c465-ee29-4445-8260-1f3431e06587""}","https://test12345.live/?participantId=67CF9A0E1DE7432D878DC83B71F94130&assignmentId=bcd0e622-c99d-4f59-8daf-e6bab9fddbe4&projectId=e622c465-ee29-4445-8260-1f3431e06587","[{""page_index"":0,""viewing_time"":7438}]","7438","","","",""
"","","","","","html-button-response","5","28208","0.0-5.0","67CF9A0E1DE7432D878DC83B71F94130","67CF9A0E1DE7432D878DC83B71F94130","bcd0e622-c99d-4f59-8daf-e6bab9fddbe4","e622c465-ee29-4445-8260-1f3431e06587","{""participantId"":""67CF9A0E1DE7432D878DC83B71F94130"",""assignmentId"":""bcd0e622-c99d-4f59-8daf-e6bab9fddbe4"",""projectId"":""e622c465-ee29-4445-8260-1f3431e06587""}","https://test12345.live/?participantId=67CF9A0E1DE7432D878DC83B71F94130&assignmentId=bcd0e622-c99d-4f59-8daf-e6bab9fddbe4&projectId=e622c465-ee29-4445-8260-1f3431e06587","","5630","
    <div style=""display: flex; justify-content: center; align-items: center;"">
      <img src=""images/blue_deck_1.png"" style=""width: 300px; height: 300px; margin-right: 10px;"" />
      <img src=""images/red_deck_2.png"" style=""width: 300px; height: 300px;"" />
    </div>","1","1",""
"","","","","","html-keyboard-response","6","31213","0.0-7.0-0.0","67CF9A0E1DE7432D878DC83B71F94130","67CF9A0E1DE7432D878DC83B71F94130","bcd0e622-c99d-4f59-8daf-e6bab9fddbe4","e622c465-ee29-4445-8260-1f3431e06587","{""participantId"":""67CF9A0E1DE7432D878DC83B71F94130"",""assignmentId"":""bcd0e622-c99d-4f59-8daf-e6bab9fddbe4"",""projectId"":""e622c465-ee29-4445-8260-1f3431e06587""}","https://test12345.live/?participantId=67CF9A0E1DE7432D878DC83B71F94130&assignmentId=bcd0e622-c99d-4f59-8daf-e6bab9fddbe4&projectId=e622c465-ee29-4445-8260-1f3431e06587","","null","<div style=""display: flex; justify-content: center; align-items: center;"">
                    <img src=""images/semantic/semantic_series_9/semantic_series_9_a.jpg"" style=""width: 300px; height: 300px;"" />
                  </div>","null","",""
"","","","","","html-keyboard-response","7","34220","0.0-7.0-1.0","67CF9A0E1DE7432D878DC83B71F94130","67CF9A0E1DE7432D878DC83B71F94130","bcd0e622-c99d-4f59-8daf-e6bab9fddbe4","e622c465-ee29-4445-8260-1f3431e06587","{""participantId"":""67CF9A0E1DE7432D878DC83B71F94130"",""assignmentId"":""bcd0e622-c99d-4f59-8daf-e6bab9fddbe4"",""projectId"":""e622c465-ee29-4445-8260-1f3431e06587""}","https://test12345.live/?participantId=67CF9A0E1DE7432D878DC83B71F94130&assignmentId=bcd0e622-c99d-4f59-8daf-e6bab9fddbe4&projectId=e622c465-ee29-4445-8260-1f3431e06587","","null","<div style=""display: flex; justify-content: center; align-items: center;"">
                    <img src=""images/semantic/semantic_series_9/semantic_series_9_b.jpg"" style=""width: 300px; height: 300px;"" />
                  </div>","null","",""
"","","","","","html-keyboard-response","8","37227","0.0-7.0-2.0","67CF9A0E1DE7432D878DC83B71F94130","67CF9A0E1DE7432D878DC83B71F94130","bcd0e622-c99d-4f59-8daf-e6bab9fddbe4","e622c465-ee29-4445-8260-1f3431e06587","{""participantId"":""67CF9A0E1DE7432D878DC83B71F94130"",""assignmentId"":""bcd0e622-c99d-4f59-8daf-e6bab9fddbe4"",""projectId"":""e622c465-ee29-4445-8260-1f3431e06587""}","https://test12345.live/?participantId=67CF9A0E1DE7432D878DC83B71F94130&assignmentId=bcd0e622-c99d-4f59-8daf-e6bab9fddbe4&projectId=e622c465-ee29-4445-8260-1f3431e06587","","null","<div style=""display: flex; justify-content: center; align-items: center;"">
                    <img src=""images/semantic/semantic_series_9/semantic_series_9_c.jpg"" style=""width: 300px; height: 300px;"" />
                  </div>","null","",""
"","","","","","html-keyboard-response","9","40239","0.0-7.0-3.0","67CF9A0E1DE7432D878DC83B71F94130","67CF9A0E1DE7432D878DC83B71F94130","bcd0e622-c99d-4f59-8daf-e6bab9fddbe4","e622c465-ee29-4445-8260-1f3431e06587","{""participantId"":""67CF9A0E1DE7432D878DC83B71F94130"",""assignmentId"":""bcd0e622-c99d-4f59-8daf-e6bab9fddbe4"",""projectId"":""e622c465-ee29-4445-8260-1f3431e06587""}","https://test12345.live/?participantId=67CF9A0E1DE7432D878DC83B71F94130&assignmentId=bcd0e622-c99d-4f59-8daf-e6bab9fddbe4&projectId=e622c465-ee29-4445-8260-1f3431e06587","","null","<div style=""display: flex; justify-content: center; align-items: center;"">
                    <img src=""images/semantic/semantic_series_9/semantic_series_9_d.jpg"" style=""width: 300px; height: 300px;"" />
                  </div>","null","",""
"","","","","","html-button-response","10","42024","0.0-8.0","67CF9A0E1DE7432D878DC83B71F94130","67CF9A0E1DE7432D878DC83B71F94130","bcd0e622-c99d-4f59-8daf-e6bab9fddbe4","e622c465-ee29-4445-8260-1f3431e06587","{""participantId"":""67CF9A0E1DE7432D878DC83B71F94130"",""assignmentId"":""bcd0e622-c99d-4f59-8daf-e6bab9fddbe4"",""projectId"":""e622c465-ee29-4445-8260-1f3431e06587""}","https://test12345.live/?participantId=67CF9A0E1DE7432D878DC83B71F94130&assignmentId=bcd0e622-c99d-4f59-8daf-e6bab9fddbe4&projectId=e622c465-ee29-4445-8260-1f3431e06587","","1784","Was there a person in the picture?","1","",""
"","","","","","survey-likert","11","46778","0.0-9.0","67CF9A0E1DE7432D878DC83B71F94130","67CF9A0E1DE7432D878DC83B71F94130","bcd0e622-c99d-4f59-8daf-e6bab9fddbe4","e622c465-ee29-4445-8260-1f3431e06587","{""participantId"":""67CF9A0E1DE7432D878DC83B71F94130"",""assignmentId"":""bcd0e622-c99d-4f59-8daf-e6bab9fddbe4"",""projectId"":""e622c465-ee29-4445-8260-1f3431e06587""}","https://test12345.live/?participantId=67CF9A0E1DE7432D878DC83B71F94130&assignmentId=bcd0e622-c99d-4f59-8daf-e6bab9fddbe4&projectId=e622c465-ee29-4445-8260-1f3431e06587","","4750","","{""Q0"":4}","","[0]"
"","","","","","html-button-response","12","49781","0.0-10.0","67CF9A0E1DE7432D878DC83B71F94130","67CF9A0E1DE7432D878DC83B71F94130","bcd0e622-c99d-4f59-8daf-e6bab9fddbe4","e622c465-ee29-4445-8260-1f3431e06587","{""participantId"":""67CF9A0E1DE7432D878DC83B71F94130"",""assignmentId"":""bcd0e622-c99d-4f59-8daf-e6bab9fddbe4"",""projectId"":""e622c465-ee29-4445-8260-1f3431e06587""}","https://test12345.live/?participantId=67CF9A0E1DE7432D878DC83B71F94130&assignmentId=bcd0e622-c99d-4f59-8daf-e6bab9fddbe4&projectId=e622c465-ee29-4445-8260-1f3431e06587","","3002","
    <div style=""display: flex; justify-content: center; align-items: center;"">
      <img src=""images/blue_deck_1.png"" style=""width: 300px; height: 300px; margin-right: 10px;"" />
      <img src=""images/red_deck_2.png"" style=""width: 300px; height: 300px;"" />
    </div>","0","0",""
"","","","","","html-keyboard-response","13","52788","0.0-11.0-0.0","67CF9A0E1DE7432D878DC83B71F94130","67CF9A0E1DE7432D878DC83B71F94130","bcd0e622-c99d-4f59-8daf-e6bab9fddbe4","e622c465-ee29-4445-8260-1f3431e06587","{""participantId"":""67CF9A0E1DE7432D878DC83B71F94130"",""assignmentId"":""bcd0e622-c99d-4f59-8daf-e6bab9fddbe4"",""projectId"":""e622c465-ee29-4445-8260-1f3431e06587""}","https://test12345.live/?participantId=67CF9A0E1DE7432D878DC83B71F94130&assignmentId=bcd0e622-c99d-4f59-8daf-e6bab9fddbe4&projectId=e622c465-ee29-4445-8260-1f3431e06587","","null","<div style=""display: flex; justify-content: center; align-items: center;"">
                    <img src=""images/causal/causal_series_6/causal_series_6_a.jpg"" style=""width: 300px; height: 300px;"" />
                  </div>","null","",""
"","","","","","html-keyboard-response","14","55801","0.0-11.0-1.0","67CF9A0E1DE7432D878DC83B71F94130","67CF9A0E1DE7432D878DC83B71F94130","bcd0e622-c99d-4f59-8daf-e6bab9fddbe4","e622c465-ee29-4445-8260-1f3431e06587","{""participantId"":""67CF9A0E1DE7432D878DC83B71F94130"",""assignmentId"":""bcd0e622-c99d-4f59-8daf-e6bab9fddbe4"",""projectId"":""e622c465-ee29-4445-8260-1f3431e06587""}","https://test12345.live/?participantId=67CF9A0E1DE7432D878DC83B71F94130&assignmentId=bcd0e622-c99d-4f59-8daf-e6bab9fddbe4&projectId=e622c465-ee29-4445-8260-1f3431e06587","","null","<div style=""display: flex; justify-content: center; align-items: center;"">
                    <img src=""images/causal/causal_series_6/causal_series_6_b.jpg"" style=""width: 300px; height: 300px;"" />
                  </div>","null","",""
"","","","","","html-keyboard-response","15","58807","0.0-11.0-2.0","67CF9A0E1DE7432D878DC83B71F94130","67CF9A0E1DE7432D878DC83B71F94130","bcd0e622-c99d-4f59-8daf-e6bab9fddbe4","e622c465-ee29-4445-8260-1f3431e06587","{""participantId"":""67CF9A0E1DE7432D878DC83B71F94130"",""assignmentId"":""bcd0e622-c99d-4f59-8daf-e6bab9fddbe4"",""projectId"":""e622c465-ee29-4445-8260-1f3431e06587""}","https://test12345.live/?participantId=67CF9A0E1DE7432D878DC83B71F94130&assignmentId=bcd0e622-c99d-4f59-8daf-e6bab9fddbe4&projectId=e622c465-ee29-4445-8260-1f3431e06587","","null","<div style=""display: flex; justify-content: center; align-items: center;"">
                    <img src=""images/causal/causal_series_6/causal_series_6_c.jpg"" style=""width: 300px; height: 300px;"" />
                  </div>","null","",""
"","","","","","html-keyboard-response","16","60022","0.0-11.0-3.0","67CF9A0E1DE7432D878DC83B71F94130","67CF9A0E1DE7432D878DC83B71F94130","bcd0e622-c99d-4f59-8daf-e6bab9fddbe4","e622c465-ee29-4445-8260-1f3431e06587","{""participantId"":""67CF9A0E1DE7432D878DC83B71F94130"",""assignmentId"":""bcd0e622-c99d-4f59-8daf-e6bab9fddbe4"",""projectId"":""e622c465-ee29-4445-8260-1f3431e06587""}","https://test12345.live/?participantId=67CF9A0E1DE7432D878DC83B71F94130&assignmentId=bcd0e622-c99d-4f59-8daf-e6bab9fddbe4&projectId=e622c465-ee29-4445-8260-1f3431e06587","","null","<div style=""display: flex; justify-content: center; align-items: center;"">
                    <img src=""images/causal/causal_series_6/causal_series_6_d.jpg"" style=""width: 300px; height: 300px;"" />
                  </div>","null","",""
"","","","","","html-button-response","17","61298","0.0-13.0","67CF9A0E1DE7432D878DC83B71F94130","67CF9A0E1DE7432D878DC83B71F94130","bcd0e622-c99d-4f59-8daf-e6bab9fddbe4","e622c465-ee29-4445-8260-1f3431e06587","{""participantId"":""67CF9A0E1DE7432D878DC83B71F94130"",""assignmentId"":""bcd0e622-c99d-4f59-8daf-e6bab9fddbe4"",""projectId"":""e622c465-ee29-4445-8260-1f3431e06587""}","https://test12345.live/?participantId=67CF9A0E1DE7432D878DC83B71F94130&assignmentId=bcd0e622-c99d-4f59-8daf-e6bab9fddbe4&projectId=e622c465-ee29-4445-8260-1f3431e06587","","1275","Was there a person in the picture?","1","",""
"","","","","","survey-likert","18","64031","0.0-14.0","67CF9A0E1DE7432D878DC83B71F94130","67CF9A0E1DE7432D878DC83B71F94130","bcd0e622-c99d-4f59-8daf-e6bab9fddbe4","e622c465-ee29-4445-8260-1f3431e06587","{""participantId"":""67CF9A0E1DE7432D878DC83B71F94130"",""assignmentId"":""bcd0e622-c99d-4f59-8daf-e6bab9fddbe4"",""projectId"":""e622c465-ee29-4445-8260-1f3431e06587""}","https://test12345.live/?participantId=67CF9A0E1DE7432D878DC83B71F94130&assignmentId=bcd0e622-c99d-4f59-8daf-e6bab9fddbe4&projectId=e622c465-ee29-4445-8260-1f3431e06587","","2732","","{""Q0"":4}","","[0]"
"","","","","","html-button-response","19","66218","0.0-15.0","67CF9A0E1DE7432D878DC83B71F94130","67CF9A0E1DE7432D878DC83B71F94130","bcd0e622-c99d-4f59-8daf-e6bab9fddbe4","e622c465-ee29-4445-8260-1f3431e06587","{""participantId"":""67CF9A0E1DE7432D878DC83B71F94130"",""assignmentId"":""bcd0e622-c99d-4f59-8daf-e6bab9fddbe4"",""projectId"":""e622c465-ee29-4445-8260-1f3431e06587""}","https://test12345.live/?participantId=67CF9A0E1DE7432D878DC83B71F94130&assignmentId=bcd0e622-c99d-4f59-8daf-e6bab9fddbe4&projectId=e622c465-ee29-4445-8260-1f3431e06587","","2186","
    <div style=""display: flex; justify-content: center; align-items: center;"">
      <img src=""images/blue_deck_1.png"" style=""width: 300px; height: 300px; margin-right: 10px;"" />
      <img src=""images/red_deck_2.png"" style=""width: 300px; height: 300px;"" />
    </div>","0","0",""
"","","","","","html-keyboard-response","20","69227","0.0-16.0-0.0","67CF9A0E1DE7432D878DC83B71F94130","67CF9A0E1DE7432D878DC83B71F94130","bcd0e622-c99d-4f59-8daf-e6bab9fddbe4","e622c465-ee29-4445-8260-1f3431e06587","{""participantId"":""67CF9A0E1DE7432D878DC83B71F94130"",""assignmentId"":""bcd0e622-c99d-4f59-8daf-e6bab9fddbe4"",""projectId"":""e622c465-ee29-4445-8260-1f3431e06587""}","https://test12345.live/?participantId=67CF9A0E1DE7432D878DC83B71F94130&assignmentId=bcd0e622-c99d-4f59-8daf-e6bab9fddbe4&projectId=e622c465-ee29-4445-8260-1f3431e06587","","null","<div style=""display: flex; justify-content: center; align-items: center;"">
                    <img src=""images/causal/causal_series_2/causal_series_2_a.jpg"" style=""width: 300px; height: 300px;"" />
                  </div>","null","",""
"","","","","","html-keyboard-response","21","72241","0.0-16.0-1.0","67CF9A0E1DE7432D878DC83B71F94130","67CF9A0E1DE7432D878DC83B71F94130","bcd0e622-c99d-4f59-8daf-e6bab9fddbe4","e622c465-ee29-4445-8260-1f3431e06587","{""participantId"":""67CF9A0E1DE7432D878DC83B71F94130"",""assignmentId"":""bcd0e622-c99d-4f59-8daf-e6bab9fddbe4"",""projectId"":""e622c465-ee29-4445-8260-1f3431e06587""}","https://test12345.live/?participantId=67CF9A0E1DE7432D878DC83B71F94130&assignmentId=bcd0e622-c99d-4f59-8daf-e6bab9fddbe4&projectId=e622c465-ee29-4445-8260-1f3431e06587","","null","<div style=""display: flex; justify-content: center; align-items: center;"">
                    <img src=""images/causal/causal_series_2/causal_series_2_b.jpg"" style=""width: 300px; height: 300px;"" />
                  </div>","null","",""
"","","","","","html-keyboard-response","22","75244","0.0-16.0-2.0","67CF9A0E1DE7432D878DC83B71F94130","67CF9A0E1DE7432D878DC83B71F94130","bcd0e622-c99d-4f59-8daf-e6bab9fddbe4","e622c465-ee29-4445-8260-1f3431e06587","{""participantId"":""67CF9A0E1DE7432D878DC83B71F94130"",""assignmentId"":""bcd0e622-c99d-4f59-8daf-e6bab9fddbe4"",""projectId"":""e622c465-ee29-4445-8260-1f3431e06587""}","https://test12345.live/?participantId=67CF9A0E1DE7432D878DC83B71F94130&assignmentId=bcd0e622-c99d-4f59-8daf-e6bab9fddbe4&projectId=e622c465-ee29-4445-8260-1f3431e06587","","null","<div style=""display: flex; justify-content: center; align-items: center;"">
                    <img src=""images/causal/causal_series_2/causal_series_2_c.jpg"" style=""width: 300px; height: 300px;"" />
                  </div>","null","",""
"","","","","","html-keyboard-response","23","78252","0.0-16.0-3.0","67CF9A0E1DE7432D878DC83B71F94130","67CF9A0E1DE7432D878DC83B71F94130","bcd0e622-c99d-4f59-8daf-e6bab9fddbe4","e622c465-ee29-4445-8260-1f3431e06587","{""participantId"":""67CF9A0E1DE7432D878DC83B71F94130"",""assignmentId"":""bcd0e622-c99d-4f59-8daf-e6bab9fddbe4"",""projectId"":""e622c465-ee29-4445-8260-1f3431e06587""}","https://test12345.live/?participantId=67CF9A0E1DE7432D878DC83B71F94130&assignmentId=bcd0e622-c99d-4f59-8daf-e6bab9fddbe4&projectId=e622c465-ee29-4445-8260-1f3431e06587","","null","<div style=""display: flex; justify-content: center; align-items: center;"">
                    <img src=""images/causal/causal_series_2/causal_series_2_d.jpg"" style=""width: 300px; height: 300px;"" />
                  </div>","null","",""
"","","","","","html-button-response","24","79492","0.0-18.0","67CF9A0E1DE7432D878DC83B71F94130","67CF9A0E1DE7432D878DC83B71F94130","bcd0e622-c99d-4f59-8daf-e6bab9fddbe4","e622c465-ee29-4445-8260-1f3431e06587","{""participantId"":""67CF9A0E1DE7432D878DC83B71F94130"",""assignmentId"":""bcd0e622-c99d-4f59-8daf-e6bab9fddbe4"",""projectId"":""e622c465-ee29-4445-8260-1f3431e06587""}","https://test12345.live/?participantId=67CF9A0E1DE7432D878DC83B71F94130&assignmentId=bcd0e622-c99d-4f59-8daf-e6bab9fddbe4&projectId=e622c465-ee29-4445-8260-1f3431e06587","","1239","Was there a person in the picture?","0","",""
"","","","","","survey-likert","25","81858","0.0-19.0","67CF9A0E1DE7432D878DC83B71F94130","67CF9A0E1DE7432D878DC83B71F94130","bcd0e622-c99d-4f59-8daf-e6bab9fddbe4","e622c465-ee29-4445-8260-1f3431e06587","{""participantId"":""67CF9A0E1DE7432D878DC83B71F94130"",""assignmentId"":""bcd0e622-c99d-4f59-8daf-e6bab9fddbe4"",""projectId"":""e622c465-ee29-4445-8260-1f3431e06587""}","https://test12345.live/?participantId=67CF9A0E1DE7432D878DC83B71F94130&assignmentId=bcd0e622-c99d-4f59-8daf-e6bab9fddbe4&projectId=e622c465-ee29-4445-8260-1f3431e06587","","2364","","{""Q0"":3}","","[0]"
"","","","","","html-button-response","26","83032","0.0-20.0","67CF9A0E1DE7432D878DC83B71F94130","67CF9A0E1DE7432D878DC83B71F94130","bcd0e622-c99d-4f59-8daf-e6bab9fddbe4","e622c465-ee29-4445-8260-1f3431e06587","{""participantId"":""67CF9A0E1DE7432D878DC83B71F94130"",""assignmentId"":""bcd0e622-c99d-4f59-8daf-e6bab9fddbe4"",""projectId"":""e622c465-ee29-4445-8260-1f3431e06587""}","https://test12345.live/?participantId=67CF9A0E1DE7432D878DC83B71F94130&assignmentId=bcd0e622-c99d-4f59-8daf-e6bab9fddbe4&projectId=e622c465-ee29-4445-8260-1f3431e06587","","1173","
    <div style=""display: flex; justify-content: center; align-items: center;"">
      <img src=""images/blue_deck_1.png"" style=""width: 300px; height: 300px; margin-right: 10px;"" />
      <img src=""images/red_deck_2.png"" style=""width: 300px; height: 300px;"" />
    </div>","1","1",""
"","","","","","html-keyboard-response","27","86042","0.0-22.0-0.0","67CF9A0E1DE7432D878DC83B71F94130","67CF9A0E1DE7432D878DC83B71F94130","bcd0e622-c99d-4f59-8daf-e6bab9fddbe4","e622c465-ee29-4445-8260-1f3431e06587","{""participantId"":""67CF9A0E1DE7432D878DC83B71F94130"",""assignmentId"":""bcd0e622-c99d-4f59-8daf-e6bab9fddbe4"",""projectId"":""e622c465-ee29-4445-8260-1f3431e06587""}","https://test12345.live/?participantId=67CF9A0E1DE7432D878DC83B71F94130&assignmentId=bcd0e622-c99d-4f59-8daf-e6bab9fddbe4&projectId=e622c465-ee29-4445-8260-1f3431e06587","","null","<div style=""display: flex; justify-content: center; align-items: center;"">
                    <img src=""images/semantic/semantic_series_2/semantic_series_2_a.jpg"" style=""width: 300px; height: 300px;"" />
                  </div>","null","",""
"","","","","","html-keyboard-response","28","89057","0.0-22.0-1.0","67CF9A0E1DE7432D878DC83B71F94130","67CF9A0E1DE7432D878DC83B71F94130","bcd0e622-c99d-4f59-8daf-e6bab9fddbe4","e622c465-ee29-4445-8260-1f3431e06587","{""participantId"":""67CF9A0E1DE7432D878DC83B71F94130"",""assignmentId"":""bcd0e622-c99d-4f59-8daf-e6bab9fddbe4"",""projectId"":""e622c465-ee29-4445-8260-1f3431e06587""}","https://test12345.live/?participantId=67CF9A0E1DE7432D878DC83B71F94130&assignmentId=bcd0e622-c99d-4f59-8daf-e6bab9fddbe4&projectId=e622c465-ee29-4445-8260-1f3431e06587","","null","<div style=""display: flex; justify-content: center; align-items: center;"">
                    <img src=""images/semantic/semantic_series_2/semantic_series_2_b.jpg"" style=""width: 300px; height: 300px;"" />
                  </div>","null","",""
"","","","","","html-keyboard-response","29","92072","0.0-22.0-2.0","67CF9A0E1DE7432D878DC83B71F94130","67CF9A0E1DE7432D878DC83B71F94130","bcd0e622-c99d-4f59-8daf-e6bab9fddbe4","e622c465-ee29-4445-8260-1f3431e06587","{""participantId"":""67CF9A0E1DE7432D878DC83B71F94130"",""assignmentId"":""bcd0e622-c99d-4f59-8daf-e6bab9fddbe4"",""projectId"":""e622c465-ee29-4445-8260-1f3431e06587""}","https://test12345.live/?participantId=67CF9A0E1DE7432D878DC83B71F94130&assignmentId=bcd0e622-c99d-4f59-8daf-e6bab9fddbe4&projectId=e622c465-ee29-4445-8260-1f3431e06587","","null","<div style=""display: flex; justify-content: center; align-items: center;"">
                    <img src=""images/semantic/semantic_series_2/semantic_series_2_c.jpg"" style=""width: 300px; height: 300px;"" />
                  </div>","null","",""
"","","","","","html-keyboard-response","30","95074","0.0-22.0-3.0","67CF9A0E1DE7432D878DC83B71F94130","67CF9A0E1DE7432D878DC83B71F94130","bcd0e622-c99d-4f59-8daf-e6bab9fddbe4","e622c465-ee29-4445-8260-1f3431e06587","{""participantId"":""67CF9A0E1DE7432D878DC83B71F94130"",""assignmentId"":""bcd0e622-c99d-4f59-8daf-e6bab9fddbe4"",""projectId"":""e622c465-ee29-4445-8260-1f3431e06587""}","https://test12345.live/?participantId=67CF9A0E1DE7432D878DC83B71F94130&assignmentId=bcd0e622-c99d-4f59-8daf-e6bab9fddbe4&projectId=e622c465-ee29-4445-8260-1f3431e06587","","null","<div style=""display: flex; justify-content: center; align-items: center;"">
                    <img src=""images/semantic/semantic_series_2/semantic_series_2_d.jpg"" style=""width: 300px; height: 300px;"" />
                  </div>","null","",""
"","","","","","html-button-response","31","96141","0.0-23.0","67CF9A0E1DE7432D878DC83B71F94130","67CF9A0E1DE7432D878DC83B71F94130","bcd0e622-c99d-4f59-8daf-e6bab9fddbe4","e622c465-ee29-4445-8260-1f3431e06587","{""participantId"":""67CF9A0E1DE7432D878DC83B71F94130"",""assignmentId"":""bcd0e622-c99d-4f59-8daf-e6bab9fddbe4"",""projectId"":""e622c465-ee29-4445-8260-1f3431e06587""}","https://test12345.live/?participantId=67CF9A0E1DE7432D878DC83B71F94130&assignmentId=bcd0e622-c99d-4f59-8daf-e6bab9fddbe4&projectId=e622c465-ee29-4445-8260-1f3431e06587","","1066","Was there a person in the picture?","0","",""
"","","","","","survey-likert","32","99574","0.0-24.0","67CF9A0E1DE7432D878DC83B71F94130","67CF9A0E1DE7432D878DC83B71F94130","bcd0e622-c99d-4f59-8daf-e6bab9fddbe4","e622c465-ee29-4445-8260-1f3431e06587","{""participantId"":""67CF9A0E1DE7432D878DC83B71F94130"",""assignmentId"":""bcd0e622-c99d-4f59-8daf-e6bab9fddbe4"",""projectId"":""e622c465-ee29-4445-8260-1f3431e06587""}","https://test12345.live/?participantId=67CF9A0E1DE7432D878DC83B71F94130&assignmentId=bcd0e622-c99d-4f59-8daf-e6bab9fddbe4&projectId=e622c465-ee29-4445-8260-1f3431e06587","","3432","","{""Q0"":3}","","[0]"
"","","","","","html-button-response","33","101271","0.0-25.0","67CF9A0E1DE7432D878DC83B71F94130","67CF9A0E1DE7432D878DC83B71F94130","bcd0e622-c99d-4f59-8daf-e6bab9fddbe4","e622c465-ee29-4445-8260-1f3431e06587","{""participantId"":""67CF9A0E1DE7432D878DC83B71F94130"",""assignmentId"":""bcd0e622-c99d-4f59-8daf-e6bab9fddbe4"",""projectId"":""e622c465-ee29-4445-8260-1f3431e06587""}","https://test12345.live/?participantId=67CF9A0E1DE7432D878DC83B71F94130&assignmentId=bcd0e622-c99d-4f59-8daf-e6bab9fddbe4&projectId=e622c465-ee29-4445-8260-1f3431e06587","","1695","
    <div style=""display: flex; justify-content: center; align-items: center;"">
      <img src=""images/blue_deck_1.png"" style=""width: 300px; height: 300px; margin-right: 10px;"" />
      <img src=""images/red_deck_2.png"" style=""width: 300px; height: 300px;"" />
    </div>","0","0",""
"","","","","","html-keyboard-response","34","104279","0.0-26.0-0.0","67CF9A0E1DE7432D878DC83B71F94130","67CF9A0E1DE7432D878DC83B71F94130","bcd0e622-c99d-4f59-8daf-e6bab9fddbe4","e622c465-ee29-4445-8260-1f3431e06587","{""participantId"":""67CF9A0E1DE7432D878DC83B71F94130"",""assignmentId"":""bcd0e622-c99d-4f59-8daf-e6bab9fddbe4"",""projectId"":""e622c465-ee29-4445-8260-1f3431e06587""}","https://test12345.live/?participantId=67CF9A0E1DE7432D878DC83B71F94130&assignmentId=bcd0e622-c99d-4f59-8daf-e6bab9fddbe4&projectId=e622c465-ee29-4445-8260-1f3431e06587","","null","<div style=""display: flex; justify-content: center; align-items: center;"">
                    <img src=""images/causal/causal_series_1/causal_series_1_a.jpg"" style=""width: 300px; height: 300px;"" />
                  </div>","null","",""
"","","","","","html-keyboard-response","35","107282","0.0-26.0-1.0","67CF9A0E1DE7432D878DC83B71F94130","67CF9A0E1DE7432D878DC83B71F94130","bcd0e622-c99d-4f59-8daf-e6bab9fddbe4","e622c465-ee29-4445-8260-1f3431e06587","{""participantId"":""67CF9A0E1DE7432D878DC83B71F94130"",""assignmentId"":""bcd0e622-c99d-4f59-8daf-e6bab9fddbe4"",""projectId"":""e622c465-ee29-4445-8260-1f3431e06587""}","https://test12345.live/?participantId=67CF9A0E1DE7432D878DC83B71F94130&assignmentId=bcd0e622-c99d-4f59-8daf-e6bab9fddbe4&projectId=e622c465-ee29-4445-8260-1f3431e06587","","null","<div style=""display: flex; justify-content: center; align-items: center;"">
                    <img src=""images/causal/causal_series_1/causal_series_1_b.jpg"" style=""width: 300px; height: 300px;"" />
                  </div>","null","",""
"","","","","","html-keyboard-response","36","110285","0.0-26.0-2.0","67CF9A0E1DE7432D878DC83B71F94130","67CF9A0E1DE7432D878DC83B71F94130","bcd0e622-c99d-4f59-8daf-e6bab9fddbe4","e622c465-ee29-4445-8260-1f3431e06587","{""participantId"":""67CF9A0E1DE7432D878DC83B71F94130"",""assignmentId"":""bcd0e622-c99d-4f59-8daf-e6bab9fddbe4"",""projectId"":""e622c465-ee29-4445-8260-1f3431e06587""}","https://test12345.live/?participantId=67CF9A0E1DE7432D878DC83B71F94130&assignmentId=bcd0e622-c99d-4f59-8daf-e6bab9fddbe4&projectId=e622c465-ee29-4445-8260-1f3431e06587","","null","<div style=""display: flex; justify-content: center; align-items: center;"">
                    <img src=""images/causal/causal_series_1/causal_series_1_c.jpg"" style=""width: 300px; height: 300px;"" />
                  </div>","null","",""
"","","","","","html-keyboard-response","37","113296","0.0-26.0-3.0","67CF9A0E1DE7432D878DC83B71F94130","67CF9A0E1DE7432D878DC83B71F94130","bcd0e622-c99d-4f59-8daf-e6bab9fddbe4","e622c465-ee29-4445-8260-1f3431e06587","{""participantId"":""67CF9A0E1DE7432D878DC83B71F94130"",""assignmentId"":""bcd0e622-c99d-4f59-8daf-e6bab9fddbe4"",""projectId"":""e622c465-ee29-4445-8260-1f3431e06587""}","https://test12345.live/?participantId=67CF9A0E1DE7432D878DC83B71F94130&assignmentId=bcd0e622-c99d-4f59-8daf-e6bab9fddbe4&projectId=e622c465-ee29-4445-8260-1f3431e06587","","null","<div style=""display: flex; justify-content: center; align-items: center;"">
                    <img src=""images/causal/causal_series_1/causal_series_1_d.jpg"" style=""width: 300px; height: 300px;"" />
                  </div>","null","",""
"","","","","","html-button-response","38","115296","0.0-28.0","67CF9A0E1DE7432D878DC83B71F94130","67CF9A0E1DE7432D878DC83B71F94130","bcd0e622-c99d-4f59-8daf-e6bab9fddbe4","e622c465-ee29-4445-8260-1f3431e06587","{""participantId"":""67CF9A0E1DE7432D878DC83B71F94130"",""assignmentId"":""bcd0e622-c99d-4f59-8daf-e6bab9fddbe4"",""projectId"":""e622c465-ee29-4445-8260-1f3431e06587""}","https://test12345.live/?participantId=67CF9A0E1DE7432D878DC83B71F94130&assignmentId=bcd0e622-c99d-4f59-8daf-e6bab9fddbe4&projectId=e622c465-ee29-4445-8260-1f3431e06587","","1999","Was there a person in the picture?","0","",""
"","","","","","survey-likert","39","118190","0.0-29.0","67CF9A0E1DE7432D878DC83B71F94130","67CF9A0E1DE7432D878DC83B71F94130","bcd0e622-c99d-4f59-8daf-e6bab9fddbe4","e622c465-ee29-4445-8260-1f3431e06587","{""participantId"":""67CF9A0E1DE7432D878DC83B71F94130"",""assignmentId"":""bcd0e622-c99d-4f59-8daf-e6bab9fddbe4"",""projectId"":""e622c465-ee29-4445-8260-1f3431e06587""}","https://test12345.live/?participantId=67CF9A0E1DE7432D878DC83B71F94130&assignmentId=bcd0e622-c99d-4f59-8daf-e6bab9fddbe4&projectId=e622c465-ee29-4445-8260-1f3431e06587","","2891","","{""Q0"":4}","","[0]"
"","","","","","html-button-response","40","119741","0.0-30.0","67CF9A0E1DE7432D878DC83B71F94130","67CF9A0E1DE7432D878DC83B71F94130","bcd0e622-c99d-4f59-8daf-e6bab9fddbe4","e622c465-ee29-4445-8260-1f3431e06587","{""participantId"":""67CF9A0E1DE7432D878DC83B71F94130"",""assignmentId"":""bcd0e622-c99d-4f59-8daf-e6bab9fddbe4"",""projectId"":""e622c465-ee29-4445-8260-1f3431e06587""}","https://test12345.live/?participantId=67CF9A0E1DE7432D878DC83B71F94130&assignmentId=bcd0e622-c99d-4f59-8daf-e6bab9fddbe4&projectId=e622c465-ee29-4445-8260-1f3431e06587","","1563","
    <div style=""display: flex; justify-content: center; align-items: center;"">
      <img src=""images/blue_deck_1.png"" style=""width: 300px; height: 300px; margin-right: 10px;"" />
      <img src=""images/red_deck_2.png"" style=""width: 300px; height: 300px;"" />
    </div>","1","1",""
"","","","","","html-keyboard-response","41","122744","0.0-32.0-0.0","67CF9A0E1DE7432D878DC83B71F94130","67CF9A0E1DE7432D878DC83B71F94130","bcd0e622-c99d-4f59-8daf-e6bab9fddbe4","e622c465-ee29-4445-8260-1f3431e06587","{""participantId"":""67CF9A0E1DE7432D878DC83B71F94130"",""assignmentId"":""bcd0e622-c99d-4f59-8daf-e6bab9fddbe4"",""projectId"":""e622c465-ee29-4445-8260-1f3431e06587""}","https://test12345.live/?participantId=67CF9A0E1DE7432D878DC83B71F94130&assignmentId=bcd0e622-c99d-4f59-8daf-e6bab9fddbe4&projectId=e622c465-ee29-4445-8260-1f3431e06587","","null","<div style=""display: flex; justify-content: center; align-items: center;"">
                    <img src=""images/semantic/semantic_series_14/semantic_series_14_a.jpg"" style=""width: 300px; height: 300px;"" />
                  </div>","null","",""
"","","","","","html-keyboard-response","42","125758","0.0-32.0-1.0","67CF9A0E1DE7432D878DC83B71F94130","67CF9A0E1DE7432D878DC83B71F94130","bcd0e622-c99d-4f59-8daf-e6bab9fddbe4","e622c465-ee29-4445-8260-1f3431e06587","{""participantId"":""67CF9A0E1DE7432D878DC83B71F94130"",""assignmentId"":""bcd0e622-c99d-4f59-8daf-e6bab9fddbe4"",""projectId"":""e622c465-ee29-4445-8260-1f3431e06587""}","https://test12345.live/?participantId=67CF9A0E1DE7432D878DC83B71F94130&assignmentId=bcd0e622-c99d-4f59-8daf-e6bab9fddbe4&projectId=e622c465-ee29-4445-8260-1f3431e06587","","null","<div style=""display: flex; justify-content: center; align-items: center;"">
                    <img src=""images/semantic/semantic_series_14/semantic_series_14_b.jpg"" style=""width: 300px; height: 300px;"" />
                  </div>","null","",""
"","","","","","html-keyboard-response","43","128771","0.0-32.0-2.0","67CF9A0E1DE7432D878DC83B71F94130","67CF9A0E1DE7432D878DC83B71F94130","bcd0e622-c99d-4f59-8daf-e6bab9fddbe4","e622c465-ee29-4445-8260-1f3431e06587","{""participantId"":""67CF9A0E1DE7432D878DC83B71F94130"",""assignmentId"":""bcd0e622-c99d-4f59-8daf-e6bab9fddbe4"",""projectId"":""e622c465-ee29-4445-8260-1f3431e06587""}","https://test12345.live/?participantId=67CF9A0E1DE7432D878DC83B71F94130&assignmentId=bcd0e622-c99d-4f59-8daf-e6bab9fddbe4&projectId=e622c465-ee29-4445-8260-1f3431e06587","","null","<div style=""display: flex; justify-content: center; align-items: center;"">
                    <img src=""images/semantic/semantic_series_14/semantic_series_14_c.jpg"" style=""width: 300px; height: 300px;"" />
                  </div>","null","",""
"","","","","","html-keyboard-response","44","131777","0.0-32.0-3.0","67CF9A0E1DE7432D878DC83B71F94130","67CF9A0E1DE7432D878DC83B71F94130","bcd0e622-c99d-4f59-8daf-e6bab9fddbe4","e622c465-ee29-4445-8260-1f3431e06587","{""participantId"":""67CF9A0E1DE7432D878DC83B71F94130"",""assignmentId"":""bcd0e622-c99d-4f59-8daf-e6bab9fddbe4"",""projectId"":""e622c465-ee29-4445-8260-1f3431e06587""}","https://test12345.live/?participantId=67CF9A0E1DE7432D878DC83B71F94130&assignmentId=bcd0e622-c99d-4f59-8daf-e6bab9fddbe4&projectId=e622c465-ee29-4445-8260-1f3431e06587","","null","<div style=""display: flex; justify-content: center; align-items: center;"">
                    <img src=""images/semantic/semantic_series_14/semantic_series_14_d.jpg"" style=""width: 300px; height: 300px;"" />
                  </div>","null","",""
"","","","","","html-button-response","45","132948","0.0-33.0","67CF9A0E1DE7432D878DC83B71F94130","67CF9A0E1DE7432D878DC83B71F94130","bcd0e622-c99d-4f59-8daf-e6bab9fddbe4","e622c465-ee29-4445-8260-1f3431e06587","{""participantId"":""67CF9A0E1DE7432D878DC83B71F94130"",""assignmentId"":""bcd0e622-c99d-4f59-8daf-e6bab9fddbe4"",""projectId"":""e622c465-ee29-4445-8260-1f3431e06587""}","https://test12345.live/?participantId=67CF9A0E1DE7432D878DC83B71F94130&assignmentId=bcd0e622-c99d-4f59-8daf-e6bab9fddbe4&projectId=e622c465-ee29-4445-8260-1f3431e06587","","1170","Was there a person in the picture?","0","",""
"","","","","","survey-likert","46","135885","0.0-34.0","67CF9A0E1DE7432D878DC83B71F94130","67CF9A0E1DE7432D878DC83B71F94130","bcd0e622-c99d-4f59-8daf-e6bab9fddbe4","e622c465-ee29-4445-8260-1f3431e06587","{""participantId"":""67CF9A0E1DE7432D878DC83B71F94130"",""assignmentId"":""bcd0e622-c99d-4f59-8daf-e6bab9fddbe4"",""projectId"":""e622c465-ee29-4445-8260-1f3431e06587""}","https://test12345.live/?participantId=67CF9A0E1DE7432D878DC83B71F94130&assignmentId=bcd0e622-c99d-4f59-8daf-e6bab9fddbe4&projectId=e622c465-ee29-4445-8260-1f3431e06587","","2936","","{""Q0"":3}","","[0]"
"","","","","","html-button-response","47","137891","0.0-35.0","67CF9A0E1DE7432D878DC83B71F94130","67CF9A0E1DE7432D878DC83B71F94130","bcd0e622-c99d-4f59-8daf-e6bab9fddbe4","e622c465-ee29-4445-8260-1f3431e06587","{""participantId"":""67CF9A0E1DE7432D878DC83B71F94130"",""assignmentId"":""bcd0e622-c99d-4f59-8daf-e6bab9fddbe4"",""projectId"":""e622c465-ee29-4445-8260-1f3431e06587""}","https://test12345.live/?participantId=67CF9A0E1DE7432D878DC83B71F94130&assignmentId=bcd0e622-c99d-4f59-8daf-e6bab9fddbe4&projectId=e622c465-ee29-4445-8260-1f3431e06587","","2005","
    <div style=""display: flex; justify-content: center; align-items: center;"">
      <img src=""images/blue_deck_1.png"" style=""width: 300px; height: 300px; margin-right: 10px;"" />
      <img src=""images/red_deck_2.png"" style=""width: 300px; height: 300px;"" />
    </div>","1","1",""
"","","","","","html-keyboard-response","48","140896","0.0-37.0-0.0","67CF9A0E1DE7432D878DC83B71F94130","67CF9A0E1DE7432D878DC83B71F94130","bcd0e622-c99d-4f59-8daf-e6bab9fddbe4","e622c465-ee29-4445-8260-1f3431e06587","{""participantId"":""67CF9A0E1DE7432D878DC83B71F94130"",""assignmentId"":""bcd0e622-c99d-4f59-8daf-e6bab9fddbe4"",""projectId"":""e622c465-ee29-4445-8260-1f3431e06587""}","https://test12345.live/?participantId=67CF9A0E1DE7432D878DC83B71F94130&assignmentId=bcd0e622-c99d-4f59-8daf-e6bab9fddbe4&projectId=e622c465-ee29-4445-8260-1f3431e06587","","null","<div style=""display: flex; justify-content: center; align-items: center;"">
                    <img src=""images/semantic/semantic_series_8/semantic_series_8_a.jpg"" style=""width: 300px; height: 300px;"" />
                  </div>","null","",""
"","","","","","html-keyboard-response","49","143901","0.0-37.0-1.0","67CF9A0E1DE7432D878DC83B71F94130","67CF9A0E1DE7432D878DC83B71F94130","bcd0e622-c99d-4f59-8daf-e6bab9fddbe4","e622c465-ee29-4445-8260-1f3431e06587","{""participantId"":""67CF9A0E1DE7432D878DC83B71F94130"",""assignmentId"":""bcd0e622-c99d-4f59-8daf-e6bab9fddbe4"",""projectId"":""e622c465-ee29-4445-8260-1f3431e06587""}","https://test12345.live/?participantId=67CF9A0E1DE7432D878DC83B71F94130&assignmentId=bcd0e622-c99d-4f59-8daf-e6bab9fddbe4&projectId=e622c465-ee29-4445-8260-1f3431e06587","","null","<div style=""display: flex; justify-content: center; align-items: center;"">
                    <img src=""images/semantic/semantic_series_8/semantic_series_8_b.jpg"" style=""width: 300px; height: 300px;"" />
                  </div>","null","",""
"","","","","","html-keyboard-response","50","146914","0.0-37.0-2.0","67CF9A0E1DE7432D878DC83B71F94130","67CF9A0E1DE7432D878DC83B71F94130","bcd0e622-c99d-4f59-8daf-e6bab9fddbe4","e622c465-ee29-4445-8260-1f3431e06587","{""participantId"":""67CF9A0E1DE7432D878DC83B71F94130"",""assignmentId"":""bcd0e622-c99d-4f59-8daf-e6bab9fddbe4"",""projectId"":""e622c465-ee29-4445-8260-1f3431e06587""}","https://test12345.live/?participantId=67CF9A0E1DE7432D878DC83B71F94130&assignmentId=bcd0e622-c99d-4f59-8daf-e6bab9fddbe4&projectId=e622c465-ee29-4445-8260-1f3431e06587","","null","<div style=""display: flex; justify-content: center; align-items: center;"">
                    <img src=""images/semantic/semantic_series_8/semantic_series_8_c.jpg"" style=""width: 300px; height: 300px;"" />
                  </div>","null","",""
"","","","","","html-keyboard-response","51","149923","0.0-37.0-3.0","67CF9A0E1DE7432D878DC83B71F94130","67CF9A0E1DE7432D878DC83B71F94130","bcd0e622-c99d-4f59-8daf-e6bab9fddbe4","e622c465-ee29-4445-8260-1f3431e06587","{""participantId"":""67CF9A0E1DE7432D878DC83B71F94130"",""assignmentId"":""bcd0e622-c99d-4f59-8daf-e6bab9fddbe4"",""projectId"":""e622c465-ee29-4445-8260-1f3431e06587""}","https://test12345.live/?participantId=67CF9A0E1DE7432D878DC83B71F94130&assignmentId=bcd0e622-c99d-4f59-8daf-e6bab9fddbe4&projectId=e622c465-ee29-4445-8260-1f3431e06587","","null","<div style=""display: flex; justify-content: center; align-items: center;"">
                    <img src=""images/semantic/semantic_series_8/semantic_series_8_d.jpg"" style=""width: 300px; height: 300px;"" />
                  </div>","null","",""
"","","","","","html-button-response","52","151386","0.0-38.0","67CF9A0E1DE7432D878DC83B71F94130","67CF9A0E1DE7432D878DC83B71F94130","bcd0e622-c99d-4f59-8daf-e6bab9fddbe4","e622c465-ee29-4445-8260-1f3431e06587","{""participantId"":""67CF9A0E1DE7432D878DC83B71F94130"",""assignmentId"":""bcd0e622-c99d-4f59-8daf-e6bab9fddbe4"",""projectId"":""e622c465-ee29-4445-8260-1f3431e06587""}","https://test12345.live/?participantId=67CF9A0E1DE7432D878DC83B71F94130&assignmentId=bcd0e622-c99d-4f59-8daf-e6bab9fddbe4&projectId=e622c465-ee29-4445-8260-1f3431e06587","","1462","Was there a person in the picture?","1","",""
"","","","","","survey-likert","53","154971","0.0-39.0","67CF9A0E1DE7432D878DC83B71F94130","67CF9A0E1DE7432D878DC83B71F94130","bcd0e622-c99d-4f59-8daf-e6bab9fddbe4","e622c465-ee29-4445-8260-1f3431e06587","{""participantId"":""67CF9A0E1DE7432D878DC83B71F94130"",""assignmentId"":""bcd0e622-c99d-4f59-8daf-e6bab9fddbe4"",""projectId"":""e622c465-ee29-4445-8260-1f3431e06587""}","https://test12345.live/?participantId=67CF9A0E1DE7432D878DC83B71F94130&assignmentId=bcd0e622-c99d-4f59-8daf-e6bab9fddbe4&projectId=e622c465-ee29-4445-8260-1f3431e06587","","3584","","{""Q0"":4}","","[0]"
"","","","","","html-button-response","54","156470","0.0-40.0","67CF9A0E1DE7432D878DC83B71F94130","67CF9A0E1DE7432D878DC83B71F94130","bcd0e622-c99d-4f59-8daf-e6bab9fddbe4","e622c465-ee29-4445-8260-1f3431e06587","{""participantId"":""67CF9A0E1DE7432D878DC83B71F94130"",""assignmentId"":""bcd0e622-c99d-4f59-8daf-e6bab9fddbe4"",""projectId"":""e622c465-ee29-4445-8260-1f3431e06587""}","https://test12345.live/?participantId=67CF9A0E1DE7432D878DC83B71F94130&assignmentId=bcd0e622-c99d-4f59-8daf-e6bab9fddbe4&projectId=e622c465-ee29-4445-8260-1f3431e06587","","1497","
    <div style=""display: flex; justify-content: center; align-items: center;"">
      <img src=""images/blue_deck_1.png"" style=""width: 300px; height: 300px; margin-right: 10px;"" />
      <img src=""images/red_deck_2.png"" style=""width: 300px; height: 300px;"" />
    </div>","1","1",""
"","","","","","html-keyboard-response","55","159483","0.0-42.0-0.0","67CF9A0E1DE7432D878DC83B71F94130","67CF9A0E1DE7432D878DC83B71F94130","bcd0e622-c99d-4f59-8daf-e6bab9fddbe4","e622c465-ee29-4445-8260-1f3431e06587","{""participantId"":""67CF9A0E1DE7432D878DC83B71F94130"",""assignmentId"":""bcd0e622-c99d-4f59-8daf-e6bab9fddbe4"",""projectId"":""e622c465-ee29-4445-8260-1f3431e06587""}","https://test12345.live/?participantId=67CF9A0E1DE7432D878DC83B71F94130&assignmentId=bcd0e622-c99d-4f59-8daf-e6bab9fddbe4&projectId=e622c465-ee29-4445-8260-1f3431e06587","","null","<div style=""display: flex; justify-content: center; align-items: center;"">
                    <img src=""images/semantic/semantic_series_18/semantic_series_18_a.jpg"" style=""width: 300px; height: 300px;"" />
                  </div>","null","",""
"","","","","","html-keyboard-response","56","162496","0.0-42.0-1.0","67CF9A0E1DE7432D878DC83B71F94130","67CF9A0E1DE7432D878DC83B71F94130","bcd0e622-c99d-4f59-8daf-e6bab9fddbe4","e622c465-ee29-4445-8260-1f3431e06587","{""participantId"":""67CF9A0E1DE7432D878DC83B71F94130"",""assignmentId"":""bcd0e622-c99d-4f59-8daf-e6bab9fddbe4"",""projectId"":""e622c465-ee29-4445-8260-1f3431e06587""}","https://test12345.live/?participantId=67CF9A0E1DE7432D878DC83B71F94130&assignmentId=bcd0e622-c99d-4f59-8daf-e6bab9fddbe4&projectId=e622c465-ee29-4445-8260-1f3431e06587","","null","<div style=""display: flex; justify-content: center; align-items: center;"">
                    <img src=""images/semantic/semantic_series_18/semantic_series_18_b.jpg"" style=""width: 300px; height: 300px;"" />
                  </div>","null","",""
"","","","","","html-keyboard-response","57","165497","0.0-42.0-2.0","67CF9A0E1DE7432D878DC83B71F94130","67CF9A0E1DE7432D878DC83B71F94130","bcd0e622-c99d-4f59-8daf-e6bab9fddbe4","e622c465-ee29-4445-8260-1f3431e06587","{""participantId"":""67CF9A0E1DE7432D878DC83B71F94130"",""assignmentId"":""bcd0e622-c99d-4f59-8daf-e6bab9fddbe4"",""projectId"":""e622c465-ee29-4445-8260-1f3431e06587""}","https://test12345.live/?participantId=67CF9A0E1DE7432D878DC83B71F94130&assignmentId=bcd0e622-c99d-4f59-8daf-e6bab9fddbe4&projectId=e622c465-ee29-4445-8260-1f3431e06587","","null","<div style=""display: flex; justify-content: center; align-items: center;"">
                    <img src=""images/semantic/semantic_series_18/semantic_series_18_c.jpg"" style=""width: 300px; height: 300px;"" />
                  </div>","null","",""
"","","","","","html-keyboard-response","58","168499","0.0-42.0-3.0","67CF9A0E1DE7432D878DC83B71F94130","67CF9A0E1DE7432D878DC83B71F94130","bcd0e622-c99d-4f59-8daf-e6bab9fddbe4","e622c465-ee29-4445-8260-1f3431e06587","{""participantId"":""67CF9A0E1DE7432D878DC83B71F94130"",""assignmentId"":""bcd0e622-c99d-4f59-8daf-e6bab9fddbe4"",""projectId"":""e622c465-ee29-4445-8260-1f3431e06587""}","https://test12345.live/?participantId=67CF9A0E1DE7432D878DC83B71F94130&assignmentId=bcd0e622-c99d-4f59-8daf-e6bab9fddbe4&projectId=e622c465-ee29-4445-8260-1f3431e06587","","null","<div style=""display: flex; justify-content: center; align-items: center;"">
                    <img src=""images/semantic/semantic_series_18/semantic_series_18_d.jpg"" style=""width: 300px; height: 300px;"" />
                  </div>","null","",""
"","","","","","html-button-response","59","170176","0.0-43.0","67CF9A0E1DE7432D878DC83B71F94130","67CF9A0E1DE7432D878DC83B71F94130","bcd0e622-c99d-4f59-8daf-e6bab9fddbe4","e622c465-ee29-4445-8260-1f3431e06587","{""participantId"":""67CF9A0E1DE7432D878DC83B71F94130"",""assignmentId"":""bcd0e622-c99d-4f59-8daf-e6bab9fddbe4"",""projectId"":""e622c465-ee29-4445-8260-1f3431e06587""}","https://test12345.live/?participantId=67CF9A0E1DE7432D878DC83B71F94130&assignmentId=bcd0e622-c99d-4f59-8daf-e6bab9fddbe4&projectId=e622c465-ee29-4445-8260-1f3431e06587","","1676","Was there a person in the picture?","1","",""
"","","","","","survey-likert","60","172442","0.0-44.0","67CF9A0E1DE7432D878DC83B71F94130","67CF9A0E1DE7432D878DC83B71F94130","bcd0e622-c99d-4f59-8daf-e6bab9fddbe4","e622c465-ee29-4445-8260-1f3431e06587","{""participantId"":""67CF9A0E1DE7432D878DC83B71F94130"",""assignmentId"":""bcd0e622-c99d-4f59-8daf-e6bab9fddbe4"",""projectId"":""e622c465-ee29-4445-8260-1f3431e06587""}","https://test12345.live/?participantId=67CF9A0E1DE7432D878DC83B71F94130&assignmentId=bcd0e622-c99d-4f59-8daf-e6bab9fddbe4&projectId=e622c465-ee29-4445-8260-1f3431e06587","","2265","","{""Q0"":3}","","[0]"
"","","","","","html-button-response","61","174119","0.0-45.0","67CF9A0E1DE7432D878DC83B71F94130","67CF9A0E1DE7432D878DC83B71F94130","bcd0e622-c99d-4f59-8daf-e6bab9fddbe4","e622c465-ee29-4445-8260-1f3431e06587","{""participantId"":""67CF9A0E1DE7432D878DC83B71F94130"",""assignmentId"":""bcd0e622-c99d-4f59-8daf-e6bab9fddbe4"",""projectId"":""e622c465-ee29-4445-8260-1f3431e06587""}","https://test12345.live/?participantId=67CF9A0E1DE7432D878DC83B71F94130&assignmentId=bcd0e622-c99d-4f59-8daf-e6bab9fddbe4&projectId=e622c465-ee29-4445-8260-1f3431e06587","","1676","
    <div style=""display: flex; justify-content: center; align-items: center;"">
      <img src=""images/blue_deck_1.png"" style=""width: 300px; height: 300px; margin-right: 10px;"" />
      <img src=""images/red_deck_2.png"" style=""width: 300px; height: 300px;"" />
    </div>","1","1",""
"","","","","","html-keyboard-response","62","177133","0.0-47.0-0.0","67CF9A0E1DE7432D878DC83B71F94130","67CF9A0E1DE7432D878DC83B71F94130","bcd0e622-c99d-4f59-8daf-e6bab9fddbe4","e622c465-ee29-4445-8260-1f3431e06587","{""participantId"":""67CF9A0E1DE7432D878DC83B71F94130"",""assignmentId"":""bcd0e622-c99d-4f59-8daf-e6bab9fddbe4"",""projectId"":""e622c465-ee29-4445-8260-1f3431e06587""}","https://test12345.live/?participantId=67CF9A0E1DE7432D878DC83B71F94130&assignmentId=bcd0e622-c99d-4f59-8daf-e6bab9fddbe4&projectId=e622c465-ee29-4445-8260-1f3431e06587","","null","<div style=""display: flex; justify-content: center; align-items: center;"">
                    <img src=""images/semantic/semantic_series_17/semantic_series_17_a.jpg"" style=""width: 300px; height: 300px;"" />
                  </div>","null","",""
"","","","","","html-keyboard-response","63","180148","0.0-47.0-1.0","67CF9A0E1DE7432D878DC83B71F94130","67CF9A0E1DE7432D878DC83B71F94130","bcd0e622-c99d-4f59-8daf-e6bab9fddbe4","e622c465-ee29-4445-8260-1f3431e06587","{""participantId"":""67CF9A0E1DE7432D878DC83B71F94130"",""assignmentId"":""bcd0e622-c99d-4f59-8daf-e6bab9fddbe4"",""projectId"":""e622c465-ee29-4445-8260-1f3431e06587""}","https://test12345.live/?participantId=67CF9A0E1DE7432D878DC83B71F94130&assignmentId=bcd0e622-c99d-4f59-8daf-e6bab9fddbe4&projectId=e622c465-ee29-4445-8260-1f3431e06587","","null","<div style=""display: flex; justify-content: center; align-items: center;"">
                    <img src=""images/semantic/semantic_series_17/semantic_series_17_b.jpg"" style=""width: 300px; height: 300px;"" />
                  </div>","null","",""
"","","","","","html-keyboard-response","64","183153","0.0-47.0-2.0","67CF9A0E1DE7432D878DC83B71F94130","67CF9A0E1DE7432D878DC83B71F94130","bcd0e622-c99d-4f59-8daf-e6bab9fddbe4","e622c465-ee29-4445-8260-1f3431e06587","{""participantId"":""67CF9A0E1DE7432D878DC83B71F94130"",""assignmentId"":""bcd0e622-c99d-4f59-8daf-e6bab9fddbe4"",""projectId"":""e622c465-ee29-4445-8260-1f3431e06587""}","https://test12345.live/?participantId=67CF9A0E1DE7432D878DC83B71F94130&assignmentId=bcd0e622-c99d-4f59-8daf-e6bab9fddbe4&projectId=e622c465-ee29-4445-8260-1f3431e06587","","null","<div style=""display: flex; justify-content: center; align-items: center;"">
                    <img src=""images/semantic/semantic_series_17/semantic_series_17_c.jpg"" style=""width: 300px; height: 300px;"" />
                  </div>","null","",""
"","","","","","html-keyboard-response","65","186154","0.0-47.0-3.0","67CF9A0E1DE7432D878DC83B71F94130","67CF9A0E1DE7432D878DC83B71F94130","bcd0e622-c99d-4f59-8daf-e6bab9fddbe4","e622c465-ee29-4445-8260-1f3431e06587","{""participantId"":""67CF9A0E1DE7432D878DC83B71F94130"",""assignmentId"":""bcd0e622-c99d-4f59-8daf-e6bab9fddbe4"",""projectId"":""e622c465-ee29-4445-8260-1f3431e06587""}","https://test12345.live/?participantId=67CF9A0E1DE7432D878DC83B71F94130&assignmentId=bcd0e622-c99d-4f59-8daf-e6bab9fddbe4&projectId=e622c465-ee29-4445-8260-1f3431e06587","","null","<div style=""display: flex; justify-content: center; align-items: center;"">
                    <img src=""images/semantic/semantic_series_17/semantic_series_17_d.jpg"" style=""width: 300px; height: 300px;"" />
                  </div>","null","",""
"","","","","","html-button-response","66","187723","0.0-48.0","67CF9A0E1DE7432D878DC83B71F94130","67CF9A0E1DE7432D878DC83B71F94130","bcd0e622-c99d-4f59-8daf-e6bab9fddbe4","e622c465-ee29-4445-8260-1f3431e06587","{""participantId"":""67CF9A0E1DE7432D878DC83B71F94130"",""assignmentId"":""bcd0e622-c99d-4f59-8daf-e6bab9fddbe4"",""projectId"":""e622c465-ee29-4445-8260-1f3431e06587""}","https://test12345.live/?participantId=67CF9A0E1DE7432D878DC83B71F94130&assignmentId=bcd0e622-c99d-4f59-8daf-e6bab9fddbe4&projectId=e622c465-ee29-4445-8260-1f3431e06587","","1567","Was there a person in the picture?","0","",""
"","","","","","survey-likert","67","190384","0.0-49.0","67CF9A0E1DE7432D878DC83B71F94130","67CF9A0E1DE7432D878DC83B71F94130","bcd0e622-c99d-4f59-8daf-e6bab9fddbe4","e622c465-ee29-4445-8260-1f3431e06587","{""participantId"":""67CF9A0E1DE7432D878DC83B71F94130"",""assignmentId"":""bcd0e622-c99d-4f59-8daf-e6bab9fddbe4"",""projectId"":""e622c465-ee29-4445-8260-1f3431e06587""}","https://test12345.live/?participantId=67CF9A0E1DE7432D878DC83B71F94130&assignmentId=bcd0e622-c99d-4f59-8daf-e6bab9fddbe4&projectId=e622c465-ee29-4445-8260-1f3431e06587","","2661","","{""Q0"":3}","","[0]"
"","","","","","html-button-response","68","191818","0.0-50.0","67CF9A0E1DE7432D878DC83B71F94130","67CF9A0E1DE7432D878DC83B71F94130","bcd0e622-c99d-4f59-8daf-e6bab9fddbe4","e622c465-ee29-4445-8260-1f3431e06587","{""participantId"":""67CF9A0E1DE7432D878DC83B71F94130"",""assignmentId"":""bcd0e622-c99d-4f59-8daf-e6bab9fddbe4"",""projectId"":""e622c465-ee29-4445-8260-1f3431e06587""}","https://test12345.live/?participantId=67CF9A0E1DE7432D878DC83B71F94130&assignmentId=bcd0e622-c99d-4f59-8daf-e6bab9fddbe4&projectId=e622c465-ee29-4445-8260-1f3431e06587","","1432","
    <div style=""display: flex; justify-content: center; align-items: center;"">
      <img src=""images/blue_deck_1.png"" style=""width: 300px; height: 300px; margin-right: 10px;"" />
      <img src=""images/red_deck_2.png"" style=""width: 300px; height: 300px;"" />
    </div>","0","0",""
"","","","","","html-keyboard-response","69","194825","0.0-51.0-0.0","67CF9A0E1DE7432D878DC83B71F94130","67CF9A0E1DE7432D878DC83B71F94130","bcd0e622-c99d-4f59-8daf-e6bab9fddbe4","e622c465-ee29-4445-8260-1f3431e06587","{""participantId"":""67CF9A0E1DE7432D878DC83B71F94130"",""assignmentId"":""bcd0e622-c99d-4f59-8daf-e6bab9fddbe4"",""projectId"":""e622c465-ee29-4445-8260-1f3431e06587""}","https://test12345.live/?participantId=67CF9A0E1DE7432D878DC83B71F94130&assignmentId=bcd0e622-c99d-4f59-8daf-e6bab9fddbe4&projectId=e622c465-ee29-4445-8260-1f3431e06587","","null","<div style=""display: flex; justify-content: center; align-items: center;"">
                    <img src=""images/causal/causal_series_15/causal_series_15_a.jpg"" style=""width: 300px; height: 300px;"" />
                  </div>","null","",""
"","","","","","html-keyboard-response","70","197828","0.0-51.0-1.0","67CF9A0E1DE7432D878DC83B71F94130","67CF9A0E1DE7432D878DC83B71F94130","bcd0e622-c99d-4f59-8daf-e6bab9fddbe4","e622c465-ee29-4445-8260-1f3431e06587","{""participantId"":""67CF9A0E1DE7432D878DC83B71F94130"",""assignmentId"":""bcd0e622-c99d-4f59-8daf-e6bab9fddbe4"",""projectId"":""e622c465-ee29-4445-8260-1f3431e06587""}","https://test12345.live/?participantId=67CF9A0E1DE7432D878DC83B71F94130&assignmentId=bcd0e622-c99d-4f59-8daf-e6bab9fddbe4&projectId=e622c465-ee29-4445-8260-1f3431e06587","","null","<div style=""display: flex; justify-content: center; align-items: center;"">
                    <img src=""images/causal/causal_series_15/causal_series_15_b.jpg"" style=""width: 300px; height: 300px;"" />
                  </div>","null","",""
"","","","","","html-keyboard-response","71","200830","0.0-51.0-2.0","67CF9A0E1DE7432D878DC83B71F94130","67CF9A0E1DE7432D878DC83B71F94130","bcd0e622-c99d-4f59-8daf-e6bab9fddbe4","e622c465-ee29-4445-8260-1f3431e06587","{""participantId"":""67CF9A0E1DE7432D878DC83B71F94130"",""assignmentId"":""bcd0e622-c99d-4f59-8daf-e6bab9fddbe4"",""projectId"":""e622c465-ee29-4445-8260-1f3431e06587""}","https://test12345.live/?participantId=67CF9A0E1DE7432D878DC83B71F94130&assignmentId=bcd0e622-c99d-4f59-8daf-e6bab9fddbe4&projectId=e622c465-ee29-4445-8260-1f3431e06587","","null","<div style=""display: flex; justify-content: center; align-items: center;"">
                    <img src=""images/causal/causal_series_15/causal_series_15_c.jpg"" style=""width: 300px; height: 300px;"" />
                  </div>","null","",""
"","","","","","html-keyboard-response","72","203832","0.0-51.0-3.0","67CF9A0E1DE7432D878DC83B71F94130","67CF9A0E1DE7432D878DC83B71F94130","bcd0e622-c99d-4f59-8daf-e6bab9fddbe4","e622c465-ee29-4445-8260-1f3431e06587","{""participantId"":""67CF9A0E1DE7432D878DC83B71F94130"",""assignmentId"":""bcd0e622-c99d-4f59-8daf-e6bab9fddbe4"",""projectId"":""e622c465-ee29-4445-8260-1f3431e06587""}","https://test12345.live/?participantId=67CF9A0E1DE7432D878DC83B71F94130&assignmentId=bcd0e622-c99d-4f59-8daf-e6bab9fddbe4&projectId=e622c465-ee29-4445-8260-1f3431e06587","","null","<div style=""display: flex; justify-content: center; align-items: center;"">
                    <img src=""images/causal/causal_series_15/causal_series_15_d.jpg"" style=""width: 300px; height: 300px;"" />
                  </div>","null","",""
"","","","","","html-button-response","73","205108","0.0-53.0","67CF9A0E1DE7432D878DC83B71F94130","67CF9A0E1DE7432D878DC83B71F94130","bcd0e622-c99d-4f59-8daf-e6bab9fddbe4","e622c465-ee29-4445-8260-1f3431e06587","{""participantId"":""67CF9A0E1DE7432D878DC83B71F94130"",""assignmentId"":""bcd0e622-c99d-4f59-8daf-e6bab9fddbe4"",""projectId"":""e622c465-ee29-4445-8260-1f3431e06587""}","https://test12345.live/?participantId=67CF9A0E1DE7432D878DC83B71F94130&assignmentId=bcd0e622-c99d-4f59-8daf-e6bab9fddbe4&projectId=e622c465-ee29-4445-8260-1f3431e06587","","1274","Was there a person in the picture?","0","",""
"","","","","","survey-likert","74","208653","0.0-54.0","67CF9A0E1DE7432D878DC83B71F94130","67CF9A0E1DE7432D878DC83B71F94130","bcd0e622-c99d-4f59-8daf-e6bab9fddbe4","e622c465-ee29-4445-8260-1f3431e06587","{""participantId"":""67CF9A0E1DE7432D878DC83B71F94130"",""assignmentId"":""bcd0e622-c99d-4f59-8daf-e6bab9fddbe4"",""projectId"":""e622c465-ee29-4445-8260-1f3431e06587""}","https://test12345.live/?participantId=67CF9A0E1DE7432D878DC83B71F94130&assignmentId=bcd0e622-c99d-4f59-8daf-e6bab9fddbe4&projectId=e622c465-ee29-4445-8260-1f3431e06587","","3544","","{""Q0"":3}","","[0]"
"","","","","","html-button-response","75","210005","0.0-55.0","67CF9A0E1DE7432D878DC83B71F94130","67CF9A0E1DE7432D878DC83B71F94130","bcd0e622-c99d-4f59-8daf-e6bab9fddbe4","e622c465-ee29-4445-8260-1f3431e06587","{""participantId"":""67CF9A0E1DE7432D878DC83B71F94130"",""assignmentId"":""bcd0e622-c99d-4f59-8daf-e6bab9fddbe4"",""projectId"":""e622c465-ee29-4445-8260-1f3431e06587""}","https://test12345.live/?participantId=67CF9A0E1DE7432D878DC83B71F94130&assignmentId=bcd0e622-c99d-4f59-8daf-e6bab9fddbe4&projectId=e622c465-ee29-4445-8260-1f3431e06587","","1351","
    <div style=""display: flex; justify-content: center; align-items: center;"">
      <img src=""images/blue_deck_1.png"" style=""width: 300px; height: 300px; margin-right: 10px;"" />
      <img src=""images/red_deck_2.png"" style=""width: 300px; height: 300px;"" />
    </div>","1","1",""
"","","","","","html-keyboard-response","76","213010","0.0-57.0-0.0","67CF9A0E1DE7432D878DC83B71F94130","67CF9A0E1DE7432D878DC83B71F94130","bcd0e622-c99d-4f59-8daf-e6bab9fddbe4","e622c465-ee29-4445-8260-1f3431e06587","{""participantId"":""67CF9A0E1DE7432D878DC83B71F94130"",""assignmentId"":""bcd0e622-c99d-4f59-8daf-e6bab9fddbe4"",""projectId"":""e622c465-ee29-4445-8260-1f3431e06587""}","https://test12345.live/?participantId=67CF9A0E1DE7432D878DC83B71F94130&assignmentId=bcd0e622-c99d-4f59-8daf-e6bab9fddbe4&projectId=e622c465-ee29-4445-8260-1f3431e06587","","null","<div style=""display: flex; justify-content: center; align-items: center;"">
                    <img src=""images/semantic/semantic_series_1/semantic_series_1_a.jpg"" style=""width: 300px; height: 300px;"" />
                  </div>","null","",""
"","","","","","html-keyboard-response","77","216017","0.0-57.0-1.0","67CF9A0E1DE7432D878DC83B71F94130","67CF9A0E1DE7432D878DC83B71F94130","bcd0e622-c99d-4f59-8daf-e6bab9fddbe4","e622c465-ee29-4445-8260-1f3431e06587","{""participantId"":""67CF9A0E1DE7432D878DC83B71F94130"",""assignmentId"":""bcd0e622-c99d-4f59-8daf-e6bab9fddbe4"",""projectId"":""e622c465-ee29-4445-8260-1f3431e06587""}","https://test12345.live/?participantId=67CF9A0E1DE7432D878DC83B71F94130&assignmentId=bcd0e622-c99d-4f59-8daf-e6bab9fddbe4&projectId=e622c465-ee29-4445-8260-1f3431e06587","","null","<div style=""display: flex; justify-content: center; align-items: center;"">
                    <img src=""images/semantic/semantic_series_1/semantic_series_1_b.jpg"" style=""width: 300px; height: 300px;"" />
                  </div>","null","",""
"","","","","","html-keyboard-response","78","219020","0.0-57.0-2.0","67CF9A0E1DE7432D878DC83B71F94130","67CF9A0E1DE7432D878DC83B71F94130","bcd0e622-c99d-4f59-8daf-e6bab9fddbe4","e622c465-ee29-4445-8260-1f3431e06587","{""participantId"":""67CF9A0E1DE7432D878DC83B71F94130"",""assignmentId"":""bcd0e622-c99d-4f59-8daf-e6bab9fddbe4"",""projectId"":""e622c465-ee29-4445-8260-1f3431e06587""}","https://test12345.live/?participantId=67CF9A0E1DE7432D878DC83B71F94130&assignmentId=bcd0e622-c99d-4f59-8daf-e6bab9fddbe4&projectId=e622c465-ee29-4445-8260-1f3431e06587","","null","<div style=""display: flex; justify-content: center; align-items: center;"">
                    <img src=""images/semantic/semantic_series_1/semantic_series_1_c.jpg"" style=""width: 300px; height: 300px;"" />
                  </div>","null","",""
"","","","","","html-keyboard-response","79","222032","0.0-57.0-3.0","67CF9A0E1DE7432D878DC83B71F94130","67CF9A0E1DE7432D878DC83B71F94130","bcd0e622-c99d-4f59-8daf-e6bab9fddbe4","e622c465-ee29-4445-8260-1f3431e06587","{""participantId"":""67CF9A0E1DE7432D878DC83B71F94130"",""assignmentId"":""bcd0e622-c99d-4f59-8daf-e6bab9fddbe4"",""projectId"":""e622c465-ee29-4445-8260-1f3431e06587""}","https://test12345.live/?participantId=67CF9A0E1DE7432D878DC83B71F94130&assignmentId=bcd0e622-c99d-4f59-8daf-e6bab9fddbe4&projectId=e622c465-ee29-4445-8260-1f3431e06587","","null","<div style=""display: flex; justify-content: center; align-items: center;"">
                    <img src=""images/semantic/semantic_series_1/semantic_series_1_d.jpg"" style=""width: 300px; height: 300px;"" />
                  </div>","null","",""
"","","","","","html-button-response","80","223424","0.0-58.0","67CF9A0E1DE7432D878DC83B71F94130","67CF9A0E1DE7432D878DC83B71F94130","bcd0e622-c99d-4f59-8daf-e6bab9fddbe4","e622c465-ee29-4445-8260-1f3431e06587","{""participantId"":""67CF9A0E1DE7432D878DC83B71F94130"",""assignmentId"":""bcd0e622-c99d-4f59-8daf-e6bab9fddbe4"",""projectId"":""e622c465-ee29-4445-8260-1f3431e06587""}","https://test12345.live/?participantId=67CF9A0E1DE7432D878DC83B71F94130&assignmentId=bcd0e622-c99d-4f59-8daf-e6bab9fddbe4&projectId=e622c465-ee29-4445-8260-1f3431e06587","","1391","Was there a person in the picture?","0","",""
"","","","","","survey-likert","81","225653","0.0-59.0","67CF9A0E1DE7432D878DC83B71F94130","67CF9A0E1DE7432D878DC83B71F94130","bcd0e622-c99d-4f59-8daf-e6bab9fddbe4","e622c465-ee29-4445-8260-1f3431e06587","{""participantId"":""67CF9A0E1DE7432D878DC83B71F94130"",""assignmentId"":""bcd0e622-c99d-4f59-8daf-e6bab9fddbe4"",""projectId"":""e622c465-ee29-4445-8260-1f3431e06587""}","https://test12345.live/?participantId=67CF9A0E1DE7432D878DC83B71F94130&assignmentId=bcd0e622-c99d-4f59-8daf-e6bab9fddbe4&projectId=e622c465-ee29-4445-8260-1f3431e06587","","2228","","{""Q0"":3}","","[0]"
"","","","","","html-button-response","82","226946","0.0-60.0","67CF9A0E1DE7432D878DC83B71F94130","67CF9A0E1DE7432D878DC83B71F94130","bcd0e622-c99d-4f59-8daf-e6bab9fddbe4","e622c465-ee29-4445-8260-1f3431e06587","{""participantId"":""67CF9A0E1DE7432D878DC83B71F94130"",""assignmentId"":""bcd0e622-c99d-4f59-8daf-e6bab9fddbe4"",""projectId"":""e622c465-ee29-4445-8260-1f3431e06587""}","https://test12345.live/?participantId=67CF9A0E1DE7432D878DC83B71F94130&assignmentId=bcd0e622-c99d-4f59-8daf-e6bab9fddbe4&projectId=e622c465-ee29-4445-8260-1f3431e06587","","1292","
    <div style=""display: flex; justify-content: center; align-items: center;"">
      <img src=""images/blue_deck_1.png"" style=""width: 300px; height: 300px; margin-right: 10px;"" />
      <img src=""images/red_deck_2.png"" style=""width: 300px; height: 300px;"" />
    </div>","1","1",""
"","","","","","html-keyboard-response","83","229961","0.0-62.0-0.0","67CF9A0E1DE7432D878DC83B71F94130","67CF9A0E1DE7432D878DC83B71F94130","bcd0e622-c99d-4f59-8daf-e6bab9fddbe4","e622c465-ee29-4445-8260-1f3431e06587","{""participantId"":""67CF9A0E1DE7432D878DC83B71F94130"",""assignmentId"":""bcd0e622-c99d-4f59-8daf-e6bab9fddbe4"",""projectId"":""e622c465-ee29-4445-8260-1f3431e06587""}","https://test12345.live/?participantId=67CF9A0E1DE7432D878DC83B71F94130&assignmentId=bcd0e622-c99d-4f59-8daf-e6bab9fddbe4&projectId=e622c465-ee29-4445-8260-1f3431e06587","","null","<div style=""display: flex; justify-content: center; align-items: center;"">
                    <img src=""images/semantic/semantic_series_16/semantic_series_16_a.jpg"" style=""width: 300px; height: 300px;"" />
                  </div>","null","",""
"","","","","","html-keyboard-response","84","232969","0.0-62.0-1.0","67CF9A0E1DE7432D878DC83B71F94130","67CF9A0E1DE7432D878DC83B71F94130","bcd0e622-c99d-4f59-8daf-e6bab9fddbe4","e622c465-ee29-4445-8260-1f3431e06587","{""participantId"":""67CF9A0E1DE7432D878DC83B71F94130"",""assignmentId"":""bcd0e622-c99d-4f59-8daf-e6bab9fddbe4"",""projectId"":""e622c465-ee29-4445-8260-1f3431e06587""}","https://test12345.live/?participantId=67CF9A0E1DE7432D878DC83B71F94130&assignmentId=bcd0e622-c99d-4f59-8daf-e6bab9fddbe4&projectId=e622c465-ee29-4445-8260-1f3431e06587","","null","<div style=""display: flex; justify-content: center; align-items: center;"">
                    <img src=""images/semantic/semantic_series_16/semantic_series_16_b.jpg"" style=""width: 300px; height: 300px;"" />
                  </div>","null","",""
"","","","","","html-keyboard-response","85","235979","0.0-62.0-2.0","67CF9A0E1DE7432D878DC83B71F94130","67CF9A0E1DE7432D878DC83B71F94130","bcd0e622-c99d-4f59-8daf-e6bab9fddbe4","e622c465-ee29-4445-8260-1f3431e06587","{""participantId"":""67CF9A0E1DE7432D878DC83B71F94130"",""assignmentId"":""bcd0e622-c99d-4f59-8daf-e6bab9fddbe4"",""projectId"":""e622c465-ee29-4445-8260-1f3431e06587""}","https://test12345.live/?participantId=67CF9A0E1DE7432D878DC83B71F94130&assignmentId=bcd0e622-c99d-4f59-8daf-e6bab9fddbe4&projectId=e622c465-ee29-4445-8260-1f3431e06587","","null","<div style=""display: flex; justify-content: center; align-items: center;"">
                    <img src=""images/semantic/semantic_series_16/semantic_series_16_c.jpg"" style=""width: 300px; height: 300px;"" />
                  </div>","null","",""
"","","","","","html-keyboard-response","86","238996","0.0-62.0-3.0","67CF9A0E1DE7432D878DC83B71F94130","67CF9A0E1DE7432D878DC83B71F94130","bcd0e622-c99d-4f59-8daf-e6bab9fddbe4","e622c465-ee29-4445-8260-1f3431e06587","{""participantId"":""67CF9A0E1DE7432D878DC83B71F94130"",""assignmentId"":""bcd0e622-c99d-4f59-8daf-e6bab9fddbe4"",""projectId"":""e622c465-ee29-4445-8260-1f3431e06587""}","https://test12345.live/?participantId=67CF9A0E1DE7432D878DC83B71F94130&assignmentId=bcd0e622-c99d-4f59-8daf-e6bab9fddbe4&projectId=e622c465-ee29-4445-8260-1f3431e06587","","null","<div style=""display: flex; justify-content: center; align-items: center;"">
                    <img src=""images/semantic/semantic_series_16/semantic_series_16_d.jpg"" style=""width: 300px; height: 300px;"" />
                  </div>","null","",""
"","","","","","html-button-response","87","240228","0.0-63.0","67CF9A0E1DE7432D878DC83B71F94130","67CF9A0E1DE7432D878DC83B71F94130","bcd0e622-c99d-4f59-8daf-e6bab9fddbe4","e622c465-ee29-4445-8260-1f3431e06587","{""participantId"":""67CF9A0E1DE7432D878DC83B71F94130"",""assignmentId"":""bcd0e622-c99d-4f59-8daf-e6bab9fddbe4"",""projectId"":""e622c465-ee29-4445-8260-1f3431e06587""}","https://test12345.live/?participantId=67CF9A0E1DE7432D878DC83B71F94130&assignmentId=bcd0e622-c99d-4f59-8daf-e6bab9fddbe4&projectId=e622c465-ee29-4445-8260-1f3431e06587","","1241","Was there a person in the picture?","0","",""
"","","","","","survey-likert","88","242033","0.0-64.0","67CF9A0E1DE7432D878DC83B71F94130","67CF9A0E1DE7432D878DC83B71F94130","bcd0e622-c99d-4f59-8daf-e6bab9fddbe4","e622c465-ee29-4445-8260-1f3431e06587","{""participantId"":""67CF9A0E1DE7432D878DC83B71F94130"",""assignmentId"":""bcd0e622-c99d-4f59-8daf-e6bab9fddbe4"",""projectId"":""e622c465-ee29-4445-8260-1f3431e06587""}","https://test12345.live/?participantId=67CF9A0E1DE7432D878DC83B71F94130&assignmentId=bcd0e622-c99d-4f59-8daf-e6bab9fddbe4&projectId=e622c465-ee29-4445-8260-1f3431e06587","","1804","","{""Q0"":3}","","[0]"
"","","","","","html-button-response","89","243351","0.0-65.0","67CF9A0E1DE7432D878DC83B71F94130","67CF9A0E1DE7432D878DC83B71F94130","bcd0e622-c99d-4f59-8daf-e6bab9fddbe4","e622c465-ee29-4445-8260-1f3431e06587","{""participantId"":""67CF9A0E1DE7432D878DC83B71F94130"",""assignmentId"":""bcd0e622-c99d-4f59-8daf-e6bab9fddbe4"",""projectId"":""e622c465-ee29-4445-8260-1f3431e06587""}","https://test12345.live/?participantId=67CF9A0E1DE7432D878DC83B71F94130&assignmentId=bcd0e622-c99d-4f59-8daf-e6bab9fddbe4&projectId=e622c465-ee29-4445-8260-1f3431e06587","","1316","
    <div style=""display: flex; justify-content: center; align-items: center;"">
      <img src=""images/blue_deck_1.png"" style=""width: 300px; height: 300px; margin-right: 10px;"" />
      <img src=""images/red_deck_2.png"" style=""width: 300px; height: 300px;"" />
    </div>","1","1",""
"","","","","","html-keyboard-response","90","246356","0.0-67.0-0.0","67CF9A0E1DE7432D878DC83B71F94130","67CF9A0E1DE7432D878DC83B71F94130","bcd0e622-c99d-4f59-8daf-e6bab9fddbe4","e622c465-ee29-4445-8260-1f3431e06587","{""participantId"":""67CF9A0E1DE7432D878DC83B71F94130"",""assignmentId"":""bcd0e622-c99d-4f59-8daf-e6bab9fddbe4"",""projectId"":""e622c465-ee29-4445-8260-1f3431e06587""}","https://test12345.live/?participantId=67CF9A0E1DE7432D878DC83B71F94130&assignmentId=bcd0e622-c99d-4f59-8daf-e6bab9fddbe4&projectId=e622c465-ee29-4445-8260-1f3431e06587","","null","<div style=""display: flex; justify-content: center; align-items: center;"">
                    <img src=""images/semantic/semantic_series_3/semantic_series_3_a.jpg"" style=""width: 300px; height: 300px;"" />
                  </div>","null","",""
"","","","","","html-keyboard-response","91","249367","0.0-67.0-1.0","67CF9A0E1DE7432D878DC83B71F94130","67CF9A0E1DE7432D878DC83B71F94130","bcd0e622-c99d-4f59-8daf-e6bab9fddbe4","e622c465-ee29-4445-8260-1f3431e06587","{""participantId"":""67CF9A0E1DE7432D878DC83B71F94130"",""assignmentId"":""bcd0e622-c99d-4f59-8daf-e6bab9fddbe4"",""projectId"":""e622c465-ee29-4445-8260-1f3431e06587""}","https://test12345.live/?participantId=67CF9A0E1DE7432D878DC83B71F94130&assignmentId=bcd0e622-c99d-4f59-8daf-e6bab9fddbe4&projectId=e622c465-ee29-4445-8260-1f3431e06587","","null","<div style=""display: flex; justify-content: center; align-items: center;"">
                    <img src=""images/semantic/semantic_series_3/semantic_series_3_b.jpg"" style=""width: 300px; height: 300px;"" />
                  </div>","null","",""
"","","","","","html-keyboard-response","92","252372","0.0-67.0-2.0","67CF9A0E1DE7432D878DC83B71F94130","67CF9A0E1DE7432D878DC83B71F94130","bcd0e622-c99d-4f59-8daf-e6bab9fddbe4","e622c465-ee29-4445-8260-1f3431e06587","{""participantId"":""67CF9A0E1DE7432D878DC83B71F94130"",""assignmentId"":""bcd0e622-c99d-4f59-8daf-e6bab9fddbe4"",""projectId"":""e622c465-ee29-4445-8260-1f3431e06587""}","https://test12345.live/?participantId=67CF9A0E1DE7432D878DC83B71F94130&assignmentId=bcd0e622-c99d-4f59-8daf-e6bab9fddbe4&projectId=e622c465-ee29-4445-8260-1f3431e06587","","null","<div style=""display: flex; justify-content: center; align-items: center;"">
                    <img src=""images/semantic/semantic_series_3/semantic_series_3_c.jpg"" style=""width: 300px; height: 300px;"" />
                  </div>","null","",""
"","","","","","html-keyboard-response","93","255374","0.0-67.0-3.0","67CF9A0E1DE7432D878DC83B71F94130","67CF9A0E1DE7432D878DC83B71F94130","bcd0e622-c99d-4f59-8daf-e6bab9fddbe4","e622c465-ee29-4445-8260-1f3431e06587","{""participantId"":""67CF9A0E1DE7432D878DC83B71F94130"",""assignmentId"":""bcd0e622-c99d-4f59-8daf-e6bab9fddbe4"",""projectId"":""e622c465-ee29-4445-8260-1f3431e06587""}","https://test12345.live/?participantId=67CF9A0E1DE7432D878DC83B71F94130&assignmentId=bcd0e622-c99d-4f59-8daf-e6bab9fddbe4&projectId=e622c465-ee29-4445-8260-1f3431e06587","","null","<div style=""display: flex; justify-content: center; align-items: center;"">
                    <img src=""images/semantic/semantic_series_3/semantic_series_3_d.jpg"" style=""width: 300px; height: 300px;"" />
                  </div>","null","",""
"","","","","","html-button-response","94","256661","0.0-68.0","67CF9A0E1DE7432D878DC83B71F94130","67CF9A0E1DE7432D878DC83B71F94130","bcd0e622-c99d-4f59-8daf-e6bab9fddbe4","e622c465-ee29-4445-8260-1f3431e06587","{""participantId"":""67CF9A0E1DE7432D878DC83B71F94130"",""assignmentId"":""bcd0e622-c99d-4f59-8daf-e6bab9fddbe4"",""projectId"":""e622c465-ee29-4445-8260-1f3431e06587""}","https://test12345.live/?participantId=67CF9A0E1DE7432D878DC83B71F94130&assignmentId=bcd0e622-c99d-4f59-8daf-e6bab9fddbe4&projectId=e622c465-ee29-4445-8260-1f3431e06587","","1286","Was there a person in the picture?","0","",""
"","","","","","survey-likert","95","259134","0.0-69.0","67CF9A0E1DE7432D878DC83B71F94130","67CF9A0E1DE7432D878DC83B71F94130","bcd0e622-c99d-4f59-8daf-e6bab9fddbe4","e622c465-ee29-4445-8260-1f3431e06587","{""participantId"":""67CF9A0E1DE7432D878DC83B71F94130"",""assignmentId"":""bcd0e622-c99d-4f59-8daf-e6bab9fddbe4"",""projectId"":""e622c465-ee29-4445-8260-1f3431e06587""}","https://test12345.live/?participantId=67CF9A0E1DE7432D878DC83B71F94130&assignmentId=bcd0e622-c99d-4f59-8daf-e6bab9fddbe4&projectId=e622c465-ee29-4445-8260-1f3431e06587","","2472","","{""Q0"":3}","","[0]"
"","","","","","html-button-response","96","260497","0.0-70.0","67CF9A0E1DE7432D878DC83B71F94130","67CF9A0E1DE7432D878DC83B71F94130","bcd0e622-c99d-4f59-8daf-e6bab9fddbe4","e622c465-ee29-4445-8260-1f3431e06587","{""participantId"":""67CF9A0E1DE7432D878DC83B71F94130"",""assignmentId"":""bcd0e622-c99d-4f59-8daf-e6bab9fddbe4"",""projectId"":""e622c465-ee29-4445-8260-1f3431e06587""}","https://test12345.live/?participantId=67CF9A0E1DE7432D878DC83B71F94130&assignmentId=bcd0e622-c99d-4f59-8daf-e6bab9fddbe4&projectId=e622c465-ee29-4445-8260-1f3431e06587","","1362","
    <div style=""display: flex; justify-content: center; align-items: center;"">
      <img src=""images/blue_deck_1.png"" style=""width: 300px; height: 300px; margin-right: 10px;"" />
      <img src=""images/red_deck_2.png"" style=""width: 300px; height: 300px;"" />
    </div>","1","1",""
"","","","","","html-keyboard-response","97","263508","0.0-72.0-0.0","67CF9A0E1DE7432D878DC83B71F94130","67CF9A0E1DE7432D878DC83B71F94130","bcd0e622-c99d-4f59-8daf-e6bab9fddbe4","e622c465-ee29-4445-8260-1f3431e06587","{""participantId"":""67CF9A0E1DE7432D878DC83B71F94130"",""assignmentId"":""bcd0e622-c99d-4f59-8daf-e6bab9fddbe4"",""projectId"":""e622c465-ee29-4445-8260-1f3431e06587""}","https://test12345.live/?participantId=67CF9A0E1DE7432D878DC83B71F94130&assignmentId=bcd0e622-c99d-4f59-8daf-e6bab9fddbe4&projectId=e622c465-ee29-4445-8260-1f3431e06587","","null","<div style=""display: flex; justify-content: center; align-items: center;"">
                    <img src=""images/semantic/semantic_series_11/semantic_series_11_a.jpg"" style=""width: 300px; height: 300px;"" />
                  </div>","null","",""
"","","","","","html-keyboard-response","98","266514","0.0-72.0-1.0","67CF9A0E1DE7432D878DC83B71F94130","67CF9A0E1DE7432D878DC83B71F94130","bcd0e622-c99d-4f59-8daf-e6bab9fddbe4","e622c465-ee29-4445-8260-1f3431e06587","{""participantId"":""67CF9A0E1DE7432D878DC83B71F94130"",""assignmentId"":""bcd0e622-c99d-4f59-8daf-e6bab9fddbe4"",""projectId"":""e622c465-ee29-4445-8260-1f3431e06587""}","https://test12345.live/?participantId=67CF9A0E1DE7432D878DC83B71F94130&assignmentId=bcd0e622-c99d-4f59-8daf-e6bab9fddbe4&projectId=e622c465-ee29-4445-8260-1f3431e06587","","null","<div style=""display: flex; justify-content: center; align-items: center;"">
                    <img src=""images/semantic/semantic_series_11/semantic_series_11_b.jpg"" style=""width: 300px; height: 300px;"" />
                  </div>","null","",""
"","","","","","html-keyboard-response","99","269519","0.0-72.0-2.0","67CF9A0E1DE7432D878DC83B71F94130","67CF9A0E1DE7432D878DC83B71F94130","bcd0e622-c99d-4f59-8daf-e6bab9fddbe4","e622c465-ee29-4445-8260-1f3431e06587","{""participantId"":""67CF9A0E1DE7432D878DC83B71F94130"",""assignmentId"":""bcd0e622-c99d-4f59-8daf-e6bab9fddbe4"",""projectId"":""e622c465-ee29-4445-8260-1f3431e06587""}","https://test12345.live/?participantId=67CF9A0E1DE7432D878DC83B71F94130&assignmentId=bcd0e622-c99d-4f59-8daf-e6bab9fddbe4&projectId=e622c465-ee29-4445-8260-1f3431e06587","","null","<div style=""display: flex; justify-content: center; align-items: center;"">
                    <img src=""images/semantic/semantic_series_11/semantic_series_11_c.jpg"" style=""width: 300px; height: 300px;"" />
                  </div>","null","",""
"","","","","","html-keyboard-response","100","272520","0.0-72.0-3.0","67CF9A0E1DE7432D878DC83B71F94130","67CF9A0E1DE7432D878DC83B71F94130","bcd0e622-c99d-4f59-8daf-e6bab9fddbe4","e622c465-ee29-4445-8260-1f3431e06587","{""participantId"":""67CF9A0E1DE7432D878DC83B71F94130"",""assignmentId"":""bcd0e622-c99d-4f59-8daf-e6bab9fddbe4"",""projectId"":""e622c465-ee29-4445-8260-1f3431e06587""}","https://test12345.live/?participantId=67CF9A0E1DE7432D878DC83B71F94130&assignmentId=bcd0e622-c99d-4f59-8daf-e6bab9fddbe4&projectId=e622c465-ee29-4445-8260-1f3431e06587","","null","<div style=""display: flex; justify-content: center; align-items: center;"">
                    <img src=""images/semantic/semantic_series_11/semantic_series_11_d.jpg"" style=""width: 300px; height: 300px;"" />
                  </div>","null","",""
"","","","","","html-button-response","101","273513","0.0-73.0","67CF9A0E1DE7432D878DC83B71F94130","67CF9A0E1DE7432D878DC83B71F94130","bcd0e622-c99d-4f59-8daf-e6bab9fddbe4","e622c465-ee29-4445-8260-1f3431e06587","{""participantId"":""67CF9A0E1DE7432D878DC83B71F94130"",""assignmentId"":""bcd0e622-c99d-4f59-8daf-e6bab9fddbe4"",""projectId"":""e622c465-ee29-4445-8260-1f3431e06587""}","https://test12345.live/?participantId=67CF9A0E1DE7432D878DC83B71F94130&assignmentId=bcd0e622-c99d-4f59-8daf-e6bab9fddbe4&projectId=e622c465-ee29-4445-8260-1f3431e06587","","992","Was there a person in the picture?","0","",""
"","","","","","survey-likert","102","275463","0.0-74.0","67CF9A0E1DE7432D878DC83B71F94130","67CF9A0E1DE7432D878DC83B71F94130","bcd0e622-c99d-4f59-8daf-e6bab9fddbe4","e622c465-ee29-4445-8260-1f3431e06587","{""participantId"":""67CF9A0E1DE7432D878DC83B71F94130"",""assignmentId"":""bcd0e622-c99d-4f59-8daf-e6bab9fddbe4"",""projectId"":""e622c465-ee29-4445-8260-1f3431e06587""}","https://test12345.live/?participantId=67CF9A0E1DE7432D878DC83B71F94130&assignmentId=bcd0e622-c99d-4f59-8daf-e6bab9fddbe4&projectId=e622c465-ee29-4445-8260-1f3431e06587","","1949","","{""Q0"":3}","","[0]"
"","","","","","html-button-response","103","277182","0.0-75.0","67CF9A0E1DE7432D878DC83B71F94130","67CF9A0E1DE7432D878DC83B71F94130","bcd0e622-c99d-4f59-8daf-e6bab9fddbe4","e622c465-ee29-4445-8260-1f3431e06587","{""participantId"":""67CF9A0E1DE7432D878DC83B71F94130"",""assignmentId"":""bcd0e622-c99d-4f59-8daf-e6bab9fddbe4"",""projectId"":""e622c465-ee29-4445-8260-1f3431e06587""}","https://test12345.live/?participantId=67CF9A0E1DE7432D878DC83B71F94130&assignmentId=bcd0e622-c99d-4f59-8daf-e6bab9fddbe4&projectId=e622c465-ee29-4445-8260-1f3431e06587","","1717","
    <div style=""display: flex; justify-content: center; align-items: center;"">
      <img src=""images/blue_deck_1.png"" style=""width: 300px; height: 300px; margin-right: 10px;"" />
      <img src=""images/red_deck_2.png"" style=""width: 300px; height: 300px;"" />
    </div>","1","1",""
"","","","","","html-keyboard-response","104","280196","0.0-77.0-0.0","67CF9A0E1DE7432D878DC83B71F94130","67CF9A0E1DE7432D878DC83B71F94130","bcd0e622-c99d-4f59-8daf-e6bab9fddbe4","e622c465-ee29-4445-8260-1f3431e06587","{""participantId"":""67CF9A0E1DE7432D878DC83B71F94130"",""assignmentId"":""bcd0e622-c99d-4f59-8daf-e6bab9fddbe4"",""projectId"":""e622c465-ee29-4445-8260-1f3431e06587""}","https://test12345.live/?participantId=67CF9A0E1DE7432D878DC83B71F94130&assignmentId=bcd0e622-c99d-4f59-8daf-e6bab9fddbe4&projectId=e622c465-ee29-4445-8260-1f3431e06587","","null","<div style=""display: flex; justify-content: center; align-items: center;"">
                    <img src=""images/semantic/semantic_series_5/semantic_series_5_a.jpg"" style=""width: 300px; height: 300px;"" />
                  </div>","null","",""
"","","","","","html-keyboard-response","105","283198","0.0-77.0-1.0","67CF9A0E1DE7432D878DC83B71F94130","67CF9A0E1DE7432D878DC83B71F94130","bcd0e622-c99d-4f59-8daf-e6bab9fddbe4","e622c465-ee29-4445-8260-1f3431e06587","{""participantId"":""67CF9A0E1DE7432D878DC83B71F94130"",""assignmentId"":""bcd0e622-c99d-4f59-8daf-e6bab9fddbe4"",""projectId"":""e622c465-ee29-4445-8260-1f3431e06587""}","https://test12345.live/?participantId=67CF9A0E1DE7432D878DC83B71F94130&assignmentId=bcd0e622-c99d-4f59-8daf-e6bab9fddbe4&projectId=e622c465-ee29-4445-8260-1f3431e06587","","null","<div style=""display: flex; justify-content: center; align-items: center;"">
                    <img src=""images/semantic/semantic_series_5/semantic_series_5_b.jpg"" style=""width: 300px; height: 300px;"" />
                  </div>","null","",""
"","","","","","html-keyboard-response","106","286202","0.0-77.0-2.0","67CF9A0E1DE7432D878DC83B71F94130","67CF9A0E1DE7432D878DC83B71F94130","bcd0e622-c99d-4f59-8daf-e6bab9fddbe4","e622c465-ee29-4445-8260-1f3431e06587","{""participantId"":""67CF9A0E1DE7432D878DC83B71F94130"",""assignmentId"":""bcd0e622-c99d-4f59-8daf-e6bab9fddbe4"",""projectId"":""e622c465-ee29-4445-8260-1f3431e06587""}","https://test12345.live/?participantId=67CF9A0E1DE7432D878DC83B71F94130&assignmentId=bcd0e622-c99d-4f59-8daf-e6bab9fddbe4&projectId=e622c465-ee29-4445-8260-1f3431e06587","","null","<div style=""display: flex; justify-content: center; align-items: center;"">
                    <img src=""images/semantic/semantic_series_5/semantic_series_5_c.jpg"" style=""width: 300px; height: 300px;"" />
                  </div>","null","",""
"","","","","","html-keyboard-response","107","289213","0.0-77.0-3.0","67CF9A0E1DE7432D878DC83B71F94130","67CF9A0E1DE7432D878DC83B71F94130","bcd0e622-c99d-4f59-8daf-e6bab9fddbe4","e622c465-ee29-4445-8260-1f3431e06587","{""participantId"":""67CF9A0E1DE7432D878DC83B71F94130"",""assignmentId"":""bcd0e622-c99d-4f59-8daf-e6bab9fddbe4"",""projectId"":""e622c465-ee29-4445-8260-1f3431e06587""}","https://test12345.live/?participantId=67CF9A0E1DE7432D878DC83B71F94130&assignmentId=bcd0e622-c99d-4f59-8daf-e6bab9fddbe4&projectId=e622c465-ee29-4445-8260-1f3431e06587","","null","<div style=""display: flex; justify-content: center; align-items: center;"">
                    <img src=""images/semantic/semantic_series_5/semantic_series_5_d.jpg"" style=""width: 300px; height: 300px;"" />
                  </div>","null","",""
"","","","","","html-button-response","108","290597","0.0-78.0","67CF9A0E1DE7432D878DC83B71F94130","67CF9A0E1DE7432D878DC83B71F94130","bcd0e622-c99d-4f59-8daf-e6bab9fddbe4","e622c465-ee29-4445-8260-1f3431e06587","{""participantId"":""67CF9A0E1DE7432D878DC83B71F94130"",""assignmentId"":""bcd0e622-c99d-4f59-8daf-e6bab9fddbe4"",""projectId"":""e622c465-ee29-4445-8260-1f3431e06587""}","https://test12345.live/?participantId=67CF9A0E1DE7432D878DC83B71F94130&assignmentId=bcd0e622-c99d-4f59-8daf-e6bab9fddbe4&projectId=e622c465-ee29-4445-8260-1f3431e06587","","1382","Was there a person in the picture?","0","",""
"","","","","","survey-likert","109","292295","0.0-79.0","67CF9A0E1DE7432D878DC83B71F94130","67CF9A0E1DE7432D878DC83B71F94130","bcd0e622-c99d-4f59-8daf-e6bab9fddbe4","e622c465-ee29-4445-8260-1f3431e06587","{""participantId"":""67CF9A0E1DE7432D878DC83B71F94130"",""assignmentId"":""bcd0e622-c99d-4f59-8daf-e6bab9fddbe4"",""projectId"":""e622c465-ee29-4445-8260-1f3431e06587""}","https://test12345.live/?participantId=67CF9A0E1DE7432D878DC83B71F94130&assignmentId=bcd0e622-c99d-4f59-8daf-e6bab9fddbe4&projectId=e622c465-ee29-4445-8260-1f3431e06587","","1698","","{""Q0"":4}","","[0]"
"","","","","","html-button-response","110","293832","0.0-80.0","67CF9A0E1DE7432D878DC83B71F94130","67CF9A0E1DE7432D878DC83B71F94130","bcd0e622-c99d-4f59-8daf-e6bab9fddbe4","e622c465-ee29-4445-8260-1f3431e06587","{""participantId"":""67CF9A0E1DE7432D878DC83B71F94130"",""assignmentId"":""bcd0e622-c99d-4f59-8daf-e6bab9fddbe4"",""projectId"":""e622c465-ee29-4445-8260-1f3431e06587""}","https://test12345.live/?participantId=67CF9A0E1DE7432D878DC83B71F94130&assignmentId=bcd0e622-c99d-4f59-8daf-e6bab9fddbe4&projectId=e622c465-ee29-4445-8260-1f3431e06587","","1536","
    <div style=""display: flex; justify-content: center; align-items: center;"">
      <img src=""images/blue_deck_1.png"" style=""width: 300px; height: 300px; margin-right: 10px;"" />
      <img src=""images/red_deck_2.png"" style=""width: 300px; height: 300px;"" />
    </div>","1","1",""
"","","","","","html-keyboard-response","111","296841","0.0-82.0-0.0","67CF9A0E1DE7432D878DC83B71F94130","67CF9A0E1DE7432D878DC83B71F94130","bcd0e622-c99d-4f59-8daf-e6bab9fddbe4","e622c465-ee29-4445-8260-1f3431e06587","{""participantId"":""67CF9A0E1DE7432D878DC83B71F94130"",""assignmentId"":""bcd0e622-c99d-4f59-8daf-e6bab9fddbe4"",""projectId"":""e622c465-ee29-4445-8260-1f3431e06587""}","https://test12345.live/?participantId=67CF9A0E1DE7432D878DC83B71F94130&assignmentId=bcd0e622-c99d-4f59-8daf-e6bab9fddbe4&projectId=e622c465-ee29-4445-8260-1f3431e06587","","null","<div style=""display: flex; justify-content: center; align-items: center;"">
                    <img src=""images/semantic/semantic_series_12/semantic_series_12_a.jpg"" style=""width: 300px; height: 300px;"" />
                  </div>","null","",""
"","","","","","html-keyboard-response","112","299854","0.0-82.0-1.0","67CF9A0E1DE7432D878DC83B71F94130","67CF9A0E1DE7432D878DC83B71F94130","bcd0e622-c99d-4f59-8daf-e6bab9fddbe4","e622c465-ee29-4445-8260-1f3431e06587","{""participantId"":""67CF9A0E1DE7432D878DC83B71F94130"",""assignmentId"":""bcd0e622-c99d-4f59-8daf-e6bab9fddbe4"",""projectId"":""e622c465-ee29-4445-8260-1f3431e06587""}","https://test12345.live/?participantId=67CF9A0E1DE7432D878DC83B71F94130&assignmentId=bcd0e622-c99d-4f59-8daf-e6bab9fddbe4&projectId=e622c465-ee29-4445-8260-1f3431e06587","","null","<div style=""display: flex; justify-content: center; align-items: center;"">
                    <img src=""images/semantic/semantic_series_12/semantic_series_12_b.jpg"" style=""width: 300px; height: 300px;"" />
                  </div>","null","",""
"","","","","","html-keyboard-response","113","302863","0.0-82.0-2.0","67CF9A0E1DE7432D878DC83B71F94130","67CF9A0E1DE7432D878DC83B71F94130","bcd0e622-c99d-4f59-8daf-e6bab9fddbe4","e622c465-ee29-4445-8260-1f3431e06587","{""participantId"":""67CF9A0E1DE7432D878DC83B71F94130"",""assignmentId"":""bcd0e622-c99d-4f59-8daf-e6bab9fddbe4"",""projectId"":""e622c465-ee29-4445-8260-1f3431e06587""}","https://test12345.live/?participantId=67CF9A0E1DE7432D878DC83B71F94130&assignmentId=bcd0e622-c99d-4f59-8daf-e6bab9fddbe4&projectId=e622c465-ee29-4445-8260-1f3431e06587","","null","<div style=""display: flex; justify-content: center; align-items: center;"">
                    <img src=""images/semantic/semantic_series_12/semantic_series_12_c.jpg"" style=""width: 300px; height: 300px;"" />
                  </div>","null","",""
"","","","","","html-keyboard-response","114","305869","0.0-82.0-3.0","67CF9A0E1DE7432D878DC83B71F94130","67CF9A0E1DE7432D878DC83B71F94130","bcd0e622-c99d-4f59-8daf-e6bab9fddbe4","e622c465-ee29-4445-8260-1f3431e06587","{""participantId"":""67CF9A0E1DE7432D878DC83B71F94130"",""assignmentId"":""bcd0e622-c99d-4f59-8daf-e6bab9fddbe4"",""projectId"":""e622c465-ee29-4445-8260-1f3431e06587""}","https://test12345.live/?participantId=67CF9A0E1DE7432D878DC83B71F94130&assignmentId=bcd0e622-c99d-4f59-8daf-e6bab9fddbe4&projectId=e622c465-ee29-4445-8260-1f3431e06587","","null","<div style=""display: flex; justify-content: center; align-items: center;"">
                    <img src=""images/semantic/semantic_series_12/semantic_series_12_d.jpg"" style=""width: 300px; height: 300px;"" />
                  </div>","null","",""
"","","","","","html-button-response","115","307022","0.0-83.0","67CF9A0E1DE7432D878DC83B71F94130","67CF9A0E1DE7432D878DC83B71F94130","bcd0e622-c99d-4f59-8daf-e6bab9fddbe4","e622c465-ee29-4445-8260-1f3431e06587","{""participantId"":""67CF9A0E1DE7432D878DC83B71F94130"",""assignmentId"":""bcd0e622-c99d-4f59-8daf-e6bab9fddbe4"",""projectId"":""e622c465-ee29-4445-8260-1f3431e06587""}","https://test12345.live/?participantId=67CF9A0E1DE7432D878DC83B71F94130&assignmentId=bcd0e622-c99d-4f59-8daf-e6bab9fddbe4&projectId=e622c465-ee29-4445-8260-1f3431e06587","","1152","Was there a person in the picture?","1","",""
"","","","","","survey-likert","116","308615","0.0-84.0","67CF9A0E1DE7432D878DC83B71F94130","67CF9A0E1DE7432D878DC83B71F94130","bcd0e622-c99d-4f59-8daf-e6bab9fddbe4","e622c465-ee29-4445-8260-1f3431e06587","{""participantId"":""67CF9A0E1DE7432D878DC83B71F94130"",""assignmentId"":""bcd0e622-c99d-4f59-8daf-e6bab9fddbe4"",""projectId"":""e622c465-ee29-4445-8260-1f3431e06587""}","https://test12345.live/?participantId=67CF9A0E1DE7432D878DC83B71F94130&assignmentId=bcd0e622-c99d-4f59-8daf-e6bab9fddbe4&projectId=e622c465-ee29-4445-8260-1f3431e06587","","1592","","{""Q0"":4}","","[0]"
"","","","","","html-button-response","117","310084","0.0-85.0","67CF9A0E1DE7432D878DC83B71F94130","67CF9A0E1DE7432D878DC83B71F94130","bcd0e622-c99d-4f59-8daf-e6bab9fddbe4","e622c465-ee29-4445-8260-1f3431e06587","{""participantId"":""67CF9A0E1DE7432D878DC83B71F94130"",""assignmentId"":""bcd0e622-c99d-4f59-8daf-e6bab9fddbe4"",""projectId"":""e622c465-ee29-4445-8260-1f3431e06587""}","https://test12345.live/?participantId=67CF9A0E1DE7432D878DC83B71F94130&assignmentId=bcd0e622-c99d-4f59-8daf-e6bab9fddbe4&projectId=e622c465-ee29-4445-8260-1f3431e06587","","1467","
    <div style=""display: flex; justify-content: center; align-items: center;"">
      <img src=""images/blue_deck_1.png"" style=""width: 300px; height: 300px; margin-right: 10px;"" />
      <img src=""images/red_deck_2.png"" style=""width: 300px; height: 300px;"" />
    </div>","0","0",""
"","","","","","html-keyboard-response","118","313099","0.0-86.0-0.0","67CF9A0E1DE7432D878DC83B71F94130","67CF9A0E1DE7432D878DC83B71F94130","bcd0e622-c99d-4f59-8daf-e6bab9fddbe4","e622c465-ee29-4445-8260-1f3431e06587","{""participantId"":""67CF9A0E1DE7432D878DC83B71F94130"",""assignmentId"":""bcd0e622-c99d-4f59-8daf-e6bab9fddbe4"",""projectId"":""e622c465-ee29-4445-8260-1f3431e06587""}","https://test12345.live/?participantId=67CF9A0E1DE7432D878DC83B71F94130&assignmentId=bcd0e622-c99d-4f59-8daf-e6bab9fddbe4&projectId=e622c465-ee29-4445-8260-1f3431e06587","","null","<div style=""display: flex; justify-content: center; align-items: center;"">
                    <img src=""images/causal/causal_series_8/causal_series_8_a.jpg"" style=""width: 300px; height: 300px;"" />
                  </div>","null","",""
"","","","","","html-keyboard-response","119","316106","0.0-86.0-1.0","67CF9A0E1DE7432D878DC83B71F94130","67CF9A0E1DE7432D878DC83B71F94130","bcd0e622-c99d-4f59-8daf-e6bab9fddbe4","e622c465-ee29-4445-8260-1f3431e06587","{""participantId"":""67CF9A0E1DE7432D878DC83B71F94130"",""assignmentId"":""bcd0e622-c99d-4f59-8daf-e6bab9fddbe4"",""projectId"":""e622c465-ee29-4445-8260-1f3431e06587""}","https://test12345.live/?participantId=67CF9A0E1DE7432D878DC83B71F94130&assignmentId=bcd0e622-c99d-4f59-8daf-e6bab9fddbe4&projectId=e622c465-ee29-4445-8260-1f3431e06587","","null","<div style=""display: flex; justify-content: center; align-items: center;"">
                    <img src=""images/causal/causal_series_8/causal_series_8_b.jpg"" style=""width: 300px; height: 300px;"" />
                  </div>","null","",""
"","","","","","html-keyboard-response","120","319113","0.0-86.0-2.0","67CF9A0E1DE7432D878DC83B71F94130","67CF9A0E1DE7432D878DC83B71F94130","bcd0e622-c99d-4f59-8daf-e6bab9fddbe4","e622c465-ee29-4445-8260-1f3431e06587","{""participantId"":""67CF9A0E1DE7432D878DC83B71F94130"",""assignmentId"":""bcd0e622-c99d-4f59-8daf-e6bab9fddbe4"",""projectId"":""e622c465-ee29-4445-8260-1f3431e06587""}","https://test12345.live/?participantId=67CF9A0E1DE7432D878DC83B71F94130&assignmentId=bcd0e622-c99d-4f59-8daf-e6bab9fddbe4&projectId=e622c465-ee29-4445-8260-1f3431e06587","","null","<div style=""display: flex; justify-content: center; align-items: center;"">
                    <img src=""images/causal/causal_series_8/causal_series_8_c.jpg"" style=""width: 300px; height: 300px;"" />
                  </div>","null","",""
"","","","","","html-keyboard-response","121","322119","0.0-86.0-3.0","67CF9A0E1DE7432D878DC83B71F94130","67CF9A0E1DE7432D878DC83B71F94130","bcd0e622-c99d-4f59-8daf-e6bab9fddbe4","e622c465-ee29-4445-8260-1f3431e06587","{""participantId"":""67CF9A0E1DE7432D878DC83B71F94130"",""assignmentId"":""bcd0e622-c99d-4f59-8daf-e6bab9fddbe4"",""projectId"":""e622c465-ee29-4445-8260-1f3431e06587""}","https://test12345.live/?participantId=67CF9A0E1DE7432D878DC83B71F94130&assignmentId=bcd0e622-c99d-4f59-8daf-e6bab9fddbe4&projectId=e622c465-ee29-4445-8260-1f3431e06587","","null","<div style=""display: flex; justify-content: center; align-items: center;"">
                    <img src=""images/causal/causal_series_8/causal_series_8_d.jpg"" style=""width: 300px; height: 300px;"" />
                  </div>","null","",""
"","","","","","html-button-response","122","323977","0.0-88.0","67CF9A0E1DE7432D878DC83B71F94130","67CF9A0E1DE7432D878DC83B71F94130","bcd0e622-c99d-4f59-8daf-e6bab9fddbe4","e622c465-ee29-4445-8260-1f3431e06587","{""participantId"":""67CF9A0E1DE7432D878DC83B71F94130"",""assignmentId"":""bcd0e622-c99d-4f59-8daf-e6bab9fddbe4"",""projectId"":""e622c465-ee29-4445-8260-1f3431e06587""}","https://test12345.live/?participantId=67CF9A0E1DE7432D878DC83B71F94130&assignmentId=bcd0e622-c99d-4f59-8daf-e6bab9fddbe4&projectId=e622c465-ee29-4445-8260-1f3431e06587","","1858","Was there a person in the picture?","0","",""
"","","","","","survey-likert","123","325713","0.0-89.0","67CF9A0E1DE7432D878DC83B71F94130","67CF9A0E1DE7432D878DC83B71F94130","bcd0e622-c99d-4f59-8daf-e6bab9fddbe4","e622c465-ee29-4445-8260-1f3431e06587","{""participantId"":""67CF9A0E1DE7432D878DC83B71F94130"",""assignmentId"":""bcd0e622-c99d-4f59-8daf-e6bab9fddbe4"",""projectId"":""e622c465-ee29-4445-8260-1f3431e06587""}","https://test12345.live/?participantId=67CF9A0E1DE7432D878DC83B71F94130&assignmentId=bcd0e622-c99d-4f59-8daf-e6bab9fddbe4&projectId=e622c465-ee29-4445-8260-1f3431e06587","","1735","","{""Q0"":4}","","[0]"
"","","","","","html-button-response","124","327017","0.0-90.0","67CF9A0E1DE7432D878DC83B71F94130","67CF9A0E1DE7432D878DC83B71F94130","bcd0e622-c99d-4f59-8daf-e6bab9fddbe4","e622c465-ee29-4445-8260-1f3431e06587","{""participantId"":""67CF9A0E1DE7432D878DC83B71F94130"",""assignmentId"":""bcd0e622-c99d-4f59-8daf-e6bab9fddbe4"",""projectId"":""e622c465-ee29-4445-8260-1f3431e06587""}","https://test12345.live/?participantId=67CF9A0E1DE7432D878DC83B71F94130&assignmentId=bcd0e622-c99d-4f59-8daf-e6bab9fddbe4&projectId=e622c465-ee29-4445-8260-1f3431e06587","","1304","
    <div style=""display: flex; justify-content: center; align-items: center;"">
      <img src=""images/blue_deck_1.png"" style=""width: 300px; height: 300px; margin-right: 10px;"" />
      <img src=""images/red_deck_2.png"" style=""width: 300px; height: 300px;"" />
    </div>","0","0",""
"","","","","","html-keyboard-response","125","330029","0.0-91.0-0.0","67CF9A0E1DE7432D878DC83B71F94130","67CF9A0E1DE7432D878DC83B71F94130","bcd0e622-c99d-4f59-8daf-e6bab9fddbe4","e622c465-ee29-4445-8260-1f3431e06587","{""participantId"":""67CF9A0E1DE7432D878DC83B71F94130"",""assignmentId"":""bcd0e622-c99d-4f59-8daf-e6bab9fddbe4"",""projectId"":""e622c465-ee29-4445-8260-1f3431e06587""}","https://test12345.live/?participantId=67CF9A0E1DE7432D878DC83B71F94130&assignmentId=bcd0e622-c99d-4f59-8daf-e6bab9fddbe4&projectId=e622c465-ee29-4445-8260-1f3431e06587","","null","<div style=""display: flex; justify-content: center; align-items: center;"">
                    <img src=""images/causal/causal_series_3/causal_series_3_a.jpg"" style=""width: 300px; height: 300px;"" />
                  </div>","null","",""
"","","","","","html-keyboard-response","126","333040","0.0-91.0-1.0","67CF9A0E1DE7432D878DC83B71F94130","67CF9A0E1DE7432D878DC83B71F94130","bcd0e622-c99d-4f59-8daf-e6bab9fddbe4","e622c465-ee29-4445-8260-1f3431e06587","{""participantId"":""67CF9A0E1DE7432D878DC83B71F94130"",""assignmentId"":""bcd0e622-c99d-4f59-8daf-e6bab9fddbe4"",""projectId"":""e622c465-ee29-4445-8260-1f3431e06587""}","https://test12345.live/?participantId=67CF9A0E1DE7432D878DC83B71F94130&assignmentId=bcd0e622-c99d-4f59-8daf-e6bab9fddbe4&projectId=e622c465-ee29-4445-8260-1f3431e06587","","null","<div style=""display: flex; justify-content: center; align-items: center;"">
                    <img src=""images/causal/causal_series_3/causal_series_3_b.jpg"" style=""width: 300px; height: 300px;"" />
                  </div>","null","",""
"","","","","","html-keyboard-response","127","336045","0.0-91.0-2.0","67CF9A0E1DE7432D878DC83B71F94130","67CF9A0E1DE7432D878DC83B71F94130","bcd0e622-c99d-4f59-8daf-e6bab9fddbe4","e622c465-ee29-4445-8260-1f3431e06587","{""participantId"":""67CF9A0E1DE7432D878DC83B71F94130"",""assignmentId"":""bcd0e622-c99d-4f59-8daf-e6bab9fddbe4"",""projectId"":""e622c465-ee29-4445-8260-1f3431e06587""}","https://test12345.live/?participantId=67CF9A0E1DE7432D878DC83B71F94130&assignmentId=bcd0e622-c99d-4f59-8daf-e6bab9fddbe4&projectId=e622c465-ee29-4445-8260-1f3431e06587","","null","<div style=""display: flex; justify-content: center; align-items: center;"">
                    <img src=""images/causal/causal_series_3/causal_series_3_c.jpg"" style=""width: 300px; height: 300px;"" />
                  </div>","null","",""
"","","","","","html-keyboard-response","128","339062","0.0-91.0-3.0","67CF9A0E1DE7432D878DC83B71F94130","67CF9A0E1DE7432D878DC83B71F94130","bcd0e622-c99d-4f59-8daf-e6bab9fddbe4","e622c465-ee29-4445-8260-1f3431e06587","{""participantId"":""67CF9A0E1DE7432D878DC83B71F94130"",""assignmentId"":""bcd0e622-c99d-4f59-8daf-e6bab9fddbe4"",""projectId"":""e622c465-ee29-4445-8260-1f3431e06587""}","https://test12345.live/?participantId=67CF9A0E1DE7432D878DC83B71F94130&assignmentId=bcd0e622-c99d-4f59-8daf-e6bab9fddbe4&projectId=e622c465-ee29-4445-8260-1f3431e06587","","null","<div style=""display: flex; justify-content: center; align-items: center;"">
                    <img src=""images/causal/causal_series_3/causal_series_3_d.jpg"" style=""width: 300px; height: 300px;"" />
                  </div>","null","",""
"","","","","","html-button-response","129","340698","0.0-93.0","67CF9A0E1DE7432D878DC83B71F94130","67CF9A0E1DE7432D878DC83B71F94130","bcd0e622-c99d-4f59-8daf-e6bab9fddbe4","e622c465-ee29-4445-8260-1f3431e06587","{""participantId"":""67CF9A0E1DE7432D878DC83B71F94130"",""assignmentId"":""bcd0e622-c99d-4f59-8daf-e6bab9fddbe4"",""projectId"":""e622c465-ee29-4445-8260-1f3431e06587""}","https://test12345.live/?participantId=67CF9A0E1DE7432D878DC83B71F94130&assignmentId=bcd0e622-c99d-4f59-8daf-e6bab9fddbe4&projectId=e622c465-ee29-4445-8260-1f3431e06587","","1634","Was there a person in the picture?","0","",""
"","","","","","survey-likert","130","342727","0.0-94.0","67CF9A0E1DE7432D878DC83B71F94130","67CF9A0E1DE7432D878DC83B71F94130","bcd0e622-c99d-4f59-8daf-e6bab9fddbe4","e622c465-ee29-4445-8260-1f3431e06587","{""participantId"":""67CF9A0E1DE7432D878DC83B71F94130"",""assignmentId"":""bcd0e622-c99d-4f59-8daf-e6bab9fddbe4"",""projectId"":""e622c465-ee29-4445-8260-1f3431e06587""}","https://test12345.live/?participantId=67CF9A0E1DE7432D878DC83B71F94130&assignmentId=bcd0e622-c99d-4f59-8daf-e6bab9fddbe4&projectId=e622c465-ee29-4445-8260-1f3431e06587","","2028","","{""Q0"":3}","","[0]"
"","","","","","survey-text","131","376126","0.0-95.0","67CF9A0E1DE7432D878DC83B71F94130","67CF9A0E1DE7432D878DC83B71F94130","bcd0e622-c99d-4f59-8daf-e6bab9fddbe4","e622c465-ee29-4445-8260-1f3431e06587","{""participantId"":""67CF9A0E1DE7432D878DC83B71F94130"",""assignmentId"":""bcd0e622-c99d-4f59-8daf-e6bab9fddbe4"",""projectId"":""e622c465-ee29-4445-8260-1f3431e06587""}","https://test12345.live/?participantId=67CF9A0E1DE7432D878DC83B71F94130&assignmentId=bcd0e622-c99d-4f59-8daf-e6bab9fddbe4&projectId=e622c465-ee29-4445-8260-1f3431e06587","","33394","","{""Q0"":""One deck had blue cards and the other deck had red cards""}","",""
