"success","timeout","failed_images","failed_audio","failed_video","trial_type","trial_index","time_elapsed","internal_node_id","subject","subject_id","study_id","session_id","urlvar","current_url","view_history","rt","stimulus","response","choice","question_order"
"true","false","[]","[]","[]","preload","0","1534","0.0-0.0","B095D63E18E04650A7E10E6806C48E62","B095D63E18E04650A7E10E6806C48E62","4ea2e9f2-77b5-4a00-8024-9ab8e8141fa7","e622c465-ee29-4445-8260-1f3431e06587","{""participantId"":""B095D63E18E04650A7E10E6806C48E62"",""assignmentId"":""4ea2e9f2-77b5-4a00-8024-9ab8e8141fa7"",""projectId"":""e622c465-ee29-4445-8260-1f3431e06587""}","https://test12345.live/?participantId=B095D63E18E04650A7E10E6806C48E62&assignmentId=4ea2e9f2-77b5-4a00-8024-9ab8e8141fa7&projectId=e622c465-ee29-4445-8260-1f3431e06587","","","","","",""
"","","","","","instructions","1","3991","0.0-1.0","B095D63E18E04650A7E10E6806C48E62","B095D63E18E04650A7E10E6806C48E62","4ea2e9f2-77b5-4a00-8024-9ab8e8141fa7","e622c465-ee29-4445-8260-1f3431e06587","{""participantId"":""B095D63E18E04650A7E10E6806C48E62"",""assignmentId"":""4ea2e9f2-77b5-4a00-8024-9ab8e8141fa7"",""projectId"":""e622c465-ee29-4445-8260-1f3431e06587""}","https://test12345.live/?participantId=B095D63E18E04650A7E10E6806C48E62&assignmentId=4ea2e9f2-77b5-4a00-8024-9ab8e8141fa7&projectId=e622c465-ee29-4445-8260-1f3431e06587","[{""page_index"":0,""viewing_time"":2457}]","2457","","","",""
"","","","","","instructions","2","13967","0.0-2.0","B095D63E18E04650A7E10E6806C48E62","B095D63E18E04650A7E10E6806C48E62","4ea2e9f2-77b5-4a00-8024-9ab8e8141fa7","e622c465-ee29-4445-8260-1f3431e06587","{""participantId"":""B095D63E18E04650A7E10E6806C48E62"",""assignmentId"":""4ea2e9f2-77b5-4a00-8024-9ab8e8141fa7"",""projectId"":""e622c465-ee29-4445-8260-1f3431e06587""}","https://test12345.live/?participantId=B095D63E18E04650A7E10E6806C48E62&assignmentId=4ea2e9f2-77b5-4a00-8024-9ab8e8141fa7&projectId=e622c465-ee29-4445-8260-1f3431e06587","[{""page_index"":0,""viewing_time"":9976}]","9976","","","",""
"true","","","","","fullscreen","3","24244","0.0-3.0","B095D63E18E04650A7E10E6806C48E62","B095D63E18E04650A7E10E6806C48E62","4ea2e9f2-77b5-4a00-8024-9ab8e8141fa7","e622c465-ee29-4445-8260-1f3431e06587","{""participantId"":""B095D63E18E04650A7E10E6806C48E62"",""assignmentId"":""4ea2e9f2-77b5-4a00-8024-9ab8e8141fa7"",""projectId"":""e622c465-ee29-4445-8260-1f3431e06587""}","https://test12345.live/?participantId=B095D63E18E04650A7E10E6806C48E62&assignmentId=4ea2e9f2-77b5-4a00-8024-9ab8e8141fa7&projectId=e622c465-ee29-4445-8260-1f3431e06587","","9275","","","",""
"","","","","","instructions","4","45408","0.0-4.0","B095D63E18E04650A7E10E6806C48E62","B095D63E18E04650A7E10E6806C48E62","4ea2e9f2-77b5-4a00-8024-9ab8e8141fa7","e622c465-ee29-4445-8260-1f3431e06587","{""participantId"":""B095D63E18E04650A7E10E6806C48E62"",""assignmentId"":""4ea2e9f2-77b5-4a00-8024-9ab8e8141fa7"",""projectId"":""e622c465-ee29-4445-8260-1f3431e06587""}","https://test12345.live/?participantId=B095D63E18E04650A7E10E6806C48E62&assignmentId=4ea2e9f2-77b5-4a00-8024-9ab8e8141fa7&projectId=e622c465-ee29-4445-8260-1f3431e06587","[{""page_index"":0,""viewing_time"":21164}]","21164","","","",""
"","","","","","html-button-response","5","48380","0.0-5.0","B095D63E18E04650A7E10E6806C48E62","B095D63E18E04650A7E10E6806C48E62","4ea2e9f2-77b5-4a00-8024-9ab8e8141fa7","e622c465-ee29-4445-8260-1f3431e06587","{""participantId"":""B095D63E18E04650A7E10E6806C48E62"",""assignmentId"":""4ea2e9f2-77b5-4a00-8024-9ab8e8141fa7"",""projectId"":""e622c465-ee29-4445-8260-1f3431e06587""}","https://test12345.live/?participantId=B095D63E18E04650A7E10E6806C48E62&assignmentId=4ea2e9f2-77b5-4a00-8024-9ab8e8141fa7&projectId=e622c465-ee29-4445-8260-1f3431e06587","","2970","
    <div style=""display: flex; justify-content: center; align-items: center;"">
      <img src=""images/blue_deck_1.png"" style=""width: 300px; height: 300px; margin-right: 10px;"" />
      <img src=""images/red_deck_2.png"" style=""width: 300px; height: 300px;"" />
    </div>","0","0",""
"","","","","","html-keyboard-response","6","51392","0.0-6.0-0.0","B095D63E18E04650A7E10E6806C48E62","B095D63E18E04650A7E10E6806C48E62","4ea2e9f2-77b5-4a00-8024-9ab8e8141fa7","e622c465-ee29-4445-8260-1f3431e06587","{""participantId"":""B095D63E18E04650A7E10E6806C48E62"",""assignmentId"":""4ea2e9f2-77b5-4a00-8024-9ab8e8141fa7"",""projectId"":""e622c465-ee29-4445-8260-1f3431e06587""}","https://test12345.live/?participantId=B095D63E18E04650A7E10E6806C48E62&assignmentId=4ea2e9f2-77b5-4a00-8024-9ab8e8141fa7&projectId=e622c465-ee29-4445-8260-1f3431e06587","","null","<div style=""display: flex; justify-content: center; align-items: center;"">
                    <img src=""images/causal/causal_series_4/causal_series_4_a.jpg"" style=""width: 300px; height: 300px;"" />
                  </div>","null","",""
"","","","","","html-keyboard-response","7","54396","0.0-6.0-1.0","B095D63E18E04650A7E10E6806C48E62","B095D63E18E04650A7E10E6806C48E62","4ea2e9f2-77b5-4a00-8024-9ab8e8141fa7","e622c465-ee29-4445-8260-1f3431e06587","{""participantId"":""B095D63E18E04650A7E10E6806C48E62"",""assignmentId"":""4ea2e9f2-77b5-4a00-8024-9ab8e8141fa7"",""projectId"":""e622c465-ee29-4445-8260-1f3431e06587""}","https://test12345.live/?participantId=B095D63E18E04650A7E10E6806C48E62&assignmentId=4ea2e9f2-77b5-4a00-8024-9ab8e8141fa7&projectId=e622c465-ee29-4445-8260-1f3431e06587","","null","<div style=""display: flex; justify-content: center; align-items: center;"">
                    <img src=""images/causal/causal_series_4/causal_series_4_b.jpg"" style=""width: 300px; height: 300px;"" />
                  </div>","null","",""
"","","","","","html-keyboard-response","8","57403","0.0-6.0-2.0","B095D63E18E04650A7E10E6806C48E62","B095D63E18E04650A7E10E6806C48E62","4ea2e9f2-77b5-4a00-8024-9ab8e8141fa7","e622c465-ee29-4445-8260-1f3431e06587","{""participantId"":""B095D63E18E04650A7E10E6806C48E62"",""assignmentId"":""4ea2e9f2-77b5-4a00-8024-9ab8e8141fa7"",""projectId"":""e622c465-ee29-4445-8260-1f3431e06587""}","https://test12345.live/?participantId=B095D63E18E04650A7E10E6806C48E62&assignmentId=4ea2e9f2-77b5-4a00-8024-9ab8e8141fa7&projectId=e622c465-ee29-4445-8260-1f3431e06587","","null","<div style=""display: flex; justify-content: center; align-items: center;"">
                    <img src=""images/causal/causal_series_4/causal_series_4_c.jpg"" style=""width: 300px; height: 300px;"" />
                  </div>","null","",""
"","","","","","html-keyboard-response","9","60415","0.0-6.0-3.0","B095D63E18E04650A7E10E6806C48E62","B095D63E18E04650A7E10E6806C48E62","4ea2e9f2-77b5-4a00-8024-9ab8e8141fa7","e622c465-ee29-4445-8260-1f3431e06587","{""participantId"":""B095D63E18E04650A7E10E6806C48E62"",""assignmentId"":""4ea2e9f2-77b5-4a00-8024-9ab8e8141fa7"",""projectId"":""e622c465-ee29-4445-8260-1f3431e06587""}","https://test12345.live/?participantId=B095D63E18E04650A7E10E6806C48E62&assignmentId=4ea2e9f2-77b5-4a00-8024-9ab8e8141fa7&projectId=e622c465-ee29-4445-8260-1f3431e06587","","null","<div style=""display: flex; justify-content: center; align-items: center;"">
                    <img src=""images/causal/causal_series_4/causal_series_4_d.jpg"" style=""width: 300px; height: 300px;"" />
                  </div>","null","",""
"","","","","","html-button-response","10","64708","0.0-8.0","B095D63E18E04650A7E10E6806C48E62","B095D63E18E04650A7E10E6806C48E62","4ea2e9f2-77b5-4a00-8024-9ab8e8141fa7","e622c465-ee29-4445-8260-1f3431e06587","{""participantId"":""B095D63E18E04650A7E10E6806C48E62"",""assignmentId"":""4ea2e9f2-77b5-4a00-8024-9ab8e8141fa7"",""projectId"":""e622c465-ee29-4445-8260-1f3431e06587""}","https://test12345.live/?participantId=B095D63E18E04650A7E10E6806C48E62&assignmentId=4ea2e9f2-77b5-4a00-8024-9ab8e8141fa7&projectId=e622c465-ee29-4445-8260-1f3431e06587","","4292","Was there a person in the picture?","0","",""
"","","","","","survey-likert","11","67379","0.0-9.0","B095D63E18E04650A7E10E6806C48E62","B095D63E18E04650A7E10E6806C48E62","4ea2e9f2-77b5-4a00-8024-9ab8e8141fa7","e622c465-ee29-4445-8260-1f3431e06587","{""participantId"":""B095D63E18E04650A7E10E6806C48E62"",""assignmentId"":""4ea2e9f2-77b5-4a00-8024-9ab8e8141fa7"",""projectId"":""e622c465-ee29-4445-8260-1f3431e06587""}","https://test12345.live/?participantId=B095D63E18E04650A7E10E6806C48E62&assignmentId=4ea2e9f2-77b5-4a00-8024-9ab8e8141fa7&projectId=e622c465-ee29-4445-8260-1f3431e06587","","2670","","{""Q0"":2}","","[0]"
"","","","","","html-button-response","12","68687","0.0-10.0","B095D63E18E04650A7E10E6806C48E62","B095D63E18E04650A7E10E6806C48E62","4ea2e9f2-77b5-4a00-8024-9ab8e8141fa7","e622c465-ee29-4445-8260-1f3431e06587","{""participantId"":""B095D63E18E04650A7E10E6806C48E62"",""assignmentId"":""4ea2e9f2-77b5-4a00-8024-9ab8e8141fa7"",""projectId"":""e622c465-ee29-4445-8260-1f3431e06587""}","https://test12345.live/?participantId=B095D63E18E04650A7E10E6806C48E62&assignmentId=4ea2e9f2-77b5-4a00-8024-9ab8e8141fa7&projectId=e622c465-ee29-4445-8260-1f3431e06587","","1308","
    <div style=""display: flex; justify-content: center; align-items: center;"">
      <img src=""images/blue_deck_1.png"" style=""width: 300px; height: 300px; margin-right: 10px;"" />
      <img src=""images/red_deck_2.png"" style=""width: 300px; height: 300px;"" />
    </div>","1","1",""
"","","","","","html-keyboard-response","13","71700","0.0-12.0-0.0","B095D63E18E04650A7E10E6806C48E62","B095D63E18E04650A7E10E6806C48E62","4ea2e9f2-77b5-4a00-8024-9ab8e8141fa7","e622c465-ee29-4445-8260-1f3431e06587","{""participantId"":""B095D63E18E04650A7E10E6806C48E62"",""assignmentId"":""4ea2e9f2-77b5-4a00-8024-9ab8e8141fa7"",""projectId"":""e622c465-ee29-4445-8260-1f3431e06587""}","https://test12345.live/?participantId=B095D63E18E04650A7E10E6806C48E62&assignmentId=4ea2e9f2-77b5-4a00-8024-9ab8e8141fa7&projectId=e622c465-ee29-4445-8260-1f3431e06587","","null","<div style=""display: flex; justify-content: center; align-items: center;"">
                    <img src=""images/semantic/semantic_series_17/semantic_series_17_a.jpg"" style=""width: 300px; height: 300px;"" />
                  </div>","null","",""
"","","","","","html-keyboard-response","14","74711","0.0-12.0-1.0","B095D63E18E04650A7E10E6806C48E62","B095D63E18E04650A7E10E6806C48E62","4ea2e9f2-77b5-4a00-8024-9ab8e8141fa7","e622c465-ee29-4445-8260-1f3431e06587","{""participantId"":""B095D63E18E04650A7E10E6806C48E62"",""assignmentId"":""4ea2e9f2-77b5-4a00-8024-9ab8e8141fa7"",""projectId"":""e622c465-ee29-4445-8260-1f3431e06587""}","https://test12345.live/?participantId=B095D63E18E04650A7E10E6806C48E62&assignmentId=4ea2e9f2-77b5-4a00-8024-9ab8e8141fa7&projectId=e622c465-ee29-4445-8260-1f3431e06587","","null","<div style=""display: flex; justify-content: center; align-items: center;"">
                    <img src=""images/semantic/semantic_series_17/semantic_series_17_b.jpg"" style=""width: 300px; height: 300px;"" />
                  </div>","null","",""
"","","","","","html-keyboard-response","15","77715","0.0-12.0-2.0","B095D63E18E04650A7E10E6806C48E62","B095D63E18E04650A7E10E6806C48E62","4ea2e9f2-77b5-4a00-8024-9ab8e8141fa7","e622c465-ee29-4445-8260-1f3431e06587","{""participantId"":""B095D63E18E04650A7E10E6806C48E62"",""assignmentId"":""4ea2e9f2-77b5-4a00-8024-9ab8e8141fa7"",""projectId"":""e622c465-ee29-4445-8260-1f3431e06587""}","https://test12345.live/?participantId=B095D63E18E04650A7E10E6806C48E62&assignmentId=4ea2e9f2-77b5-4a00-8024-9ab8e8141fa7&projectId=e622c465-ee29-4445-8260-1f3431e06587","","null","<div style=""display: flex; justify-content: center; align-items: center;"">
                    <img src=""images/semantic/semantic_series_17/semantic_series_17_c.jpg"" style=""width: 300px; height: 300px;"" />
                  </div>","null","",""
"","","","","","html-keyboard-response","16","80720","0.0-12.0-3.0","B095D63E18E04650A7E10E6806C48E62","B095D63E18E04650A7E10E6806C48E62","4ea2e9f2-77b5-4a00-8024-9ab8e8141fa7","e622c465-ee29-4445-8260-1f3431e06587","{""participantId"":""B095D63E18E04650A7E10E6806C48E62"",""assignmentId"":""4ea2e9f2-77b5-4a00-8024-9ab8e8141fa7"",""projectId"":""e622c465-ee29-4445-8260-1f3431e06587""}","https://test12345.live/?participantId=B095D63E18E04650A7E10E6806C48E62&assignmentId=4ea2e9f2-77b5-4a00-8024-9ab8e8141fa7&projectId=e622c465-ee29-4445-8260-1f3431e06587","","null","<div style=""display: flex; justify-content: center; align-items: center;"">
                    <img src=""images/semantic/semantic_series_17/semantic_series_17_d.jpg"" style=""width: 300px; height: 300px;"" />
                  </div>","null","",""
"","","","","","html-button-response","17","83061","0.0-13.0","B095D63E18E04650A7E10E6806C48E62","B095D63E18E04650A7E10E6806C48E62","4ea2e9f2-77b5-4a00-8024-9ab8e8141fa7","e622c465-ee29-4445-8260-1f3431e06587","{""participantId"":""B095D63E18E04650A7E10E6806C48E62"",""assignmentId"":""4ea2e9f2-77b5-4a00-8024-9ab8e8141fa7"",""projectId"":""e622c465-ee29-4445-8260-1f3431e06587""}","https://test12345.live/?participantId=B095D63E18E04650A7E10E6806C48E62&assignmentId=4ea2e9f2-77b5-4a00-8024-9ab8e8141fa7&projectId=e622c465-ee29-4445-8260-1f3431e06587","","2341","Was there a person in the picture?","0","",""
"","","","","","survey-likert","18","86409","0.0-14.0","B095D63E18E04650A7E10E6806C48E62","B095D63E18E04650A7E10E6806C48E62","4ea2e9f2-77b5-4a00-8024-9ab8e8141fa7","e622c465-ee29-4445-8260-1f3431e06587","{""participantId"":""B095D63E18E04650A7E10E6806C48E62"",""assignmentId"":""4ea2e9f2-77b5-4a00-8024-9ab8e8141fa7"",""projectId"":""e622c465-ee29-4445-8260-1f3431e06587""}","https://test12345.live/?participantId=B095D63E18E04650A7E10E6806C48E62&assignmentId=4ea2e9f2-77b5-4a00-8024-9ab8e8141fa7&projectId=e622c465-ee29-4445-8260-1f3431e06587","","3347","","{""Q0"":1}","","[0]"
"","","","","","html-button-response","19","87296","0.0-15.0","B095D63E18E04650A7E10E6806C48E62","B095D63E18E04650A7E10E6806C48E62","4ea2e9f2-77b5-4a00-8024-9ab8e8141fa7","e622c465-ee29-4445-8260-1f3431e06587","{""participantId"":""B095D63E18E04650A7E10E6806C48E62"",""assignmentId"":""4ea2e9f2-77b5-4a00-8024-9ab8e8141fa7"",""projectId"":""e622c465-ee29-4445-8260-1f3431e06587""}","https://test12345.live/?participantId=B095D63E18E04650A7E10E6806C48E62&assignmentId=4ea2e9f2-77b5-4a00-8024-9ab8e8141fa7&projectId=e622c465-ee29-4445-8260-1f3431e06587","","885","
    <div style=""display: flex; justify-content: center; align-items: center;"">
      <img src=""images/blue_deck_1.png"" style=""width: 300px; height: 300px; margin-right: 10px;"" />
      <img src=""images/red_deck_2.png"" style=""width: 300px; height: 300px;"" />
    </div>","0","0",""
"","","","","","html-keyboard-response","20","90303","0.0-16.0-0.0","B095D63E18E04650A7E10E6806C48E62","B095D63E18E04650A7E10E6806C48E62","4ea2e9f2-77b5-4a00-8024-9ab8e8141fa7","e622c465-ee29-4445-8260-1f3431e06587","{""participantId"":""B095D63E18E04650A7E10E6806C48E62"",""assignmentId"":""4ea2e9f2-77b5-4a00-8024-9ab8e8141fa7"",""projectId"":""e622c465-ee29-4445-8260-1f3431e06587""}","https://test12345.live/?participantId=B095D63E18E04650A7E10E6806C48E62&assignmentId=4ea2e9f2-77b5-4a00-8024-9ab8e8141fa7&projectId=e622c465-ee29-4445-8260-1f3431e06587","","null","<div style=""display: flex; justify-content: center; align-items: center;"">
                    <img src=""images/causal/causal_series_8/causal_series_8_a.jpg"" style=""width: 300px; height: 300px;"" />
                  </div>","null","",""
"","","","","","html-keyboard-response","21","93311","0.0-16.0-1.0","B095D63E18E04650A7E10E6806C48E62","B095D63E18E04650A7E10E6806C48E62","4ea2e9f2-77b5-4a00-8024-9ab8e8141fa7","e622c465-ee29-4445-8260-1f3431e06587","{""participantId"":""B095D63E18E04650A7E10E6806C48E62"",""assignmentId"":""4ea2e9f2-77b5-4a00-8024-9ab8e8141fa7"",""projectId"":""e622c465-ee29-4445-8260-1f3431e06587""}","https://test12345.live/?participantId=B095D63E18E04650A7E10E6806C48E62&assignmentId=4ea2e9f2-77b5-4a00-8024-9ab8e8141fa7&projectId=e622c465-ee29-4445-8260-1f3431e06587","","null","<div style=""display: flex; justify-content: center; align-items: center;"">
                    <img src=""images/causal/causal_series_8/causal_series_8_b.jpg"" style=""width: 300px; height: 300px;"" />
                  </div>","null","",""
"","","","","","html-keyboard-response","22","96321","0.0-16.0-2.0","B095D63E18E04650A7E10E6806C48E62","B095D63E18E04650A7E10E6806C48E62","4ea2e9f2-77b5-4a00-8024-9ab8e8141fa7","e622c465-ee29-4445-8260-1f3431e06587","{""participantId"":""B095D63E18E04650A7E10E6806C48E62"",""assignmentId"":""4ea2e9f2-77b5-4a00-8024-9ab8e8141fa7"",""projectId"":""e622c465-ee29-4445-8260-1f3431e06587""}","https://test12345.live/?participantId=B095D63E18E04650A7E10E6806C48E62&assignmentId=4ea2e9f2-77b5-4a00-8024-9ab8e8141fa7&projectId=e622c465-ee29-4445-8260-1f3431e06587","","null","<div style=""display: flex; justify-content: center; align-items: center;"">
                    <img src=""images/causal/causal_series_8/causal_series_8_c.jpg"" style=""width: 300px; height: 300px;"" />
                  </div>","null","",""
"","","","","","html-keyboard-response","23","99326","0.0-16.0-3.0","B095D63E18E04650A7E10E6806C48E62","B095D63E18E04650A7E10E6806C48E62","4ea2e9f2-77b5-4a00-8024-9ab8e8141fa7","e622c465-ee29-4445-8260-1f3431e06587","{""participantId"":""B095D63E18E04650A7E10E6806C48E62"",""assignmentId"":""4ea2e9f2-77b5-4a00-8024-9ab8e8141fa7"",""projectId"":""e622c465-ee29-4445-8260-1f3431e06587""}","https://test12345.live/?participantId=B095D63E18E04650A7E10E6806C48E62&assignmentId=4ea2e9f2-77b5-4a00-8024-9ab8e8141fa7&projectId=e622c465-ee29-4445-8260-1f3431e06587","","null","<div style=""display: flex; justify-content: center; align-items: center;"">
                    <img src=""images/causal/causal_series_8/causal_series_8_d.jpg"" style=""width: 300px; height: 300px;"" />
                  </div>","null","",""
"","","","","","html-button-response","24","102315","0.0-18.0","B095D63E18E04650A7E10E6806C48E62","B095D63E18E04650A7E10E6806C48E62","4ea2e9f2-77b5-4a00-8024-9ab8e8141fa7","e622c465-ee29-4445-8260-1f3431e06587","{""participantId"":""B095D63E18E04650A7E10E6806C48E62"",""assignmentId"":""4ea2e9f2-77b5-4a00-8024-9ab8e8141fa7"",""projectId"":""e622c465-ee29-4445-8260-1f3431e06587""}","https://test12345.live/?participantId=B095D63E18E04650A7E10E6806C48E62&assignmentId=4ea2e9f2-77b5-4a00-8024-9ab8e8141fa7&projectId=e622c465-ee29-4445-8260-1f3431e06587","","2989","Was there a person in the picture?","0","",""
"","","","","","survey-likert","25","104476","0.0-19.0","B095D63E18E04650A7E10E6806C48E62","B095D63E18E04650A7E10E6806C48E62","4ea2e9f2-77b5-4a00-8024-9ab8e8141fa7","e622c465-ee29-4445-8260-1f3431e06587","{""participantId"":""B095D63E18E04650A7E10E6806C48E62"",""assignmentId"":""4ea2e9f2-77b5-4a00-8024-9ab8e8141fa7"",""projectId"":""e622c465-ee29-4445-8260-1f3431e06587""}","https://test12345.live/?participantId=B095D63E18E04650A7E10E6806C48E62&assignmentId=4ea2e9f2-77b5-4a00-8024-9ab8e8141fa7&projectId=e622c465-ee29-4445-8260-1f3431e06587","","2160","","{""Q0"":2}","","[0]"
"","","","","","html-button-response","26","105420","0.0-20.0","B095D63E18E04650A7E10E6806C48E62","B095D63E18E04650A7E10E6806C48E62","4ea2e9f2-77b5-4a00-8024-9ab8e8141fa7","e622c465-ee29-4445-8260-1f3431e06587","{""participantId"":""B095D63E18E04650A7E10E6806C48E62"",""assignmentId"":""4ea2e9f2-77b5-4a00-8024-9ab8e8141fa7"",""projectId"":""e622c465-ee29-4445-8260-1f3431e06587""}","https://test12345.live/?participantId=B095D63E18E04650A7E10E6806C48E62&assignmentId=4ea2e9f2-77b5-4a00-8024-9ab8e8141fa7&projectId=e622c465-ee29-4445-8260-1f3431e06587","","944","
    <div style=""display: flex; justify-content: center; align-items: center;"">
      <img src=""images/blue_deck_1.png"" style=""width: 300px; height: 300px; margin-right: 10px;"" />
      <img src=""images/red_deck_2.png"" style=""width: 300px; height: 300px;"" />
    </div>","0","0",""
"","","","","","html-keyboard-response","27","108427","0.0-21.0-0.0","B095D63E18E04650A7E10E6806C48E62","B095D63E18E04650A7E10E6806C48E62","4ea2e9f2-77b5-4a00-8024-9ab8e8141fa7","e622c465-ee29-4445-8260-1f3431e06587","{""participantId"":""B095D63E18E04650A7E10E6806C48E62"",""assignmentId"":""4ea2e9f2-77b5-4a00-8024-9ab8e8141fa7"",""projectId"":""e622c465-ee29-4445-8260-1f3431e06587""}","https://test12345.live/?participantId=B095D63E18E04650A7E10E6806C48E62&assignmentId=4ea2e9f2-77b5-4a00-8024-9ab8e8141fa7&projectId=e622c465-ee29-4445-8260-1f3431e06587","","null","<div style=""display: flex; justify-content: center; align-items: center;"">
                    <img src=""images/causal/causal_series_1/causal_series_1_a.jpg"" style=""width: 300px; height: 300px;"" />
                  </div>","null","",""
"","","","","","html-keyboard-response","28","111431","0.0-21.0-1.0","B095D63E18E04650A7E10E6806C48E62","B095D63E18E04650A7E10E6806C48E62","4ea2e9f2-77b5-4a00-8024-9ab8e8141fa7","e622c465-ee29-4445-8260-1f3431e06587","{""participantId"":""B095D63E18E04650A7E10E6806C48E62"",""assignmentId"":""4ea2e9f2-77b5-4a00-8024-9ab8e8141fa7"",""projectId"":""e622c465-ee29-4445-8260-1f3431e06587""}","https://test12345.live/?participantId=B095D63E18E04650A7E10E6806C48E62&assignmentId=4ea2e9f2-77b5-4a00-8024-9ab8e8141fa7&projectId=e622c465-ee29-4445-8260-1f3431e06587","","null","<div style=""display: flex; justify-content: center; align-items: center;"">
                    <img src=""images/causal/causal_series_1/causal_series_1_b.jpg"" style=""width: 300px; height: 300px;"" />
                  </div>","null","",""
"","","","","","html-keyboard-response","29","114435","0.0-21.0-2.0","B095D63E18E04650A7E10E6806C48E62","B095D63E18E04650A7E10E6806C48E62","4ea2e9f2-77b5-4a00-8024-9ab8e8141fa7","e622c465-ee29-4445-8260-1f3431e06587","{""participantId"":""B095D63E18E04650A7E10E6806C48E62"",""assignmentId"":""4ea2e9f2-77b5-4a00-8024-9ab8e8141fa7"",""projectId"":""e622c465-ee29-4445-8260-1f3431e06587""}","https://test12345.live/?participantId=B095D63E18E04650A7E10E6806C48E62&assignmentId=4ea2e9f2-77b5-4a00-8024-9ab8e8141fa7&projectId=e622c465-ee29-4445-8260-1f3431e06587","","null","<div style=""display: flex; justify-content: center; align-items: center;"">
                    <img src=""images/causal/causal_series_1/causal_series_1_c.jpg"" style=""width: 300px; height: 300px;"" />
                  </div>","null","",""
"","","","","","html-keyboard-response","30","117438","0.0-21.0-3.0","B095D63E18E04650A7E10E6806C48E62","B095D63E18E04650A7E10E6806C48E62","4ea2e9f2-77b5-4a00-8024-9ab8e8141fa7","e622c465-ee29-4445-8260-1f3431e06587","{""participantId"":""B095D63E18E04650A7E10E6806C48E62"",""assignmentId"":""4ea2e9f2-77b5-4a00-8024-9ab8e8141fa7"",""projectId"":""e622c465-ee29-4445-8260-1f3431e06587""}","https://test12345.live/?participantId=B095D63E18E04650A7E10E6806C48E62&assignmentId=4ea2e9f2-77b5-4a00-8024-9ab8e8141fa7&projectId=e622c465-ee29-4445-8260-1f3431e06587","","null","<div style=""display: flex; justify-content: center; align-items: center;"">
                    <img src=""images/causal/causal_series_1/causal_series_1_d.jpg"" style=""width: 300px; height: 300px;"" />
                  </div>","null","",""
"","","","","","html-button-response","31","119489","0.0-23.0","B095D63E18E04650A7E10E6806C48E62","B095D63E18E04650A7E10E6806C48E62","4ea2e9f2-77b5-4a00-8024-9ab8e8141fa7","e622c465-ee29-4445-8260-1f3431e06587","{""participantId"":""B095D63E18E04650A7E10E6806C48E62"",""assignmentId"":""4ea2e9f2-77b5-4a00-8024-9ab8e8141fa7"",""projectId"":""e622c465-ee29-4445-8260-1f3431e06587""}","https://test12345.live/?participantId=B095D63E18E04650A7E10E6806C48E62&assignmentId=4ea2e9f2-77b5-4a00-8024-9ab8e8141fa7&projectId=e622c465-ee29-4445-8260-1f3431e06587","","2050","Was there a person in the picture?","1","",""
"","","","","","survey-likert","32","120574","0.0-24.0","B095D63E18E04650A7E10E6806C48E62","B095D63E18E04650A7E10E6806C48E62","4ea2e9f2-77b5-4a00-8024-9ab8e8141fa7","e622c465-ee29-4445-8260-1f3431e06587","{""participantId"":""B095D63E18E04650A7E10E6806C48E62"",""assignmentId"":""4ea2e9f2-77b5-4a00-8024-9ab8e8141fa7"",""projectId"":""e622c465-ee29-4445-8260-1f3431e06587""}","https://test12345.live/?participantId=B095D63E18E04650A7E10E6806C48E62&assignmentId=4ea2e9f2-77b5-4a00-8024-9ab8e8141fa7&projectId=e622c465-ee29-4445-8260-1f3431e06587","","1085","","{""Q0"":2}","","[0]"
"","","","","","html-button-response","33","121332","0.0-25.0","B095D63E18E04650A7E10E6806C48E62","B095D63E18E04650A7E10E6806C48E62","4ea2e9f2-77b5-4a00-8024-9ab8e8141fa7","e622c465-ee29-4445-8260-1f3431e06587","{""participantId"":""B095D63E18E04650A7E10E6806C48E62"",""assignmentId"":""4ea2e9f2-77b5-4a00-8024-9ab8e8141fa7"",""projectId"":""e622c465-ee29-4445-8260-1f3431e06587""}","https://test12345.live/?participantId=B095D63E18E04650A7E10E6806C48E62&assignmentId=4ea2e9f2-77b5-4a00-8024-9ab8e8141fa7&projectId=e622c465-ee29-4445-8260-1f3431e06587","","756","
    <div style=""display: flex; justify-content: center; align-items: center;"">
      <img src=""images/blue_deck_1.png"" style=""width: 300px; height: 300px; margin-right: 10px;"" />
      <img src=""images/red_deck_2.png"" style=""width: 300px; height: 300px;"" />
    </div>","0","0",""
"","","","","","html-keyboard-response","34","124340","0.0-26.0-0.0","B095D63E18E04650A7E10E6806C48E62","B095D63E18E04650A7E10E6806C48E62","4ea2e9f2-77b5-4a00-8024-9ab8e8141fa7","e622c465-ee29-4445-8260-1f3431e06587","{""participantId"":""B095D63E18E04650A7E10E6806C48E62"",""assignmentId"":""4ea2e9f2-77b5-4a00-8024-9ab8e8141fa7"",""projectId"":""e622c465-ee29-4445-8260-1f3431e06587""}","https://test12345.live/?participantId=B095D63E18E04650A7E10E6806C48E62&assignmentId=4ea2e9f2-77b5-4a00-8024-9ab8e8141fa7&projectId=e622c465-ee29-4445-8260-1f3431e06587","","null","<div style=""display: flex; justify-content: center; align-items: center;"">
                    <img src=""images/causal/causal_series_6/causal_series_6_a.jpg"" style=""width: 300px; height: 300px;"" />
                  </div>","null","",""
"","","","","","html-keyboard-response","35","127347","0.0-26.0-1.0","B095D63E18E04650A7E10E6806C48E62","B095D63E18E04650A7E10E6806C48E62","4ea2e9f2-77b5-4a00-8024-9ab8e8141fa7","e622c465-ee29-4445-8260-1f3431e06587","{""participantId"":""B095D63E18E04650A7E10E6806C48E62"",""assignmentId"":""4ea2e9f2-77b5-4a00-8024-9ab8e8141fa7"",""projectId"":""e622c465-ee29-4445-8260-1f3431e06587""}","https://test12345.live/?participantId=B095D63E18E04650A7E10E6806C48E62&assignmentId=4ea2e9f2-77b5-4a00-8024-9ab8e8141fa7&projectId=e622c465-ee29-4445-8260-1f3431e06587","","null","<div style=""display: flex; justify-content: center; align-items: center;"">
                    <img src=""images/causal/causal_series_6/causal_series_6_b.jpg"" style=""width: 300px; height: 300px;"" />
                  </div>","null","",""
"","","","","","html-keyboard-response","36","130356","0.0-26.0-2.0","B095D63E18E04650A7E10E6806C48E62","B095D63E18E04650A7E10E6806C48E62","4ea2e9f2-77b5-4a00-8024-9ab8e8141fa7","e622c465-ee29-4445-8260-1f3431e06587","{""participantId"":""B095D63E18E04650A7E10E6806C48E62"",""assignmentId"":""4ea2e9f2-77b5-4a00-8024-9ab8e8141fa7"",""projectId"":""e622c465-ee29-4445-8260-1f3431e06587""}","https://test12345.live/?participantId=B095D63E18E04650A7E10E6806C48E62&assignmentId=4ea2e9f2-77b5-4a00-8024-9ab8e8141fa7&projectId=e622c465-ee29-4445-8260-1f3431e06587","","null","<div style=""display: flex; justify-content: center; align-items: center;"">
                    <img src=""images/causal/causal_series_6/causal_series_6_c.jpg"" style=""width: 300px; height: 300px;"" />
                  </div>","null","",""
"","","","","","html-keyboard-response","37","133358","0.0-26.0-3.0","B095D63E18E04650A7E10E6806C48E62","B095D63E18E04650A7E10E6806C48E62","4ea2e9f2-77b5-4a00-8024-9ab8e8141fa7","e622c465-ee29-4445-8260-1f3431e06587","{""participantId"":""B095D63E18E04650A7E10E6806C48E62"",""assignmentId"":""4ea2e9f2-77b5-4a00-8024-9ab8e8141fa7"",""projectId"":""e622c465-ee29-4445-8260-1f3431e06587""}","https://test12345.live/?participantId=B095D63E18E04650A7E10E6806C48E62&assignmentId=4ea2e9f2-77b5-4a00-8024-9ab8e8141fa7&projectId=e622c465-ee29-4445-8260-1f3431e06587","","null","<div style=""display: flex; justify-content: center; align-items: center;"">
                    <img src=""images/causal/causal_series_6/causal_series_6_d.jpg"" style=""width: 300px; height: 300px;"" />
                  </div>","null","",""
"","","","","","html-button-response","38","134117","0.0-28.0","B095D63E18E04650A7E10E6806C48E62","B095D63E18E04650A7E10E6806C48E62","4ea2e9f2-77b5-4a00-8024-9ab8e8141fa7","e622c465-ee29-4445-8260-1f3431e06587","{""participantId"":""B095D63E18E04650A7E10E6806C48E62"",""assignmentId"":""4ea2e9f2-77b5-4a00-8024-9ab8e8141fa7"",""projectId"":""e622c465-ee29-4445-8260-1f3431e06587""}","https://test12345.live/?participantId=B095D63E18E04650A7E10E6806C48E62&assignmentId=4ea2e9f2-77b5-4a00-8024-9ab8e8141fa7&projectId=e622c465-ee29-4445-8260-1f3431e06587","","759","Was there a person in the picture?","0","",""
"","","","","","survey-likert","39","136263","0.0-29.0","B095D63E18E04650A7E10E6806C48E62","B095D63E18E04650A7E10E6806C48E62","4ea2e9f2-77b5-4a00-8024-9ab8e8141fa7","e622c465-ee29-4445-8260-1f3431e06587","{""participantId"":""B095D63E18E04650A7E10E6806C48E62"",""assignmentId"":""4ea2e9f2-77b5-4a00-8024-9ab8e8141fa7"",""projectId"":""e622c465-ee29-4445-8260-1f3431e06587""}","https://test12345.live/?participantId=B095D63E18E04650A7E10E6806C48E62&assignmentId=4ea2e9f2-77b5-4a00-8024-9ab8e8141fa7&projectId=e622c465-ee29-4445-8260-1f3431e06587","","2145","","{""Q0"":2}","","[0]"
"","","","","","html-button-response","40","138034","0.0-30.0","B095D63E18E04650A7E10E6806C48E62","B095D63E18E04650A7E10E6806C48E62","4ea2e9f2-77b5-4a00-8024-9ab8e8141fa7","e622c465-ee29-4445-8260-1f3431e06587","{""participantId"":""B095D63E18E04650A7E10E6806C48E62"",""assignmentId"":""4ea2e9f2-77b5-4a00-8024-9ab8e8141fa7"",""projectId"":""e622c465-ee29-4445-8260-1f3431e06587""}","https://test12345.live/?participantId=B095D63E18E04650A7E10E6806C48E62&assignmentId=4ea2e9f2-77b5-4a00-8024-9ab8e8141fa7&projectId=e622c465-ee29-4445-8260-1f3431e06587","","1771","
    <div style=""display: flex; justify-content: center; align-items: center;"">
      <img src=""images/blue_deck_1.png"" style=""width: 300px; height: 300px; margin-right: 10px;"" />
      <img src=""images/red_deck_2.png"" style=""width: 300px; height: 300px;"" />
    </div>","1","1",""
"","","","","","html-keyboard-response","41","141043","0.0-32.0-0.0","B095D63E18E04650A7E10E6806C48E62","B095D63E18E04650A7E10E6806C48E62","4ea2e9f2-77b5-4a00-8024-9ab8e8141fa7","e622c465-ee29-4445-8260-1f3431e06587","{""participantId"":""B095D63E18E04650A7E10E6806C48E62"",""assignmentId"":""4ea2e9f2-77b5-4a00-8024-9ab8e8141fa7"",""projectId"":""e622c465-ee29-4445-8260-1f3431e06587""}","https://test12345.live/?participantId=B095D63E18E04650A7E10E6806C48E62&assignmentId=4ea2e9f2-77b5-4a00-8024-9ab8e8141fa7&projectId=e622c465-ee29-4445-8260-1f3431e06587","","null","<div style=""display: flex; justify-content: center; align-items: center;"">
                    <img src=""images/semantic/semantic_series_7/semantic_series_7_a.jpg"" style=""width: 300px; height: 300px;"" />
                  </div>","null","",""
"","","","","","html-keyboard-response","42","144057","0.0-32.0-1.0","B095D63E18E04650A7E10E6806C48E62","B095D63E18E04650A7E10E6806C48E62","4ea2e9f2-77b5-4a00-8024-9ab8e8141fa7","e622c465-ee29-4445-8260-1f3431e06587","{""participantId"":""B095D63E18E04650A7E10E6806C48E62"",""assignmentId"":""4ea2e9f2-77b5-4a00-8024-9ab8e8141fa7"",""projectId"":""e622c465-ee29-4445-8260-1f3431e06587""}","https://test12345.live/?participantId=B095D63E18E04650A7E10E6806C48E62&assignmentId=4ea2e9f2-77b5-4a00-8024-9ab8e8141fa7&projectId=e622c465-ee29-4445-8260-1f3431e06587","","null","<div style=""display: flex; justify-content: center; align-items: center;"">
                    <img src=""images/semantic/semantic_series_7/semantic_series_7_b.jpg"" style=""width: 300px; height: 300px;"" />
                  </div>","null","",""
"","","","","","html-keyboard-response","43","147074","0.0-32.0-2.0","B095D63E18E04650A7E10E6806C48E62","B095D63E18E04650A7E10E6806C48E62","4ea2e9f2-77b5-4a00-8024-9ab8e8141fa7","e622c465-ee29-4445-8260-1f3431e06587","{""participantId"":""B095D63E18E04650A7E10E6806C48E62"",""assignmentId"":""4ea2e9f2-77b5-4a00-8024-9ab8e8141fa7"",""projectId"":""e622c465-ee29-4445-8260-1f3431e06587""}","https://test12345.live/?participantId=B095D63E18E04650A7E10E6806C48E62&assignmentId=4ea2e9f2-77b5-4a00-8024-9ab8e8141fa7&projectId=e622c465-ee29-4445-8260-1f3431e06587","","null","<div style=""display: flex; justify-content: center; align-items: center;"">
                    <img src=""images/semantic/semantic_series_7/semantic_series_7_c.jpg"" style=""width: 300px; height: 300px;"" />
                  </div>","null","",""
"","","","","","html-keyboard-response","44","150090","0.0-32.0-3.0","B095D63E18E04650A7E10E6806C48E62","B095D63E18E04650A7E10E6806C48E62","4ea2e9f2-77b5-4a00-8024-9ab8e8141fa7","e622c465-ee29-4445-8260-1f3431e06587","{""participantId"":""B095D63E18E04650A7E10E6806C48E62"",""assignmentId"":""4ea2e9f2-77b5-4a00-8024-9ab8e8141fa7"",""projectId"":""e622c465-ee29-4445-8260-1f3431e06587""}","https://test12345.live/?participantId=B095D63E18E04650A7E10E6806C48E62&assignmentId=4ea2e9f2-77b5-4a00-8024-9ab8e8141fa7&projectId=e622c465-ee29-4445-8260-1f3431e06587","","null","<div style=""display: flex; justify-content: center; align-items: center;"">
                    <img src=""images/semantic/semantic_series_7/semantic_series_7_d.jpg"" style=""width: 300px; height: 300px;"" />
                  </div>","null","",""
"","","","","","html-button-response","45","151762","0.0-33.0","B095D63E18E04650A7E10E6806C48E62","B095D63E18E04650A7E10E6806C48E62","4ea2e9f2-77b5-4a00-8024-9ab8e8141fa7","e622c465-ee29-4445-8260-1f3431e06587","{""participantId"":""B095D63E18E04650A7E10E6806C48E62"",""assignmentId"":""4ea2e9f2-77b5-4a00-8024-9ab8e8141fa7"",""projectId"":""e622c465-ee29-4445-8260-1f3431e06587""}","https://test12345.live/?participantId=B095D63E18E04650A7E10E6806C48E62&assignmentId=4ea2e9f2-77b5-4a00-8024-9ab8e8141fa7&projectId=e622c465-ee29-4445-8260-1f3431e06587","","1671","Was there a person in the picture?","1","",""
"","","","","","survey-likert","46","153554","0.0-34.0","B095D63E18E04650A7E10E6806C48E62","B095D63E18E04650A7E10E6806C48E62","4ea2e9f2-77b5-4a00-8024-9ab8e8141fa7","e622c465-ee29-4445-8260-1f3431e06587","{""participantId"":""B095D63E18E04650A7E10E6806C48E62"",""assignmentId"":""4ea2e9f2-77b5-4a00-8024-9ab8e8141fa7"",""projectId"":""e622c465-ee29-4445-8260-1f3431e06587""}","https://test12345.live/?participantId=B095D63E18E04650A7E10E6806C48E62&assignmentId=4ea2e9f2-77b5-4a00-8024-9ab8e8141fa7&projectId=e622c465-ee29-4445-8260-1f3431e06587","","1791","","{""Q0"":1}","","[0]"
"","","","","","html-button-response","47","155443","0.0-35.0","B095D63E18E04650A7E10E6806C48E62","B095D63E18E04650A7E10E6806C48E62","4ea2e9f2-77b5-4a00-8024-9ab8e8141fa7","e622c465-ee29-4445-8260-1f3431e06587","{""participantId"":""B095D63E18E04650A7E10E6806C48E62"",""assignmentId"":""4ea2e9f2-77b5-4a00-8024-9ab8e8141fa7"",""projectId"":""e622c465-ee29-4445-8260-1f3431e06587""}","https://test12345.live/?participantId=B095D63E18E04650A7E10E6806C48E62&assignmentId=4ea2e9f2-77b5-4a00-8024-9ab8e8141fa7&projectId=e622c465-ee29-4445-8260-1f3431e06587","","1889","
    <div style=""display: flex; justify-content: center; align-items: center;"">
      <img src=""images/blue_deck_1.png"" style=""width: 300px; height: 300px; margin-right: 10px;"" />
      <img src=""images/red_deck_2.png"" style=""width: 300px; height: 300px;"" />
    </div>","0","0",""
"","","","","","html-keyboard-response","48","158452","0.0-36.0-0.0","B095D63E18E04650A7E10E6806C48E62","B095D63E18E04650A7E10E6806C48E62","4ea2e9f2-77b5-4a00-8024-9ab8e8141fa7","e622c465-ee29-4445-8260-1f3431e06587","{""participantId"":""B095D63E18E04650A7E10E6806C48E62"",""assignmentId"":""4ea2e9f2-77b5-4a00-8024-9ab8e8141fa7"",""projectId"":""e622c465-ee29-4445-8260-1f3431e06587""}","https://test12345.live/?participantId=B095D63E18E04650A7E10E6806C48E62&assignmentId=4ea2e9f2-77b5-4a00-8024-9ab8e8141fa7&projectId=e622c465-ee29-4445-8260-1f3431e06587","","null","<div style=""display: flex; justify-content: center; align-items: center;"">
                    <img src=""images/causal/causal_series_13/causal_series_13_a.jpg"" style=""width: 300px; height: 300px;"" />
                  </div>","null","",""
"","","","","","html-keyboard-response","49","161457","0.0-36.0-1.0","B095D63E18E04650A7E10E6806C48E62","B095D63E18E04650A7E10E6806C48E62","4ea2e9f2-77b5-4a00-8024-9ab8e8141fa7","e622c465-ee29-4445-8260-1f3431e06587","{""participantId"":""B095D63E18E04650A7E10E6806C48E62"",""assignmentId"":""4ea2e9f2-77b5-4a00-8024-9ab8e8141fa7"",""projectId"":""e622c465-ee29-4445-8260-1f3431e06587""}","https://test12345.live/?participantId=B095D63E18E04650A7E10E6806C48E62&assignmentId=4ea2e9f2-77b5-4a00-8024-9ab8e8141fa7&projectId=e622c465-ee29-4445-8260-1f3431e06587","","null","<div style=""display: flex; justify-content: center; align-items: center;"">
                    <img src=""images/causal/causal_series_13/causal_series_13_b.jpg"" style=""width: 300px; height: 300px;"" />
                  </div>","null","",""
"","","","","","html-keyboard-response","50","164461","0.0-36.0-2.0","B095D63E18E04650A7E10E6806C48E62","B095D63E18E04650A7E10E6806C48E62","4ea2e9f2-77b5-4a00-8024-9ab8e8141fa7","e622c465-ee29-4445-8260-1f3431e06587","{""participantId"":""B095D63E18E04650A7E10E6806C48E62"",""assignmentId"":""4ea2e9f2-77b5-4a00-8024-9ab8e8141fa7"",""projectId"":""e622c465-ee29-4445-8260-1f3431e06587""}","https://test12345.live/?participantId=B095D63E18E04650A7E10E6806C48E62&assignmentId=4ea2e9f2-77b5-4a00-8024-9ab8e8141fa7&projectId=e622c465-ee29-4445-8260-1f3431e06587","","null","<div style=""display: flex; justify-content: center; align-items: center;"">
                    <img src=""images/causal/causal_series_13/causal_series_13_c.jpg"" style=""width: 300px; height: 300px;"" />
                  </div>","null","",""
"","","","","","html-keyboard-response","51","167464","0.0-36.0-3.0","B095D63E18E04650A7E10E6806C48E62","B095D63E18E04650A7E10E6806C48E62","4ea2e9f2-77b5-4a00-8024-9ab8e8141fa7","e622c465-ee29-4445-8260-1f3431e06587","{""participantId"":""B095D63E18E04650A7E10E6806C48E62"",""assignmentId"":""4ea2e9f2-77b5-4a00-8024-9ab8e8141fa7"",""projectId"":""e622c465-ee29-4445-8260-1f3431e06587""}","https://test12345.live/?participantId=B095D63E18E04650A7E10E6806C48E62&assignmentId=4ea2e9f2-77b5-4a00-8024-9ab8e8141fa7&projectId=e622c465-ee29-4445-8260-1f3431e06587","","null","<div style=""display: flex; justify-content: center; align-items: center;"">
                    <img src=""images/causal/causal_series_13/causal_series_13_d.jpg"" style=""width: 300px; height: 300px;"" />
                  </div>","null","",""
"","","","","","html-button-response","52","168949","0.0-38.0","B095D63E18E04650A7E10E6806C48E62","B095D63E18E04650A7E10E6806C48E62","4ea2e9f2-77b5-4a00-8024-9ab8e8141fa7","e622c465-ee29-4445-8260-1f3431e06587","{""participantId"":""B095D63E18E04650A7E10E6806C48E62"",""assignmentId"":""4ea2e9f2-77b5-4a00-8024-9ab8e8141fa7"",""projectId"":""e622c465-ee29-4445-8260-1f3431e06587""}","https://test12345.live/?participantId=B095D63E18E04650A7E10E6806C48E62&assignmentId=4ea2e9f2-77b5-4a00-8024-9ab8e8141fa7&projectId=e622c465-ee29-4445-8260-1f3431e06587","","1484","Was there a person in the picture?","0","",""
"","","","","","survey-likert","53","170481","0.0-39.0","B095D63E18E04650A7E10E6806C48E62","B095D63E18E04650A7E10E6806C48E62","4ea2e9f2-77b5-4a00-8024-9ab8e8141fa7","e622c465-ee29-4445-8260-1f3431e06587","{""participantId"":""B095D63E18E04650A7E10E6806C48E62"",""assignmentId"":""4ea2e9f2-77b5-4a00-8024-9ab8e8141fa7"",""projectId"":""e622c465-ee29-4445-8260-1f3431e06587""}","https://test12345.live/?participantId=B095D63E18E04650A7E10E6806C48E62&assignmentId=4ea2e9f2-77b5-4a00-8024-9ab8e8141fa7&projectId=e622c465-ee29-4445-8260-1f3431e06587","","1531","","{""Q0"":2}","","[0]"
"","","","","","html-button-response","54","172225","0.0-40.0","B095D63E18E04650A7E10E6806C48E62","B095D63E18E04650A7E10E6806C48E62","4ea2e9f2-77b5-4a00-8024-9ab8e8141fa7","e622c465-ee29-4445-8260-1f3431e06587","{""participantId"":""B095D63E18E04650A7E10E6806C48E62"",""assignmentId"":""4ea2e9f2-77b5-4a00-8024-9ab8e8141fa7"",""projectId"":""e622c465-ee29-4445-8260-1f3431e06587""}","https://test12345.live/?participantId=B095D63E18E04650A7E10E6806C48E62&assignmentId=4ea2e9f2-77b5-4a00-8024-9ab8e8141fa7&projectId=e622c465-ee29-4445-8260-1f3431e06587","","1743","
    <div style=""display: flex; justify-content: center; align-items: center;"">
      <img src=""images/blue_deck_1.png"" style=""width: 300px; height: 300px; margin-right: 10px;"" />
      <img src=""images/red_deck_2.png"" style=""width: 300px; height: 300px;"" />
    </div>","0","0",""
"","","","","","html-keyboard-response","55","175228","0.0-41.0-0.0","B095D63E18E04650A7E10E6806C48E62","B095D63E18E04650A7E10E6806C48E62","4ea2e9f2-77b5-4a00-8024-9ab8e8141fa7","e622c465-ee29-4445-8260-1f3431e06587","{""participantId"":""B095D63E18E04650A7E10E6806C48E62"",""assignmentId"":""4ea2e9f2-77b5-4a00-8024-9ab8e8141fa7"",""projectId"":""e622c465-ee29-4445-8260-1f3431e06587""}","https://test12345.live/?participantId=B095D63E18E04650A7E10E6806C48E62&assignmentId=4ea2e9f2-77b5-4a00-8024-9ab8e8141fa7&projectId=e622c465-ee29-4445-8260-1f3431e06587","","null","<div style=""display: flex; justify-content: center; align-items: center;"">
                    <img src=""images/causal/causal_series_3/causal_series_3_a.jpg"" style=""width: 300px; height: 300px;"" />
                  </div>","null","",""
"","","","","","html-keyboard-response","56","178231","0.0-41.0-1.0","B095D63E18E04650A7E10E6806C48E62","B095D63E18E04650A7E10E6806C48E62","4ea2e9f2-77b5-4a00-8024-9ab8e8141fa7","e622c465-ee29-4445-8260-1f3431e06587","{""participantId"":""B095D63E18E04650A7E10E6806C48E62"",""assignmentId"":""4ea2e9f2-77b5-4a00-8024-9ab8e8141fa7"",""projectId"":""e622c465-ee29-4445-8260-1f3431e06587""}","https://test12345.live/?participantId=B095D63E18E04650A7E10E6806C48E62&assignmentId=4ea2e9f2-77b5-4a00-8024-9ab8e8141fa7&projectId=e622c465-ee29-4445-8260-1f3431e06587","","null","<div style=""display: flex; justify-content: center; align-items: center;"">
                    <img src=""images/causal/causal_series_3/causal_series_3_b.jpg"" style=""width: 300px; height: 300px;"" />
                  </div>","null","",""
"","","","","","html-keyboard-response","57","181235","0.0-41.0-2.0","B095D63E18E04650A7E10E6806C48E62","B095D63E18E04650A7E10E6806C48E62","4ea2e9f2-77b5-4a00-8024-9ab8e8141fa7","e622c465-ee29-4445-8260-1f3431e06587","{""participantId"":""B095D63E18E04650A7E10E6806C48E62"",""assignmentId"":""4ea2e9f2-77b5-4a00-8024-9ab8e8141fa7"",""projectId"":""e622c465-ee29-4445-8260-1f3431e06587""}","https://test12345.live/?participantId=B095D63E18E04650A7E10E6806C48E62&assignmentId=4ea2e9f2-77b5-4a00-8024-9ab8e8141fa7&projectId=e622c465-ee29-4445-8260-1f3431e06587","","null","<div style=""display: flex; justify-content: center; align-items: center;"">
                    <img src=""images/causal/causal_series_3/causal_series_3_c.jpg"" style=""width: 300px; height: 300px;"" />
                  </div>","null","",""
"","","","","","html-keyboard-response","58","184239","0.0-41.0-3.0","B095D63E18E04650A7E10E6806C48E62","B095D63E18E04650A7E10E6806C48E62","4ea2e9f2-77b5-4a00-8024-9ab8e8141fa7","e622c465-ee29-4445-8260-1f3431e06587","{""participantId"":""B095D63E18E04650A7E10E6806C48E62"",""assignmentId"":""4ea2e9f2-77b5-4a00-8024-9ab8e8141fa7"",""projectId"":""e622c465-ee29-4445-8260-1f3431e06587""}","https://test12345.live/?participantId=B095D63E18E04650A7E10E6806C48E62&assignmentId=4ea2e9f2-77b5-4a00-8024-9ab8e8141fa7&projectId=e622c465-ee29-4445-8260-1f3431e06587","","null","<div style=""display: flex; justify-content: center; align-items: center;"">
                    <img src=""images/causal/causal_series_3/causal_series_3_d.jpg"" style=""width: 300px; height: 300px;"" />
                  </div>","null","",""
"","","","","","html-button-response","59","185073","0.0-43.0","B095D63E18E04650A7E10E6806C48E62","B095D63E18E04650A7E10E6806C48E62","4ea2e9f2-77b5-4a00-8024-9ab8e8141fa7","e622c465-ee29-4445-8260-1f3431e06587","{""participantId"":""B095D63E18E04650A7E10E6806C48E62"",""assignmentId"":""4ea2e9f2-77b5-4a00-8024-9ab8e8141fa7"",""projectId"":""e622c465-ee29-4445-8260-1f3431e06587""}","https://test12345.live/?participantId=B095D63E18E04650A7E10E6806C48E62&assignmentId=4ea2e9f2-77b5-4a00-8024-9ab8e8141fa7&projectId=e622c465-ee29-4445-8260-1f3431e06587","","833","Was there a person in the picture?","0","",""
"","","","","","survey-likert","60","186918","0.0-44.0","B095D63E18E04650A7E10E6806C48E62","B095D63E18E04650A7E10E6806C48E62","4ea2e9f2-77b5-4a00-8024-9ab8e8141fa7","e622c465-ee29-4445-8260-1f3431e06587","{""participantId"":""B095D63E18E04650A7E10E6806C48E62"",""assignmentId"":""4ea2e9f2-77b5-4a00-8024-9ab8e8141fa7"",""projectId"":""e622c465-ee29-4445-8260-1f3431e06587""}","https://test12345.live/?participantId=B095D63E18E04650A7E10E6806C48E62&assignmentId=4ea2e9f2-77b5-4a00-8024-9ab8e8141fa7&projectId=e622c465-ee29-4445-8260-1f3431e06587","","1845","","{""Q0"":3}","","[0]"
"","","","","","html-button-response","61","188510","0.0-45.0","B095D63E18E04650A7E10E6806C48E62","B095D63E18E04650A7E10E6806C48E62","4ea2e9f2-77b5-4a00-8024-9ab8e8141fa7","e622c465-ee29-4445-8260-1f3431e06587","{""participantId"":""B095D63E18E04650A7E10E6806C48E62"",""assignmentId"":""4ea2e9f2-77b5-4a00-8024-9ab8e8141fa7"",""projectId"":""e622c465-ee29-4445-8260-1f3431e06587""}","https://test12345.live/?participantId=B095D63E18E04650A7E10E6806C48E62&assignmentId=4ea2e9f2-77b5-4a00-8024-9ab8e8141fa7&projectId=e622c465-ee29-4445-8260-1f3431e06587","","1591","
    <div style=""display: flex; justify-content: center; align-items: center;"">
      <img src=""images/blue_deck_1.png"" style=""width: 300px; height: 300px; margin-right: 10px;"" />
      <img src=""images/red_deck_2.png"" style=""width: 300px; height: 300px;"" />
    </div>","0","0",""
"","","","","","html-keyboard-response","62","191524","0.0-46.0-0.0","B095D63E18E04650A7E10E6806C48E62","B095D63E18E04650A7E10E6806C48E62","4ea2e9f2-77b5-4a00-8024-9ab8e8141fa7","e622c465-ee29-4445-8260-1f3431e06587","{""participantId"":""B095D63E18E04650A7E10E6806C48E62"",""assignmentId"":""4ea2e9f2-77b5-4a00-8024-9ab8e8141fa7"",""projectId"":""e622c465-ee29-4445-8260-1f3431e06587""}","https://test12345.live/?participantId=B095D63E18E04650A7E10E6806C48E62&assignmentId=4ea2e9f2-77b5-4a00-8024-9ab8e8141fa7&projectId=e622c465-ee29-4445-8260-1f3431e06587","","null","<div style=""display: flex; justify-content: center; align-items: center;"">
                    <img src=""images/causal/causal_series_18/causal_series_18_a.jpg"" style=""width: 300px; height: 300px;"" />
                  </div>","null","",""
"","","","","","html-keyboard-response","63","194529","0.0-46.0-1.0","B095D63E18E04650A7E10E6806C48E62","B095D63E18E04650A7E10E6806C48E62","4ea2e9f2-77b5-4a00-8024-9ab8e8141fa7","e622c465-ee29-4445-8260-1f3431e06587","{""participantId"":""B095D63E18E04650A7E10E6806C48E62"",""assignmentId"":""4ea2e9f2-77b5-4a00-8024-9ab8e8141fa7"",""projectId"":""e622c465-ee29-4445-8260-1f3431e06587""}","https://test12345.live/?participantId=B095D63E18E04650A7E10E6806C48E62&assignmentId=4ea2e9f2-77b5-4a00-8024-9ab8e8141fa7&projectId=e622c465-ee29-4445-8260-1f3431e06587","","null","<div style=""display: flex; justify-content: center; align-items: center;"">
                    <img src=""images/causal/causal_series_18/causal_series_18_b.jpg"" style=""width: 300px; height: 300px;"" />
                  </div>","null","",""
"","","","","","html-keyboard-response","64","197534","0.0-46.0-2.0","B095D63E18E04650A7E10E6806C48E62","B095D63E18E04650A7E10E6806C48E62","4ea2e9f2-77b5-4a00-8024-9ab8e8141fa7","e622c465-ee29-4445-8260-1f3431e06587","{""participantId"":""B095D63E18E04650A7E10E6806C48E62"",""assignmentId"":""4ea2e9f2-77b5-4a00-8024-9ab8e8141fa7"",""projectId"":""e622c465-ee29-4445-8260-1f3431e06587""}","https://test12345.live/?participantId=B095D63E18E04650A7E10E6806C48E62&assignmentId=4ea2e9f2-77b5-4a00-8024-9ab8e8141fa7&projectId=e622c465-ee29-4445-8260-1f3431e06587","","null","<div style=""display: flex; justify-content: center; align-items: center;"">
                    <img src=""images/causal/causal_series_18/causal_series_18_c.jpg"" style=""width: 300px; height: 300px;"" />
                  </div>","null","",""
"","","","","","html-keyboard-response","65","200537","0.0-46.0-3.0","B095D63E18E04650A7E10E6806C48E62","B095D63E18E04650A7E10E6806C48E62","4ea2e9f2-77b5-4a00-8024-9ab8e8141fa7","e622c465-ee29-4445-8260-1f3431e06587","{""participantId"":""B095D63E18E04650A7E10E6806C48E62"",""assignmentId"":""4ea2e9f2-77b5-4a00-8024-9ab8e8141fa7"",""projectId"":""e622c465-ee29-4445-8260-1f3431e06587""}","https://test12345.live/?participantId=B095D63E18E04650A7E10E6806C48E62&assignmentId=4ea2e9f2-77b5-4a00-8024-9ab8e8141fa7&projectId=e622c465-ee29-4445-8260-1f3431e06587","","null","<div style=""display: flex; justify-content: center; align-items: center;"">
                    <img src=""images/causal/causal_series_18/causal_series_18_d.jpg"" style=""width: 300px; height: 300px;"" />
                  </div>","null","",""
"","","","","","html-button-response","66","202556","0.0-48.0","B095D63E18E04650A7E10E6806C48E62","B095D63E18E04650A7E10E6806C48E62","4ea2e9f2-77b5-4a00-8024-9ab8e8141fa7","e622c465-ee29-4445-8260-1f3431e06587","{""participantId"":""B095D63E18E04650A7E10E6806C48E62"",""assignmentId"":""4ea2e9f2-77b5-4a00-8024-9ab8e8141fa7"",""projectId"":""e622c465-ee29-4445-8260-1f3431e06587""}","https://test12345.live/?participantId=B095D63E18E04650A7E10E6806C48E62&assignmentId=4ea2e9f2-77b5-4a00-8024-9ab8e8141fa7&projectId=e622c465-ee29-4445-8260-1f3431e06587","","2018","Was there a person in the picture?","1","",""
"","","","","","survey-likert","67","205139","0.0-49.0","B095D63E18E04650A7E10E6806C48E62","B095D63E18E04650A7E10E6806C48E62","4ea2e9f2-77b5-4a00-8024-9ab8e8141fa7","e622c465-ee29-4445-8260-1f3431e06587","{""participantId"":""B095D63E18E04650A7E10E6806C48E62"",""assignmentId"":""4ea2e9f2-77b5-4a00-8024-9ab8e8141fa7"",""projectId"":""e622c465-ee29-4445-8260-1f3431e06587""}","https://test12345.live/?participantId=B095D63E18E04650A7E10E6806C48E62&assignmentId=4ea2e9f2-77b5-4a00-8024-9ab8e8141fa7&projectId=e622c465-ee29-4445-8260-1f3431e06587","","2583","","{""Q0"":2}","","[0]"
"","","","","","html-button-response","68","206353","0.0-50.0","B095D63E18E04650A7E10E6806C48E62","B095D63E18E04650A7E10E6806C48E62","4ea2e9f2-77b5-4a00-8024-9ab8e8141fa7","e622c465-ee29-4445-8260-1f3431e06587","{""participantId"":""B095D63E18E04650A7E10E6806C48E62"",""assignmentId"":""4ea2e9f2-77b5-4a00-8024-9ab8e8141fa7"",""projectId"":""e622c465-ee29-4445-8260-1f3431e06587""}","https://test12345.live/?participantId=B095D63E18E04650A7E10E6806C48E62&assignmentId=4ea2e9f2-77b5-4a00-8024-9ab8e8141fa7&projectId=e622c465-ee29-4445-8260-1f3431e06587","","1213","
    <div style=""display: flex; justify-content: center; align-items: center;"">
      <img src=""images/blue_deck_1.png"" style=""width: 300px; height: 300px; margin-right: 10px;"" />
      <img src=""images/red_deck_2.png"" style=""width: 300px; height: 300px;"" />
    </div>","1","1",""
"","","","","","html-keyboard-response","69","209362","0.0-52.0-0.0","B095D63E18E04650A7E10E6806C48E62","B095D63E18E04650A7E10E6806C48E62","4ea2e9f2-77b5-4a00-8024-9ab8e8141fa7","e622c465-ee29-4445-8260-1f3431e06587","{""participantId"":""B095D63E18E04650A7E10E6806C48E62"",""assignmentId"":""4ea2e9f2-77b5-4a00-8024-9ab8e8141fa7"",""projectId"":""e622c465-ee29-4445-8260-1f3431e06587""}","https://test12345.live/?participantId=B095D63E18E04650A7E10E6806C48E62&assignmentId=4ea2e9f2-77b5-4a00-8024-9ab8e8141fa7&projectId=e622c465-ee29-4445-8260-1f3431e06587","","null","<div style=""display: flex; justify-content: center; align-items: center;"">
                    <img src=""images/semantic/semantic_series_12/semantic_series_12_a.jpg"" style=""width: 300px; height: 300px;"" />
                  </div>","null","",""
"","","","","","html-keyboard-response","70","212367","0.0-52.0-1.0","B095D63E18E04650A7E10E6806C48E62","B095D63E18E04650A7E10E6806C48E62","4ea2e9f2-77b5-4a00-8024-9ab8e8141fa7","e622c465-ee29-4445-8260-1f3431e06587","{""participantId"":""B095D63E18E04650A7E10E6806C48E62"",""assignmentId"":""4ea2e9f2-77b5-4a00-8024-9ab8e8141fa7"",""projectId"":""e622c465-ee29-4445-8260-1f3431e06587""}","https://test12345.live/?participantId=B095D63E18E04650A7E10E6806C48E62&assignmentId=4ea2e9f2-77b5-4a00-8024-9ab8e8141fa7&projectId=e622c465-ee29-4445-8260-1f3431e06587","","null","<div style=""display: flex; justify-content: center; align-items: center;"">
                    <img src=""images/semantic/semantic_series_12/semantic_series_12_b.jpg"" style=""width: 300px; height: 300px;"" />
                  </div>","null","",""
"","","","","","html-keyboard-response","71","215383","0.0-52.0-2.0","B095D63E18E04650A7E10E6806C48E62","B095D63E18E04650A7E10E6806C48E62","4ea2e9f2-77b5-4a00-8024-9ab8e8141fa7","e622c465-ee29-4445-8260-1f3431e06587","{""participantId"":""B095D63E18E04650A7E10E6806C48E62"",""assignmentId"":""4ea2e9f2-77b5-4a00-8024-9ab8e8141fa7"",""projectId"":""e622c465-ee29-4445-8260-1f3431e06587""}","https://test12345.live/?participantId=B095D63E18E04650A7E10E6806C48E62&assignmentId=4ea2e9f2-77b5-4a00-8024-9ab8e8141fa7&projectId=e622c465-ee29-4445-8260-1f3431e06587","","null","<div style=""display: flex; justify-content: center; align-items: center;"">
                    <img src=""images/semantic/semantic_series_12/semantic_series_12_c.jpg"" style=""width: 300px; height: 300px;"" />
                  </div>","null","",""
"","","","","","html-keyboard-response","72","218393","0.0-52.0-3.0","B095D63E18E04650A7E10E6806C48E62","B095D63E18E04650A7E10E6806C48E62","4ea2e9f2-77b5-4a00-8024-9ab8e8141fa7","e622c465-ee29-4445-8260-1f3431e06587","{""participantId"":""B095D63E18E04650A7E10E6806C48E62"",""assignmentId"":""4ea2e9f2-77b5-4a00-8024-9ab8e8141fa7"",""projectId"":""e622c465-ee29-4445-8260-1f3431e06587""}","https://test12345.live/?participantId=B095D63E18E04650A7E10E6806C48E62&assignmentId=4ea2e9f2-77b5-4a00-8024-9ab8e8141fa7&projectId=e622c465-ee29-4445-8260-1f3431e06587","","null","<div style=""display: flex; justify-content: center; align-items: center;"">
                    <img src=""images/semantic/semantic_series_12/semantic_series_12_d.jpg"" style=""width: 300px; height: 300px;"" />
                  </div>","null","",""
"","","","","","html-button-response","73","219260","0.0-53.0","B095D63E18E04650A7E10E6806C48E62","B095D63E18E04650A7E10E6806C48E62","4ea2e9f2-77b5-4a00-8024-9ab8e8141fa7","e622c465-ee29-4445-8260-1f3431e06587","{""participantId"":""B095D63E18E04650A7E10E6806C48E62"",""assignmentId"":""4ea2e9f2-77b5-4a00-8024-9ab8e8141fa7"",""projectId"":""e622c465-ee29-4445-8260-1f3431e06587""}","https://test12345.live/?participantId=B095D63E18E04650A7E10E6806C48E62&assignmentId=4ea2e9f2-77b5-4a00-8024-9ab8e8141fa7&projectId=e622c465-ee29-4445-8260-1f3431e06587","","867","Was there a person in the picture?","1","",""
"","","","","","survey-likert","74","221133","0.0-54.0","B095D63E18E04650A7E10E6806C48E62","B095D63E18E04650A7E10E6806C48E62","4ea2e9f2-77b5-4a00-8024-9ab8e8141fa7","e622c465-ee29-4445-8260-1f3431e06587","{""participantId"":""B095D63E18E04650A7E10E6806C48E62"",""assignmentId"":""4ea2e9f2-77b5-4a00-8024-9ab8e8141fa7"",""projectId"":""e622c465-ee29-4445-8260-1f3431e06587""}","https://test12345.live/?participantId=B095D63E18E04650A7E10E6806C48E62&assignmentId=4ea2e9f2-77b5-4a00-8024-9ab8e8141fa7&projectId=e622c465-ee29-4445-8260-1f3431e06587","","1871","","{""Q0"":2}","","[0]"
"","","","","","html-button-response","75","223613","0.0-55.0","B095D63E18E04650A7E10E6806C48E62","B095D63E18E04650A7E10E6806C48E62","4ea2e9f2-77b5-4a00-8024-9ab8e8141fa7","e622c465-ee29-4445-8260-1f3431e06587","{""participantId"":""B095D63E18E04650A7E10E6806C48E62"",""assignmentId"":""4ea2e9f2-77b5-4a00-8024-9ab8e8141fa7"",""projectId"":""e622c465-ee29-4445-8260-1f3431e06587""}","https://test12345.live/?participantId=B095D63E18E04650A7E10E6806C48E62&assignmentId=4ea2e9f2-77b5-4a00-8024-9ab8e8141fa7&projectId=e622c465-ee29-4445-8260-1f3431e06587","","2479","
    <div style=""display: flex; justify-content: center; align-items: center;"">
      <img src=""images/blue_deck_1.png"" style=""width: 300px; height: 300px; margin-right: 10px;"" />
      <img src=""images/red_deck_2.png"" style=""width: 300px; height: 300px;"" />
    </div>","1","1",""
"","","","","","html-keyboard-response","76","226625","0.0-57.0-0.0","B095D63E18E04650A7E10E6806C48E62","B095D63E18E04650A7E10E6806C48E62","4ea2e9f2-77b5-4a00-8024-9ab8e8141fa7","e622c465-ee29-4445-8260-1f3431e06587","{""participantId"":""B095D63E18E04650A7E10E6806C48E62"",""assignmentId"":""4ea2e9f2-77b5-4a00-8024-9ab8e8141fa7"",""projectId"":""e622c465-ee29-4445-8260-1f3431e06587""}","https://test12345.live/?participantId=B095D63E18E04650A7E10E6806C48E62&assignmentId=4ea2e9f2-77b5-4a00-8024-9ab8e8141fa7&projectId=e622c465-ee29-4445-8260-1f3431e06587","","null","<div style=""display: flex; justify-content: center; align-items: center;"">
                    <img src=""images/semantic/semantic_series_1/semantic_series_1_a.jpg"" style=""width: 300px; height: 300px;"" />
                  </div>","null","",""
"","","","","","html-keyboard-response","77","229629","0.0-57.0-1.0","B095D63E18E04650A7E10E6806C48E62","B095D63E18E04650A7E10E6806C48E62","4ea2e9f2-77b5-4a00-8024-9ab8e8141fa7","e622c465-ee29-4445-8260-1f3431e06587","{""participantId"":""B095D63E18E04650A7E10E6806C48E62"",""assignmentId"":""4ea2e9f2-77b5-4a00-8024-9ab8e8141fa7"",""projectId"":""e622c465-ee29-4445-8260-1f3431e06587""}","https://test12345.live/?participantId=B095D63E18E04650A7E10E6806C48E62&assignmentId=4ea2e9f2-77b5-4a00-8024-9ab8e8141fa7&projectId=e622c465-ee29-4445-8260-1f3431e06587","","null","<div style=""display: flex; justify-content: center; align-items: center;"">
                    <img src=""images/semantic/semantic_series_1/semantic_series_1_b.jpg"" style=""width: 300px; height: 300px;"" />
                  </div>","null","",""
"","","","","","html-keyboard-response","78","232634","0.0-57.0-2.0","B095D63E18E04650A7E10E6806C48E62","B095D63E18E04650A7E10E6806C48E62","4ea2e9f2-77b5-4a00-8024-9ab8e8141fa7","e622c465-ee29-4445-8260-1f3431e06587","{""participantId"":""B095D63E18E04650A7E10E6806C48E62"",""assignmentId"":""4ea2e9f2-77b5-4a00-8024-9ab8e8141fa7"",""projectId"":""e622c465-ee29-4445-8260-1f3431e06587""}","https://test12345.live/?participantId=B095D63E18E04650A7E10E6806C48E62&assignmentId=4ea2e9f2-77b5-4a00-8024-9ab8e8141fa7&projectId=e622c465-ee29-4445-8260-1f3431e06587","","null","<div style=""display: flex; justify-content: center; align-items: center;"">
                    <img src=""images/semantic/semantic_series_1/semantic_series_1_c.jpg"" style=""width: 300px; height: 300px;"" />
                  </div>","null","",""
"","","","","","html-keyboard-response","79","235640","0.0-57.0-3.0","B095D63E18E04650A7E10E6806C48E62","B095D63E18E04650A7E10E6806C48E62","4ea2e9f2-77b5-4a00-8024-9ab8e8141fa7","e622c465-ee29-4445-8260-1f3431e06587","{""participantId"":""B095D63E18E04650A7E10E6806C48E62"",""assignmentId"":""4ea2e9f2-77b5-4a00-8024-9ab8e8141fa7"",""projectId"":""e622c465-ee29-4445-8260-1f3431e06587""}","https://test12345.live/?participantId=B095D63E18E04650A7E10E6806C48E62&assignmentId=4ea2e9f2-77b5-4a00-8024-9ab8e8141fa7&projectId=e622c465-ee29-4445-8260-1f3431e06587","","null","<div style=""display: flex; justify-content: center; align-items: center;"">
                    <img src=""images/semantic/semantic_series_1/semantic_series_1_d.jpg"" style=""width: 300px; height: 300px;"" />
                  </div>","null","",""
"","","","","","html-button-response","80","238056","0.0-58.0","B095D63E18E04650A7E10E6806C48E62","B095D63E18E04650A7E10E6806C48E62","4ea2e9f2-77b5-4a00-8024-9ab8e8141fa7","e622c465-ee29-4445-8260-1f3431e06587","{""participantId"":""B095D63E18E04650A7E10E6806C48E62"",""assignmentId"":""4ea2e9f2-77b5-4a00-8024-9ab8e8141fa7"",""projectId"":""e622c465-ee29-4445-8260-1f3431e06587""}","https://test12345.live/?participantId=B095D63E18E04650A7E10E6806C48E62&assignmentId=4ea2e9f2-77b5-4a00-8024-9ab8e8141fa7&projectId=e622c465-ee29-4445-8260-1f3431e06587","","2415","Was there a person in the picture?","0","",""
"","","","","","survey-likert","81","239208","0.0-59.0","B095D63E18E04650A7E10E6806C48E62","B095D63E18E04650A7E10E6806C48E62","4ea2e9f2-77b5-4a00-8024-9ab8e8141fa7","e622c465-ee29-4445-8260-1f3431e06587","{""participantId"":""B095D63E18E04650A7E10E6806C48E62"",""assignmentId"":""4ea2e9f2-77b5-4a00-8024-9ab8e8141fa7"",""projectId"":""e622c465-ee29-4445-8260-1f3431e06587""}","https://test12345.live/?participantId=B095D63E18E04650A7E10E6806C48E62&assignmentId=4ea2e9f2-77b5-4a00-8024-9ab8e8141fa7&projectId=e622c465-ee29-4445-8260-1f3431e06587","","1151","","{""Q0"":1}","","[0]"
"","","","","","html-button-response","82","240171","0.0-60.0","B095D63E18E04650A7E10E6806C48E62","B095D63E18E04650A7E10E6806C48E62","4ea2e9f2-77b5-4a00-8024-9ab8e8141fa7","e622c465-ee29-4445-8260-1f3431e06587","{""participantId"":""B095D63E18E04650A7E10E6806C48E62"",""assignmentId"":""4ea2e9f2-77b5-4a00-8024-9ab8e8141fa7"",""projectId"":""e622c465-ee29-4445-8260-1f3431e06587""}","https://test12345.live/?participantId=B095D63E18E04650A7E10E6806C48E62&assignmentId=4ea2e9f2-77b5-4a00-8024-9ab8e8141fa7&projectId=e622c465-ee29-4445-8260-1f3431e06587","","962","
    <div style=""display: flex; justify-content: center; align-items: center;"">
      <img src=""images/blue_deck_1.png"" style=""width: 300px; height: 300px; margin-right: 10px;"" />
      <img src=""images/red_deck_2.png"" style=""width: 300px; height: 300px;"" />
    </div>","0","0",""
"","","","","","html-keyboard-response","83","243179","0.0-61.0-0.0","B095D63E18E04650A7E10E6806C48E62","B095D63E18E04650A7E10E6806C48E62","4ea2e9f2-77b5-4a00-8024-9ab8e8141fa7","e622c465-ee29-4445-8260-1f3431e06587","{""participantId"":""B095D63E18E04650A7E10E6806C48E62"",""assignmentId"":""4ea2e9f2-77b5-4a00-8024-9ab8e8141fa7"",""projectId"":""e622c465-ee29-4445-8260-1f3431e06587""}","https://test12345.live/?participantId=B095D63E18E04650A7E10E6806C48E62&assignmentId=4ea2e9f2-77b5-4a00-8024-9ab8e8141fa7&projectId=e622c465-ee29-4445-8260-1f3431e06587","","null","<div style=""display: flex; justify-content: center; align-items: center;"">
                    <img src=""images/causal/causal_series_9/causal_series_9_a.jpg"" style=""width: 300px; height: 300px;"" />
                  </div>","null","",""
"","","","","","html-keyboard-response","84","246186","0.0-61.0-1.0","B095D63E18E04650A7E10E6806C48E62","B095D63E18E04650A7E10E6806C48E62","4ea2e9f2-77b5-4a00-8024-9ab8e8141fa7","e622c465-ee29-4445-8260-1f3431e06587","{""participantId"":""B095D63E18E04650A7E10E6806C48E62"",""assignmentId"":""4ea2e9f2-77b5-4a00-8024-9ab8e8141fa7"",""projectId"":""e622c465-ee29-4445-8260-1f3431e06587""}","https://test12345.live/?participantId=B095D63E18E04650A7E10E6806C48E62&assignmentId=4ea2e9f2-77b5-4a00-8024-9ab8e8141fa7&projectId=e622c465-ee29-4445-8260-1f3431e06587","","null","<div style=""display: flex; justify-content: center; align-items: center;"">
                    <img src=""images/causal/causal_series_9/causal_series_9_b.jpg"" style=""width: 300px; height: 300px;"" />
                  </div>","null","",""
"","","","","","html-keyboard-response","85","249197","0.0-61.0-2.0","B095D63E18E04650A7E10E6806C48E62","B095D63E18E04650A7E10E6806C48E62","4ea2e9f2-77b5-4a00-8024-9ab8e8141fa7","e622c465-ee29-4445-8260-1f3431e06587","{""participantId"":""B095D63E18E04650A7E10E6806C48E62"",""assignmentId"":""4ea2e9f2-77b5-4a00-8024-9ab8e8141fa7"",""projectId"":""e622c465-ee29-4445-8260-1f3431e06587""}","https://test12345.live/?participantId=B095D63E18E04650A7E10E6806C48E62&assignmentId=4ea2e9f2-77b5-4a00-8024-9ab8e8141fa7&projectId=e622c465-ee29-4445-8260-1f3431e06587","","null","<div style=""display: flex; justify-content: center; align-items: center;"">
                    <img src=""images/causal/causal_series_9/causal_series_9_c.jpg"" style=""width: 300px; height: 300px;"" />
                  </div>","null","",""
"","","","","","html-keyboard-response","86","252200","0.0-61.0-3.0","B095D63E18E04650A7E10E6806C48E62","B095D63E18E04650A7E10E6806C48E62","4ea2e9f2-77b5-4a00-8024-9ab8e8141fa7","e622c465-ee29-4445-8260-1f3431e06587","{""participantId"":""B095D63E18E04650A7E10E6806C48E62"",""assignmentId"":""4ea2e9f2-77b5-4a00-8024-9ab8e8141fa7"",""projectId"":""e622c465-ee29-4445-8260-1f3431e06587""}","https://test12345.live/?participantId=B095D63E18E04650A7E10E6806C48E62&assignmentId=4ea2e9f2-77b5-4a00-8024-9ab8e8141fa7&projectId=e622c465-ee29-4445-8260-1f3431e06587","","null","<div style=""display: flex; justify-content: center; align-items: center;"">
                    <img src=""images/causal/causal_series_9/causal_series_9_d.jpg"" style=""width: 300px; height: 300px;"" />
                  </div>","null","",""
"","","","","","html-button-response","87","253959","0.0-63.0","B095D63E18E04650A7E10E6806C48E62","B095D63E18E04650A7E10E6806C48E62","4ea2e9f2-77b5-4a00-8024-9ab8e8141fa7","e622c465-ee29-4445-8260-1f3431e06587","{""participantId"":""B095D63E18E04650A7E10E6806C48E62"",""assignmentId"":""4ea2e9f2-77b5-4a00-8024-9ab8e8141fa7"",""projectId"":""e622c465-ee29-4445-8260-1f3431e06587""}","https://test12345.live/?participantId=B095D63E18E04650A7E10E6806C48E62&assignmentId=4ea2e9f2-77b5-4a00-8024-9ab8e8141fa7&projectId=e622c465-ee29-4445-8260-1f3431e06587","","1760","Was there a person in the picture?","1","",""
"","","","","","survey-likert","88","255242","0.0-64.0","B095D63E18E04650A7E10E6806C48E62","B095D63E18E04650A7E10E6806C48E62","4ea2e9f2-77b5-4a00-8024-9ab8e8141fa7","e622c465-ee29-4445-8260-1f3431e06587","{""participantId"":""B095D63E18E04650A7E10E6806C48E62"",""assignmentId"":""4ea2e9f2-77b5-4a00-8024-9ab8e8141fa7"",""projectId"":""e622c465-ee29-4445-8260-1f3431e06587""}","https://test12345.live/?participantId=B095D63E18E04650A7E10E6806C48E62&assignmentId=4ea2e9f2-77b5-4a00-8024-9ab8e8141fa7&projectId=e622c465-ee29-4445-8260-1f3431e06587","","1281","","{""Q0"":1}","","[0]"
"","","","","","html-button-response","89","256432","0.0-65.0","B095D63E18E04650A7E10E6806C48E62","B095D63E18E04650A7E10E6806C48E62","4ea2e9f2-77b5-4a00-8024-9ab8e8141fa7","e622c465-ee29-4445-8260-1f3431e06587","{""participantId"":""B095D63E18E04650A7E10E6806C48E62"",""assignmentId"":""4ea2e9f2-77b5-4a00-8024-9ab8e8141fa7"",""projectId"":""e622c465-ee29-4445-8260-1f3431e06587""}","https://test12345.live/?participantId=B095D63E18E04650A7E10E6806C48E62&assignmentId=4ea2e9f2-77b5-4a00-8024-9ab8e8141fa7&projectId=e622c465-ee29-4445-8260-1f3431e06587","","1190","
    <div style=""display: flex; justify-content: center; align-items: center;"">
      <img src=""images/blue_deck_1.png"" style=""width: 300px; height: 300px; margin-right: 10px;"" />
      <img src=""images/red_deck_2.png"" style=""width: 300px; height: 300px;"" />
    </div>","0","0",""
"","","","","","html-keyboard-response","90","259441","0.0-66.0-0.0","B095D63E18E04650A7E10E6806C48E62","B095D63E18E04650A7E10E6806C48E62","4ea2e9f2-77b5-4a00-8024-9ab8e8141fa7","e622c465-ee29-4445-8260-1f3431e06587","{""participantId"":""B095D63E18E04650A7E10E6806C48E62"",""assignmentId"":""4ea2e9f2-77b5-4a00-8024-9ab8e8141fa7"",""projectId"":""e622c465-ee29-4445-8260-1f3431e06587""}","https://test12345.live/?participantId=B095D63E18E04650A7E10E6806C48E62&assignmentId=4ea2e9f2-77b5-4a00-8024-9ab8e8141fa7&projectId=e622c465-ee29-4445-8260-1f3431e06587","","null","<div style=""display: flex; justify-content: center; align-items: center;"">
                    <img src=""images/causal/causal_series_17/causal_series_17_a.jpg"" style=""width: 300px; height: 300px;"" />
                  </div>","null","",""
"","","","","","html-keyboard-response","91","262454","0.0-66.0-1.0","B095D63E18E04650A7E10E6806C48E62","B095D63E18E04650A7E10E6806C48E62","4ea2e9f2-77b5-4a00-8024-9ab8e8141fa7","e622c465-ee29-4445-8260-1f3431e06587","{""participantId"":""B095D63E18E04650A7E10E6806C48E62"",""assignmentId"":""4ea2e9f2-77b5-4a00-8024-9ab8e8141fa7"",""projectId"":""e622c465-ee29-4445-8260-1f3431e06587""}","https://test12345.live/?participantId=B095D63E18E04650A7E10E6806C48E62&assignmentId=4ea2e9f2-77b5-4a00-8024-9ab8e8141fa7&projectId=e622c465-ee29-4445-8260-1f3431e06587","","null","<div style=""display: flex; justify-content: center; align-items: center;"">
                    <img src=""images/causal/causal_series_17/causal_series_17_b.jpg"" style=""width: 300px; height: 300px;"" />
                  </div>","null","",""
"","","","","","html-keyboard-response","92","265465","0.0-66.0-2.0","B095D63E18E04650A7E10E6806C48E62","B095D63E18E04650A7E10E6806C48E62","4ea2e9f2-77b5-4a00-8024-9ab8e8141fa7","e622c465-ee29-4445-8260-1f3431e06587","{""participantId"":""B095D63E18E04650A7E10E6806C48E62"",""assignmentId"":""4ea2e9f2-77b5-4a00-8024-9ab8e8141fa7"",""projectId"":""e622c465-ee29-4445-8260-1f3431e06587""}","https://test12345.live/?participantId=B095D63E18E04650A7E10E6806C48E62&assignmentId=4ea2e9f2-77b5-4a00-8024-9ab8e8141fa7&projectId=e622c465-ee29-4445-8260-1f3431e06587","","null","<div style=""display: flex; justify-content: center; align-items: center;"">
                    <img src=""images/causal/causal_series_17/causal_series_17_c.jpg"" style=""width: 300px; height: 300px;"" />
                  </div>","null","",""
"","","","","","html-keyboard-response","93","268473","0.0-66.0-3.0","B095D63E18E04650A7E10E6806C48E62","B095D63E18E04650A7E10E6806C48E62","4ea2e9f2-77b5-4a00-8024-9ab8e8141fa7","e622c465-ee29-4445-8260-1f3431e06587","{""participantId"":""B095D63E18E04650A7E10E6806C48E62"",""assignmentId"":""4ea2e9f2-77b5-4a00-8024-9ab8e8141fa7"",""projectId"":""e622c465-ee29-4445-8260-1f3431e06587""}","https://test12345.live/?participantId=B095D63E18E04650A7E10E6806C48E62&assignmentId=4ea2e9f2-77b5-4a00-8024-9ab8e8141fa7&projectId=e622c465-ee29-4445-8260-1f3431e06587","","null","<div style=""display: flex; justify-content: center; align-items: center;"">
                    <img src=""images/causal/causal_series_17/causal_series_17_d.jpg"" style=""width: 300px; height: 300px;"" />
                  </div>","null","",""
"","","","","","html-button-response","94","270268","0.0-68.0","B095D63E18E04650A7E10E6806C48E62","B095D63E18E04650A7E10E6806C48E62","4ea2e9f2-77b5-4a00-8024-9ab8e8141fa7","e622c465-ee29-4445-8260-1f3431e06587","{""participantId"":""B095D63E18E04650A7E10E6806C48E62"",""assignmentId"":""4ea2e9f2-77b5-4a00-8024-9ab8e8141fa7"",""projectId"":""e622c465-ee29-4445-8260-1f3431e06587""}","https://test12345.live/?participantId=B095D63E18E04650A7E10E6806C48E62&assignmentId=4ea2e9f2-77b5-4a00-8024-9ab8e8141fa7&projectId=e622c465-ee29-4445-8260-1f3431e06587","","1794","Was there a person in the picture?","0","",""
"","","","","","survey-likert","95","272193","0.0-69.0","B095D63E18E04650A7E10E6806C48E62","B095D63E18E04650A7E10E6806C48E62","4ea2e9f2-77b5-4a00-8024-9ab8e8141fa7","e622c465-ee29-4445-8260-1f3431e06587","{""participantId"":""B095D63E18E04650A7E10E6806C48E62"",""assignmentId"":""4ea2e9f2-77b5-4a00-8024-9ab8e8141fa7"",""projectId"":""e622c465-ee29-4445-8260-1f3431e06587""}","https://test12345.live/?participantId=B095D63E18E04650A7E10E6806C48E62&assignmentId=4ea2e9f2-77b5-4a00-8024-9ab8e8141fa7&projectId=e622c465-ee29-4445-8260-1f3431e06587","","1924","","{""Q0"":2}","","[0]"
"","","","","","html-button-response","96","273080","0.0-70.0","B095D63E18E04650A7E10E6806C48E62","B095D63E18E04650A7E10E6806C48E62","4ea2e9f2-77b5-4a00-8024-9ab8e8141fa7","e622c465-ee29-4445-8260-1f3431e06587","{""participantId"":""B095D63E18E04650A7E10E6806C48E62"",""assignmentId"":""4ea2e9f2-77b5-4a00-8024-9ab8e8141fa7"",""projectId"":""e622c465-ee29-4445-8260-1f3431e06587""}","https://test12345.live/?participantId=B095D63E18E04650A7E10E6806C48E62&assignmentId=4ea2e9f2-77b5-4a00-8024-9ab8e8141fa7&projectId=e622c465-ee29-4445-8260-1f3431e06587","","887","
    <div style=""display: flex; justify-content: center; align-items: center;"">
      <img src=""images/blue_deck_1.png"" style=""width: 300px; height: 300px; margin-right: 10px;"" />
      <img src=""images/red_deck_2.png"" style=""width: 300px; height: 300px;"" />
    </div>","1","1",""
"","","","","","html-keyboard-response","97","276091","0.0-72.0-0.0","B095D63E18E04650A7E10E6806C48E62","B095D63E18E04650A7E10E6806C48E62","4ea2e9f2-77b5-4a00-8024-9ab8e8141fa7","e622c465-ee29-4445-8260-1f3431e06587","{""participantId"":""B095D63E18E04650A7E10E6806C48E62"",""assignmentId"":""4ea2e9f2-77b5-4a00-8024-9ab8e8141fa7"",""projectId"":""e622c465-ee29-4445-8260-1f3431e06587""}","https://test12345.live/?participantId=B095D63E18E04650A7E10E6806C48E62&assignmentId=4ea2e9f2-77b5-4a00-8024-9ab8e8141fa7&projectId=e622c465-ee29-4445-8260-1f3431e06587","","null","<div style=""display: flex; justify-content: center; align-items: center;"">
                    <img src=""images/semantic/semantic_series_14/semantic_series_14_a.jpg"" style=""width: 300px; height: 300px;"" />
                  </div>","null","",""
"","","","","","html-keyboard-response","98","279094","0.0-72.0-1.0","B095D63E18E04650A7E10E6806C48E62","B095D63E18E04650A7E10E6806C48E62","4ea2e9f2-77b5-4a00-8024-9ab8e8141fa7","e622c465-ee29-4445-8260-1f3431e06587","{""participantId"":""B095D63E18E04650A7E10E6806C48E62"",""assignmentId"":""4ea2e9f2-77b5-4a00-8024-9ab8e8141fa7"",""projectId"":""e622c465-ee29-4445-8260-1f3431e06587""}","https://test12345.live/?participantId=B095D63E18E04650A7E10E6806C48E62&assignmentId=4ea2e9f2-77b5-4a00-8024-9ab8e8141fa7&projectId=e622c465-ee29-4445-8260-1f3431e06587","","null","<div style=""display: flex; justify-content: center; align-items: center;"">
                    <img src=""images/semantic/semantic_series_14/semantic_series_14_b.jpg"" style=""width: 300px; height: 300px;"" />
                  </div>","null","",""
"","","","","","html-keyboard-response","99","282106","0.0-72.0-2.0","B095D63E18E04650A7E10E6806C48E62","B095D63E18E04650A7E10E6806C48E62","4ea2e9f2-77b5-4a00-8024-9ab8e8141fa7","e622c465-ee29-4445-8260-1f3431e06587","{""participantId"":""B095D63E18E04650A7E10E6806C48E62"",""assignmentId"":""4ea2e9f2-77b5-4a00-8024-9ab8e8141fa7"",""projectId"":""e622c465-ee29-4445-8260-1f3431e06587""}","https://test12345.live/?participantId=B095D63E18E04650A7E10E6806C48E62&assignmentId=4ea2e9f2-77b5-4a00-8024-9ab8e8141fa7&projectId=e622c465-ee29-4445-8260-1f3431e06587","","null","<div style=""display: flex; justify-content: center; align-items: center;"">
                    <img src=""images/semantic/semantic_series_14/semantic_series_14_c.jpg"" style=""width: 300px; height: 300px;"" />
                  </div>","null","",""
"","","","","","html-keyboard-response","100","285115","0.0-72.0-3.0","B095D63E18E04650A7E10E6806C48E62","B095D63E18E04650A7E10E6806C48E62","4ea2e9f2-77b5-4a00-8024-9ab8e8141fa7","e622c465-ee29-4445-8260-1f3431e06587","{""participantId"":""B095D63E18E04650A7E10E6806C48E62"",""assignmentId"":""4ea2e9f2-77b5-4a00-8024-9ab8e8141fa7"",""projectId"":""e622c465-ee29-4445-8260-1f3431e06587""}","https://test12345.live/?participantId=B095D63E18E04650A7E10E6806C48E62&assignmentId=4ea2e9f2-77b5-4a00-8024-9ab8e8141fa7&projectId=e622c465-ee29-4445-8260-1f3431e06587","","null","<div style=""display: flex; justify-content: center; align-items: center;"">
                    <img src=""images/semantic/semantic_series_14/semantic_series_14_d.jpg"" style=""width: 300px; height: 300px;"" />
                  </div>","null","",""
"","","","","","html-button-response","101","286793","0.0-73.0","B095D63E18E04650A7E10E6806C48E62","B095D63E18E04650A7E10E6806C48E62","4ea2e9f2-77b5-4a00-8024-9ab8e8141fa7","e622c465-ee29-4445-8260-1f3431e06587","{""participantId"":""B095D63E18E04650A7E10E6806C48E62"",""assignmentId"":""4ea2e9f2-77b5-4a00-8024-9ab8e8141fa7"",""projectId"":""e622c465-ee29-4445-8260-1f3431e06587""}","https://test12345.live/?participantId=B095D63E18E04650A7E10E6806C48E62&assignmentId=4ea2e9f2-77b5-4a00-8024-9ab8e8141fa7&projectId=e622c465-ee29-4445-8260-1f3431e06587","","1677","Was there a person in the picture?","0","",""
"","","","","","survey-likert","102","288535","0.0-74.0","B095D63E18E04650A7E10E6806C48E62","B095D63E18E04650A7E10E6806C48E62","4ea2e9f2-77b5-4a00-8024-9ab8e8141fa7","e622c465-ee29-4445-8260-1f3431e06587","{""participantId"":""B095D63E18E04650A7E10E6806C48E62"",""assignmentId"":""4ea2e9f2-77b5-4a00-8024-9ab8e8141fa7"",""projectId"":""e622c465-ee29-4445-8260-1f3431e06587""}","https://test12345.live/?participantId=B095D63E18E04650A7E10E6806C48E62&assignmentId=4ea2e9f2-77b5-4a00-8024-9ab8e8141fa7&projectId=e622c465-ee29-4445-8260-1f3431e06587","","1741","","{""Q0"":3}","","[0]"
"","","","","","html-button-response","103","289884","0.0-75.0","B095D63E18E04650A7E10E6806C48E62","B095D63E18E04650A7E10E6806C48E62","4ea2e9f2-77b5-4a00-8024-9ab8e8141fa7","e622c465-ee29-4445-8260-1f3431e06587","{""participantId"":""B095D63E18E04650A7E10E6806C48E62"",""assignmentId"":""4ea2e9f2-77b5-4a00-8024-9ab8e8141fa7"",""projectId"":""e622c465-ee29-4445-8260-1f3431e06587""}","https://test12345.live/?participantId=B095D63E18E04650A7E10E6806C48E62&assignmentId=4ea2e9f2-77b5-4a00-8024-9ab8e8141fa7&projectId=e622c465-ee29-4445-8260-1f3431e06587","","1348","
    <div style=""display: flex; justify-content: center; align-items: center;"">
      <img src=""images/blue_deck_1.png"" style=""width: 300px; height: 300px; margin-right: 10px;"" />
      <img src=""images/red_deck_2.png"" style=""width: 300px; height: 300px;"" />
    </div>","1","1",""
"","","","","","html-keyboard-response","104","292900","0.0-77.0-0.0","B095D63E18E04650A7E10E6806C48E62","B095D63E18E04650A7E10E6806C48E62","4ea2e9f2-77b5-4a00-8024-9ab8e8141fa7","e622c465-ee29-4445-8260-1f3431e06587","{""participantId"":""B095D63E18E04650A7E10E6806C48E62"",""assignmentId"":""4ea2e9f2-77b5-4a00-8024-9ab8e8141fa7"",""projectId"":""e622c465-ee29-4445-8260-1f3431e06587""}","https://test12345.live/?participantId=B095D63E18E04650A7E10E6806C48E62&assignmentId=4ea2e9f2-77b5-4a00-8024-9ab8e8141fa7&projectId=e622c465-ee29-4445-8260-1f3431e06587","","null","<div style=""display: flex; justify-content: center; align-items: center;"">
                    <img src=""images/semantic/semantic_series_5/semantic_series_5_a.jpg"" style=""width: 300px; height: 300px;"" />
                  </div>","null","",""
"","","","","","html-keyboard-response","105","295907","0.0-77.0-1.0","B095D63E18E04650A7E10E6806C48E62","B095D63E18E04650A7E10E6806C48E62","4ea2e9f2-77b5-4a00-8024-9ab8e8141fa7","e622c465-ee29-4445-8260-1f3431e06587","{""participantId"":""B095D63E18E04650A7E10E6806C48E62"",""assignmentId"":""4ea2e9f2-77b5-4a00-8024-9ab8e8141fa7"",""projectId"":""e622c465-ee29-4445-8260-1f3431e06587""}","https://test12345.live/?participantId=B095D63E18E04650A7E10E6806C48E62&assignmentId=4ea2e9f2-77b5-4a00-8024-9ab8e8141fa7&projectId=e622c465-ee29-4445-8260-1f3431e06587","","null","<div style=""display: flex; justify-content: center; align-items: center;"">
                    <img src=""images/semantic/semantic_series_5/semantic_series_5_b.jpg"" style=""width: 300px; height: 300px;"" />
                  </div>","null","",""
"","","","","","html-keyboard-response","106","298911","0.0-77.0-2.0","B095D63E18E04650A7E10E6806C48E62","B095D63E18E04650A7E10E6806C48E62","4ea2e9f2-77b5-4a00-8024-9ab8e8141fa7","e622c465-ee29-4445-8260-1f3431e06587","{""participantId"":""B095D63E18E04650A7E10E6806C48E62"",""assignmentId"":""4ea2e9f2-77b5-4a00-8024-9ab8e8141fa7"",""projectId"":""e622c465-ee29-4445-8260-1f3431e06587""}","https://test12345.live/?participantId=B095D63E18E04650A7E10E6806C48E62&assignmentId=4ea2e9f2-77b5-4a00-8024-9ab8e8141fa7&projectId=e622c465-ee29-4445-8260-1f3431e06587","","null","<div style=""display: flex; justify-content: center; align-items: center;"">
                    <img src=""images/semantic/semantic_series_5/semantic_series_5_c.jpg"" style=""width: 300px; height: 300px;"" />
                  </div>","null","",""
"","","","","","html-keyboard-response","107","301914","0.0-77.0-3.0","B095D63E18E04650A7E10E6806C48E62","B095D63E18E04650A7E10E6806C48E62","4ea2e9f2-77b5-4a00-8024-9ab8e8141fa7","e622c465-ee29-4445-8260-1f3431e06587","{""participantId"":""B095D63E18E04650A7E10E6806C48E62"",""assignmentId"":""4ea2e9f2-77b5-4a00-8024-9ab8e8141fa7"",""projectId"":""e622c465-ee29-4445-8260-1f3431e06587""}","https://test12345.live/?participantId=B095D63E18E04650A7E10E6806C48E62&assignmentId=4ea2e9f2-77b5-4a00-8024-9ab8e8141fa7&projectId=e622c465-ee29-4445-8260-1f3431e06587","","null","<div style=""display: flex; justify-content: center; align-items: center;"">
                    <img src=""images/semantic/semantic_series_5/semantic_series_5_d.jpg"" style=""width: 300px; height: 300px;"" />
                  </div>","null","",""
"","","","","","html-button-response","108","303731","0.0-78.0","B095D63E18E04650A7E10E6806C48E62","B095D63E18E04650A7E10E6806C48E62","4ea2e9f2-77b5-4a00-8024-9ab8e8141fa7","e622c465-ee29-4445-8260-1f3431e06587","{""participantId"":""B095D63E18E04650A7E10E6806C48E62"",""assignmentId"":""4ea2e9f2-77b5-4a00-8024-9ab8e8141fa7"",""projectId"":""e622c465-ee29-4445-8260-1f3431e06587""}","https://test12345.live/?participantId=B095D63E18E04650A7E10E6806C48E62&assignmentId=4ea2e9f2-77b5-4a00-8024-9ab8e8141fa7&projectId=e622c465-ee29-4445-8260-1f3431e06587","","1816","Was there a person in the picture?","0","",""
"","","","","","survey-likert","109","305196","0.0-79.0","B095D63E18E04650A7E10E6806C48E62","B095D63E18E04650A7E10E6806C48E62","4ea2e9f2-77b5-4a00-8024-9ab8e8141fa7","e622c465-ee29-4445-8260-1f3431e06587","{""participantId"":""B095D63E18E04650A7E10E6806C48E62"",""assignmentId"":""4ea2e9f2-77b5-4a00-8024-9ab8e8141fa7"",""projectId"":""e622c465-ee29-4445-8260-1f3431e06587""}","https://test12345.live/?participantId=B095D63E18E04650A7E10E6806C48E62&assignmentId=4ea2e9f2-77b5-4a00-8024-9ab8e8141fa7&projectId=e622c465-ee29-4445-8260-1f3431e06587","","1465","","{""Q0"":1}","","[0]"
"","","","","","html-button-response","110","306227","0.0-80.0","B095D63E18E04650A7E10E6806C48E62","B095D63E18E04650A7E10E6806C48E62","4ea2e9f2-77b5-4a00-8024-9ab8e8141fa7","e622c465-ee29-4445-8260-1f3431e06587","{""participantId"":""B095D63E18E04650A7E10E6806C48E62"",""assignmentId"":""4ea2e9f2-77b5-4a00-8024-9ab8e8141fa7"",""projectId"":""e622c465-ee29-4445-8260-1f3431e06587""}","https://test12345.live/?participantId=B095D63E18E04650A7E10E6806C48E62&assignmentId=4ea2e9f2-77b5-4a00-8024-9ab8e8141fa7&projectId=e622c465-ee29-4445-8260-1f3431e06587","","1030","
    <div style=""display: flex; justify-content: center; align-items: center;"">
      <img src=""images/blue_deck_1.png"" style=""width: 300px; height: 300px; margin-right: 10px;"" />
      <img src=""images/red_deck_2.png"" style=""width: 300px; height: 300px;"" />
    </div>","1","1",""
"","","","","","html-keyboard-response","111","309241","0.0-82.0-0.0","B095D63E18E04650A7E10E6806C48E62","B095D63E18E04650A7E10E6806C48E62","4ea2e9f2-77b5-4a00-8024-9ab8e8141fa7","e622c465-ee29-4445-8260-1f3431e06587","{""participantId"":""B095D63E18E04650A7E10E6806C48E62"",""assignmentId"":""4ea2e9f2-77b5-4a00-8024-9ab8e8141fa7"",""projectId"":""e622c465-ee29-4445-8260-1f3431e06587""}","https://test12345.live/?participantId=B095D63E18E04650A7E10E6806C48E62&assignmentId=4ea2e9f2-77b5-4a00-8024-9ab8e8141fa7&projectId=e622c465-ee29-4445-8260-1f3431e06587","","null","<div style=""display: flex; justify-content: center; align-items: center;"">
                    <img src=""images/semantic/semantic_series_8/semantic_series_8_a.jpg"" style=""width: 300px; height: 300px;"" />
                  </div>","null","",""
"","","","","","html-keyboard-response","112","312253","0.0-82.0-1.0","B095D63E18E04650A7E10E6806C48E62","B095D63E18E04650A7E10E6806C48E62","4ea2e9f2-77b5-4a00-8024-9ab8e8141fa7","e622c465-ee29-4445-8260-1f3431e06587","{""participantId"":""B095D63E18E04650A7E10E6806C48E62"",""assignmentId"":""4ea2e9f2-77b5-4a00-8024-9ab8e8141fa7"",""projectId"":""e622c465-ee29-4445-8260-1f3431e06587""}","https://test12345.live/?participantId=B095D63E18E04650A7E10E6806C48E62&assignmentId=4ea2e9f2-77b5-4a00-8024-9ab8e8141fa7&projectId=e622c465-ee29-4445-8260-1f3431e06587","","null","<div style=""display: flex; justify-content: center; align-items: center;"">
                    <img src=""images/semantic/semantic_series_8/semantic_series_8_b.jpg"" style=""width: 300px; height: 300px;"" />
                  </div>","null","",""
"","","","","","html-keyboard-response","113","315266","0.0-82.0-2.0","B095D63E18E04650A7E10E6806C48E62","B095D63E18E04650A7E10E6806C48E62","4ea2e9f2-77b5-4a00-8024-9ab8e8141fa7","e622c465-ee29-4445-8260-1f3431e06587","{""participantId"":""B095D63E18E04650A7E10E6806C48E62"",""assignmentId"":""4ea2e9f2-77b5-4a00-8024-9ab8e8141fa7"",""projectId"":""e622c465-ee29-4445-8260-1f3431e06587""}","https://test12345.live/?participantId=B095D63E18E04650A7E10E6806C48E62&assignmentId=4ea2e9f2-77b5-4a00-8024-9ab8e8141fa7&projectId=e622c465-ee29-4445-8260-1f3431e06587","","null","<div style=""display: flex; justify-content: center; align-items: center;"">
                    <img src=""images/semantic/semantic_series_8/semantic_series_8_c.jpg"" style=""width: 300px; height: 300px;"" />
                  </div>","null","",""
"","","","","","html-keyboard-response","114","318269","0.0-82.0-3.0","B095D63E18E04650A7E10E6806C48E62","B095D63E18E04650A7E10E6806C48E62","4ea2e9f2-77b5-4a00-8024-9ab8e8141fa7","e622c465-ee29-4445-8260-1f3431e06587","{""participantId"":""B095D63E18E04650A7E10E6806C48E62"",""assignmentId"":""4ea2e9f2-77b5-4a00-8024-9ab8e8141fa7"",""projectId"":""e622c465-ee29-4445-8260-1f3431e06587""}","https://test12345.live/?participantId=B095D63E18E04650A7E10E6806C48E62&assignmentId=4ea2e9f2-77b5-4a00-8024-9ab8e8141fa7&projectId=e622c465-ee29-4445-8260-1f3431e06587","","null","<div style=""display: flex; justify-content: center; align-items: center;"">
                    <img src=""images/semantic/semantic_series_8/semantic_series_8_d.jpg"" style=""width: 300px; height: 300px;"" />
                  </div>","null","",""
"","","","","","html-button-response","115","319315","0.0-83.0","B095D63E18E04650A7E10E6806C48E62","B095D63E18E04650A7E10E6806C48E62","4ea2e9f2-77b5-4a00-8024-9ab8e8141fa7","e622c465-ee29-4445-8260-1f3431e06587","{""participantId"":""B095D63E18E04650A7E10E6806C48E62"",""assignmentId"":""4ea2e9f2-77b5-4a00-8024-9ab8e8141fa7"",""projectId"":""e622c465-ee29-4445-8260-1f3431e06587""}","https://test12345.live/?participantId=B095D63E18E04650A7E10E6806C48E62&assignmentId=4ea2e9f2-77b5-4a00-8024-9ab8e8141fa7&projectId=e622c465-ee29-4445-8260-1f3431e06587","","1045","Was there a person in the picture?","1","",""
"","","","","","survey-likert","116","320812","0.0-84.0","B095D63E18E04650A7E10E6806C48E62","B095D63E18E04650A7E10E6806C48E62","4ea2e9f2-77b5-4a00-8024-9ab8e8141fa7","e622c465-ee29-4445-8260-1f3431e06587","{""participantId"":""B095D63E18E04650A7E10E6806C48E62"",""assignmentId"":""4ea2e9f2-77b5-4a00-8024-9ab8e8141fa7"",""projectId"":""e622c465-ee29-4445-8260-1f3431e06587""}","https://test12345.live/?participantId=B095D63E18E04650A7E10E6806C48E62&assignmentId=4ea2e9f2-77b5-4a00-8024-9ab8e8141fa7&projectId=e622c465-ee29-4445-8260-1f3431e06587","","1495","","{""Q0"":1}","","[0]"
"","","","","","html-button-response","117","321648","0.0-85.0","B095D63E18E04650A7E10E6806C48E62","B095D63E18E04650A7E10E6806C48E62","4ea2e9f2-77b5-4a00-8024-9ab8e8141fa7","e622c465-ee29-4445-8260-1f3431e06587","{""participantId"":""B095D63E18E04650A7E10E6806C48E62"",""assignmentId"":""4ea2e9f2-77b5-4a00-8024-9ab8e8141fa7"",""projectId"":""e622c465-ee29-4445-8260-1f3431e06587""}","https://test12345.live/?participantId=B095D63E18E04650A7E10E6806C48E62&assignmentId=4ea2e9f2-77b5-4a00-8024-9ab8e8141fa7&projectId=e622c465-ee29-4445-8260-1f3431e06587","","835","
    <div style=""display: flex; justify-content: center; align-items: center;"">
      <img src=""images/blue_deck_1.png"" style=""width: 300px; height: 300px; margin-right: 10px;"" />
      <img src=""images/red_deck_2.png"" style=""width: 300px; height: 300px;"" />
    </div>","0","0",""
"","","","","","html-keyboard-response","118","324661","0.0-86.0-0.0","B095D63E18E04650A7E10E6806C48E62","B095D63E18E04650A7E10E6806C48E62","4ea2e9f2-77b5-4a00-8024-9ab8e8141fa7","e622c465-ee29-4445-8260-1f3431e06587","{""participantId"":""B095D63E18E04650A7E10E6806C48E62"",""assignmentId"":""4ea2e9f2-77b5-4a00-8024-9ab8e8141fa7"",""projectId"":""e622c465-ee29-4445-8260-1f3431e06587""}","https://test12345.live/?participantId=B095D63E18E04650A7E10E6806C48E62&assignmentId=4ea2e9f2-77b5-4a00-8024-9ab8e8141fa7&projectId=e622c465-ee29-4445-8260-1f3431e06587","","null","<div style=""display: flex; justify-content: center; align-items: center;"">
                    <img src=""images/causal/causal_series_14/causal_series_14_a.jpg"" style=""width: 300px; height: 300px;"" />
                  </div>","null","",""
"","","","","","html-keyboard-response","119","327674","0.0-86.0-1.0","B095D63E18E04650A7E10E6806C48E62","B095D63E18E04650A7E10E6806C48E62","4ea2e9f2-77b5-4a00-8024-9ab8e8141fa7","e622c465-ee29-4445-8260-1f3431e06587","{""participantId"":""B095D63E18E04650A7E10E6806C48E62"",""assignmentId"":""4ea2e9f2-77b5-4a00-8024-9ab8e8141fa7"",""projectId"":""e622c465-ee29-4445-8260-1f3431e06587""}","https://test12345.live/?participantId=B095D63E18E04650A7E10E6806C48E62&assignmentId=4ea2e9f2-77b5-4a00-8024-9ab8e8141fa7&projectId=e622c465-ee29-4445-8260-1f3431e06587","","null","<div style=""display: flex; justify-content: center; align-items: center;"">
                    <img src=""images/causal/causal_series_14/causal_series_14_b.jpg"" style=""width: 300px; height: 300px;"" />
                  </div>","null","",""
"","","","","","html-keyboard-response","120","330681","0.0-86.0-2.0","B095D63E18E04650A7E10E6806C48E62","B095D63E18E04650A7E10E6806C48E62","4ea2e9f2-77b5-4a00-8024-9ab8e8141fa7","e622c465-ee29-4445-8260-1f3431e06587","{""participantId"":""B095D63E18E04650A7E10E6806C48E62"",""assignmentId"":""4ea2e9f2-77b5-4a00-8024-9ab8e8141fa7"",""projectId"":""e622c465-ee29-4445-8260-1f3431e06587""}","https://test12345.live/?participantId=B095D63E18E04650A7E10E6806C48E62&assignmentId=4ea2e9f2-77b5-4a00-8024-9ab8e8141fa7&projectId=e622c465-ee29-4445-8260-1f3431e06587","","null","<div style=""display: flex; justify-content: center; align-items: center;"">
                    <img src=""images/causal/causal_series_14/causal_series_14_c.jpg"" style=""width: 300px; height: 300px;"" />
                  </div>","null","",""
"","","","","","html-keyboard-response","121","333685","0.0-86.0-3.0","B095D63E18E04650A7E10E6806C48E62","B095D63E18E04650A7E10E6806C48E62","4ea2e9f2-77b5-4a00-8024-9ab8e8141fa7","e622c465-ee29-4445-8260-1f3431e06587","{""participantId"":""B095D63E18E04650A7E10E6806C48E62"",""assignmentId"":""4ea2e9f2-77b5-4a00-8024-9ab8e8141fa7"",""projectId"":""e622c465-ee29-4445-8260-1f3431e06587""}","https://test12345.live/?participantId=B095D63E18E04650A7E10E6806C48E62&assignmentId=4ea2e9f2-77b5-4a00-8024-9ab8e8141fa7&projectId=e622c465-ee29-4445-8260-1f3431e06587","","null","<div style=""display: flex; justify-content: center; align-items: center;"">
                    <img src=""images/causal/causal_series_14/causal_series_14_d.jpg"" style=""width: 300px; height: 300px;"" />
                  </div>","null","",""
"","","","","","html-button-response","122","335600","0.0-88.0","B095D63E18E04650A7E10E6806C48E62","B095D63E18E04650A7E10E6806C48E62","4ea2e9f2-77b5-4a00-8024-9ab8e8141fa7","e622c465-ee29-4445-8260-1f3431e06587","{""participantId"":""B095D63E18E04650A7E10E6806C48E62"",""assignmentId"":""4ea2e9f2-77b5-4a00-8024-9ab8e8141fa7"",""projectId"":""e622c465-ee29-4445-8260-1f3431e06587""}","https://test12345.live/?participantId=B095D63E18E04650A7E10E6806C48E62&assignmentId=4ea2e9f2-77b5-4a00-8024-9ab8e8141fa7&projectId=e622c465-ee29-4445-8260-1f3431e06587","","1915","Was there a person in the picture?","0","",""
"","","","","","survey-likert","123","337256","0.0-89.0","B095D63E18E04650A7E10E6806C48E62","B095D63E18E04650A7E10E6806C48E62","4ea2e9f2-77b5-4a00-8024-9ab8e8141fa7","e622c465-ee29-4445-8260-1f3431e06587","{""participantId"":""B095D63E18E04650A7E10E6806C48E62"",""assignmentId"":""4ea2e9f2-77b5-4a00-8024-9ab8e8141fa7"",""projectId"":""e622c465-ee29-4445-8260-1f3431e06587""}","https://test12345.live/?participantId=B095D63E18E04650A7E10E6806C48E62&assignmentId=4ea2e9f2-77b5-4a00-8024-9ab8e8141fa7&projectId=e622c465-ee29-4445-8260-1f3431e06587","","1655","","{""Q0"":2}","","[0]"
"","","","","","html-button-response","124","338298","0.0-90.0","B095D63E18E04650A7E10E6806C48E62","B095D63E18E04650A7E10E6806C48E62","4ea2e9f2-77b5-4a00-8024-9ab8e8141fa7","e622c465-ee29-4445-8260-1f3431e06587","{""participantId"":""B095D63E18E04650A7E10E6806C48E62"",""assignmentId"":""4ea2e9f2-77b5-4a00-8024-9ab8e8141fa7"",""projectId"":""e622c465-ee29-4445-8260-1f3431e06587""}","https://test12345.live/?participantId=B095D63E18E04650A7E10E6806C48E62&assignmentId=4ea2e9f2-77b5-4a00-8024-9ab8e8141fa7&projectId=e622c465-ee29-4445-8260-1f3431e06587","","1042","
    <div style=""display: flex; justify-content: center; align-items: center;"">
      <img src=""images/blue_deck_1.png"" style=""width: 300px; height: 300px; margin-right: 10px;"" />
      <img src=""images/red_deck_2.png"" style=""width: 300px; height: 300px;"" />
    </div>","1","1",""
"","","","","","html-keyboard-response","125","341304","0.0-92.0-0.0","B095D63E18E04650A7E10E6806C48E62","B095D63E18E04650A7E10E6806C48E62","4ea2e9f2-77b5-4a00-8024-9ab8e8141fa7","e622c465-ee29-4445-8260-1f3431e06587","{""participantId"":""B095D63E18E04650A7E10E6806C48E62"",""assignmentId"":""4ea2e9f2-77b5-4a00-8024-9ab8e8141fa7"",""projectId"":""e622c465-ee29-4445-8260-1f3431e06587""}","https://test12345.live/?participantId=B095D63E18E04650A7E10E6806C48E62&assignmentId=4ea2e9f2-77b5-4a00-8024-9ab8e8141fa7&projectId=e622c465-ee29-4445-8260-1f3431e06587","","null","<div style=""display: flex; justify-content: center; align-items: center;"">
                    <img src=""images/semantic/semantic_series_2/semantic_series_2_a.jpg"" style=""width: 300px; height: 300px;"" />
                  </div>","null","",""
"","","","","","html-keyboard-response","126","344310","0.0-92.0-1.0","B095D63E18E04650A7E10E6806C48E62","B095D63E18E04650A7E10E6806C48E62","4ea2e9f2-77b5-4a00-8024-9ab8e8141fa7","e622c465-ee29-4445-8260-1f3431e06587","{""participantId"":""B095D63E18E04650A7E10E6806C48E62"",""assignmentId"":""4ea2e9f2-77b5-4a00-8024-9ab8e8141fa7"",""projectId"":""e622c465-ee29-4445-8260-1f3431e06587""}","https://test12345.live/?participantId=B095D63E18E04650A7E10E6806C48E62&assignmentId=4ea2e9f2-77b5-4a00-8024-9ab8e8141fa7&projectId=e622c465-ee29-4445-8260-1f3431e06587","","null","<div style=""display: flex; justify-content: center; align-items: center;"">
                    <img src=""images/semantic/semantic_series_2/semantic_series_2_b.jpg"" style=""width: 300px; height: 300px;"" />
                  </div>","null","",""
"","","","","","html-keyboard-response","127","347319","0.0-92.0-2.0","B095D63E18E04650A7E10E6806C48E62","B095D63E18E04650A7E10E6806C48E62","4ea2e9f2-77b5-4a00-8024-9ab8e8141fa7","e622c465-ee29-4445-8260-1f3431e06587","{""participantId"":""B095D63E18E04650A7E10E6806C48E62"",""assignmentId"":""4ea2e9f2-77b5-4a00-8024-9ab8e8141fa7"",""projectId"":""e622c465-ee29-4445-8260-1f3431e06587""}","https://test12345.live/?participantId=B095D63E18E04650A7E10E6806C48E62&assignmentId=4ea2e9f2-77b5-4a00-8024-9ab8e8141fa7&projectId=e622c465-ee29-4445-8260-1f3431e06587","","null","<div style=""display: flex; justify-content: center; align-items: center;"">
                    <img src=""images/semantic/semantic_series_2/semantic_series_2_c.jpg"" style=""width: 300px; height: 300px;"" />
                  </div>","null","",""
"","","","","","html-keyboard-response","128","350324","0.0-92.0-3.0","B095D63E18E04650A7E10E6806C48E62","B095D63E18E04650A7E10E6806C48E62","4ea2e9f2-77b5-4a00-8024-9ab8e8141fa7","e622c465-ee29-4445-8260-1f3431e06587","{""participantId"":""B095D63E18E04650A7E10E6806C48E62"",""assignmentId"":""4ea2e9f2-77b5-4a00-8024-9ab8e8141fa7"",""projectId"":""e622c465-ee29-4445-8260-1f3431e06587""}","https://test12345.live/?participantId=B095D63E18E04650A7E10E6806C48E62&assignmentId=4ea2e9f2-77b5-4a00-8024-9ab8e8141fa7&projectId=e622c465-ee29-4445-8260-1f3431e06587","","null","<div style=""display: flex; justify-content: center; align-items: center;"">
                    <img src=""images/semantic/semantic_series_2/semantic_series_2_d.jpg"" style=""width: 300px; height: 300px;"" />
                  </div>","null","",""
"","","","","","html-button-response","129","352259","0.0-93.0","B095D63E18E04650A7E10E6806C48E62","B095D63E18E04650A7E10E6806C48E62","4ea2e9f2-77b5-4a00-8024-9ab8e8141fa7","e622c465-ee29-4445-8260-1f3431e06587","{""participantId"":""B095D63E18E04650A7E10E6806C48E62"",""assignmentId"":""4ea2e9f2-77b5-4a00-8024-9ab8e8141fa7"",""projectId"":""e622c465-ee29-4445-8260-1f3431e06587""}","https://test12345.live/?participantId=B095D63E18E04650A7E10E6806C48E62&assignmentId=4ea2e9f2-77b5-4a00-8024-9ab8e8141fa7&projectId=e622c465-ee29-4445-8260-1f3431e06587","","1935","Was there a person in the picture?","0","",""
"","","","","","survey-likert","130","354559","0.0-94.0","B095D63E18E04650A7E10E6806C48E62","B095D63E18E04650A7E10E6806C48E62","4ea2e9f2-77b5-4a00-8024-9ab8e8141fa7","e622c465-ee29-4445-8260-1f3431e06587","{""participantId"":""B095D63E18E04650A7E10E6806C48E62"",""assignmentId"":""4ea2e9f2-77b5-4a00-8024-9ab8e8141fa7"",""projectId"":""e622c465-ee29-4445-8260-1f3431e06587""}","https://test12345.live/?participantId=B095D63E18E04650A7E10E6806C48E62&assignmentId=4ea2e9f2-77b5-4a00-8024-9ab8e8141fa7&projectId=e622c465-ee29-4445-8260-1f3431e06587","","2301","","{""Q0"":3}","","[0]"
"","","","","","survey-text","131","363845","0.0-95.0","B095D63E18E04650A7E10E6806C48E62","B095D63E18E04650A7E10E6806C48E62","4ea2e9f2-77b5-4a00-8024-9ab8e8141fa7","e622c465-ee29-4445-8260-1f3431e06587","{""participantId"":""B095D63E18E04650A7E10E6806C48E62"",""assignmentId"":""4ea2e9f2-77b5-4a00-8024-9ab8e8141fa7"",""projectId"":""e622c465-ee29-4445-8260-1f3431e06587""}","https://test12345.live/?participantId=B095D63E18E04650A7E10E6806C48E62&assignmentId=4ea2e9f2-77b5-4a00-8024-9ab8e8141fa7&projectId=e622c465-ee29-4445-8260-1f3431e06587","","9284","","{""Q0"":""One is red, and one is blue""}","",""
