"success","timeout","failed_images","failed_audio","failed_video","trial_type","trial_index","time_elapsed","internal_node_id","subject","subject_id","study_id","session_id","urlvar","current_url","view_history","rt","stimulus","response","choice","question_order"
"true","false","[]","[]","[]","preload","0","4097","0.0-0.0","8E2474F56D8F426F800DAEB5F192BD1E","8E2474F56D8F426F800DAEB5F192BD1E","9abb3df5-30ff-48d1-bd73-e69f635f83f0","54f8d589-66fc-4c65-830f-1dcc63bce8cc","{""participantId"":""8E2474F56D8F426F800DAEB5F192BD1E"",""assignmentId"":""9abb3df5-30ff-48d1-bd73-e69f635f83f0"",""projectId"":""54f8d589-66fc-4c65-830f-1dcc63bce8cc""}","https://test12345.live/?participantId=8E2474F56D8F426F800DAEB5F192BD1E&assignmentId=9abb3df5-30ff-48d1-bd73-e69f635f83f0&projectId=54f8d589-66fc-4c65-830f-1dcc63bce8cc","","","","","",""
"","","","","","instructions","1","45973","0.0-1.0","8E2474F56D8F426F800DAEB5F192BD1E","8E2474F56D8F426F800DAEB5F192BD1E","9abb3df5-30ff-48d1-bd73-e69f635f83f0","54f8d589-66fc-4c65-830f-1dcc63bce8cc","{""participantId"":""8E2474F56D8F426F800DAEB5F192BD1E"",""assignmentId"":""9abb3df5-30ff-48d1-bd73-e69f635f83f0"",""projectId"":""54f8d589-66fc-4c65-830f-1dcc63bce8cc""}","https://test12345.live/?participantId=8E2474F56D8F426F800DAEB5F192BD1E&assignmentId=9abb3df5-30ff-48d1-bd73-e69f635f83f0&projectId=54f8d589-66fc-4c65-830f-1dcc63bce8cc","[{""page_index"":0,""viewing_time"":41875}]","41875","","","",""
"","","","","","instructions","2","75561","0.0-2.0","8E2474F56D8F426F800DAEB5F192BD1E","8E2474F56D8F426F800DAEB5F192BD1E","9abb3df5-30ff-48d1-bd73-e69f635f83f0","54f8d589-66fc-4c65-830f-1dcc63bce8cc","{""participantId"":""8E2474F56D8F426F800DAEB5F192BD1E"",""assignmentId"":""9abb3df5-30ff-48d1-bd73-e69f635f83f0"",""projectId"":""54f8d589-66fc-4c65-830f-1dcc63bce8cc""}","https://test12345.live/?participantId=8E2474F56D8F426F800DAEB5F192BD1E&assignmentId=9abb3df5-30ff-48d1-bd73-e69f635f83f0&projectId=54f8d589-66fc-4c65-830f-1dcc63bce8cc","[{""page_index"":0,""viewing_time"":29586}]","29586","","","",""
"true","","","","","fullscreen","3","79350","0.0-3.0","8E2474F56D8F426F800DAEB5F192BD1E","8E2474F56D8F426F800DAEB5F192BD1E","9abb3df5-30ff-48d1-bd73-e69f635f83f0","54f8d589-66fc-4c65-830f-1dcc63bce8cc","{""participantId"":""8E2474F56D8F426F800DAEB5F192BD1E"",""assignmentId"":""9abb3df5-30ff-48d1-bd73-e69f635f83f0"",""projectId"":""54f8d589-66fc-4c65-830f-1dcc63bce8cc""}","https://test12345.live/?participantId=8E2474F56D8F426F800DAEB5F192BD1E&assignmentId=9abb3df5-30ff-48d1-bd73-e69f635f83f0&projectId=54f8d589-66fc-4c65-830f-1dcc63bce8cc","","2785","","","",""
"","","","","","instructions","4","96365","0.0-4.0","8E2474F56D8F426F800DAEB5F192BD1E","8E2474F56D8F426F800DAEB5F192BD1E","9abb3df5-30ff-48d1-bd73-e69f635f83f0","54f8d589-66fc-4c65-830f-1dcc63bce8cc","{""participantId"":""8E2474F56D8F426F800DAEB5F192BD1E"",""assignmentId"":""9abb3df5-30ff-48d1-bd73-e69f635f83f0"",""projectId"":""54f8d589-66fc-4c65-830f-1dcc63bce8cc""}","https://test12345.live/?participantId=8E2474F56D8F426F800DAEB5F192BD1E&assignmentId=9abb3df5-30ff-48d1-bd73-e69f635f83f0&projectId=54f8d589-66fc-4c65-830f-1dcc63bce8cc","[{""page_index"":0,""viewing_time"":17014}]","17014","","","",""
"","","","","","html-button-response","5","100314","0.0-5.0","8E2474F56D8F426F800DAEB5F192BD1E","8E2474F56D8F426F800DAEB5F192BD1E","9abb3df5-30ff-48d1-bd73-e69f635f83f0","54f8d589-66fc-4c65-830f-1dcc63bce8cc","{""participantId"":""8E2474F56D8F426F800DAEB5F192BD1E"",""assignmentId"":""9abb3df5-30ff-48d1-bd73-e69f635f83f0"",""projectId"":""54f8d589-66fc-4c65-830f-1dcc63bce8cc""}","https://test12345.live/?participantId=8E2474F56D8F426F800DAEB5F192BD1E&assignmentId=9abb3df5-30ff-48d1-bd73-e69f635f83f0&projectId=54f8d589-66fc-4c65-830f-1dcc63bce8cc","","3947","
    <div style=""display: flex; justify-content: center; align-items: center;"">
      <img src=""images/red_deck_2.png"" style=""width: 300px; height: 300px; margin-right: 10px;"" />
      <img src=""images/blue_deck_1.png"" style=""width: 300px; height: 300px;"" />
    </div>","1","1",""
"","","","","","html-keyboard-response","6","103316","0.0-7.0-0.0","8E2474F56D8F426F800DAEB5F192BD1E","8E2474F56D8F426F800DAEB5F192BD1E","9abb3df5-30ff-48d1-bd73-e69f635f83f0","54f8d589-66fc-4c65-830f-1dcc63bce8cc","{""participantId"":""8E2474F56D8F426F800DAEB5F192BD1E"",""assignmentId"":""9abb3df5-30ff-48d1-bd73-e69f635f83f0"",""projectId"":""54f8d589-66fc-4c65-830f-1dcc63bce8cc""}","https://test12345.live/?participantId=8E2474F56D8F426F800DAEB5F192BD1E&assignmentId=9abb3df5-30ff-48d1-bd73-e69f635f83f0&projectId=54f8d589-66fc-4c65-830f-1dcc63bce8cc","","null","<div style=""display: flex; justify-content: center; align-items: center;"">
                    <img src=""images/semantic/semantic_series_1/semantic_series_1_a.jpg"" style=""width: 300px; height: 300px;"" />
                  </div>","null","",""
"","","","","","html-keyboard-response","7","106317","0.0-7.0-1.0","8E2474F56D8F426F800DAEB5F192BD1E","8E2474F56D8F426F800DAEB5F192BD1E","9abb3df5-30ff-48d1-bd73-e69f635f83f0","54f8d589-66fc-4c65-830f-1dcc63bce8cc","{""participantId"":""8E2474F56D8F426F800DAEB5F192BD1E"",""assignmentId"":""9abb3df5-30ff-48d1-bd73-e69f635f83f0"",""projectId"":""54f8d589-66fc-4c65-830f-1dcc63bce8cc""}","https://test12345.live/?participantId=8E2474F56D8F426F800DAEB5F192BD1E&assignmentId=9abb3df5-30ff-48d1-bd73-e69f635f83f0&projectId=54f8d589-66fc-4c65-830f-1dcc63bce8cc","","null","<div style=""display: flex; justify-content: center; align-items: center;"">
                    <img src=""images/semantic/semantic_series_1/semantic_series_1_b.jpg"" style=""width: 300px; height: 300px;"" />
                  </div>","null","",""
"","","","","","html-keyboard-response","8","109319","0.0-7.0-2.0","8E2474F56D8F426F800DAEB5F192BD1E","8E2474F56D8F426F800DAEB5F192BD1E","9abb3df5-30ff-48d1-bd73-e69f635f83f0","54f8d589-66fc-4c65-830f-1dcc63bce8cc","{""participantId"":""8E2474F56D8F426F800DAEB5F192BD1E"",""assignmentId"":""9abb3df5-30ff-48d1-bd73-e69f635f83f0"",""projectId"":""54f8d589-66fc-4c65-830f-1dcc63bce8cc""}","https://test12345.live/?participantId=8E2474F56D8F426F800DAEB5F192BD1E&assignmentId=9abb3df5-30ff-48d1-bd73-e69f635f83f0&projectId=54f8d589-66fc-4c65-830f-1dcc63bce8cc","","null","<div style=""display: flex; justify-content: center; align-items: center;"">
                    <img src=""images/semantic/semantic_series_1/semantic_series_1_c.jpg"" style=""width: 300px; height: 300px;"" />
                  </div>","null","",""
"","","","","","html-keyboard-response","9","112320","0.0-7.0-3.0","8E2474F56D8F426F800DAEB5F192BD1E","8E2474F56D8F426F800DAEB5F192BD1E","9abb3df5-30ff-48d1-bd73-e69f635f83f0","54f8d589-66fc-4c65-830f-1dcc63bce8cc","{""participantId"":""8E2474F56D8F426F800DAEB5F192BD1E"",""assignmentId"":""9abb3df5-30ff-48d1-bd73-e69f635f83f0"",""projectId"":""54f8d589-66fc-4c65-830f-1dcc63bce8cc""}","https://test12345.live/?participantId=8E2474F56D8F426F800DAEB5F192BD1E&assignmentId=9abb3df5-30ff-48d1-bd73-e69f635f83f0&projectId=54f8d589-66fc-4c65-830f-1dcc63bce8cc","","null","<div style=""display: flex; justify-content: center; align-items: center;"">
                    <img src=""images/semantic/semantic_series_1/semantic_series_1_d.jpg"" style=""width: 300px; height: 300px;"" />
                  </div>","null","",""
"","","","","","html-button-response","10","114109","0.0-8.0","8E2474F56D8F426F800DAEB5F192BD1E","8E2474F56D8F426F800DAEB5F192BD1E","9abb3df5-30ff-48d1-bd73-e69f635f83f0","54f8d589-66fc-4c65-830f-1dcc63bce8cc","{""participantId"":""8E2474F56D8F426F800DAEB5F192BD1E"",""assignmentId"":""9abb3df5-30ff-48d1-bd73-e69f635f83f0"",""projectId"":""54f8d589-66fc-4c65-830f-1dcc63bce8cc""}","https://test12345.live/?participantId=8E2474F56D8F426F800DAEB5F192BD1E&assignmentId=9abb3df5-30ff-48d1-bd73-e69f635f83f0&projectId=54f8d589-66fc-4c65-830f-1dcc63bce8cc","","1788","Was there a person in the picture?","0","",""
"","","","","","survey-likert","11","120259","0.0-9.0","8E2474F56D8F426F800DAEB5F192BD1E","8E2474F56D8F426F800DAEB5F192BD1E","9abb3df5-30ff-48d1-bd73-e69f635f83f0","54f8d589-66fc-4c65-830f-1dcc63bce8cc","{""participantId"":""8E2474F56D8F426F800DAEB5F192BD1E"",""assignmentId"":""9abb3df5-30ff-48d1-bd73-e69f635f83f0"",""projectId"":""54f8d589-66fc-4c65-830f-1dcc63bce8cc""}","https://test12345.live/?participantId=8E2474F56D8F426F800DAEB5F192BD1E&assignmentId=9abb3df5-30ff-48d1-bd73-e69f635f83f0&projectId=54f8d589-66fc-4c65-830f-1dcc63bce8cc","","6148","","{""Q0"":1}","","[0]"
"","","","","","html-button-response","12","122905","0.0-10.0","8E2474F56D8F426F800DAEB5F192BD1E","8E2474F56D8F426F800DAEB5F192BD1E","9abb3df5-30ff-48d1-bd73-e69f635f83f0","54f8d589-66fc-4c65-830f-1dcc63bce8cc","{""participantId"":""8E2474F56D8F426F800DAEB5F192BD1E"",""assignmentId"":""9abb3df5-30ff-48d1-bd73-e69f635f83f0"",""projectId"":""54f8d589-66fc-4c65-830f-1dcc63bce8cc""}","https://test12345.live/?participantId=8E2474F56D8F426F800DAEB5F192BD1E&assignmentId=9abb3df5-30ff-48d1-bd73-e69f635f83f0&projectId=54f8d589-66fc-4c65-830f-1dcc63bce8cc","","2646","
    <div style=""display: flex; justify-content: center; align-items: center;"">
      <img src=""images/red_deck_2.png"" style=""width: 300px; height: 300px; margin-right: 10px;"" />
      <img src=""images/blue_deck_1.png"" style=""width: 300px; height: 300px;"" />
    </div>","1","1",""
"","","","","","html-keyboard-response","13","125907","0.0-12.0-0.0","8E2474F56D8F426F800DAEB5F192BD1E","8E2474F56D8F426F800DAEB5F192BD1E","9abb3df5-30ff-48d1-bd73-e69f635f83f0","54f8d589-66fc-4c65-830f-1dcc63bce8cc","{""participantId"":""8E2474F56D8F426F800DAEB5F192BD1E"",""assignmentId"":""9abb3df5-30ff-48d1-bd73-e69f635f83f0"",""projectId"":""54f8d589-66fc-4c65-830f-1dcc63bce8cc""}","https://test12345.live/?participantId=8E2474F56D8F426F800DAEB5F192BD1E&assignmentId=9abb3df5-30ff-48d1-bd73-e69f635f83f0&projectId=54f8d589-66fc-4c65-830f-1dcc63bce8cc","","null","<div style=""display: flex; justify-content: center; align-items: center;"">
                    <img src=""images/semantic/semantic_series_11/semantic_series_11_a.jpg"" style=""width: 300px; height: 300px;"" />
                  </div>","null","",""
"","","","","","html-keyboard-response","14","128909","0.0-12.0-1.0","8E2474F56D8F426F800DAEB5F192BD1E","8E2474F56D8F426F800DAEB5F192BD1E","9abb3df5-30ff-48d1-bd73-e69f635f83f0","54f8d589-66fc-4c65-830f-1dcc63bce8cc","{""participantId"":""8E2474F56D8F426F800DAEB5F192BD1E"",""assignmentId"":""9abb3df5-30ff-48d1-bd73-e69f635f83f0"",""projectId"":""54f8d589-66fc-4c65-830f-1dcc63bce8cc""}","https://test12345.live/?participantId=8E2474F56D8F426F800DAEB5F192BD1E&assignmentId=9abb3df5-30ff-48d1-bd73-e69f635f83f0&projectId=54f8d589-66fc-4c65-830f-1dcc63bce8cc","","null","<div style=""display: flex; justify-content: center; align-items: center;"">
                    <img src=""images/semantic/semantic_series_11/semantic_series_11_b.jpg"" style=""width: 300px; height: 300px;"" />
                  </div>","null","",""
"","","","","","html-keyboard-response","15","131912","0.0-12.0-2.0","8E2474F56D8F426F800DAEB5F192BD1E","8E2474F56D8F426F800DAEB5F192BD1E","9abb3df5-30ff-48d1-bd73-e69f635f83f0","54f8d589-66fc-4c65-830f-1dcc63bce8cc","{""participantId"":""8E2474F56D8F426F800DAEB5F192BD1E"",""assignmentId"":""9abb3df5-30ff-48d1-bd73-e69f635f83f0"",""projectId"":""54f8d589-66fc-4c65-830f-1dcc63bce8cc""}","https://test12345.live/?participantId=8E2474F56D8F426F800DAEB5F192BD1E&assignmentId=9abb3df5-30ff-48d1-bd73-e69f635f83f0&projectId=54f8d589-66fc-4c65-830f-1dcc63bce8cc","","null","<div style=""display: flex; justify-content: center; align-items: center;"">
                    <img src=""images/semantic/semantic_series_11/semantic_series_11_c.jpg"" style=""width: 300px; height: 300px;"" />
                  </div>","null","",""
"","","","","","html-keyboard-response","16","134913","0.0-12.0-3.0","8E2474F56D8F426F800DAEB5F192BD1E","8E2474F56D8F426F800DAEB5F192BD1E","9abb3df5-30ff-48d1-bd73-e69f635f83f0","54f8d589-66fc-4c65-830f-1dcc63bce8cc","{""participantId"":""8E2474F56D8F426F800DAEB5F192BD1E"",""assignmentId"":""9abb3df5-30ff-48d1-bd73-e69f635f83f0"",""projectId"":""54f8d589-66fc-4c65-830f-1dcc63bce8cc""}","https://test12345.live/?participantId=8E2474F56D8F426F800DAEB5F192BD1E&assignmentId=9abb3df5-30ff-48d1-bd73-e69f635f83f0&projectId=54f8d589-66fc-4c65-830f-1dcc63bce8cc","","null","<div style=""display: flex; justify-content: center; align-items: center;"">
                    <img src=""images/semantic/semantic_series_11/semantic_series_11_d.jpg"" style=""width: 300px; height: 300px;"" />
                  </div>","null","",""
"","","","","","html-button-response","17","137058","0.0-13.0","8E2474F56D8F426F800DAEB5F192BD1E","8E2474F56D8F426F800DAEB5F192BD1E","9abb3df5-30ff-48d1-bd73-e69f635f83f0","54f8d589-66fc-4c65-830f-1dcc63bce8cc","{""participantId"":""8E2474F56D8F426F800DAEB5F192BD1E"",""assignmentId"":""9abb3df5-30ff-48d1-bd73-e69f635f83f0"",""projectId"":""54f8d589-66fc-4c65-830f-1dcc63bce8cc""}","https://test12345.live/?participantId=8E2474F56D8F426F800DAEB5F192BD1E&assignmentId=9abb3df5-30ff-48d1-bd73-e69f635f83f0&projectId=54f8d589-66fc-4c65-830f-1dcc63bce8cc","","2143","Was there a person in the picture?","0","",""
"","","","","","survey-likert","18","139966","0.0-14.0","8E2474F56D8F426F800DAEB5F192BD1E","8E2474F56D8F426F800DAEB5F192BD1E","9abb3df5-30ff-48d1-bd73-e69f635f83f0","54f8d589-66fc-4c65-830f-1dcc63bce8cc","{""participantId"":""8E2474F56D8F426F800DAEB5F192BD1E"",""assignmentId"":""9abb3df5-30ff-48d1-bd73-e69f635f83f0"",""projectId"":""54f8d589-66fc-4c65-830f-1dcc63bce8cc""}","https://test12345.live/?participantId=8E2474F56D8F426F800DAEB5F192BD1E&assignmentId=9abb3df5-30ff-48d1-bd73-e69f635f83f0&projectId=54f8d589-66fc-4c65-830f-1dcc63bce8cc","","2907","","{""Q0"":1}","","[0]"
"","","","","","html-button-response","19","141889","0.0-15.0","8E2474F56D8F426F800DAEB5F192BD1E","8E2474F56D8F426F800DAEB5F192BD1E","9abb3df5-30ff-48d1-bd73-e69f635f83f0","54f8d589-66fc-4c65-830f-1dcc63bce8cc","{""participantId"":""8E2474F56D8F426F800DAEB5F192BD1E"",""assignmentId"":""9abb3df5-30ff-48d1-bd73-e69f635f83f0"",""projectId"":""54f8d589-66fc-4c65-830f-1dcc63bce8cc""}","https://test12345.live/?participantId=8E2474F56D8F426F800DAEB5F192BD1E&assignmentId=9abb3df5-30ff-48d1-bd73-e69f635f83f0&projectId=54f8d589-66fc-4c65-830f-1dcc63bce8cc","","1922","
    <div style=""display: flex; justify-content: center; align-items: center;"">
      <img src=""images/red_deck_2.png"" style=""width: 300px; height: 300px; margin-right: 10px;"" />
      <img src=""images/blue_deck_1.png"" style=""width: 300px; height: 300px;"" />
    </div>","0","0",""
"","","","","","html-keyboard-response","20","144891","0.0-16.0-0.0","8E2474F56D8F426F800DAEB5F192BD1E","8E2474F56D8F426F800DAEB5F192BD1E","9abb3df5-30ff-48d1-bd73-e69f635f83f0","54f8d589-66fc-4c65-830f-1dcc63bce8cc","{""participantId"":""8E2474F56D8F426F800DAEB5F192BD1E"",""assignmentId"":""9abb3df5-30ff-48d1-bd73-e69f635f83f0"",""projectId"":""54f8d589-66fc-4c65-830f-1dcc63bce8cc""}","https://test12345.live/?participantId=8E2474F56D8F426F800DAEB5F192BD1E&assignmentId=9abb3df5-30ff-48d1-bd73-e69f635f83f0&projectId=54f8d589-66fc-4c65-830f-1dcc63bce8cc","","null","<div style=""display: flex; justify-content: center; align-items: center;"">
                    <img src=""images/causal/causal_series_7/causal_series_7_a.jpg"" style=""width: 300px; height: 300px;"" />
                  </div>","null","",""
"","","","","","html-keyboard-response","21","147893","0.0-16.0-1.0","8E2474F56D8F426F800DAEB5F192BD1E","8E2474F56D8F426F800DAEB5F192BD1E","9abb3df5-30ff-48d1-bd73-e69f635f83f0","54f8d589-66fc-4c65-830f-1dcc63bce8cc","{""participantId"":""8E2474F56D8F426F800DAEB5F192BD1E"",""assignmentId"":""9abb3df5-30ff-48d1-bd73-e69f635f83f0"",""projectId"":""54f8d589-66fc-4c65-830f-1dcc63bce8cc""}","https://test12345.live/?participantId=8E2474F56D8F426F800DAEB5F192BD1E&assignmentId=9abb3df5-30ff-48d1-bd73-e69f635f83f0&projectId=54f8d589-66fc-4c65-830f-1dcc63bce8cc","","null","<div style=""display: flex; justify-content: center; align-items: center;"">
                    <img src=""images/causal/causal_series_7/causal_series_7_b.jpg"" style=""width: 300px; height: 300px;"" />
                  </div>","null","",""
"","","","","","html-keyboard-response","22","150894","0.0-16.0-2.0","8E2474F56D8F426F800DAEB5F192BD1E","8E2474F56D8F426F800DAEB5F192BD1E","9abb3df5-30ff-48d1-bd73-e69f635f83f0","54f8d589-66fc-4c65-830f-1dcc63bce8cc","{""participantId"":""8E2474F56D8F426F800DAEB5F192BD1E"",""assignmentId"":""9abb3df5-30ff-48d1-bd73-e69f635f83f0"",""projectId"":""54f8d589-66fc-4c65-830f-1dcc63bce8cc""}","https://test12345.live/?participantId=8E2474F56D8F426F800DAEB5F192BD1E&assignmentId=9abb3df5-30ff-48d1-bd73-e69f635f83f0&projectId=54f8d589-66fc-4c65-830f-1dcc63bce8cc","","null","<div style=""display: flex; justify-content: center; align-items: center;"">
                    <img src=""images/causal/causal_series_7/causal_series_7_c.jpg"" style=""width: 300px; height: 300px;"" />
                  </div>","null","",""
"","","","","","html-keyboard-response","23","153897","0.0-16.0-3.0","8E2474F56D8F426F800DAEB5F192BD1E","8E2474F56D8F426F800DAEB5F192BD1E","9abb3df5-30ff-48d1-bd73-e69f635f83f0","54f8d589-66fc-4c65-830f-1dcc63bce8cc","{""participantId"":""8E2474F56D8F426F800DAEB5F192BD1E"",""assignmentId"":""9abb3df5-30ff-48d1-bd73-e69f635f83f0"",""projectId"":""54f8d589-66fc-4c65-830f-1dcc63bce8cc""}","https://test12345.live/?participantId=8E2474F56D8F426F800DAEB5F192BD1E&assignmentId=9abb3df5-30ff-48d1-bd73-e69f635f83f0&projectId=54f8d589-66fc-4c65-830f-1dcc63bce8cc","","null","<div style=""display: flex; justify-content: center; align-items: center;"">
                    <img src=""images/causal/causal_series_7/causal_series_7_d.jpg"" style=""width: 300px; height: 300px;"" />
                  </div>","null","",""
"","","","","","html-button-response","24","159565","0.0-18.0","8E2474F56D8F426F800DAEB5F192BD1E","8E2474F56D8F426F800DAEB5F192BD1E","9abb3df5-30ff-48d1-bd73-e69f635f83f0","54f8d589-66fc-4c65-830f-1dcc63bce8cc","{""participantId"":""8E2474F56D8F426F800DAEB5F192BD1E"",""assignmentId"":""9abb3df5-30ff-48d1-bd73-e69f635f83f0"",""projectId"":""54f8d589-66fc-4c65-830f-1dcc63bce8cc""}","https://test12345.live/?participantId=8E2474F56D8F426F800DAEB5F192BD1E&assignmentId=9abb3df5-30ff-48d1-bd73-e69f635f83f0&projectId=54f8d589-66fc-4c65-830f-1dcc63bce8cc","","5668","Was there a person in the picture?","1","",""
"","","","","","survey-likert","25","162094","0.0-19.0","8E2474F56D8F426F800DAEB5F192BD1E","8E2474F56D8F426F800DAEB5F192BD1E","9abb3df5-30ff-48d1-bd73-e69f635f83f0","54f8d589-66fc-4c65-830f-1dcc63bce8cc","{""participantId"":""8E2474F56D8F426F800DAEB5F192BD1E"",""assignmentId"":""9abb3df5-30ff-48d1-bd73-e69f635f83f0"",""projectId"":""54f8d589-66fc-4c65-830f-1dcc63bce8cc""}","https://test12345.live/?participantId=8E2474F56D8F426F800DAEB5F192BD1E&assignmentId=9abb3df5-30ff-48d1-bd73-e69f635f83f0&projectId=54f8d589-66fc-4c65-830f-1dcc63bce8cc","","2528","","{""Q0"":2}","","[0]"
"","","","","","html-button-response","26","163321","0.0-20.0","8E2474F56D8F426F800DAEB5F192BD1E","8E2474F56D8F426F800DAEB5F192BD1E","9abb3df5-30ff-48d1-bd73-e69f635f83f0","54f8d589-66fc-4c65-830f-1dcc63bce8cc","{""participantId"":""8E2474F56D8F426F800DAEB5F192BD1E"",""assignmentId"":""9abb3df5-30ff-48d1-bd73-e69f635f83f0"",""projectId"":""54f8d589-66fc-4c65-830f-1dcc63bce8cc""}","https://test12345.live/?participantId=8E2474F56D8F426F800DAEB5F192BD1E&assignmentId=9abb3df5-30ff-48d1-bd73-e69f635f83f0&projectId=54f8d589-66fc-4c65-830f-1dcc63bce8cc","","1225","
    <div style=""display: flex; justify-content: center; align-items: center;"">
      <img src=""images/red_deck_2.png"" style=""width: 300px; height: 300px; margin-right: 10px;"" />
      <img src=""images/blue_deck_1.png"" style=""width: 300px; height: 300px;"" />
    </div>","0","0",""
"","","","","","html-keyboard-response","27","166323","0.0-21.0-0.0","8E2474F56D8F426F800DAEB5F192BD1E","8E2474F56D8F426F800DAEB5F192BD1E","9abb3df5-30ff-48d1-bd73-e69f635f83f0","54f8d589-66fc-4c65-830f-1dcc63bce8cc","{""participantId"":""8E2474F56D8F426F800DAEB5F192BD1E"",""assignmentId"":""9abb3df5-30ff-48d1-bd73-e69f635f83f0"",""projectId"":""54f8d589-66fc-4c65-830f-1dcc63bce8cc""}","https://test12345.live/?participantId=8E2474F56D8F426F800DAEB5F192BD1E&assignmentId=9abb3df5-30ff-48d1-bd73-e69f635f83f0&projectId=54f8d589-66fc-4c65-830f-1dcc63bce8cc","","null","<div style=""display: flex; justify-content: center; align-items: center;"">
                    <img src=""images/causal/causal_series_18/causal_series_18_a.jpg"" style=""width: 300px; height: 300px;"" />
                  </div>","null","",""
"","","","","","html-keyboard-response","28","169325","0.0-21.0-1.0","8E2474F56D8F426F800DAEB5F192BD1E","8E2474F56D8F426F800DAEB5F192BD1E","9abb3df5-30ff-48d1-bd73-e69f635f83f0","54f8d589-66fc-4c65-830f-1dcc63bce8cc","{""participantId"":""8E2474F56D8F426F800DAEB5F192BD1E"",""assignmentId"":""9abb3df5-30ff-48d1-bd73-e69f635f83f0"",""projectId"":""54f8d589-66fc-4c65-830f-1dcc63bce8cc""}","https://test12345.live/?participantId=8E2474F56D8F426F800DAEB5F192BD1E&assignmentId=9abb3df5-30ff-48d1-bd73-e69f635f83f0&projectId=54f8d589-66fc-4c65-830f-1dcc63bce8cc","","null","<div style=""display: flex; justify-content: center; align-items: center;"">
                    <img src=""images/causal/causal_series_18/causal_series_18_b.jpg"" style=""width: 300px; height: 300px;"" />
                  </div>","null","",""
"","","","","","html-keyboard-response","29","172327","0.0-21.0-2.0","8E2474F56D8F426F800DAEB5F192BD1E","8E2474F56D8F426F800DAEB5F192BD1E","9abb3df5-30ff-48d1-bd73-e69f635f83f0","54f8d589-66fc-4c65-830f-1dcc63bce8cc","{""participantId"":""8E2474F56D8F426F800DAEB5F192BD1E"",""assignmentId"":""9abb3df5-30ff-48d1-bd73-e69f635f83f0"",""projectId"":""54f8d589-66fc-4c65-830f-1dcc63bce8cc""}","https://test12345.live/?participantId=8E2474F56D8F426F800DAEB5F192BD1E&assignmentId=9abb3df5-30ff-48d1-bd73-e69f635f83f0&projectId=54f8d589-66fc-4c65-830f-1dcc63bce8cc","","null","<div style=""display: flex; justify-content: center; align-items: center;"">
                    <img src=""images/causal/causal_series_18/causal_series_18_c.jpg"" style=""width: 300px; height: 300px;"" />
                  </div>","null","",""
"","","","","","html-keyboard-response","30","175329","0.0-21.0-3.0","8E2474F56D8F426F800DAEB5F192BD1E","8E2474F56D8F426F800DAEB5F192BD1E","9abb3df5-30ff-48d1-bd73-e69f635f83f0","54f8d589-66fc-4c65-830f-1dcc63bce8cc","{""participantId"":""8E2474F56D8F426F800DAEB5F192BD1E"",""assignmentId"":""9abb3df5-30ff-48d1-bd73-e69f635f83f0"",""projectId"":""54f8d589-66fc-4c65-830f-1dcc63bce8cc""}","https://test12345.live/?participantId=8E2474F56D8F426F800DAEB5F192BD1E&assignmentId=9abb3df5-30ff-48d1-bd73-e69f635f83f0&projectId=54f8d589-66fc-4c65-830f-1dcc63bce8cc","","null","<div style=""display: flex; justify-content: center; align-items: center;"">
                    <img src=""images/causal/causal_series_18/causal_series_18_d.jpg"" style=""width: 300px; height: 300px;"" />
                  </div>","null","",""
"","","","","","html-button-response","31","176473","0.0-23.0","8E2474F56D8F426F800DAEB5F192BD1E","8E2474F56D8F426F800DAEB5F192BD1E","9abb3df5-30ff-48d1-bd73-e69f635f83f0","54f8d589-66fc-4c65-830f-1dcc63bce8cc","{""participantId"":""8E2474F56D8F426F800DAEB5F192BD1E"",""assignmentId"":""9abb3df5-30ff-48d1-bd73-e69f635f83f0"",""projectId"":""54f8d589-66fc-4c65-830f-1dcc63bce8cc""}","https://test12345.live/?participantId=8E2474F56D8F426F800DAEB5F192BD1E&assignmentId=9abb3df5-30ff-48d1-bd73-e69f635f83f0&projectId=54f8d589-66fc-4c65-830f-1dcc63bce8cc","","1144","Was there a person in the picture?","1","",""
"","","","","","survey-likert","32","180530","0.0-24.0","8E2474F56D8F426F800DAEB5F192BD1E","8E2474F56D8F426F800DAEB5F192BD1E","9abb3df5-30ff-48d1-bd73-e69f635f83f0","54f8d589-66fc-4c65-830f-1dcc63bce8cc","{""participantId"":""8E2474F56D8F426F800DAEB5F192BD1E"",""assignmentId"":""9abb3df5-30ff-48d1-bd73-e69f635f83f0"",""projectId"":""54f8d589-66fc-4c65-830f-1dcc63bce8cc""}","https://test12345.live/?participantId=8E2474F56D8F426F800DAEB5F192BD1E&assignmentId=9abb3df5-30ff-48d1-bd73-e69f635f83f0&projectId=54f8d589-66fc-4c65-830f-1dcc63bce8cc","","4054","","{""Q0"":2}","","[0]"
"","","","","","html-button-response","33","181793","0.0-25.0","8E2474F56D8F426F800DAEB5F192BD1E","8E2474F56D8F426F800DAEB5F192BD1E","9abb3df5-30ff-48d1-bd73-e69f635f83f0","54f8d589-66fc-4c65-830f-1dcc63bce8cc","{""participantId"":""8E2474F56D8F426F800DAEB5F192BD1E"",""assignmentId"":""9abb3df5-30ff-48d1-bd73-e69f635f83f0"",""projectId"":""54f8d589-66fc-4c65-830f-1dcc63bce8cc""}","https://test12345.live/?participantId=8E2474F56D8F426F800DAEB5F192BD1E&assignmentId=9abb3df5-30ff-48d1-bd73-e69f635f83f0&projectId=54f8d589-66fc-4c65-830f-1dcc63bce8cc","","1263","
    <div style=""display: flex; justify-content: center; align-items: center;"">
      <img src=""images/red_deck_2.png"" style=""width: 300px; height: 300px; margin-right: 10px;"" />
      <img src=""images/blue_deck_1.png"" style=""width: 300px; height: 300px;"" />
    </div>","1","1",""
"","","","","","html-keyboard-response","34","184795","0.0-27.0-0.0","8E2474F56D8F426F800DAEB5F192BD1E","8E2474F56D8F426F800DAEB5F192BD1E","9abb3df5-30ff-48d1-bd73-e69f635f83f0","54f8d589-66fc-4c65-830f-1dcc63bce8cc","{""participantId"":""8E2474F56D8F426F800DAEB5F192BD1E"",""assignmentId"":""9abb3df5-30ff-48d1-bd73-e69f635f83f0"",""projectId"":""54f8d589-66fc-4c65-830f-1dcc63bce8cc""}","https://test12345.live/?participantId=8E2474F56D8F426F800DAEB5F192BD1E&assignmentId=9abb3df5-30ff-48d1-bd73-e69f635f83f0&projectId=54f8d589-66fc-4c65-830f-1dcc63bce8cc","","null","<div style=""display: flex; justify-content: center; align-items: center;"">
                    <img src=""images/semantic/semantic_series_9/semantic_series_9_a.jpg"" style=""width: 300px; height: 300px;"" />
                  </div>","null","",""
"","","","","","html-keyboard-response","35","187796","0.0-27.0-1.0","8E2474F56D8F426F800DAEB5F192BD1E","8E2474F56D8F426F800DAEB5F192BD1E","9abb3df5-30ff-48d1-bd73-e69f635f83f0","54f8d589-66fc-4c65-830f-1dcc63bce8cc","{""participantId"":""8E2474F56D8F426F800DAEB5F192BD1E"",""assignmentId"":""9abb3df5-30ff-48d1-bd73-e69f635f83f0"",""projectId"":""54f8d589-66fc-4c65-830f-1dcc63bce8cc""}","https://test12345.live/?participantId=8E2474F56D8F426F800DAEB5F192BD1E&assignmentId=9abb3df5-30ff-48d1-bd73-e69f635f83f0&projectId=54f8d589-66fc-4c65-830f-1dcc63bce8cc","","null","<div style=""display: flex; justify-content: center; align-items: center;"">
                    <img src=""images/semantic/semantic_series_9/semantic_series_9_b.jpg"" style=""width: 300px; height: 300px;"" />
                  </div>","null","",""
"","","","","","html-keyboard-response","36","190799","0.0-27.0-2.0","8E2474F56D8F426F800DAEB5F192BD1E","8E2474F56D8F426F800DAEB5F192BD1E","9abb3df5-30ff-48d1-bd73-e69f635f83f0","54f8d589-66fc-4c65-830f-1dcc63bce8cc","{""participantId"":""8E2474F56D8F426F800DAEB5F192BD1E"",""assignmentId"":""9abb3df5-30ff-48d1-bd73-e69f635f83f0"",""projectId"":""54f8d589-66fc-4c65-830f-1dcc63bce8cc""}","https://test12345.live/?participantId=8E2474F56D8F426F800DAEB5F192BD1E&assignmentId=9abb3df5-30ff-48d1-bd73-e69f635f83f0&projectId=54f8d589-66fc-4c65-830f-1dcc63bce8cc","","null","<div style=""display: flex; justify-content: center; align-items: center;"">
                    <img src=""images/semantic/semantic_series_9/semantic_series_9_c.jpg"" style=""width: 300px; height: 300px;"" />
                  </div>","null","",""
"","","","","","html-keyboard-response","37","193800","0.0-27.0-3.0","8E2474F56D8F426F800DAEB5F192BD1E","8E2474F56D8F426F800DAEB5F192BD1E","9abb3df5-30ff-48d1-bd73-e69f635f83f0","54f8d589-66fc-4c65-830f-1dcc63bce8cc","{""participantId"":""8E2474F56D8F426F800DAEB5F192BD1E"",""assignmentId"":""9abb3df5-30ff-48d1-bd73-e69f635f83f0"",""projectId"":""54f8d589-66fc-4c65-830f-1dcc63bce8cc""}","https://test12345.live/?participantId=8E2474F56D8F426F800DAEB5F192BD1E&assignmentId=9abb3df5-30ff-48d1-bd73-e69f635f83f0&projectId=54f8d589-66fc-4c65-830f-1dcc63bce8cc","","null","<div style=""display: flex; justify-content: center; align-items: center;"">
                    <img src=""images/semantic/semantic_series_9/semantic_series_9_d.jpg"" style=""width: 300px; height: 300px;"" />
                  </div>","null","",""
"","","","","","html-button-response","38","196397","0.0-28.0","8E2474F56D8F426F800DAEB5F192BD1E","8E2474F56D8F426F800DAEB5F192BD1E","9abb3df5-30ff-48d1-bd73-e69f635f83f0","54f8d589-66fc-4c65-830f-1dcc63bce8cc","{""participantId"":""8E2474F56D8F426F800DAEB5F192BD1E"",""assignmentId"":""9abb3df5-30ff-48d1-bd73-e69f635f83f0"",""projectId"":""54f8d589-66fc-4c65-830f-1dcc63bce8cc""}","https://test12345.live/?participantId=8E2474F56D8F426F800DAEB5F192BD1E&assignmentId=9abb3df5-30ff-48d1-bd73-e69f635f83f0&projectId=54f8d589-66fc-4c65-830f-1dcc63bce8cc","","2597","Was there a person in the picture?","1","",""
"","","","","","survey-likert","39","205244","0.0-29.0","8E2474F56D8F426F800DAEB5F192BD1E","8E2474F56D8F426F800DAEB5F192BD1E","9abb3df5-30ff-48d1-bd73-e69f635f83f0","54f8d589-66fc-4c65-830f-1dcc63bce8cc","{""participantId"":""8E2474F56D8F426F800DAEB5F192BD1E"",""assignmentId"":""9abb3df5-30ff-48d1-bd73-e69f635f83f0"",""projectId"":""54f8d589-66fc-4c65-830f-1dcc63bce8cc""}","https://test12345.live/?participantId=8E2474F56D8F426F800DAEB5F192BD1E&assignmentId=9abb3df5-30ff-48d1-bd73-e69f635f83f0&projectId=54f8d589-66fc-4c65-830f-1dcc63bce8cc","","8846","","{""Q0"":2}","","[0]"
"","","","","","html-button-response","40","206996","0.0-30.0","8E2474F56D8F426F800DAEB5F192BD1E","8E2474F56D8F426F800DAEB5F192BD1E","9abb3df5-30ff-48d1-bd73-e69f635f83f0","54f8d589-66fc-4c65-830f-1dcc63bce8cc","{""participantId"":""8E2474F56D8F426F800DAEB5F192BD1E"",""assignmentId"":""9abb3df5-30ff-48d1-bd73-e69f635f83f0"",""projectId"":""54f8d589-66fc-4c65-830f-1dcc63bce8cc""}","https://test12345.live/?participantId=8E2474F56D8F426F800DAEB5F192BD1E&assignmentId=9abb3df5-30ff-48d1-bd73-e69f635f83f0&projectId=54f8d589-66fc-4c65-830f-1dcc63bce8cc","","1751","
    <div style=""display: flex; justify-content: center; align-items: center;"">
      <img src=""images/red_deck_2.png"" style=""width: 300px; height: 300px; margin-right: 10px;"" />
      <img src=""images/blue_deck_1.png"" style=""width: 300px; height: 300px;"" />
    </div>","1","1",""
"","","","","","html-keyboard-response","41","209997","0.0-32.0-0.0","8E2474F56D8F426F800DAEB5F192BD1E","8E2474F56D8F426F800DAEB5F192BD1E","9abb3df5-30ff-48d1-bd73-e69f635f83f0","54f8d589-66fc-4c65-830f-1dcc63bce8cc","{""participantId"":""8E2474F56D8F426F800DAEB5F192BD1E"",""assignmentId"":""9abb3df5-30ff-48d1-bd73-e69f635f83f0"",""projectId"":""54f8d589-66fc-4c65-830f-1dcc63bce8cc""}","https://test12345.live/?participantId=8E2474F56D8F426F800DAEB5F192BD1E&assignmentId=9abb3df5-30ff-48d1-bd73-e69f635f83f0&projectId=54f8d589-66fc-4c65-830f-1dcc63bce8cc","","null","<div style=""display: flex; justify-content: center; align-items: center;"">
                    <img src=""images/semantic/semantic_series_3/semantic_series_3_a.jpg"" style=""width: 300px; height: 300px;"" />
                  </div>","null","",""
"","","","","","html-keyboard-response","42","212999","0.0-32.0-1.0","8E2474F56D8F426F800DAEB5F192BD1E","8E2474F56D8F426F800DAEB5F192BD1E","9abb3df5-30ff-48d1-bd73-e69f635f83f0","54f8d589-66fc-4c65-830f-1dcc63bce8cc","{""participantId"":""8E2474F56D8F426F800DAEB5F192BD1E"",""assignmentId"":""9abb3df5-30ff-48d1-bd73-e69f635f83f0"",""projectId"":""54f8d589-66fc-4c65-830f-1dcc63bce8cc""}","https://test12345.live/?participantId=8E2474F56D8F426F800DAEB5F192BD1E&assignmentId=9abb3df5-30ff-48d1-bd73-e69f635f83f0&projectId=54f8d589-66fc-4c65-830f-1dcc63bce8cc","","null","<div style=""display: flex; justify-content: center; align-items: center;"">
                    <img src=""images/semantic/semantic_series_3/semantic_series_3_b.jpg"" style=""width: 300px; height: 300px;"" />
                  </div>","null","",""
"","","","","","html-keyboard-response","43","216001","0.0-32.0-2.0","8E2474F56D8F426F800DAEB5F192BD1E","8E2474F56D8F426F800DAEB5F192BD1E","9abb3df5-30ff-48d1-bd73-e69f635f83f0","54f8d589-66fc-4c65-830f-1dcc63bce8cc","{""participantId"":""8E2474F56D8F426F800DAEB5F192BD1E"",""assignmentId"":""9abb3df5-30ff-48d1-bd73-e69f635f83f0"",""projectId"":""54f8d589-66fc-4c65-830f-1dcc63bce8cc""}","https://test12345.live/?participantId=8E2474F56D8F426F800DAEB5F192BD1E&assignmentId=9abb3df5-30ff-48d1-bd73-e69f635f83f0&projectId=54f8d589-66fc-4c65-830f-1dcc63bce8cc","","null","<div style=""display: flex; justify-content: center; align-items: center;"">
                    <img src=""images/semantic/semantic_series_3/semantic_series_3_c.jpg"" style=""width: 300px; height: 300px;"" />
                  </div>","null","",""
"","","","","","html-keyboard-response","44","219004","0.0-32.0-3.0","8E2474F56D8F426F800DAEB5F192BD1E","8E2474F56D8F426F800DAEB5F192BD1E","9abb3df5-30ff-48d1-bd73-e69f635f83f0","54f8d589-66fc-4c65-830f-1dcc63bce8cc","{""participantId"":""8E2474F56D8F426F800DAEB5F192BD1E"",""assignmentId"":""9abb3df5-30ff-48d1-bd73-e69f635f83f0"",""projectId"":""54f8d589-66fc-4c65-830f-1dcc63bce8cc""}","https://test12345.live/?participantId=8E2474F56D8F426F800DAEB5F192BD1E&assignmentId=9abb3df5-30ff-48d1-bd73-e69f635f83f0&projectId=54f8d589-66fc-4c65-830f-1dcc63bce8cc","","null","<div style=""display: flex; justify-content: center; align-items: center;"">
                    <img src=""images/semantic/semantic_series_3/semantic_series_3_d.jpg"" style=""width: 300px; height: 300px;"" />
                  </div>","null","",""
"","","","","","html-button-response","45","221721","0.0-33.0","8E2474F56D8F426F800DAEB5F192BD1E","8E2474F56D8F426F800DAEB5F192BD1E","9abb3df5-30ff-48d1-bd73-e69f635f83f0","54f8d589-66fc-4c65-830f-1dcc63bce8cc","{""participantId"":""8E2474F56D8F426F800DAEB5F192BD1E"",""assignmentId"":""9abb3df5-30ff-48d1-bd73-e69f635f83f0"",""projectId"":""54f8d589-66fc-4c65-830f-1dcc63bce8cc""}","https://test12345.live/?participantId=8E2474F56D8F426F800DAEB5F192BD1E&assignmentId=9abb3df5-30ff-48d1-bd73-e69f635f83f0&projectId=54f8d589-66fc-4c65-830f-1dcc63bce8cc","","2717","Was there a person in the picture?","0","",""
"","","","","","survey-likert","46","226352","0.0-34.0","8E2474F56D8F426F800DAEB5F192BD1E","8E2474F56D8F426F800DAEB5F192BD1E","9abb3df5-30ff-48d1-bd73-e69f635f83f0","54f8d589-66fc-4c65-830f-1dcc63bce8cc","{""participantId"":""8E2474F56D8F426F800DAEB5F192BD1E"",""assignmentId"":""9abb3df5-30ff-48d1-bd73-e69f635f83f0"",""projectId"":""54f8d589-66fc-4c65-830f-1dcc63bce8cc""}","https://test12345.live/?participantId=8E2474F56D8F426F800DAEB5F192BD1E&assignmentId=9abb3df5-30ff-48d1-bd73-e69f635f83f0&projectId=54f8d589-66fc-4c65-830f-1dcc63bce8cc","","4629","","{""Q0"":2}","","[0]"
"","","","","","html-button-response","47","227871","0.0-35.0","8E2474F56D8F426F800DAEB5F192BD1E","8E2474F56D8F426F800DAEB5F192BD1E","9abb3df5-30ff-48d1-bd73-e69f635f83f0","54f8d589-66fc-4c65-830f-1dcc63bce8cc","{""participantId"":""8E2474F56D8F426F800DAEB5F192BD1E"",""assignmentId"":""9abb3df5-30ff-48d1-bd73-e69f635f83f0"",""projectId"":""54f8d589-66fc-4c65-830f-1dcc63bce8cc""}","https://test12345.live/?participantId=8E2474F56D8F426F800DAEB5F192BD1E&assignmentId=9abb3df5-30ff-48d1-bd73-e69f635f83f0&projectId=54f8d589-66fc-4c65-830f-1dcc63bce8cc","","1517","
    <div style=""display: flex; justify-content: center; align-items: center;"">
      <img src=""images/red_deck_2.png"" style=""width: 300px; height: 300px; margin-right: 10px;"" />
      <img src=""images/blue_deck_1.png"" style=""width: 300px; height: 300px;"" />
    </div>","0","0",""
"","","","","","html-keyboard-response","48","230873","0.0-36.0-0.0","8E2474F56D8F426F800DAEB5F192BD1E","8E2474F56D8F426F800DAEB5F192BD1E","9abb3df5-30ff-48d1-bd73-e69f635f83f0","54f8d589-66fc-4c65-830f-1dcc63bce8cc","{""participantId"":""8E2474F56D8F426F800DAEB5F192BD1E"",""assignmentId"":""9abb3df5-30ff-48d1-bd73-e69f635f83f0"",""projectId"":""54f8d589-66fc-4c65-830f-1dcc63bce8cc""}","https://test12345.live/?participantId=8E2474F56D8F426F800DAEB5F192BD1E&assignmentId=9abb3df5-30ff-48d1-bd73-e69f635f83f0&projectId=54f8d589-66fc-4c65-830f-1dcc63bce8cc","","null","<div style=""display: flex; justify-content: center; align-items: center;"">
                    <img src=""images/causal/causal_series_9/causal_series_9_a.jpg"" style=""width: 300px; height: 300px;"" />
                  </div>","null","",""
"","","","","","html-keyboard-response","49","233874","0.0-36.0-1.0","8E2474F56D8F426F800DAEB5F192BD1E","8E2474F56D8F426F800DAEB5F192BD1E","9abb3df5-30ff-48d1-bd73-e69f635f83f0","54f8d589-66fc-4c65-830f-1dcc63bce8cc","{""participantId"":""8E2474F56D8F426F800DAEB5F192BD1E"",""assignmentId"":""9abb3df5-30ff-48d1-bd73-e69f635f83f0"",""projectId"":""54f8d589-66fc-4c65-830f-1dcc63bce8cc""}","https://test12345.live/?participantId=8E2474F56D8F426F800DAEB5F192BD1E&assignmentId=9abb3df5-30ff-48d1-bd73-e69f635f83f0&projectId=54f8d589-66fc-4c65-830f-1dcc63bce8cc","","null","<div style=""display: flex; justify-content: center; align-items: center;"">
                    <img src=""images/causal/causal_series_9/causal_series_9_b.jpg"" style=""width: 300px; height: 300px;"" />
                  </div>","null","",""
"","","","","","html-keyboard-response","50","236875","0.0-36.0-2.0","8E2474F56D8F426F800DAEB5F192BD1E","8E2474F56D8F426F800DAEB5F192BD1E","9abb3df5-30ff-48d1-bd73-e69f635f83f0","54f8d589-66fc-4c65-830f-1dcc63bce8cc","{""participantId"":""8E2474F56D8F426F800DAEB5F192BD1E"",""assignmentId"":""9abb3df5-30ff-48d1-bd73-e69f635f83f0"",""projectId"":""54f8d589-66fc-4c65-830f-1dcc63bce8cc""}","https://test12345.live/?participantId=8E2474F56D8F426F800DAEB5F192BD1E&assignmentId=9abb3df5-30ff-48d1-bd73-e69f635f83f0&projectId=54f8d589-66fc-4c65-830f-1dcc63bce8cc","","null","<div style=""display: flex; justify-content: center; align-items: center;"">
                    <img src=""images/causal/causal_series_9/causal_series_9_c.jpg"" style=""width: 300px; height: 300px;"" />
                  </div>","null","",""
"","","","","","html-keyboard-response","51","239877","0.0-36.0-3.0","8E2474F56D8F426F800DAEB5F192BD1E","8E2474F56D8F426F800DAEB5F192BD1E","9abb3df5-30ff-48d1-bd73-e69f635f83f0","54f8d589-66fc-4c65-830f-1dcc63bce8cc","{""participantId"":""8E2474F56D8F426F800DAEB5F192BD1E"",""assignmentId"":""9abb3df5-30ff-48d1-bd73-e69f635f83f0"",""projectId"":""54f8d589-66fc-4c65-830f-1dcc63bce8cc""}","https://test12345.live/?participantId=8E2474F56D8F426F800DAEB5F192BD1E&assignmentId=9abb3df5-30ff-48d1-bd73-e69f635f83f0&projectId=54f8d589-66fc-4c65-830f-1dcc63bce8cc","","null","<div style=""display: flex; justify-content: center; align-items: center;"">
                    <img src=""images/causal/causal_series_9/causal_series_9_d.jpg"" style=""width: 300px; height: 300px;"" />
                  </div>","null","",""
"","","","","","html-button-response","52","241332","0.0-38.0","8E2474F56D8F426F800DAEB5F192BD1E","8E2474F56D8F426F800DAEB5F192BD1E","9abb3df5-30ff-48d1-bd73-e69f635f83f0","54f8d589-66fc-4c65-830f-1dcc63bce8cc","{""participantId"":""8E2474F56D8F426F800DAEB5F192BD1E"",""assignmentId"":""9abb3df5-30ff-48d1-bd73-e69f635f83f0"",""projectId"":""54f8d589-66fc-4c65-830f-1dcc63bce8cc""}","https://test12345.live/?participantId=8E2474F56D8F426F800DAEB5F192BD1E&assignmentId=9abb3df5-30ff-48d1-bd73-e69f635f83f0&projectId=54f8d589-66fc-4c65-830f-1dcc63bce8cc","","1455","Was there a person in the picture?","1","",""
"","","","","","survey-likert","53","244492","0.0-39.0","8E2474F56D8F426F800DAEB5F192BD1E","8E2474F56D8F426F800DAEB5F192BD1E","9abb3df5-30ff-48d1-bd73-e69f635f83f0","54f8d589-66fc-4c65-830f-1dcc63bce8cc","{""participantId"":""8E2474F56D8F426F800DAEB5F192BD1E"",""assignmentId"":""9abb3df5-30ff-48d1-bd73-e69f635f83f0"",""projectId"":""54f8d589-66fc-4c65-830f-1dcc63bce8cc""}","https://test12345.live/?participantId=8E2474F56D8F426F800DAEB5F192BD1E&assignmentId=9abb3df5-30ff-48d1-bd73-e69f635f83f0&projectId=54f8d589-66fc-4c65-830f-1dcc63bce8cc","","3161","","{""Q0"":3}","","[0]"
"","","","","","html-button-response","54","245617","0.0-40.0","8E2474F56D8F426F800DAEB5F192BD1E","8E2474F56D8F426F800DAEB5F192BD1E","9abb3df5-30ff-48d1-bd73-e69f635f83f0","54f8d589-66fc-4c65-830f-1dcc63bce8cc","{""participantId"":""8E2474F56D8F426F800DAEB5F192BD1E"",""assignmentId"":""9abb3df5-30ff-48d1-bd73-e69f635f83f0"",""projectId"":""54f8d589-66fc-4c65-830f-1dcc63bce8cc""}","https://test12345.live/?participantId=8E2474F56D8F426F800DAEB5F192BD1E&assignmentId=9abb3df5-30ff-48d1-bd73-e69f635f83f0&projectId=54f8d589-66fc-4c65-830f-1dcc63bce8cc","","1122","
    <div style=""display: flex; justify-content: center; align-items: center;"">
      <img src=""images/red_deck_2.png"" style=""width: 300px; height: 300px; margin-right: 10px;"" />
      <img src=""images/blue_deck_1.png"" style=""width: 300px; height: 300px;"" />
    </div>","1","1",""
"","","","","","html-keyboard-response","55","248618","0.0-42.0-0.0","8E2474F56D8F426F800DAEB5F192BD1E","8E2474F56D8F426F800DAEB5F192BD1E","9abb3df5-30ff-48d1-bd73-e69f635f83f0","54f8d589-66fc-4c65-830f-1dcc63bce8cc","{""participantId"":""8E2474F56D8F426F800DAEB5F192BD1E"",""assignmentId"":""9abb3df5-30ff-48d1-bd73-e69f635f83f0"",""projectId"":""54f8d589-66fc-4c65-830f-1dcc63bce8cc""}","https://test12345.live/?participantId=8E2474F56D8F426F800DAEB5F192BD1E&assignmentId=9abb3df5-30ff-48d1-bd73-e69f635f83f0&projectId=54f8d589-66fc-4c65-830f-1dcc63bce8cc","","null","<div style=""display: flex; justify-content: center; align-items: center;"">
                    <img src=""images/semantic/semantic_series_8/semantic_series_8_a.jpg"" style=""width: 300px; height: 300px;"" />
                  </div>","null","",""
"","","","","","html-keyboard-response","56","251620","0.0-42.0-1.0","8E2474F56D8F426F800DAEB5F192BD1E","8E2474F56D8F426F800DAEB5F192BD1E","9abb3df5-30ff-48d1-bd73-e69f635f83f0","54f8d589-66fc-4c65-830f-1dcc63bce8cc","{""participantId"":""8E2474F56D8F426F800DAEB5F192BD1E"",""assignmentId"":""9abb3df5-30ff-48d1-bd73-e69f635f83f0"",""projectId"":""54f8d589-66fc-4c65-830f-1dcc63bce8cc""}","https://test12345.live/?participantId=8E2474F56D8F426F800DAEB5F192BD1E&assignmentId=9abb3df5-30ff-48d1-bd73-e69f635f83f0&projectId=54f8d589-66fc-4c65-830f-1dcc63bce8cc","","null","<div style=""display: flex; justify-content: center; align-items: center;"">
                    <img src=""images/semantic/semantic_series_8/semantic_series_8_b.jpg"" style=""width: 300px; height: 300px;"" />
                  </div>","null","",""
"","","","","","html-keyboard-response","57","254622","0.0-42.0-2.0","8E2474F56D8F426F800DAEB5F192BD1E","8E2474F56D8F426F800DAEB5F192BD1E","9abb3df5-30ff-48d1-bd73-e69f635f83f0","54f8d589-66fc-4c65-830f-1dcc63bce8cc","{""participantId"":""8E2474F56D8F426F800DAEB5F192BD1E"",""assignmentId"":""9abb3df5-30ff-48d1-bd73-e69f635f83f0"",""projectId"":""54f8d589-66fc-4c65-830f-1dcc63bce8cc""}","https://test12345.live/?participantId=8E2474F56D8F426F800DAEB5F192BD1E&assignmentId=9abb3df5-30ff-48d1-bd73-e69f635f83f0&projectId=54f8d589-66fc-4c65-830f-1dcc63bce8cc","","null","<div style=""display: flex; justify-content: center; align-items: center;"">
                    <img src=""images/semantic/semantic_series_8/semantic_series_8_c.jpg"" style=""width: 300px; height: 300px;"" />
                  </div>","null","",""
"","","","","","html-keyboard-response","58","257624","0.0-42.0-3.0","8E2474F56D8F426F800DAEB5F192BD1E","8E2474F56D8F426F800DAEB5F192BD1E","9abb3df5-30ff-48d1-bd73-e69f635f83f0","54f8d589-66fc-4c65-830f-1dcc63bce8cc","{""participantId"":""8E2474F56D8F426F800DAEB5F192BD1E"",""assignmentId"":""9abb3df5-30ff-48d1-bd73-e69f635f83f0"",""projectId"":""54f8d589-66fc-4c65-830f-1dcc63bce8cc""}","https://test12345.live/?participantId=8E2474F56D8F426F800DAEB5F192BD1E&assignmentId=9abb3df5-30ff-48d1-bd73-e69f635f83f0&projectId=54f8d589-66fc-4c65-830f-1dcc63bce8cc","","null","<div style=""display: flex; justify-content: center; align-items: center;"">
                    <img src=""images/semantic/semantic_series_8/semantic_series_8_d.jpg"" style=""width: 300px; height: 300px;"" />
                  </div>","null","",""
"","","","","","html-button-response","59","260752","0.0-43.0","8E2474F56D8F426F800DAEB5F192BD1E","8E2474F56D8F426F800DAEB5F192BD1E","9abb3df5-30ff-48d1-bd73-e69f635f83f0","54f8d589-66fc-4c65-830f-1dcc63bce8cc","{""participantId"":""8E2474F56D8F426F800DAEB5F192BD1E"",""assignmentId"":""9abb3df5-30ff-48d1-bd73-e69f635f83f0"",""projectId"":""54f8d589-66fc-4c65-830f-1dcc63bce8cc""}","https://test12345.live/?participantId=8E2474F56D8F426F800DAEB5F192BD1E&assignmentId=9abb3df5-30ff-48d1-bd73-e69f635f83f0&projectId=54f8d589-66fc-4c65-830f-1dcc63bce8cc","","3127","Was there a person in the picture?","1","",""
"","","","","","survey-likert","60","264228","0.0-44.0","8E2474F56D8F426F800DAEB5F192BD1E","8E2474F56D8F426F800DAEB5F192BD1E","9abb3df5-30ff-48d1-bd73-e69f635f83f0","54f8d589-66fc-4c65-830f-1dcc63bce8cc","{""participantId"":""8E2474F56D8F426F800DAEB5F192BD1E"",""assignmentId"":""9abb3df5-30ff-48d1-bd73-e69f635f83f0"",""projectId"":""54f8d589-66fc-4c65-830f-1dcc63bce8cc""}","https://test12345.live/?participantId=8E2474F56D8F426F800DAEB5F192BD1E&assignmentId=9abb3df5-30ff-48d1-bd73-e69f635f83f0&projectId=54f8d589-66fc-4c65-830f-1dcc63bce8cc","","3474","","{""Q0"":2}","","[0]"
"","","","","","html-button-response","61","265787","0.0-45.0","8E2474F56D8F426F800DAEB5F192BD1E","8E2474F56D8F426F800DAEB5F192BD1E","9abb3df5-30ff-48d1-bd73-e69f635f83f0","54f8d589-66fc-4c65-830f-1dcc63bce8cc","{""participantId"":""8E2474F56D8F426F800DAEB5F192BD1E"",""assignmentId"":""9abb3df5-30ff-48d1-bd73-e69f635f83f0"",""projectId"":""54f8d589-66fc-4c65-830f-1dcc63bce8cc""}","https://test12345.live/?participantId=8E2474F56D8F426F800DAEB5F192BD1E&assignmentId=9abb3df5-30ff-48d1-bd73-e69f635f83f0&projectId=54f8d589-66fc-4c65-830f-1dcc63bce8cc","","1558","
    <div style=""display: flex; justify-content: center; align-items: center;"">
      <img src=""images/red_deck_2.png"" style=""width: 300px; height: 300px; margin-right: 10px;"" />
      <img src=""images/blue_deck_1.png"" style=""width: 300px; height: 300px;"" />
    </div>","0","0",""
"","","","","","html-keyboard-response","62","268789","0.0-46.0-0.0","8E2474F56D8F426F800DAEB5F192BD1E","8E2474F56D8F426F800DAEB5F192BD1E","9abb3df5-30ff-48d1-bd73-e69f635f83f0","54f8d589-66fc-4c65-830f-1dcc63bce8cc","{""participantId"":""8E2474F56D8F426F800DAEB5F192BD1E"",""assignmentId"":""9abb3df5-30ff-48d1-bd73-e69f635f83f0"",""projectId"":""54f8d589-66fc-4c65-830f-1dcc63bce8cc""}","https://test12345.live/?participantId=8E2474F56D8F426F800DAEB5F192BD1E&assignmentId=9abb3df5-30ff-48d1-bd73-e69f635f83f0&projectId=54f8d589-66fc-4c65-830f-1dcc63bce8cc","","null","<div style=""display: flex; justify-content: center; align-items: center;"">
                    <img src=""images/causal/causal_series_4/causal_series_4_a.jpg"" style=""width: 300px; height: 300px;"" />
                  </div>","null","",""
"","","","","","html-keyboard-response","63","271791","0.0-46.0-1.0","8E2474F56D8F426F800DAEB5F192BD1E","8E2474F56D8F426F800DAEB5F192BD1E","9abb3df5-30ff-48d1-bd73-e69f635f83f0","54f8d589-66fc-4c65-830f-1dcc63bce8cc","{""participantId"":""8E2474F56D8F426F800DAEB5F192BD1E"",""assignmentId"":""9abb3df5-30ff-48d1-bd73-e69f635f83f0"",""projectId"":""54f8d589-66fc-4c65-830f-1dcc63bce8cc""}","https://test12345.live/?participantId=8E2474F56D8F426F800DAEB5F192BD1E&assignmentId=9abb3df5-30ff-48d1-bd73-e69f635f83f0&projectId=54f8d589-66fc-4c65-830f-1dcc63bce8cc","","null","<div style=""display: flex; justify-content: center; align-items: center;"">
                    <img src=""images/causal/causal_series_4/causal_series_4_b.jpg"" style=""width: 300px; height: 300px;"" />
                  </div>","null","",""
"","","","","","html-keyboard-response","64","274792","0.0-46.0-2.0","8E2474F56D8F426F800DAEB5F192BD1E","8E2474F56D8F426F800DAEB5F192BD1E","9abb3df5-30ff-48d1-bd73-e69f635f83f0","54f8d589-66fc-4c65-830f-1dcc63bce8cc","{""participantId"":""8E2474F56D8F426F800DAEB5F192BD1E"",""assignmentId"":""9abb3df5-30ff-48d1-bd73-e69f635f83f0"",""projectId"":""54f8d589-66fc-4c65-830f-1dcc63bce8cc""}","https://test12345.live/?participantId=8E2474F56D8F426F800DAEB5F192BD1E&assignmentId=9abb3df5-30ff-48d1-bd73-e69f635f83f0&projectId=54f8d589-66fc-4c65-830f-1dcc63bce8cc","","null","<div style=""display: flex; justify-content: center; align-items: center;"">
                    <img src=""images/causal/causal_series_4/causal_series_4_c.jpg"" style=""width: 300px; height: 300px;"" />
                  </div>","null","",""
"","","","","","html-keyboard-response","65","277794","0.0-46.0-3.0","8E2474F56D8F426F800DAEB5F192BD1E","8E2474F56D8F426F800DAEB5F192BD1E","9abb3df5-30ff-48d1-bd73-e69f635f83f0","54f8d589-66fc-4c65-830f-1dcc63bce8cc","{""participantId"":""8E2474F56D8F426F800DAEB5F192BD1E"",""assignmentId"":""9abb3df5-30ff-48d1-bd73-e69f635f83f0"",""projectId"":""54f8d589-66fc-4c65-830f-1dcc63bce8cc""}","https://test12345.live/?participantId=8E2474F56D8F426F800DAEB5F192BD1E&assignmentId=9abb3df5-30ff-48d1-bd73-e69f635f83f0&projectId=54f8d589-66fc-4c65-830f-1dcc63bce8cc","","null","<div style=""display: flex; justify-content: center; align-items: center;"">
                    <img src=""images/causal/causal_series_4/causal_series_4_d.jpg"" style=""width: 300px; height: 300px;"" />
                  </div>","null","",""
"","","","","","html-button-response","66","279791","0.0-48.0","8E2474F56D8F426F800DAEB5F192BD1E","8E2474F56D8F426F800DAEB5F192BD1E","9abb3df5-30ff-48d1-bd73-e69f635f83f0","54f8d589-66fc-4c65-830f-1dcc63bce8cc","{""participantId"":""8E2474F56D8F426F800DAEB5F192BD1E"",""assignmentId"":""9abb3df5-30ff-48d1-bd73-e69f635f83f0"",""projectId"":""54f8d589-66fc-4c65-830f-1dcc63bce8cc""}","https://test12345.live/?participantId=8E2474F56D8F426F800DAEB5F192BD1E&assignmentId=9abb3df5-30ff-48d1-bd73-e69f635f83f0&projectId=54f8d589-66fc-4c65-830f-1dcc63bce8cc","","1996","Was there a person in the picture?","1","",""
"","","","","","survey-likert","67","285900","0.0-49.0","8E2474F56D8F426F800DAEB5F192BD1E","8E2474F56D8F426F800DAEB5F192BD1E","9abb3df5-30ff-48d1-bd73-e69f635f83f0","54f8d589-66fc-4c65-830f-1dcc63bce8cc","{""participantId"":""8E2474F56D8F426F800DAEB5F192BD1E"",""assignmentId"":""9abb3df5-30ff-48d1-bd73-e69f635f83f0"",""projectId"":""54f8d589-66fc-4c65-830f-1dcc63bce8cc""}","https://test12345.live/?participantId=8E2474F56D8F426F800DAEB5F192BD1E&assignmentId=9abb3df5-30ff-48d1-bd73-e69f635f83f0&projectId=54f8d589-66fc-4c65-830f-1dcc63bce8cc","","6109","","{""Q0"":1}","","[0]"
"","","","","","html-button-response","68","288310","0.0-50.0","8E2474F56D8F426F800DAEB5F192BD1E","8E2474F56D8F426F800DAEB5F192BD1E","9abb3df5-30ff-48d1-bd73-e69f635f83f0","54f8d589-66fc-4c65-830f-1dcc63bce8cc","{""participantId"":""8E2474F56D8F426F800DAEB5F192BD1E"",""assignmentId"":""9abb3df5-30ff-48d1-bd73-e69f635f83f0"",""projectId"":""54f8d589-66fc-4c65-830f-1dcc63bce8cc""}","https://test12345.live/?participantId=8E2474F56D8F426F800DAEB5F192BD1E&assignmentId=9abb3df5-30ff-48d1-bd73-e69f635f83f0&projectId=54f8d589-66fc-4c65-830f-1dcc63bce8cc","","2409","
    <div style=""display: flex; justify-content: center; align-items: center;"">
      <img src=""images/red_deck_2.png"" style=""width: 300px; height: 300px; margin-right: 10px;"" />
      <img src=""images/blue_deck_1.png"" style=""width: 300px; height: 300px;"" />
    </div>","0","0",""
"","","","","","html-keyboard-response","69","291312","0.0-51.0-0.0","8E2474F56D8F426F800DAEB5F192BD1E","8E2474F56D8F426F800DAEB5F192BD1E","9abb3df5-30ff-48d1-bd73-e69f635f83f0","54f8d589-66fc-4c65-830f-1dcc63bce8cc","{""participantId"":""8E2474F56D8F426F800DAEB5F192BD1E"",""assignmentId"":""9abb3df5-30ff-48d1-bd73-e69f635f83f0"",""projectId"":""54f8d589-66fc-4c65-830f-1dcc63bce8cc""}","https://test12345.live/?participantId=8E2474F56D8F426F800DAEB5F192BD1E&assignmentId=9abb3df5-30ff-48d1-bd73-e69f635f83f0&projectId=54f8d589-66fc-4c65-830f-1dcc63bce8cc","","null","<div style=""display: flex; justify-content: center; align-items: center;"">
                    <img src=""images/causal/causal_series_6/causal_series_6_a.jpg"" style=""width: 300px; height: 300px;"" />
                  </div>","null","",""
"","","","","","html-keyboard-response","70","294314","0.0-51.0-1.0","8E2474F56D8F426F800DAEB5F192BD1E","8E2474F56D8F426F800DAEB5F192BD1E","9abb3df5-30ff-48d1-bd73-e69f635f83f0","54f8d589-66fc-4c65-830f-1dcc63bce8cc","{""participantId"":""8E2474F56D8F426F800DAEB5F192BD1E"",""assignmentId"":""9abb3df5-30ff-48d1-bd73-e69f635f83f0"",""projectId"":""54f8d589-66fc-4c65-830f-1dcc63bce8cc""}","https://test12345.live/?participantId=8E2474F56D8F426F800DAEB5F192BD1E&assignmentId=9abb3df5-30ff-48d1-bd73-e69f635f83f0&projectId=54f8d589-66fc-4c65-830f-1dcc63bce8cc","","null","<div style=""display: flex; justify-content: center; align-items: center;"">
                    <img src=""images/causal/causal_series_6/causal_series_6_b.jpg"" style=""width: 300px; height: 300px;"" />
                  </div>","null","",""
"","","","","","html-keyboard-response","71","297316","0.0-51.0-2.0","8E2474F56D8F426F800DAEB5F192BD1E","8E2474F56D8F426F800DAEB5F192BD1E","9abb3df5-30ff-48d1-bd73-e69f635f83f0","54f8d589-66fc-4c65-830f-1dcc63bce8cc","{""participantId"":""8E2474F56D8F426F800DAEB5F192BD1E"",""assignmentId"":""9abb3df5-30ff-48d1-bd73-e69f635f83f0"",""projectId"":""54f8d589-66fc-4c65-830f-1dcc63bce8cc""}","https://test12345.live/?participantId=8E2474F56D8F426F800DAEB5F192BD1E&assignmentId=9abb3df5-30ff-48d1-bd73-e69f635f83f0&projectId=54f8d589-66fc-4c65-830f-1dcc63bce8cc","","null","<div style=""display: flex; justify-content: center; align-items: center;"">
                    <img src=""images/causal/causal_series_6/causal_series_6_c.jpg"" style=""width: 300px; height: 300px;"" />
                  </div>","null","",""
"","","","","","html-keyboard-response","72","300318","0.0-51.0-3.0","8E2474F56D8F426F800DAEB5F192BD1E","8E2474F56D8F426F800DAEB5F192BD1E","9abb3df5-30ff-48d1-bd73-e69f635f83f0","54f8d589-66fc-4c65-830f-1dcc63bce8cc","{""participantId"":""8E2474F56D8F426F800DAEB5F192BD1E"",""assignmentId"":""9abb3df5-30ff-48d1-bd73-e69f635f83f0"",""projectId"":""54f8d589-66fc-4c65-830f-1dcc63bce8cc""}","https://test12345.live/?participantId=8E2474F56D8F426F800DAEB5F192BD1E&assignmentId=9abb3df5-30ff-48d1-bd73-e69f635f83f0&projectId=54f8d589-66fc-4c65-830f-1dcc63bce8cc","","null","<div style=""display: flex; justify-content: center; align-items: center;"">
                    <img src=""images/causal/causal_series_6/causal_series_6_d.jpg"" style=""width: 300px; height: 300px;"" />
                  </div>","null","",""
"","","","","","html-button-response","73","305362","0.0-53.0","8E2474F56D8F426F800DAEB5F192BD1E","8E2474F56D8F426F800DAEB5F192BD1E","9abb3df5-30ff-48d1-bd73-e69f635f83f0","54f8d589-66fc-4c65-830f-1dcc63bce8cc","{""participantId"":""8E2474F56D8F426F800DAEB5F192BD1E"",""assignmentId"":""9abb3df5-30ff-48d1-bd73-e69f635f83f0"",""projectId"":""54f8d589-66fc-4c65-830f-1dcc63bce8cc""}","https://test12345.live/?participantId=8E2474F56D8F426F800DAEB5F192BD1E&assignmentId=9abb3df5-30ff-48d1-bd73-e69f635f83f0&projectId=54f8d589-66fc-4c65-830f-1dcc63bce8cc","","5044","Was there a person in the picture?","1","",""
"","","","","","survey-likert","74","311065","0.0-54.0","8E2474F56D8F426F800DAEB5F192BD1E","8E2474F56D8F426F800DAEB5F192BD1E","9abb3df5-30ff-48d1-bd73-e69f635f83f0","54f8d589-66fc-4c65-830f-1dcc63bce8cc","{""participantId"":""8E2474F56D8F426F800DAEB5F192BD1E"",""assignmentId"":""9abb3df5-30ff-48d1-bd73-e69f635f83f0"",""projectId"":""54f8d589-66fc-4c65-830f-1dcc63bce8cc""}","https://test12345.live/?participantId=8E2474F56D8F426F800DAEB5F192BD1E&assignmentId=9abb3df5-30ff-48d1-bd73-e69f635f83f0&projectId=54f8d589-66fc-4c65-830f-1dcc63bce8cc","","5702","","{""Q0"":1}","","[0]"
"","","","","","html-button-response","75","312765","0.0-55.0","8E2474F56D8F426F800DAEB5F192BD1E","8E2474F56D8F426F800DAEB5F192BD1E","9abb3df5-30ff-48d1-bd73-e69f635f83f0","54f8d589-66fc-4c65-830f-1dcc63bce8cc","{""participantId"":""8E2474F56D8F426F800DAEB5F192BD1E"",""assignmentId"":""9abb3df5-30ff-48d1-bd73-e69f635f83f0"",""projectId"":""54f8d589-66fc-4c65-830f-1dcc63bce8cc""}","https://test12345.live/?participantId=8E2474F56D8F426F800DAEB5F192BD1E&assignmentId=9abb3df5-30ff-48d1-bd73-e69f635f83f0&projectId=54f8d589-66fc-4c65-830f-1dcc63bce8cc","","1700","
    <div style=""display: flex; justify-content: center; align-items: center;"">
      <img src=""images/red_deck_2.png"" style=""width: 300px; height: 300px; margin-right: 10px;"" />
      <img src=""images/blue_deck_1.png"" style=""width: 300px; height: 300px;"" />
    </div>","1","1",""
"","","","","","html-keyboard-response","76","315766","0.0-57.0-0.0","8E2474F56D8F426F800DAEB5F192BD1E","8E2474F56D8F426F800DAEB5F192BD1E","9abb3df5-30ff-48d1-bd73-e69f635f83f0","54f8d589-66fc-4c65-830f-1dcc63bce8cc","{""participantId"":""8E2474F56D8F426F800DAEB5F192BD1E"",""assignmentId"":""9abb3df5-30ff-48d1-bd73-e69f635f83f0"",""projectId"":""54f8d589-66fc-4c65-830f-1dcc63bce8cc""}","https://test12345.live/?participantId=8E2474F56D8F426F800DAEB5F192BD1E&assignmentId=9abb3df5-30ff-48d1-bd73-e69f635f83f0&projectId=54f8d589-66fc-4c65-830f-1dcc63bce8cc","","null","<div style=""display: flex; justify-content: center; align-items: center;"">
                    <img src=""images/semantic/semantic_series_13/semantic_series_13_a.jpg"" style=""width: 300px; height: 300px;"" />
                  </div>","null","",""
"","","","","","html-keyboard-response","77","318768","0.0-57.0-1.0","8E2474F56D8F426F800DAEB5F192BD1E","8E2474F56D8F426F800DAEB5F192BD1E","9abb3df5-30ff-48d1-bd73-e69f635f83f0","54f8d589-66fc-4c65-830f-1dcc63bce8cc","{""participantId"":""8E2474F56D8F426F800DAEB5F192BD1E"",""assignmentId"":""9abb3df5-30ff-48d1-bd73-e69f635f83f0"",""projectId"":""54f8d589-66fc-4c65-830f-1dcc63bce8cc""}","https://test12345.live/?participantId=8E2474F56D8F426F800DAEB5F192BD1E&assignmentId=9abb3df5-30ff-48d1-bd73-e69f635f83f0&projectId=54f8d589-66fc-4c65-830f-1dcc63bce8cc","","null","<div style=""display: flex; justify-content: center; align-items: center;"">
                    <img src=""images/semantic/semantic_series_13/semantic_series_13_b.jpg"" style=""width: 300px; height: 300px;"" />
                  </div>","null","",""
"","","","","","html-keyboard-response","78","321770","0.0-57.0-2.0","8E2474F56D8F426F800DAEB5F192BD1E","8E2474F56D8F426F800DAEB5F192BD1E","9abb3df5-30ff-48d1-bd73-e69f635f83f0","54f8d589-66fc-4c65-830f-1dcc63bce8cc","{""participantId"":""8E2474F56D8F426F800DAEB5F192BD1E"",""assignmentId"":""9abb3df5-30ff-48d1-bd73-e69f635f83f0"",""projectId"":""54f8d589-66fc-4c65-830f-1dcc63bce8cc""}","https://test12345.live/?participantId=8E2474F56D8F426F800DAEB5F192BD1E&assignmentId=9abb3df5-30ff-48d1-bd73-e69f635f83f0&projectId=54f8d589-66fc-4c65-830f-1dcc63bce8cc","","null","<div style=""display: flex; justify-content: center; align-items: center;"">
                    <img src=""images/semantic/semantic_series_13/semantic_series_13_c.jpg"" style=""width: 300px; height: 300px;"" />
                  </div>","null","",""
"","","","","","html-keyboard-response","79","324772","0.0-57.0-3.0","8E2474F56D8F426F800DAEB5F192BD1E","8E2474F56D8F426F800DAEB5F192BD1E","9abb3df5-30ff-48d1-bd73-e69f635f83f0","54f8d589-66fc-4c65-830f-1dcc63bce8cc","{""participantId"":""8E2474F56D8F426F800DAEB5F192BD1E"",""assignmentId"":""9abb3df5-30ff-48d1-bd73-e69f635f83f0"",""projectId"":""54f8d589-66fc-4c65-830f-1dcc63bce8cc""}","https://test12345.live/?participantId=8E2474F56D8F426F800DAEB5F192BD1E&assignmentId=9abb3df5-30ff-48d1-bd73-e69f635f83f0&projectId=54f8d589-66fc-4c65-830f-1dcc63bce8cc","","null","<div style=""display: flex; justify-content: center; align-items: center;"">
                    <img src=""images/semantic/semantic_series_13/semantic_series_13_d.jpg"" style=""width: 300px; height: 300px;"" />
                  </div>","null","",""
"","","","","","html-button-response","80","327859","0.0-58.0","8E2474F56D8F426F800DAEB5F192BD1E","8E2474F56D8F426F800DAEB5F192BD1E","9abb3df5-30ff-48d1-bd73-e69f635f83f0","54f8d589-66fc-4c65-830f-1dcc63bce8cc","{""participantId"":""8E2474F56D8F426F800DAEB5F192BD1E"",""assignmentId"":""9abb3df5-30ff-48d1-bd73-e69f635f83f0"",""projectId"":""54f8d589-66fc-4c65-830f-1dcc63bce8cc""}","https://test12345.live/?participantId=8E2474F56D8F426F800DAEB5F192BD1E&assignmentId=9abb3df5-30ff-48d1-bd73-e69f635f83f0&projectId=54f8d589-66fc-4c65-830f-1dcc63bce8cc","","3085","Was there a person in the picture?","0","",""
"","","","","","survey-likert","81","331091","0.0-59.0","8E2474F56D8F426F800DAEB5F192BD1E","8E2474F56D8F426F800DAEB5F192BD1E","9abb3df5-30ff-48d1-bd73-e69f635f83f0","54f8d589-66fc-4c65-830f-1dcc63bce8cc","{""participantId"":""8E2474F56D8F426F800DAEB5F192BD1E"",""assignmentId"":""9abb3df5-30ff-48d1-bd73-e69f635f83f0"",""projectId"":""54f8d589-66fc-4c65-830f-1dcc63bce8cc""}","https://test12345.live/?participantId=8E2474F56D8F426F800DAEB5F192BD1E&assignmentId=9abb3df5-30ff-48d1-bd73-e69f635f83f0&projectId=54f8d589-66fc-4c65-830f-1dcc63bce8cc","","3231","","{""Q0"":3}","","[0]"
"","","","","","html-button-response","82","332854","0.0-60.0","8E2474F56D8F426F800DAEB5F192BD1E","8E2474F56D8F426F800DAEB5F192BD1E","9abb3df5-30ff-48d1-bd73-e69f635f83f0","54f8d589-66fc-4c65-830f-1dcc63bce8cc","{""participantId"":""8E2474F56D8F426F800DAEB5F192BD1E"",""assignmentId"":""9abb3df5-30ff-48d1-bd73-e69f635f83f0"",""projectId"":""54f8d589-66fc-4c65-830f-1dcc63bce8cc""}","https://test12345.live/?participantId=8E2474F56D8F426F800DAEB5F192BD1E&assignmentId=9abb3df5-30ff-48d1-bd73-e69f635f83f0&projectId=54f8d589-66fc-4c65-830f-1dcc63bce8cc","","1761","
    <div style=""display: flex; justify-content: center; align-items: center;"">
      <img src=""images/red_deck_2.png"" style=""width: 300px; height: 300px; margin-right: 10px;"" />
      <img src=""images/blue_deck_1.png"" style=""width: 300px; height: 300px;"" />
    </div>","1","1",""
"","","","","","html-keyboard-response","83","335856","0.0-62.0-0.0","8E2474F56D8F426F800DAEB5F192BD1E","8E2474F56D8F426F800DAEB5F192BD1E","9abb3df5-30ff-48d1-bd73-e69f635f83f0","54f8d589-66fc-4c65-830f-1dcc63bce8cc","{""participantId"":""8E2474F56D8F426F800DAEB5F192BD1E"",""assignmentId"":""9abb3df5-30ff-48d1-bd73-e69f635f83f0"",""projectId"":""54f8d589-66fc-4c65-830f-1dcc63bce8cc""}","https://test12345.live/?participantId=8E2474F56D8F426F800DAEB5F192BD1E&assignmentId=9abb3df5-30ff-48d1-bd73-e69f635f83f0&projectId=54f8d589-66fc-4c65-830f-1dcc63bce8cc","","null","<div style=""display: flex; justify-content: center; align-items: center;"">
                    <img src=""images/semantic/semantic_series_4/semantic_series_4_a.jpg"" style=""width: 300px; height: 300px;"" />
                  </div>","null","",""
"","","","","","html-keyboard-response","84","338857","0.0-62.0-1.0","8E2474F56D8F426F800DAEB5F192BD1E","8E2474F56D8F426F800DAEB5F192BD1E","9abb3df5-30ff-48d1-bd73-e69f635f83f0","54f8d589-66fc-4c65-830f-1dcc63bce8cc","{""participantId"":""8E2474F56D8F426F800DAEB5F192BD1E"",""assignmentId"":""9abb3df5-30ff-48d1-bd73-e69f635f83f0"",""projectId"":""54f8d589-66fc-4c65-830f-1dcc63bce8cc""}","https://test12345.live/?participantId=8E2474F56D8F426F800DAEB5F192BD1E&assignmentId=9abb3df5-30ff-48d1-bd73-e69f635f83f0&projectId=54f8d589-66fc-4c65-830f-1dcc63bce8cc","","null","<div style=""display: flex; justify-content: center; align-items: center;"">
                    <img src=""images/semantic/semantic_series_4/semantic_series_4_b.jpg"" style=""width: 300px; height: 300px;"" />
                  </div>","null","",""
"","","","","","html-keyboard-response","85","341859","0.0-62.0-2.0","8E2474F56D8F426F800DAEB5F192BD1E","8E2474F56D8F426F800DAEB5F192BD1E","9abb3df5-30ff-48d1-bd73-e69f635f83f0","54f8d589-66fc-4c65-830f-1dcc63bce8cc","{""participantId"":""8E2474F56D8F426F800DAEB5F192BD1E"",""assignmentId"":""9abb3df5-30ff-48d1-bd73-e69f635f83f0"",""projectId"":""54f8d589-66fc-4c65-830f-1dcc63bce8cc""}","https://test12345.live/?participantId=8E2474F56D8F426F800DAEB5F192BD1E&assignmentId=9abb3df5-30ff-48d1-bd73-e69f635f83f0&projectId=54f8d589-66fc-4c65-830f-1dcc63bce8cc","","null","<div style=""display: flex; justify-content: center; align-items: center;"">
                    <img src=""images/semantic/semantic_series_4/semantic_series_4_c.jpg"" style=""width: 300px; height: 300px;"" />
                  </div>","null","",""
"","","","","","html-keyboard-response","86","344861","0.0-62.0-3.0","8E2474F56D8F426F800DAEB5F192BD1E","8E2474F56D8F426F800DAEB5F192BD1E","9abb3df5-30ff-48d1-bd73-e69f635f83f0","54f8d589-66fc-4c65-830f-1dcc63bce8cc","{""participantId"":""8E2474F56D8F426F800DAEB5F192BD1E"",""assignmentId"":""9abb3df5-30ff-48d1-bd73-e69f635f83f0"",""projectId"":""54f8d589-66fc-4c65-830f-1dcc63bce8cc""}","https://test12345.live/?participantId=8E2474F56D8F426F800DAEB5F192BD1E&assignmentId=9abb3df5-30ff-48d1-bd73-e69f635f83f0&projectId=54f8d589-66fc-4c65-830f-1dcc63bce8cc","","null","<div style=""display: flex; justify-content: center; align-items: center;"">
                    <img src=""images/semantic/semantic_series_4/semantic_series_4_d.jpg"" style=""width: 300px; height: 300px;"" />
                  </div>","null","",""
"","","","","","html-button-response","87","347706","0.0-63.0","8E2474F56D8F426F800DAEB5F192BD1E","8E2474F56D8F426F800DAEB5F192BD1E","9abb3df5-30ff-48d1-bd73-e69f635f83f0","54f8d589-66fc-4c65-830f-1dcc63bce8cc","{""participantId"":""8E2474F56D8F426F800DAEB5F192BD1E"",""assignmentId"":""9abb3df5-30ff-48d1-bd73-e69f635f83f0"",""projectId"":""54f8d589-66fc-4c65-830f-1dcc63bce8cc""}","https://test12345.live/?participantId=8E2474F56D8F426F800DAEB5F192BD1E&assignmentId=9abb3df5-30ff-48d1-bd73-e69f635f83f0&projectId=54f8d589-66fc-4c65-830f-1dcc63bce8cc","","2844","Was there a person in the picture?","1","",""
"","","","","","survey-likert","88","350948","0.0-64.0","8E2474F56D8F426F800DAEB5F192BD1E","8E2474F56D8F426F800DAEB5F192BD1E","9abb3df5-30ff-48d1-bd73-e69f635f83f0","54f8d589-66fc-4c65-830f-1dcc63bce8cc","{""participantId"":""8E2474F56D8F426F800DAEB5F192BD1E"",""assignmentId"":""9abb3df5-30ff-48d1-bd73-e69f635f83f0"",""projectId"":""54f8d589-66fc-4c65-830f-1dcc63bce8cc""}","https://test12345.live/?participantId=8E2474F56D8F426F800DAEB5F192BD1E&assignmentId=9abb3df5-30ff-48d1-bd73-e69f635f83f0&projectId=54f8d589-66fc-4c65-830f-1dcc63bce8cc","","3241","","{""Q0"":2}","","[0]"
"","","","","","html-button-response","89","352254","0.0-65.0","8E2474F56D8F426F800DAEB5F192BD1E","8E2474F56D8F426F800DAEB5F192BD1E","9abb3df5-30ff-48d1-bd73-e69f635f83f0","54f8d589-66fc-4c65-830f-1dcc63bce8cc","{""participantId"":""8E2474F56D8F426F800DAEB5F192BD1E"",""assignmentId"":""9abb3df5-30ff-48d1-bd73-e69f635f83f0"",""projectId"":""54f8d589-66fc-4c65-830f-1dcc63bce8cc""}","https://test12345.live/?participantId=8E2474F56D8F426F800DAEB5F192BD1E&assignmentId=9abb3df5-30ff-48d1-bd73-e69f635f83f0&projectId=54f8d589-66fc-4c65-830f-1dcc63bce8cc","","1304","
    <div style=""display: flex; justify-content: center; align-items: center;"">
      <img src=""images/red_deck_2.png"" style=""width: 300px; height: 300px; margin-right: 10px;"" />
      <img src=""images/blue_deck_1.png"" style=""width: 300px; height: 300px;"" />
    </div>","1","1",""
"","","","","","html-keyboard-response","90","355256","0.0-67.0-0.0","8E2474F56D8F426F800DAEB5F192BD1E","8E2474F56D8F426F800DAEB5F192BD1E","9abb3df5-30ff-48d1-bd73-e69f635f83f0","54f8d589-66fc-4c65-830f-1dcc63bce8cc","{""participantId"":""8E2474F56D8F426F800DAEB5F192BD1E"",""assignmentId"":""9abb3df5-30ff-48d1-bd73-e69f635f83f0"",""projectId"":""54f8d589-66fc-4c65-830f-1dcc63bce8cc""}","https://test12345.live/?participantId=8E2474F56D8F426F800DAEB5F192BD1E&assignmentId=9abb3df5-30ff-48d1-bd73-e69f635f83f0&projectId=54f8d589-66fc-4c65-830f-1dcc63bce8cc","","null","<div style=""display: flex; justify-content: center; align-items: center;"">
                    <img src=""images/semantic/semantic_series_10/semantic_series_10_a.jpg"" style=""width: 300px; height: 300px;"" />
                  </div>","null","",""
"","","","","","html-keyboard-response","91","358257","0.0-67.0-1.0","8E2474F56D8F426F800DAEB5F192BD1E","8E2474F56D8F426F800DAEB5F192BD1E","9abb3df5-30ff-48d1-bd73-e69f635f83f0","54f8d589-66fc-4c65-830f-1dcc63bce8cc","{""participantId"":""8E2474F56D8F426F800DAEB5F192BD1E"",""assignmentId"":""9abb3df5-30ff-48d1-bd73-e69f635f83f0"",""projectId"":""54f8d589-66fc-4c65-830f-1dcc63bce8cc""}","https://test12345.live/?participantId=8E2474F56D8F426F800DAEB5F192BD1E&assignmentId=9abb3df5-30ff-48d1-bd73-e69f635f83f0&projectId=54f8d589-66fc-4c65-830f-1dcc63bce8cc","","null","<div style=""display: flex; justify-content: center; align-items: center;"">
                    <img src=""images/semantic/semantic_series_10/semantic_series_10_b.jpg"" style=""width: 300px; height: 300px;"" />
                  </div>","null","",""
"","","","","","html-keyboard-response","92","361258","0.0-67.0-2.0","8E2474F56D8F426F800DAEB5F192BD1E","8E2474F56D8F426F800DAEB5F192BD1E","9abb3df5-30ff-48d1-bd73-e69f635f83f0","54f8d589-66fc-4c65-830f-1dcc63bce8cc","{""participantId"":""8E2474F56D8F426F800DAEB5F192BD1E"",""assignmentId"":""9abb3df5-30ff-48d1-bd73-e69f635f83f0"",""projectId"":""54f8d589-66fc-4c65-830f-1dcc63bce8cc""}","https://test12345.live/?participantId=8E2474F56D8F426F800DAEB5F192BD1E&assignmentId=9abb3df5-30ff-48d1-bd73-e69f635f83f0&projectId=54f8d589-66fc-4c65-830f-1dcc63bce8cc","","null","<div style=""display: flex; justify-content: center; align-items: center;"">
                    <img src=""images/semantic/semantic_series_10/semantic_series_10_c.jpg"" style=""width: 300px; height: 300px;"" />
                  </div>","null","",""
"","","","","","html-keyboard-response","93","364259","0.0-67.0-3.0","8E2474F56D8F426F800DAEB5F192BD1E","8E2474F56D8F426F800DAEB5F192BD1E","9abb3df5-30ff-48d1-bd73-e69f635f83f0","54f8d589-66fc-4c65-830f-1dcc63bce8cc","{""participantId"":""8E2474F56D8F426F800DAEB5F192BD1E"",""assignmentId"":""9abb3df5-30ff-48d1-bd73-e69f635f83f0"",""projectId"":""54f8d589-66fc-4c65-830f-1dcc63bce8cc""}","https://test12345.live/?participantId=8E2474F56D8F426F800DAEB5F192BD1E&assignmentId=9abb3df5-30ff-48d1-bd73-e69f635f83f0&projectId=54f8d589-66fc-4c65-830f-1dcc63bce8cc","","null","<div style=""display: flex; justify-content: center; align-items: center;"">
                    <img src=""images/semantic/semantic_series_10/semantic_series_10_d.jpg"" style=""width: 300px; height: 300px;"" />
                  </div>","null","",""
"","","","","","html-button-response","94","367472","0.0-68.0","8E2474F56D8F426F800DAEB5F192BD1E","8E2474F56D8F426F800DAEB5F192BD1E","9abb3df5-30ff-48d1-bd73-e69f635f83f0","54f8d589-66fc-4c65-830f-1dcc63bce8cc","{""participantId"":""8E2474F56D8F426F800DAEB5F192BD1E"",""assignmentId"":""9abb3df5-30ff-48d1-bd73-e69f635f83f0"",""projectId"":""54f8d589-66fc-4c65-830f-1dcc63bce8cc""}","https://test12345.live/?participantId=8E2474F56D8F426F800DAEB5F192BD1E&assignmentId=9abb3df5-30ff-48d1-bd73-e69f635f83f0&projectId=54f8d589-66fc-4c65-830f-1dcc63bce8cc","","3214","Was there a person in the picture?","1","",""
"","","","","","survey-likert","95","369986","0.0-69.0","8E2474F56D8F426F800DAEB5F192BD1E","8E2474F56D8F426F800DAEB5F192BD1E","9abb3df5-30ff-48d1-bd73-e69f635f83f0","54f8d589-66fc-4c65-830f-1dcc63bce8cc","{""participantId"":""8E2474F56D8F426F800DAEB5F192BD1E"",""assignmentId"":""9abb3df5-30ff-48d1-bd73-e69f635f83f0"",""projectId"":""54f8d589-66fc-4c65-830f-1dcc63bce8cc""}","https://test12345.live/?participantId=8E2474F56D8F426F800DAEB5F192BD1E&assignmentId=9abb3df5-30ff-48d1-bd73-e69f635f83f0&projectId=54f8d589-66fc-4c65-830f-1dcc63bce8cc","","2512","","{""Q0"":4}","","[0]"
"","","","","","html-button-response","96","371707","0.0-70.0","8E2474F56D8F426F800DAEB5F192BD1E","8E2474F56D8F426F800DAEB5F192BD1E","9abb3df5-30ff-48d1-bd73-e69f635f83f0","54f8d589-66fc-4c65-830f-1dcc63bce8cc","{""participantId"":""8E2474F56D8F426F800DAEB5F192BD1E"",""assignmentId"":""9abb3df5-30ff-48d1-bd73-e69f635f83f0"",""projectId"":""54f8d589-66fc-4c65-830f-1dcc63bce8cc""}","https://test12345.live/?participantId=8E2474F56D8F426F800DAEB5F192BD1E&assignmentId=9abb3df5-30ff-48d1-bd73-e69f635f83f0&projectId=54f8d589-66fc-4c65-830f-1dcc63bce8cc","","1720","
    <div style=""display: flex; justify-content: center; align-items: center;"">
      <img src=""images/red_deck_2.png"" style=""width: 300px; height: 300px; margin-right: 10px;"" />
      <img src=""images/blue_deck_1.png"" style=""width: 300px; height: 300px;"" />
    </div>","1","1",""
"","","","","","html-keyboard-response","97","374708","0.0-72.0-0.0","8E2474F56D8F426F800DAEB5F192BD1E","8E2474F56D8F426F800DAEB5F192BD1E","9abb3df5-30ff-48d1-bd73-e69f635f83f0","54f8d589-66fc-4c65-830f-1dcc63bce8cc","{""participantId"":""8E2474F56D8F426F800DAEB5F192BD1E"",""assignmentId"":""9abb3df5-30ff-48d1-bd73-e69f635f83f0"",""projectId"":""54f8d589-66fc-4c65-830f-1dcc63bce8cc""}","https://test12345.live/?participantId=8E2474F56D8F426F800DAEB5F192BD1E&assignmentId=9abb3df5-30ff-48d1-bd73-e69f635f83f0&projectId=54f8d589-66fc-4c65-830f-1dcc63bce8cc","","null","<div style=""display: flex; justify-content: center; align-items: center;"">
                    <img src=""images/semantic/semantic_series_18/semantic_series_18_a.jpg"" style=""width: 300px; height: 300px;"" />
                  </div>","null","",""
"","","","","","html-keyboard-response","98","377710","0.0-72.0-1.0","8E2474F56D8F426F800DAEB5F192BD1E","8E2474F56D8F426F800DAEB5F192BD1E","9abb3df5-30ff-48d1-bd73-e69f635f83f0","54f8d589-66fc-4c65-830f-1dcc63bce8cc","{""participantId"":""8E2474F56D8F426F800DAEB5F192BD1E"",""assignmentId"":""9abb3df5-30ff-48d1-bd73-e69f635f83f0"",""projectId"":""54f8d589-66fc-4c65-830f-1dcc63bce8cc""}","https://test12345.live/?participantId=8E2474F56D8F426F800DAEB5F192BD1E&assignmentId=9abb3df5-30ff-48d1-bd73-e69f635f83f0&projectId=54f8d589-66fc-4c65-830f-1dcc63bce8cc","","null","<div style=""display: flex; justify-content: center; align-items: center;"">
                    <img src=""images/semantic/semantic_series_18/semantic_series_18_b.jpg"" style=""width: 300px; height: 300px;"" />
                  </div>","null","",""
"","","","","","html-keyboard-response","99","380713","0.0-72.0-2.0","8E2474F56D8F426F800DAEB5F192BD1E","8E2474F56D8F426F800DAEB5F192BD1E","9abb3df5-30ff-48d1-bd73-e69f635f83f0","54f8d589-66fc-4c65-830f-1dcc63bce8cc","{""participantId"":""8E2474F56D8F426F800DAEB5F192BD1E"",""assignmentId"":""9abb3df5-30ff-48d1-bd73-e69f635f83f0"",""projectId"":""54f8d589-66fc-4c65-830f-1dcc63bce8cc""}","https://test12345.live/?participantId=8E2474F56D8F426F800DAEB5F192BD1E&assignmentId=9abb3df5-30ff-48d1-bd73-e69f635f83f0&projectId=54f8d589-66fc-4c65-830f-1dcc63bce8cc","","null","<div style=""display: flex; justify-content: center; align-items: center;"">
                    <img src=""images/semantic/semantic_series_18/semantic_series_18_c.jpg"" style=""width: 300px; height: 300px;"" />
                  </div>","null","",""
"","","","","","html-keyboard-response","100","383716","0.0-72.0-3.0","8E2474F56D8F426F800DAEB5F192BD1E","8E2474F56D8F426F800DAEB5F192BD1E","9abb3df5-30ff-48d1-bd73-e69f635f83f0","54f8d589-66fc-4c65-830f-1dcc63bce8cc","{""participantId"":""8E2474F56D8F426F800DAEB5F192BD1E"",""assignmentId"":""9abb3df5-30ff-48d1-bd73-e69f635f83f0"",""projectId"":""54f8d589-66fc-4c65-830f-1dcc63bce8cc""}","https://test12345.live/?participantId=8E2474F56D8F426F800DAEB5F192BD1E&assignmentId=9abb3df5-30ff-48d1-bd73-e69f635f83f0&projectId=54f8d589-66fc-4c65-830f-1dcc63bce8cc","","null","<div style=""display: flex; justify-content: center; align-items: center;"">
                    <img src=""images/semantic/semantic_series_18/semantic_series_18_d.jpg"" style=""width: 300px; height: 300px;"" />
                  </div>","null","",""
"","","","","","html-button-response","101","386747","0.0-73.0","8E2474F56D8F426F800DAEB5F192BD1E","8E2474F56D8F426F800DAEB5F192BD1E","9abb3df5-30ff-48d1-bd73-e69f635f83f0","54f8d589-66fc-4c65-830f-1dcc63bce8cc","{""participantId"":""8E2474F56D8F426F800DAEB5F192BD1E"",""assignmentId"":""9abb3df5-30ff-48d1-bd73-e69f635f83f0"",""projectId"":""54f8d589-66fc-4c65-830f-1dcc63bce8cc""}","https://test12345.live/?participantId=8E2474F56D8F426F800DAEB5F192BD1E&assignmentId=9abb3df5-30ff-48d1-bd73-e69f635f83f0&projectId=54f8d589-66fc-4c65-830f-1dcc63bce8cc","","3030","Was there a person in the picture?","1","",""
"","","","","","survey-likert","102","391629","0.0-74.0","8E2474F56D8F426F800DAEB5F192BD1E","8E2474F56D8F426F800DAEB5F192BD1E","9abb3df5-30ff-48d1-bd73-e69f635f83f0","54f8d589-66fc-4c65-830f-1dcc63bce8cc","{""participantId"":""8E2474F56D8F426F800DAEB5F192BD1E"",""assignmentId"":""9abb3df5-30ff-48d1-bd73-e69f635f83f0"",""projectId"":""54f8d589-66fc-4c65-830f-1dcc63bce8cc""}","https://test12345.live/?participantId=8E2474F56D8F426F800DAEB5F192BD1E&assignmentId=9abb3df5-30ff-48d1-bd73-e69f635f83f0&projectId=54f8d589-66fc-4c65-830f-1dcc63bce8cc","","4881","","{""Q0"":2}","","[0]"
"","","","","","html-button-response","103","393748","0.0-75.0","8E2474F56D8F426F800DAEB5F192BD1E","8E2474F56D8F426F800DAEB5F192BD1E","9abb3df5-30ff-48d1-bd73-e69f635f83f0","54f8d589-66fc-4c65-830f-1dcc63bce8cc","{""participantId"":""8E2474F56D8F426F800DAEB5F192BD1E"",""assignmentId"":""9abb3df5-30ff-48d1-bd73-e69f635f83f0"",""projectId"":""54f8d589-66fc-4c65-830f-1dcc63bce8cc""}","https://test12345.live/?participantId=8E2474F56D8F426F800DAEB5F192BD1E&assignmentId=9abb3df5-30ff-48d1-bd73-e69f635f83f0&projectId=54f8d589-66fc-4c65-830f-1dcc63bce8cc","","2118","
    <div style=""display: flex; justify-content: center; align-items: center;"">
      <img src=""images/red_deck_2.png"" style=""width: 300px; height: 300px; margin-right: 10px;"" />
      <img src=""images/blue_deck_1.png"" style=""width: 300px; height: 300px;"" />
    </div>","0","0",""
"","","","","","html-keyboard-response","104","396750","0.0-76.0-0.0","8E2474F56D8F426F800DAEB5F192BD1E","8E2474F56D8F426F800DAEB5F192BD1E","9abb3df5-30ff-48d1-bd73-e69f635f83f0","54f8d589-66fc-4c65-830f-1dcc63bce8cc","{""participantId"":""8E2474F56D8F426F800DAEB5F192BD1E"",""assignmentId"":""9abb3df5-30ff-48d1-bd73-e69f635f83f0"",""projectId"":""54f8d589-66fc-4c65-830f-1dcc63bce8cc""}","https://test12345.live/?participantId=8E2474F56D8F426F800DAEB5F192BD1E&assignmentId=9abb3df5-30ff-48d1-bd73-e69f635f83f0&projectId=54f8d589-66fc-4c65-830f-1dcc63bce8cc","","null","<div style=""display: flex; justify-content: center; align-items: center;"">
                    <img src=""images/causal/causal_series_10/causal_series_10_a.jpg"" style=""width: 300px; height: 300px;"" />
                  </div>","null","",""
"","","","","","html-keyboard-response","105","399753","0.0-76.0-1.0","8E2474F56D8F426F800DAEB5F192BD1E","8E2474F56D8F426F800DAEB5F192BD1E","9abb3df5-30ff-48d1-bd73-e69f635f83f0","54f8d589-66fc-4c65-830f-1dcc63bce8cc","{""participantId"":""8E2474F56D8F426F800DAEB5F192BD1E"",""assignmentId"":""9abb3df5-30ff-48d1-bd73-e69f635f83f0"",""projectId"":""54f8d589-66fc-4c65-830f-1dcc63bce8cc""}","https://test12345.live/?participantId=8E2474F56D8F426F800DAEB5F192BD1E&assignmentId=9abb3df5-30ff-48d1-bd73-e69f635f83f0&projectId=54f8d589-66fc-4c65-830f-1dcc63bce8cc","","null","<div style=""display: flex; justify-content: center; align-items: center;"">
                    <img src=""images/causal/causal_series_10/causal_series_10_b.jpg"" style=""width: 300px; height: 300px;"" />
                  </div>","null","",""
"","","","","","html-keyboard-response","106","402755","0.0-76.0-2.0","8E2474F56D8F426F800DAEB5F192BD1E","8E2474F56D8F426F800DAEB5F192BD1E","9abb3df5-30ff-48d1-bd73-e69f635f83f0","54f8d589-66fc-4c65-830f-1dcc63bce8cc","{""participantId"":""8E2474F56D8F426F800DAEB5F192BD1E"",""assignmentId"":""9abb3df5-30ff-48d1-bd73-e69f635f83f0"",""projectId"":""54f8d589-66fc-4c65-830f-1dcc63bce8cc""}","https://test12345.live/?participantId=8E2474F56D8F426F800DAEB5F192BD1E&assignmentId=9abb3df5-30ff-48d1-bd73-e69f635f83f0&projectId=54f8d589-66fc-4c65-830f-1dcc63bce8cc","","null","<div style=""display: flex; justify-content: center; align-items: center;"">
                    <img src=""images/causal/causal_series_10/causal_series_10_c.jpg"" style=""width: 300px; height: 300px;"" />
                  </div>","null","",""
"","","","","","html-keyboard-response","107","405756","0.0-76.0-3.0","8E2474F56D8F426F800DAEB5F192BD1E","8E2474F56D8F426F800DAEB5F192BD1E","9abb3df5-30ff-48d1-bd73-e69f635f83f0","54f8d589-66fc-4c65-830f-1dcc63bce8cc","{""participantId"":""8E2474F56D8F426F800DAEB5F192BD1E"",""assignmentId"":""9abb3df5-30ff-48d1-bd73-e69f635f83f0"",""projectId"":""54f8d589-66fc-4c65-830f-1dcc63bce8cc""}","https://test12345.live/?participantId=8E2474F56D8F426F800DAEB5F192BD1E&assignmentId=9abb3df5-30ff-48d1-bd73-e69f635f83f0&projectId=54f8d589-66fc-4c65-830f-1dcc63bce8cc","","null","<div style=""display: flex; justify-content: center; align-items: center;"">
                    <img src=""images/causal/causal_series_10/causal_series_10_d.jpg"" style=""width: 300px; height: 300px;"" />
                  </div>","null","",""
"","","","","","html-button-response","108","407241","0.0-78.0","8E2474F56D8F426F800DAEB5F192BD1E","8E2474F56D8F426F800DAEB5F192BD1E","9abb3df5-30ff-48d1-bd73-e69f635f83f0","54f8d589-66fc-4c65-830f-1dcc63bce8cc","{""participantId"":""8E2474F56D8F426F800DAEB5F192BD1E"",""assignmentId"":""9abb3df5-30ff-48d1-bd73-e69f635f83f0"",""projectId"":""54f8d589-66fc-4c65-830f-1dcc63bce8cc""}","https://test12345.live/?participantId=8E2474F56D8F426F800DAEB5F192BD1E&assignmentId=9abb3df5-30ff-48d1-bd73-e69f635f83f0&projectId=54f8d589-66fc-4c65-830f-1dcc63bce8cc","","1484","Was there a person in the picture?","1","",""
"","","","","","survey-likert","109","409277","0.0-79.0","8E2474F56D8F426F800DAEB5F192BD1E","8E2474F56D8F426F800DAEB5F192BD1E","9abb3df5-30ff-48d1-bd73-e69f635f83f0","54f8d589-66fc-4c65-830f-1dcc63bce8cc","{""participantId"":""8E2474F56D8F426F800DAEB5F192BD1E"",""assignmentId"":""9abb3df5-30ff-48d1-bd73-e69f635f83f0"",""projectId"":""54f8d589-66fc-4c65-830f-1dcc63bce8cc""}","https://test12345.live/?participantId=8E2474F56D8F426F800DAEB5F192BD1E&assignmentId=9abb3df5-30ff-48d1-bd73-e69f635f83f0&projectId=54f8d589-66fc-4c65-830f-1dcc63bce8cc","","2036","","{""Q0"":3}","","[0]"
"","","","","","html-button-response","110","410293","0.0-80.0","8E2474F56D8F426F800DAEB5F192BD1E","8E2474F56D8F426F800DAEB5F192BD1E","9abb3df5-30ff-48d1-bd73-e69f635f83f0","54f8d589-66fc-4c65-830f-1dcc63bce8cc","{""participantId"":""8E2474F56D8F426F800DAEB5F192BD1E"",""assignmentId"":""9abb3df5-30ff-48d1-bd73-e69f635f83f0"",""projectId"":""54f8d589-66fc-4c65-830f-1dcc63bce8cc""}","https://test12345.live/?participantId=8E2474F56D8F426F800DAEB5F192BD1E&assignmentId=9abb3df5-30ff-48d1-bd73-e69f635f83f0&projectId=54f8d589-66fc-4c65-830f-1dcc63bce8cc","","1015","
    <div style=""display: flex; justify-content: center; align-items: center;"">
      <img src=""images/red_deck_2.png"" style=""width: 300px; height: 300px; margin-right: 10px;"" />
      <img src=""images/blue_deck_1.png"" style=""width: 300px; height: 300px;"" />
    </div>","1","1",""
"","","","","","html-keyboard-response","111","413295","0.0-82.0-0.0","8E2474F56D8F426F800DAEB5F192BD1E","8E2474F56D8F426F800DAEB5F192BD1E","9abb3df5-30ff-48d1-bd73-e69f635f83f0","54f8d589-66fc-4c65-830f-1dcc63bce8cc","{""participantId"":""8E2474F56D8F426F800DAEB5F192BD1E"",""assignmentId"":""9abb3df5-30ff-48d1-bd73-e69f635f83f0"",""projectId"":""54f8d589-66fc-4c65-830f-1dcc63bce8cc""}","https://test12345.live/?participantId=8E2474F56D8F426F800DAEB5F192BD1E&assignmentId=9abb3df5-30ff-48d1-bd73-e69f635f83f0&projectId=54f8d589-66fc-4c65-830f-1dcc63bce8cc","","null","<div style=""display: flex; justify-content: center; align-items: center;"">
                    <img src=""images/semantic/semantic_series_16/semantic_series_16_a.jpg"" style=""width: 300px; height: 300px;"" />
                  </div>","null","",""
"","","","","","html-keyboard-response","112","416296","0.0-82.0-1.0","8E2474F56D8F426F800DAEB5F192BD1E","8E2474F56D8F426F800DAEB5F192BD1E","9abb3df5-30ff-48d1-bd73-e69f635f83f0","54f8d589-66fc-4c65-830f-1dcc63bce8cc","{""participantId"":""8E2474F56D8F426F800DAEB5F192BD1E"",""assignmentId"":""9abb3df5-30ff-48d1-bd73-e69f635f83f0"",""projectId"":""54f8d589-66fc-4c65-830f-1dcc63bce8cc""}","https://test12345.live/?participantId=8E2474F56D8F426F800DAEB5F192BD1E&assignmentId=9abb3df5-30ff-48d1-bd73-e69f635f83f0&projectId=54f8d589-66fc-4c65-830f-1dcc63bce8cc","","null","<div style=""display: flex; justify-content: center; align-items: center;"">
                    <img src=""images/semantic/semantic_series_16/semantic_series_16_b.jpg"" style=""width: 300px; height: 300px;"" />
                  </div>","null","",""
"","","","","","html-keyboard-response","113","419298","0.0-82.0-2.0","8E2474F56D8F426F800DAEB5F192BD1E","8E2474F56D8F426F800DAEB5F192BD1E","9abb3df5-30ff-48d1-bd73-e69f635f83f0","54f8d589-66fc-4c65-830f-1dcc63bce8cc","{""participantId"":""8E2474F56D8F426F800DAEB5F192BD1E"",""assignmentId"":""9abb3df5-30ff-48d1-bd73-e69f635f83f0"",""projectId"":""54f8d589-66fc-4c65-830f-1dcc63bce8cc""}","https://test12345.live/?participantId=8E2474F56D8F426F800DAEB5F192BD1E&assignmentId=9abb3df5-30ff-48d1-bd73-e69f635f83f0&projectId=54f8d589-66fc-4c65-830f-1dcc63bce8cc","","null","<div style=""display: flex; justify-content: center; align-items: center;"">
                    <img src=""images/semantic/semantic_series_16/semantic_series_16_c.jpg"" style=""width: 300px; height: 300px;"" />
                  </div>","null","",""
"","","","","","html-keyboard-response","114","422301","0.0-82.0-3.0","8E2474F56D8F426F800DAEB5F192BD1E","8E2474F56D8F426F800DAEB5F192BD1E","9abb3df5-30ff-48d1-bd73-e69f635f83f0","54f8d589-66fc-4c65-830f-1dcc63bce8cc","{""participantId"":""8E2474F56D8F426F800DAEB5F192BD1E"",""assignmentId"":""9abb3df5-30ff-48d1-bd73-e69f635f83f0"",""projectId"":""54f8d589-66fc-4c65-830f-1dcc63bce8cc""}","https://test12345.live/?participantId=8E2474F56D8F426F800DAEB5F192BD1E&assignmentId=9abb3df5-30ff-48d1-bd73-e69f635f83f0&projectId=54f8d589-66fc-4c65-830f-1dcc63bce8cc","","null","<div style=""display: flex; justify-content: center; align-items: center;"">
                    <img src=""images/semantic/semantic_series_16/semantic_series_16_d.jpg"" style=""width: 300px; height: 300px;"" />
                  </div>","null","",""
"","","","","","html-button-response","115","423528","0.0-83.0","8E2474F56D8F426F800DAEB5F192BD1E","8E2474F56D8F426F800DAEB5F192BD1E","9abb3df5-30ff-48d1-bd73-e69f635f83f0","54f8d589-66fc-4c65-830f-1dcc63bce8cc","{""participantId"":""8E2474F56D8F426F800DAEB5F192BD1E"",""assignmentId"":""9abb3df5-30ff-48d1-bd73-e69f635f83f0"",""projectId"":""54f8d589-66fc-4c65-830f-1dcc63bce8cc""}","https://test12345.live/?participantId=8E2474F56D8F426F800DAEB5F192BD1E&assignmentId=9abb3df5-30ff-48d1-bd73-e69f635f83f0&projectId=54f8d589-66fc-4c65-830f-1dcc63bce8cc","","1227","Was there a person in the picture?","0","",""
"","","","","","survey-likert","116","425321","0.0-84.0","8E2474F56D8F426F800DAEB5F192BD1E","8E2474F56D8F426F800DAEB5F192BD1E","9abb3df5-30ff-48d1-bd73-e69f635f83f0","54f8d589-66fc-4c65-830f-1dcc63bce8cc","{""participantId"":""8E2474F56D8F426F800DAEB5F192BD1E"",""assignmentId"":""9abb3df5-30ff-48d1-bd73-e69f635f83f0"",""projectId"":""54f8d589-66fc-4c65-830f-1dcc63bce8cc""}","https://test12345.live/?participantId=8E2474F56D8F426F800DAEB5F192BD1E&assignmentId=9abb3df5-30ff-48d1-bd73-e69f635f83f0&projectId=54f8d589-66fc-4c65-830f-1dcc63bce8cc","","1791","","{""Q0"":1}","","[0]"
"","","","","","html-button-response","117","426541","0.0-85.0","8E2474F56D8F426F800DAEB5F192BD1E","8E2474F56D8F426F800DAEB5F192BD1E","9abb3df5-30ff-48d1-bd73-e69f635f83f0","54f8d589-66fc-4c65-830f-1dcc63bce8cc","{""participantId"":""8E2474F56D8F426F800DAEB5F192BD1E"",""assignmentId"":""9abb3df5-30ff-48d1-bd73-e69f635f83f0"",""projectId"":""54f8d589-66fc-4c65-830f-1dcc63bce8cc""}","https://test12345.live/?participantId=8E2474F56D8F426F800DAEB5F192BD1E&assignmentId=9abb3df5-30ff-48d1-bd73-e69f635f83f0&projectId=54f8d589-66fc-4c65-830f-1dcc63bce8cc","","1220","
    <div style=""display: flex; justify-content: center; align-items: center;"">
      <img src=""images/red_deck_2.png"" style=""width: 300px; height: 300px; margin-right: 10px;"" />
      <img src=""images/blue_deck_1.png"" style=""width: 300px; height: 300px;"" />
    </div>","0","0",""
"","","","","","html-keyboard-response","118","429543","0.0-86.0-0.0","8E2474F56D8F426F800DAEB5F192BD1E","8E2474F56D8F426F800DAEB5F192BD1E","9abb3df5-30ff-48d1-bd73-e69f635f83f0","54f8d589-66fc-4c65-830f-1dcc63bce8cc","{""participantId"":""8E2474F56D8F426F800DAEB5F192BD1E"",""assignmentId"":""9abb3df5-30ff-48d1-bd73-e69f635f83f0"",""projectId"":""54f8d589-66fc-4c65-830f-1dcc63bce8cc""}","https://test12345.live/?participantId=8E2474F56D8F426F800DAEB5F192BD1E&assignmentId=9abb3df5-30ff-48d1-bd73-e69f635f83f0&projectId=54f8d589-66fc-4c65-830f-1dcc63bce8cc","","null","<div style=""display: flex; justify-content: center; align-items: center;"">
                    <img src=""images/causal/causal_series_16/causal_series_16_a.jpg"" style=""width: 300px; height: 300px;"" />
                  </div>","null","",""
"","","","","","html-keyboard-response","119","432544","0.0-86.0-1.0","8E2474F56D8F426F800DAEB5F192BD1E","8E2474F56D8F426F800DAEB5F192BD1E","9abb3df5-30ff-48d1-bd73-e69f635f83f0","54f8d589-66fc-4c65-830f-1dcc63bce8cc","{""participantId"":""8E2474F56D8F426F800DAEB5F192BD1E"",""assignmentId"":""9abb3df5-30ff-48d1-bd73-e69f635f83f0"",""projectId"":""54f8d589-66fc-4c65-830f-1dcc63bce8cc""}","https://test12345.live/?participantId=8E2474F56D8F426F800DAEB5F192BD1E&assignmentId=9abb3df5-30ff-48d1-bd73-e69f635f83f0&projectId=54f8d589-66fc-4c65-830f-1dcc63bce8cc","","null","<div style=""display: flex; justify-content: center; align-items: center;"">
                    <img src=""images/causal/causal_series_16/causal_series_16_b.jpg"" style=""width: 300px; height: 300px;"" />
                  </div>","null","",""
"","","","","","html-keyboard-response","120","435546","0.0-86.0-2.0","8E2474F56D8F426F800DAEB5F192BD1E","8E2474F56D8F426F800DAEB5F192BD1E","9abb3df5-30ff-48d1-bd73-e69f635f83f0","54f8d589-66fc-4c65-830f-1dcc63bce8cc","{""participantId"":""8E2474F56D8F426F800DAEB5F192BD1E"",""assignmentId"":""9abb3df5-30ff-48d1-bd73-e69f635f83f0"",""projectId"":""54f8d589-66fc-4c65-830f-1dcc63bce8cc""}","https://test12345.live/?participantId=8E2474F56D8F426F800DAEB5F192BD1E&assignmentId=9abb3df5-30ff-48d1-bd73-e69f635f83f0&projectId=54f8d589-66fc-4c65-830f-1dcc63bce8cc","","null","<div style=""display: flex; justify-content: center; align-items: center;"">
                    <img src=""images/causal/causal_series_16/causal_series_16_c.jpg"" style=""width: 300px; height: 300px;"" />
                  </div>","null","",""
"","","","","","html-keyboard-response","121","438547","0.0-86.0-3.0","8E2474F56D8F426F800DAEB5F192BD1E","8E2474F56D8F426F800DAEB5F192BD1E","9abb3df5-30ff-48d1-bd73-e69f635f83f0","54f8d589-66fc-4c65-830f-1dcc63bce8cc","{""participantId"":""8E2474F56D8F426F800DAEB5F192BD1E"",""assignmentId"":""9abb3df5-30ff-48d1-bd73-e69f635f83f0"",""projectId"":""54f8d589-66fc-4c65-830f-1dcc63bce8cc""}","https://test12345.live/?participantId=8E2474F56D8F426F800DAEB5F192BD1E&assignmentId=9abb3df5-30ff-48d1-bd73-e69f635f83f0&projectId=54f8d589-66fc-4c65-830f-1dcc63bce8cc","","null","<div style=""display: flex; justify-content: center; align-items: center;"">
                    <img src=""images/causal/causal_series_16/causal_series_16_d.jpg"" style=""width: 300px; height: 300px;"" />
                  </div>","null","",""
"","","","","","html-button-response","122","440196","0.0-88.0","8E2474F56D8F426F800DAEB5F192BD1E","8E2474F56D8F426F800DAEB5F192BD1E","9abb3df5-30ff-48d1-bd73-e69f635f83f0","54f8d589-66fc-4c65-830f-1dcc63bce8cc","{""participantId"":""8E2474F56D8F426F800DAEB5F192BD1E"",""assignmentId"":""9abb3df5-30ff-48d1-bd73-e69f635f83f0"",""projectId"":""54f8d589-66fc-4c65-830f-1dcc63bce8cc""}","https://test12345.live/?participantId=8E2474F56D8F426F800DAEB5F192BD1E&assignmentId=9abb3df5-30ff-48d1-bd73-e69f635f83f0&projectId=54f8d589-66fc-4c65-830f-1dcc63bce8cc","","1648","Was there a person in the picture?","0","",""
"","","","","","survey-likert","123","445621","0.0-89.0","8E2474F56D8F426F800DAEB5F192BD1E","8E2474F56D8F426F800DAEB5F192BD1E","9abb3df5-30ff-48d1-bd73-e69f635f83f0","54f8d589-66fc-4c65-830f-1dcc63bce8cc","{""participantId"":""8E2474F56D8F426F800DAEB5F192BD1E"",""assignmentId"":""9abb3df5-30ff-48d1-bd73-e69f635f83f0"",""projectId"":""54f8d589-66fc-4c65-830f-1dcc63bce8cc""}","https://test12345.live/?participantId=8E2474F56D8F426F800DAEB5F192BD1E&assignmentId=9abb3df5-30ff-48d1-bd73-e69f635f83f0&projectId=54f8d589-66fc-4c65-830f-1dcc63bce8cc","","5423","","{""Q0"":3}","","[0]"
"","","","","","html-button-response","124","446661","0.0-90.0","8E2474F56D8F426F800DAEB5F192BD1E","8E2474F56D8F426F800DAEB5F192BD1E","9abb3df5-30ff-48d1-bd73-e69f635f83f0","54f8d589-66fc-4c65-830f-1dcc63bce8cc","{""participantId"":""8E2474F56D8F426F800DAEB5F192BD1E"",""assignmentId"":""9abb3df5-30ff-48d1-bd73-e69f635f83f0"",""projectId"":""54f8d589-66fc-4c65-830f-1dcc63bce8cc""}","https://test12345.live/?participantId=8E2474F56D8F426F800DAEB5F192BD1E&assignmentId=9abb3df5-30ff-48d1-bd73-e69f635f83f0&projectId=54f8d589-66fc-4c65-830f-1dcc63bce8cc","","1039","
    <div style=""display: flex; justify-content: center; align-items: center;"">
      <img src=""images/red_deck_2.png"" style=""width: 300px; height: 300px; margin-right: 10px;"" />
      <img src=""images/blue_deck_1.png"" style=""width: 300px; height: 300px;"" />
    </div>","1","1",""
"","","","","","html-keyboard-response","125","449662","0.0-92.0-0.0","8E2474F56D8F426F800DAEB5F192BD1E","8E2474F56D8F426F800DAEB5F192BD1E","9abb3df5-30ff-48d1-bd73-e69f635f83f0","54f8d589-66fc-4c65-830f-1dcc63bce8cc","{""participantId"":""8E2474F56D8F426F800DAEB5F192BD1E"",""assignmentId"":""9abb3df5-30ff-48d1-bd73-e69f635f83f0"",""projectId"":""54f8d589-66fc-4c65-830f-1dcc63bce8cc""}","https://test12345.live/?participantId=8E2474F56D8F426F800DAEB5F192BD1E&assignmentId=9abb3df5-30ff-48d1-bd73-e69f635f83f0&projectId=54f8d589-66fc-4c65-830f-1dcc63bce8cc","","null","<div style=""display: flex; justify-content: center; align-items: center;"">
                    <img src=""images/semantic/semantic_series_14/semantic_series_14_a.jpg"" style=""width: 300px; height: 300px;"" />
                  </div>","null","",""
"","","","","","html-keyboard-response","126","452664","0.0-92.0-1.0","8E2474F56D8F426F800DAEB5F192BD1E","8E2474F56D8F426F800DAEB5F192BD1E","9abb3df5-30ff-48d1-bd73-e69f635f83f0","54f8d589-66fc-4c65-830f-1dcc63bce8cc","{""participantId"":""8E2474F56D8F426F800DAEB5F192BD1E"",""assignmentId"":""9abb3df5-30ff-48d1-bd73-e69f635f83f0"",""projectId"":""54f8d589-66fc-4c65-830f-1dcc63bce8cc""}","https://test12345.live/?participantId=8E2474F56D8F426F800DAEB5F192BD1E&assignmentId=9abb3df5-30ff-48d1-bd73-e69f635f83f0&projectId=54f8d589-66fc-4c65-830f-1dcc63bce8cc","","null","<div style=""display: flex; justify-content: center; align-items: center;"">
                    <img src=""images/semantic/semantic_series_14/semantic_series_14_b.jpg"" style=""width: 300px; height: 300px;"" />
                  </div>","null","",""
"","","","","","html-keyboard-response","127","455666","0.0-92.0-2.0","8E2474F56D8F426F800DAEB5F192BD1E","8E2474F56D8F426F800DAEB5F192BD1E","9abb3df5-30ff-48d1-bd73-e69f635f83f0","54f8d589-66fc-4c65-830f-1dcc63bce8cc","{""participantId"":""8E2474F56D8F426F800DAEB5F192BD1E"",""assignmentId"":""9abb3df5-30ff-48d1-bd73-e69f635f83f0"",""projectId"":""54f8d589-66fc-4c65-830f-1dcc63bce8cc""}","https://test12345.live/?participantId=8E2474F56D8F426F800DAEB5F192BD1E&assignmentId=9abb3df5-30ff-48d1-bd73-e69f635f83f0&projectId=54f8d589-66fc-4c65-830f-1dcc63bce8cc","","null","<div style=""display: flex; justify-content: center; align-items: center;"">
                    <img src=""images/semantic/semantic_series_14/semantic_series_14_c.jpg"" style=""width: 300px; height: 300px;"" />
                  </div>","null","",""
"","","","","","html-keyboard-response","128","458668","0.0-92.0-3.0","8E2474F56D8F426F800DAEB5F192BD1E","8E2474F56D8F426F800DAEB5F192BD1E","9abb3df5-30ff-48d1-bd73-e69f635f83f0","54f8d589-66fc-4c65-830f-1dcc63bce8cc","{""participantId"":""8E2474F56D8F426F800DAEB5F192BD1E"",""assignmentId"":""9abb3df5-30ff-48d1-bd73-e69f635f83f0"",""projectId"":""54f8d589-66fc-4c65-830f-1dcc63bce8cc""}","https://test12345.live/?participantId=8E2474F56D8F426F800DAEB5F192BD1E&assignmentId=9abb3df5-30ff-48d1-bd73-e69f635f83f0&projectId=54f8d589-66fc-4c65-830f-1dcc63bce8cc","","null","<div style=""display: flex; justify-content: center; align-items: center;"">
                    <img src=""images/semantic/semantic_series_14/semantic_series_14_d.jpg"" style=""width: 300px; height: 300px;"" />
                  </div>","null","",""
"","","","","","html-button-response","129","460977","0.0-93.0","8E2474F56D8F426F800DAEB5F192BD1E","8E2474F56D8F426F800DAEB5F192BD1E","9abb3df5-30ff-48d1-bd73-e69f635f83f0","54f8d589-66fc-4c65-830f-1dcc63bce8cc","{""participantId"":""8E2474F56D8F426F800DAEB5F192BD1E"",""assignmentId"":""9abb3df5-30ff-48d1-bd73-e69f635f83f0"",""projectId"":""54f8d589-66fc-4c65-830f-1dcc63bce8cc""}","https://test12345.live/?participantId=8E2474F56D8F426F800DAEB5F192BD1E&assignmentId=9abb3df5-30ff-48d1-bd73-e69f635f83f0&projectId=54f8d589-66fc-4c65-830f-1dcc63bce8cc","","2308","Was there a person in the picture?","0","",""
"","","","","","survey-likert","130","463165","0.0-94.0","8E2474F56D8F426F800DAEB5F192BD1E","8E2474F56D8F426F800DAEB5F192BD1E","9abb3df5-30ff-48d1-bd73-e69f635f83f0","54f8d589-66fc-4c65-830f-1dcc63bce8cc","{""participantId"":""8E2474F56D8F426F800DAEB5F192BD1E"",""assignmentId"":""9abb3df5-30ff-48d1-bd73-e69f635f83f0"",""projectId"":""54f8d589-66fc-4c65-830f-1dcc63bce8cc""}","https://test12345.live/?participantId=8E2474F56D8F426F800DAEB5F192BD1E&assignmentId=9abb3df5-30ff-48d1-bd73-e69f635f83f0&projectId=54f8d589-66fc-4c65-830f-1dcc63bce8cc","","2187","","{""Q0"":2}","","[0]"
"","","","","","survey-text","131","482117","0.0-95.0","8E2474F56D8F426F800DAEB5F192BD1E","8E2474F56D8F426F800DAEB5F192BD1E","9abb3df5-30ff-48d1-bd73-e69f635f83f0","54f8d589-66fc-4c65-830f-1dcc63bce8cc","{""participantId"":""8E2474F56D8F426F800DAEB5F192BD1E"",""assignmentId"":""9abb3df5-30ff-48d1-bd73-e69f635f83f0"",""projectId"":""54f8d589-66fc-4c65-830f-1dcc63bce8cc""}","https://test12345.live/?participantId=8E2474F56D8F426F800DAEB5F192BD1E&assignmentId=9abb3df5-30ff-48d1-bd73-e69f635f83f0&projectId=54f8d589-66fc-4c65-830f-1dcc63bce8cc","","18947","","{""Q0"":""One is red and the other is blue.""}","",""
