"success","timeout","failed_images","failed_audio","failed_video","trial_type","trial_index","time_elapsed","internal_node_id","subject","subject_id","study_id","session_id","urlvar","current_url","view_history","rt","stimulus","response","choice","question_order"
"true","false","[]","[]","[]","preload","0","1960","0.0-0.0","A6EF280D109D4633B8A32676580D0607","A6EF280D109D4633B8A32676580D0607","b22bc386-39cf-40d2-ac3f-867ae945c051","e622c465-ee29-4445-8260-1f3431e06587","{""participantId"":""A6EF280D109D4633B8A32676580D0607"",""assignmentId"":""b22bc386-39cf-40d2-ac3f-867ae945c051"",""projectId"":""e622c465-ee29-4445-8260-1f3431e06587""}","https://test12345.live/?participantId=A6EF280D109D4633B8A32676580D0607&assignmentId=b22bc386-39cf-40d2-ac3f-867ae945c051&projectId=e622c465-ee29-4445-8260-1f3431e06587","","","","","",""
"","","","","","instructions","1","3537","0.0-1.0","A6EF280D109D4633B8A32676580D0607","A6EF280D109D4633B8A32676580D0607","b22bc386-39cf-40d2-ac3f-867ae945c051","e622c465-ee29-4445-8260-1f3431e06587","{""participantId"":""A6EF280D109D4633B8A32676580D0607"",""assignmentId"":""b22bc386-39cf-40d2-ac3f-867ae945c051"",""projectId"":""e622c465-ee29-4445-8260-1f3431e06587""}","https://test12345.live/?participantId=A6EF280D109D4633B8A32676580D0607&assignmentId=b22bc386-39cf-40d2-ac3f-867ae945c051&projectId=e622c465-ee29-4445-8260-1f3431e06587","[{""page_index"":0,""viewing_time"":1576}]","1576","","","",""
"","","","","","instructions","2","17632","0.0-2.0","A6EF280D109D4633B8A32676580D0607","A6EF280D109D4633B8A32676580D0607","b22bc386-39cf-40d2-ac3f-867ae945c051","e622c465-ee29-4445-8260-1f3431e06587","{""participantId"":""A6EF280D109D4633B8A32676580D0607"",""assignmentId"":""b22bc386-39cf-40d2-ac3f-867ae945c051"",""projectId"":""e622c465-ee29-4445-8260-1f3431e06587""}","https://test12345.live/?participantId=A6EF280D109D4633B8A32676580D0607&assignmentId=b22bc386-39cf-40d2-ac3f-867ae945c051&projectId=e622c465-ee29-4445-8260-1f3431e06587","[{""page_index"":0,""viewing_time"":14096}]","14096","","","",""
"true","","","","","fullscreen","3","19741","0.0-3.0","A6EF280D109D4633B8A32676580D0607","A6EF280D109D4633B8A32676580D0607","b22bc386-39cf-40d2-ac3f-867ae945c051","e622c465-ee29-4445-8260-1f3431e06587","{""participantId"":""A6EF280D109D4633B8A32676580D0607"",""assignmentId"":""b22bc386-39cf-40d2-ac3f-867ae945c051"",""projectId"":""e622c465-ee29-4445-8260-1f3431e06587""}","https://test12345.live/?participantId=A6EF280D109D4633B8A32676580D0607&assignmentId=b22bc386-39cf-40d2-ac3f-867ae945c051&projectId=e622c465-ee29-4445-8260-1f3431e06587","","1096","","","",""
"","","","","","instructions","4","25169","0.0-4.0","A6EF280D109D4633B8A32676580D0607","A6EF280D109D4633B8A32676580D0607","b22bc386-39cf-40d2-ac3f-867ae945c051","e622c465-ee29-4445-8260-1f3431e06587","{""participantId"":""A6EF280D109D4633B8A32676580D0607"",""assignmentId"":""b22bc386-39cf-40d2-ac3f-867ae945c051"",""projectId"":""e622c465-ee29-4445-8260-1f3431e06587""}","https://test12345.live/?participantId=A6EF280D109D4633B8A32676580D0607&assignmentId=b22bc386-39cf-40d2-ac3f-867ae945c051&projectId=e622c465-ee29-4445-8260-1f3431e06587","[{""page_index"":0,""viewing_time"":5427}]","5427","","","",""
"","","","","","html-button-response","5","27549","0.0-5.0","A6EF280D109D4633B8A32676580D0607","A6EF280D109D4633B8A32676580D0607","b22bc386-39cf-40d2-ac3f-867ae945c051","e622c465-ee29-4445-8260-1f3431e06587","{""participantId"":""A6EF280D109D4633B8A32676580D0607"",""assignmentId"":""b22bc386-39cf-40d2-ac3f-867ae945c051"",""projectId"":""e622c465-ee29-4445-8260-1f3431e06587""}","https://test12345.live/?participantId=A6EF280D109D4633B8A32676580D0607&assignmentId=b22bc386-39cf-40d2-ac3f-867ae945c051&projectId=e622c465-ee29-4445-8260-1f3431e06587","","2379","
    <div style=""display: flex; justify-content: center; align-items: center;"">
      <img src=""images/blue_deck_1.png"" style=""width: 300px; height: 300px; margin-right: 10px;"" />
      <img src=""images/red_deck_2.png"" style=""width: 300px; height: 300px;"" />
    </div>","0","0",""
"","","","","","html-keyboard-response","6","30561","0.0-6.0-0.0","A6EF280D109D4633B8A32676580D0607","A6EF280D109D4633B8A32676580D0607","b22bc386-39cf-40d2-ac3f-867ae945c051","e622c465-ee29-4445-8260-1f3431e06587","{""participantId"":""A6EF280D109D4633B8A32676580D0607"",""assignmentId"":""b22bc386-39cf-40d2-ac3f-867ae945c051"",""projectId"":""e622c465-ee29-4445-8260-1f3431e06587""}","https://test12345.live/?participantId=A6EF280D109D4633B8A32676580D0607&assignmentId=b22bc386-39cf-40d2-ac3f-867ae945c051&projectId=e622c465-ee29-4445-8260-1f3431e06587","","null","<div style=""display: flex; justify-content: center; align-items: center;"">
                    <img src=""images/causal/causal_series_15/causal_series_15_a.jpg"" style=""width: 300px; height: 300px;"" />
                  </div>","null","",""
"","","","","","html-keyboard-response","7","33573","0.0-6.0-1.0","A6EF280D109D4633B8A32676580D0607","A6EF280D109D4633B8A32676580D0607","b22bc386-39cf-40d2-ac3f-867ae945c051","e622c465-ee29-4445-8260-1f3431e06587","{""participantId"":""A6EF280D109D4633B8A32676580D0607"",""assignmentId"":""b22bc386-39cf-40d2-ac3f-867ae945c051"",""projectId"":""e622c465-ee29-4445-8260-1f3431e06587""}","https://test12345.live/?participantId=A6EF280D109D4633B8A32676580D0607&assignmentId=b22bc386-39cf-40d2-ac3f-867ae945c051&projectId=e622c465-ee29-4445-8260-1f3431e06587","","null","<div style=""display: flex; justify-content: center; align-items: center;"">
                    <img src=""images/causal/causal_series_15/causal_series_15_b.jpg"" style=""width: 300px; height: 300px;"" />
                  </div>","null","",""
"","","","","","html-keyboard-response","8","36574","0.0-6.0-2.0","A6EF280D109D4633B8A32676580D0607","A6EF280D109D4633B8A32676580D0607","b22bc386-39cf-40d2-ac3f-867ae945c051","e622c465-ee29-4445-8260-1f3431e06587","{""participantId"":""A6EF280D109D4633B8A32676580D0607"",""assignmentId"":""b22bc386-39cf-40d2-ac3f-867ae945c051"",""projectId"":""e622c465-ee29-4445-8260-1f3431e06587""}","https://test12345.live/?participantId=A6EF280D109D4633B8A32676580D0607&assignmentId=b22bc386-39cf-40d2-ac3f-867ae945c051&projectId=e622c465-ee29-4445-8260-1f3431e06587","","null","<div style=""display: flex; justify-content: center; align-items: center;"">
                    <img src=""images/causal/causal_series_15/causal_series_15_c.jpg"" style=""width: 300px; height: 300px;"" />
                  </div>","null","",""
"","","","","","html-keyboard-response","9","39580","0.0-6.0-3.0","A6EF280D109D4633B8A32676580D0607","A6EF280D109D4633B8A32676580D0607","b22bc386-39cf-40d2-ac3f-867ae945c051","e622c465-ee29-4445-8260-1f3431e06587","{""participantId"":""A6EF280D109D4633B8A32676580D0607"",""assignmentId"":""b22bc386-39cf-40d2-ac3f-867ae945c051"",""projectId"":""e622c465-ee29-4445-8260-1f3431e06587""}","https://test12345.live/?participantId=A6EF280D109D4633B8A32676580D0607&assignmentId=b22bc386-39cf-40d2-ac3f-867ae945c051&projectId=e622c465-ee29-4445-8260-1f3431e06587","","null","<div style=""display: flex; justify-content: center; align-items: center;"">
                    <img src=""images/causal/causal_series_15/causal_series_15_d.jpg"" style=""width: 300px; height: 300px;"" />
                  </div>","null","",""
"","","","","","html-button-response","10","41937","0.0-8.0","A6EF280D109D4633B8A32676580D0607","A6EF280D109D4633B8A32676580D0607","b22bc386-39cf-40d2-ac3f-867ae945c051","e622c465-ee29-4445-8260-1f3431e06587","{""participantId"":""A6EF280D109D4633B8A32676580D0607"",""assignmentId"":""b22bc386-39cf-40d2-ac3f-867ae945c051"",""projectId"":""e622c465-ee29-4445-8260-1f3431e06587""}","https://test12345.live/?participantId=A6EF280D109D4633B8A32676580D0607&assignmentId=b22bc386-39cf-40d2-ac3f-867ae945c051&projectId=e622c465-ee29-4445-8260-1f3431e06587","","2357","Was there a person in the picture?","0","",""
"","","","","","survey-likert","11","44677","0.0-9.0","A6EF280D109D4633B8A32676580D0607","A6EF280D109D4633B8A32676580D0607","b22bc386-39cf-40d2-ac3f-867ae945c051","e622c465-ee29-4445-8260-1f3431e06587","{""participantId"":""A6EF280D109D4633B8A32676580D0607"",""assignmentId"":""b22bc386-39cf-40d2-ac3f-867ae945c051"",""projectId"":""e622c465-ee29-4445-8260-1f3431e06587""}","https://test12345.live/?participantId=A6EF280D109D4633B8A32676580D0607&assignmentId=b22bc386-39cf-40d2-ac3f-867ae945c051&projectId=e622c465-ee29-4445-8260-1f3431e06587","","2739","","{""Q0"":3}","","[0]"
"","","","","","html-button-response","12","45974","0.0-10.0","A6EF280D109D4633B8A32676580D0607","A6EF280D109D4633B8A32676580D0607","b22bc386-39cf-40d2-ac3f-867ae945c051","e622c465-ee29-4445-8260-1f3431e06587","{""participantId"":""A6EF280D109D4633B8A32676580D0607"",""assignmentId"":""b22bc386-39cf-40d2-ac3f-867ae945c051"",""projectId"":""e622c465-ee29-4445-8260-1f3431e06587""}","https://test12345.live/?participantId=A6EF280D109D4633B8A32676580D0607&assignmentId=b22bc386-39cf-40d2-ac3f-867ae945c051&projectId=e622c465-ee29-4445-8260-1f3431e06587","","1296","
    <div style=""display: flex; justify-content: center; align-items: center;"">
      <img src=""images/blue_deck_1.png"" style=""width: 300px; height: 300px; margin-right: 10px;"" />
      <img src=""images/red_deck_2.png"" style=""width: 300px; height: 300px;"" />
    </div>","0","0",""
"","","","","","html-keyboard-response","13","48976","0.0-11.0-0.0","A6EF280D109D4633B8A32676580D0607","A6EF280D109D4633B8A32676580D0607","b22bc386-39cf-40d2-ac3f-867ae945c051","e622c465-ee29-4445-8260-1f3431e06587","{""participantId"":""A6EF280D109D4633B8A32676580D0607"",""assignmentId"":""b22bc386-39cf-40d2-ac3f-867ae945c051"",""projectId"":""e622c465-ee29-4445-8260-1f3431e06587""}","https://test12345.live/?participantId=A6EF280D109D4633B8A32676580D0607&assignmentId=b22bc386-39cf-40d2-ac3f-867ae945c051&projectId=e622c465-ee29-4445-8260-1f3431e06587","","null","<div style=""display: flex; justify-content: center; align-items: center;"">
                    <img src=""images/causal/causal_series_12/causal_series_12_a.jpg"" style=""width: 300px; height: 300px;"" />
                  </div>","null","",""
"","","","","","html-keyboard-response","14","51984","0.0-11.0-1.0","A6EF280D109D4633B8A32676580D0607","A6EF280D109D4633B8A32676580D0607","b22bc386-39cf-40d2-ac3f-867ae945c051","e622c465-ee29-4445-8260-1f3431e06587","{""participantId"":""A6EF280D109D4633B8A32676580D0607"",""assignmentId"":""b22bc386-39cf-40d2-ac3f-867ae945c051"",""projectId"":""e622c465-ee29-4445-8260-1f3431e06587""}","https://test12345.live/?participantId=A6EF280D109D4633B8A32676580D0607&assignmentId=b22bc386-39cf-40d2-ac3f-867ae945c051&projectId=e622c465-ee29-4445-8260-1f3431e06587","","null","<div style=""display: flex; justify-content: center; align-items: center;"">
                    <img src=""images/causal/causal_series_12/causal_series_12_b.jpg"" style=""width: 300px; height: 300px;"" />
                  </div>","null","",""
"","","","","","html-keyboard-response","15","55000","0.0-11.0-2.0","A6EF280D109D4633B8A32676580D0607","A6EF280D109D4633B8A32676580D0607","b22bc386-39cf-40d2-ac3f-867ae945c051","e622c465-ee29-4445-8260-1f3431e06587","{""participantId"":""A6EF280D109D4633B8A32676580D0607"",""assignmentId"":""b22bc386-39cf-40d2-ac3f-867ae945c051"",""projectId"":""e622c465-ee29-4445-8260-1f3431e06587""}","https://test12345.live/?participantId=A6EF280D109D4633B8A32676580D0607&assignmentId=b22bc386-39cf-40d2-ac3f-867ae945c051&projectId=e622c465-ee29-4445-8260-1f3431e06587","","null","<div style=""display: flex; justify-content: center; align-items: center;"">
                    <img src=""images/causal/causal_series_12/causal_series_12_c.jpg"" style=""width: 300px; height: 300px;"" />
                  </div>","null","",""
"","","","","","html-keyboard-response","16","58003","0.0-11.0-3.0","A6EF280D109D4633B8A32676580D0607","A6EF280D109D4633B8A32676580D0607","b22bc386-39cf-40d2-ac3f-867ae945c051","e622c465-ee29-4445-8260-1f3431e06587","{""participantId"":""A6EF280D109D4633B8A32676580D0607"",""assignmentId"":""b22bc386-39cf-40d2-ac3f-867ae945c051"",""projectId"":""e622c465-ee29-4445-8260-1f3431e06587""}","https://test12345.live/?participantId=A6EF280D109D4633B8A32676580D0607&assignmentId=b22bc386-39cf-40d2-ac3f-867ae945c051&projectId=e622c465-ee29-4445-8260-1f3431e06587","","null","<div style=""display: flex; justify-content: center; align-items: center;"">
                    <img src=""images/causal/causal_series_12/causal_series_12_d.jpg"" style=""width: 300px; height: 300px;"" />
                  </div>","null","",""
"","","","","","html-button-response","17","59438","0.0-13.0","A6EF280D109D4633B8A32676580D0607","A6EF280D109D4633B8A32676580D0607","b22bc386-39cf-40d2-ac3f-867ae945c051","e622c465-ee29-4445-8260-1f3431e06587","{""participantId"":""A6EF280D109D4633B8A32676580D0607"",""assignmentId"":""b22bc386-39cf-40d2-ac3f-867ae945c051"",""projectId"":""e622c465-ee29-4445-8260-1f3431e06587""}","https://test12345.live/?participantId=A6EF280D109D4633B8A32676580D0607&assignmentId=b22bc386-39cf-40d2-ac3f-867ae945c051&projectId=e622c465-ee29-4445-8260-1f3431e06587","","1434","Was there a person in the picture?","1","",""
"","","","","","survey-likert","18","62933","0.0-14.0","A6EF280D109D4633B8A32676580D0607","A6EF280D109D4633B8A32676580D0607","b22bc386-39cf-40d2-ac3f-867ae945c051","e622c465-ee29-4445-8260-1f3431e06587","{""participantId"":""A6EF280D109D4633B8A32676580D0607"",""assignmentId"":""b22bc386-39cf-40d2-ac3f-867ae945c051"",""projectId"":""e622c465-ee29-4445-8260-1f3431e06587""}","https://test12345.live/?participantId=A6EF280D109D4633B8A32676580D0607&assignmentId=b22bc386-39cf-40d2-ac3f-867ae945c051&projectId=e622c465-ee29-4445-8260-1f3431e06587","","3495","","{""Q0"":4}","","[0]"
"","","","","","html-button-response","19","64005","0.0-15.0","A6EF280D109D4633B8A32676580D0607","A6EF280D109D4633B8A32676580D0607","b22bc386-39cf-40d2-ac3f-867ae945c051","e622c465-ee29-4445-8260-1f3431e06587","{""participantId"":""A6EF280D109D4633B8A32676580D0607"",""assignmentId"":""b22bc386-39cf-40d2-ac3f-867ae945c051"",""projectId"":""e622c465-ee29-4445-8260-1f3431e06587""}","https://test12345.live/?participantId=A6EF280D109D4633B8A32676580D0607&assignmentId=b22bc386-39cf-40d2-ac3f-867ae945c051&projectId=e622c465-ee29-4445-8260-1f3431e06587","","1071","
    <div style=""display: flex; justify-content: center; align-items: center;"">
      <img src=""images/blue_deck_1.png"" style=""width: 300px; height: 300px; margin-right: 10px;"" />
      <img src=""images/red_deck_2.png"" style=""width: 300px; height: 300px;"" />
    </div>","1","1",""
"","","","","","html-keyboard-response","20","67014","0.0-17.0-0.0","A6EF280D109D4633B8A32676580D0607","A6EF280D109D4633B8A32676580D0607","b22bc386-39cf-40d2-ac3f-867ae945c051","e622c465-ee29-4445-8260-1f3431e06587","{""participantId"":""A6EF280D109D4633B8A32676580D0607"",""assignmentId"":""b22bc386-39cf-40d2-ac3f-867ae945c051"",""projectId"":""e622c465-ee29-4445-8260-1f3431e06587""}","https://test12345.live/?participantId=A6EF280D109D4633B8A32676580D0607&assignmentId=b22bc386-39cf-40d2-ac3f-867ae945c051&projectId=e622c465-ee29-4445-8260-1f3431e06587","","null","<div style=""display: flex; justify-content: center; align-items: center;"">
                    <img src=""images/semantic/semantic_series_13/semantic_series_13_a.jpg"" style=""width: 300px; height: 300px;"" />
                  </div>","null","",""
"","","","","","html-keyboard-response","21","70022","0.0-17.0-1.0","A6EF280D109D4633B8A32676580D0607","A6EF280D109D4633B8A32676580D0607","b22bc386-39cf-40d2-ac3f-867ae945c051","e622c465-ee29-4445-8260-1f3431e06587","{""participantId"":""A6EF280D109D4633B8A32676580D0607"",""assignmentId"":""b22bc386-39cf-40d2-ac3f-867ae945c051"",""projectId"":""e622c465-ee29-4445-8260-1f3431e06587""}","https://test12345.live/?participantId=A6EF280D109D4633B8A32676580D0607&assignmentId=b22bc386-39cf-40d2-ac3f-867ae945c051&projectId=e622c465-ee29-4445-8260-1f3431e06587","","null","<div style=""display: flex; justify-content: center; align-items: center;"">
                    <img src=""images/semantic/semantic_series_13/semantic_series_13_b.jpg"" style=""width: 300px; height: 300px;"" />
                  </div>","null","",""
"","","","","","html-keyboard-response","22","73037","0.0-17.0-2.0","A6EF280D109D4633B8A32676580D0607","A6EF280D109D4633B8A32676580D0607","b22bc386-39cf-40d2-ac3f-867ae945c051","e622c465-ee29-4445-8260-1f3431e06587","{""participantId"":""A6EF280D109D4633B8A32676580D0607"",""assignmentId"":""b22bc386-39cf-40d2-ac3f-867ae945c051"",""projectId"":""e622c465-ee29-4445-8260-1f3431e06587""}","https://test12345.live/?participantId=A6EF280D109D4633B8A32676580D0607&assignmentId=b22bc386-39cf-40d2-ac3f-867ae945c051&projectId=e622c465-ee29-4445-8260-1f3431e06587","","null","<div style=""display: flex; justify-content: center; align-items: center;"">
                    <img src=""images/semantic/semantic_series_13/semantic_series_13_c.jpg"" style=""width: 300px; height: 300px;"" />
                  </div>","null","",""
"","","","","","html-keyboard-response","23","76046","0.0-17.0-3.0","A6EF280D109D4633B8A32676580D0607","A6EF280D109D4633B8A32676580D0607","b22bc386-39cf-40d2-ac3f-867ae945c051","e622c465-ee29-4445-8260-1f3431e06587","{""participantId"":""A6EF280D109D4633B8A32676580D0607"",""assignmentId"":""b22bc386-39cf-40d2-ac3f-867ae945c051"",""projectId"":""e622c465-ee29-4445-8260-1f3431e06587""}","https://test12345.live/?participantId=A6EF280D109D4633B8A32676580D0607&assignmentId=b22bc386-39cf-40d2-ac3f-867ae945c051&projectId=e622c465-ee29-4445-8260-1f3431e06587","","null","<div style=""display: flex; justify-content: center; align-items: center;"">
                    <img src=""images/semantic/semantic_series_13/semantic_series_13_d.jpg"" style=""width: 300px; height: 300px;"" />
                  </div>","null","",""
"","","","","","html-button-response","24","77613","0.0-18.0","A6EF280D109D4633B8A32676580D0607","A6EF280D109D4633B8A32676580D0607","b22bc386-39cf-40d2-ac3f-867ae945c051","e622c465-ee29-4445-8260-1f3431e06587","{""participantId"":""A6EF280D109D4633B8A32676580D0607"",""assignmentId"":""b22bc386-39cf-40d2-ac3f-867ae945c051"",""projectId"":""e622c465-ee29-4445-8260-1f3431e06587""}","https://test12345.live/?participantId=A6EF280D109D4633B8A32676580D0607&assignmentId=b22bc386-39cf-40d2-ac3f-867ae945c051&projectId=e622c465-ee29-4445-8260-1f3431e06587","","1567","Was there a person in the picture?","0","",""
"","","","","","survey-likert","25","79477","0.0-19.0","A6EF280D109D4633B8A32676580D0607","A6EF280D109D4633B8A32676580D0607","b22bc386-39cf-40d2-ac3f-867ae945c051","e622c465-ee29-4445-8260-1f3431e06587","{""participantId"":""A6EF280D109D4633B8A32676580D0607"",""assignmentId"":""b22bc386-39cf-40d2-ac3f-867ae945c051"",""projectId"":""e622c465-ee29-4445-8260-1f3431e06587""}","https://test12345.live/?participantId=A6EF280D109D4633B8A32676580D0607&assignmentId=b22bc386-39cf-40d2-ac3f-867ae945c051&projectId=e622c465-ee29-4445-8260-1f3431e06587","","1863","","{""Q0"":4}","","[0]"
"","","","","","html-button-response","26","80317","0.0-20.0","A6EF280D109D4633B8A32676580D0607","A6EF280D109D4633B8A32676580D0607","b22bc386-39cf-40d2-ac3f-867ae945c051","e622c465-ee29-4445-8260-1f3431e06587","{""participantId"":""A6EF280D109D4633B8A32676580D0607"",""assignmentId"":""b22bc386-39cf-40d2-ac3f-867ae945c051"",""projectId"":""e622c465-ee29-4445-8260-1f3431e06587""}","https://test12345.live/?participantId=A6EF280D109D4633B8A32676580D0607&assignmentId=b22bc386-39cf-40d2-ac3f-867ae945c051&projectId=e622c465-ee29-4445-8260-1f3431e06587","","839","
    <div style=""display: flex; justify-content: center; align-items: center;"">
      <img src=""images/blue_deck_1.png"" style=""width: 300px; height: 300px; margin-right: 10px;"" />
      <img src=""images/red_deck_2.png"" style=""width: 300px; height: 300px;"" />
    </div>","0","0",""
"","","","","","html-keyboard-response","27","83329","0.0-21.0-0.0","A6EF280D109D4633B8A32676580D0607","A6EF280D109D4633B8A32676580D0607","b22bc386-39cf-40d2-ac3f-867ae945c051","e622c465-ee29-4445-8260-1f3431e06587","{""participantId"":""A6EF280D109D4633B8A32676580D0607"",""assignmentId"":""b22bc386-39cf-40d2-ac3f-867ae945c051"",""projectId"":""e622c465-ee29-4445-8260-1f3431e06587""}","https://test12345.live/?participantId=A6EF280D109D4633B8A32676580D0607&assignmentId=b22bc386-39cf-40d2-ac3f-867ae945c051&projectId=e622c465-ee29-4445-8260-1f3431e06587","","null","<div style=""display: flex; justify-content: center; align-items: center;"">
                    <img src=""images/causal/causal_series_17/causal_series_17_a.jpg"" style=""width: 300px; height: 300px;"" />
                  </div>","null","",""
"","","","","","html-keyboard-response","28","86336","0.0-21.0-1.0","A6EF280D109D4633B8A32676580D0607","A6EF280D109D4633B8A32676580D0607","b22bc386-39cf-40d2-ac3f-867ae945c051","e622c465-ee29-4445-8260-1f3431e06587","{""participantId"":""A6EF280D109D4633B8A32676580D0607"",""assignmentId"":""b22bc386-39cf-40d2-ac3f-867ae945c051"",""projectId"":""e622c465-ee29-4445-8260-1f3431e06587""}","https://test12345.live/?participantId=A6EF280D109D4633B8A32676580D0607&assignmentId=b22bc386-39cf-40d2-ac3f-867ae945c051&projectId=e622c465-ee29-4445-8260-1f3431e06587","","null","<div style=""display: flex; justify-content: center; align-items: center;"">
                    <img src=""images/causal/causal_series_17/causal_series_17_b.jpg"" style=""width: 300px; height: 300px;"" />
                  </div>","null","",""
"","","","","","html-keyboard-response","29","89347","0.0-21.0-2.0","A6EF280D109D4633B8A32676580D0607","A6EF280D109D4633B8A32676580D0607","b22bc386-39cf-40d2-ac3f-867ae945c051","e622c465-ee29-4445-8260-1f3431e06587","{""participantId"":""A6EF280D109D4633B8A32676580D0607"",""assignmentId"":""b22bc386-39cf-40d2-ac3f-867ae945c051"",""projectId"":""e622c465-ee29-4445-8260-1f3431e06587""}","https://test12345.live/?participantId=A6EF280D109D4633B8A32676580D0607&assignmentId=b22bc386-39cf-40d2-ac3f-867ae945c051&projectId=e622c465-ee29-4445-8260-1f3431e06587","","null","<div style=""display: flex; justify-content: center; align-items: center;"">
                    <img src=""images/causal/causal_series_17/causal_series_17_c.jpg"" style=""width: 300px; height: 300px;"" />
                  </div>","null","",""
"","","","","","html-keyboard-response","30","92358","0.0-21.0-3.0","A6EF280D109D4633B8A32676580D0607","A6EF280D109D4633B8A32676580D0607","b22bc386-39cf-40d2-ac3f-867ae945c051","e622c465-ee29-4445-8260-1f3431e06587","{""participantId"":""A6EF280D109D4633B8A32676580D0607"",""assignmentId"":""b22bc386-39cf-40d2-ac3f-867ae945c051"",""projectId"":""e622c465-ee29-4445-8260-1f3431e06587""}","https://test12345.live/?participantId=A6EF280D109D4633B8A32676580D0607&assignmentId=b22bc386-39cf-40d2-ac3f-867ae945c051&projectId=e622c465-ee29-4445-8260-1f3431e06587","","null","<div style=""display: flex; justify-content: center; align-items: center;"">
                    <img src=""images/causal/causal_series_17/causal_series_17_d.jpg"" style=""width: 300px; height: 300px;"" />
                  </div>","null","",""
"","","","","","html-button-response","31","93525","0.0-23.0","A6EF280D109D4633B8A32676580D0607","A6EF280D109D4633B8A32676580D0607","b22bc386-39cf-40d2-ac3f-867ae945c051","e622c465-ee29-4445-8260-1f3431e06587","{""participantId"":""A6EF280D109D4633B8A32676580D0607"",""assignmentId"":""b22bc386-39cf-40d2-ac3f-867ae945c051"",""projectId"":""e622c465-ee29-4445-8260-1f3431e06587""}","https://test12345.live/?participantId=A6EF280D109D4633B8A32676580D0607&assignmentId=b22bc386-39cf-40d2-ac3f-867ae945c051&projectId=e622c465-ee29-4445-8260-1f3431e06587","","1166","Was there a person in the picture?","0","",""
"","","","","","survey-likert","32","95701","0.0-24.0","A6EF280D109D4633B8A32676580D0607","A6EF280D109D4633B8A32676580D0607","b22bc386-39cf-40d2-ac3f-867ae945c051","e622c465-ee29-4445-8260-1f3431e06587","{""participantId"":""A6EF280D109D4633B8A32676580D0607"",""assignmentId"":""b22bc386-39cf-40d2-ac3f-867ae945c051"",""projectId"":""e622c465-ee29-4445-8260-1f3431e06587""}","https://test12345.live/?participantId=A6EF280D109D4633B8A32676580D0607&assignmentId=b22bc386-39cf-40d2-ac3f-867ae945c051&projectId=e622c465-ee29-4445-8260-1f3431e06587","","2175","","{""Q0"":4}","","[0]"
"","","","","","html-button-response","33","97197","0.0-25.0","A6EF280D109D4633B8A32676580D0607","A6EF280D109D4633B8A32676580D0607","b22bc386-39cf-40d2-ac3f-867ae945c051","e622c465-ee29-4445-8260-1f3431e06587","{""participantId"":""A6EF280D109D4633B8A32676580D0607"",""assignmentId"":""b22bc386-39cf-40d2-ac3f-867ae945c051"",""projectId"":""e622c465-ee29-4445-8260-1f3431e06587""}","https://test12345.live/?participantId=A6EF280D109D4633B8A32676580D0607&assignmentId=b22bc386-39cf-40d2-ac3f-867ae945c051&projectId=e622c465-ee29-4445-8260-1f3431e06587","","1496","
    <div style=""display: flex; justify-content: center; align-items: center;"">
      <img src=""images/blue_deck_1.png"" style=""width: 300px; height: 300px; margin-right: 10px;"" />
      <img src=""images/red_deck_2.png"" style=""width: 300px; height: 300px;"" />
    </div>","0","0",""
"","","","","","html-keyboard-response","34","100208","0.0-26.0-0.0","A6EF280D109D4633B8A32676580D0607","A6EF280D109D4633B8A32676580D0607","b22bc386-39cf-40d2-ac3f-867ae945c051","e622c465-ee29-4445-8260-1f3431e06587","{""participantId"":""A6EF280D109D4633B8A32676580D0607"",""assignmentId"":""b22bc386-39cf-40d2-ac3f-867ae945c051"",""projectId"":""e622c465-ee29-4445-8260-1f3431e06587""}","https://test12345.live/?participantId=A6EF280D109D4633B8A32676580D0607&assignmentId=b22bc386-39cf-40d2-ac3f-867ae945c051&projectId=e622c465-ee29-4445-8260-1f3431e06587","","null","<div style=""display: flex; justify-content: center; align-items: center;"">
                    <img src=""images/causal/causal_series_2/causal_series_2_a.jpg"" style=""width: 300px; height: 300px;"" />
                  </div>","null","",""
"","","","","","html-keyboard-response","35","103219","0.0-26.0-1.0","A6EF280D109D4633B8A32676580D0607","A6EF280D109D4633B8A32676580D0607","b22bc386-39cf-40d2-ac3f-867ae945c051","e622c465-ee29-4445-8260-1f3431e06587","{""participantId"":""A6EF280D109D4633B8A32676580D0607"",""assignmentId"":""b22bc386-39cf-40d2-ac3f-867ae945c051"",""projectId"":""e622c465-ee29-4445-8260-1f3431e06587""}","https://test12345.live/?participantId=A6EF280D109D4633B8A32676580D0607&assignmentId=b22bc386-39cf-40d2-ac3f-867ae945c051&projectId=e622c465-ee29-4445-8260-1f3431e06587","","null","<div style=""display: flex; justify-content: center; align-items: center;"">
                    <img src=""images/causal/causal_series_2/causal_series_2_b.jpg"" style=""width: 300px; height: 300px;"" />
                  </div>","null","",""
"","","","","","html-keyboard-response","36","106235","0.0-26.0-2.0","A6EF280D109D4633B8A32676580D0607","A6EF280D109D4633B8A32676580D0607","b22bc386-39cf-40d2-ac3f-867ae945c051","e622c465-ee29-4445-8260-1f3431e06587","{""participantId"":""A6EF280D109D4633B8A32676580D0607"",""assignmentId"":""b22bc386-39cf-40d2-ac3f-867ae945c051"",""projectId"":""e622c465-ee29-4445-8260-1f3431e06587""}","https://test12345.live/?participantId=A6EF280D109D4633B8A32676580D0607&assignmentId=b22bc386-39cf-40d2-ac3f-867ae945c051&projectId=e622c465-ee29-4445-8260-1f3431e06587","","null","<div style=""display: flex; justify-content: center; align-items: center;"">
                    <img src=""images/causal/causal_series_2/causal_series_2_c.jpg"" style=""width: 300px; height: 300px;"" />
                  </div>","null","",""
"","","","","","html-keyboard-response","37","109242","0.0-26.0-3.0","A6EF280D109D4633B8A32676580D0607","A6EF280D109D4633B8A32676580D0607","b22bc386-39cf-40d2-ac3f-867ae945c051","e622c465-ee29-4445-8260-1f3431e06587","{""participantId"":""A6EF280D109D4633B8A32676580D0607"",""assignmentId"":""b22bc386-39cf-40d2-ac3f-867ae945c051"",""projectId"":""e622c465-ee29-4445-8260-1f3431e06587""}","https://test12345.live/?participantId=A6EF280D109D4633B8A32676580D0607&assignmentId=b22bc386-39cf-40d2-ac3f-867ae945c051&projectId=e622c465-ee29-4445-8260-1f3431e06587","","null","<div style=""display: flex; justify-content: center; align-items: center;"">
                    <img src=""images/causal/causal_series_2/causal_series_2_d.jpg"" style=""width: 300px; height: 300px;"" />
                  </div>","null","",""
"","","","","","html-button-response","38","112109","0.0-28.0","A6EF280D109D4633B8A32676580D0607","A6EF280D109D4633B8A32676580D0607","b22bc386-39cf-40d2-ac3f-867ae945c051","e622c465-ee29-4445-8260-1f3431e06587","{""participantId"":""A6EF280D109D4633B8A32676580D0607"",""assignmentId"":""b22bc386-39cf-40d2-ac3f-867ae945c051"",""projectId"":""e622c465-ee29-4445-8260-1f3431e06587""}","https://test12345.live/?participantId=A6EF280D109D4633B8A32676580D0607&assignmentId=b22bc386-39cf-40d2-ac3f-867ae945c051&projectId=e622c465-ee29-4445-8260-1f3431e06587","","2866","Was there a person in the picture?","0","",""
"","","","","","survey-likert","39","114557","0.0-29.0","A6EF280D109D4633B8A32676580D0607","A6EF280D109D4633B8A32676580D0607","b22bc386-39cf-40d2-ac3f-867ae945c051","e622c465-ee29-4445-8260-1f3431e06587","{""participantId"":""A6EF280D109D4633B8A32676580D0607"",""assignmentId"":""b22bc386-39cf-40d2-ac3f-867ae945c051"",""projectId"":""e622c465-ee29-4445-8260-1f3431e06587""}","https://test12345.live/?participantId=A6EF280D109D4633B8A32676580D0607&assignmentId=b22bc386-39cf-40d2-ac3f-867ae945c051&projectId=e622c465-ee29-4445-8260-1f3431e06587","","2448","","{""Q0"":2}","","[0]"
"","","","","","html-button-response","40","115717","0.0-30.0","A6EF280D109D4633B8A32676580D0607","A6EF280D109D4633B8A32676580D0607","b22bc386-39cf-40d2-ac3f-867ae945c051","e622c465-ee29-4445-8260-1f3431e06587","{""participantId"":""A6EF280D109D4633B8A32676580D0607"",""assignmentId"":""b22bc386-39cf-40d2-ac3f-867ae945c051"",""projectId"":""e622c465-ee29-4445-8260-1f3431e06587""}","https://test12345.live/?participantId=A6EF280D109D4633B8A32676580D0607&assignmentId=b22bc386-39cf-40d2-ac3f-867ae945c051&projectId=e622c465-ee29-4445-8260-1f3431e06587","","1159","
    <div style=""display: flex; justify-content: center; align-items: center;"">
      <img src=""images/blue_deck_1.png"" style=""width: 300px; height: 300px; margin-right: 10px;"" />
      <img src=""images/red_deck_2.png"" style=""width: 300px; height: 300px;"" />
    </div>","0","0",""
"","","","","","html-keyboard-response","41","118721","0.0-31.0-0.0","A6EF280D109D4633B8A32676580D0607","A6EF280D109D4633B8A32676580D0607","b22bc386-39cf-40d2-ac3f-867ae945c051","e622c465-ee29-4445-8260-1f3431e06587","{""participantId"":""A6EF280D109D4633B8A32676580D0607"",""assignmentId"":""b22bc386-39cf-40d2-ac3f-867ae945c051"",""projectId"":""e622c465-ee29-4445-8260-1f3431e06587""}","https://test12345.live/?participantId=A6EF280D109D4633B8A32676580D0607&assignmentId=b22bc386-39cf-40d2-ac3f-867ae945c051&projectId=e622c465-ee29-4445-8260-1f3431e06587","","null","<div style=""display: flex; justify-content: center; align-items: center;"">
                    <img src=""images/causal/causal_series_3/causal_series_3_a.jpg"" style=""width: 300px; height: 300px;"" />
                  </div>","null","",""
"","","","","","html-keyboard-response","42","121734","0.0-31.0-1.0","A6EF280D109D4633B8A32676580D0607","A6EF280D109D4633B8A32676580D0607","b22bc386-39cf-40d2-ac3f-867ae945c051","e622c465-ee29-4445-8260-1f3431e06587","{""participantId"":""A6EF280D109D4633B8A32676580D0607"",""assignmentId"":""b22bc386-39cf-40d2-ac3f-867ae945c051"",""projectId"":""e622c465-ee29-4445-8260-1f3431e06587""}","https://test12345.live/?participantId=A6EF280D109D4633B8A32676580D0607&assignmentId=b22bc386-39cf-40d2-ac3f-867ae945c051&projectId=e622c465-ee29-4445-8260-1f3431e06587","","null","<div style=""display: flex; justify-content: center; align-items: center;"">
                    <img src=""images/causal/causal_series_3/causal_series_3_b.jpg"" style=""width: 300px; height: 300px;"" />
                  </div>","null","",""
"","","","","","html-keyboard-response","43","124741","0.0-31.0-2.0","A6EF280D109D4633B8A32676580D0607","A6EF280D109D4633B8A32676580D0607","b22bc386-39cf-40d2-ac3f-867ae945c051","e622c465-ee29-4445-8260-1f3431e06587","{""participantId"":""A6EF280D109D4633B8A32676580D0607"",""assignmentId"":""b22bc386-39cf-40d2-ac3f-867ae945c051"",""projectId"":""e622c465-ee29-4445-8260-1f3431e06587""}","https://test12345.live/?participantId=A6EF280D109D4633B8A32676580D0607&assignmentId=b22bc386-39cf-40d2-ac3f-867ae945c051&projectId=e622c465-ee29-4445-8260-1f3431e06587","","null","<div style=""display: flex; justify-content: center; align-items: center;"">
                    <img src=""images/causal/causal_series_3/causal_series_3_c.jpg"" style=""width: 300px; height: 300px;"" />
                  </div>","null","",""
"","","","","","html-keyboard-response","44","127754","0.0-31.0-3.0","A6EF280D109D4633B8A32676580D0607","A6EF280D109D4633B8A32676580D0607","b22bc386-39cf-40d2-ac3f-867ae945c051","e622c465-ee29-4445-8260-1f3431e06587","{""participantId"":""A6EF280D109D4633B8A32676580D0607"",""assignmentId"":""b22bc386-39cf-40d2-ac3f-867ae945c051"",""projectId"":""e622c465-ee29-4445-8260-1f3431e06587""}","https://test12345.live/?participantId=A6EF280D109D4633B8A32676580D0607&assignmentId=b22bc386-39cf-40d2-ac3f-867ae945c051&projectId=e622c465-ee29-4445-8260-1f3431e06587","","null","<div style=""display: flex; justify-content: center; align-items: center;"">
                    <img src=""images/causal/causal_series_3/causal_series_3_d.jpg"" style=""width: 300px; height: 300px;"" />
                  </div>","null","",""
"","","","","","html-button-response","45","130741","0.0-33.0","A6EF280D109D4633B8A32676580D0607","A6EF280D109D4633B8A32676580D0607","b22bc386-39cf-40d2-ac3f-867ae945c051","e622c465-ee29-4445-8260-1f3431e06587","{""participantId"":""A6EF280D109D4633B8A32676580D0607"",""assignmentId"":""b22bc386-39cf-40d2-ac3f-867ae945c051"",""projectId"":""e622c465-ee29-4445-8260-1f3431e06587""}","https://test12345.live/?participantId=A6EF280D109D4633B8A32676580D0607&assignmentId=b22bc386-39cf-40d2-ac3f-867ae945c051&projectId=e622c465-ee29-4445-8260-1f3431e06587","","2986","Was there a person in the picture?","0","",""
"","","","","","survey-likert","46","132645","0.0-34.0","A6EF280D109D4633B8A32676580D0607","A6EF280D109D4633B8A32676580D0607","b22bc386-39cf-40d2-ac3f-867ae945c051","e622c465-ee29-4445-8260-1f3431e06587","{""participantId"":""A6EF280D109D4633B8A32676580D0607"",""assignmentId"":""b22bc386-39cf-40d2-ac3f-867ae945c051"",""projectId"":""e622c465-ee29-4445-8260-1f3431e06587""}","https://test12345.live/?participantId=A6EF280D109D4633B8A32676580D0607&assignmentId=b22bc386-39cf-40d2-ac3f-867ae945c051&projectId=e622c465-ee29-4445-8260-1f3431e06587","","1904","","{""Q0"":4}","","[0]"
"","","","","","html-button-response","47","133569","0.0-35.0","A6EF280D109D4633B8A32676580D0607","A6EF280D109D4633B8A32676580D0607","b22bc386-39cf-40d2-ac3f-867ae945c051","e622c465-ee29-4445-8260-1f3431e06587","{""participantId"":""A6EF280D109D4633B8A32676580D0607"",""assignmentId"":""b22bc386-39cf-40d2-ac3f-867ae945c051"",""projectId"":""e622c465-ee29-4445-8260-1f3431e06587""}","https://test12345.live/?participantId=A6EF280D109D4633B8A32676580D0607&assignmentId=b22bc386-39cf-40d2-ac3f-867ae945c051&projectId=e622c465-ee29-4445-8260-1f3431e06587","","923","
    <div style=""display: flex; justify-content: center; align-items: center;"">
      <img src=""images/blue_deck_1.png"" style=""width: 300px; height: 300px; margin-right: 10px;"" />
      <img src=""images/red_deck_2.png"" style=""width: 300px; height: 300px;"" />
    </div>","0","0",""
"","","","","","html-keyboard-response","48","136574","0.0-36.0-0.0","A6EF280D109D4633B8A32676580D0607","A6EF280D109D4633B8A32676580D0607","b22bc386-39cf-40d2-ac3f-867ae945c051","e622c465-ee29-4445-8260-1f3431e06587","{""participantId"":""A6EF280D109D4633B8A32676580D0607"",""assignmentId"":""b22bc386-39cf-40d2-ac3f-867ae945c051"",""projectId"":""e622c465-ee29-4445-8260-1f3431e06587""}","https://test12345.live/?participantId=A6EF280D109D4633B8A32676580D0607&assignmentId=b22bc386-39cf-40d2-ac3f-867ae945c051&projectId=e622c465-ee29-4445-8260-1f3431e06587","","null","<div style=""display: flex; justify-content: center; align-items: center;"">
                    <img src=""images/causal/causal_series_9/causal_series_9_a.jpg"" style=""width: 300px; height: 300px;"" />
                  </div>","null","",""
"","","","","","html-keyboard-response","49","139577","0.0-36.0-1.0","A6EF280D109D4633B8A32676580D0607","A6EF280D109D4633B8A32676580D0607","b22bc386-39cf-40d2-ac3f-867ae945c051","e622c465-ee29-4445-8260-1f3431e06587","{""participantId"":""A6EF280D109D4633B8A32676580D0607"",""assignmentId"":""b22bc386-39cf-40d2-ac3f-867ae945c051"",""projectId"":""e622c465-ee29-4445-8260-1f3431e06587""}","https://test12345.live/?participantId=A6EF280D109D4633B8A32676580D0607&assignmentId=b22bc386-39cf-40d2-ac3f-867ae945c051&projectId=e622c465-ee29-4445-8260-1f3431e06587","","null","<div style=""display: flex; justify-content: center; align-items: center;"">
                    <img src=""images/causal/causal_series_9/causal_series_9_b.jpg"" style=""width: 300px; height: 300px;"" />
                  </div>","null","",""
"","","","","","html-keyboard-response","50","142581","0.0-36.0-2.0","A6EF280D109D4633B8A32676580D0607","A6EF280D109D4633B8A32676580D0607","b22bc386-39cf-40d2-ac3f-867ae945c051","e622c465-ee29-4445-8260-1f3431e06587","{""participantId"":""A6EF280D109D4633B8A32676580D0607"",""assignmentId"":""b22bc386-39cf-40d2-ac3f-867ae945c051"",""projectId"":""e622c465-ee29-4445-8260-1f3431e06587""}","https://test12345.live/?participantId=A6EF280D109D4633B8A32676580D0607&assignmentId=b22bc386-39cf-40d2-ac3f-867ae945c051&projectId=e622c465-ee29-4445-8260-1f3431e06587","","null","<div style=""display: flex; justify-content: center; align-items: center;"">
                    <img src=""images/causal/causal_series_9/causal_series_9_c.jpg"" style=""width: 300px; height: 300px;"" />
                  </div>","null","",""
"","","","","","html-keyboard-response","51","145582","0.0-36.0-3.0","A6EF280D109D4633B8A32676580D0607","A6EF280D109D4633B8A32676580D0607","b22bc386-39cf-40d2-ac3f-867ae945c051","e622c465-ee29-4445-8260-1f3431e06587","{""participantId"":""A6EF280D109D4633B8A32676580D0607"",""assignmentId"":""b22bc386-39cf-40d2-ac3f-867ae945c051"",""projectId"":""e622c465-ee29-4445-8260-1f3431e06587""}","https://test12345.live/?participantId=A6EF280D109D4633B8A32676580D0607&assignmentId=b22bc386-39cf-40d2-ac3f-867ae945c051&projectId=e622c465-ee29-4445-8260-1f3431e06587","","null","<div style=""display: flex; justify-content: center; align-items: center;"">
                    <img src=""images/causal/causal_series_9/causal_series_9_d.jpg"" style=""width: 300px; height: 300px;"" />
                  </div>","null","",""
"","","","","","html-button-response","52","148377","0.0-38.0","A6EF280D109D4633B8A32676580D0607","A6EF280D109D4633B8A32676580D0607","b22bc386-39cf-40d2-ac3f-867ae945c051","e622c465-ee29-4445-8260-1f3431e06587","{""participantId"":""A6EF280D109D4633B8A32676580D0607"",""assignmentId"":""b22bc386-39cf-40d2-ac3f-867ae945c051"",""projectId"":""e622c465-ee29-4445-8260-1f3431e06587""}","https://test12345.live/?participantId=A6EF280D109D4633B8A32676580D0607&assignmentId=b22bc386-39cf-40d2-ac3f-867ae945c051&projectId=e622c465-ee29-4445-8260-1f3431e06587","","2794","Was there a person in the picture?","1","",""
"","","","","","survey-likert","53","151430","0.0-39.0","A6EF280D109D4633B8A32676580D0607","A6EF280D109D4633B8A32676580D0607","b22bc386-39cf-40d2-ac3f-867ae945c051","e622c465-ee29-4445-8260-1f3431e06587","{""participantId"":""A6EF280D109D4633B8A32676580D0607"",""assignmentId"":""b22bc386-39cf-40d2-ac3f-867ae945c051"",""projectId"":""e622c465-ee29-4445-8260-1f3431e06587""}","https://test12345.live/?participantId=A6EF280D109D4633B8A32676580D0607&assignmentId=b22bc386-39cf-40d2-ac3f-867ae945c051&projectId=e622c465-ee29-4445-8260-1f3431e06587","","3053","","{""Q0"":2}","","[0]"
"","","","","","html-button-response","54","152353","0.0-40.0","A6EF280D109D4633B8A32676580D0607","A6EF280D109D4633B8A32676580D0607","b22bc386-39cf-40d2-ac3f-867ae945c051","e622c465-ee29-4445-8260-1f3431e06587","{""participantId"":""A6EF280D109D4633B8A32676580D0607"",""assignmentId"":""b22bc386-39cf-40d2-ac3f-867ae945c051"",""projectId"":""e622c465-ee29-4445-8260-1f3431e06587""}","https://test12345.live/?participantId=A6EF280D109D4633B8A32676580D0607&assignmentId=b22bc386-39cf-40d2-ac3f-867ae945c051&projectId=e622c465-ee29-4445-8260-1f3431e06587","","922","
    <div style=""display: flex; justify-content: center; align-items: center;"">
      <img src=""images/blue_deck_1.png"" style=""width: 300px; height: 300px; margin-right: 10px;"" />
      <img src=""images/red_deck_2.png"" style=""width: 300px; height: 300px;"" />
    </div>","1","1",""
"","","","","","html-keyboard-response","55","155360","0.0-42.0-0.0","A6EF280D109D4633B8A32676580D0607","A6EF280D109D4633B8A32676580D0607","b22bc386-39cf-40d2-ac3f-867ae945c051","e622c465-ee29-4445-8260-1f3431e06587","{""participantId"":""A6EF280D109D4633B8A32676580D0607"",""assignmentId"":""b22bc386-39cf-40d2-ac3f-867ae945c051"",""projectId"":""e622c465-ee29-4445-8260-1f3431e06587""}","https://test12345.live/?participantId=A6EF280D109D4633B8A32676580D0607&assignmentId=b22bc386-39cf-40d2-ac3f-867ae945c051&projectId=e622c465-ee29-4445-8260-1f3431e06587","","null","<div style=""display: flex; justify-content: center; align-items: center;"">
                    <img src=""images/semantic/semantic_series_16/semantic_series_16_a.jpg"" style=""width: 300px; height: 300px;"" />
                  </div>","null","",""
"","","","","","html-keyboard-response","56","158369","0.0-42.0-1.0","A6EF280D109D4633B8A32676580D0607","A6EF280D109D4633B8A32676580D0607","b22bc386-39cf-40d2-ac3f-867ae945c051","e622c465-ee29-4445-8260-1f3431e06587","{""participantId"":""A6EF280D109D4633B8A32676580D0607"",""assignmentId"":""b22bc386-39cf-40d2-ac3f-867ae945c051"",""projectId"":""e622c465-ee29-4445-8260-1f3431e06587""}","https://test12345.live/?participantId=A6EF280D109D4633B8A32676580D0607&assignmentId=b22bc386-39cf-40d2-ac3f-867ae945c051&projectId=e622c465-ee29-4445-8260-1f3431e06587","","null","<div style=""display: flex; justify-content: center; align-items: center;"">
                    <img src=""images/semantic/semantic_series_16/semantic_series_16_b.jpg"" style=""width: 300px; height: 300px;"" />
                  </div>","null","",""
"","","","","","html-keyboard-response","57","161373","0.0-42.0-2.0","A6EF280D109D4633B8A32676580D0607","A6EF280D109D4633B8A32676580D0607","b22bc386-39cf-40d2-ac3f-867ae945c051","e622c465-ee29-4445-8260-1f3431e06587","{""participantId"":""A6EF280D109D4633B8A32676580D0607"",""assignmentId"":""b22bc386-39cf-40d2-ac3f-867ae945c051"",""projectId"":""e622c465-ee29-4445-8260-1f3431e06587""}","https://test12345.live/?participantId=A6EF280D109D4633B8A32676580D0607&assignmentId=b22bc386-39cf-40d2-ac3f-867ae945c051&projectId=e622c465-ee29-4445-8260-1f3431e06587","","null","<div style=""display: flex; justify-content: center; align-items: center;"">
                    <img src=""images/semantic/semantic_series_16/semantic_series_16_c.jpg"" style=""width: 300px; height: 300px;"" />
                  </div>","null","",""
"","","","","","html-keyboard-response","58","164382","0.0-42.0-3.0","A6EF280D109D4633B8A32676580D0607","A6EF280D109D4633B8A32676580D0607","b22bc386-39cf-40d2-ac3f-867ae945c051","e622c465-ee29-4445-8260-1f3431e06587","{""participantId"":""A6EF280D109D4633B8A32676580D0607"",""assignmentId"":""b22bc386-39cf-40d2-ac3f-867ae945c051"",""projectId"":""e622c465-ee29-4445-8260-1f3431e06587""}","https://test12345.live/?participantId=A6EF280D109D4633B8A32676580D0607&assignmentId=b22bc386-39cf-40d2-ac3f-867ae945c051&projectId=e622c465-ee29-4445-8260-1f3431e06587","","null","<div style=""display: flex; justify-content: center; align-items: center;"">
                    <img src=""images/semantic/semantic_series_16/semantic_series_16_d.jpg"" style=""width: 300px; height: 300px;"" />
                  </div>","null","",""
"","","","","","html-button-response","59","167273","0.0-43.0","A6EF280D109D4633B8A32676580D0607","A6EF280D109D4633B8A32676580D0607","b22bc386-39cf-40d2-ac3f-867ae945c051","e622c465-ee29-4445-8260-1f3431e06587","{""participantId"":""A6EF280D109D4633B8A32676580D0607"",""assignmentId"":""b22bc386-39cf-40d2-ac3f-867ae945c051"",""projectId"":""e622c465-ee29-4445-8260-1f3431e06587""}","https://test12345.live/?participantId=A6EF280D109D4633B8A32676580D0607&assignmentId=b22bc386-39cf-40d2-ac3f-867ae945c051&projectId=e622c465-ee29-4445-8260-1f3431e06587","","2890","Was there a person in the picture?","0","",""
"","","","","","survey-likert","60","169401","0.0-44.0","A6EF280D109D4633B8A32676580D0607","A6EF280D109D4633B8A32676580D0607","b22bc386-39cf-40d2-ac3f-867ae945c051","e622c465-ee29-4445-8260-1f3431e06587","{""participantId"":""A6EF280D109D4633B8A32676580D0607"",""assignmentId"":""b22bc386-39cf-40d2-ac3f-867ae945c051"",""projectId"":""e622c465-ee29-4445-8260-1f3431e06587""}","https://test12345.live/?participantId=A6EF280D109D4633B8A32676580D0607&assignmentId=b22bc386-39cf-40d2-ac3f-867ae945c051&projectId=e622c465-ee29-4445-8260-1f3431e06587","","2128","","{""Q0"":2}","","[0]"
"","","","","","html-button-response","61","170234","0.0-45.0","A6EF280D109D4633B8A32676580D0607","A6EF280D109D4633B8A32676580D0607","b22bc386-39cf-40d2-ac3f-867ae945c051","e622c465-ee29-4445-8260-1f3431e06587","{""participantId"":""A6EF280D109D4633B8A32676580D0607"",""assignmentId"":""b22bc386-39cf-40d2-ac3f-867ae945c051"",""projectId"":""e622c465-ee29-4445-8260-1f3431e06587""}","https://test12345.live/?participantId=A6EF280D109D4633B8A32676580D0607&assignmentId=b22bc386-39cf-40d2-ac3f-867ae945c051&projectId=e622c465-ee29-4445-8260-1f3431e06587","","833","
    <div style=""display: flex; justify-content: center; align-items: center;"">
      <img src=""images/blue_deck_1.png"" style=""width: 300px; height: 300px; margin-right: 10px;"" />
      <img src=""images/red_deck_2.png"" style=""width: 300px; height: 300px;"" />
    </div>","0","0",""
"","","","","","html-keyboard-response","62","173240","0.0-46.0-0.0","A6EF280D109D4633B8A32676580D0607","A6EF280D109D4633B8A32676580D0607","b22bc386-39cf-40d2-ac3f-867ae945c051","e622c465-ee29-4445-8260-1f3431e06587","{""participantId"":""A6EF280D109D4633B8A32676580D0607"",""assignmentId"":""b22bc386-39cf-40d2-ac3f-867ae945c051"",""projectId"":""e622c465-ee29-4445-8260-1f3431e06587""}","https://test12345.live/?participantId=A6EF280D109D4633B8A32676580D0607&assignmentId=b22bc386-39cf-40d2-ac3f-867ae945c051&projectId=e622c465-ee29-4445-8260-1f3431e06587","","null","<div style=""display: flex; justify-content: center; align-items: center;"">
                    <img src=""images/causal/causal_series_6/causal_series_6_a.jpg"" style=""width: 300px; height: 300px;"" />
                  </div>","null","",""
"","","","","","html-keyboard-response","63","176247","0.0-46.0-1.0","A6EF280D109D4633B8A32676580D0607","A6EF280D109D4633B8A32676580D0607","b22bc386-39cf-40d2-ac3f-867ae945c051","e622c465-ee29-4445-8260-1f3431e06587","{""participantId"":""A6EF280D109D4633B8A32676580D0607"",""assignmentId"":""b22bc386-39cf-40d2-ac3f-867ae945c051"",""projectId"":""e622c465-ee29-4445-8260-1f3431e06587""}","https://test12345.live/?participantId=A6EF280D109D4633B8A32676580D0607&assignmentId=b22bc386-39cf-40d2-ac3f-867ae945c051&projectId=e622c465-ee29-4445-8260-1f3431e06587","","null","<div style=""display: flex; justify-content: center; align-items: center;"">
                    <img src=""images/causal/causal_series_6/causal_series_6_b.jpg"" style=""width: 300px; height: 300px;"" />
                  </div>","null","",""
"","","","","","html-keyboard-response","64","179255","0.0-46.0-2.0","A6EF280D109D4633B8A32676580D0607","A6EF280D109D4633B8A32676580D0607","b22bc386-39cf-40d2-ac3f-867ae945c051","e622c465-ee29-4445-8260-1f3431e06587","{""participantId"":""A6EF280D109D4633B8A32676580D0607"",""assignmentId"":""b22bc386-39cf-40d2-ac3f-867ae945c051"",""projectId"":""e622c465-ee29-4445-8260-1f3431e06587""}","https://test12345.live/?participantId=A6EF280D109D4633B8A32676580D0607&assignmentId=b22bc386-39cf-40d2-ac3f-867ae945c051&projectId=e622c465-ee29-4445-8260-1f3431e06587","","null","<div style=""display: flex; justify-content: center; align-items: center;"">
                    <img src=""images/causal/causal_series_6/causal_series_6_c.jpg"" style=""width: 300px; height: 300px;"" />
                  </div>","null","",""
"","","","","","html-keyboard-response","65","182267","0.0-46.0-3.0","A6EF280D109D4633B8A32676580D0607","A6EF280D109D4633B8A32676580D0607","b22bc386-39cf-40d2-ac3f-867ae945c051","e622c465-ee29-4445-8260-1f3431e06587","{""participantId"":""A6EF280D109D4633B8A32676580D0607"",""assignmentId"":""b22bc386-39cf-40d2-ac3f-867ae945c051"",""projectId"":""e622c465-ee29-4445-8260-1f3431e06587""}","https://test12345.live/?participantId=A6EF280D109D4633B8A32676580D0607&assignmentId=b22bc386-39cf-40d2-ac3f-867ae945c051&projectId=e622c465-ee29-4445-8260-1f3431e06587","","null","<div style=""display: flex; justify-content: center; align-items: center;"">
                    <img src=""images/causal/causal_series_6/causal_series_6_d.jpg"" style=""width: 300px; height: 300px;"" />
                  </div>","null","",""
"","","","","","html-button-response","66","185177","0.0-48.0","A6EF280D109D4633B8A32676580D0607","A6EF280D109D4633B8A32676580D0607","b22bc386-39cf-40d2-ac3f-867ae945c051","e622c465-ee29-4445-8260-1f3431e06587","{""participantId"":""A6EF280D109D4633B8A32676580D0607"",""assignmentId"":""b22bc386-39cf-40d2-ac3f-867ae945c051"",""projectId"":""e622c465-ee29-4445-8260-1f3431e06587""}","https://test12345.live/?participantId=A6EF280D109D4633B8A32676580D0607&assignmentId=b22bc386-39cf-40d2-ac3f-867ae945c051&projectId=e622c465-ee29-4445-8260-1f3431e06587","","2909","Was there a person in the picture?","1","",""
"","","","","","survey-likert","67","186897","0.0-49.0","A6EF280D109D4633B8A32676580D0607","A6EF280D109D4633B8A32676580D0607","b22bc386-39cf-40d2-ac3f-867ae945c051","e622c465-ee29-4445-8260-1f3431e06587","{""participantId"":""A6EF280D109D4633B8A32676580D0607"",""assignmentId"":""b22bc386-39cf-40d2-ac3f-867ae945c051"",""projectId"":""e622c465-ee29-4445-8260-1f3431e06587""}","https://test12345.live/?participantId=A6EF280D109D4633B8A32676580D0607&assignmentId=b22bc386-39cf-40d2-ac3f-867ae945c051&projectId=e622c465-ee29-4445-8260-1f3431e06587","","1720","","{""Q0"":4}","","[0]"
"","","","","","html-button-response","68","187681","0.0-50.0","A6EF280D109D4633B8A32676580D0607","A6EF280D109D4633B8A32676580D0607","b22bc386-39cf-40d2-ac3f-867ae945c051","e622c465-ee29-4445-8260-1f3431e06587","{""participantId"":""A6EF280D109D4633B8A32676580D0607"",""assignmentId"":""b22bc386-39cf-40d2-ac3f-867ae945c051"",""projectId"":""e622c465-ee29-4445-8260-1f3431e06587""}","https://test12345.live/?participantId=A6EF280D109D4633B8A32676580D0607&assignmentId=b22bc386-39cf-40d2-ac3f-867ae945c051&projectId=e622c465-ee29-4445-8260-1f3431e06587","","783","
    <div style=""display: flex; justify-content: center; align-items: center;"">
      <img src=""images/blue_deck_1.png"" style=""width: 300px; height: 300px; margin-right: 10px;"" />
      <img src=""images/red_deck_2.png"" style=""width: 300px; height: 300px;"" />
    </div>","0","0",""
"","","","","","html-keyboard-response","69","190684","0.0-51.0-0.0","A6EF280D109D4633B8A32676580D0607","A6EF280D109D4633B8A32676580D0607","b22bc386-39cf-40d2-ac3f-867ae945c051","e622c465-ee29-4445-8260-1f3431e06587","{""participantId"":""A6EF280D109D4633B8A32676580D0607"",""assignmentId"":""b22bc386-39cf-40d2-ac3f-867ae945c051"",""projectId"":""e622c465-ee29-4445-8260-1f3431e06587""}","https://test12345.live/?participantId=A6EF280D109D4633B8A32676580D0607&assignmentId=b22bc386-39cf-40d2-ac3f-867ae945c051&projectId=e622c465-ee29-4445-8260-1f3431e06587","","null","<div style=""display: flex; justify-content: center; align-items: center;"">
                    <img src=""images/causal/causal_series_11/causal_series_11_a.jpg"" style=""width: 300px; height: 300px;"" />
                  </div>","null","",""
"","","","","","html-keyboard-response","70","193689","0.0-51.0-1.0","A6EF280D109D4633B8A32676580D0607","A6EF280D109D4633B8A32676580D0607","b22bc386-39cf-40d2-ac3f-867ae945c051","e622c465-ee29-4445-8260-1f3431e06587","{""participantId"":""A6EF280D109D4633B8A32676580D0607"",""assignmentId"":""b22bc386-39cf-40d2-ac3f-867ae945c051"",""projectId"":""e622c465-ee29-4445-8260-1f3431e06587""}","https://test12345.live/?participantId=A6EF280D109D4633B8A32676580D0607&assignmentId=b22bc386-39cf-40d2-ac3f-867ae945c051&projectId=e622c465-ee29-4445-8260-1f3431e06587","","null","<div style=""display: flex; justify-content: center; align-items: center;"">
                    <img src=""images/causal/causal_series_11/causal_series_11_b.jpg"" style=""width: 300px; height: 300px;"" />
                  </div>","null","",""
"","","","","","html-keyboard-response","71","196693","0.0-51.0-2.0","A6EF280D109D4633B8A32676580D0607","A6EF280D109D4633B8A32676580D0607","b22bc386-39cf-40d2-ac3f-867ae945c051","e622c465-ee29-4445-8260-1f3431e06587","{""participantId"":""A6EF280D109D4633B8A32676580D0607"",""assignmentId"":""b22bc386-39cf-40d2-ac3f-867ae945c051"",""projectId"":""e622c465-ee29-4445-8260-1f3431e06587""}","https://test12345.live/?participantId=A6EF280D109D4633B8A32676580D0607&assignmentId=b22bc386-39cf-40d2-ac3f-867ae945c051&projectId=e622c465-ee29-4445-8260-1f3431e06587","","null","<div style=""display: flex; justify-content: center; align-items: center;"">
                    <img src=""images/causal/causal_series_11/causal_series_11_c.jpg"" style=""width: 300px; height: 300px;"" />
                  </div>","null","",""
"","","","","","html-keyboard-response","72","199697","0.0-51.0-3.0","A6EF280D109D4633B8A32676580D0607","A6EF280D109D4633B8A32676580D0607","b22bc386-39cf-40d2-ac3f-867ae945c051","e622c465-ee29-4445-8260-1f3431e06587","{""participantId"":""A6EF280D109D4633B8A32676580D0607"",""assignmentId"":""b22bc386-39cf-40d2-ac3f-867ae945c051"",""projectId"":""e622c465-ee29-4445-8260-1f3431e06587""}","https://test12345.live/?participantId=A6EF280D109D4633B8A32676580D0607&assignmentId=b22bc386-39cf-40d2-ac3f-867ae945c051&projectId=e622c465-ee29-4445-8260-1f3431e06587","","null","<div style=""display: flex; justify-content: center; align-items: center;"">
                    <img src=""images/causal/causal_series_11/causal_series_11_d.jpg"" style=""width: 300px; height: 300px;"" />
                  </div>","null","",""
"","","","","","html-button-response","73","202305","0.0-53.0","A6EF280D109D4633B8A32676580D0607","A6EF280D109D4633B8A32676580D0607","b22bc386-39cf-40d2-ac3f-867ae945c051","e622c465-ee29-4445-8260-1f3431e06587","{""participantId"":""A6EF280D109D4633B8A32676580D0607"",""assignmentId"":""b22bc386-39cf-40d2-ac3f-867ae945c051"",""projectId"":""e622c465-ee29-4445-8260-1f3431e06587""}","https://test12345.live/?participantId=A6EF280D109D4633B8A32676580D0607&assignmentId=b22bc386-39cf-40d2-ac3f-867ae945c051&projectId=e622c465-ee29-4445-8260-1f3431e06587","","2607","Was there a person in the picture?","0","",""
"","","","","","survey-likert","74","204109","0.0-54.0","A6EF280D109D4633B8A32676580D0607","A6EF280D109D4633B8A32676580D0607","b22bc386-39cf-40d2-ac3f-867ae945c051","e622c465-ee29-4445-8260-1f3431e06587","{""participantId"":""A6EF280D109D4633B8A32676580D0607"",""assignmentId"":""b22bc386-39cf-40d2-ac3f-867ae945c051"",""projectId"":""e622c465-ee29-4445-8260-1f3431e06587""}","https://test12345.live/?participantId=A6EF280D109D4633B8A32676580D0607&assignmentId=b22bc386-39cf-40d2-ac3f-867ae945c051&projectId=e622c465-ee29-4445-8260-1f3431e06587","","1803","","{""Q0"":4}","","[0]"
"","","","","","html-button-response","75","204962","0.0-55.0","A6EF280D109D4633B8A32676580D0607","A6EF280D109D4633B8A32676580D0607","b22bc386-39cf-40d2-ac3f-867ae945c051","e622c465-ee29-4445-8260-1f3431e06587","{""participantId"":""A6EF280D109D4633B8A32676580D0607"",""assignmentId"":""b22bc386-39cf-40d2-ac3f-867ae945c051"",""projectId"":""e622c465-ee29-4445-8260-1f3431e06587""}","https://test12345.live/?participantId=A6EF280D109D4633B8A32676580D0607&assignmentId=b22bc386-39cf-40d2-ac3f-867ae945c051&projectId=e622c465-ee29-4445-8260-1f3431e06587","","852","
    <div style=""display: flex; justify-content: center; align-items: center;"">
      <img src=""images/blue_deck_1.png"" style=""width: 300px; height: 300px; margin-right: 10px;"" />
      <img src=""images/red_deck_2.png"" style=""width: 300px; height: 300px;"" />
    </div>","1","1",""
"","","","","","html-keyboard-response","76","207965","0.0-57.0-0.0","A6EF280D109D4633B8A32676580D0607","A6EF280D109D4633B8A32676580D0607","b22bc386-39cf-40d2-ac3f-867ae945c051","e622c465-ee29-4445-8260-1f3431e06587","{""participantId"":""A6EF280D109D4633B8A32676580D0607"",""assignmentId"":""b22bc386-39cf-40d2-ac3f-867ae945c051"",""projectId"":""e622c465-ee29-4445-8260-1f3431e06587""}","https://test12345.live/?participantId=A6EF280D109D4633B8A32676580D0607&assignmentId=b22bc386-39cf-40d2-ac3f-867ae945c051&projectId=e622c465-ee29-4445-8260-1f3431e06587","","null","<div style=""display: flex; justify-content: center; align-items: center;"">
                    <img src=""images/semantic/semantic_series_12/semantic_series_12_a.jpg"" style=""width: 300px; height: 300px;"" />
                  </div>","null","",""
"","","","","","html-keyboard-response","77","210981","0.0-57.0-1.0","A6EF280D109D4633B8A32676580D0607","A6EF280D109D4633B8A32676580D0607","b22bc386-39cf-40d2-ac3f-867ae945c051","e622c465-ee29-4445-8260-1f3431e06587","{""participantId"":""A6EF280D109D4633B8A32676580D0607"",""assignmentId"":""b22bc386-39cf-40d2-ac3f-867ae945c051"",""projectId"":""e622c465-ee29-4445-8260-1f3431e06587""}","https://test12345.live/?participantId=A6EF280D109D4633B8A32676580D0607&assignmentId=b22bc386-39cf-40d2-ac3f-867ae945c051&projectId=e622c465-ee29-4445-8260-1f3431e06587","","null","<div style=""display: flex; justify-content: center; align-items: center;"">
                    <img src=""images/semantic/semantic_series_12/semantic_series_12_b.jpg"" style=""width: 300px; height: 300px;"" />
                  </div>","null","",""
"","","","","","html-keyboard-response","78","213995","0.0-57.0-2.0","A6EF280D109D4633B8A32676580D0607","A6EF280D109D4633B8A32676580D0607","b22bc386-39cf-40d2-ac3f-867ae945c051","e622c465-ee29-4445-8260-1f3431e06587","{""participantId"":""A6EF280D109D4633B8A32676580D0607"",""assignmentId"":""b22bc386-39cf-40d2-ac3f-867ae945c051"",""projectId"":""e622c465-ee29-4445-8260-1f3431e06587""}","https://test12345.live/?participantId=A6EF280D109D4633B8A32676580D0607&assignmentId=b22bc386-39cf-40d2-ac3f-867ae945c051&projectId=e622c465-ee29-4445-8260-1f3431e06587","","null","<div style=""display: flex; justify-content: center; align-items: center;"">
                    <img src=""images/semantic/semantic_series_12/semantic_series_12_c.jpg"" style=""width: 300px; height: 300px;"" />
                  </div>","null","",""
"","","","","","html-keyboard-response","79","217000","0.0-57.0-3.0","A6EF280D109D4633B8A32676580D0607","A6EF280D109D4633B8A32676580D0607","b22bc386-39cf-40d2-ac3f-867ae945c051","e622c465-ee29-4445-8260-1f3431e06587","{""participantId"":""A6EF280D109D4633B8A32676580D0607"",""assignmentId"":""b22bc386-39cf-40d2-ac3f-867ae945c051"",""projectId"":""e622c465-ee29-4445-8260-1f3431e06587""}","https://test12345.live/?participantId=A6EF280D109D4633B8A32676580D0607&assignmentId=b22bc386-39cf-40d2-ac3f-867ae945c051&projectId=e622c465-ee29-4445-8260-1f3431e06587","","null","<div style=""display: flex; justify-content: center; align-items: center;"">
                    <img src=""images/semantic/semantic_series_12/semantic_series_12_d.jpg"" style=""width: 300px; height: 300px;"" />
                  </div>","null","",""
"","","","","","html-button-response","80","219513","0.0-58.0","A6EF280D109D4633B8A32676580D0607","A6EF280D109D4633B8A32676580D0607","b22bc386-39cf-40d2-ac3f-867ae945c051","e622c465-ee29-4445-8260-1f3431e06587","{""participantId"":""A6EF280D109D4633B8A32676580D0607"",""assignmentId"":""b22bc386-39cf-40d2-ac3f-867ae945c051"",""projectId"":""e622c465-ee29-4445-8260-1f3431e06587""}","https://test12345.live/?participantId=A6EF280D109D4633B8A32676580D0607&assignmentId=b22bc386-39cf-40d2-ac3f-867ae945c051&projectId=e622c465-ee29-4445-8260-1f3431e06587","","2512","Was there a person in the picture?","1","",""
"","","","","","survey-likert","81","222025","0.0-59.0","A6EF280D109D4633B8A32676580D0607","A6EF280D109D4633B8A32676580D0607","b22bc386-39cf-40d2-ac3f-867ae945c051","e622c465-ee29-4445-8260-1f3431e06587","{""participantId"":""A6EF280D109D4633B8A32676580D0607"",""assignmentId"":""b22bc386-39cf-40d2-ac3f-867ae945c051"",""projectId"":""e622c465-ee29-4445-8260-1f3431e06587""}","https://test12345.live/?participantId=A6EF280D109D4633B8A32676580D0607&assignmentId=b22bc386-39cf-40d2-ac3f-867ae945c051&projectId=e622c465-ee29-4445-8260-1f3431e06587","","2512","","{""Q0"":3}","","[0]"
"","","","","","html-button-response","82","222840","0.0-60.0","A6EF280D109D4633B8A32676580D0607","A6EF280D109D4633B8A32676580D0607","b22bc386-39cf-40d2-ac3f-867ae945c051","e622c465-ee29-4445-8260-1f3431e06587","{""participantId"":""A6EF280D109D4633B8A32676580D0607"",""assignmentId"":""b22bc386-39cf-40d2-ac3f-867ae945c051"",""projectId"":""e622c465-ee29-4445-8260-1f3431e06587""}","https://test12345.live/?participantId=A6EF280D109D4633B8A32676580D0607&assignmentId=b22bc386-39cf-40d2-ac3f-867ae945c051&projectId=e622c465-ee29-4445-8260-1f3431e06587","","815","
    <div style=""display: flex; justify-content: center; align-items: center;"">
      <img src=""images/blue_deck_1.png"" style=""width: 300px; height: 300px; margin-right: 10px;"" />
      <img src=""images/red_deck_2.png"" style=""width: 300px; height: 300px;"" />
    </div>","0","0",""
"","","","","","html-keyboard-response","83","225855","0.0-61.0-0.0","A6EF280D109D4633B8A32676580D0607","A6EF280D109D4633B8A32676580D0607","b22bc386-39cf-40d2-ac3f-867ae945c051","e622c465-ee29-4445-8260-1f3431e06587","{""participantId"":""A6EF280D109D4633B8A32676580D0607"",""assignmentId"":""b22bc386-39cf-40d2-ac3f-867ae945c051"",""projectId"":""e622c465-ee29-4445-8260-1f3431e06587""}","https://test12345.live/?participantId=A6EF280D109D4633B8A32676580D0607&assignmentId=b22bc386-39cf-40d2-ac3f-867ae945c051&projectId=e622c465-ee29-4445-8260-1f3431e06587","","null","<div style=""display: flex; justify-content: center; align-items: center;"">
                    <img src=""images/causal/causal_series_16/causal_series_16_a.jpg"" style=""width: 300px; height: 300px;"" />
                  </div>","null","",""
"","","","","","html-keyboard-response","84","228866","0.0-61.0-1.0","A6EF280D109D4633B8A32676580D0607","A6EF280D109D4633B8A32676580D0607","b22bc386-39cf-40d2-ac3f-867ae945c051","e622c465-ee29-4445-8260-1f3431e06587","{""participantId"":""A6EF280D109D4633B8A32676580D0607"",""assignmentId"":""b22bc386-39cf-40d2-ac3f-867ae945c051"",""projectId"":""e622c465-ee29-4445-8260-1f3431e06587""}","https://test12345.live/?participantId=A6EF280D109D4633B8A32676580D0607&assignmentId=b22bc386-39cf-40d2-ac3f-867ae945c051&projectId=e622c465-ee29-4445-8260-1f3431e06587","","null","<div style=""display: flex; justify-content: center; align-items: center;"">
                    <img src=""images/causal/causal_series_16/causal_series_16_b.jpg"" style=""width: 300px; height: 300px;"" />
                  </div>","null","",""
"","","","","","html-keyboard-response","85","231876","0.0-61.0-2.0","A6EF280D109D4633B8A32676580D0607","A6EF280D109D4633B8A32676580D0607","b22bc386-39cf-40d2-ac3f-867ae945c051","e622c465-ee29-4445-8260-1f3431e06587","{""participantId"":""A6EF280D109D4633B8A32676580D0607"",""assignmentId"":""b22bc386-39cf-40d2-ac3f-867ae945c051"",""projectId"":""e622c465-ee29-4445-8260-1f3431e06587""}","https://test12345.live/?participantId=A6EF280D109D4633B8A32676580D0607&assignmentId=b22bc386-39cf-40d2-ac3f-867ae945c051&projectId=e622c465-ee29-4445-8260-1f3431e06587","","null","<div style=""display: flex; justify-content: center; align-items: center;"">
                    <img src=""images/causal/causal_series_16/causal_series_16_c.jpg"" style=""width: 300px; height: 300px;"" />
                  </div>","null","",""
"","","","","","html-keyboard-response","86","234878","0.0-61.0-3.0","A6EF280D109D4633B8A32676580D0607","A6EF280D109D4633B8A32676580D0607","b22bc386-39cf-40d2-ac3f-867ae945c051","e622c465-ee29-4445-8260-1f3431e06587","{""participantId"":""A6EF280D109D4633B8A32676580D0607"",""assignmentId"":""b22bc386-39cf-40d2-ac3f-867ae945c051"",""projectId"":""e622c465-ee29-4445-8260-1f3431e06587""}","https://test12345.live/?participantId=A6EF280D109D4633B8A32676580D0607&assignmentId=b22bc386-39cf-40d2-ac3f-867ae945c051&projectId=e622c465-ee29-4445-8260-1f3431e06587","","null","<div style=""display: flex; justify-content: center; align-items: center;"">
                    <img src=""images/causal/causal_series_16/causal_series_16_d.jpg"" style=""width: 300px; height: 300px;"" />
                  </div>","null","",""
"","","","","","html-button-response","87","237409","0.0-63.0","A6EF280D109D4633B8A32676580D0607","A6EF280D109D4633B8A32676580D0607","b22bc386-39cf-40d2-ac3f-867ae945c051","e622c465-ee29-4445-8260-1f3431e06587","{""participantId"":""A6EF280D109D4633B8A32676580D0607"",""assignmentId"":""b22bc386-39cf-40d2-ac3f-867ae945c051"",""projectId"":""e622c465-ee29-4445-8260-1f3431e06587""}","https://test12345.live/?participantId=A6EF280D109D4633B8A32676580D0607&assignmentId=b22bc386-39cf-40d2-ac3f-867ae945c051&projectId=e622c465-ee29-4445-8260-1f3431e06587","","2530","Was there a person in the picture?","0","",""
"","","","","","survey-likert","88","239201","0.0-64.0","A6EF280D109D4633B8A32676580D0607","A6EF280D109D4633B8A32676580D0607","b22bc386-39cf-40d2-ac3f-867ae945c051","e622c465-ee29-4445-8260-1f3431e06587","{""participantId"":""A6EF280D109D4633B8A32676580D0607"",""assignmentId"":""b22bc386-39cf-40d2-ac3f-867ae945c051"",""projectId"":""e622c465-ee29-4445-8260-1f3431e06587""}","https://test12345.live/?participantId=A6EF280D109D4633B8A32676580D0607&assignmentId=b22bc386-39cf-40d2-ac3f-867ae945c051&projectId=e622c465-ee29-4445-8260-1f3431e06587","","1792","","{""Q0"":2}","","[0]"
"","","","","","html-button-response","89","240129","0.0-65.0","A6EF280D109D4633B8A32676580D0607","A6EF280D109D4633B8A32676580D0607","b22bc386-39cf-40d2-ac3f-867ae945c051","e622c465-ee29-4445-8260-1f3431e06587","{""participantId"":""A6EF280D109D4633B8A32676580D0607"",""assignmentId"":""b22bc386-39cf-40d2-ac3f-867ae945c051"",""projectId"":""e622c465-ee29-4445-8260-1f3431e06587""}","https://test12345.live/?participantId=A6EF280D109D4633B8A32676580D0607&assignmentId=b22bc386-39cf-40d2-ac3f-867ae945c051&projectId=e622c465-ee29-4445-8260-1f3431e06587","","928","
    <div style=""display: flex; justify-content: center; align-items: center;"">
      <img src=""images/blue_deck_1.png"" style=""width: 300px; height: 300px; margin-right: 10px;"" />
      <img src=""images/red_deck_2.png"" style=""width: 300px; height: 300px;"" />
    </div>","0","0",""
"","","","","","html-keyboard-response","90","243140","0.0-66.0-0.0","A6EF280D109D4633B8A32676580D0607","A6EF280D109D4633B8A32676580D0607","b22bc386-39cf-40d2-ac3f-867ae945c051","e622c465-ee29-4445-8260-1f3431e06587","{""participantId"":""A6EF280D109D4633B8A32676580D0607"",""assignmentId"":""b22bc386-39cf-40d2-ac3f-867ae945c051"",""projectId"":""e622c465-ee29-4445-8260-1f3431e06587""}","https://test12345.live/?participantId=A6EF280D109D4633B8A32676580D0607&assignmentId=b22bc386-39cf-40d2-ac3f-867ae945c051&projectId=e622c465-ee29-4445-8260-1f3431e06587","","null","<div style=""display: flex; justify-content: center; align-items: center;"">
                    <img src=""images/causal/causal_series_4/causal_series_4_a.jpg"" style=""width: 300px; height: 300px;"" />
                  </div>","null","",""
"","","","","","html-keyboard-response","91","246149","0.0-66.0-1.0","A6EF280D109D4633B8A32676580D0607","A6EF280D109D4633B8A32676580D0607","b22bc386-39cf-40d2-ac3f-867ae945c051","e622c465-ee29-4445-8260-1f3431e06587","{""participantId"":""A6EF280D109D4633B8A32676580D0607"",""assignmentId"":""b22bc386-39cf-40d2-ac3f-867ae945c051"",""projectId"":""e622c465-ee29-4445-8260-1f3431e06587""}","https://test12345.live/?participantId=A6EF280D109D4633B8A32676580D0607&assignmentId=b22bc386-39cf-40d2-ac3f-867ae945c051&projectId=e622c465-ee29-4445-8260-1f3431e06587","","null","<div style=""display: flex; justify-content: center; align-items: center;"">
                    <img src=""images/causal/causal_series_4/causal_series_4_b.jpg"" style=""width: 300px; height: 300px;"" />
                  </div>","null","",""
"","","","","","html-keyboard-response","92","249159","0.0-66.0-2.0","A6EF280D109D4633B8A32676580D0607","A6EF280D109D4633B8A32676580D0607","b22bc386-39cf-40d2-ac3f-867ae945c051","e622c465-ee29-4445-8260-1f3431e06587","{""participantId"":""A6EF280D109D4633B8A32676580D0607"",""assignmentId"":""b22bc386-39cf-40d2-ac3f-867ae945c051"",""projectId"":""e622c465-ee29-4445-8260-1f3431e06587""}","https://test12345.live/?participantId=A6EF280D109D4633B8A32676580D0607&assignmentId=b22bc386-39cf-40d2-ac3f-867ae945c051&projectId=e622c465-ee29-4445-8260-1f3431e06587","","null","<div style=""display: flex; justify-content: center; align-items: center;"">
                    <img src=""images/causal/causal_series_4/causal_series_4_c.jpg"" style=""width: 300px; height: 300px;"" />
                  </div>","null","",""
"","","","","","html-keyboard-response","93","252170","0.0-66.0-3.0","A6EF280D109D4633B8A32676580D0607","A6EF280D109D4633B8A32676580D0607","b22bc386-39cf-40d2-ac3f-867ae945c051","e622c465-ee29-4445-8260-1f3431e06587","{""participantId"":""A6EF280D109D4633B8A32676580D0607"",""assignmentId"":""b22bc386-39cf-40d2-ac3f-867ae945c051"",""projectId"":""e622c465-ee29-4445-8260-1f3431e06587""}","https://test12345.live/?participantId=A6EF280D109D4633B8A32676580D0607&assignmentId=b22bc386-39cf-40d2-ac3f-867ae945c051&projectId=e622c465-ee29-4445-8260-1f3431e06587","","null","<div style=""display: flex; justify-content: center; align-items: center;"">
                    <img src=""images/causal/causal_series_4/causal_series_4_d.jpg"" style=""width: 300px; height: 300px;"" />
                  </div>","null","",""
"","","","","","html-button-response","94","254945","0.0-68.0","A6EF280D109D4633B8A32676580D0607","A6EF280D109D4633B8A32676580D0607","b22bc386-39cf-40d2-ac3f-867ae945c051","e622c465-ee29-4445-8260-1f3431e06587","{""participantId"":""A6EF280D109D4633B8A32676580D0607"",""assignmentId"":""b22bc386-39cf-40d2-ac3f-867ae945c051"",""projectId"":""e622c465-ee29-4445-8260-1f3431e06587""}","https://test12345.live/?participantId=A6EF280D109D4633B8A32676580D0607&assignmentId=b22bc386-39cf-40d2-ac3f-867ae945c051&projectId=e622c465-ee29-4445-8260-1f3431e06587","","2774","Was there a person in the picture?","1","",""
"","","","","","survey-likert","95","256440","0.0-69.0","A6EF280D109D4633B8A32676580D0607","A6EF280D109D4633B8A32676580D0607","b22bc386-39cf-40d2-ac3f-867ae945c051","e622c465-ee29-4445-8260-1f3431e06587","{""participantId"":""A6EF280D109D4633B8A32676580D0607"",""assignmentId"":""b22bc386-39cf-40d2-ac3f-867ae945c051"",""projectId"":""e622c465-ee29-4445-8260-1f3431e06587""}","https://test12345.live/?participantId=A6EF280D109D4633B8A32676580D0607&assignmentId=b22bc386-39cf-40d2-ac3f-867ae945c051&projectId=e622c465-ee29-4445-8260-1f3431e06587","","1495","","{""Q0"":4}","","[0]"
"","","","","","html-button-response","96","257369","0.0-70.0","A6EF280D109D4633B8A32676580D0607","A6EF280D109D4633B8A32676580D0607","b22bc386-39cf-40d2-ac3f-867ae945c051","e622c465-ee29-4445-8260-1f3431e06587","{""participantId"":""A6EF280D109D4633B8A32676580D0607"",""assignmentId"":""b22bc386-39cf-40d2-ac3f-867ae945c051"",""projectId"":""e622c465-ee29-4445-8260-1f3431e06587""}","https://test12345.live/?participantId=A6EF280D109D4633B8A32676580D0607&assignmentId=b22bc386-39cf-40d2-ac3f-867ae945c051&projectId=e622c465-ee29-4445-8260-1f3431e06587","","927","
    <div style=""display: flex; justify-content: center; align-items: center;"">
      <img src=""images/blue_deck_1.png"" style=""width: 300px; height: 300px; margin-right: 10px;"" />
      <img src=""images/red_deck_2.png"" style=""width: 300px; height: 300px;"" />
    </div>","0","0",""
"","","","","","html-keyboard-response","97","260372","0.0-71.0-0.0","A6EF280D109D4633B8A32676580D0607","A6EF280D109D4633B8A32676580D0607","b22bc386-39cf-40d2-ac3f-867ae945c051","e622c465-ee29-4445-8260-1f3431e06587","{""participantId"":""A6EF280D109D4633B8A32676580D0607"",""assignmentId"":""b22bc386-39cf-40d2-ac3f-867ae945c051"",""projectId"":""e622c465-ee29-4445-8260-1f3431e06587""}","https://test12345.live/?participantId=A6EF280D109D4633B8A32676580D0607&assignmentId=b22bc386-39cf-40d2-ac3f-867ae945c051&projectId=e622c465-ee29-4445-8260-1f3431e06587","","null","<div style=""display: flex; justify-content: center; align-items: center;"">
                    <img src=""images/causal/causal_series_18/causal_series_18_a.jpg"" style=""width: 300px; height: 300px;"" />
                  </div>","null","",""
"","","","","","html-keyboard-response","98","263373","0.0-71.0-1.0","A6EF280D109D4633B8A32676580D0607","A6EF280D109D4633B8A32676580D0607","b22bc386-39cf-40d2-ac3f-867ae945c051","e622c465-ee29-4445-8260-1f3431e06587","{""participantId"":""A6EF280D109D4633B8A32676580D0607"",""assignmentId"":""b22bc386-39cf-40d2-ac3f-867ae945c051"",""projectId"":""e622c465-ee29-4445-8260-1f3431e06587""}","https://test12345.live/?participantId=A6EF280D109D4633B8A32676580D0607&assignmentId=b22bc386-39cf-40d2-ac3f-867ae945c051&projectId=e622c465-ee29-4445-8260-1f3431e06587","","null","<div style=""display: flex; justify-content: center; align-items: center;"">
                    <img src=""images/causal/causal_series_18/causal_series_18_b.jpg"" style=""width: 300px; height: 300px;"" />
                  </div>","null","",""
"","","","","","html-keyboard-response","99","266387","0.0-71.0-2.0","A6EF280D109D4633B8A32676580D0607","A6EF280D109D4633B8A32676580D0607","b22bc386-39cf-40d2-ac3f-867ae945c051","e622c465-ee29-4445-8260-1f3431e06587","{""participantId"":""A6EF280D109D4633B8A32676580D0607"",""assignmentId"":""b22bc386-39cf-40d2-ac3f-867ae945c051"",""projectId"":""e622c465-ee29-4445-8260-1f3431e06587""}","https://test12345.live/?participantId=A6EF280D109D4633B8A32676580D0607&assignmentId=b22bc386-39cf-40d2-ac3f-867ae945c051&projectId=e622c465-ee29-4445-8260-1f3431e06587","","null","<div style=""display: flex; justify-content: center; align-items: center;"">
                    <img src=""images/causal/causal_series_18/causal_series_18_c.jpg"" style=""width: 300px; height: 300px;"" />
                  </div>","null","",""
"","","","","","html-keyboard-response","100","269395","0.0-71.0-3.0","A6EF280D109D4633B8A32676580D0607","A6EF280D109D4633B8A32676580D0607","b22bc386-39cf-40d2-ac3f-867ae945c051","e622c465-ee29-4445-8260-1f3431e06587","{""participantId"":""A6EF280D109D4633B8A32676580D0607"",""assignmentId"":""b22bc386-39cf-40d2-ac3f-867ae945c051"",""projectId"":""e622c465-ee29-4445-8260-1f3431e06587""}","https://test12345.live/?participantId=A6EF280D109D4633B8A32676580D0607&assignmentId=b22bc386-39cf-40d2-ac3f-867ae945c051&projectId=e622c465-ee29-4445-8260-1f3431e06587","","null","<div style=""display: flex; justify-content: center; align-items: center;"">
                    <img src=""images/causal/causal_series_18/causal_series_18_d.jpg"" style=""width: 300px; height: 300px;"" />
                  </div>","null","",""
"","","","","","html-button-response","101","273617","0.0-73.0","A6EF280D109D4633B8A32676580D0607","A6EF280D109D4633B8A32676580D0607","b22bc386-39cf-40d2-ac3f-867ae945c051","e622c465-ee29-4445-8260-1f3431e06587","{""participantId"":""A6EF280D109D4633B8A32676580D0607"",""assignmentId"":""b22bc386-39cf-40d2-ac3f-867ae945c051"",""projectId"":""e622c465-ee29-4445-8260-1f3431e06587""}","https://test12345.live/?participantId=A6EF280D109D4633B8A32676580D0607&assignmentId=b22bc386-39cf-40d2-ac3f-867ae945c051&projectId=e622c465-ee29-4445-8260-1f3431e06587","","4221","Was there a person in the picture?","1","",""
"","","","","","survey-likert","102","275368","0.0-74.0","A6EF280D109D4633B8A32676580D0607","A6EF280D109D4633B8A32676580D0607","b22bc386-39cf-40d2-ac3f-867ae945c051","e622c465-ee29-4445-8260-1f3431e06587","{""participantId"":""A6EF280D109D4633B8A32676580D0607"",""assignmentId"":""b22bc386-39cf-40d2-ac3f-867ae945c051"",""projectId"":""e622c465-ee29-4445-8260-1f3431e06587""}","https://test12345.live/?participantId=A6EF280D109D4633B8A32676580D0607&assignmentId=b22bc386-39cf-40d2-ac3f-867ae945c051&projectId=e622c465-ee29-4445-8260-1f3431e06587","","1751","","{""Q0"":2}","","[0]"
"","","","","","html-button-response","103","276733","0.0-75.0","A6EF280D109D4633B8A32676580D0607","A6EF280D109D4633B8A32676580D0607","b22bc386-39cf-40d2-ac3f-867ae945c051","e622c465-ee29-4445-8260-1f3431e06587","{""participantId"":""A6EF280D109D4633B8A32676580D0607"",""assignmentId"":""b22bc386-39cf-40d2-ac3f-867ae945c051"",""projectId"":""e622c465-ee29-4445-8260-1f3431e06587""}","https://test12345.live/?participantId=A6EF280D109D4633B8A32676580D0607&assignmentId=b22bc386-39cf-40d2-ac3f-867ae945c051&projectId=e622c465-ee29-4445-8260-1f3431e06587","","1364","
    <div style=""display: flex; justify-content: center; align-items: center;"">
      <img src=""images/blue_deck_1.png"" style=""width: 300px; height: 300px; margin-right: 10px;"" />
      <img src=""images/red_deck_2.png"" style=""width: 300px; height: 300px;"" />
    </div>","1","1",""
"","","","","","html-keyboard-response","104","279735","0.0-77.0-0.0","A6EF280D109D4633B8A32676580D0607","A6EF280D109D4633B8A32676580D0607","b22bc386-39cf-40d2-ac3f-867ae945c051","e622c465-ee29-4445-8260-1f3431e06587","{""participantId"":""A6EF280D109D4633B8A32676580D0607"",""assignmentId"":""b22bc386-39cf-40d2-ac3f-867ae945c051"",""projectId"":""e622c465-ee29-4445-8260-1f3431e06587""}","https://test12345.live/?participantId=A6EF280D109D4633B8A32676580D0607&assignmentId=b22bc386-39cf-40d2-ac3f-867ae945c051&projectId=e622c465-ee29-4445-8260-1f3431e06587","","null","<div style=""display: flex; justify-content: center; align-items: center;"">
                    <img src=""images/semantic/semantic_series_9/semantic_series_9_a.jpg"" style=""width: 300px; height: 300px;"" />
                  </div>","null","",""
"","","","","","html-keyboard-response","105","282748","0.0-77.0-1.0","A6EF280D109D4633B8A32676580D0607","A6EF280D109D4633B8A32676580D0607","b22bc386-39cf-40d2-ac3f-867ae945c051","e622c465-ee29-4445-8260-1f3431e06587","{""participantId"":""A6EF280D109D4633B8A32676580D0607"",""assignmentId"":""b22bc386-39cf-40d2-ac3f-867ae945c051"",""projectId"":""e622c465-ee29-4445-8260-1f3431e06587""}","https://test12345.live/?participantId=A6EF280D109D4633B8A32676580D0607&assignmentId=b22bc386-39cf-40d2-ac3f-867ae945c051&projectId=e622c465-ee29-4445-8260-1f3431e06587","","null","<div style=""display: flex; justify-content: center; align-items: center;"">
                    <img src=""images/semantic/semantic_series_9/semantic_series_9_b.jpg"" style=""width: 300px; height: 300px;"" />
                  </div>","null","",""
"","","","","","html-keyboard-response","106","285763","0.0-77.0-2.0","A6EF280D109D4633B8A32676580D0607","A6EF280D109D4633B8A32676580D0607","b22bc386-39cf-40d2-ac3f-867ae945c051","e622c465-ee29-4445-8260-1f3431e06587","{""participantId"":""A6EF280D109D4633B8A32676580D0607"",""assignmentId"":""b22bc386-39cf-40d2-ac3f-867ae945c051"",""projectId"":""e622c465-ee29-4445-8260-1f3431e06587""}","https://test12345.live/?participantId=A6EF280D109D4633B8A32676580D0607&assignmentId=b22bc386-39cf-40d2-ac3f-867ae945c051&projectId=e622c465-ee29-4445-8260-1f3431e06587","","null","<div style=""display: flex; justify-content: center; align-items: center;"">
                    <img src=""images/semantic/semantic_series_9/semantic_series_9_c.jpg"" style=""width: 300px; height: 300px;"" />
                  </div>","null","",""
"","","","","","html-keyboard-response","107","288770","0.0-77.0-3.0","A6EF280D109D4633B8A32676580D0607","A6EF280D109D4633B8A32676580D0607","b22bc386-39cf-40d2-ac3f-867ae945c051","e622c465-ee29-4445-8260-1f3431e06587","{""participantId"":""A6EF280D109D4633B8A32676580D0607"",""assignmentId"":""b22bc386-39cf-40d2-ac3f-867ae945c051"",""projectId"":""e622c465-ee29-4445-8260-1f3431e06587""}","https://test12345.live/?participantId=A6EF280D109D4633B8A32676580D0607&assignmentId=b22bc386-39cf-40d2-ac3f-867ae945c051&projectId=e622c465-ee29-4445-8260-1f3431e06587","","null","<div style=""display: flex; justify-content: center; align-items: center;"">
                    <img src=""images/semantic/semantic_series_9/semantic_series_9_d.jpg"" style=""width: 300px; height: 300px;"" />
                  </div>","null","",""
"","","","","","html-button-response","108","291772","0.0-78.0","A6EF280D109D4633B8A32676580D0607","A6EF280D109D4633B8A32676580D0607","b22bc386-39cf-40d2-ac3f-867ae945c051","e622c465-ee29-4445-8260-1f3431e06587","{""participantId"":""A6EF280D109D4633B8A32676580D0607"",""assignmentId"":""b22bc386-39cf-40d2-ac3f-867ae945c051"",""projectId"":""e622c465-ee29-4445-8260-1f3431e06587""}","https://test12345.live/?participantId=A6EF280D109D4633B8A32676580D0607&assignmentId=b22bc386-39cf-40d2-ac3f-867ae945c051&projectId=e622c465-ee29-4445-8260-1f3431e06587","","3002","Was there a person in the picture?","1","",""
"","","","","","survey-likert","109","293525","0.0-79.0","A6EF280D109D4633B8A32676580D0607","A6EF280D109D4633B8A32676580D0607","b22bc386-39cf-40d2-ac3f-867ae945c051","e622c465-ee29-4445-8260-1f3431e06587","{""participantId"":""A6EF280D109D4633B8A32676580D0607"",""assignmentId"":""b22bc386-39cf-40d2-ac3f-867ae945c051"",""projectId"":""e622c465-ee29-4445-8260-1f3431e06587""}","https://test12345.live/?participantId=A6EF280D109D4633B8A32676580D0607&assignmentId=b22bc386-39cf-40d2-ac3f-867ae945c051&projectId=e622c465-ee29-4445-8260-1f3431e06587","","1752","","{""Q0"":4}","","[0]"
"","","","","","html-button-response","110","294365","0.0-80.0","A6EF280D109D4633B8A32676580D0607","A6EF280D109D4633B8A32676580D0607","b22bc386-39cf-40d2-ac3f-867ae945c051","e622c465-ee29-4445-8260-1f3431e06587","{""participantId"":""A6EF280D109D4633B8A32676580D0607"",""assignmentId"":""b22bc386-39cf-40d2-ac3f-867ae945c051"",""projectId"":""e622c465-ee29-4445-8260-1f3431e06587""}","https://test12345.live/?participantId=A6EF280D109D4633B8A32676580D0607&assignmentId=b22bc386-39cf-40d2-ac3f-867ae945c051&projectId=e622c465-ee29-4445-8260-1f3431e06587","","840","
    <div style=""display: flex; justify-content: center; align-items: center;"">
      <img src=""images/blue_deck_1.png"" style=""width: 300px; height: 300px; margin-right: 10px;"" />
      <img src=""images/red_deck_2.png"" style=""width: 300px; height: 300px;"" />
    </div>","0","0",""
"","","","","","html-keyboard-response","111","297370","0.0-81.0-0.0","A6EF280D109D4633B8A32676580D0607","A6EF280D109D4633B8A32676580D0607","b22bc386-39cf-40d2-ac3f-867ae945c051","e622c465-ee29-4445-8260-1f3431e06587","{""participantId"":""A6EF280D109D4633B8A32676580D0607"",""assignmentId"":""b22bc386-39cf-40d2-ac3f-867ae945c051"",""projectId"":""e622c465-ee29-4445-8260-1f3431e06587""}","https://test12345.live/?participantId=A6EF280D109D4633B8A32676580D0607&assignmentId=b22bc386-39cf-40d2-ac3f-867ae945c051&projectId=e622c465-ee29-4445-8260-1f3431e06587","","null","<div style=""display: flex; justify-content: center; align-items: center;"">
                    <img src=""images/causal/causal_series_7/causal_series_7_a.jpg"" style=""width: 300px; height: 300px;"" />
                  </div>","null","",""
"","","","","","html-keyboard-response","112","300384","0.0-81.0-1.0","A6EF280D109D4633B8A32676580D0607","A6EF280D109D4633B8A32676580D0607","b22bc386-39cf-40d2-ac3f-867ae945c051","e622c465-ee29-4445-8260-1f3431e06587","{""participantId"":""A6EF280D109D4633B8A32676580D0607"",""assignmentId"":""b22bc386-39cf-40d2-ac3f-867ae945c051"",""projectId"":""e622c465-ee29-4445-8260-1f3431e06587""}","https://test12345.live/?participantId=A6EF280D109D4633B8A32676580D0607&assignmentId=b22bc386-39cf-40d2-ac3f-867ae945c051&projectId=e622c465-ee29-4445-8260-1f3431e06587","","null","<div style=""display: flex; justify-content: center; align-items: center;"">
                    <img src=""images/causal/causal_series_7/causal_series_7_b.jpg"" style=""width: 300px; height: 300px;"" />
                  </div>","null","",""
"","","","","","html-keyboard-response","113","303391","0.0-81.0-2.0","A6EF280D109D4633B8A32676580D0607","A6EF280D109D4633B8A32676580D0607","b22bc386-39cf-40d2-ac3f-867ae945c051","e622c465-ee29-4445-8260-1f3431e06587","{""participantId"":""A6EF280D109D4633B8A32676580D0607"",""assignmentId"":""b22bc386-39cf-40d2-ac3f-867ae945c051"",""projectId"":""e622c465-ee29-4445-8260-1f3431e06587""}","https://test12345.live/?participantId=A6EF280D109D4633B8A32676580D0607&assignmentId=b22bc386-39cf-40d2-ac3f-867ae945c051&projectId=e622c465-ee29-4445-8260-1f3431e06587","","null","<div style=""display: flex; justify-content: center; align-items: center;"">
                    <img src=""images/causal/causal_series_7/causal_series_7_c.jpg"" style=""width: 300px; height: 300px;"" />
                  </div>","null","",""
"","","","","","html-keyboard-response","114","306395","0.0-81.0-3.0","A6EF280D109D4633B8A32676580D0607","A6EF280D109D4633B8A32676580D0607","b22bc386-39cf-40d2-ac3f-867ae945c051","e622c465-ee29-4445-8260-1f3431e06587","{""participantId"":""A6EF280D109D4633B8A32676580D0607"",""assignmentId"":""b22bc386-39cf-40d2-ac3f-867ae945c051"",""projectId"":""e622c465-ee29-4445-8260-1f3431e06587""}","https://test12345.live/?participantId=A6EF280D109D4633B8A32676580D0607&assignmentId=b22bc386-39cf-40d2-ac3f-867ae945c051&projectId=e622c465-ee29-4445-8260-1f3431e06587","","null","<div style=""display: flex; justify-content: center; align-items: center;"">
                    <img src=""images/causal/causal_series_7/causal_series_7_d.jpg"" style=""width: 300px; height: 300px;"" />
                  </div>","null","",""
"","","","","","html-button-response","115","309485","0.0-83.0","A6EF280D109D4633B8A32676580D0607","A6EF280D109D4633B8A32676580D0607","b22bc386-39cf-40d2-ac3f-867ae945c051","e622c465-ee29-4445-8260-1f3431e06587","{""participantId"":""A6EF280D109D4633B8A32676580D0607"",""assignmentId"":""b22bc386-39cf-40d2-ac3f-867ae945c051"",""projectId"":""e622c465-ee29-4445-8260-1f3431e06587""}","https://test12345.live/?participantId=A6EF280D109D4633B8A32676580D0607&assignmentId=b22bc386-39cf-40d2-ac3f-867ae945c051&projectId=e622c465-ee29-4445-8260-1f3431e06587","","3089","Was there a person in the picture?","1","",""
"","","","","","survey-likert","116","311749","0.0-84.0","A6EF280D109D4633B8A32676580D0607","A6EF280D109D4633B8A32676580D0607","b22bc386-39cf-40d2-ac3f-867ae945c051","e622c465-ee29-4445-8260-1f3431e06587","{""participantId"":""A6EF280D109D4633B8A32676580D0607"",""assignmentId"":""b22bc386-39cf-40d2-ac3f-867ae945c051"",""projectId"":""e622c465-ee29-4445-8260-1f3431e06587""}","https://test12345.live/?participantId=A6EF280D109D4633B8A32676580D0607&assignmentId=b22bc386-39cf-40d2-ac3f-867ae945c051&projectId=e622c465-ee29-4445-8260-1f3431e06587","","2264","","{""Q0"":4}","","[0]"
"","","","","","html-button-response","117","312613","0.0-85.0","A6EF280D109D4633B8A32676580D0607","A6EF280D109D4633B8A32676580D0607","b22bc386-39cf-40d2-ac3f-867ae945c051","e622c465-ee29-4445-8260-1f3431e06587","{""participantId"":""A6EF280D109D4633B8A32676580D0607"",""assignmentId"":""b22bc386-39cf-40d2-ac3f-867ae945c051"",""projectId"":""e622c465-ee29-4445-8260-1f3431e06587""}","https://test12345.live/?participantId=A6EF280D109D4633B8A32676580D0607&assignmentId=b22bc386-39cf-40d2-ac3f-867ae945c051&projectId=e622c465-ee29-4445-8260-1f3431e06587","","864","
    <div style=""display: flex; justify-content: center; align-items: center;"">
      <img src=""images/blue_deck_1.png"" style=""width: 300px; height: 300px; margin-right: 10px;"" />
      <img src=""images/red_deck_2.png"" style=""width: 300px; height: 300px;"" />
    </div>","0","0",""
"","","","","","html-keyboard-response","118","315620","0.0-86.0-0.0","A6EF280D109D4633B8A32676580D0607","A6EF280D109D4633B8A32676580D0607","b22bc386-39cf-40d2-ac3f-867ae945c051","e622c465-ee29-4445-8260-1f3431e06587","{""participantId"":""A6EF280D109D4633B8A32676580D0607"",""assignmentId"":""b22bc386-39cf-40d2-ac3f-867ae945c051"",""projectId"":""e622c465-ee29-4445-8260-1f3431e06587""}","https://test12345.live/?participantId=A6EF280D109D4633B8A32676580D0607&assignmentId=b22bc386-39cf-40d2-ac3f-867ae945c051&projectId=e622c465-ee29-4445-8260-1f3431e06587","","null","<div style=""display: flex; justify-content: center; align-items: center;"">
                    <img src=""images/causal/causal_series_14/causal_series_14_a.jpg"" style=""width: 300px; height: 300px;"" />
                  </div>","null","",""
"","","","","","html-keyboard-response","119","318628","0.0-86.0-1.0","A6EF280D109D4633B8A32676580D0607","A6EF280D109D4633B8A32676580D0607","b22bc386-39cf-40d2-ac3f-867ae945c051","e622c465-ee29-4445-8260-1f3431e06587","{""participantId"":""A6EF280D109D4633B8A32676580D0607"",""assignmentId"":""b22bc386-39cf-40d2-ac3f-867ae945c051"",""projectId"":""e622c465-ee29-4445-8260-1f3431e06587""}","https://test12345.live/?participantId=A6EF280D109D4633B8A32676580D0607&assignmentId=b22bc386-39cf-40d2-ac3f-867ae945c051&projectId=e622c465-ee29-4445-8260-1f3431e06587","","null","<div style=""display: flex; justify-content: center; align-items: center;"">
                    <img src=""images/causal/causal_series_14/causal_series_14_b.jpg"" style=""width: 300px; height: 300px;"" />
                  </div>","null","",""
"","","","","","html-keyboard-response","120","321642","0.0-86.0-2.0","A6EF280D109D4633B8A32676580D0607","A6EF280D109D4633B8A32676580D0607","b22bc386-39cf-40d2-ac3f-867ae945c051","e622c465-ee29-4445-8260-1f3431e06587","{""participantId"":""A6EF280D109D4633B8A32676580D0607"",""assignmentId"":""b22bc386-39cf-40d2-ac3f-867ae945c051"",""projectId"":""e622c465-ee29-4445-8260-1f3431e06587""}","https://test12345.live/?participantId=A6EF280D109D4633B8A32676580D0607&assignmentId=b22bc386-39cf-40d2-ac3f-867ae945c051&projectId=e622c465-ee29-4445-8260-1f3431e06587","","null","<div style=""display: flex; justify-content: center; align-items: center;"">
                    <img src=""images/causal/causal_series_14/causal_series_14_c.jpg"" style=""width: 300px; height: 300px;"" />
                  </div>","null","",""
"","","","","","html-keyboard-response","121","324646","0.0-86.0-3.0","A6EF280D109D4633B8A32676580D0607","A6EF280D109D4633B8A32676580D0607","b22bc386-39cf-40d2-ac3f-867ae945c051","e622c465-ee29-4445-8260-1f3431e06587","{""participantId"":""A6EF280D109D4633B8A32676580D0607"",""assignmentId"":""b22bc386-39cf-40d2-ac3f-867ae945c051"",""projectId"":""e622c465-ee29-4445-8260-1f3431e06587""}","https://test12345.live/?participantId=A6EF280D109D4633B8A32676580D0607&assignmentId=b22bc386-39cf-40d2-ac3f-867ae945c051&projectId=e622c465-ee29-4445-8260-1f3431e06587","","null","<div style=""display: flex; justify-content: center; align-items: center;"">
                    <img src=""images/causal/causal_series_14/causal_series_14_d.jpg"" style=""width: 300px; height: 300px;"" />
                  </div>","null","",""
"","","","","","html-button-response","122","328157","0.0-88.0","A6EF280D109D4633B8A32676580D0607","A6EF280D109D4633B8A32676580D0607","b22bc386-39cf-40d2-ac3f-867ae945c051","e622c465-ee29-4445-8260-1f3431e06587","{""participantId"":""A6EF280D109D4633B8A32676580D0607"",""assignmentId"":""b22bc386-39cf-40d2-ac3f-867ae945c051"",""projectId"":""e622c465-ee29-4445-8260-1f3431e06587""}","https://test12345.live/?participantId=A6EF280D109D4633B8A32676580D0607&assignmentId=b22bc386-39cf-40d2-ac3f-867ae945c051&projectId=e622c465-ee29-4445-8260-1f3431e06587","","3510","Was there a person in the picture?","0","",""
"","","","","","survey-likert","123","330093","0.0-89.0","A6EF280D109D4633B8A32676580D0607","A6EF280D109D4633B8A32676580D0607","b22bc386-39cf-40d2-ac3f-867ae945c051","e622c465-ee29-4445-8260-1f3431e06587","{""participantId"":""A6EF280D109D4633B8A32676580D0607"",""assignmentId"":""b22bc386-39cf-40d2-ac3f-867ae945c051"",""projectId"":""e622c465-ee29-4445-8260-1f3431e06587""}","https://test12345.live/?participantId=A6EF280D109D4633B8A32676580D0607&assignmentId=b22bc386-39cf-40d2-ac3f-867ae945c051&projectId=e622c465-ee29-4445-8260-1f3431e06587","","1935","","{""Q0"":3}","","[0]"
"","","","","","html-button-response","124","331037","0.0-90.0","A6EF280D109D4633B8A32676580D0607","A6EF280D109D4633B8A32676580D0607","b22bc386-39cf-40d2-ac3f-867ae945c051","e622c465-ee29-4445-8260-1f3431e06587","{""participantId"":""A6EF280D109D4633B8A32676580D0607"",""assignmentId"":""b22bc386-39cf-40d2-ac3f-867ae945c051"",""projectId"":""e622c465-ee29-4445-8260-1f3431e06587""}","https://test12345.live/?participantId=A6EF280D109D4633B8A32676580D0607&assignmentId=b22bc386-39cf-40d2-ac3f-867ae945c051&projectId=e622c465-ee29-4445-8260-1f3431e06587","","943","
    <div style=""display: flex; justify-content: center; align-items: center;"">
      <img src=""images/blue_deck_1.png"" style=""width: 300px; height: 300px; margin-right: 10px;"" />
      <img src=""images/red_deck_2.png"" style=""width: 300px; height: 300px;"" />
    </div>","0","0",""
"","","","","","html-keyboard-response","125","334050","0.0-91.0-0.0","A6EF280D109D4633B8A32676580D0607","A6EF280D109D4633B8A32676580D0607","b22bc386-39cf-40d2-ac3f-867ae945c051","e622c465-ee29-4445-8260-1f3431e06587","{""participantId"":""A6EF280D109D4633B8A32676580D0607"",""assignmentId"":""b22bc386-39cf-40d2-ac3f-867ae945c051"",""projectId"":""e622c465-ee29-4445-8260-1f3431e06587""}","https://test12345.live/?participantId=A6EF280D109D4633B8A32676580D0607&assignmentId=b22bc386-39cf-40d2-ac3f-867ae945c051&projectId=e622c465-ee29-4445-8260-1f3431e06587","","null","<div style=""display: flex; justify-content: center; align-items: center;"">
                    <img src=""images/causal/causal_series_1/causal_series_1_a.jpg"" style=""width: 300px; height: 300px;"" />
                  </div>","null","",""
"","","","","","html-keyboard-response","126","337063","0.0-91.0-1.0","A6EF280D109D4633B8A32676580D0607","A6EF280D109D4633B8A32676580D0607","b22bc386-39cf-40d2-ac3f-867ae945c051","e622c465-ee29-4445-8260-1f3431e06587","{""participantId"":""A6EF280D109D4633B8A32676580D0607"",""assignmentId"":""b22bc386-39cf-40d2-ac3f-867ae945c051"",""projectId"":""e622c465-ee29-4445-8260-1f3431e06587""}","https://test12345.live/?participantId=A6EF280D109D4633B8A32676580D0607&assignmentId=b22bc386-39cf-40d2-ac3f-867ae945c051&projectId=e622c465-ee29-4445-8260-1f3431e06587","","null","<div style=""display: flex; justify-content: center; align-items: center;"">
                    <img src=""images/causal/causal_series_1/causal_series_1_b.jpg"" style=""width: 300px; height: 300px;"" />
                  </div>","null","",""
"","","","","","html-keyboard-response","127","340079","0.0-91.0-2.0","A6EF280D109D4633B8A32676580D0607","A6EF280D109D4633B8A32676580D0607","b22bc386-39cf-40d2-ac3f-867ae945c051","e622c465-ee29-4445-8260-1f3431e06587","{""participantId"":""A6EF280D109D4633B8A32676580D0607"",""assignmentId"":""b22bc386-39cf-40d2-ac3f-867ae945c051"",""projectId"":""e622c465-ee29-4445-8260-1f3431e06587""}","https://test12345.live/?participantId=A6EF280D109D4633B8A32676580D0607&assignmentId=b22bc386-39cf-40d2-ac3f-867ae945c051&projectId=e622c465-ee29-4445-8260-1f3431e06587","","null","<div style=""display: flex; justify-content: center; align-items: center;"">
                    <img src=""images/causal/causal_series_1/causal_series_1_c.jpg"" style=""width: 300px; height: 300px;"" />
                  </div>","null","",""
"","","","","","html-keyboard-response","128","343094","0.0-91.0-3.0","A6EF280D109D4633B8A32676580D0607","A6EF280D109D4633B8A32676580D0607","b22bc386-39cf-40d2-ac3f-867ae945c051","e622c465-ee29-4445-8260-1f3431e06587","{""participantId"":""A6EF280D109D4633B8A32676580D0607"",""assignmentId"":""b22bc386-39cf-40d2-ac3f-867ae945c051"",""projectId"":""e622c465-ee29-4445-8260-1f3431e06587""}","https://test12345.live/?participantId=A6EF280D109D4633B8A32676580D0607&assignmentId=b22bc386-39cf-40d2-ac3f-867ae945c051&projectId=e622c465-ee29-4445-8260-1f3431e06587","","null","<div style=""display: flex; justify-content: center; align-items: center;"">
                    <img src=""images/causal/causal_series_1/causal_series_1_d.jpg"" style=""width: 300px; height: 300px;"" />
                  </div>","null","",""
"","","","","","html-button-response","129","345669","0.0-93.0","A6EF280D109D4633B8A32676580D0607","A6EF280D109D4633B8A32676580D0607","b22bc386-39cf-40d2-ac3f-867ae945c051","e622c465-ee29-4445-8260-1f3431e06587","{""participantId"":""A6EF280D109D4633B8A32676580D0607"",""assignmentId"":""b22bc386-39cf-40d2-ac3f-867ae945c051"",""projectId"":""e622c465-ee29-4445-8260-1f3431e06587""}","https://test12345.live/?participantId=A6EF280D109D4633B8A32676580D0607&assignmentId=b22bc386-39cf-40d2-ac3f-867ae945c051&projectId=e622c465-ee29-4445-8260-1f3431e06587","","2574","Was there a person in the picture?","1","",""
"","","","","","survey-likert","130","347101","0.0-94.0","A6EF280D109D4633B8A32676580D0607","A6EF280D109D4633B8A32676580D0607","b22bc386-39cf-40d2-ac3f-867ae945c051","e622c465-ee29-4445-8260-1f3431e06587","{""participantId"":""A6EF280D109D4633B8A32676580D0607"",""assignmentId"":""b22bc386-39cf-40d2-ac3f-867ae945c051"",""projectId"":""e622c465-ee29-4445-8260-1f3431e06587""}","https://test12345.live/?participantId=A6EF280D109D4633B8A32676580D0607&assignmentId=b22bc386-39cf-40d2-ac3f-867ae945c051&projectId=e622c465-ee29-4445-8260-1f3431e06587","","1432","","{""Q0"":2}","","[0]"
"","","","","","survey-text","131","354237","0.0-95.0","A6EF280D109D4633B8A32676580D0607","A6EF280D109D4633B8A32676580D0607","b22bc386-39cf-40d2-ac3f-867ae945c051","e622c465-ee29-4445-8260-1f3431e06587","{""participantId"":""A6EF280D109D4633B8A32676580D0607"",""assignmentId"":""b22bc386-39cf-40d2-ac3f-867ae945c051"",""projectId"":""e622c465-ee29-4445-8260-1f3431e06587""}","https://test12345.live/?participantId=A6EF280D109D4633B8A32676580D0607&assignmentId=b22bc386-39cf-40d2-ac3f-867ae945c051&projectId=e622c465-ee29-4445-8260-1f3431e06587","","7134","","{""Q0"":""One is red and one is blue""}","",""
"","","","","","survey-text","132","358237","0.0-96.0","A6EF280D109D4633B8A32676580D0607","A6EF280D109D4633B8A32676580D0607","b22bc386-39cf-40d2-ac3f-867ae945c051","e622c465-ee29-4445-8260-1f3431e06587","{""participantId"":""A6EF280D109D4633B8A32676580D0607"",""assignmentId"":""b22bc386-39cf-40d2-ac3f-867ae945c051"",""projectId"":""e622c465-ee29-4445-8260-1f3431e06587""}","https://test12345.live/?participantId=A6EF280D109D4633B8A32676580D0607&assignmentId=b22bc386-39cf-40d2-ac3f-867ae945c051&projectId=e622c465-ee29-4445-8260-1f3431e06587","","3999","","{""Q0"":""Blue""}","",""
