"success","timeout","failed_images","failed_audio","failed_video","trial_type","trial_index","time_elapsed","internal_node_id","subject","subject_id","study_id","session_id","urlvar","current_url","view_history","rt","stimulus","response","choice","question_order"
"true","false","[]","[]","[]","preload","0","940","0.0-0.0","98CEBB245CC64B34B95712FED358D4C0","98CEBB245CC64B34B95712FED358D4C0","7168685f-234f-4d3c-b3b9-b88faf06ed64","e622c465-ee29-4445-8260-1f3431e06587","{""participantId"":""98CEBB245CC64B34B95712FED358D4C0"",""assignmentId"":""7168685f-234f-4d3c-b3b9-b88faf06ed64"",""projectId"":""e622c465-ee29-4445-8260-1f3431e06587""}","https://test12345.live/?participantId=98CEBB245CC64B34B95712FED358D4C0&assignmentId=7168685f-234f-4d3c-b3b9-b88faf06ed64&projectId=e622c465-ee29-4445-8260-1f3431e06587","","","","","",""
"","","","","","instructions","1","3970","0.0-1.0","98CEBB245CC64B34B95712FED358D4C0","98CEBB245CC64B34B95712FED358D4C0","7168685f-234f-4d3c-b3b9-b88faf06ed64","e622c465-ee29-4445-8260-1f3431e06587","{""participantId"":""98CEBB245CC64B34B95712FED358D4C0"",""assignmentId"":""7168685f-234f-4d3c-b3b9-b88faf06ed64"",""projectId"":""e622c465-ee29-4445-8260-1f3431e06587""}","https://test12345.live/?participantId=98CEBB245CC64B34B95712FED358D4C0&assignmentId=7168685f-234f-4d3c-b3b9-b88faf06ed64&projectId=e622c465-ee29-4445-8260-1f3431e06587","[{""page_index"":0,""viewing_time"":3029}]","3029","","","",""
"","","","","","instructions","2","12459","0.0-2.0","98CEBB245CC64B34B95712FED358D4C0","98CEBB245CC64B34B95712FED358D4C0","7168685f-234f-4d3c-b3b9-b88faf06ed64","e622c465-ee29-4445-8260-1f3431e06587","{""participantId"":""98CEBB245CC64B34B95712FED358D4C0"",""assignmentId"":""7168685f-234f-4d3c-b3b9-b88faf06ed64"",""projectId"":""e622c465-ee29-4445-8260-1f3431e06587""}","https://test12345.live/?participantId=98CEBB245CC64B34B95712FED358D4C0&assignmentId=7168685f-234f-4d3c-b3b9-b88faf06ed64&projectId=e622c465-ee29-4445-8260-1f3431e06587","[{""page_index"":0,""viewing_time"":8488}]","8488","","","",""
"true","","","","","fullscreen","3","14598","0.0-3.0","98CEBB245CC64B34B95712FED358D4C0","98CEBB245CC64B34B95712FED358D4C0","7168685f-234f-4d3c-b3b9-b88faf06ed64","e622c465-ee29-4445-8260-1f3431e06587","{""participantId"":""98CEBB245CC64B34B95712FED358D4C0"",""assignmentId"":""7168685f-234f-4d3c-b3b9-b88faf06ed64"",""projectId"":""e622c465-ee29-4445-8260-1f3431e06587""}","https://test12345.live/?participantId=98CEBB245CC64B34B95712FED358D4C0&assignmentId=7168685f-234f-4d3c-b3b9-b88faf06ed64&projectId=e622c465-ee29-4445-8260-1f3431e06587","","1136","","","",""
"","","","","","instructions","4","20855","0.0-4.0","98CEBB245CC64B34B95712FED358D4C0","98CEBB245CC64B34B95712FED358D4C0","7168685f-234f-4d3c-b3b9-b88faf06ed64","e622c465-ee29-4445-8260-1f3431e06587","{""participantId"":""98CEBB245CC64B34B95712FED358D4C0"",""assignmentId"":""7168685f-234f-4d3c-b3b9-b88faf06ed64"",""projectId"":""e622c465-ee29-4445-8260-1f3431e06587""}","https://test12345.live/?participantId=98CEBB245CC64B34B95712FED358D4C0&assignmentId=7168685f-234f-4d3c-b3b9-b88faf06ed64&projectId=e622c465-ee29-4445-8260-1f3431e06587","[{""page_index"":0,""viewing_time"":6256}]","6256","","","",""
"","","","","","html-button-response","5","25765","0.0-5.0","98CEBB245CC64B34B95712FED358D4C0","98CEBB245CC64B34B95712FED358D4C0","7168685f-234f-4d3c-b3b9-b88faf06ed64","e622c465-ee29-4445-8260-1f3431e06587","{""participantId"":""98CEBB245CC64B34B95712FED358D4C0"",""assignmentId"":""7168685f-234f-4d3c-b3b9-b88faf06ed64"",""projectId"":""e622c465-ee29-4445-8260-1f3431e06587""}","https://test12345.live/?participantId=98CEBB245CC64B34B95712FED358D4C0&assignmentId=7168685f-234f-4d3c-b3b9-b88faf06ed64&projectId=e622c465-ee29-4445-8260-1f3431e06587","","4908","
    <div style=""display: flex; justify-content: center; align-items: center;"">
      <img src=""images/blue_deck_1.png"" style=""width: 300px; height: 300px; margin-right: 10px;"" />
      <img src=""images/red_deck_2.png"" style=""width: 300px; height: 300px;"" />
    </div>","0","0",""
"","","","","","html-keyboard-response","6","28767","0.0-6.0-0.0","98CEBB245CC64B34B95712FED358D4C0","98CEBB245CC64B34B95712FED358D4C0","7168685f-234f-4d3c-b3b9-b88faf06ed64","e622c465-ee29-4445-8260-1f3431e06587","{""participantId"":""98CEBB245CC64B34B95712FED358D4C0"",""assignmentId"":""7168685f-234f-4d3c-b3b9-b88faf06ed64"",""projectId"":""e622c465-ee29-4445-8260-1f3431e06587""}","https://test12345.live/?participantId=98CEBB245CC64B34B95712FED358D4C0&assignmentId=7168685f-234f-4d3c-b3b9-b88faf06ed64&projectId=e622c465-ee29-4445-8260-1f3431e06587","","null","<div style=""display: flex; justify-content: center; align-items: center;"">
                    <img src=""images/causal/causal_series_6/causal_series_6_a.jpg"" style=""width: 300px; height: 300px;"" />
                  </div>","null","",""
"","","","","","html-keyboard-response","7","31771","0.0-6.0-1.0","98CEBB245CC64B34B95712FED358D4C0","98CEBB245CC64B34B95712FED358D4C0","7168685f-234f-4d3c-b3b9-b88faf06ed64","e622c465-ee29-4445-8260-1f3431e06587","{""participantId"":""98CEBB245CC64B34B95712FED358D4C0"",""assignmentId"":""7168685f-234f-4d3c-b3b9-b88faf06ed64"",""projectId"":""e622c465-ee29-4445-8260-1f3431e06587""}","https://test12345.live/?participantId=98CEBB245CC64B34B95712FED358D4C0&assignmentId=7168685f-234f-4d3c-b3b9-b88faf06ed64&projectId=e622c465-ee29-4445-8260-1f3431e06587","","null","<div style=""display: flex; justify-content: center; align-items: center;"">
                    <img src=""images/causal/causal_series_6/causal_series_6_b.jpg"" style=""width: 300px; height: 300px;"" />
                  </div>","null","",""
"","","","","","html-keyboard-response","8","34773","0.0-6.0-2.0","98CEBB245CC64B34B95712FED358D4C0","98CEBB245CC64B34B95712FED358D4C0","7168685f-234f-4d3c-b3b9-b88faf06ed64","e622c465-ee29-4445-8260-1f3431e06587","{""participantId"":""98CEBB245CC64B34B95712FED358D4C0"",""assignmentId"":""7168685f-234f-4d3c-b3b9-b88faf06ed64"",""projectId"":""e622c465-ee29-4445-8260-1f3431e06587""}","https://test12345.live/?participantId=98CEBB245CC64B34B95712FED358D4C0&assignmentId=7168685f-234f-4d3c-b3b9-b88faf06ed64&projectId=e622c465-ee29-4445-8260-1f3431e06587","","null","<div style=""display: flex; justify-content: center; align-items: center;"">
                    <img src=""images/causal/causal_series_6/causal_series_6_c.jpg"" style=""width: 300px; height: 300px;"" />
                  </div>","null","",""
"","","","","","html-keyboard-response","9","37776","0.0-6.0-3.0","98CEBB245CC64B34B95712FED358D4C0","98CEBB245CC64B34B95712FED358D4C0","7168685f-234f-4d3c-b3b9-b88faf06ed64","e622c465-ee29-4445-8260-1f3431e06587","{""participantId"":""98CEBB245CC64B34B95712FED358D4C0"",""assignmentId"":""7168685f-234f-4d3c-b3b9-b88faf06ed64"",""projectId"":""e622c465-ee29-4445-8260-1f3431e06587""}","https://test12345.live/?participantId=98CEBB245CC64B34B95712FED358D4C0&assignmentId=7168685f-234f-4d3c-b3b9-b88faf06ed64&projectId=e622c465-ee29-4445-8260-1f3431e06587","","null","<div style=""display: flex; justify-content: center; align-items: center;"">
                    <img src=""images/causal/causal_series_6/causal_series_6_d.jpg"" style=""width: 300px; height: 300px;"" />
                  </div>","null","",""
"","","","","","html-button-response","10","44913","0.0-8.0","98CEBB245CC64B34B95712FED358D4C0","98CEBB245CC64B34B95712FED358D4C0","7168685f-234f-4d3c-b3b9-b88faf06ed64","e622c465-ee29-4445-8260-1f3431e06587","{""participantId"":""98CEBB245CC64B34B95712FED358D4C0"",""assignmentId"":""7168685f-234f-4d3c-b3b9-b88faf06ed64"",""projectId"":""e622c465-ee29-4445-8260-1f3431e06587""}","https://test12345.live/?participantId=98CEBB245CC64B34B95712FED358D4C0&assignmentId=7168685f-234f-4d3c-b3b9-b88faf06ed64&projectId=e622c465-ee29-4445-8260-1f3431e06587","","7135","Was there a person in the picture?","0","",""
"","","","","","survey-likert","11","48807","0.0-9.0","98CEBB245CC64B34B95712FED358D4C0","98CEBB245CC64B34B95712FED358D4C0","7168685f-234f-4d3c-b3b9-b88faf06ed64","e622c465-ee29-4445-8260-1f3431e06587","{""participantId"":""98CEBB245CC64B34B95712FED358D4C0"",""assignmentId"":""7168685f-234f-4d3c-b3b9-b88faf06ed64"",""projectId"":""e622c465-ee29-4445-8260-1f3431e06587""}","https://test12345.live/?participantId=98CEBB245CC64B34B95712FED358D4C0&assignmentId=7168685f-234f-4d3c-b3b9-b88faf06ed64&projectId=e622c465-ee29-4445-8260-1f3431e06587","","3893","","{""Q0"":3}","","[0]"
"","","","","","html-button-response","12","51207","0.0-10.0","98CEBB245CC64B34B95712FED358D4C0","98CEBB245CC64B34B95712FED358D4C0","7168685f-234f-4d3c-b3b9-b88faf06ed64","e622c465-ee29-4445-8260-1f3431e06587","{""participantId"":""98CEBB245CC64B34B95712FED358D4C0"",""assignmentId"":""7168685f-234f-4d3c-b3b9-b88faf06ed64"",""projectId"":""e622c465-ee29-4445-8260-1f3431e06587""}","https://test12345.live/?participantId=98CEBB245CC64B34B95712FED358D4C0&assignmentId=7168685f-234f-4d3c-b3b9-b88faf06ed64&projectId=e622c465-ee29-4445-8260-1f3431e06587","","2399","
    <div style=""display: flex; justify-content: center; align-items: center;"">
      <img src=""images/blue_deck_1.png"" style=""width: 300px; height: 300px; margin-right: 10px;"" />
      <img src=""images/red_deck_2.png"" style=""width: 300px; height: 300px;"" />
    </div>","0","0",""
"","","","","","html-keyboard-response","13","54209","0.0-11.0-0.0","98CEBB245CC64B34B95712FED358D4C0","98CEBB245CC64B34B95712FED358D4C0","7168685f-234f-4d3c-b3b9-b88faf06ed64","e622c465-ee29-4445-8260-1f3431e06587","{""participantId"":""98CEBB245CC64B34B95712FED358D4C0"",""assignmentId"":""7168685f-234f-4d3c-b3b9-b88faf06ed64"",""projectId"":""e622c465-ee29-4445-8260-1f3431e06587""}","https://test12345.live/?participantId=98CEBB245CC64B34B95712FED358D4C0&assignmentId=7168685f-234f-4d3c-b3b9-b88faf06ed64&projectId=e622c465-ee29-4445-8260-1f3431e06587","","null","<div style=""display: flex; justify-content: center; align-items: center;"">
                    <img src=""images/causal/causal_series_17/causal_series_17_a.jpg"" style=""width: 300px; height: 300px;"" />
                  </div>","null","",""
"","","","","","html-keyboard-response","14","57212","0.0-11.0-1.0","98CEBB245CC64B34B95712FED358D4C0","98CEBB245CC64B34B95712FED358D4C0","7168685f-234f-4d3c-b3b9-b88faf06ed64","e622c465-ee29-4445-8260-1f3431e06587","{""participantId"":""98CEBB245CC64B34B95712FED358D4C0"",""assignmentId"":""7168685f-234f-4d3c-b3b9-b88faf06ed64"",""projectId"":""e622c465-ee29-4445-8260-1f3431e06587""}","https://test12345.live/?participantId=98CEBB245CC64B34B95712FED358D4C0&assignmentId=7168685f-234f-4d3c-b3b9-b88faf06ed64&projectId=e622c465-ee29-4445-8260-1f3431e06587","","null","<div style=""display: flex; justify-content: center; align-items: center;"">
                    <img src=""images/causal/causal_series_17/causal_series_17_b.jpg"" style=""width: 300px; height: 300px;"" />
                  </div>","null","",""
"","","","","","html-keyboard-response","15","60215","0.0-11.0-2.0","98CEBB245CC64B34B95712FED358D4C0","98CEBB245CC64B34B95712FED358D4C0","7168685f-234f-4d3c-b3b9-b88faf06ed64","e622c465-ee29-4445-8260-1f3431e06587","{""participantId"":""98CEBB245CC64B34B95712FED358D4C0"",""assignmentId"":""7168685f-234f-4d3c-b3b9-b88faf06ed64"",""projectId"":""e622c465-ee29-4445-8260-1f3431e06587""}","https://test12345.live/?participantId=98CEBB245CC64B34B95712FED358D4C0&assignmentId=7168685f-234f-4d3c-b3b9-b88faf06ed64&projectId=e622c465-ee29-4445-8260-1f3431e06587","","null","<div style=""display: flex; justify-content: center; align-items: center;"">
                    <img src=""images/causal/causal_series_17/causal_series_17_c.jpg"" style=""width: 300px; height: 300px;"" />
                  </div>","null","",""
"","","","","","html-keyboard-response","16","63217","0.0-11.0-3.0","98CEBB245CC64B34B95712FED358D4C0","98CEBB245CC64B34B95712FED358D4C0","7168685f-234f-4d3c-b3b9-b88faf06ed64","e622c465-ee29-4445-8260-1f3431e06587","{""participantId"":""98CEBB245CC64B34B95712FED358D4C0"",""assignmentId"":""7168685f-234f-4d3c-b3b9-b88faf06ed64"",""projectId"":""e622c465-ee29-4445-8260-1f3431e06587""}","https://test12345.live/?participantId=98CEBB245CC64B34B95712FED358D4C0&assignmentId=7168685f-234f-4d3c-b3b9-b88faf06ed64&projectId=e622c465-ee29-4445-8260-1f3431e06587","","null","<div style=""display: flex; justify-content: center; align-items: center;"">
                    <img src=""images/causal/causal_series_17/causal_series_17_d.jpg"" style=""width: 300px; height: 300px;"" />
                  </div>","null","",""
"","","","","","html-button-response","17","65158","0.0-13.0","98CEBB245CC64B34B95712FED358D4C0","98CEBB245CC64B34B95712FED358D4C0","7168685f-234f-4d3c-b3b9-b88faf06ed64","e622c465-ee29-4445-8260-1f3431e06587","{""participantId"":""98CEBB245CC64B34B95712FED358D4C0"",""assignmentId"":""7168685f-234f-4d3c-b3b9-b88faf06ed64"",""projectId"":""e622c465-ee29-4445-8260-1f3431e06587""}","https://test12345.live/?participantId=98CEBB245CC64B34B95712FED358D4C0&assignmentId=7168685f-234f-4d3c-b3b9-b88faf06ed64&projectId=e622c465-ee29-4445-8260-1f3431e06587","","1938","Was there a person in the picture?","0","",""
"","","","","","survey-likert","18","69328","0.0-14.0","98CEBB245CC64B34B95712FED358D4C0","98CEBB245CC64B34B95712FED358D4C0","7168685f-234f-4d3c-b3b9-b88faf06ed64","e622c465-ee29-4445-8260-1f3431e06587","{""participantId"":""98CEBB245CC64B34B95712FED358D4C0"",""assignmentId"":""7168685f-234f-4d3c-b3b9-b88faf06ed64"",""projectId"":""e622c465-ee29-4445-8260-1f3431e06587""}","https://test12345.live/?participantId=98CEBB245CC64B34B95712FED358D4C0&assignmentId=7168685f-234f-4d3c-b3b9-b88faf06ed64&projectId=e622c465-ee29-4445-8260-1f3431e06587","","4169","","{""Q0"":1}","","[0]"
"","","","","","html-button-response","19","71479","0.0-15.0","98CEBB245CC64B34B95712FED358D4C0","98CEBB245CC64B34B95712FED358D4C0","7168685f-234f-4d3c-b3b9-b88faf06ed64","e622c465-ee29-4445-8260-1f3431e06587","{""participantId"":""98CEBB245CC64B34B95712FED358D4C0"",""assignmentId"":""7168685f-234f-4d3c-b3b9-b88faf06ed64"",""projectId"":""e622c465-ee29-4445-8260-1f3431e06587""}","https://test12345.live/?participantId=98CEBB245CC64B34B95712FED358D4C0&assignmentId=7168685f-234f-4d3c-b3b9-b88faf06ed64&projectId=e622c465-ee29-4445-8260-1f3431e06587","","2151","
    <div style=""display: flex; justify-content: center; align-items: center;"">
      <img src=""images/blue_deck_1.png"" style=""width: 300px; height: 300px; margin-right: 10px;"" />
      <img src=""images/red_deck_2.png"" style=""width: 300px; height: 300px;"" />
    </div>","0","0",""
"","","","","","html-keyboard-response","20","74482","0.0-16.0-0.0","98CEBB245CC64B34B95712FED358D4C0","98CEBB245CC64B34B95712FED358D4C0","7168685f-234f-4d3c-b3b9-b88faf06ed64","e622c465-ee29-4445-8260-1f3431e06587","{""participantId"":""98CEBB245CC64B34B95712FED358D4C0"",""assignmentId"":""7168685f-234f-4d3c-b3b9-b88faf06ed64"",""projectId"":""e622c465-ee29-4445-8260-1f3431e06587""}","https://test12345.live/?participantId=98CEBB245CC64B34B95712FED358D4C0&assignmentId=7168685f-234f-4d3c-b3b9-b88faf06ed64&projectId=e622c465-ee29-4445-8260-1f3431e06587","","null","<div style=""display: flex; justify-content: center; align-items: center;"">
                    <img src=""images/causal/causal_series_16/causal_series_16_a.jpg"" style=""width: 300px; height: 300px;"" />
                  </div>","null","",""
"","","","","","html-keyboard-response","21","77484","0.0-16.0-1.0","98CEBB245CC64B34B95712FED358D4C0","98CEBB245CC64B34B95712FED358D4C0","7168685f-234f-4d3c-b3b9-b88faf06ed64","e622c465-ee29-4445-8260-1f3431e06587","{""participantId"":""98CEBB245CC64B34B95712FED358D4C0"",""assignmentId"":""7168685f-234f-4d3c-b3b9-b88faf06ed64"",""projectId"":""e622c465-ee29-4445-8260-1f3431e06587""}","https://test12345.live/?participantId=98CEBB245CC64B34B95712FED358D4C0&assignmentId=7168685f-234f-4d3c-b3b9-b88faf06ed64&projectId=e622c465-ee29-4445-8260-1f3431e06587","","null","<div style=""display: flex; justify-content: center; align-items: center;"">
                    <img src=""images/causal/causal_series_16/causal_series_16_b.jpg"" style=""width: 300px; height: 300px;"" />
                  </div>","null","",""
"","","","","","html-keyboard-response","22","80486","0.0-16.0-2.0","98CEBB245CC64B34B95712FED358D4C0","98CEBB245CC64B34B95712FED358D4C0","7168685f-234f-4d3c-b3b9-b88faf06ed64","e622c465-ee29-4445-8260-1f3431e06587","{""participantId"":""98CEBB245CC64B34B95712FED358D4C0"",""assignmentId"":""7168685f-234f-4d3c-b3b9-b88faf06ed64"",""projectId"":""e622c465-ee29-4445-8260-1f3431e06587""}","https://test12345.live/?participantId=98CEBB245CC64B34B95712FED358D4C0&assignmentId=7168685f-234f-4d3c-b3b9-b88faf06ed64&projectId=e622c465-ee29-4445-8260-1f3431e06587","","null","<div style=""display: flex; justify-content: center; align-items: center;"">
                    <img src=""images/causal/causal_series_16/causal_series_16_c.jpg"" style=""width: 300px; height: 300px;"" />
                  </div>","null","",""
"","","","","","html-keyboard-response","23","83488","0.0-16.0-3.0","98CEBB245CC64B34B95712FED358D4C0","98CEBB245CC64B34B95712FED358D4C0","7168685f-234f-4d3c-b3b9-b88faf06ed64","e622c465-ee29-4445-8260-1f3431e06587","{""participantId"":""98CEBB245CC64B34B95712FED358D4C0"",""assignmentId"":""7168685f-234f-4d3c-b3b9-b88faf06ed64"",""projectId"":""e622c465-ee29-4445-8260-1f3431e06587""}","https://test12345.live/?participantId=98CEBB245CC64B34B95712FED358D4C0&assignmentId=7168685f-234f-4d3c-b3b9-b88faf06ed64&projectId=e622c465-ee29-4445-8260-1f3431e06587","","null","<div style=""display: flex; justify-content: center; align-items: center;"">
                    <img src=""images/causal/causal_series_16/causal_series_16_d.jpg"" style=""width: 300px; height: 300px;"" />
                  </div>","null","",""
"","","","","","html-button-response","24","85312","0.0-18.0","98CEBB245CC64B34B95712FED358D4C0","98CEBB245CC64B34B95712FED358D4C0","7168685f-234f-4d3c-b3b9-b88faf06ed64","e622c465-ee29-4445-8260-1f3431e06587","{""participantId"":""98CEBB245CC64B34B95712FED358D4C0"",""assignmentId"":""7168685f-234f-4d3c-b3b9-b88faf06ed64"",""projectId"":""e622c465-ee29-4445-8260-1f3431e06587""}","https://test12345.live/?participantId=98CEBB245CC64B34B95712FED358D4C0&assignmentId=7168685f-234f-4d3c-b3b9-b88faf06ed64&projectId=e622c465-ee29-4445-8260-1f3431e06587","","1823","Was there a person in the picture?","0","",""
"","","","","","survey-likert","25","87480","0.0-19.0","98CEBB245CC64B34B95712FED358D4C0","98CEBB245CC64B34B95712FED358D4C0","7168685f-234f-4d3c-b3b9-b88faf06ed64","e622c465-ee29-4445-8260-1f3431e06587","{""participantId"":""98CEBB245CC64B34B95712FED358D4C0"",""assignmentId"":""7168685f-234f-4d3c-b3b9-b88faf06ed64"",""projectId"":""e622c465-ee29-4445-8260-1f3431e06587""}","https://test12345.live/?participantId=98CEBB245CC64B34B95712FED358D4C0&assignmentId=7168685f-234f-4d3c-b3b9-b88faf06ed64&projectId=e622c465-ee29-4445-8260-1f3431e06587","","2167","","{""Q0"":1}","","[0]"
"","","","","","html-button-response","26","88493","0.0-20.0","98CEBB245CC64B34B95712FED358D4C0","98CEBB245CC64B34B95712FED358D4C0","7168685f-234f-4d3c-b3b9-b88faf06ed64","e622c465-ee29-4445-8260-1f3431e06587","{""participantId"":""98CEBB245CC64B34B95712FED358D4C0"",""assignmentId"":""7168685f-234f-4d3c-b3b9-b88faf06ed64"",""projectId"":""e622c465-ee29-4445-8260-1f3431e06587""}","https://test12345.live/?participantId=98CEBB245CC64B34B95712FED358D4C0&assignmentId=7168685f-234f-4d3c-b3b9-b88faf06ed64&projectId=e622c465-ee29-4445-8260-1f3431e06587","","1012","
    <div style=""display: flex; justify-content: center; align-items: center;"">
      <img src=""images/blue_deck_1.png"" style=""width: 300px; height: 300px; margin-right: 10px;"" />
      <img src=""images/red_deck_2.png"" style=""width: 300px; height: 300px;"" />
    </div>","1","1",""
"","","","","","html-keyboard-response","27","91495","0.0-22.0-0.0","98CEBB245CC64B34B95712FED358D4C0","98CEBB245CC64B34B95712FED358D4C0","7168685f-234f-4d3c-b3b9-b88faf06ed64","e622c465-ee29-4445-8260-1f3431e06587","{""participantId"":""98CEBB245CC64B34B95712FED358D4C0"",""assignmentId"":""7168685f-234f-4d3c-b3b9-b88faf06ed64"",""projectId"":""e622c465-ee29-4445-8260-1f3431e06587""}","https://test12345.live/?participantId=98CEBB245CC64B34B95712FED358D4C0&assignmentId=7168685f-234f-4d3c-b3b9-b88faf06ed64&projectId=e622c465-ee29-4445-8260-1f3431e06587","","null","<div style=""display: flex; justify-content: center; align-items: center;"">
                    <img src=""images/semantic/semantic_series_1/semantic_series_1_a.jpg"" style=""width: 300px; height: 300px;"" />
                  </div>","null","",""
"","","","","","html-keyboard-response","28","94498","0.0-22.0-1.0","98CEBB245CC64B34B95712FED358D4C0","98CEBB245CC64B34B95712FED358D4C0","7168685f-234f-4d3c-b3b9-b88faf06ed64","e622c465-ee29-4445-8260-1f3431e06587","{""participantId"":""98CEBB245CC64B34B95712FED358D4C0"",""assignmentId"":""7168685f-234f-4d3c-b3b9-b88faf06ed64"",""projectId"":""e622c465-ee29-4445-8260-1f3431e06587""}","https://test12345.live/?participantId=98CEBB245CC64B34B95712FED358D4C0&assignmentId=7168685f-234f-4d3c-b3b9-b88faf06ed64&projectId=e622c465-ee29-4445-8260-1f3431e06587","","null","<div style=""display: flex; justify-content: center; align-items: center;"">
                    <img src=""images/semantic/semantic_series_1/semantic_series_1_b.jpg"" style=""width: 300px; height: 300px;"" />
                  </div>","null","",""
"","","","","","html-keyboard-response","29","97499","0.0-22.0-2.0","98CEBB245CC64B34B95712FED358D4C0","98CEBB245CC64B34B95712FED358D4C0","7168685f-234f-4d3c-b3b9-b88faf06ed64","e622c465-ee29-4445-8260-1f3431e06587","{""participantId"":""98CEBB245CC64B34B95712FED358D4C0"",""assignmentId"":""7168685f-234f-4d3c-b3b9-b88faf06ed64"",""projectId"":""e622c465-ee29-4445-8260-1f3431e06587""}","https://test12345.live/?participantId=98CEBB245CC64B34B95712FED358D4C0&assignmentId=7168685f-234f-4d3c-b3b9-b88faf06ed64&projectId=e622c465-ee29-4445-8260-1f3431e06587","","null","<div style=""display: flex; justify-content: center; align-items: center;"">
                    <img src=""images/semantic/semantic_series_1/semantic_series_1_c.jpg"" style=""width: 300px; height: 300px;"" />
                  </div>","null","",""
"","","","","","html-keyboard-response","30","100502","0.0-22.0-3.0","98CEBB245CC64B34B95712FED358D4C0","98CEBB245CC64B34B95712FED358D4C0","7168685f-234f-4d3c-b3b9-b88faf06ed64","e622c465-ee29-4445-8260-1f3431e06587","{""participantId"":""98CEBB245CC64B34B95712FED358D4C0"",""assignmentId"":""7168685f-234f-4d3c-b3b9-b88faf06ed64"",""projectId"":""e622c465-ee29-4445-8260-1f3431e06587""}","https://test12345.live/?participantId=98CEBB245CC64B34B95712FED358D4C0&assignmentId=7168685f-234f-4d3c-b3b9-b88faf06ed64&projectId=e622c465-ee29-4445-8260-1f3431e06587","","null","<div style=""display: flex; justify-content: center; align-items: center;"">
                    <img src=""images/semantic/semantic_series_1/semantic_series_1_d.jpg"" style=""width: 300px; height: 300px;"" />
                  </div>","null","",""
"","","","","","html-button-response","31","102009","0.0-23.0","98CEBB245CC64B34B95712FED358D4C0","98CEBB245CC64B34B95712FED358D4C0","7168685f-234f-4d3c-b3b9-b88faf06ed64","e622c465-ee29-4445-8260-1f3431e06587","{""participantId"":""98CEBB245CC64B34B95712FED358D4C0"",""assignmentId"":""7168685f-234f-4d3c-b3b9-b88faf06ed64"",""projectId"":""e622c465-ee29-4445-8260-1f3431e06587""}","https://test12345.live/?participantId=98CEBB245CC64B34B95712FED358D4C0&assignmentId=7168685f-234f-4d3c-b3b9-b88faf06ed64&projectId=e622c465-ee29-4445-8260-1f3431e06587","","1506","Was there a person in the picture?","0","",""
"","","","","","survey-likert","32","105580","0.0-24.0","98CEBB245CC64B34B95712FED358D4C0","98CEBB245CC64B34B95712FED358D4C0","7168685f-234f-4d3c-b3b9-b88faf06ed64","e622c465-ee29-4445-8260-1f3431e06587","{""participantId"":""98CEBB245CC64B34B95712FED358D4C0"",""assignmentId"":""7168685f-234f-4d3c-b3b9-b88faf06ed64"",""projectId"":""e622c465-ee29-4445-8260-1f3431e06587""}","https://test12345.live/?participantId=98CEBB245CC64B34B95712FED358D4C0&assignmentId=7168685f-234f-4d3c-b3b9-b88faf06ed64&projectId=e622c465-ee29-4445-8260-1f3431e06587","","3570","","{""Q0"":2}","","[0]"
"","","","","","html-button-response","33","106721","0.0-25.0","98CEBB245CC64B34B95712FED358D4C0","98CEBB245CC64B34B95712FED358D4C0","7168685f-234f-4d3c-b3b9-b88faf06ed64","e622c465-ee29-4445-8260-1f3431e06587","{""participantId"":""98CEBB245CC64B34B95712FED358D4C0"",""assignmentId"":""7168685f-234f-4d3c-b3b9-b88faf06ed64"",""projectId"":""e622c465-ee29-4445-8260-1f3431e06587""}","https://test12345.live/?participantId=98CEBB245CC64B34B95712FED358D4C0&assignmentId=7168685f-234f-4d3c-b3b9-b88faf06ed64&projectId=e622c465-ee29-4445-8260-1f3431e06587","","1140","
    <div style=""display: flex; justify-content: center; align-items: center;"">
      <img src=""images/blue_deck_1.png"" style=""width: 300px; height: 300px; margin-right: 10px;"" />
      <img src=""images/red_deck_2.png"" style=""width: 300px; height: 300px;"" />
    </div>","0","0",""
"","","","","","html-keyboard-response","34","109723","0.0-26.0-0.0","98CEBB245CC64B34B95712FED358D4C0","98CEBB245CC64B34B95712FED358D4C0","7168685f-234f-4d3c-b3b9-b88faf06ed64","e622c465-ee29-4445-8260-1f3431e06587","{""participantId"":""98CEBB245CC64B34B95712FED358D4C0"",""assignmentId"":""7168685f-234f-4d3c-b3b9-b88faf06ed64"",""projectId"":""e622c465-ee29-4445-8260-1f3431e06587""}","https://test12345.live/?participantId=98CEBB245CC64B34B95712FED358D4C0&assignmentId=7168685f-234f-4d3c-b3b9-b88faf06ed64&projectId=e622c465-ee29-4445-8260-1f3431e06587","","null","<div style=""display: flex; justify-content: center; align-items: center;"">
                    <img src=""images/causal/causal_series_1/causal_series_1_a.jpg"" style=""width: 300px; height: 300px;"" />
                  </div>","null","",""
"","","","","","html-keyboard-response","35","112726","0.0-26.0-1.0","98CEBB245CC64B34B95712FED358D4C0","98CEBB245CC64B34B95712FED358D4C0","7168685f-234f-4d3c-b3b9-b88faf06ed64","e622c465-ee29-4445-8260-1f3431e06587","{""participantId"":""98CEBB245CC64B34B95712FED358D4C0"",""assignmentId"":""7168685f-234f-4d3c-b3b9-b88faf06ed64"",""projectId"":""e622c465-ee29-4445-8260-1f3431e06587""}","https://test12345.live/?participantId=98CEBB245CC64B34B95712FED358D4C0&assignmentId=7168685f-234f-4d3c-b3b9-b88faf06ed64&projectId=e622c465-ee29-4445-8260-1f3431e06587","","null","<div style=""display: flex; justify-content: center; align-items: center;"">
                    <img src=""images/causal/causal_series_1/causal_series_1_b.jpg"" style=""width: 300px; height: 300px;"" />
                  </div>","null","",""
"","","","","","html-keyboard-response","36","115729","0.0-26.0-2.0","98CEBB245CC64B34B95712FED358D4C0","98CEBB245CC64B34B95712FED358D4C0","7168685f-234f-4d3c-b3b9-b88faf06ed64","e622c465-ee29-4445-8260-1f3431e06587","{""participantId"":""98CEBB245CC64B34B95712FED358D4C0"",""assignmentId"":""7168685f-234f-4d3c-b3b9-b88faf06ed64"",""projectId"":""e622c465-ee29-4445-8260-1f3431e06587""}","https://test12345.live/?participantId=98CEBB245CC64B34B95712FED358D4C0&assignmentId=7168685f-234f-4d3c-b3b9-b88faf06ed64&projectId=e622c465-ee29-4445-8260-1f3431e06587","","null","<div style=""display: flex; justify-content: center; align-items: center;"">
                    <img src=""images/causal/causal_series_1/causal_series_1_c.jpg"" style=""width: 300px; height: 300px;"" />
                  </div>","null","",""
"","","","","","html-keyboard-response","37","118731","0.0-26.0-3.0","98CEBB245CC64B34B95712FED358D4C0","98CEBB245CC64B34B95712FED358D4C0","7168685f-234f-4d3c-b3b9-b88faf06ed64","e622c465-ee29-4445-8260-1f3431e06587","{""participantId"":""98CEBB245CC64B34B95712FED358D4C0"",""assignmentId"":""7168685f-234f-4d3c-b3b9-b88faf06ed64"",""projectId"":""e622c465-ee29-4445-8260-1f3431e06587""}","https://test12345.live/?participantId=98CEBB245CC64B34B95712FED358D4C0&assignmentId=7168685f-234f-4d3c-b3b9-b88faf06ed64&projectId=e622c465-ee29-4445-8260-1f3431e06587","","null","<div style=""display: flex; justify-content: center; align-items: center;"">
                    <img src=""images/causal/causal_series_1/causal_series_1_d.jpg"" style=""width: 300px; height: 300px;"" />
                  </div>","null","",""
"","","","","","html-button-response","38","120554","0.0-28.0","98CEBB245CC64B34B95712FED358D4C0","98CEBB245CC64B34B95712FED358D4C0","7168685f-234f-4d3c-b3b9-b88faf06ed64","e622c465-ee29-4445-8260-1f3431e06587","{""participantId"":""98CEBB245CC64B34B95712FED358D4C0"",""assignmentId"":""7168685f-234f-4d3c-b3b9-b88faf06ed64"",""projectId"":""e622c465-ee29-4445-8260-1f3431e06587""}","https://test12345.live/?participantId=98CEBB245CC64B34B95712FED358D4C0&assignmentId=7168685f-234f-4d3c-b3b9-b88faf06ed64&projectId=e622c465-ee29-4445-8260-1f3431e06587","","1821","Was there a person in the picture?","0","",""
"","","","","","survey-likert","39","122287","0.0-29.0","98CEBB245CC64B34B95712FED358D4C0","98CEBB245CC64B34B95712FED358D4C0","7168685f-234f-4d3c-b3b9-b88faf06ed64","e622c465-ee29-4445-8260-1f3431e06587","{""participantId"":""98CEBB245CC64B34B95712FED358D4C0"",""assignmentId"":""7168685f-234f-4d3c-b3b9-b88faf06ed64"",""projectId"":""e622c465-ee29-4445-8260-1f3431e06587""}","https://test12345.live/?participantId=98CEBB245CC64B34B95712FED358D4C0&assignmentId=7168685f-234f-4d3c-b3b9-b88faf06ed64&projectId=e622c465-ee29-4445-8260-1f3431e06587","","1732","","{""Q0"":3}","","[0]"
"","","","","","html-button-response","40","123110","0.0-30.0","98CEBB245CC64B34B95712FED358D4C0","98CEBB245CC64B34B95712FED358D4C0","7168685f-234f-4d3c-b3b9-b88faf06ed64","e622c465-ee29-4445-8260-1f3431e06587","{""participantId"":""98CEBB245CC64B34B95712FED358D4C0"",""assignmentId"":""7168685f-234f-4d3c-b3b9-b88faf06ed64"",""projectId"":""e622c465-ee29-4445-8260-1f3431e06587""}","https://test12345.live/?participantId=98CEBB245CC64B34B95712FED358D4C0&assignmentId=7168685f-234f-4d3c-b3b9-b88faf06ed64&projectId=e622c465-ee29-4445-8260-1f3431e06587","","822","
    <div style=""display: flex; justify-content: center; align-items: center;"">
      <img src=""images/blue_deck_1.png"" style=""width: 300px; height: 300px; margin-right: 10px;"" />
      <img src=""images/red_deck_2.png"" style=""width: 300px; height: 300px;"" />
    </div>","0","0",""
"","","","","","html-keyboard-response","41","126113","0.0-31.0-0.0","98CEBB245CC64B34B95712FED358D4C0","98CEBB245CC64B34B95712FED358D4C0","7168685f-234f-4d3c-b3b9-b88faf06ed64","e622c465-ee29-4445-8260-1f3431e06587","{""participantId"":""98CEBB245CC64B34B95712FED358D4C0"",""assignmentId"":""7168685f-234f-4d3c-b3b9-b88faf06ed64"",""projectId"":""e622c465-ee29-4445-8260-1f3431e06587""}","https://test12345.live/?participantId=98CEBB245CC64B34B95712FED358D4C0&assignmentId=7168685f-234f-4d3c-b3b9-b88faf06ed64&projectId=e622c465-ee29-4445-8260-1f3431e06587","","null","<div style=""display: flex; justify-content: center; align-items: center;"">
                    <img src=""images/causal/causal_series_8/causal_series_8_a.jpg"" style=""width: 300px; height: 300px;"" />
                  </div>","null","",""
"","","","","","html-keyboard-response","42","129115","0.0-31.0-1.0","98CEBB245CC64B34B95712FED358D4C0","98CEBB245CC64B34B95712FED358D4C0","7168685f-234f-4d3c-b3b9-b88faf06ed64","e622c465-ee29-4445-8260-1f3431e06587","{""participantId"":""98CEBB245CC64B34B95712FED358D4C0"",""assignmentId"":""7168685f-234f-4d3c-b3b9-b88faf06ed64"",""projectId"":""e622c465-ee29-4445-8260-1f3431e06587""}","https://test12345.live/?participantId=98CEBB245CC64B34B95712FED358D4C0&assignmentId=7168685f-234f-4d3c-b3b9-b88faf06ed64&projectId=e622c465-ee29-4445-8260-1f3431e06587","","null","<div style=""display: flex; justify-content: center; align-items: center;"">
                    <img src=""images/causal/causal_series_8/causal_series_8_b.jpg"" style=""width: 300px; height: 300px;"" />
                  </div>","null","",""
"","","","","","html-keyboard-response","43","132117","0.0-31.0-2.0","98CEBB245CC64B34B95712FED358D4C0","98CEBB245CC64B34B95712FED358D4C0","7168685f-234f-4d3c-b3b9-b88faf06ed64","e622c465-ee29-4445-8260-1f3431e06587","{""participantId"":""98CEBB245CC64B34B95712FED358D4C0"",""assignmentId"":""7168685f-234f-4d3c-b3b9-b88faf06ed64"",""projectId"":""e622c465-ee29-4445-8260-1f3431e06587""}","https://test12345.live/?participantId=98CEBB245CC64B34B95712FED358D4C0&assignmentId=7168685f-234f-4d3c-b3b9-b88faf06ed64&projectId=e622c465-ee29-4445-8260-1f3431e06587","","null","<div style=""display: flex; justify-content: center; align-items: center;"">
                    <img src=""images/causal/causal_series_8/causal_series_8_c.jpg"" style=""width: 300px; height: 300px;"" />
                  </div>","null","",""
"","","","","","html-keyboard-response","44","135120","0.0-31.0-3.0","98CEBB245CC64B34B95712FED358D4C0","98CEBB245CC64B34B95712FED358D4C0","7168685f-234f-4d3c-b3b9-b88faf06ed64","e622c465-ee29-4445-8260-1f3431e06587","{""participantId"":""98CEBB245CC64B34B95712FED358D4C0"",""assignmentId"":""7168685f-234f-4d3c-b3b9-b88faf06ed64"",""projectId"":""e622c465-ee29-4445-8260-1f3431e06587""}","https://test12345.live/?participantId=98CEBB245CC64B34B95712FED358D4C0&assignmentId=7168685f-234f-4d3c-b3b9-b88faf06ed64&projectId=e622c465-ee29-4445-8260-1f3431e06587","","null","<div style=""display: flex; justify-content: center; align-items: center;"">
                    <img src=""images/causal/causal_series_8/causal_series_8_d.jpg"" style=""width: 300px; height: 300px;"" />
                  </div>","null","",""
"","","","","","html-button-response","45","136830","0.0-33.0","98CEBB245CC64B34B95712FED358D4C0","98CEBB245CC64B34B95712FED358D4C0","7168685f-234f-4d3c-b3b9-b88faf06ed64","e622c465-ee29-4445-8260-1f3431e06587","{""participantId"":""98CEBB245CC64B34B95712FED358D4C0"",""assignmentId"":""7168685f-234f-4d3c-b3b9-b88faf06ed64"",""projectId"":""e622c465-ee29-4445-8260-1f3431e06587""}","https://test12345.live/?participantId=98CEBB245CC64B34B95712FED358D4C0&assignmentId=7168685f-234f-4d3c-b3b9-b88faf06ed64&projectId=e622c465-ee29-4445-8260-1f3431e06587","","1709","Was there a person in the picture?","1","",""
"","","","","","survey-likert","46","138478","0.0-34.0","98CEBB245CC64B34B95712FED358D4C0","98CEBB245CC64B34B95712FED358D4C0","7168685f-234f-4d3c-b3b9-b88faf06ed64","e622c465-ee29-4445-8260-1f3431e06587","{""participantId"":""98CEBB245CC64B34B95712FED358D4C0"",""assignmentId"":""7168685f-234f-4d3c-b3b9-b88faf06ed64"",""projectId"":""e622c465-ee29-4445-8260-1f3431e06587""}","https://test12345.live/?participantId=98CEBB245CC64B34B95712FED358D4C0&assignmentId=7168685f-234f-4d3c-b3b9-b88faf06ed64&projectId=e622c465-ee29-4445-8260-1f3431e06587","","1647","","{""Q0"":3}","","[0]"
"","","","","","html-button-response","47","139602","0.0-35.0","98CEBB245CC64B34B95712FED358D4C0","98CEBB245CC64B34B95712FED358D4C0","7168685f-234f-4d3c-b3b9-b88faf06ed64","e622c465-ee29-4445-8260-1f3431e06587","{""participantId"":""98CEBB245CC64B34B95712FED358D4C0"",""assignmentId"":""7168685f-234f-4d3c-b3b9-b88faf06ed64"",""projectId"":""e622c465-ee29-4445-8260-1f3431e06587""}","https://test12345.live/?participantId=98CEBB245CC64B34B95712FED358D4C0&assignmentId=7168685f-234f-4d3c-b3b9-b88faf06ed64&projectId=e622c465-ee29-4445-8260-1f3431e06587","","1123","
    <div style=""display: flex; justify-content: center; align-items: center;"">
      <img src=""images/blue_deck_1.png"" style=""width: 300px; height: 300px; margin-right: 10px;"" />
      <img src=""images/red_deck_2.png"" style=""width: 300px; height: 300px;"" />
    </div>","0","0",""
"","","","","","html-keyboard-response","48","142605","0.0-36.0-0.0","98CEBB245CC64B34B95712FED358D4C0","98CEBB245CC64B34B95712FED358D4C0","7168685f-234f-4d3c-b3b9-b88faf06ed64","e622c465-ee29-4445-8260-1f3431e06587","{""participantId"":""98CEBB245CC64B34B95712FED358D4C0"",""assignmentId"":""7168685f-234f-4d3c-b3b9-b88faf06ed64"",""projectId"":""e622c465-ee29-4445-8260-1f3431e06587""}","https://test12345.live/?participantId=98CEBB245CC64B34B95712FED358D4C0&assignmentId=7168685f-234f-4d3c-b3b9-b88faf06ed64&projectId=e622c465-ee29-4445-8260-1f3431e06587","","null","<div style=""display: flex; justify-content: center; align-items: center;"">
                    <img src=""images/causal/causal_series_15/causal_series_15_a.jpg"" style=""width: 300px; height: 300px;"" />
                  </div>","null","",""
"","","","","","html-keyboard-response","49","145608","0.0-36.0-1.0","98CEBB245CC64B34B95712FED358D4C0","98CEBB245CC64B34B95712FED358D4C0","7168685f-234f-4d3c-b3b9-b88faf06ed64","e622c465-ee29-4445-8260-1f3431e06587","{""participantId"":""98CEBB245CC64B34B95712FED358D4C0"",""assignmentId"":""7168685f-234f-4d3c-b3b9-b88faf06ed64"",""projectId"":""e622c465-ee29-4445-8260-1f3431e06587""}","https://test12345.live/?participantId=98CEBB245CC64B34B95712FED358D4C0&assignmentId=7168685f-234f-4d3c-b3b9-b88faf06ed64&projectId=e622c465-ee29-4445-8260-1f3431e06587","","null","<div style=""display: flex; justify-content: center; align-items: center;"">
                    <img src=""images/causal/causal_series_15/causal_series_15_b.jpg"" style=""width: 300px; height: 300px;"" />
                  </div>","null","",""
"","","","","","html-keyboard-response","50","148611","0.0-36.0-2.0","98CEBB245CC64B34B95712FED358D4C0","98CEBB245CC64B34B95712FED358D4C0","7168685f-234f-4d3c-b3b9-b88faf06ed64","e622c465-ee29-4445-8260-1f3431e06587","{""participantId"":""98CEBB245CC64B34B95712FED358D4C0"",""assignmentId"":""7168685f-234f-4d3c-b3b9-b88faf06ed64"",""projectId"":""e622c465-ee29-4445-8260-1f3431e06587""}","https://test12345.live/?participantId=98CEBB245CC64B34B95712FED358D4C0&assignmentId=7168685f-234f-4d3c-b3b9-b88faf06ed64&projectId=e622c465-ee29-4445-8260-1f3431e06587","","null","<div style=""display: flex; justify-content: center; align-items: center;"">
                    <img src=""images/causal/causal_series_15/causal_series_15_c.jpg"" style=""width: 300px; height: 300px;"" />
                  </div>","null","",""
"","","","","","html-keyboard-response","51","151613","0.0-36.0-3.0","98CEBB245CC64B34B95712FED358D4C0","98CEBB245CC64B34B95712FED358D4C0","7168685f-234f-4d3c-b3b9-b88faf06ed64","e622c465-ee29-4445-8260-1f3431e06587","{""participantId"":""98CEBB245CC64B34B95712FED358D4C0"",""assignmentId"":""7168685f-234f-4d3c-b3b9-b88faf06ed64"",""projectId"":""e622c465-ee29-4445-8260-1f3431e06587""}","https://test12345.live/?participantId=98CEBB245CC64B34B95712FED358D4C0&assignmentId=7168685f-234f-4d3c-b3b9-b88faf06ed64&projectId=e622c465-ee29-4445-8260-1f3431e06587","","null","<div style=""display: flex; justify-content: center; align-items: center;"">
                    <img src=""images/causal/causal_series_15/causal_series_15_d.jpg"" style=""width: 300px; height: 300px;"" />
                  </div>","null","",""
"","","","","","html-button-response","52","153527","0.0-38.0","98CEBB245CC64B34B95712FED358D4C0","98CEBB245CC64B34B95712FED358D4C0","7168685f-234f-4d3c-b3b9-b88faf06ed64","e622c465-ee29-4445-8260-1f3431e06587","{""participantId"":""98CEBB245CC64B34B95712FED358D4C0"",""assignmentId"":""7168685f-234f-4d3c-b3b9-b88faf06ed64"",""projectId"":""e622c465-ee29-4445-8260-1f3431e06587""}","https://test12345.live/?participantId=98CEBB245CC64B34B95712FED358D4C0&assignmentId=7168685f-234f-4d3c-b3b9-b88faf06ed64&projectId=e622c465-ee29-4445-8260-1f3431e06587","","1913","Was there a person in the picture?","0","",""
"","","","","","survey-likert","53","155142","0.0-39.0","98CEBB245CC64B34B95712FED358D4C0","98CEBB245CC64B34B95712FED358D4C0","7168685f-234f-4d3c-b3b9-b88faf06ed64","e622c465-ee29-4445-8260-1f3431e06587","{""participantId"":""98CEBB245CC64B34B95712FED358D4C0"",""assignmentId"":""7168685f-234f-4d3c-b3b9-b88faf06ed64"",""projectId"":""e622c465-ee29-4445-8260-1f3431e06587""}","https://test12345.live/?participantId=98CEBB245CC64B34B95712FED358D4C0&assignmentId=7168685f-234f-4d3c-b3b9-b88faf06ed64&projectId=e622c465-ee29-4445-8260-1f3431e06587","","1615","","{""Q0"":4}","","[0]"
"","","","","","html-button-response","54","156274","0.0-40.0","98CEBB245CC64B34B95712FED358D4C0","98CEBB245CC64B34B95712FED358D4C0","7168685f-234f-4d3c-b3b9-b88faf06ed64","e622c465-ee29-4445-8260-1f3431e06587","{""participantId"":""98CEBB245CC64B34B95712FED358D4C0"",""assignmentId"":""7168685f-234f-4d3c-b3b9-b88faf06ed64"",""projectId"":""e622c465-ee29-4445-8260-1f3431e06587""}","https://test12345.live/?participantId=98CEBB245CC64B34B95712FED358D4C0&assignmentId=7168685f-234f-4d3c-b3b9-b88faf06ed64&projectId=e622c465-ee29-4445-8260-1f3431e06587","","1131","
    <div style=""display: flex; justify-content: center; align-items: center;"">
      <img src=""images/blue_deck_1.png"" style=""width: 300px; height: 300px; margin-right: 10px;"" />
      <img src=""images/red_deck_2.png"" style=""width: 300px; height: 300px;"" />
    </div>","0","0",""
"","","","","","html-keyboard-response","55","159276","0.0-41.0-0.0","98CEBB245CC64B34B95712FED358D4C0","98CEBB245CC64B34B95712FED358D4C0","7168685f-234f-4d3c-b3b9-b88faf06ed64","e622c465-ee29-4445-8260-1f3431e06587","{""participantId"":""98CEBB245CC64B34B95712FED358D4C0"",""assignmentId"":""7168685f-234f-4d3c-b3b9-b88faf06ed64"",""projectId"":""e622c465-ee29-4445-8260-1f3431e06587""}","https://test12345.live/?participantId=98CEBB245CC64B34B95712FED358D4C0&assignmentId=7168685f-234f-4d3c-b3b9-b88faf06ed64&projectId=e622c465-ee29-4445-8260-1f3431e06587","","null","<div style=""display: flex; justify-content: center; align-items: center;"">
                    <img src=""images/causal/causal_series_9/causal_series_9_a.jpg"" style=""width: 300px; height: 300px;"" />
                  </div>","null","",""
"","","","","","html-keyboard-response","56","162279","0.0-41.0-1.0","98CEBB245CC64B34B95712FED358D4C0","98CEBB245CC64B34B95712FED358D4C0","7168685f-234f-4d3c-b3b9-b88faf06ed64","e622c465-ee29-4445-8260-1f3431e06587","{""participantId"":""98CEBB245CC64B34B95712FED358D4C0"",""assignmentId"":""7168685f-234f-4d3c-b3b9-b88faf06ed64"",""projectId"":""e622c465-ee29-4445-8260-1f3431e06587""}","https://test12345.live/?participantId=98CEBB245CC64B34B95712FED358D4C0&assignmentId=7168685f-234f-4d3c-b3b9-b88faf06ed64&projectId=e622c465-ee29-4445-8260-1f3431e06587","","null","<div style=""display: flex; justify-content: center; align-items: center;"">
                    <img src=""images/causal/causal_series_9/causal_series_9_b.jpg"" style=""width: 300px; height: 300px;"" />
                  </div>","null","",""
"","","","","","html-keyboard-response","57","165282","0.0-41.0-2.0","98CEBB245CC64B34B95712FED358D4C0","98CEBB245CC64B34B95712FED358D4C0","7168685f-234f-4d3c-b3b9-b88faf06ed64","e622c465-ee29-4445-8260-1f3431e06587","{""participantId"":""98CEBB245CC64B34B95712FED358D4C0"",""assignmentId"":""7168685f-234f-4d3c-b3b9-b88faf06ed64"",""projectId"":""e622c465-ee29-4445-8260-1f3431e06587""}","https://test12345.live/?participantId=98CEBB245CC64B34B95712FED358D4C0&assignmentId=7168685f-234f-4d3c-b3b9-b88faf06ed64&projectId=e622c465-ee29-4445-8260-1f3431e06587","","null","<div style=""display: flex; justify-content: center; align-items: center;"">
                    <img src=""images/causal/causal_series_9/causal_series_9_c.jpg"" style=""width: 300px; height: 300px;"" />
                  </div>","null","",""
"","","","","","html-keyboard-response","58","168284","0.0-41.0-3.0","98CEBB245CC64B34B95712FED358D4C0","98CEBB245CC64B34B95712FED358D4C0","7168685f-234f-4d3c-b3b9-b88faf06ed64","e622c465-ee29-4445-8260-1f3431e06587","{""participantId"":""98CEBB245CC64B34B95712FED358D4C0"",""assignmentId"":""7168685f-234f-4d3c-b3b9-b88faf06ed64"",""projectId"":""e622c465-ee29-4445-8260-1f3431e06587""}","https://test12345.live/?participantId=98CEBB245CC64B34B95712FED358D4C0&assignmentId=7168685f-234f-4d3c-b3b9-b88faf06ed64&projectId=e622c465-ee29-4445-8260-1f3431e06587","","null","<div style=""display: flex; justify-content: center; align-items: center;"">
                    <img src=""images/causal/causal_series_9/causal_series_9_d.jpg"" style=""width: 300px; height: 300px;"" />
                  </div>","null","",""
"","","","","","html-button-response","59","169639","0.0-43.0","98CEBB245CC64B34B95712FED358D4C0","98CEBB245CC64B34B95712FED358D4C0","7168685f-234f-4d3c-b3b9-b88faf06ed64","e622c465-ee29-4445-8260-1f3431e06587","{""participantId"":""98CEBB245CC64B34B95712FED358D4C0"",""assignmentId"":""7168685f-234f-4d3c-b3b9-b88faf06ed64"",""projectId"":""e622c465-ee29-4445-8260-1f3431e06587""}","https://test12345.live/?participantId=98CEBB245CC64B34B95712FED358D4C0&assignmentId=7168685f-234f-4d3c-b3b9-b88faf06ed64&projectId=e622c465-ee29-4445-8260-1f3431e06587","","1354","Was there a person in the picture?","1","",""
"","","","","","survey-likert","60","171966","0.0-44.0","98CEBB245CC64B34B95712FED358D4C0","98CEBB245CC64B34B95712FED358D4C0","7168685f-234f-4d3c-b3b9-b88faf06ed64","e622c465-ee29-4445-8260-1f3431e06587","{""participantId"":""98CEBB245CC64B34B95712FED358D4C0"",""assignmentId"":""7168685f-234f-4d3c-b3b9-b88faf06ed64"",""projectId"":""e622c465-ee29-4445-8260-1f3431e06587""}","https://test12345.live/?participantId=98CEBB245CC64B34B95712FED358D4C0&assignmentId=7168685f-234f-4d3c-b3b9-b88faf06ed64&projectId=e622c465-ee29-4445-8260-1f3431e06587","","2326","","{""Q0"":3}","","[0]"
"","","","","","html-button-response","61","172925","0.0-45.0","98CEBB245CC64B34B95712FED358D4C0","98CEBB245CC64B34B95712FED358D4C0","7168685f-234f-4d3c-b3b9-b88faf06ed64","e622c465-ee29-4445-8260-1f3431e06587","{""participantId"":""98CEBB245CC64B34B95712FED358D4C0"",""assignmentId"":""7168685f-234f-4d3c-b3b9-b88faf06ed64"",""projectId"":""e622c465-ee29-4445-8260-1f3431e06587""}","https://test12345.live/?participantId=98CEBB245CC64B34B95712FED358D4C0&assignmentId=7168685f-234f-4d3c-b3b9-b88faf06ed64&projectId=e622c465-ee29-4445-8260-1f3431e06587","","958","
    <div style=""display: flex; justify-content: center; align-items: center;"">
      <img src=""images/blue_deck_1.png"" style=""width: 300px; height: 300px; margin-right: 10px;"" />
      <img src=""images/red_deck_2.png"" style=""width: 300px; height: 300px;"" />
    </div>","0","0",""
"","","","","","html-keyboard-response","62","175929","0.0-46.0-0.0","98CEBB245CC64B34B95712FED358D4C0","98CEBB245CC64B34B95712FED358D4C0","7168685f-234f-4d3c-b3b9-b88faf06ed64","e622c465-ee29-4445-8260-1f3431e06587","{""participantId"":""98CEBB245CC64B34B95712FED358D4C0"",""assignmentId"":""7168685f-234f-4d3c-b3b9-b88faf06ed64"",""projectId"":""e622c465-ee29-4445-8260-1f3431e06587""}","https://test12345.live/?participantId=98CEBB245CC64B34B95712FED358D4C0&assignmentId=7168685f-234f-4d3c-b3b9-b88faf06ed64&projectId=e622c465-ee29-4445-8260-1f3431e06587","","null","<div style=""display: flex; justify-content: center; align-items: center;"">
                    <img src=""images/causal/causal_series_13/causal_series_13_a.jpg"" style=""width: 300px; height: 300px;"" />
                  </div>","null","",""
"","","","","","html-keyboard-response","63","178931","0.0-46.0-1.0","98CEBB245CC64B34B95712FED358D4C0","98CEBB245CC64B34B95712FED358D4C0","7168685f-234f-4d3c-b3b9-b88faf06ed64","e622c465-ee29-4445-8260-1f3431e06587","{""participantId"":""98CEBB245CC64B34B95712FED358D4C0"",""assignmentId"":""7168685f-234f-4d3c-b3b9-b88faf06ed64"",""projectId"":""e622c465-ee29-4445-8260-1f3431e06587""}","https://test12345.live/?participantId=98CEBB245CC64B34B95712FED358D4C0&assignmentId=7168685f-234f-4d3c-b3b9-b88faf06ed64&projectId=e622c465-ee29-4445-8260-1f3431e06587","","null","<div style=""display: flex; justify-content: center; align-items: center;"">
                    <img src=""images/causal/causal_series_13/causal_series_13_b.jpg"" style=""width: 300px; height: 300px;"" />
                  </div>","null","",""
"","","","","","html-keyboard-response","64","181932","0.0-46.0-2.0","98CEBB245CC64B34B95712FED358D4C0","98CEBB245CC64B34B95712FED358D4C0","7168685f-234f-4d3c-b3b9-b88faf06ed64","e622c465-ee29-4445-8260-1f3431e06587","{""participantId"":""98CEBB245CC64B34B95712FED358D4C0"",""assignmentId"":""7168685f-234f-4d3c-b3b9-b88faf06ed64"",""projectId"":""e622c465-ee29-4445-8260-1f3431e06587""}","https://test12345.live/?participantId=98CEBB245CC64B34B95712FED358D4C0&assignmentId=7168685f-234f-4d3c-b3b9-b88faf06ed64&projectId=e622c465-ee29-4445-8260-1f3431e06587","","null","<div style=""display: flex; justify-content: center; align-items: center;"">
                    <img src=""images/causal/causal_series_13/causal_series_13_c.jpg"" style=""width: 300px; height: 300px;"" />
                  </div>","null","",""
"","","","","","html-keyboard-response","65","184934","0.0-46.0-3.0","98CEBB245CC64B34B95712FED358D4C0","98CEBB245CC64B34B95712FED358D4C0","7168685f-234f-4d3c-b3b9-b88faf06ed64","e622c465-ee29-4445-8260-1f3431e06587","{""participantId"":""98CEBB245CC64B34B95712FED358D4C0"",""assignmentId"":""7168685f-234f-4d3c-b3b9-b88faf06ed64"",""projectId"":""e622c465-ee29-4445-8260-1f3431e06587""}","https://test12345.live/?participantId=98CEBB245CC64B34B95712FED358D4C0&assignmentId=7168685f-234f-4d3c-b3b9-b88faf06ed64&projectId=e622c465-ee29-4445-8260-1f3431e06587","","null","<div style=""display: flex; justify-content: center; align-items: center;"">
                    <img src=""images/causal/causal_series_13/causal_series_13_d.jpg"" style=""width: 300px; height: 300px;"" />
                  </div>","null","",""
"","","","","","html-button-response","66","185794","0.0-48.0","98CEBB245CC64B34B95712FED358D4C0","98CEBB245CC64B34B95712FED358D4C0","7168685f-234f-4d3c-b3b9-b88faf06ed64","e622c465-ee29-4445-8260-1f3431e06587","{""participantId"":""98CEBB245CC64B34B95712FED358D4C0"",""assignmentId"":""7168685f-234f-4d3c-b3b9-b88faf06ed64"",""projectId"":""e622c465-ee29-4445-8260-1f3431e06587""}","https://test12345.live/?participantId=98CEBB245CC64B34B95712FED358D4C0&assignmentId=7168685f-234f-4d3c-b3b9-b88faf06ed64&projectId=e622c465-ee29-4445-8260-1f3431e06587","","859","Was there a person in the picture?","0","",""
"","","","","","survey-likert","67","188025","0.0-49.0","98CEBB245CC64B34B95712FED358D4C0","98CEBB245CC64B34B95712FED358D4C0","7168685f-234f-4d3c-b3b9-b88faf06ed64","e622c465-ee29-4445-8260-1f3431e06587","{""participantId"":""98CEBB245CC64B34B95712FED358D4C0"",""assignmentId"":""7168685f-234f-4d3c-b3b9-b88faf06ed64"",""projectId"":""e622c465-ee29-4445-8260-1f3431e06587""}","https://test12345.live/?participantId=98CEBB245CC64B34B95712FED358D4C0&assignmentId=7168685f-234f-4d3c-b3b9-b88faf06ed64&projectId=e622c465-ee29-4445-8260-1f3431e06587","","2229","","{""Q0"":1}","","[0]"
"","","","","","html-button-response","68","188848","0.0-50.0","98CEBB245CC64B34B95712FED358D4C0","98CEBB245CC64B34B95712FED358D4C0","7168685f-234f-4d3c-b3b9-b88faf06ed64","e622c465-ee29-4445-8260-1f3431e06587","{""participantId"":""98CEBB245CC64B34B95712FED358D4C0"",""assignmentId"":""7168685f-234f-4d3c-b3b9-b88faf06ed64"",""projectId"":""e622c465-ee29-4445-8260-1f3431e06587""}","https://test12345.live/?participantId=98CEBB245CC64B34B95712FED358D4C0&assignmentId=7168685f-234f-4d3c-b3b9-b88faf06ed64&projectId=e622c465-ee29-4445-8260-1f3431e06587","","822","
    <div style=""display: flex; justify-content: center; align-items: center;"">
      <img src=""images/blue_deck_1.png"" style=""width: 300px; height: 300px; margin-right: 10px;"" />
      <img src=""images/red_deck_2.png"" style=""width: 300px; height: 300px;"" />
    </div>","1","1",""
"","","","","","html-keyboard-response","69","191851","0.0-52.0-0.0","98CEBB245CC64B34B95712FED358D4C0","98CEBB245CC64B34B95712FED358D4C0","7168685f-234f-4d3c-b3b9-b88faf06ed64","e622c465-ee29-4445-8260-1f3431e06587","{""participantId"":""98CEBB245CC64B34B95712FED358D4C0"",""assignmentId"":""7168685f-234f-4d3c-b3b9-b88faf06ed64"",""projectId"":""e622c465-ee29-4445-8260-1f3431e06587""}","https://test12345.live/?participantId=98CEBB245CC64B34B95712FED358D4C0&assignmentId=7168685f-234f-4d3c-b3b9-b88faf06ed64&projectId=e622c465-ee29-4445-8260-1f3431e06587","","null","<div style=""display: flex; justify-content: center; align-items: center;"">
                    <img src=""images/semantic/semantic_series_16/semantic_series_16_a.jpg"" style=""width: 300px; height: 300px;"" />
                  </div>","null","",""
"","","","","","html-keyboard-response","70","194853","0.0-52.0-1.0","98CEBB245CC64B34B95712FED358D4C0","98CEBB245CC64B34B95712FED358D4C0","7168685f-234f-4d3c-b3b9-b88faf06ed64","e622c465-ee29-4445-8260-1f3431e06587","{""participantId"":""98CEBB245CC64B34B95712FED358D4C0"",""assignmentId"":""7168685f-234f-4d3c-b3b9-b88faf06ed64"",""projectId"":""e622c465-ee29-4445-8260-1f3431e06587""}","https://test12345.live/?participantId=98CEBB245CC64B34B95712FED358D4C0&assignmentId=7168685f-234f-4d3c-b3b9-b88faf06ed64&projectId=e622c465-ee29-4445-8260-1f3431e06587","","null","<div style=""display: flex; justify-content: center; align-items: center;"">
                    <img src=""images/semantic/semantic_series_16/semantic_series_16_b.jpg"" style=""width: 300px; height: 300px;"" />
                  </div>","null","",""
"","","","","","html-keyboard-response","71","197856","0.0-52.0-2.0","98CEBB245CC64B34B95712FED358D4C0","98CEBB245CC64B34B95712FED358D4C0","7168685f-234f-4d3c-b3b9-b88faf06ed64","e622c465-ee29-4445-8260-1f3431e06587","{""participantId"":""98CEBB245CC64B34B95712FED358D4C0"",""assignmentId"":""7168685f-234f-4d3c-b3b9-b88faf06ed64"",""projectId"":""e622c465-ee29-4445-8260-1f3431e06587""}","https://test12345.live/?participantId=98CEBB245CC64B34B95712FED358D4C0&assignmentId=7168685f-234f-4d3c-b3b9-b88faf06ed64&projectId=e622c465-ee29-4445-8260-1f3431e06587","","null","<div style=""display: flex; justify-content: center; align-items: center;"">
                    <img src=""images/semantic/semantic_series_16/semantic_series_16_c.jpg"" style=""width: 300px; height: 300px;"" />
                  </div>","null","",""
"","","","","","html-keyboard-response","72","200859","0.0-52.0-3.0","98CEBB245CC64B34B95712FED358D4C0","98CEBB245CC64B34B95712FED358D4C0","7168685f-234f-4d3c-b3b9-b88faf06ed64","e622c465-ee29-4445-8260-1f3431e06587","{""participantId"":""98CEBB245CC64B34B95712FED358D4C0"",""assignmentId"":""7168685f-234f-4d3c-b3b9-b88faf06ed64"",""projectId"":""e622c465-ee29-4445-8260-1f3431e06587""}","https://test12345.live/?participantId=98CEBB245CC64B34B95712FED358D4C0&assignmentId=7168685f-234f-4d3c-b3b9-b88faf06ed64&projectId=e622c465-ee29-4445-8260-1f3431e06587","","null","<div style=""display: flex; justify-content: center; align-items: center;"">
                    <img src=""images/semantic/semantic_series_16/semantic_series_16_d.jpg"" style=""width: 300px; height: 300px;"" />
                  </div>","null","",""
"","","","","","html-button-response","73","202229","0.0-53.0","98CEBB245CC64B34B95712FED358D4C0","98CEBB245CC64B34B95712FED358D4C0","7168685f-234f-4d3c-b3b9-b88faf06ed64","e622c465-ee29-4445-8260-1f3431e06587","{""participantId"":""98CEBB245CC64B34B95712FED358D4C0"",""assignmentId"":""7168685f-234f-4d3c-b3b9-b88faf06ed64"",""projectId"":""e622c465-ee29-4445-8260-1f3431e06587""}","https://test12345.live/?participantId=98CEBB245CC64B34B95712FED358D4C0&assignmentId=7168685f-234f-4d3c-b3b9-b88faf06ed64&projectId=e622c465-ee29-4445-8260-1f3431e06587","","1369","Was there a person in the picture?","0","",""
"","","","","","survey-likert","74","203741","0.0-54.0","98CEBB245CC64B34B95712FED358D4C0","98CEBB245CC64B34B95712FED358D4C0","7168685f-234f-4d3c-b3b9-b88faf06ed64","e622c465-ee29-4445-8260-1f3431e06587","{""participantId"":""98CEBB245CC64B34B95712FED358D4C0"",""assignmentId"":""7168685f-234f-4d3c-b3b9-b88faf06ed64"",""projectId"":""e622c465-ee29-4445-8260-1f3431e06587""}","https://test12345.live/?participantId=98CEBB245CC64B34B95712FED358D4C0&assignmentId=7168685f-234f-4d3c-b3b9-b88faf06ed64&projectId=e622c465-ee29-4445-8260-1f3431e06587","","1511","","{""Q0"":0}","","[0]"
"","","","","","html-button-response","75","204579","0.0-55.0","98CEBB245CC64B34B95712FED358D4C0","98CEBB245CC64B34B95712FED358D4C0","7168685f-234f-4d3c-b3b9-b88faf06ed64","e622c465-ee29-4445-8260-1f3431e06587","{""participantId"":""98CEBB245CC64B34B95712FED358D4C0"",""assignmentId"":""7168685f-234f-4d3c-b3b9-b88faf06ed64"",""projectId"":""e622c465-ee29-4445-8260-1f3431e06587""}","https://test12345.live/?participantId=98CEBB245CC64B34B95712FED358D4C0&assignmentId=7168685f-234f-4d3c-b3b9-b88faf06ed64&projectId=e622c465-ee29-4445-8260-1f3431e06587","","837","
    <div style=""display: flex; justify-content: center; align-items: center;"">
      <img src=""images/blue_deck_1.png"" style=""width: 300px; height: 300px; margin-right: 10px;"" />
      <img src=""images/red_deck_2.png"" style=""width: 300px; height: 300px;"" />
    </div>","0","0",""
"","","","","","html-keyboard-response","76","207582","0.0-56.0-0.0","98CEBB245CC64B34B95712FED358D4C0","98CEBB245CC64B34B95712FED358D4C0","7168685f-234f-4d3c-b3b9-b88faf06ed64","e622c465-ee29-4445-8260-1f3431e06587","{""participantId"":""98CEBB245CC64B34B95712FED358D4C0"",""assignmentId"":""7168685f-234f-4d3c-b3b9-b88faf06ed64"",""projectId"":""e622c465-ee29-4445-8260-1f3431e06587""}","https://test12345.live/?participantId=98CEBB245CC64B34B95712FED358D4C0&assignmentId=7168685f-234f-4d3c-b3b9-b88faf06ed64&projectId=e622c465-ee29-4445-8260-1f3431e06587","","null","<div style=""display: flex; justify-content: center; align-items: center;"">
                    <img src=""images/causal/causal_series_10/causal_series_10_a.jpg"" style=""width: 300px; height: 300px;"" />
                  </div>","null","",""
"","","","","","html-keyboard-response","77","210585","0.0-56.0-1.0","98CEBB245CC64B34B95712FED358D4C0","98CEBB245CC64B34B95712FED358D4C0","7168685f-234f-4d3c-b3b9-b88faf06ed64","e622c465-ee29-4445-8260-1f3431e06587","{""participantId"":""98CEBB245CC64B34B95712FED358D4C0"",""assignmentId"":""7168685f-234f-4d3c-b3b9-b88faf06ed64"",""projectId"":""e622c465-ee29-4445-8260-1f3431e06587""}","https://test12345.live/?participantId=98CEBB245CC64B34B95712FED358D4C0&assignmentId=7168685f-234f-4d3c-b3b9-b88faf06ed64&projectId=e622c465-ee29-4445-8260-1f3431e06587","","null","<div style=""display: flex; justify-content: center; align-items: center;"">
                    <img src=""images/causal/causal_series_10/causal_series_10_b.jpg"" style=""width: 300px; height: 300px;"" />
                  </div>","null","",""
"","","","","","html-keyboard-response","78","213588","0.0-56.0-2.0","98CEBB245CC64B34B95712FED358D4C0","98CEBB245CC64B34B95712FED358D4C0","7168685f-234f-4d3c-b3b9-b88faf06ed64","e622c465-ee29-4445-8260-1f3431e06587","{""participantId"":""98CEBB245CC64B34B95712FED358D4C0"",""assignmentId"":""7168685f-234f-4d3c-b3b9-b88faf06ed64"",""projectId"":""e622c465-ee29-4445-8260-1f3431e06587""}","https://test12345.live/?participantId=98CEBB245CC64B34B95712FED358D4C0&assignmentId=7168685f-234f-4d3c-b3b9-b88faf06ed64&projectId=e622c465-ee29-4445-8260-1f3431e06587","","null","<div style=""display: flex; justify-content: center; align-items: center;"">
                    <img src=""images/causal/causal_series_10/causal_series_10_c.jpg"" style=""width: 300px; height: 300px;"" />
                  </div>","null","",""
"","","","","","html-keyboard-response","79","216590","0.0-56.0-3.0","98CEBB245CC64B34B95712FED358D4C0","98CEBB245CC64B34B95712FED358D4C0","7168685f-234f-4d3c-b3b9-b88faf06ed64","e622c465-ee29-4445-8260-1f3431e06587","{""participantId"":""98CEBB245CC64B34B95712FED358D4C0"",""assignmentId"":""7168685f-234f-4d3c-b3b9-b88faf06ed64"",""projectId"":""e622c465-ee29-4445-8260-1f3431e06587""}","https://test12345.live/?participantId=98CEBB245CC64B34B95712FED358D4C0&assignmentId=7168685f-234f-4d3c-b3b9-b88faf06ed64&projectId=e622c465-ee29-4445-8260-1f3431e06587","","null","<div style=""display: flex; justify-content: center; align-items: center;"">
                    <img src=""images/causal/causal_series_10/causal_series_10_d.jpg"" style=""width: 300px; height: 300px;"" />
                  </div>","null","",""
"","","","","","html-button-response","80","218332","0.0-58.0","98CEBB245CC64B34B95712FED358D4C0","98CEBB245CC64B34B95712FED358D4C0","7168685f-234f-4d3c-b3b9-b88faf06ed64","e622c465-ee29-4445-8260-1f3431e06587","{""participantId"":""98CEBB245CC64B34B95712FED358D4C0"",""assignmentId"":""7168685f-234f-4d3c-b3b9-b88faf06ed64"",""projectId"":""e622c465-ee29-4445-8260-1f3431e06587""}","https://test12345.live/?participantId=98CEBB245CC64B34B95712FED358D4C0&assignmentId=7168685f-234f-4d3c-b3b9-b88faf06ed64&projectId=e622c465-ee29-4445-8260-1f3431e06587","","1740","Was there a person in the picture?","1","",""
"","","","","","survey-likert","81","220799","0.0-59.0","98CEBB245CC64B34B95712FED358D4C0","98CEBB245CC64B34B95712FED358D4C0","7168685f-234f-4d3c-b3b9-b88faf06ed64","e622c465-ee29-4445-8260-1f3431e06587","{""participantId"":""98CEBB245CC64B34B95712FED358D4C0"",""assignmentId"":""7168685f-234f-4d3c-b3b9-b88faf06ed64"",""projectId"":""e622c465-ee29-4445-8260-1f3431e06587""}","https://test12345.live/?participantId=98CEBB245CC64B34B95712FED358D4C0&assignmentId=7168685f-234f-4d3c-b3b9-b88faf06ed64&projectId=e622c465-ee29-4445-8260-1f3431e06587","","2467","","{""Q0"":1}","","[0]"
"","","","","","html-button-response","82","221609","0.0-60.0","98CEBB245CC64B34B95712FED358D4C0","98CEBB245CC64B34B95712FED358D4C0","7168685f-234f-4d3c-b3b9-b88faf06ed64","e622c465-ee29-4445-8260-1f3431e06587","{""participantId"":""98CEBB245CC64B34B95712FED358D4C0"",""assignmentId"":""7168685f-234f-4d3c-b3b9-b88faf06ed64"",""projectId"":""e622c465-ee29-4445-8260-1f3431e06587""}","https://test12345.live/?participantId=98CEBB245CC64B34B95712FED358D4C0&assignmentId=7168685f-234f-4d3c-b3b9-b88faf06ed64&projectId=e622c465-ee29-4445-8260-1f3431e06587","","808","
    <div style=""display: flex; justify-content: center; align-items: center;"">
      <img src=""images/blue_deck_1.png"" style=""width: 300px; height: 300px; margin-right: 10px;"" />
      <img src=""images/red_deck_2.png"" style=""width: 300px; height: 300px;"" />
    </div>","0","0",""
"","","","","","html-keyboard-response","83","224611","0.0-61.0-0.0","98CEBB245CC64B34B95712FED358D4C0","98CEBB245CC64B34B95712FED358D4C0","7168685f-234f-4d3c-b3b9-b88faf06ed64","e622c465-ee29-4445-8260-1f3431e06587","{""participantId"":""98CEBB245CC64B34B95712FED358D4C0"",""assignmentId"":""7168685f-234f-4d3c-b3b9-b88faf06ed64"",""projectId"":""e622c465-ee29-4445-8260-1f3431e06587""}","https://test12345.live/?participantId=98CEBB245CC64B34B95712FED358D4C0&assignmentId=7168685f-234f-4d3c-b3b9-b88faf06ed64&projectId=e622c465-ee29-4445-8260-1f3431e06587","","null","<div style=""display: flex; justify-content: center; align-items: center;"">
                    <img src=""images/causal/causal_series_12/causal_series_12_a.jpg"" style=""width: 300px; height: 300px;"" />
                  </div>","null","",""
"","","","","","html-keyboard-response","84","227614","0.0-61.0-1.0","98CEBB245CC64B34B95712FED358D4C0","98CEBB245CC64B34B95712FED358D4C0","7168685f-234f-4d3c-b3b9-b88faf06ed64","e622c465-ee29-4445-8260-1f3431e06587","{""participantId"":""98CEBB245CC64B34B95712FED358D4C0"",""assignmentId"":""7168685f-234f-4d3c-b3b9-b88faf06ed64"",""projectId"":""e622c465-ee29-4445-8260-1f3431e06587""}","https://test12345.live/?participantId=98CEBB245CC64B34B95712FED358D4C0&assignmentId=7168685f-234f-4d3c-b3b9-b88faf06ed64&projectId=e622c465-ee29-4445-8260-1f3431e06587","","null","<div style=""display: flex; justify-content: center; align-items: center;"">
                    <img src=""images/causal/causal_series_12/causal_series_12_b.jpg"" style=""width: 300px; height: 300px;"" />
                  </div>","null","",""
"","","","","","html-keyboard-response","85","230616","0.0-61.0-2.0","98CEBB245CC64B34B95712FED358D4C0","98CEBB245CC64B34B95712FED358D4C0","7168685f-234f-4d3c-b3b9-b88faf06ed64","e622c465-ee29-4445-8260-1f3431e06587","{""participantId"":""98CEBB245CC64B34B95712FED358D4C0"",""assignmentId"":""7168685f-234f-4d3c-b3b9-b88faf06ed64"",""projectId"":""e622c465-ee29-4445-8260-1f3431e06587""}","https://test12345.live/?participantId=98CEBB245CC64B34B95712FED358D4C0&assignmentId=7168685f-234f-4d3c-b3b9-b88faf06ed64&projectId=e622c465-ee29-4445-8260-1f3431e06587","","null","<div style=""display: flex; justify-content: center; align-items: center;"">
                    <img src=""images/causal/causal_series_12/causal_series_12_c.jpg"" style=""width: 300px; height: 300px;"" />
                  </div>","null","",""
"","","","","","html-keyboard-response","86","233618","0.0-61.0-3.0","98CEBB245CC64B34B95712FED358D4C0","98CEBB245CC64B34B95712FED358D4C0","7168685f-234f-4d3c-b3b9-b88faf06ed64","e622c465-ee29-4445-8260-1f3431e06587","{""participantId"":""98CEBB245CC64B34B95712FED358D4C0"",""assignmentId"":""7168685f-234f-4d3c-b3b9-b88faf06ed64"",""projectId"":""e622c465-ee29-4445-8260-1f3431e06587""}","https://test12345.live/?participantId=98CEBB245CC64B34B95712FED358D4C0&assignmentId=7168685f-234f-4d3c-b3b9-b88faf06ed64&projectId=e622c465-ee29-4445-8260-1f3431e06587","","null","<div style=""display: flex; justify-content: center; align-items: center;"">
                    <img src=""images/causal/causal_series_12/causal_series_12_d.jpg"" style=""width: 300px; height: 300px;"" />
                  </div>","null","",""
"","","","","","html-button-response","87","235313","0.0-63.0","98CEBB245CC64B34B95712FED358D4C0","98CEBB245CC64B34B95712FED358D4C0","7168685f-234f-4d3c-b3b9-b88faf06ed64","e622c465-ee29-4445-8260-1f3431e06587","{""participantId"":""98CEBB245CC64B34B95712FED358D4C0"",""assignmentId"":""7168685f-234f-4d3c-b3b9-b88faf06ed64"",""projectId"":""e622c465-ee29-4445-8260-1f3431e06587""}","https://test12345.live/?participantId=98CEBB245CC64B34B95712FED358D4C0&assignmentId=7168685f-234f-4d3c-b3b9-b88faf06ed64&projectId=e622c465-ee29-4445-8260-1f3431e06587","","1694","Was there a person in the picture?","1","",""
"","","","","","survey-likert","88","237663","0.0-64.0","98CEBB245CC64B34B95712FED358D4C0","98CEBB245CC64B34B95712FED358D4C0","7168685f-234f-4d3c-b3b9-b88faf06ed64","e622c465-ee29-4445-8260-1f3431e06587","{""participantId"":""98CEBB245CC64B34B95712FED358D4C0"",""assignmentId"":""7168685f-234f-4d3c-b3b9-b88faf06ed64"",""projectId"":""e622c465-ee29-4445-8260-1f3431e06587""}","https://test12345.live/?participantId=98CEBB245CC64B34B95712FED358D4C0&assignmentId=7168685f-234f-4d3c-b3b9-b88faf06ed64&projectId=e622c465-ee29-4445-8260-1f3431e06587","","2349","","{""Q0"":2}","","[0]"
"","","","","","html-button-response","89","238716","0.0-65.0","98CEBB245CC64B34B95712FED358D4C0","98CEBB245CC64B34B95712FED358D4C0","7168685f-234f-4d3c-b3b9-b88faf06ed64","e622c465-ee29-4445-8260-1f3431e06587","{""participantId"":""98CEBB245CC64B34B95712FED358D4C0"",""assignmentId"":""7168685f-234f-4d3c-b3b9-b88faf06ed64"",""projectId"":""e622c465-ee29-4445-8260-1f3431e06587""}","https://test12345.live/?participantId=98CEBB245CC64B34B95712FED358D4C0&assignmentId=7168685f-234f-4d3c-b3b9-b88faf06ed64&projectId=e622c465-ee29-4445-8260-1f3431e06587","","1051","
    <div style=""display: flex; justify-content: center; align-items: center;"">
      <img src=""images/blue_deck_1.png"" style=""width: 300px; height: 300px; margin-right: 10px;"" />
      <img src=""images/red_deck_2.png"" style=""width: 300px; height: 300px;"" />
    </div>","0","0",""
"","","","","","html-keyboard-response","90","241719","0.0-66.0-0.0","98CEBB245CC64B34B95712FED358D4C0","98CEBB245CC64B34B95712FED358D4C0","7168685f-234f-4d3c-b3b9-b88faf06ed64","e622c465-ee29-4445-8260-1f3431e06587","{""participantId"":""98CEBB245CC64B34B95712FED358D4C0"",""assignmentId"":""7168685f-234f-4d3c-b3b9-b88faf06ed64"",""projectId"":""e622c465-ee29-4445-8260-1f3431e06587""}","https://test12345.live/?participantId=98CEBB245CC64B34B95712FED358D4C0&assignmentId=7168685f-234f-4d3c-b3b9-b88faf06ed64&projectId=e622c465-ee29-4445-8260-1f3431e06587","","null","<div style=""display: flex; justify-content: center; align-items: center;"">
                    <img src=""images/causal/causal_series_3/causal_series_3_a.jpg"" style=""width: 300px; height: 300px;"" />
                  </div>","null","",""
"","","","","","html-keyboard-response","91","244720","0.0-66.0-1.0","98CEBB245CC64B34B95712FED358D4C0","98CEBB245CC64B34B95712FED358D4C0","7168685f-234f-4d3c-b3b9-b88faf06ed64","e622c465-ee29-4445-8260-1f3431e06587","{""participantId"":""98CEBB245CC64B34B95712FED358D4C0"",""assignmentId"":""7168685f-234f-4d3c-b3b9-b88faf06ed64"",""projectId"":""e622c465-ee29-4445-8260-1f3431e06587""}","https://test12345.live/?participantId=98CEBB245CC64B34B95712FED358D4C0&assignmentId=7168685f-234f-4d3c-b3b9-b88faf06ed64&projectId=e622c465-ee29-4445-8260-1f3431e06587","","null","<div style=""display: flex; justify-content: center; align-items: center;"">
                    <img src=""images/causal/causal_series_3/causal_series_3_b.jpg"" style=""width: 300px; height: 300px;"" />
                  </div>","null","",""
"","","","","","html-keyboard-response","92","247723","0.0-66.0-2.0","98CEBB245CC64B34B95712FED358D4C0","98CEBB245CC64B34B95712FED358D4C0","7168685f-234f-4d3c-b3b9-b88faf06ed64","e622c465-ee29-4445-8260-1f3431e06587","{""participantId"":""98CEBB245CC64B34B95712FED358D4C0"",""assignmentId"":""7168685f-234f-4d3c-b3b9-b88faf06ed64"",""projectId"":""e622c465-ee29-4445-8260-1f3431e06587""}","https://test12345.live/?participantId=98CEBB245CC64B34B95712FED358D4C0&assignmentId=7168685f-234f-4d3c-b3b9-b88faf06ed64&projectId=e622c465-ee29-4445-8260-1f3431e06587","","null","<div style=""display: flex; justify-content: center; align-items: center;"">
                    <img src=""images/causal/causal_series_3/causal_series_3_c.jpg"" style=""width: 300px; height: 300px;"" />
                  </div>","null","",""
"","","","","","html-keyboard-response","93","250726","0.0-66.0-3.0","98CEBB245CC64B34B95712FED358D4C0","98CEBB245CC64B34B95712FED358D4C0","7168685f-234f-4d3c-b3b9-b88faf06ed64","e622c465-ee29-4445-8260-1f3431e06587","{""participantId"":""98CEBB245CC64B34B95712FED358D4C0"",""assignmentId"":""7168685f-234f-4d3c-b3b9-b88faf06ed64"",""projectId"":""e622c465-ee29-4445-8260-1f3431e06587""}","https://test12345.live/?participantId=98CEBB245CC64B34B95712FED358D4C0&assignmentId=7168685f-234f-4d3c-b3b9-b88faf06ed64&projectId=e622c465-ee29-4445-8260-1f3431e06587","","null","<div style=""display: flex; justify-content: center; align-items: center;"">
                    <img src=""images/causal/causal_series_3/causal_series_3_d.jpg"" style=""width: 300px; height: 300px;"" />
                  </div>","null","",""
"","","","","","html-button-response","94","252592","0.0-68.0","98CEBB245CC64B34B95712FED358D4C0","98CEBB245CC64B34B95712FED358D4C0","7168685f-234f-4d3c-b3b9-b88faf06ed64","e622c465-ee29-4445-8260-1f3431e06587","{""participantId"":""98CEBB245CC64B34B95712FED358D4C0"",""assignmentId"":""7168685f-234f-4d3c-b3b9-b88faf06ed64"",""projectId"":""e622c465-ee29-4445-8260-1f3431e06587""}","https://test12345.live/?participantId=98CEBB245CC64B34B95712FED358D4C0&assignmentId=7168685f-234f-4d3c-b3b9-b88faf06ed64&projectId=e622c465-ee29-4445-8260-1f3431e06587","","1865","Was there a person in the picture?","0","",""
"","","","","","survey-likert","95","254359","0.0-69.0","98CEBB245CC64B34B95712FED358D4C0","98CEBB245CC64B34B95712FED358D4C0","7168685f-234f-4d3c-b3b9-b88faf06ed64","e622c465-ee29-4445-8260-1f3431e06587","{""participantId"":""98CEBB245CC64B34B95712FED358D4C0"",""assignmentId"":""7168685f-234f-4d3c-b3b9-b88faf06ed64"",""projectId"":""e622c465-ee29-4445-8260-1f3431e06587""}","https://test12345.live/?participantId=98CEBB245CC64B34B95712FED358D4C0&assignmentId=7168685f-234f-4d3c-b3b9-b88faf06ed64&projectId=e622c465-ee29-4445-8260-1f3431e06587","","1765","","{""Q0"":1}","","[0]"
"","","","","","html-button-response","96","255188","0.0-70.0","98CEBB245CC64B34B95712FED358D4C0","98CEBB245CC64B34B95712FED358D4C0","7168685f-234f-4d3c-b3b9-b88faf06ed64","e622c465-ee29-4445-8260-1f3431e06587","{""participantId"":""98CEBB245CC64B34B95712FED358D4C0"",""assignmentId"":""7168685f-234f-4d3c-b3b9-b88faf06ed64"",""projectId"":""e622c465-ee29-4445-8260-1f3431e06587""}","https://test12345.live/?participantId=98CEBB245CC64B34B95712FED358D4C0&assignmentId=7168685f-234f-4d3c-b3b9-b88faf06ed64&projectId=e622c465-ee29-4445-8260-1f3431e06587","","828","
    <div style=""display: flex; justify-content: center; align-items: center;"">
      <img src=""images/blue_deck_1.png"" style=""width: 300px; height: 300px; margin-right: 10px;"" />
      <img src=""images/red_deck_2.png"" style=""width: 300px; height: 300px;"" />
    </div>","0","0",""
"","","","","","html-keyboard-response","97","258191","0.0-71.0-0.0","98CEBB245CC64B34B95712FED358D4C0","98CEBB245CC64B34B95712FED358D4C0","7168685f-234f-4d3c-b3b9-b88faf06ed64","e622c465-ee29-4445-8260-1f3431e06587","{""participantId"":""98CEBB245CC64B34B95712FED358D4C0"",""assignmentId"":""7168685f-234f-4d3c-b3b9-b88faf06ed64"",""projectId"":""e622c465-ee29-4445-8260-1f3431e06587""}","https://test12345.live/?participantId=98CEBB245CC64B34B95712FED358D4C0&assignmentId=7168685f-234f-4d3c-b3b9-b88faf06ed64&projectId=e622c465-ee29-4445-8260-1f3431e06587","","null","<div style=""display: flex; justify-content: center; align-items: center;"">
                    <img src=""images/causal/causal_series_2/causal_series_2_a.jpg"" style=""width: 300px; height: 300px;"" />
                  </div>","null","",""
"","","","","","html-keyboard-response","98","261194","0.0-71.0-1.0","98CEBB245CC64B34B95712FED358D4C0","98CEBB245CC64B34B95712FED358D4C0","7168685f-234f-4d3c-b3b9-b88faf06ed64","e622c465-ee29-4445-8260-1f3431e06587","{""participantId"":""98CEBB245CC64B34B95712FED358D4C0"",""assignmentId"":""7168685f-234f-4d3c-b3b9-b88faf06ed64"",""projectId"":""e622c465-ee29-4445-8260-1f3431e06587""}","https://test12345.live/?participantId=98CEBB245CC64B34B95712FED358D4C0&assignmentId=7168685f-234f-4d3c-b3b9-b88faf06ed64&projectId=e622c465-ee29-4445-8260-1f3431e06587","","null","<div style=""display: flex; justify-content: center; align-items: center;"">
                    <img src=""images/causal/causal_series_2/causal_series_2_b.jpg"" style=""width: 300px; height: 300px;"" />
                  </div>","null","",""
"","","","","","html-keyboard-response","99","264197","0.0-71.0-2.0","98CEBB245CC64B34B95712FED358D4C0","98CEBB245CC64B34B95712FED358D4C0","7168685f-234f-4d3c-b3b9-b88faf06ed64","e622c465-ee29-4445-8260-1f3431e06587","{""participantId"":""98CEBB245CC64B34B95712FED358D4C0"",""assignmentId"":""7168685f-234f-4d3c-b3b9-b88faf06ed64"",""projectId"":""e622c465-ee29-4445-8260-1f3431e06587""}","https://test12345.live/?participantId=98CEBB245CC64B34B95712FED358D4C0&assignmentId=7168685f-234f-4d3c-b3b9-b88faf06ed64&projectId=e622c465-ee29-4445-8260-1f3431e06587","","null","<div style=""display: flex; justify-content: center; align-items: center;"">
                    <img src=""images/causal/causal_series_2/causal_series_2_c.jpg"" style=""width: 300px; height: 300px;"" />
                  </div>","null","",""
"","","","","","html-keyboard-response","100","267199","0.0-71.0-3.0","98CEBB245CC64B34B95712FED358D4C0","98CEBB245CC64B34B95712FED358D4C0","7168685f-234f-4d3c-b3b9-b88faf06ed64","e622c465-ee29-4445-8260-1f3431e06587","{""participantId"":""98CEBB245CC64B34B95712FED358D4C0"",""assignmentId"":""7168685f-234f-4d3c-b3b9-b88faf06ed64"",""projectId"":""e622c465-ee29-4445-8260-1f3431e06587""}","https://test12345.live/?participantId=98CEBB245CC64B34B95712FED358D4C0&assignmentId=7168685f-234f-4d3c-b3b9-b88faf06ed64&projectId=e622c465-ee29-4445-8260-1f3431e06587","","null","<div style=""display: flex; justify-content: center; align-items: center;"">
                    <img src=""images/causal/causal_series_2/causal_series_2_d.jpg"" style=""width: 300px; height: 300px;"" />
                  </div>","null","",""
"","","","","","html-button-response","101","268775","0.0-73.0","98CEBB245CC64B34B95712FED358D4C0","98CEBB245CC64B34B95712FED358D4C0","7168685f-234f-4d3c-b3b9-b88faf06ed64","e622c465-ee29-4445-8260-1f3431e06587","{""participantId"":""98CEBB245CC64B34B95712FED358D4C0"",""assignmentId"":""7168685f-234f-4d3c-b3b9-b88faf06ed64"",""projectId"":""e622c465-ee29-4445-8260-1f3431e06587""}","https://test12345.live/?participantId=98CEBB245CC64B34B95712FED358D4C0&assignmentId=7168685f-234f-4d3c-b3b9-b88faf06ed64&projectId=e622c465-ee29-4445-8260-1f3431e06587","","1574","Was there a person in the picture?","0","",""
"","","","","","survey-likert","102","271202","0.0-74.0","98CEBB245CC64B34B95712FED358D4C0","98CEBB245CC64B34B95712FED358D4C0","7168685f-234f-4d3c-b3b9-b88faf06ed64","e622c465-ee29-4445-8260-1f3431e06587","{""participantId"":""98CEBB245CC64B34B95712FED358D4C0"",""assignmentId"":""7168685f-234f-4d3c-b3b9-b88faf06ed64"",""projectId"":""e622c465-ee29-4445-8260-1f3431e06587""}","https://test12345.live/?participantId=98CEBB245CC64B34B95712FED358D4C0&assignmentId=7168685f-234f-4d3c-b3b9-b88faf06ed64&projectId=e622c465-ee29-4445-8260-1f3431e06587","","2427","","{""Q0"":2}","","[0]"
"","","","","","html-button-response","103","271907","0.0-75.0","98CEBB245CC64B34B95712FED358D4C0","98CEBB245CC64B34B95712FED358D4C0","7168685f-234f-4d3c-b3b9-b88faf06ed64","e622c465-ee29-4445-8260-1f3431e06587","{""participantId"":""98CEBB245CC64B34B95712FED358D4C0"",""assignmentId"":""7168685f-234f-4d3c-b3b9-b88faf06ed64"",""projectId"":""e622c465-ee29-4445-8260-1f3431e06587""}","https://test12345.live/?participantId=98CEBB245CC64B34B95712FED358D4C0&assignmentId=7168685f-234f-4d3c-b3b9-b88faf06ed64&projectId=e622c465-ee29-4445-8260-1f3431e06587","","704","
    <div style=""display: flex; justify-content: center; align-items: center;"">
      <img src=""images/blue_deck_1.png"" style=""width: 300px; height: 300px; margin-right: 10px;"" />
      <img src=""images/red_deck_2.png"" style=""width: 300px; height: 300px;"" />
    </div>","0","0",""
"","","","","","html-keyboard-response","104","274910","0.0-76.0-0.0","98CEBB245CC64B34B95712FED358D4C0","98CEBB245CC64B34B95712FED358D4C0","7168685f-234f-4d3c-b3b9-b88faf06ed64","e622c465-ee29-4445-8260-1f3431e06587","{""participantId"":""98CEBB245CC64B34B95712FED358D4C0"",""assignmentId"":""7168685f-234f-4d3c-b3b9-b88faf06ed64"",""projectId"":""e622c465-ee29-4445-8260-1f3431e06587""}","https://test12345.live/?participantId=98CEBB245CC64B34B95712FED358D4C0&assignmentId=7168685f-234f-4d3c-b3b9-b88faf06ed64&projectId=e622c465-ee29-4445-8260-1f3431e06587","","null","<div style=""display: flex; justify-content: center; align-items: center;"">
                    <img src=""images/causal/causal_series_18/causal_series_18_a.jpg"" style=""width: 300px; height: 300px;"" />
                  </div>","null","",""
"","","","","","html-keyboard-response","105","277911","0.0-76.0-1.0","98CEBB245CC64B34B95712FED358D4C0","98CEBB245CC64B34B95712FED358D4C0","7168685f-234f-4d3c-b3b9-b88faf06ed64","e622c465-ee29-4445-8260-1f3431e06587","{""participantId"":""98CEBB245CC64B34B95712FED358D4C0"",""assignmentId"":""7168685f-234f-4d3c-b3b9-b88faf06ed64"",""projectId"":""e622c465-ee29-4445-8260-1f3431e06587""}","https://test12345.live/?participantId=98CEBB245CC64B34B95712FED358D4C0&assignmentId=7168685f-234f-4d3c-b3b9-b88faf06ed64&projectId=e622c465-ee29-4445-8260-1f3431e06587","","null","<div style=""display: flex; justify-content: center; align-items: center;"">
                    <img src=""images/causal/causal_series_18/causal_series_18_b.jpg"" style=""width: 300px; height: 300px;"" />
                  </div>","null","",""
"","","","","","html-keyboard-response","106","280914","0.0-76.0-2.0","98CEBB245CC64B34B95712FED358D4C0","98CEBB245CC64B34B95712FED358D4C0","7168685f-234f-4d3c-b3b9-b88faf06ed64","e622c465-ee29-4445-8260-1f3431e06587","{""participantId"":""98CEBB245CC64B34B95712FED358D4C0"",""assignmentId"":""7168685f-234f-4d3c-b3b9-b88faf06ed64"",""projectId"":""e622c465-ee29-4445-8260-1f3431e06587""}","https://test12345.live/?participantId=98CEBB245CC64B34B95712FED358D4C0&assignmentId=7168685f-234f-4d3c-b3b9-b88faf06ed64&projectId=e622c465-ee29-4445-8260-1f3431e06587","","null","<div style=""display: flex; justify-content: center; align-items: center;"">
                    <img src=""images/causal/causal_series_18/causal_series_18_c.jpg"" style=""width: 300px; height: 300px;"" />
                  </div>","null","",""
"","","","","","html-keyboard-response","107","283917","0.0-76.0-3.0","98CEBB245CC64B34B95712FED358D4C0","98CEBB245CC64B34B95712FED358D4C0","7168685f-234f-4d3c-b3b9-b88faf06ed64","e622c465-ee29-4445-8260-1f3431e06587","{""participantId"":""98CEBB245CC64B34B95712FED358D4C0"",""assignmentId"":""7168685f-234f-4d3c-b3b9-b88faf06ed64"",""projectId"":""e622c465-ee29-4445-8260-1f3431e06587""}","https://test12345.live/?participantId=98CEBB245CC64B34B95712FED358D4C0&assignmentId=7168685f-234f-4d3c-b3b9-b88faf06ed64&projectId=e622c465-ee29-4445-8260-1f3431e06587","","null","<div style=""display: flex; justify-content: center; align-items: center;"">
                    <img src=""images/causal/causal_series_18/causal_series_18_d.jpg"" style=""width: 300px; height: 300px;"" />
                  </div>","null","",""
"","","","","","html-button-response","108","285441","0.0-78.0","98CEBB245CC64B34B95712FED358D4C0","98CEBB245CC64B34B95712FED358D4C0","7168685f-234f-4d3c-b3b9-b88faf06ed64","e622c465-ee29-4445-8260-1f3431e06587","{""participantId"":""98CEBB245CC64B34B95712FED358D4C0"",""assignmentId"":""7168685f-234f-4d3c-b3b9-b88faf06ed64"",""projectId"":""e622c465-ee29-4445-8260-1f3431e06587""}","https://test12345.live/?participantId=98CEBB245CC64B34B95712FED358D4C0&assignmentId=7168685f-234f-4d3c-b3b9-b88faf06ed64&projectId=e622c465-ee29-4445-8260-1f3431e06587","","1523","Was there a person in the picture?","1","",""
"","","","","","survey-likert","109","288536","0.0-79.0","98CEBB245CC64B34B95712FED358D4C0","98CEBB245CC64B34B95712FED358D4C0","7168685f-234f-4d3c-b3b9-b88faf06ed64","e622c465-ee29-4445-8260-1f3431e06587","{""participantId"":""98CEBB245CC64B34B95712FED358D4C0"",""assignmentId"":""7168685f-234f-4d3c-b3b9-b88faf06ed64"",""projectId"":""e622c465-ee29-4445-8260-1f3431e06587""}","https://test12345.live/?participantId=98CEBB245CC64B34B95712FED358D4C0&assignmentId=7168685f-234f-4d3c-b3b9-b88faf06ed64&projectId=e622c465-ee29-4445-8260-1f3431e06587","","3093","","{""Q0"":2}","","[0]"
"","","","","","html-button-response","110","289350","0.0-80.0","98CEBB245CC64B34B95712FED358D4C0","98CEBB245CC64B34B95712FED358D4C0","7168685f-234f-4d3c-b3b9-b88faf06ed64","e622c465-ee29-4445-8260-1f3431e06587","{""participantId"":""98CEBB245CC64B34B95712FED358D4C0"",""assignmentId"":""7168685f-234f-4d3c-b3b9-b88faf06ed64"",""projectId"":""e622c465-ee29-4445-8260-1f3431e06587""}","https://test12345.live/?participantId=98CEBB245CC64B34B95712FED358D4C0&assignmentId=7168685f-234f-4d3c-b3b9-b88faf06ed64&projectId=e622c465-ee29-4445-8260-1f3431e06587","","813","
    <div style=""display: flex; justify-content: center; align-items: center;"">
      <img src=""images/blue_deck_1.png"" style=""width: 300px; height: 300px; margin-right: 10px;"" />
      <img src=""images/red_deck_2.png"" style=""width: 300px; height: 300px;"" />
    </div>","0","0",""
"","","","","","html-keyboard-response","111","292352","0.0-81.0-0.0","98CEBB245CC64B34B95712FED358D4C0","98CEBB245CC64B34B95712FED358D4C0","7168685f-234f-4d3c-b3b9-b88faf06ed64","e622c465-ee29-4445-8260-1f3431e06587","{""participantId"":""98CEBB245CC64B34B95712FED358D4C0"",""assignmentId"":""7168685f-234f-4d3c-b3b9-b88faf06ed64"",""projectId"":""e622c465-ee29-4445-8260-1f3431e06587""}","https://test12345.live/?participantId=98CEBB245CC64B34B95712FED358D4C0&assignmentId=7168685f-234f-4d3c-b3b9-b88faf06ed64&projectId=e622c465-ee29-4445-8260-1f3431e06587","","null","<div style=""display: flex; justify-content: center; align-items: center;"">
                    <img src=""images/causal/causal_series_14/causal_series_14_a.jpg"" style=""width: 300px; height: 300px;"" />
                  </div>","null","",""
"","","","","","html-keyboard-response","112","295355","0.0-81.0-1.0","98CEBB245CC64B34B95712FED358D4C0","98CEBB245CC64B34B95712FED358D4C0","7168685f-234f-4d3c-b3b9-b88faf06ed64","e622c465-ee29-4445-8260-1f3431e06587","{""participantId"":""98CEBB245CC64B34B95712FED358D4C0"",""assignmentId"":""7168685f-234f-4d3c-b3b9-b88faf06ed64"",""projectId"":""e622c465-ee29-4445-8260-1f3431e06587""}","https://test12345.live/?participantId=98CEBB245CC64B34B95712FED358D4C0&assignmentId=7168685f-234f-4d3c-b3b9-b88faf06ed64&projectId=e622c465-ee29-4445-8260-1f3431e06587","","null","<div style=""display: flex; justify-content: center; align-items: center;"">
                    <img src=""images/causal/causal_series_14/causal_series_14_b.jpg"" style=""width: 300px; height: 300px;"" />
                  </div>","null","",""
"","","","","","html-keyboard-response","113","298357","0.0-81.0-2.0","98CEBB245CC64B34B95712FED358D4C0","98CEBB245CC64B34B95712FED358D4C0","7168685f-234f-4d3c-b3b9-b88faf06ed64","e622c465-ee29-4445-8260-1f3431e06587","{""participantId"":""98CEBB245CC64B34B95712FED358D4C0"",""assignmentId"":""7168685f-234f-4d3c-b3b9-b88faf06ed64"",""projectId"":""e622c465-ee29-4445-8260-1f3431e06587""}","https://test12345.live/?participantId=98CEBB245CC64B34B95712FED358D4C0&assignmentId=7168685f-234f-4d3c-b3b9-b88faf06ed64&projectId=e622c465-ee29-4445-8260-1f3431e06587","","null","<div style=""display: flex; justify-content: center; align-items: center;"">
                    <img src=""images/causal/causal_series_14/causal_series_14_c.jpg"" style=""width: 300px; height: 300px;"" />
                  </div>","null","",""
"","","","","","html-keyboard-response","114","301359","0.0-81.0-3.0","98CEBB245CC64B34B95712FED358D4C0","98CEBB245CC64B34B95712FED358D4C0","7168685f-234f-4d3c-b3b9-b88faf06ed64","e622c465-ee29-4445-8260-1f3431e06587","{""participantId"":""98CEBB245CC64B34B95712FED358D4C0"",""assignmentId"":""7168685f-234f-4d3c-b3b9-b88faf06ed64"",""projectId"":""e622c465-ee29-4445-8260-1f3431e06587""}","https://test12345.live/?participantId=98CEBB245CC64B34B95712FED358D4C0&assignmentId=7168685f-234f-4d3c-b3b9-b88faf06ed64&projectId=e622c465-ee29-4445-8260-1f3431e06587","","null","<div style=""display: flex; justify-content: center; align-items: center;"">
                    <img src=""images/causal/causal_series_14/causal_series_14_d.jpg"" style=""width: 300px; height: 300px;"" />
                  </div>","null","",""
"","","","","","html-button-response","115","302599","0.0-83.0","98CEBB245CC64B34B95712FED358D4C0","98CEBB245CC64B34B95712FED358D4C0","7168685f-234f-4d3c-b3b9-b88faf06ed64","e622c465-ee29-4445-8260-1f3431e06587","{""participantId"":""98CEBB245CC64B34B95712FED358D4C0"",""assignmentId"":""7168685f-234f-4d3c-b3b9-b88faf06ed64"",""projectId"":""e622c465-ee29-4445-8260-1f3431e06587""}","https://test12345.live/?participantId=98CEBB245CC64B34B95712FED358D4C0&assignmentId=7168685f-234f-4d3c-b3b9-b88faf06ed64&projectId=e622c465-ee29-4445-8260-1f3431e06587","","1238","Was there a person in the picture?","0","",""
"","","","","","survey-likert","116","305242","0.0-84.0","98CEBB245CC64B34B95712FED358D4C0","98CEBB245CC64B34B95712FED358D4C0","7168685f-234f-4d3c-b3b9-b88faf06ed64","e622c465-ee29-4445-8260-1f3431e06587","{""participantId"":""98CEBB245CC64B34B95712FED358D4C0"",""assignmentId"":""7168685f-234f-4d3c-b3b9-b88faf06ed64"",""projectId"":""e622c465-ee29-4445-8260-1f3431e06587""}","https://test12345.live/?participantId=98CEBB245CC64B34B95712FED358D4C0&assignmentId=7168685f-234f-4d3c-b3b9-b88faf06ed64&projectId=e622c465-ee29-4445-8260-1f3431e06587","","2642","","{""Q0"":1}","","[0]"
"","","","","","html-button-response","117","306129","0.0-85.0","98CEBB245CC64B34B95712FED358D4C0","98CEBB245CC64B34B95712FED358D4C0","7168685f-234f-4d3c-b3b9-b88faf06ed64","e622c465-ee29-4445-8260-1f3431e06587","{""participantId"":""98CEBB245CC64B34B95712FED358D4C0"",""assignmentId"":""7168685f-234f-4d3c-b3b9-b88faf06ed64"",""projectId"":""e622c465-ee29-4445-8260-1f3431e06587""}","https://test12345.live/?participantId=98CEBB245CC64B34B95712FED358D4C0&assignmentId=7168685f-234f-4d3c-b3b9-b88faf06ed64&projectId=e622c465-ee29-4445-8260-1f3431e06587","","887","
    <div style=""display: flex; justify-content: center; align-items: center;"">
      <img src=""images/blue_deck_1.png"" style=""width: 300px; height: 300px; margin-right: 10px;"" />
      <img src=""images/red_deck_2.png"" style=""width: 300px; height: 300px;"" />
    </div>","0","0",""
"","","","","","html-keyboard-response","118","309131","0.0-86.0-0.0","98CEBB245CC64B34B95712FED358D4C0","98CEBB245CC64B34B95712FED358D4C0","7168685f-234f-4d3c-b3b9-b88faf06ed64","e622c465-ee29-4445-8260-1f3431e06587","{""participantId"":""98CEBB245CC64B34B95712FED358D4C0"",""assignmentId"":""7168685f-234f-4d3c-b3b9-b88faf06ed64"",""projectId"":""e622c465-ee29-4445-8260-1f3431e06587""}","https://test12345.live/?participantId=98CEBB245CC64B34B95712FED358D4C0&assignmentId=7168685f-234f-4d3c-b3b9-b88faf06ed64&projectId=e622c465-ee29-4445-8260-1f3431e06587","","null","<div style=""display: flex; justify-content: center; align-items: center;"">
                    <img src=""images/causal/causal_series_7/causal_series_7_a.jpg"" style=""width: 300px; height: 300px;"" />
                  </div>","null","",""
"","","","","","html-keyboard-response","119","312134","0.0-86.0-1.0","98CEBB245CC64B34B95712FED358D4C0","98CEBB245CC64B34B95712FED358D4C0","7168685f-234f-4d3c-b3b9-b88faf06ed64","e622c465-ee29-4445-8260-1f3431e06587","{""participantId"":""98CEBB245CC64B34B95712FED358D4C0"",""assignmentId"":""7168685f-234f-4d3c-b3b9-b88faf06ed64"",""projectId"":""e622c465-ee29-4445-8260-1f3431e06587""}","https://test12345.live/?participantId=98CEBB245CC64B34B95712FED358D4C0&assignmentId=7168685f-234f-4d3c-b3b9-b88faf06ed64&projectId=e622c465-ee29-4445-8260-1f3431e06587","","null","<div style=""display: flex; justify-content: center; align-items: center;"">
                    <img src=""images/causal/causal_series_7/causal_series_7_b.jpg"" style=""width: 300px; height: 300px;"" />
                  </div>","null","",""
"","","","","","html-keyboard-response","120","315137","0.0-86.0-2.0","98CEBB245CC64B34B95712FED358D4C0","98CEBB245CC64B34B95712FED358D4C0","7168685f-234f-4d3c-b3b9-b88faf06ed64","e622c465-ee29-4445-8260-1f3431e06587","{""participantId"":""98CEBB245CC64B34B95712FED358D4C0"",""assignmentId"":""7168685f-234f-4d3c-b3b9-b88faf06ed64"",""projectId"":""e622c465-ee29-4445-8260-1f3431e06587""}","https://test12345.live/?participantId=98CEBB245CC64B34B95712FED358D4C0&assignmentId=7168685f-234f-4d3c-b3b9-b88faf06ed64&projectId=e622c465-ee29-4445-8260-1f3431e06587","","null","<div style=""display: flex; justify-content: center; align-items: center;"">
                    <img src=""images/causal/causal_series_7/causal_series_7_c.jpg"" style=""width: 300px; height: 300px;"" />
                  </div>","null","",""
"","","","","","html-keyboard-response","121","318138","0.0-86.0-3.0","98CEBB245CC64B34B95712FED358D4C0","98CEBB245CC64B34B95712FED358D4C0","7168685f-234f-4d3c-b3b9-b88faf06ed64","e622c465-ee29-4445-8260-1f3431e06587","{""participantId"":""98CEBB245CC64B34B95712FED358D4C0"",""assignmentId"":""7168685f-234f-4d3c-b3b9-b88faf06ed64"",""projectId"":""e622c465-ee29-4445-8260-1f3431e06587""}","https://test12345.live/?participantId=98CEBB245CC64B34B95712FED358D4C0&assignmentId=7168685f-234f-4d3c-b3b9-b88faf06ed64&projectId=e622c465-ee29-4445-8260-1f3431e06587","","null","<div style=""display: flex; justify-content: center; align-items: center;"">
                    <img src=""images/causal/causal_series_7/causal_series_7_d.jpg"" style=""width: 300px; height: 300px;"" />
                  </div>","null","",""
"","","","","","html-button-response","122","319891","0.0-88.0","98CEBB245CC64B34B95712FED358D4C0","98CEBB245CC64B34B95712FED358D4C0","7168685f-234f-4d3c-b3b9-b88faf06ed64","e622c465-ee29-4445-8260-1f3431e06587","{""participantId"":""98CEBB245CC64B34B95712FED358D4C0"",""assignmentId"":""7168685f-234f-4d3c-b3b9-b88faf06ed64"",""projectId"":""e622c465-ee29-4445-8260-1f3431e06587""}","https://test12345.live/?participantId=98CEBB245CC64B34B95712FED358D4C0&assignmentId=7168685f-234f-4d3c-b3b9-b88faf06ed64&projectId=e622c465-ee29-4445-8260-1f3431e06587","","1752","Was there a person in the picture?","1","",""
"","","","","","survey-likert","123","321096","0.0-89.0","98CEBB245CC64B34B95712FED358D4C0","98CEBB245CC64B34B95712FED358D4C0","7168685f-234f-4d3c-b3b9-b88faf06ed64","e622c465-ee29-4445-8260-1f3431e06587","{""participantId"":""98CEBB245CC64B34B95712FED358D4C0"",""assignmentId"":""7168685f-234f-4d3c-b3b9-b88faf06ed64"",""projectId"":""e622c465-ee29-4445-8260-1f3431e06587""}","https://test12345.live/?participantId=98CEBB245CC64B34B95712FED358D4C0&assignmentId=7168685f-234f-4d3c-b3b9-b88faf06ed64&projectId=e622c465-ee29-4445-8260-1f3431e06587","","1204","","{""Q0"":3}","","[0]"
"","","","","","html-button-response","124","322154","0.0-90.0","98CEBB245CC64B34B95712FED358D4C0","98CEBB245CC64B34B95712FED358D4C0","7168685f-234f-4d3c-b3b9-b88faf06ed64","e622c465-ee29-4445-8260-1f3431e06587","{""participantId"":""98CEBB245CC64B34B95712FED358D4C0"",""assignmentId"":""7168685f-234f-4d3c-b3b9-b88faf06ed64"",""projectId"":""e622c465-ee29-4445-8260-1f3431e06587""}","https://test12345.live/?participantId=98CEBB245CC64B34B95712FED358D4C0&assignmentId=7168685f-234f-4d3c-b3b9-b88faf06ed64&projectId=e622c465-ee29-4445-8260-1f3431e06587","","1057","
    <div style=""display: flex; justify-content: center; align-items: center;"">
      <img src=""images/blue_deck_1.png"" style=""width: 300px; height: 300px; margin-right: 10px;"" />
      <img src=""images/red_deck_2.png"" style=""width: 300px; height: 300px;"" />
    </div>","0","0",""
"","","","","","html-keyboard-response","125","325157","0.0-91.0-0.0","98CEBB245CC64B34B95712FED358D4C0","98CEBB245CC64B34B95712FED358D4C0","7168685f-234f-4d3c-b3b9-b88faf06ed64","e622c465-ee29-4445-8260-1f3431e06587","{""participantId"":""98CEBB245CC64B34B95712FED358D4C0"",""assignmentId"":""7168685f-234f-4d3c-b3b9-b88faf06ed64"",""projectId"":""e622c465-ee29-4445-8260-1f3431e06587""}","https://test12345.live/?participantId=98CEBB245CC64B34B95712FED358D4C0&assignmentId=7168685f-234f-4d3c-b3b9-b88faf06ed64&projectId=e622c465-ee29-4445-8260-1f3431e06587","","null","<div style=""display: flex; justify-content: center; align-items: center;"">
                    <img src=""images/causal/causal_series_11/causal_series_11_a.jpg"" style=""width: 300px; height: 300px;"" />
                  </div>","null","",""
"","","","","","html-keyboard-response","126","328159","0.0-91.0-1.0","98CEBB245CC64B34B95712FED358D4C0","98CEBB245CC64B34B95712FED358D4C0","7168685f-234f-4d3c-b3b9-b88faf06ed64","e622c465-ee29-4445-8260-1f3431e06587","{""participantId"":""98CEBB245CC64B34B95712FED358D4C0"",""assignmentId"":""7168685f-234f-4d3c-b3b9-b88faf06ed64"",""projectId"":""e622c465-ee29-4445-8260-1f3431e06587""}","https://test12345.live/?participantId=98CEBB245CC64B34B95712FED358D4C0&assignmentId=7168685f-234f-4d3c-b3b9-b88faf06ed64&projectId=e622c465-ee29-4445-8260-1f3431e06587","","null","<div style=""display: flex; justify-content: center; align-items: center;"">
                    <img src=""images/causal/causal_series_11/causal_series_11_b.jpg"" style=""width: 300px; height: 300px;"" />
                  </div>","null","",""
"","","","","","html-keyboard-response","127","331162","0.0-91.0-2.0","98CEBB245CC64B34B95712FED358D4C0","98CEBB245CC64B34B95712FED358D4C0","7168685f-234f-4d3c-b3b9-b88faf06ed64","e622c465-ee29-4445-8260-1f3431e06587","{""participantId"":""98CEBB245CC64B34B95712FED358D4C0"",""assignmentId"":""7168685f-234f-4d3c-b3b9-b88faf06ed64"",""projectId"":""e622c465-ee29-4445-8260-1f3431e06587""}","https://test12345.live/?participantId=98CEBB245CC64B34B95712FED358D4C0&assignmentId=7168685f-234f-4d3c-b3b9-b88faf06ed64&projectId=e622c465-ee29-4445-8260-1f3431e06587","","null","<div style=""display: flex; justify-content: center; align-items: center;"">
                    <img src=""images/causal/causal_series_11/causal_series_11_c.jpg"" style=""width: 300px; height: 300px;"" />
                  </div>","null","",""
"","","","","","html-keyboard-response","128","334164","0.0-91.0-3.0","98CEBB245CC64B34B95712FED358D4C0","98CEBB245CC64B34B95712FED358D4C0","7168685f-234f-4d3c-b3b9-b88faf06ed64","e622c465-ee29-4445-8260-1f3431e06587","{""participantId"":""98CEBB245CC64B34B95712FED358D4C0"",""assignmentId"":""7168685f-234f-4d3c-b3b9-b88faf06ed64"",""projectId"":""e622c465-ee29-4445-8260-1f3431e06587""}","https://test12345.live/?participantId=98CEBB245CC64B34B95712FED358D4C0&assignmentId=7168685f-234f-4d3c-b3b9-b88faf06ed64&projectId=e622c465-ee29-4445-8260-1f3431e06587","","null","<div style=""display: flex; justify-content: center; align-items: center;"">
                    <img src=""images/causal/causal_series_11/causal_series_11_d.jpg"" style=""width: 300px; height: 300px;"" />
                  </div>","null","",""
"","","","","","html-button-response","129","335559","0.0-93.0","98CEBB245CC64B34B95712FED358D4C0","98CEBB245CC64B34B95712FED358D4C0","7168685f-234f-4d3c-b3b9-b88faf06ed64","e622c465-ee29-4445-8260-1f3431e06587","{""participantId"":""98CEBB245CC64B34B95712FED358D4C0"",""assignmentId"":""7168685f-234f-4d3c-b3b9-b88faf06ed64"",""projectId"":""e622c465-ee29-4445-8260-1f3431e06587""}","https://test12345.live/?participantId=98CEBB245CC64B34B95712FED358D4C0&assignmentId=7168685f-234f-4d3c-b3b9-b88faf06ed64&projectId=e622c465-ee29-4445-8260-1f3431e06587","","1394","Was there a person in the picture?","0","",""
"","","","","","survey-likert","130","336983","0.0-94.0","98CEBB245CC64B34B95712FED358D4C0","98CEBB245CC64B34B95712FED358D4C0","7168685f-234f-4d3c-b3b9-b88faf06ed64","e622c465-ee29-4445-8260-1f3431e06587","{""participantId"":""98CEBB245CC64B34B95712FED358D4C0"",""assignmentId"":""7168685f-234f-4d3c-b3b9-b88faf06ed64"",""projectId"":""e622c465-ee29-4445-8260-1f3431e06587""}","https://test12345.live/?participantId=98CEBB245CC64B34B95712FED358D4C0&assignmentId=7168685f-234f-4d3c-b3b9-b88faf06ed64&projectId=e622c465-ee29-4445-8260-1f3431e06587","","1424","","{""Q0"":4}","","[0]"
"","","","","","survey-text","131","407376","0.0-95.0","98CEBB245CC64B34B95712FED358D4C0","98CEBB245CC64B34B95712FED358D4C0","7168685f-234f-4d3c-b3b9-b88faf06ed64","e622c465-ee29-4445-8260-1f3431e06587","{""participantId"":""98CEBB245CC64B34B95712FED358D4C0"",""assignmentId"":""7168685f-234f-4d3c-b3b9-b88faf06ed64"",""projectId"":""e622c465-ee29-4445-8260-1f3431e06587""}","https://test12345.live/?participantId=98CEBB245CC64B34B95712FED358D4C0&assignmentId=7168685f-234f-4d3c-b3b9-b88faf06ed64&projectId=e622c465-ee29-4445-8260-1f3431e06587","","70394","","{""Q0"":""visually, one is red and the other is blue. I didnt notice a difference in the art shown, but I was biased towards the blue deck. There were different art styles (some cartoon some realistic ai-generated) but I don't think that had to do with the deck chosen. ""}","",""
