"success","timeout","failed_images","failed_audio","failed_video","trial_type","trial_index","time_elapsed","internal_node_id","subject","subject_id","study_id","session_id","urlvar","current_url","view_history","rt","stimulus","response","choice","question_order"
"true","false","[]","[]","[]","preload","0","1166","0.0-0.0","8FD1D7CFE8C146558D361B11982CFF04","8FD1D7CFE8C146558D361B11982CFF04","0f15e304-fc2b-4e74-b749-9359503d3df0","54f8d589-66fc-4c65-830f-1dcc63bce8cc","{""participantId"":""8FD1D7CFE8C146558D361B11982CFF04"",""assignmentId"":""0f15e304-fc2b-4e74-b749-9359503d3df0"",""projectId"":""54f8d589-66fc-4c65-830f-1dcc63bce8cc""}","https://test12345.live/?participantId=8FD1D7CFE8C146558D361B11982CFF04&assignmentId=0f15e304-fc2b-4e74-b749-9359503d3df0&projectId=54f8d589-66fc-4c65-830f-1dcc63bce8cc","","","","","",""
"","","","","","instructions","1","3295","0.0-1.0","8FD1D7CFE8C146558D361B11982CFF04","8FD1D7CFE8C146558D361B11982CFF04","0f15e304-fc2b-4e74-b749-9359503d3df0","54f8d589-66fc-4c65-830f-1dcc63bce8cc","{""participantId"":""8FD1D7CFE8C146558D361B11982CFF04"",""assignmentId"":""0f15e304-fc2b-4e74-b749-9359503d3df0"",""projectId"":""54f8d589-66fc-4c65-830f-1dcc63bce8cc""}","https://test12345.live/?participantId=8FD1D7CFE8C146558D361B11982CFF04&assignmentId=0f15e304-fc2b-4e74-b749-9359503d3df0&projectId=54f8d589-66fc-4c65-830f-1dcc63bce8cc","[{""page_index"":0,""viewing_time"":2128}]","2129","","","",""
"","","","","","instructions","2","11282","0.0-2.0","8FD1D7CFE8C146558D361B11982CFF04","8FD1D7CFE8C146558D361B11982CFF04","0f15e304-fc2b-4e74-b749-9359503d3df0","54f8d589-66fc-4c65-830f-1dcc63bce8cc","{""participantId"":""8FD1D7CFE8C146558D361B11982CFF04"",""assignmentId"":""0f15e304-fc2b-4e74-b749-9359503d3df0"",""projectId"":""54f8d589-66fc-4c65-830f-1dcc63bce8cc""}","https://test12345.live/?participantId=8FD1D7CFE8C146558D361B11982CFF04&assignmentId=0f15e304-fc2b-4e74-b749-9359503d3df0&projectId=54f8d589-66fc-4c65-830f-1dcc63bce8cc","[{""page_index"":0,""viewing_time"":7986}]","7986","","","",""
"true","","","","","fullscreen","3","13804","0.0-3.0","8FD1D7CFE8C146558D361B11982CFF04","8FD1D7CFE8C146558D361B11982CFF04","0f15e304-fc2b-4e74-b749-9359503d3df0","54f8d589-66fc-4c65-830f-1dcc63bce8cc","{""participantId"":""8FD1D7CFE8C146558D361B11982CFF04"",""assignmentId"":""0f15e304-fc2b-4e74-b749-9359503d3df0"",""projectId"":""54f8d589-66fc-4c65-830f-1dcc63bce8cc""}","https://test12345.live/?participantId=8FD1D7CFE8C146558D361B11982CFF04&assignmentId=0f15e304-fc2b-4e74-b749-9359503d3df0&projectId=54f8d589-66fc-4c65-830f-1dcc63bce8cc","","1509","","","",""
"","","","","","instructions","4","18038","0.0-4.0","8FD1D7CFE8C146558D361B11982CFF04","8FD1D7CFE8C146558D361B11982CFF04","0f15e304-fc2b-4e74-b749-9359503d3df0","54f8d589-66fc-4c65-830f-1dcc63bce8cc","{""participantId"":""8FD1D7CFE8C146558D361B11982CFF04"",""assignmentId"":""0f15e304-fc2b-4e74-b749-9359503d3df0"",""projectId"":""54f8d589-66fc-4c65-830f-1dcc63bce8cc""}","https://test12345.live/?participantId=8FD1D7CFE8C146558D361B11982CFF04&assignmentId=0f15e304-fc2b-4e74-b749-9359503d3df0&projectId=54f8d589-66fc-4c65-830f-1dcc63bce8cc","[{""page_index"":0,""viewing_time"":4233}]","4234","","","",""
"","","","","","html-button-response","5","21789","0.0-5.0","8FD1D7CFE8C146558D361B11982CFF04","8FD1D7CFE8C146558D361B11982CFF04","0f15e304-fc2b-4e74-b749-9359503d3df0","54f8d589-66fc-4c65-830f-1dcc63bce8cc","{""participantId"":""8FD1D7CFE8C146558D361B11982CFF04"",""assignmentId"":""0f15e304-fc2b-4e74-b749-9359503d3df0"",""projectId"":""54f8d589-66fc-4c65-830f-1dcc63bce8cc""}","https://test12345.live/?participantId=8FD1D7CFE8C146558D361B11982CFF04&assignmentId=0f15e304-fc2b-4e74-b749-9359503d3df0&projectId=54f8d589-66fc-4c65-830f-1dcc63bce8cc","","3750","
    <div style=""display: flex; justify-content: center; align-items: center;"">
      <img src=""images/red_deck_2.png"" style=""width: 300px; height: 300px; margin-right: 10px;"" />
      <img src=""images/blue_deck_1.png"" style=""width: 300px; height: 300px;"" />
    </div>","1","1",""
"","","","","","html-keyboard-response","6","24805","0.0-7.0-0.0","8FD1D7CFE8C146558D361B11982CFF04","8FD1D7CFE8C146558D361B11982CFF04","0f15e304-fc2b-4e74-b749-9359503d3df0","54f8d589-66fc-4c65-830f-1dcc63bce8cc","{""participantId"":""8FD1D7CFE8C146558D361B11982CFF04"",""assignmentId"":""0f15e304-fc2b-4e74-b749-9359503d3df0"",""projectId"":""54f8d589-66fc-4c65-830f-1dcc63bce8cc""}","https://test12345.live/?participantId=8FD1D7CFE8C146558D361B11982CFF04&assignmentId=0f15e304-fc2b-4e74-b749-9359503d3df0&projectId=54f8d589-66fc-4c65-830f-1dcc63bce8cc","","null","<div style=""display: flex; justify-content: center; align-items: center;"">
                    <img src=""images/semantic/semantic_series_8/semantic_series_8_a.jpg"" style=""width: 300px; height: 300px;"" />
                  </div>","null","",""
"","","","","","html-keyboard-response","7","27822","0.0-7.0-1.0","8FD1D7CFE8C146558D361B11982CFF04","8FD1D7CFE8C146558D361B11982CFF04","0f15e304-fc2b-4e74-b749-9359503d3df0","54f8d589-66fc-4c65-830f-1dcc63bce8cc","{""participantId"":""8FD1D7CFE8C146558D361B11982CFF04"",""assignmentId"":""0f15e304-fc2b-4e74-b749-9359503d3df0"",""projectId"":""54f8d589-66fc-4c65-830f-1dcc63bce8cc""}","https://test12345.live/?participantId=8FD1D7CFE8C146558D361B11982CFF04&assignmentId=0f15e304-fc2b-4e74-b749-9359503d3df0&projectId=54f8d589-66fc-4c65-830f-1dcc63bce8cc","","null","<div style=""display: flex; justify-content: center; align-items: center;"">
                    <img src=""images/semantic/semantic_series_8/semantic_series_8_b.jpg"" style=""width: 300px; height: 300px;"" />
                  </div>","null","",""
"","","","","","html-keyboard-response","8","30826","0.0-7.0-2.0","8FD1D7CFE8C146558D361B11982CFF04","8FD1D7CFE8C146558D361B11982CFF04","0f15e304-fc2b-4e74-b749-9359503d3df0","54f8d589-66fc-4c65-830f-1dcc63bce8cc","{""participantId"":""8FD1D7CFE8C146558D361B11982CFF04"",""assignmentId"":""0f15e304-fc2b-4e74-b749-9359503d3df0"",""projectId"":""54f8d589-66fc-4c65-830f-1dcc63bce8cc""}","https://test12345.live/?participantId=8FD1D7CFE8C146558D361B11982CFF04&assignmentId=0f15e304-fc2b-4e74-b749-9359503d3df0&projectId=54f8d589-66fc-4c65-830f-1dcc63bce8cc","","null","<div style=""display: flex; justify-content: center; align-items: center;"">
                    <img src=""images/semantic/semantic_series_8/semantic_series_8_c.jpg"" style=""width: 300px; height: 300px;"" />
                  </div>","null","",""
"","","","","","html-keyboard-response","9","33829","0.0-7.0-3.0","8FD1D7CFE8C146558D361B11982CFF04","8FD1D7CFE8C146558D361B11982CFF04","0f15e304-fc2b-4e74-b749-9359503d3df0","54f8d589-66fc-4c65-830f-1dcc63bce8cc","{""participantId"":""8FD1D7CFE8C146558D361B11982CFF04"",""assignmentId"":""0f15e304-fc2b-4e74-b749-9359503d3df0"",""projectId"":""54f8d589-66fc-4c65-830f-1dcc63bce8cc""}","https://test12345.live/?participantId=8FD1D7CFE8C146558D361B11982CFF04&assignmentId=0f15e304-fc2b-4e74-b749-9359503d3df0&projectId=54f8d589-66fc-4c65-830f-1dcc63bce8cc","","null","<div style=""display: flex; justify-content: center; align-items: center;"">
                    <img src=""images/semantic/semantic_series_8/semantic_series_8_d.jpg"" style=""width: 300px; height: 300px;"" />
                  </div>","null","",""
"","","","","","html-button-response","10","35419","0.0-8.0","8FD1D7CFE8C146558D361B11982CFF04","8FD1D7CFE8C146558D361B11982CFF04","0f15e304-fc2b-4e74-b749-9359503d3df0","54f8d589-66fc-4c65-830f-1dcc63bce8cc","{""participantId"":""8FD1D7CFE8C146558D361B11982CFF04"",""assignmentId"":""0f15e304-fc2b-4e74-b749-9359503d3df0"",""projectId"":""54f8d589-66fc-4c65-830f-1dcc63bce8cc""}","https://test12345.live/?participantId=8FD1D7CFE8C146558D361B11982CFF04&assignmentId=0f15e304-fc2b-4e74-b749-9359503d3df0&projectId=54f8d589-66fc-4c65-830f-1dcc63bce8cc","","1589","Was there a person in the picture?","1","",""
"","","","","","survey-likert","11","39964","0.0-9.0","8FD1D7CFE8C146558D361B11982CFF04","8FD1D7CFE8C146558D361B11982CFF04","0f15e304-fc2b-4e74-b749-9359503d3df0","54f8d589-66fc-4c65-830f-1dcc63bce8cc","{""participantId"":""8FD1D7CFE8C146558D361B11982CFF04"",""assignmentId"":""0f15e304-fc2b-4e74-b749-9359503d3df0"",""projectId"":""54f8d589-66fc-4c65-830f-1dcc63bce8cc""}","https://test12345.live/?participantId=8FD1D7CFE8C146558D361B11982CFF04&assignmentId=0f15e304-fc2b-4e74-b749-9359503d3df0&projectId=54f8d589-66fc-4c65-830f-1dcc63bce8cc","","4544","","{""Q0"":1}","","[0]"
"","","","","","html-button-response","12","41538","0.0-10.0","8FD1D7CFE8C146558D361B11982CFF04","8FD1D7CFE8C146558D361B11982CFF04","0f15e304-fc2b-4e74-b749-9359503d3df0","54f8d589-66fc-4c65-830f-1dcc63bce8cc","{""participantId"":""8FD1D7CFE8C146558D361B11982CFF04"",""assignmentId"":""0f15e304-fc2b-4e74-b749-9359503d3df0"",""projectId"":""54f8d589-66fc-4c65-830f-1dcc63bce8cc""}","https://test12345.live/?participantId=8FD1D7CFE8C146558D361B11982CFF04&assignmentId=0f15e304-fc2b-4e74-b749-9359503d3df0&projectId=54f8d589-66fc-4c65-830f-1dcc63bce8cc","","1573","
    <div style=""display: flex; justify-content: center; align-items: center;"">
      <img src=""images/red_deck_2.png"" style=""width: 300px; height: 300px; margin-right: 10px;"" />
      <img src=""images/blue_deck_1.png"" style=""width: 300px; height: 300px;"" />
    </div>","0","0",""
"","","","","","html-keyboard-response","13","44555","0.0-11.0-0.0","8FD1D7CFE8C146558D361B11982CFF04","8FD1D7CFE8C146558D361B11982CFF04","0f15e304-fc2b-4e74-b749-9359503d3df0","54f8d589-66fc-4c65-830f-1dcc63bce8cc","{""participantId"":""8FD1D7CFE8C146558D361B11982CFF04"",""assignmentId"":""0f15e304-fc2b-4e74-b749-9359503d3df0"",""projectId"":""54f8d589-66fc-4c65-830f-1dcc63bce8cc""}","https://test12345.live/?participantId=8FD1D7CFE8C146558D361B11982CFF04&assignmentId=0f15e304-fc2b-4e74-b749-9359503d3df0&projectId=54f8d589-66fc-4c65-830f-1dcc63bce8cc","","null","<div style=""display: flex; justify-content: center; align-items: center;"">
                    <img src=""images/causal/causal_series_1/causal_series_1_a.jpg"" style=""width: 300px; height: 300px;"" />
                  </div>","null","",""
"","","","","","html-keyboard-response","14","47567","0.0-11.0-1.0","8FD1D7CFE8C146558D361B11982CFF04","8FD1D7CFE8C146558D361B11982CFF04","0f15e304-fc2b-4e74-b749-9359503d3df0","54f8d589-66fc-4c65-830f-1dcc63bce8cc","{""participantId"":""8FD1D7CFE8C146558D361B11982CFF04"",""assignmentId"":""0f15e304-fc2b-4e74-b749-9359503d3df0"",""projectId"":""54f8d589-66fc-4c65-830f-1dcc63bce8cc""}","https://test12345.live/?participantId=8FD1D7CFE8C146558D361B11982CFF04&assignmentId=0f15e304-fc2b-4e74-b749-9359503d3df0&projectId=54f8d589-66fc-4c65-830f-1dcc63bce8cc","","null","<div style=""display: flex; justify-content: center; align-items: center;"">
                    <img src=""images/causal/causal_series_1/causal_series_1_b.jpg"" style=""width: 300px; height: 300px;"" />
                  </div>","null","",""
"","","","","","html-keyboard-response","15","50583","0.0-11.0-2.0","8FD1D7CFE8C146558D361B11982CFF04","8FD1D7CFE8C146558D361B11982CFF04","0f15e304-fc2b-4e74-b749-9359503d3df0","54f8d589-66fc-4c65-830f-1dcc63bce8cc","{""participantId"":""8FD1D7CFE8C146558D361B11982CFF04"",""assignmentId"":""0f15e304-fc2b-4e74-b749-9359503d3df0"",""projectId"":""54f8d589-66fc-4c65-830f-1dcc63bce8cc""}","https://test12345.live/?participantId=8FD1D7CFE8C146558D361B11982CFF04&assignmentId=0f15e304-fc2b-4e74-b749-9359503d3df0&projectId=54f8d589-66fc-4c65-830f-1dcc63bce8cc","","null","<div style=""display: flex; justify-content: center; align-items: center;"">
                    <img src=""images/causal/causal_series_1/causal_series_1_c.jpg"" style=""width: 300px; height: 300px;"" />
                  </div>","null","",""
"","","","","","html-keyboard-response","16","53598","0.0-11.0-3.0","8FD1D7CFE8C146558D361B11982CFF04","8FD1D7CFE8C146558D361B11982CFF04","0f15e304-fc2b-4e74-b749-9359503d3df0","54f8d589-66fc-4c65-830f-1dcc63bce8cc","{""participantId"":""8FD1D7CFE8C146558D361B11982CFF04"",""assignmentId"":""0f15e304-fc2b-4e74-b749-9359503d3df0"",""projectId"":""54f8d589-66fc-4c65-830f-1dcc63bce8cc""}","https://test12345.live/?participantId=8FD1D7CFE8C146558D361B11982CFF04&assignmentId=0f15e304-fc2b-4e74-b749-9359503d3df0&projectId=54f8d589-66fc-4c65-830f-1dcc63bce8cc","","null","<div style=""display: flex; justify-content: center; align-items: center;"">
                    <img src=""images/causal/causal_series_1/causal_series_1_d.jpg"" style=""width: 300px; height: 300px;"" />
                  </div>","null","",""
"","","","","","html-button-response","17","55486","0.0-13.0","8FD1D7CFE8C146558D361B11982CFF04","8FD1D7CFE8C146558D361B11982CFF04","0f15e304-fc2b-4e74-b749-9359503d3df0","54f8d589-66fc-4c65-830f-1dcc63bce8cc","{""participantId"":""8FD1D7CFE8C146558D361B11982CFF04"",""assignmentId"":""0f15e304-fc2b-4e74-b749-9359503d3df0"",""projectId"":""54f8d589-66fc-4c65-830f-1dcc63bce8cc""}","https://test12345.live/?participantId=8FD1D7CFE8C146558D361B11982CFF04&assignmentId=0f15e304-fc2b-4e74-b749-9359503d3df0&projectId=54f8d589-66fc-4c65-830f-1dcc63bce8cc","","1887","Was there a person in the picture?","0","",""
"","","","","","survey-likert","18","57726","0.0-14.0","8FD1D7CFE8C146558D361B11982CFF04","8FD1D7CFE8C146558D361B11982CFF04","0f15e304-fc2b-4e74-b749-9359503d3df0","54f8d589-66fc-4c65-830f-1dcc63bce8cc","{""participantId"":""8FD1D7CFE8C146558D361B11982CFF04"",""assignmentId"":""0f15e304-fc2b-4e74-b749-9359503d3df0"",""projectId"":""54f8d589-66fc-4c65-830f-1dcc63bce8cc""}","https://test12345.live/?participantId=8FD1D7CFE8C146558D361B11982CFF04&assignmentId=0f15e304-fc2b-4e74-b749-9359503d3df0&projectId=54f8d589-66fc-4c65-830f-1dcc63bce8cc","","2240","","{""Q0"":0}","","[0]"
"","","","","","html-button-response","19","59365","0.0-15.0","8FD1D7CFE8C146558D361B11982CFF04","8FD1D7CFE8C146558D361B11982CFF04","0f15e304-fc2b-4e74-b749-9359503d3df0","54f8d589-66fc-4c65-830f-1dcc63bce8cc","{""participantId"":""8FD1D7CFE8C146558D361B11982CFF04"",""assignmentId"":""0f15e304-fc2b-4e74-b749-9359503d3df0"",""projectId"":""54f8d589-66fc-4c65-830f-1dcc63bce8cc""}","https://test12345.live/?participantId=8FD1D7CFE8C146558D361B11982CFF04&assignmentId=0f15e304-fc2b-4e74-b749-9359503d3df0&projectId=54f8d589-66fc-4c65-830f-1dcc63bce8cc","","1638","
    <div style=""display: flex; justify-content: center; align-items: center;"">
      <img src=""images/red_deck_2.png"" style=""width: 300px; height: 300px; margin-right: 10px;"" />
      <img src=""images/blue_deck_1.png"" style=""width: 300px; height: 300px;"" />
    </div>","1","1",""
"","","","","","html-keyboard-response","20","62379","0.0-17.0-0.0","8FD1D7CFE8C146558D361B11982CFF04","8FD1D7CFE8C146558D361B11982CFF04","0f15e304-fc2b-4e74-b749-9359503d3df0","54f8d589-66fc-4c65-830f-1dcc63bce8cc","{""participantId"":""8FD1D7CFE8C146558D361B11982CFF04"",""assignmentId"":""0f15e304-fc2b-4e74-b749-9359503d3df0"",""projectId"":""54f8d589-66fc-4c65-830f-1dcc63bce8cc""}","https://test12345.live/?participantId=8FD1D7CFE8C146558D361B11982CFF04&assignmentId=0f15e304-fc2b-4e74-b749-9359503d3df0&projectId=54f8d589-66fc-4c65-830f-1dcc63bce8cc","","null","<div style=""display: flex; justify-content: center; align-items: center;"">
                    <img src=""images/semantic/semantic_series_7/semantic_series_7_a.jpg"" style=""width: 300px; height: 300px;"" />
                  </div>","null","",""
"","","","","","html-keyboard-response","21","65385","0.0-17.0-1.0","8FD1D7CFE8C146558D361B11982CFF04","8FD1D7CFE8C146558D361B11982CFF04","0f15e304-fc2b-4e74-b749-9359503d3df0","54f8d589-66fc-4c65-830f-1dcc63bce8cc","{""participantId"":""8FD1D7CFE8C146558D361B11982CFF04"",""assignmentId"":""0f15e304-fc2b-4e74-b749-9359503d3df0"",""projectId"":""54f8d589-66fc-4c65-830f-1dcc63bce8cc""}","https://test12345.live/?participantId=8FD1D7CFE8C146558D361B11982CFF04&assignmentId=0f15e304-fc2b-4e74-b749-9359503d3df0&projectId=54f8d589-66fc-4c65-830f-1dcc63bce8cc","","null","<div style=""display: flex; justify-content: center; align-items: center;"">
                    <img src=""images/semantic/semantic_series_7/semantic_series_7_b.jpg"" style=""width: 300px; height: 300px;"" />
                  </div>","null","",""
"","","","","","html-keyboard-response","22","68395","0.0-17.0-2.0","8FD1D7CFE8C146558D361B11982CFF04","8FD1D7CFE8C146558D361B11982CFF04","0f15e304-fc2b-4e74-b749-9359503d3df0","54f8d589-66fc-4c65-830f-1dcc63bce8cc","{""participantId"":""8FD1D7CFE8C146558D361B11982CFF04"",""assignmentId"":""0f15e304-fc2b-4e74-b749-9359503d3df0"",""projectId"":""54f8d589-66fc-4c65-830f-1dcc63bce8cc""}","https://test12345.live/?participantId=8FD1D7CFE8C146558D361B11982CFF04&assignmentId=0f15e304-fc2b-4e74-b749-9359503d3df0&projectId=54f8d589-66fc-4c65-830f-1dcc63bce8cc","","null","<div style=""display: flex; justify-content: center; align-items: center;"">
                    <img src=""images/semantic/semantic_series_7/semantic_series_7_c.jpg"" style=""width: 300px; height: 300px;"" />
                  </div>","null","",""
"","","","","","html-keyboard-response","23","71405","0.0-17.0-3.0","8FD1D7CFE8C146558D361B11982CFF04","8FD1D7CFE8C146558D361B11982CFF04","0f15e304-fc2b-4e74-b749-9359503d3df0","54f8d589-66fc-4c65-830f-1dcc63bce8cc","{""participantId"":""8FD1D7CFE8C146558D361B11982CFF04"",""assignmentId"":""0f15e304-fc2b-4e74-b749-9359503d3df0"",""projectId"":""54f8d589-66fc-4c65-830f-1dcc63bce8cc""}","https://test12345.live/?participantId=8FD1D7CFE8C146558D361B11982CFF04&assignmentId=0f15e304-fc2b-4e74-b749-9359503d3df0&projectId=54f8d589-66fc-4c65-830f-1dcc63bce8cc","","null","<div style=""display: flex; justify-content: center; align-items: center;"">
                    <img src=""images/semantic/semantic_series_7/semantic_series_7_d.jpg"" style=""width: 300px; height: 300px;"" />
                  </div>","null","",""
"","","","","","html-button-response","24","73317","0.0-18.0","8FD1D7CFE8C146558D361B11982CFF04","8FD1D7CFE8C146558D361B11982CFF04","0f15e304-fc2b-4e74-b749-9359503d3df0","54f8d589-66fc-4c65-830f-1dcc63bce8cc","{""participantId"":""8FD1D7CFE8C146558D361B11982CFF04"",""assignmentId"":""0f15e304-fc2b-4e74-b749-9359503d3df0"",""projectId"":""54f8d589-66fc-4c65-830f-1dcc63bce8cc""}","https://test12345.live/?participantId=8FD1D7CFE8C146558D361B11982CFF04&assignmentId=0f15e304-fc2b-4e74-b749-9359503d3df0&projectId=54f8d589-66fc-4c65-830f-1dcc63bce8cc","","1912","Was there a person in the picture?","1","",""
"","","","","","survey-likert","25","77005","0.0-19.0","8FD1D7CFE8C146558D361B11982CFF04","8FD1D7CFE8C146558D361B11982CFF04","0f15e304-fc2b-4e74-b749-9359503d3df0","54f8d589-66fc-4c65-830f-1dcc63bce8cc","{""participantId"":""8FD1D7CFE8C146558D361B11982CFF04"",""assignmentId"":""0f15e304-fc2b-4e74-b749-9359503d3df0"",""projectId"":""54f8d589-66fc-4c65-830f-1dcc63bce8cc""}","https://test12345.live/?participantId=8FD1D7CFE8C146558D361B11982CFF04&assignmentId=0f15e304-fc2b-4e74-b749-9359503d3df0&projectId=54f8d589-66fc-4c65-830f-1dcc63bce8cc","","3687","","{""Q0"":1}","","[0]"
"","","","","","html-button-response","26","78311","0.0-20.0","8FD1D7CFE8C146558D361B11982CFF04","8FD1D7CFE8C146558D361B11982CFF04","0f15e304-fc2b-4e74-b749-9359503d3df0","54f8d589-66fc-4c65-830f-1dcc63bce8cc","{""participantId"":""8FD1D7CFE8C146558D361B11982CFF04"",""assignmentId"":""0f15e304-fc2b-4e74-b749-9359503d3df0"",""projectId"":""54f8d589-66fc-4c65-830f-1dcc63bce8cc""}","https://test12345.live/?participantId=8FD1D7CFE8C146558D361B11982CFF04&assignmentId=0f15e304-fc2b-4e74-b749-9359503d3df0&projectId=54f8d589-66fc-4c65-830f-1dcc63bce8cc","","1305","
    <div style=""display: flex; justify-content: center; align-items: center;"">
      <img src=""images/red_deck_2.png"" style=""width: 300px; height: 300px; margin-right: 10px;"" />
      <img src=""images/blue_deck_1.png"" style=""width: 300px; height: 300px;"" />
    </div>","1","1",""
"","","","","","html-keyboard-response","27","81314","0.0-22.0-0.0","8FD1D7CFE8C146558D361B11982CFF04","8FD1D7CFE8C146558D361B11982CFF04","0f15e304-fc2b-4e74-b749-9359503d3df0","54f8d589-66fc-4c65-830f-1dcc63bce8cc","{""participantId"":""8FD1D7CFE8C146558D361B11982CFF04"",""assignmentId"":""0f15e304-fc2b-4e74-b749-9359503d3df0"",""projectId"":""54f8d589-66fc-4c65-830f-1dcc63bce8cc""}","https://test12345.live/?participantId=8FD1D7CFE8C146558D361B11982CFF04&assignmentId=0f15e304-fc2b-4e74-b749-9359503d3df0&projectId=54f8d589-66fc-4c65-830f-1dcc63bce8cc","","null","<div style=""display: flex; justify-content: center; align-items: center;"">
                    <img src=""images/semantic/semantic_series_17/semantic_series_17_a.jpg"" style=""width: 300px; height: 300px;"" />
                  </div>","null","",""
"","","","","","html-keyboard-response","28","84316","0.0-22.0-1.0","8FD1D7CFE8C146558D361B11982CFF04","8FD1D7CFE8C146558D361B11982CFF04","0f15e304-fc2b-4e74-b749-9359503d3df0","54f8d589-66fc-4c65-830f-1dcc63bce8cc","{""participantId"":""8FD1D7CFE8C146558D361B11982CFF04"",""assignmentId"":""0f15e304-fc2b-4e74-b749-9359503d3df0"",""projectId"":""54f8d589-66fc-4c65-830f-1dcc63bce8cc""}","https://test12345.live/?participantId=8FD1D7CFE8C146558D361B11982CFF04&assignmentId=0f15e304-fc2b-4e74-b749-9359503d3df0&projectId=54f8d589-66fc-4c65-830f-1dcc63bce8cc","","null","<div style=""display: flex; justify-content: center; align-items: center;"">
                    <img src=""images/semantic/semantic_series_17/semantic_series_17_b.jpg"" style=""width: 300px; height: 300px;"" />
                  </div>","null","",""
"","","","","","html-keyboard-response","29","87328","0.0-22.0-2.0","8FD1D7CFE8C146558D361B11982CFF04","8FD1D7CFE8C146558D361B11982CFF04","0f15e304-fc2b-4e74-b749-9359503d3df0","54f8d589-66fc-4c65-830f-1dcc63bce8cc","{""participantId"":""8FD1D7CFE8C146558D361B11982CFF04"",""assignmentId"":""0f15e304-fc2b-4e74-b749-9359503d3df0"",""projectId"":""54f8d589-66fc-4c65-830f-1dcc63bce8cc""}","https://test12345.live/?participantId=8FD1D7CFE8C146558D361B11982CFF04&assignmentId=0f15e304-fc2b-4e74-b749-9359503d3df0&projectId=54f8d589-66fc-4c65-830f-1dcc63bce8cc","","null","<div style=""display: flex; justify-content: center; align-items: center;"">
                    <img src=""images/semantic/semantic_series_17/semantic_series_17_c.jpg"" style=""width: 300px; height: 300px;"" />
                  </div>","null","",""
"","","","","","html-keyboard-response","30","90329","0.0-22.0-3.0","8FD1D7CFE8C146558D361B11982CFF04","8FD1D7CFE8C146558D361B11982CFF04","0f15e304-fc2b-4e74-b749-9359503d3df0","54f8d589-66fc-4c65-830f-1dcc63bce8cc","{""participantId"":""8FD1D7CFE8C146558D361B11982CFF04"",""assignmentId"":""0f15e304-fc2b-4e74-b749-9359503d3df0"",""projectId"":""54f8d589-66fc-4c65-830f-1dcc63bce8cc""}","https://test12345.live/?participantId=8FD1D7CFE8C146558D361B11982CFF04&assignmentId=0f15e304-fc2b-4e74-b749-9359503d3df0&projectId=54f8d589-66fc-4c65-830f-1dcc63bce8cc","","null","<div style=""display: flex; justify-content: center; align-items: center;"">
                    <img src=""images/semantic/semantic_series_17/semantic_series_17_d.jpg"" style=""width: 300px; height: 300px;"" />
                  </div>","null","",""
"","","","","","html-button-response","31","92328","0.0-23.0","8FD1D7CFE8C146558D361B11982CFF04","8FD1D7CFE8C146558D361B11982CFF04","0f15e304-fc2b-4e74-b749-9359503d3df0","54f8d589-66fc-4c65-830f-1dcc63bce8cc","{""participantId"":""8FD1D7CFE8C146558D361B11982CFF04"",""assignmentId"":""0f15e304-fc2b-4e74-b749-9359503d3df0"",""projectId"":""54f8d589-66fc-4c65-830f-1dcc63bce8cc""}","https://test12345.live/?participantId=8FD1D7CFE8C146558D361B11982CFF04&assignmentId=0f15e304-fc2b-4e74-b749-9359503d3df0&projectId=54f8d589-66fc-4c65-830f-1dcc63bce8cc","","1999","Was there a person in the picture?","0","",""
"","","","","","survey-likert","32","94724","0.0-24.0","8FD1D7CFE8C146558D361B11982CFF04","8FD1D7CFE8C146558D361B11982CFF04","0f15e304-fc2b-4e74-b749-9359503d3df0","54f8d589-66fc-4c65-830f-1dcc63bce8cc","{""participantId"":""8FD1D7CFE8C146558D361B11982CFF04"",""assignmentId"":""0f15e304-fc2b-4e74-b749-9359503d3df0"",""projectId"":""54f8d589-66fc-4c65-830f-1dcc63bce8cc""}","https://test12345.live/?participantId=8FD1D7CFE8C146558D361B11982CFF04&assignmentId=0f15e304-fc2b-4e74-b749-9359503d3df0&projectId=54f8d589-66fc-4c65-830f-1dcc63bce8cc","","2395","","{""Q0"":0}","","[0]"
"","","","","","html-button-response","33","95952","0.0-25.0","8FD1D7CFE8C146558D361B11982CFF04","8FD1D7CFE8C146558D361B11982CFF04","0f15e304-fc2b-4e74-b749-9359503d3df0","54f8d589-66fc-4c65-830f-1dcc63bce8cc","{""participantId"":""8FD1D7CFE8C146558D361B11982CFF04"",""assignmentId"":""0f15e304-fc2b-4e74-b749-9359503d3df0"",""projectId"":""54f8d589-66fc-4c65-830f-1dcc63bce8cc""}","https://test12345.live/?participantId=8FD1D7CFE8C146558D361B11982CFF04&assignmentId=0f15e304-fc2b-4e74-b749-9359503d3df0&projectId=54f8d589-66fc-4c65-830f-1dcc63bce8cc","","1227","
    <div style=""display: flex; justify-content: center; align-items: center;"">
      <img src=""images/red_deck_2.png"" style=""width: 300px; height: 300px; margin-right: 10px;"" />
      <img src=""images/blue_deck_1.png"" style=""width: 300px; height: 300px;"" />
    </div>","0","0",""
"","","","","","html-keyboard-response","34","98959","0.0-26.0-0.0","8FD1D7CFE8C146558D361B11982CFF04","8FD1D7CFE8C146558D361B11982CFF04","0f15e304-fc2b-4e74-b749-9359503d3df0","54f8d589-66fc-4c65-830f-1dcc63bce8cc","{""participantId"":""8FD1D7CFE8C146558D361B11982CFF04"",""assignmentId"":""0f15e304-fc2b-4e74-b749-9359503d3df0"",""projectId"":""54f8d589-66fc-4c65-830f-1dcc63bce8cc""}","https://test12345.live/?participantId=8FD1D7CFE8C146558D361B11982CFF04&assignmentId=0f15e304-fc2b-4e74-b749-9359503d3df0&projectId=54f8d589-66fc-4c65-830f-1dcc63bce8cc","","null","<div style=""display: flex; justify-content: center; align-items: center;"">
                    <img src=""images/causal/causal_series_10/causal_series_10_a.jpg"" style=""width: 300px; height: 300px;"" />
                  </div>","null","",""
"","","","","","html-keyboard-response","35","101970","0.0-26.0-1.0","8FD1D7CFE8C146558D361B11982CFF04","8FD1D7CFE8C146558D361B11982CFF04","0f15e304-fc2b-4e74-b749-9359503d3df0","54f8d589-66fc-4c65-830f-1dcc63bce8cc","{""participantId"":""8FD1D7CFE8C146558D361B11982CFF04"",""assignmentId"":""0f15e304-fc2b-4e74-b749-9359503d3df0"",""projectId"":""54f8d589-66fc-4c65-830f-1dcc63bce8cc""}","https://test12345.live/?participantId=8FD1D7CFE8C146558D361B11982CFF04&assignmentId=0f15e304-fc2b-4e74-b749-9359503d3df0&projectId=54f8d589-66fc-4c65-830f-1dcc63bce8cc","","null","<div style=""display: flex; justify-content: center; align-items: center;"">
                    <img src=""images/causal/causal_series_10/causal_series_10_b.jpg"" style=""width: 300px; height: 300px;"" />
                  </div>","null","",""
"","","","","","html-keyboard-response","36","104977","0.0-26.0-2.0","8FD1D7CFE8C146558D361B11982CFF04","8FD1D7CFE8C146558D361B11982CFF04","0f15e304-fc2b-4e74-b749-9359503d3df0","54f8d589-66fc-4c65-830f-1dcc63bce8cc","{""participantId"":""8FD1D7CFE8C146558D361B11982CFF04"",""assignmentId"":""0f15e304-fc2b-4e74-b749-9359503d3df0"",""projectId"":""54f8d589-66fc-4c65-830f-1dcc63bce8cc""}","https://test12345.live/?participantId=8FD1D7CFE8C146558D361B11982CFF04&assignmentId=0f15e304-fc2b-4e74-b749-9359503d3df0&projectId=54f8d589-66fc-4c65-830f-1dcc63bce8cc","","null","<div style=""display: flex; justify-content: center; align-items: center;"">
                    <img src=""images/causal/causal_series_10/causal_series_10_c.jpg"" style=""width: 300px; height: 300px;"" />
                  </div>","null","",""
"","","","","","html-keyboard-response","37","107978","0.0-26.0-3.0","8FD1D7CFE8C146558D361B11982CFF04","8FD1D7CFE8C146558D361B11982CFF04","0f15e304-fc2b-4e74-b749-9359503d3df0","54f8d589-66fc-4c65-830f-1dcc63bce8cc","{""participantId"":""8FD1D7CFE8C146558D361B11982CFF04"",""assignmentId"":""0f15e304-fc2b-4e74-b749-9359503d3df0"",""projectId"":""54f8d589-66fc-4c65-830f-1dcc63bce8cc""}","https://test12345.live/?participantId=8FD1D7CFE8C146558D361B11982CFF04&assignmentId=0f15e304-fc2b-4e74-b749-9359503d3df0&projectId=54f8d589-66fc-4c65-830f-1dcc63bce8cc","","null","<div style=""display: flex; justify-content: center; align-items: center;"">
                    <img src=""images/causal/causal_series_10/causal_series_10_d.jpg"" style=""width: 300px; height: 300px;"" />
                  </div>","null","",""
"","","","","","html-button-response","38","109153","0.0-28.0","8FD1D7CFE8C146558D361B11982CFF04","8FD1D7CFE8C146558D361B11982CFF04","0f15e304-fc2b-4e74-b749-9359503d3df0","54f8d589-66fc-4c65-830f-1dcc63bce8cc","{""participantId"":""8FD1D7CFE8C146558D361B11982CFF04"",""assignmentId"":""0f15e304-fc2b-4e74-b749-9359503d3df0"",""projectId"":""54f8d589-66fc-4c65-830f-1dcc63bce8cc""}","https://test12345.live/?participantId=8FD1D7CFE8C146558D361B11982CFF04&assignmentId=0f15e304-fc2b-4e74-b749-9359503d3df0&projectId=54f8d589-66fc-4c65-830f-1dcc63bce8cc","","1175","Was there a person in the picture?","1","",""
"","","","","","survey-likert","39","111202","0.0-29.0","8FD1D7CFE8C146558D361B11982CFF04","8FD1D7CFE8C146558D361B11982CFF04","0f15e304-fc2b-4e74-b749-9359503d3df0","54f8d589-66fc-4c65-830f-1dcc63bce8cc","{""participantId"":""8FD1D7CFE8C146558D361B11982CFF04"",""assignmentId"":""0f15e304-fc2b-4e74-b749-9359503d3df0"",""projectId"":""54f8d589-66fc-4c65-830f-1dcc63bce8cc""}","https://test12345.live/?participantId=8FD1D7CFE8C146558D361B11982CFF04&assignmentId=0f15e304-fc2b-4e74-b749-9359503d3df0&projectId=54f8d589-66fc-4c65-830f-1dcc63bce8cc","","2048","","{""Q0"":1}","","[0]"
"","","","","","html-button-response","40","112469","0.0-30.0","8FD1D7CFE8C146558D361B11982CFF04","8FD1D7CFE8C146558D361B11982CFF04","0f15e304-fc2b-4e74-b749-9359503d3df0","54f8d589-66fc-4c65-830f-1dcc63bce8cc","{""participantId"":""8FD1D7CFE8C146558D361B11982CFF04"",""assignmentId"":""0f15e304-fc2b-4e74-b749-9359503d3df0"",""projectId"":""54f8d589-66fc-4c65-830f-1dcc63bce8cc""}","https://test12345.live/?participantId=8FD1D7CFE8C146558D361B11982CFF04&assignmentId=0f15e304-fc2b-4e74-b749-9359503d3df0&projectId=54f8d589-66fc-4c65-830f-1dcc63bce8cc","","1266","
    <div style=""display: flex; justify-content: center; align-items: center;"">
      <img src=""images/red_deck_2.png"" style=""width: 300px; height: 300px; margin-right: 10px;"" />
      <img src=""images/blue_deck_1.png"" style=""width: 300px; height: 300px;"" />
    </div>","0","0",""
"","","","","","html-keyboard-response","41","115473","0.0-31.0-0.0","8FD1D7CFE8C146558D361B11982CFF04","8FD1D7CFE8C146558D361B11982CFF04","0f15e304-fc2b-4e74-b749-9359503d3df0","54f8d589-66fc-4c65-830f-1dcc63bce8cc","{""participantId"":""8FD1D7CFE8C146558D361B11982CFF04"",""assignmentId"":""0f15e304-fc2b-4e74-b749-9359503d3df0"",""projectId"":""54f8d589-66fc-4c65-830f-1dcc63bce8cc""}","https://test12345.live/?participantId=8FD1D7CFE8C146558D361B11982CFF04&assignmentId=0f15e304-fc2b-4e74-b749-9359503d3df0&projectId=54f8d589-66fc-4c65-830f-1dcc63bce8cc","","null","<div style=""display: flex; justify-content: center; align-items: center;"">
                    <img src=""images/causal/causal_series_18/causal_series_18_a.jpg"" style=""width: 300px; height: 300px;"" />
                  </div>","null","",""
"","","","","","html-keyboard-response","42","118481","0.0-31.0-1.0","8FD1D7CFE8C146558D361B11982CFF04","8FD1D7CFE8C146558D361B11982CFF04","0f15e304-fc2b-4e74-b749-9359503d3df0","54f8d589-66fc-4c65-830f-1dcc63bce8cc","{""participantId"":""8FD1D7CFE8C146558D361B11982CFF04"",""assignmentId"":""0f15e304-fc2b-4e74-b749-9359503d3df0"",""projectId"":""54f8d589-66fc-4c65-830f-1dcc63bce8cc""}","https://test12345.live/?participantId=8FD1D7CFE8C146558D361B11982CFF04&assignmentId=0f15e304-fc2b-4e74-b749-9359503d3df0&projectId=54f8d589-66fc-4c65-830f-1dcc63bce8cc","","null","<div style=""display: flex; justify-content: center; align-items: center;"">
                    <img src=""images/causal/causal_series_18/causal_series_18_b.jpg"" style=""width: 300px; height: 300px;"" />
                  </div>","null","",""
"","","","","","html-keyboard-response","43","121490","0.0-31.0-2.0","8FD1D7CFE8C146558D361B11982CFF04","8FD1D7CFE8C146558D361B11982CFF04","0f15e304-fc2b-4e74-b749-9359503d3df0","54f8d589-66fc-4c65-830f-1dcc63bce8cc","{""participantId"":""8FD1D7CFE8C146558D361B11982CFF04"",""assignmentId"":""0f15e304-fc2b-4e74-b749-9359503d3df0"",""projectId"":""54f8d589-66fc-4c65-830f-1dcc63bce8cc""}","https://test12345.live/?participantId=8FD1D7CFE8C146558D361B11982CFF04&assignmentId=0f15e304-fc2b-4e74-b749-9359503d3df0&projectId=54f8d589-66fc-4c65-830f-1dcc63bce8cc","","null","<div style=""display: flex; justify-content: center; align-items: center;"">
                    <img src=""images/causal/causal_series_18/causal_series_18_c.jpg"" style=""width: 300px; height: 300px;"" />
                  </div>","null","",""
"","","","","","html-keyboard-response","44","124493","0.0-31.0-3.0","8FD1D7CFE8C146558D361B11982CFF04","8FD1D7CFE8C146558D361B11982CFF04","0f15e304-fc2b-4e74-b749-9359503d3df0","54f8d589-66fc-4c65-830f-1dcc63bce8cc","{""participantId"":""8FD1D7CFE8C146558D361B11982CFF04"",""assignmentId"":""0f15e304-fc2b-4e74-b749-9359503d3df0"",""projectId"":""54f8d589-66fc-4c65-830f-1dcc63bce8cc""}","https://test12345.live/?participantId=8FD1D7CFE8C146558D361B11982CFF04&assignmentId=0f15e304-fc2b-4e74-b749-9359503d3df0&projectId=54f8d589-66fc-4c65-830f-1dcc63bce8cc","","null","<div style=""display: flex; justify-content: center; align-items: center;"">
                    <img src=""images/causal/causal_series_18/causal_series_18_d.jpg"" style=""width: 300px; height: 300px;"" />
                  </div>","null","",""
"","","","","","html-button-response","45","125807","0.0-33.0","8FD1D7CFE8C146558D361B11982CFF04","8FD1D7CFE8C146558D361B11982CFF04","0f15e304-fc2b-4e74-b749-9359503d3df0","54f8d589-66fc-4c65-830f-1dcc63bce8cc","{""participantId"":""8FD1D7CFE8C146558D361B11982CFF04"",""assignmentId"":""0f15e304-fc2b-4e74-b749-9359503d3df0"",""projectId"":""54f8d589-66fc-4c65-830f-1dcc63bce8cc""}","https://test12345.live/?participantId=8FD1D7CFE8C146558D361B11982CFF04&assignmentId=0f15e304-fc2b-4e74-b749-9359503d3df0&projectId=54f8d589-66fc-4c65-830f-1dcc63bce8cc","","1313","Was there a person in the picture?","1","",""
"","","","","","survey-likert","46","129852","0.0-34.0","8FD1D7CFE8C146558D361B11982CFF04","8FD1D7CFE8C146558D361B11982CFF04","0f15e304-fc2b-4e74-b749-9359503d3df0","54f8d589-66fc-4c65-830f-1dcc63bce8cc","{""participantId"":""8FD1D7CFE8C146558D361B11982CFF04"",""assignmentId"":""0f15e304-fc2b-4e74-b749-9359503d3df0"",""projectId"":""54f8d589-66fc-4c65-830f-1dcc63bce8cc""}","https://test12345.live/?participantId=8FD1D7CFE8C146558D361B11982CFF04&assignmentId=0f15e304-fc2b-4e74-b749-9359503d3df0&projectId=54f8d589-66fc-4c65-830f-1dcc63bce8cc","","4044","","{""Q0"":1}","","[0]"
"","","","","","html-button-response","47","131349","0.0-35.0","8FD1D7CFE8C146558D361B11982CFF04","8FD1D7CFE8C146558D361B11982CFF04","0f15e304-fc2b-4e74-b749-9359503d3df0","54f8d589-66fc-4c65-830f-1dcc63bce8cc","{""participantId"":""8FD1D7CFE8C146558D361B11982CFF04"",""assignmentId"":""0f15e304-fc2b-4e74-b749-9359503d3df0"",""projectId"":""54f8d589-66fc-4c65-830f-1dcc63bce8cc""}","https://test12345.live/?participantId=8FD1D7CFE8C146558D361B11982CFF04&assignmentId=0f15e304-fc2b-4e74-b749-9359503d3df0&projectId=54f8d589-66fc-4c65-830f-1dcc63bce8cc","","1497","
    <div style=""display: flex; justify-content: center; align-items: center;"">
      <img src=""images/red_deck_2.png"" style=""width: 300px; height: 300px; margin-right: 10px;"" />
      <img src=""images/blue_deck_1.png"" style=""width: 300px; height: 300px;"" />
    </div>","1","1",""
"","","","","","html-keyboard-response","48","134365","0.0-37.0-0.0","8FD1D7CFE8C146558D361B11982CFF04","8FD1D7CFE8C146558D361B11982CFF04","0f15e304-fc2b-4e74-b749-9359503d3df0","54f8d589-66fc-4c65-830f-1dcc63bce8cc","{""participantId"":""8FD1D7CFE8C146558D361B11982CFF04"",""assignmentId"":""0f15e304-fc2b-4e74-b749-9359503d3df0"",""projectId"":""54f8d589-66fc-4c65-830f-1dcc63bce8cc""}","https://test12345.live/?participantId=8FD1D7CFE8C146558D361B11982CFF04&assignmentId=0f15e304-fc2b-4e74-b749-9359503d3df0&projectId=54f8d589-66fc-4c65-830f-1dcc63bce8cc","","null","<div style=""display: flex; justify-content: center; align-items: center;"">
                    <img src=""images/semantic/semantic_series_15/semantic_series_15_a.jpg"" style=""width: 300px; height: 300px;"" />
                  </div>","null","",""
"","","","","","html-keyboard-response","49","137370","0.0-37.0-1.0","8FD1D7CFE8C146558D361B11982CFF04","8FD1D7CFE8C146558D361B11982CFF04","0f15e304-fc2b-4e74-b749-9359503d3df0","54f8d589-66fc-4c65-830f-1dcc63bce8cc","{""participantId"":""8FD1D7CFE8C146558D361B11982CFF04"",""assignmentId"":""0f15e304-fc2b-4e74-b749-9359503d3df0"",""projectId"":""54f8d589-66fc-4c65-830f-1dcc63bce8cc""}","https://test12345.live/?participantId=8FD1D7CFE8C146558D361B11982CFF04&assignmentId=0f15e304-fc2b-4e74-b749-9359503d3df0&projectId=54f8d589-66fc-4c65-830f-1dcc63bce8cc","","null","<div style=""display: flex; justify-content: center; align-items: center;"">
                    <img src=""images/semantic/semantic_series_15/semantic_series_15_b.jpg"" style=""width: 300px; height: 300px;"" />
                  </div>","null","",""
"","","","","","html-keyboard-response","50","140378","0.0-37.0-2.0","8FD1D7CFE8C146558D361B11982CFF04","8FD1D7CFE8C146558D361B11982CFF04","0f15e304-fc2b-4e74-b749-9359503d3df0","54f8d589-66fc-4c65-830f-1dcc63bce8cc","{""participantId"":""8FD1D7CFE8C146558D361B11982CFF04"",""assignmentId"":""0f15e304-fc2b-4e74-b749-9359503d3df0"",""projectId"":""54f8d589-66fc-4c65-830f-1dcc63bce8cc""}","https://test12345.live/?participantId=8FD1D7CFE8C146558D361B11982CFF04&assignmentId=0f15e304-fc2b-4e74-b749-9359503d3df0&projectId=54f8d589-66fc-4c65-830f-1dcc63bce8cc","","null","<div style=""display: flex; justify-content: center; align-items: center;"">
                    <img src=""images/semantic/semantic_series_15/semantic_series_15_c.jpg"" style=""width: 300px; height: 300px;"" />
                  </div>","null","",""
"","","","","","html-keyboard-response","51","143387","0.0-37.0-3.0","8FD1D7CFE8C146558D361B11982CFF04","8FD1D7CFE8C146558D361B11982CFF04","0f15e304-fc2b-4e74-b749-9359503d3df0","54f8d589-66fc-4c65-830f-1dcc63bce8cc","{""participantId"":""8FD1D7CFE8C146558D361B11982CFF04"",""assignmentId"":""0f15e304-fc2b-4e74-b749-9359503d3df0"",""projectId"":""54f8d589-66fc-4c65-830f-1dcc63bce8cc""}","https://test12345.live/?participantId=8FD1D7CFE8C146558D361B11982CFF04&assignmentId=0f15e304-fc2b-4e74-b749-9359503d3df0&projectId=54f8d589-66fc-4c65-830f-1dcc63bce8cc","","null","<div style=""display: flex; justify-content: center; align-items: center;"">
                    <img src=""images/semantic/semantic_series_15/semantic_series_15_d.jpg"" style=""width: 300px; height: 300px;"" />
                  </div>","null","",""
"","","","","","html-button-response","52","145796","0.0-38.0","8FD1D7CFE8C146558D361B11982CFF04","8FD1D7CFE8C146558D361B11982CFF04","0f15e304-fc2b-4e74-b749-9359503d3df0","54f8d589-66fc-4c65-830f-1dcc63bce8cc","{""participantId"":""8FD1D7CFE8C146558D361B11982CFF04"",""assignmentId"":""0f15e304-fc2b-4e74-b749-9359503d3df0"",""projectId"":""54f8d589-66fc-4c65-830f-1dcc63bce8cc""}","https://test12345.live/?participantId=8FD1D7CFE8C146558D361B11982CFF04&assignmentId=0f15e304-fc2b-4e74-b749-9359503d3df0&projectId=54f8d589-66fc-4c65-830f-1dcc63bce8cc","","2408","Was there a person in the picture?","1","",""
"","","","","","survey-likert","53","147667","0.0-39.0","8FD1D7CFE8C146558D361B11982CFF04","8FD1D7CFE8C146558D361B11982CFF04","0f15e304-fc2b-4e74-b749-9359503d3df0","54f8d589-66fc-4c65-830f-1dcc63bce8cc","{""participantId"":""8FD1D7CFE8C146558D361B11982CFF04"",""assignmentId"":""0f15e304-fc2b-4e74-b749-9359503d3df0"",""projectId"":""54f8d589-66fc-4c65-830f-1dcc63bce8cc""}","https://test12345.live/?participantId=8FD1D7CFE8C146558D361B11982CFF04&assignmentId=0f15e304-fc2b-4e74-b749-9359503d3df0&projectId=54f8d589-66fc-4c65-830f-1dcc63bce8cc","","1870","","{""Q0"":1}","","[0]"
"","","","","","html-button-response","54","148984","0.0-40.0","8FD1D7CFE8C146558D361B11982CFF04","8FD1D7CFE8C146558D361B11982CFF04","0f15e304-fc2b-4e74-b749-9359503d3df0","54f8d589-66fc-4c65-830f-1dcc63bce8cc","{""participantId"":""8FD1D7CFE8C146558D361B11982CFF04"",""assignmentId"":""0f15e304-fc2b-4e74-b749-9359503d3df0"",""projectId"":""54f8d589-66fc-4c65-830f-1dcc63bce8cc""}","https://test12345.live/?participantId=8FD1D7CFE8C146558D361B11982CFF04&assignmentId=0f15e304-fc2b-4e74-b749-9359503d3df0&projectId=54f8d589-66fc-4c65-830f-1dcc63bce8cc","","1316","
    <div style=""display: flex; justify-content: center; align-items: center;"">
      <img src=""images/red_deck_2.png"" style=""width: 300px; height: 300px; margin-right: 10px;"" />
      <img src=""images/blue_deck_1.png"" style=""width: 300px; height: 300px;"" />
    </div>","1","1",""
"","","","","","html-keyboard-response","55","151999","0.0-42.0-0.0","8FD1D7CFE8C146558D361B11982CFF04","8FD1D7CFE8C146558D361B11982CFF04","0f15e304-fc2b-4e74-b749-9359503d3df0","54f8d589-66fc-4c65-830f-1dcc63bce8cc","{""participantId"":""8FD1D7CFE8C146558D361B11982CFF04"",""assignmentId"":""0f15e304-fc2b-4e74-b749-9359503d3df0"",""projectId"":""54f8d589-66fc-4c65-830f-1dcc63bce8cc""}","https://test12345.live/?participantId=8FD1D7CFE8C146558D361B11982CFF04&assignmentId=0f15e304-fc2b-4e74-b749-9359503d3df0&projectId=54f8d589-66fc-4c65-830f-1dcc63bce8cc","","null","<div style=""display: flex; justify-content: center; align-items: center;"">
                    <img src=""images/semantic/semantic_series_1/semantic_series_1_a.jpg"" style=""width: 300px; height: 300px;"" />
                  </div>","null","",""
"","","","","","html-keyboard-response","56","155011","0.0-42.0-1.0","8FD1D7CFE8C146558D361B11982CFF04","8FD1D7CFE8C146558D361B11982CFF04","0f15e304-fc2b-4e74-b749-9359503d3df0","54f8d589-66fc-4c65-830f-1dcc63bce8cc","{""participantId"":""8FD1D7CFE8C146558D361B11982CFF04"",""assignmentId"":""0f15e304-fc2b-4e74-b749-9359503d3df0"",""projectId"":""54f8d589-66fc-4c65-830f-1dcc63bce8cc""}","https://test12345.live/?participantId=8FD1D7CFE8C146558D361B11982CFF04&assignmentId=0f15e304-fc2b-4e74-b749-9359503d3df0&projectId=54f8d589-66fc-4c65-830f-1dcc63bce8cc","","null","<div style=""display: flex; justify-content: center; align-items: center;"">
                    <img src=""images/semantic/semantic_series_1/semantic_series_1_b.jpg"" style=""width: 300px; height: 300px;"" />
                  </div>","null","",""
"","","","","","html-keyboard-response","57","158021","0.0-42.0-2.0","8FD1D7CFE8C146558D361B11982CFF04","8FD1D7CFE8C146558D361B11982CFF04","0f15e304-fc2b-4e74-b749-9359503d3df0","54f8d589-66fc-4c65-830f-1dcc63bce8cc","{""participantId"":""8FD1D7CFE8C146558D361B11982CFF04"",""assignmentId"":""0f15e304-fc2b-4e74-b749-9359503d3df0"",""projectId"":""54f8d589-66fc-4c65-830f-1dcc63bce8cc""}","https://test12345.live/?participantId=8FD1D7CFE8C146558D361B11982CFF04&assignmentId=0f15e304-fc2b-4e74-b749-9359503d3df0&projectId=54f8d589-66fc-4c65-830f-1dcc63bce8cc","","null","<div style=""display: flex; justify-content: center; align-items: center;"">
                    <img src=""images/semantic/semantic_series_1/semantic_series_1_c.jpg"" style=""width: 300px; height: 300px;"" />
                  </div>","null","",""
"","","","","","html-keyboard-response","58","161032","0.0-42.0-3.0","8FD1D7CFE8C146558D361B11982CFF04","8FD1D7CFE8C146558D361B11982CFF04","0f15e304-fc2b-4e74-b749-9359503d3df0","54f8d589-66fc-4c65-830f-1dcc63bce8cc","{""participantId"":""8FD1D7CFE8C146558D361B11982CFF04"",""assignmentId"":""0f15e304-fc2b-4e74-b749-9359503d3df0"",""projectId"":""54f8d589-66fc-4c65-830f-1dcc63bce8cc""}","https://test12345.live/?participantId=8FD1D7CFE8C146558D361B11982CFF04&assignmentId=0f15e304-fc2b-4e74-b749-9359503d3df0&projectId=54f8d589-66fc-4c65-830f-1dcc63bce8cc","","null","<div style=""display: flex; justify-content: center; align-items: center;"">
                    <img src=""images/semantic/semantic_series_1/semantic_series_1_d.jpg"" style=""width: 300px; height: 300px;"" />
                  </div>","null","",""
"","","","","","html-button-response","59","162197","0.0-43.0","8FD1D7CFE8C146558D361B11982CFF04","8FD1D7CFE8C146558D361B11982CFF04","0f15e304-fc2b-4e74-b749-9359503d3df0","54f8d589-66fc-4c65-830f-1dcc63bce8cc","{""participantId"":""8FD1D7CFE8C146558D361B11982CFF04"",""assignmentId"":""0f15e304-fc2b-4e74-b749-9359503d3df0"",""projectId"":""54f8d589-66fc-4c65-830f-1dcc63bce8cc""}","https://test12345.live/?participantId=8FD1D7CFE8C146558D361B11982CFF04&assignmentId=0f15e304-fc2b-4e74-b749-9359503d3df0&projectId=54f8d589-66fc-4c65-830f-1dcc63bce8cc","","1165","Was there a person in the picture?","0","",""
"","","","","","survey-likert","60","164169","0.0-44.0","8FD1D7CFE8C146558D361B11982CFF04","8FD1D7CFE8C146558D361B11982CFF04","0f15e304-fc2b-4e74-b749-9359503d3df0","54f8d589-66fc-4c65-830f-1dcc63bce8cc","{""participantId"":""8FD1D7CFE8C146558D361B11982CFF04"",""assignmentId"":""0f15e304-fc2b-4e74-b749-9359503d3df0"",""projectId"":""54f8d589-66fc-4c65-830f-1dcc63bce8cc""}","https://test12345.live/?participantId=8FD1D7CFE8C146558D361B11982CFF04&assignmentId=0f15e304-fc2b-4e74-b749-9359503d3df0&projectId=54f8d589-66fc-4c65-830f-1dcc63bce8cc","","1972","","{""Q0"":0}","","[0]"
"","","","","","html-button-response","61","165475","0.0-45.0","8FD1D7CFE8C146558D361B11982CFF04","8FD1D7CFE8C146558D361B11982CFF04","0f15e304-fc2b-4e74-b749-9359503d3df0","54f8d589-66fc-4c65-830f-1dcc63bce8cc","{""participantId"":""8FD1D7CFE8C146558D361B11982CFF04"",""assignmentId"":""0f15e304-fc2b-4e74-b749-9359503d3df0"",""projectId"":""54f8d589-66fc-4c65-830f-1dcc63bce8cc""}","https://test12345.live/?participantId=8FD1D7CFE8C146558D361B11982CFF04&assignmentId=0f15e304-fc2b-4e74-b749-9359503d3df0&projectId=54f8d589-66fc-4c65-830f-1dcc63bce8cc","","1304","
    <div style=""display: flex; justify-content: center; align-items: center;"">
      <img src=""images/red_deck_2.png"" style=""width: 300px; height: 300px; margin-right: 10px;"" />
      <img src=""images/blue_deck_1.png"" style=""width: 300px; height: 300px;"" />
    </div>","1","1",""
"","","","","","html-keyboard-response","62","168482","0.0-47.0-0.0","8FD1D7CFE8C146558D361B11982CFF04","8FD1D7CFE8C146558D361B11982CFF04","0f15e304-fc2b-4e74-b749-9359503d3df0","54f8d589-66fc-4c65-830f-1dcc63bce8cc","{""participantId"":""8FD1D7CFE8C146558D361B11982CFF04"",""assignmentId"":""0f15e304-fc2b-4e74-b749-9359503d3df0"",""projectId"":""54f8d589-66fc-4c65-830f-1dcc63bce8cc""}","https://test12345.live/?participantId=8FD1D7CFE8C146558D361B11982CFF04&assignmentId=0f15e304-fc2b-4e74-b749-9359503d3df0&projectId=54f8d589-66fc-4c65-830f-1dcc63bce8cc","","null","<div style=""display: flex; justify-content: center; align-items: center;"">
                    <img src=""images/semantic/semantic_series_16/semantic_series_16_a.jpg"" style=""width: 300px; height: 300px;"" />
                  </div>","null","",""
"","","","","","html-keyboard-response","63","171492","0.0-47.0-1.0","8FD1D7CFE8C146558D361B11982CFF04","8FD1D7CFE8C146558D361B11982CFF04","0f15e304-fc2b-4e74-b749-9359503d3df0","54f8d589-66fc-4c65-830f-1dcc63bce8cc","{""participantId"":""8FD1D7CFE8C146558D361B11982CFF04"",""assignmentId"":""0f15e304-fc2b-4e74-b749-9359503d3df0"",""projectId"":""54f8d589-66fc-4c65-830f-1dcc63bce8cc""}","https://test12345.live/?participantId=8FD1D7CFE8C146558D361B11982CFF04&assignmentId=0f15e304-fc2b-4e74-b749-9359503d3df0&projectId=54f8d589-66fc-4c65-830f-1dcc63bce8cc","","null","<div style=""display: flex; justify-content: center; align-items: center;"">
                    <img src=""images/semantic/semantic_series_16/semantic_series_16_b.jpg"" style=""width: 300px; height: 300px;"" />
                  </div>","null","",""
"","","","","","html-keyboard-response","64","174493","0.0-47.0-2.0","8FD1D7CFE8C146558D361B11982CFF04","8FD1D7CFE8C146558D361B11982CFF04","0f15e304-fc2b-4e74-b749-9359503d3df0","54f8d589-66fc-4c65-830f-1dcc63bce8cc","{""participantId"":""8FD1D7CFE8C146558D361B11982CFF04"",""assignmentId"":""0f15e304-fc2b-4e74-b749-9359503d3df0"",""projectId"":""54f8d589-66fc-4c65-830f-1dcc63bce8cc""}","https://test12345.live/?participantId=8FD1D7CFE8C146558D361B11982CFF04&assignmentId=0f15e304-fc2b-4e74-b749-9359503d3df0&projectId=54f8d589-66fc-4c65-830f-1dcc63bce8cc","","null","<div style=""display: flex; justify-content: center; align-items: center;"">
                    <img src=""images/semantic/semantic_series_16/semantic_series_16_c.jpg"" style=""width: 300px; height: 300px;"" />
                  </div>","null","",""
"","","","","","html-keyboard-response","65","177498","0.0-47.0-3.0","8FD1D7CFE8C146558D361B11982CFF04","8FD1D7CFE8C146558D361B11982CFF04","0f15e304-fc2b-4e74-b749-9359503d3df0","54f8d589-66fc-4c65-830f-1dcc63bce8cc","{""participantId"":""8FD1D7CFE8C146558D361B11982CFF04"",""assignmentId"":""0f15e304-fc2b-4e74-b749-9359503d3df0"",""projectId"":""54f8d589-66fc-4c65-830f-1dcc63bce8cc""}","https://test12345.live/?participantId=8FD1D7CFE8C146558D361B11982CFF04&assignmentId=0f15e304-fc2b-4e74-b749-9359503d3df0&projectId=54f8d589-66fc-4c65-830f-1dcc63bce8cc","","null","<div style=""display: flex; justify-content: center; align-items: center;"">
                    <img src=""images/semantic/semantic_series_16/semantic_series_16_d.jpg"" style=""width: 300px; height: 300px;"" />
                  </div>","null","",""
"","","","","","html-button-response","66","178727","0.0-48.0","8FD1D7CFE8C146558D361B11982CFF04","8FD1D7CFE8C146558D361B11982CFF04","0f15e304-fc2b-4e74-b749-9359503d3df0","54f8d589-66fc-4c65-830f-1dcc63bce8cc","{""participantId"":""8FD1D7CFE8C146558D361B11982CFF04"",""assignmentId"":""0f15e304-fc2b-4e74-b749-9359503d3df0"",""projectId"":""54f8d589-66fc-4c65-830f-1dcc63bce8cc""}","https://test12345.live/?participantId=8FD1D7CFE8C146558D361B11982CFF04&assignmentId=0f15e304-fc2b-4e74-b749-9359503d3df0&projectId=54f8d589-66fc-4c65-830f-1dcc63bce8cc","","1229","Was there a person in the picture?","0","",""
"","","","","","survey-likert","67","181350","0.0-49.0","8FD1D7CFE8C146558D361B11982CFF04","8FD1D7CFE8C146558D361B11982CFF04","0f15e304-fc2b-4e74-b749-9359503d3df0","54f8d589-66fc-4c65-830f-1dcc63bce8cc","{""participantId"":""8FD1D7CFE8C146558D361B11982CFF04"",""assignmentId"":""0f15e304-fc2b-4e74-b749-9359503d3df0"",""projectId"":""54f8d589-66fc-4c65-830f-1dcc63bce8cc""}","https://test12345.live/?participantId=8FD1D7CFE8C146558D361B11982CFF04&assignmentId=0f15e304-fc2b-4e74-b749-9359503d3df0&projectId=54f8d589-66fc-4c65-830f-1dcc63bce8cc","","2622","","{""Q0"":0}","","[0]"
"","","","","","html-button-response","68","182566","0.0-50.0","8FD1D7CFE8C146558D361B11982CFF04","8FD1D7CFE8C146558D361B11982CFF04","0f15e304-fc2b-4e74-b749-9359503d3df0","54f8d589-66fc-4c65-830f-1dcc63bce8cc","{""participantId"":""8FD1D7CFE8C146558D361B11982CFF04"",""assignmentId"":""0f15e304-fc2b-4e74-b749-9359503d3df0"",""projectId"":""54f8d589-66fc-4c65-830f-1dcc63bce8cc""}","https://test12345.live/?participantId=8FD1D7CFE8C146558D361B11982CFF04&assignmentId=0f15e304-fc2b-4e74-b749-9359503d3df0&projectId=54f8d589-66fc-4c65-830f-1dcc63bce8cc","","1215","
    <div style=""display: flex; justify-content: center; align-items: center;"">
      <img src=""images/red_deck_2.png"" style=""width: 300px; height: 300px; margin-right: 10px;"" />
      <img src=""images/blue_deck_1.png"" style=""width: 300px; height: 300px;"" />
    </div>","0","0",""
"","","","","","html-keyboard-response","69","185569","0.0-51.0-0.0","8FD1D7CFE8C146558D361B11982CFF04","8FD1D7CFE8C146558D361B11982CFF04","0f15e304-fc2b-4e74-b749-9359503d3df0","54f8d589-66fc-4c65-830f-1dcc63bce8cc","{""participantId"":""8FD1D7CFE8C146558D361B11982CFF04"",""assignmentId"":""0f15e304-fc2b-4e74-b749-9359503d3df0"",""projectId"":""54f8d589-66fc-4c65-830f-1dcc63bce8cc""}","https://test12345.live/?participantId=8FD1D7CFE8C146558D361B11982CFF04&assignmentId=0f15e304-fc2b-4e74-b749-9359503d3df0&projectId=54f8d589-66fc-4c65-830f-1dcc63bce8cc","","null","<div style=""display: flex; justify-content: center; align-items: center;"">
                    <img src=""images/causal/causal_series_13/causal_series_13_a.jpg"" style=""width: 300px; height: 300px;"" />
                  </div>","null","",""
"","","","","","html-keyboard-response","70","188581","0.0-51.0-1.0","8FD1D7CFE8C146558D361B11982CFF04","8FD1D7CFE8C146558D361B11982CFF04","0f15e304-fc2b-4e74-b749-9359503d3df0","54f8d589-66fc-4c65-830f-1dcc63bce8cc","{""participantId"":""8FD1D7CFE8C146558D361B11982CFF04"",""assignmentId"":""0f15e304-fc2b-4e74-b749-9359503d3df0"",""projectId"":""54f8d589-66fc-4c65-830f-1dcc63bce8cc""}","https://test12345.live/?participantId=8FD1D7CFE8C146558D361B11982CFF04&assignmentId=0f15e304-fc2b-4e74-b749-9359503d3df0&projectId=54f8d589-66fc-4c65-830f-1dcc63bce8cc","","null","<div style=""display: flex; justify-content: center; align-items: center;"">
                    <img src=""images/causal/causal_series_13/causal_series_13_b.jpg"" style=""width: 300px; height: 300px;"" />
                  </div>","null","",""
"","","","","","html-keyboard-response","71","191596","0.0-51.0-2.0","8FD1D7CFE8C146558D361B11982CFF04","8FD1D7CFE8C146558D361B11982CFF04","0f15e304-fc2b-4e74-b749-9359503d3df0","54f8d589-66fc-4c65-830f-1dcc63bce8cc","{""participantId"":""8FD1D7CFE8C146558D361B11982CFF04"",""assignmentId"":""0f15e304-fc2b-4e74-b749-9359503d3df0"",""projectId"":""54f8d589-66fc-4c65-830f-1dcc63bce8cc""}","https://test12345.live/?participantId=8FD1D7CFE8C146558D361B11982CFF04&assignmentId=0f15e304-fc2b-4e74-b749-9359503d3df0&projectId=54f8d589-66fc-4c65-830f-1dcc63bce8cc","","null","<div style=""display: flex; justify-content: center; align-items: center;"">
                    <img src=""images/causal/causal_series_13/causal_series_13_c.jpg"" style=""width: 300px; height: 300px;"" />
                  </div>","null","",""
"","","","","","html-keyboard-response","72","194604","0.0-51.0-3.0","8FD1D7CFE8C146558D361B11982CFF04","8FD1D7CFE8C146558D361B11982CFF04","0f15e304-fc2b-4e74-b749-9359503d3df0","54f8d589-66fc-4c65-830f-1dcc63bce8cc","{""participantId"":""8FD1D7CFE8C146558D361B11982CFF04"",""assignmentId"":""0f15e304-fc2b-4e74-b749-9359503d3df0"",""projectId"":""54f8d589-66fc-4c65-830f-1dcc63bce8cc""}","https://test12345.live/?participantId=8FD1D7CFE8C146558D361B11982CFF04&assignmentId=0f15e304-fc2b-4e74-b749-9359503d3df0&projectId=54f8d589-66fc-4c65-830f-1dcc63bce8cc","","null","<div style=""display: flex; justify-content: center; align-items: center;"">
                    <img src=""images/causal/causal_series_13/causal_series_13_d.jpg"" style=""width: 300px; height: 300px;"" />
                  </div>","null","",""
"","","","","","html-button-response","73","195935","0.0-53.0","8FD1D7CFE8C146558D361B11982CFF04","8FD1D7CFE8C146558D361B11982CFF04","0f15e304-fc2b-4e74-b749-9359503d3df0","54f8d589-66fc-4c65-830f-1dcc63bce8cc","{""participantId"":""8FD1D7CFE8C146558D361B11982CFF04"",""assignmentId"":""0f15e304-fc2b-4e74-b749-9359503d3df0"",""projectId"":""54f8d589-66fc-4c65-830f-1dcc63bce8cc""}","https://test12345.live/?participantId=8FD1D7CFE8C146558D361B11982CFF04&assignmentId=0f15e304-fc2b-4e74-b749-9359503d3df0&projectId=54f8d589-66fc-4c65-830f-1dcc63bce8cc","","1331","Was there a person in the picture?","0","",""
"","","","","","survey-likert","74","197728","0.0-54.0","8FD1D7CFE8C146558D361B11982CFF04","8FD1D7CFE8C146558D361B11982CFF04","0f15e304-fc2b-4e74-b749-9359503d3df0","54f8d589-66fc-4c65-830f-1dcc63bce8cc","{""participantId"":""8FD1D7CFE8C146558D361B11982CFF04"",""assignmentId"":""0f15e304-fc2b-4e74-b749-9359503d3df0"",""projectId"":""54f8d589-66fc-4c65-830f-1dcc63bce8cc""}","https://test12345.live/?participantId=8FD1D7CFE8C146558D361B11982CFF04&assignmentId=0f15e304-fc2b-4e74-b749-9359503d3df0&projectId=54f8d589-66fc-4c65-830f-1dcc63bce8cc","","1792","","{""Q0"":0}","","[0]"
"","","","","","html-button-response","75","199596","0.0-55.0","8FD1D7CFE8C146558D361B11982CFF04","8FD1D7CFE8C146558D361B11982CFF04","0f15e304-fc2b-4e74-b749-9359503d3df0","54f8d589-66fc-4c65-830f-1dcc63bce8cc","{""participantId"":""8FD1D7CFE8C146558D361B11982CFF04"",""assignmentId"":""0f15e304-fc2b-4e74-b749-9359503d3df0"",""projectId"":""54f8d589-66fc-4c65-830f-1dcc63bce8cc""}","https://test12345.live/?participantId=8FD1D7CFE8C146558D361B11982CFF04&assignmentId=0f15e304-fc2b-4e74-b749-9359503d3df0&projectId=54f8d589-66fc-4c65-830f-1dcc63bce8cc","","1867","
    <div style=""display: flex; justify-content: center; align-items: center;"">
      <img src=""images/red_deck_2.png"" style=""width: 300px; height: 300px; margin-right: 10px;"" />
      <img src=""images/blue_deck_1.png"" style=""width: 300px; height: 300px;"" />
    </div>","1","1",""
"","","","","","html-keyboard-response","76","202605","0.0-57.0-0.0","8FD1D7CFE8C146558D361B11982CFF04","8FD1D7CFE8C146558D361B11982CFF04","0f15e304-fc2b-4e74-b749-9359503d3df0","54f8d589-66fc-4c65-830f-1dcc63bce8cc","{""participantId"":""8FD1D7CFE8C146558D361B11982CFF04"",""assignmentId"":""0f15e304-fc2b-4e74-b749-9359503d3df0"",""projectId"":""54f8d589-66fc-4c65-830f-1dcc63bce8cc""}","https://test12345.live/?participantId=8FD1D7CFE8C146558D361B11982CFF04&assignmentId=0f15e304-fc2b-4e74-b749-9359503d3df0&projectId=54f8d589-66fc-4c65-830f-1dcc63bce8cc","","null","<div style=""display: flex; justify-content: center; align-items: center;"">
                    <img src=""images/semantic/semantic_series_5/semantic_series_5_a.jpg"" style=""width: 300px; height: 300px;"" />
                  </div>","null","",""
"","","","","","html-keyboard-response","77","205614","0.0-57.0-1.0","8FD1D7CFE8C146558D361B11982CFF04","8FD1D7CFE8C146558D361B11982CFF04","0f15e304-fc2b-4e74-b749-9359503d3df0","54f8d589-66fc-4c65-830f-1dcc63bce8cc","{""participantId"":""8FD1D7CFE8C146558D361B11982CFF04"",""assignmentId"":""0f15e304-fc2b-4e74-b749-9359503d3df0"",""projectId"":""54f8d589-66fc-4c65-830f-1dcc63bce8cc""}","https://test12345.live/?participantId=8FD1D7CFE8C146558D361B11982CFF04&assignmentId=0f15e304-fc2b-4e74-b749-9359503d3df0&projectId=54f8d589-66fc-4c65-830f-1dcc63bce8cc","","null","<div style=""display: flex; justify-content: center; align-items: center;"">
                    <img src=""images/semantic/semantic_series_5/semantic_series_5_b.jpg"" style=""width: 300px; height: 300px;"" />
                  </div>","null","",""
"","","","","","html-keyboard-response","78","208622","0.0-57.0-2.0","8FD1D7CFE8C146558D361B11982CFF04","8FD1D7CFE8C146558D361B11982CFF04","0f15e304-fc2b-4e74-b749-9359503d3df0","54f8d589-66fc-4c65-830f-1dcc63bce8cc","{""participantId"":""8FD1D7CFE8C146558D361B11982CFF04"",""assignmentId"":""0f15e304-fc2b-4e74-b749-9359503d3df0"",""projectId"":""54f8d589-66fc-4c65-830f-1dcc63bce8cc""}","https://test12345.live/?participantId=8FD1D7CFE8C146558D361B11982CFF04&assignmentId=0f15e304-fc2b-4e74-b749-9359503d3df0&projectId=54f8d589-66fc-4c65-830f-1dcc63bce8cc","","null","<div style=""display: flex; justify-content: center; align-items: center;"">
                    <img src=""images/semantic/semantic_series_5/semantic_series_5_c.jpg"" style=""width: 300px; height: 300px;"" />
                  </div>","null","",""
"","","","","","html-keyboard-response","79","211638","0.0-57.0-3.0","8FD1D7CFE8C146558D361B11982CFF04","8FD1D7CFE8C146558D361B11982CFF04","0f15e304-fc2b-4e74-b749-9359503d3df0","54f8d589-66fc-4c65-830f-1dcc63bce8cc","{""participantId"":""8FD1D7CFE8C146558D361B11982CFF04"",""assignmentId"":""0f15e304-fc2b-4e74-b749-9359503d3df0"",""projectId"":""54f8d589-66fc-4c65-830f-1dcc63bce8cc""}","https://test12345.live/?participantId=8FD1D7CFE8C146558D361B11982CFF04&assignmentId=0f15e304-fc2b-4e74-b749-9359503d3df0&projectId=54f8d589-66fc-4c65-830f-1dcc63bce8cc","","null","<div style=""display: flex; justify-content: center; align-items: center;"">
                    <img src=""images/semantic/semantic_series_5/semantic_series_5_d.jpg"" style=""width: 300px; height: 300px;"" />
                  </div>","null","",""
"","","","","","html-button-response","80","212849","0.0-58.0","8FD1D7CFE8C146558D361B11982CFF04","8FD1D7CFE8C146558D361B11982CFF04","0f15e304-fc2b-4e74-b749-9359503d3df0","54f8d589-66fc-4c65-830f-1dcc63bce8cc","{""participantId"":""8FD1D7CFE8C146558D361B11982CFF04"",""assignmentId"":""0f15e304-fc2b-4e74-b749-9359503d3df0"",""projectId"":""54f8d589-66fc-4c65-830f-1dcc63bce8cc""}","https://test12345.live/?participantId=8FD1D7CFE8C146558D361B11982CFF04&assignmentId=0f15e304-fc2b-4e74-b749-9359503d3df0&projectId=54f8d589-66fc-4c65-830f-1dcc63bce8cc","","1210","Was there a person in the picture?","0","",""
"","","","","","survey-likert","81","215909","0.0-59.0","8FD1D7CFE8C146558D361B11982CFF04","8FD1D7CFE8C146558D361B11982CFF04","0f15e304-fc2b-4e74-b749-9359503d3df0","54f8d589-66fc-4c65-830f-1dcc63bce8cc","{""participantId"":""8FD1D7CFE8C146558D361B11982CFF04"",""assignmentId"":""0f15e304-fc2b-4e74-b749-9359503d3df0"",""projectId"":""54f8d589-66fc-4c65-830f-1dcc63bce8cc""}","https://test12345.live/?participantId=8FD1D7CFE8C146558D361B11982CFF04&assignmentId=0f15e304-fc2b-4e74-b749-9359503d3df0&projectId=54f8d589-66fc-4c65-830f-1dcc63bce8cc","","3059","","{""Q0"":1}","","[0]"
"","","","","","html-button-response","82","217073","0.0-60.0","8FD1D7CFE8C146558D361B11982CFF04","8FD1D7CFE8C146558D361B11982CFF04","0f15e304-fc2b-4e74-b749-9359503d3df0","54f8d589-66fc-4c65-830f-1dcc63bce8cc","{""participantId"":""8FD1D7CFE8C146558D361B11982CFF04"",""assignmentId"":""0f15e304-fc2b-4e74-b749-9359503d3df0"",""projectId"":""54f8d589-66fc-4c65-830f-1dcc63bce8cc""}","https://test12345.live/?participantId=8FD1D7CFE8C146558D361B11982CFF04&assignmentId=0f15e304-fc2b-4e74-b749-9359503d3df0&projectId=54f8d589-66fc-4c65-830f-1dcc63bce8cc","","1164","
    <div style=""display: flex; justify-content: center; align-items: center;"">
      <img src=""images/red_deck_2.png"" style=""width: 300px; height: 300px; margin-right: 10px;"" />
      <img src=""images/blue_deck_1.png"" style=""width: 300px; height: 300px;"" />
    </div>","0","0",""
"","","","","","html-keyboard-response","83","220081","0.0-61.0-0.0","8FD1D7CFE8C146558D361B11982CFF04","8FD1D7CFE8C146558D361B11982CFF04","0f15e304-fc2b-4e74-b749-9359503d3df0","54f8d589-66fc-4c65-830f-1dcc63bce8cc","{""participantId"":""8FD1D7CFE8C146558D361B11982CFF04"",""assignmentId"":""0f15e304-fc2b-4e74-b749-9359503d3df0"",""projectId"":""54f8d589-66fc-4c65-830f-1dcc63bce8cc""}","https://test12345.live/?participantId=8FD1D7CFE8C146558D361B11982CFF04&assignmentId=0f15e304-fc2b-4e74-b749-9359503d3df0&projectId=54f8d589-66fc-4c65-830f-1dcc63bce8cc","","null","<div style=""display: flex; justify-content: center; align-items: center;"">
                    <img src=""images/causal/causal_series_8/causal_series_8_a.jpg"" style=""width: 300px; height: 300px;"" />
                  </div>","null","",""
"","","","","","html-keyboard-response","84","223095","0.0-61.0-1.0","8FD1D7CFE8C146558D361B11982CFF04","8FD1D7CFE8C146558D361B11982CFF04","0f15e304-fc2b-4e74-b749-9359503d3df0","54f8d589-66fc-4c65-830f-1dcc63bce8cc","{""participantId"":""8FD1D7CFE8C146558D361B11982CFF04"",""assignmentId"":""0f15e304-fc2b-4e74-b749-9359503d3df0"",""projectId"":""54f8d589-66fc-4c65-830f-1dcc63bce8cc""}","https://test12345.live/?participantId=8FD1D7CFE8C146558D361B11982CFF04&assignmentId=0f15e304-fc2b-4e74-b749-9359503d3df0&projectId=54f8d589-66fc-4c65-830f-1dcc63bce8cc","","null","<div style=""display: flex; justify-content: center; align-items: center;"">
                    <img src=""images/causal/causal_series_8/causal_series_8_b.jpg"" style=""width: 300px; height: 300px;"" />
                  </div>","null","",""
"","","","","","html-keyboard-response","85","226099","0.0-61.0-2.0","8FD1D7CFE8C146558D361B11982CFF04","8FD1D7CFE8C146558D361B11982CFF04","0f15e304-fc2b-4e74-b749-9359503d3df0","54f8d589-66fc-4c65-830f-1dcc63bce8cc","{""participantId"":""8FD1D7CFE8C146558D361B11982CFF04"",""assignmentId"":""0f15e304-fc2b-4e74-b749-9359503d3df0"",""projectId"":""54f8d589-66fc-4c65-830f-1dcc63bce8cc""}","https://test12345.live/?participantId=8FD1D7CFE8C146558D361B11982CFF04&assignmentId=0f15e304-fc2b-4e74-b749-9359503d3df0&projectId=54f8d589-66fc-4c65-830f-1dcc63bce8cc","","null","<div style=""display: flex; justify-content: center; align-items: center;"">
                    <img src=""images/causal/causal_series_8/causal_series_8_c.jpg"" style=""width: 300px; height: 300px;"" />
                  </div>","null","",""
"","","","","","html-keyboard-response","86","229115","0.0-61.0-3.0","8FD1D7CFE8C146558D361B11982CFF04","8FD1D7CFE8C146558D361B11982CFF04","0f15e304-fc2b-4e74-b749-9359503d3df0","54f8d589-66fc-4c65-830f-1dcc63bce8cc","{""participantId"":""8FD1D7CFE8C146558D361B11982CFF04"",""assignmentId"":""0f15e304-fc2b-4e74-b749-9359503d3df0"",""projectId"":""54f8d589-66fc-4c65-830f-1dcc63bce8cc""}","https://test12345.live/?participantId=8FD1D7CFE8C146558D361B11982CFF04&assignmentId=0f15e304-fc2b-4e74-b749-9359503d3df0&projectId=54f8d589-66fc-4c65-830f-1dcc63bce8cc","","null","<div style=""display: flex; justify-content: center; align-items: center;"">
                    <img src=""images/causal/causal_series_8/causal_series_8_d.jpg"" style=""width: 300px; height: 300px;"" />
                  </div>","null","",""
"","","","","","html-button-response","87","236838","0.0-63.0","8FD1D7CFE8C146558D361B11982CFF04","8FD1D7CFE8C146558D361B11982CFF04","0f15e304-fc2b-4e74-b749-9359503d3df0","54f8d589-66fc-4c65-830f-1dcc63bce8cc","{""participantId"":""8FD1D7CFE8C146558D361B11982CFF04"",""assignmentId"":""0f15e304-fc2b-4e74-b749-9359503d3df0"",""projectId"":""54f8d589-66fc-4c65-830f-1dcc63bce8cc""}","https://test12345.live/?participantId=8FD1D7CFE8C146558D361B11982CFF04&assignmentId=0f15e304-fc2b-4e74-b749-9359503d3df0&projectId=54f8d589-66fc-4c65-830f-1dcc63bce8cc","","7722","Was there a person in the picture?","1","",""
"","","","","","survey-likert","88","242546","0.0-64.0","8FD1D7CFE8C146558D361B11982CFF04","8FD1D7CFE8C146558D361B11982CFF04","0f15e304-fc2b-4e74-b749-9359503d3df0","54f8d589-66fc-4c65-830f-1dcc63bce8cc","{""participantId"":""8FD1D7CFE8C146558D361B11982CFF04"",""assignmentId"":""0f15e304-fc2b-4e74-b749-9359503d3df0"",""projectId"":""54f8d589-66fc-4c65-830f-1dcc63bce8cc""}","https://test12345.live/?participantId=8FD1D7CFE8C146558D361B11982CFF04&assignmentId=0f15e304-fc2b-4e74-b749-9359503d3df0&projectId=54f8d589-66fc-4c65-830f-1dcc63bce8cc","","5708","","{""Q0"":1}","","[0]"
"","","","","","html-button-response","89","243659","0.0-65.0","8FD1D7CFE8C146558D361B11982CFF04","8FD1D7CFE8C146558D361B11982CFF04","0f15e304-fc2b-4e74-b749-9359503d3df0","54f8d589-66fc-4c65-830f-1dcc63bce8cc","{""participantId"":""8FD1D7CFE8C146558D361B11982CFF04"",""assignmentId"":""0f15e304-fc2b-4e74-b749-9359503d3df0"",""projectId"":""54f8d589-66fc-4c65-830f-1dcc63bce8cc""}","https://test12345.live/?participantId=8FD1D7CFE8C146558D361B11982CFF04&assignmentId=0f15e304-fc2b-4e74-b749-9359503d3df0&projectId=54f8d589-66fc-4c65-830f-1dcc63bce8cc","","1112","
    <div style=""display: flex; justify-content: center; align-items: center;"">
      <img src=""images/red_deck_2.png"" style=""width: 300px; height: 300px; margin-right: 10px;"" />
      <img src=""images/blue_deck_1.png"" style=""width: 300px; height: 300px;"" />
    </div>","0","0",""
"","","","","","html-keyboard-response","90","246670","0.0-66.0-0.0","8FD1D7CFE8C146558D361B11982CFF04","8FD1D7CFE8C146558D361B11982CFF04","0f15e304-fc2b-4e74-b749-9359503d3df0","54f8d589-66fc-4c65-830f-1dcc63bce8cc","{""participantId"":""8FD1D7CFE8C146558D361B11982CFF04"",""assignmentId"":""0f15e304-fc2b-4e74-b749-9359503d3df0"",""projectId"":""54f8d589-66fc-4c65-830f-1dcc63bce8cc""}","https://test12345.live/?participantId=8FD1D7CFE8C146558D361B11982CFF04&assignmentId=0f15e304-fc2b-4e74-b749-9359503d3df0&projectId=54f8d589-66fc-4c65-830f-1dcc63bce8cc","","null","<div style=""display: flex; justify-content: center; align-items: center;"">
                    <img src=""images/causal/causal_series_15/causal_series_15_a.jpg"" style=""width: 300px; height: 300px;"" />
                  </div>","null","",""
"","","","","","html-keyboard-response","91","249676","0.0-66.0-1.0","8FD1D7CFE8C146558D361B11982CFF04","8FD1D7CFE8C146558D361B11982CFF04","0f15e304-fc2b-4e74-b749-9359503d3df0","54f8d589-66fc-4c65-830f-1dcc63bce8cc","{""participantId"":""8FD1D7CFE8C146558D361B11982CFF04"",""assignmentId"":""0f15e304-fc2b-4e74-b749-9359503d3df0"",""projectId"":""54f8d589-66fc-4c65-830f-1dcc63bce8cc""}","https://test12345.live/?participantId=8FD1D7CFE8C146558D361B11982CFF04&assignmentId=0f15e304-fc2b-4e74-b749-9359503d3df0&projectId=54f8d589-66fc-4c65-830f-1dcc63bce8cc","","null","<div style=""display: flex; justify-content: center; align-items: center;"">
                    <img src=""images/causal/causal_series_15/causal_series_15_b.jpg"" style=""width: 300px; height: 300px;"" />
                  </div>","null","",""
"","","","","","html-keyboard-response","92","252687","0.0-66.0-2.0","8FD1D7CFE8C146558D361B11982CFF04","8FD1D7CFE8C146558D361B11982CFF04","0f15e304-fc2b-4e74-b749-9359503d3df0","54f8d589-66fc-4c65-830f-1dcc63bce8cc","{""participantId"":""8FD1D7CFE8C146558D361B11982CFF04"",""assignmentId"":""0f15e304-fc2b-4e74-b749-9359503d3df0"",""projectId"":""54f8d589-66fc-4c65-830f-1dcc63bce8cc""}","https://test12345.live/?participantId=8FD1D7CFE8C146558D361B11982CFF04&assignmentId=0f15e304-fc2b-4e74-b749-9359503d3df0&projectId=54f8d589-66fc-4c65-830f-1dcc63bce8cc","","null","<div style=""display: flex; justify-content: center; align-items: center;"">
                    <img src=""images/causal/causal_series_15/causal_series_15_c.jpg"" style=""width: 300px; height: 300px;"" />
                  </div>","null","",""
"","","","","","html-keyboard-response","93","255700","0.0-66.0-3.0","8FD1D7CFE8C146558D361B11982CFF04","8FD1D7CFE8C146558D361B11982CFF04","0f15e304-fc2b-4e74-b749-9359503d3df0","54f8d589-66fc-4c65-830f-1dcc63bce8cc","{""participantId"":""8FD1D7CFE8C146558D361B11982CFF04"",""assignmentId"":""0f15e304-fc2b-4e74-b749-9359503d3df0"",""projectId"":""54f8d589-66fc-4c65-830f-1dcc63bce8cc""}","https://test12345.live/?participantId=8FD1D7CFE8C146558D361B11982CFF04&assignmentId=0f15e304-fc2b-4e74-b749-9359503d3df0&projectId=54f8d589-66fc-4c65-830f-1dcc63bce8cc","","null","<div style=""display: flex; justify-content: center; align-items: center;"">
                    <img src=""images/causal/causal_series_15/causal_series_15_d.jpg"" style=""width: 300px; height: 300px;"" />
                  </div>","null","",""
"","","","","","html-button-response","94","256725","0.0-68.0","8FD1D7CFE8C146558D361B11982CFF04","8FD1D7CFE8C146558D361B11982CFF04","0f15e304-fc2b-4e74-b749-9359503d3df0","54f8d589-66fc-4c65-830f-1dcc63bce8cc","{""participantId"":""8FD1D7CFE8C146558D361B11982CFF04"",""assignmentId"":""0f15e304-fc2b-4e74-b749-9359503d3df0"",""projectId"":""54f8d589-66fc-4c65-830f-1dcc63bce8cc""}","https://test12345.live/?participantId=8FD1D7CFE8C146558D361B11982CFF04&assignmentId=0f15e304-fc2b-4e74-b749-9359503d3df0&projectId=54f8d589-66fc-4c65-830f-1dcc63bce8cc","","1025","Was there a person in the picture?","0","",""
"","","","","","survey-likert","95","259247","0.0-69.0","8FD1D7CFE8C146558D361B11982CFF04","8FD1D7CFE8C146558D361B11982CFF04","0f15e304-fc2b-4e74-b749-9359503d3df0","54f8d589-66fc-4c65-830f-1dcc63bce8cc","{""participantId"":""8FD1D7CFE8C146558D361B11982CFF04"",""assignmentId"":""0f15e304-fc2b-4e74-b749-9359503d3df0"",""projectId"":""54f8d589-66fc-4c65-830f-1dcc63bce8cc""}","https://test12345.live/?participantId=8FD1D7CFE8C146558D361B11982CFF04&assignmentId=0f15e304-fc2b-4e74-b749-9359503d3df0&projectId=54f8d589-66fc-4c65-830f-1dcc63bce8cc","","2521","","{""Q0"":0}","","[0]"
"","","","","","html-button-response","96","260322","0.0-70.0","8FD1D7CFE8C146558D361B11982CFF04","8FD1D7CFE8C146558D361B11982CFF04","0f15e304-fc2b-4e74-b749-9359503d3df0","54f8d589-66fc-4c65-830f-1dcc63bce8cc","{""participantId"":""8FD1D7CFE8C146558D361B11982CFF04"",""assignmentId"":""0f15e304-fc2b-4e74-b749-9359503d3df0"",""projectId"":""54f8d589-66fc-4c65-830f-1dcc63bce8cc""}","https://test12345.live/?participantId=8FD1D7CFE8C146558D361B11982CFF04&assignmentId=0f15e304-fc2b-4e74-b749-9359503d3df0&projectId=54f8d589-66fc-4c65-830f-1dcc63bce8cc","","1074","
    <div style=""display: flex; justify-content: center; align-items: center;"">
      <img src=""images/red_deck_2.png"" style=""width: 300px; height: 300px; margin-right: 10px;"" />
      <img src=""images/blue_deck_1.png"" style=""width: 300px; height: 300px;"" />
    </div>","1","1",""
"","","","","","html-keyboard-response","97","263334","0.0-72.0-0.0","8FD1D7CFE8C146558D361B11982CFF04","8FD1D7CFE8C146558D361B11982CFF04","0f15e304-fc2b-4e74-b749-9359503d3df0","54f8d589-66fc-4c65-830f-1dcc63bce8cc","{""participantId"":""8FD1D7CFE8C146558D361B11982CFF04"",""assignmentId"":""0f15e304-fc2b-4e74-b749-9359503d3df0"",""projectId"":""54f8d589-66fc-4c65-830f-1dcc63bce8cc""}","https://test12345.live/?participantId=8FD1D7CFE8C146558D361B11982CFF04&assignmentId=0f15e304-fc2b-4e74-b749-9359503d3df0&projectId=54f8d589-66fc-4c65-830f-1dcc63bce8cc","","null","<div style=""display: flex; justify-content: center; align-items: center;"">
                    <img src=""images/semantic/semantic_series_3/semantic_series_3_a.jpg"" style=""width: 300px; height: 300px;"" />
                  </div>","null","",""
"","","","","","html-keyboard-response","98","266339","0.0-72.0-1.0","8FD1D7CFE8C146558D361B11982CFF04","8FD1D7CFE8C146558D361B11982CFF04","0f15e304-fc2b-4e74-b749-9359503d3df0","54f8d589-66fc-4c65-830f-1dcc63bce8cc","{""participantId"":""8FD1D7CFE8C146558D361B11982CFF04"",""assignmentId"":""0f15e304-fc2b-4e74-b749-9359503d3df0"",""projectId"":""54f8d589-66fc-4c65-830f-1dcc63bce8cc""}","https://test12345.live/?participantId=8FD1D7CFE8C146558D361B11982CFF04&assignmentId=0f15e304-fc2b-4e74-b749-9359503d3df0&projectId=54f8d589-66fc-4c65-830f-1dcc63bce8cc","","null","<div style=""display: flex; justify-content: center; align-items: center;"">
                    <img src=""images/semantic/semantic_series_3/semantic_series_3_b.jpg"" style=""width: 300px; height: 300px;"" />
                  </div>","null","",""
"","","","","","html-keyboard-response","99","269343","0.0-72.0-2.0","8FD1D7CFE8C146558D361B11982CFF04","8FD1D7CFE8C146558D361B11982CFF04","0f15e304-fc2b-4e74-b749-9359503d3df0","54f8d589-66fc-4c65-830f-1dcc63bce8cc","{""participantId"":""8FD1D7CFE8C146558D361B11982CFF04"",""assignmentId"":""0f15e304-fc2b-4e74-b749-9359503d3df0"",""projectId"":""54f8d589-66fc-4c65-830f-1dcc63bce8cc""}","https://test12345.live/?participantId=8FD1D7CFE8C146558D361B11982CFF04&assignmentId=0f15e304-fc2b-4e74-b749-9359503d3df0&projectId=54f8d589-66fc-4c65-830f-1dcc63bce8cc","","null","<div style=""display: flex; justify-content: center; align-items: center;"">
                    <img src=""images/semantic/semantic_series_3/semantic_series_3_c.jpg"" style=""width: 300px; height: 300px;"" />
                  </div>","null","",""
"","","","","","html-keyboard-response","100","272354","0.0-72.0-3.0","8FD1D7CFE8C146558D361B11982CFF04","8FD1D7CFE8C146558D361B11982CFF04","0f15e304-fc2b-4e74-b749-9359503d3df0","54f8d589-66fc-4c65-830f-1dcc63bce8cc","{""participantId"":""8FD1D7CFE8C146558D361B11982CFF04"",""assignmentId"":""0f15e304-fc2b-4e74-b749-9359503d3df0"",""projectId"":""54f8d589-66fc-4c65-830f-1dcc63bce8cc""}","https://test12345.live/?participantId=8FD1D7CFE8C146558D361B11982CFF04&assignmentId=0f15e304-fc2b-4e74-b749-9359503d3df0&projectId=54f8d589-66fc-4c65-830f-1dcc63bce8cc","","null","<div style=""display: flex; justify-content: center; align-items: center;"">
                    <img src=""images/semantic/semantic_series_3/semantic_series_3_d.jpg"" style=""width: 300px; height: 300px;"" />
                  </div>","null","",""
"","","","","","html-button-response","101","273458","0.0-73.0","8FD1D7CFE8C146558D361B11982CFF04","8FD1D7CFE8C146558D361B11982CFF04","0f15e304-fc2b-4e74-b749-9359503d3df0","54f8d589-66fc-4c65-830f-1dcc63bce8cc","{""participantId"":""8FD1D7CFE8C146558D361B11982CFF04"",""assignmentId"":""0f15e304-fc2b-4e74-b749-9359503d3df0"",""projectId"":""54f8d589-66fc-4c65-830f-1dcc63bce8cc""}","https://test12345.live/?participantId=8FD1D7CFE8C146558D361B11982CFF04&assignmentId=0f15e304-fc2b-4e74-b749-9359503d3df0&projectId=54f8d589-66fc-4c65-830f-1dcc63bce8cc","","1103","Was there a person in the picture?","0","",""
"","","","","","survey-likert","102","275378","0.0-74.0","8FD1D7CFE8C146558D361B11982CFF04","8FD1D7CFE8C146558D361B11982CFF04","0f15e304-fc2b-4e74-b749-9359503d3df0","54f8d589-66fc-4c65-830f-1dcc63bce8cc","{""participantId"":""8FD1D7CFE8C146558D361B11982CFF04"",""assignmentId"":""0f15e304-fc2b-4e74-b749-9359503d3df0"",""projectId"":""54f8d589-66fc-4c65-830f-1dcc63bce8cc""}","https://test12345.live/?participantId=8FD1D7CFE8C146558D361B11982CFF04&assignmentId=0f15e304-fc2b-4e74-b749-9359503d3df0&projectId=54f8d589-66fc-4c65-830f-1dcc63bce8cc","","1919","","{""Q0"":0}","","[0]"
"","","","","","html-button-response","103","276362","0.0-75.0","8FD1D7CFE8C146558D361B11982CFF04","8FD1D7CFE8C146558D361B11982CFF04","0f15e304-fc2b-4e74-b749-9359503d3df0","54f8d589-66fc-4c65-830f-1dcc63bce8cc","{""participantId"":""8FD1D7CFE8C146558D361B11982CFF04"",""assignmentId"":""0f15e304-fc2b-4e74-b749-9359503d3df0"",""projectId"":""54f8d589-66fc-4c65-830f-1dcc63bce8cc""}","https://test12345.live/?participantId=8FD1D7CFE8C146558D361B11982CFF04&assignmentId=0f15e304-fc2b-4e74-b749-9359503d3df0&projectId=54f8d589-66fc-4c65-830f-1dcc63bce8cc","","982","
    <div style=""display: flex; justify-content: center; align-items: center;"">
      <img src=""images/red_deck_2.png"" style=""width: 300px; height: 300px; margin-right: 10px;"" />
      <img src=""images/blue_deck_1.png"" style=""width: 300px; height: 300px;"" />
    </div>","0","0",""
"","","","","","html-keyboard-response","104","279364","0.0-76.0-0.0","8FD1D7CFE8C146558D361B11982CFF04","8FD1D7CFE8C146558D361B11982CFF04","0f15e304-fc2b-4e74-b749-9359503d3df0","54f8d589-66fc-4c65-830f-1dcc63bce8cc","{""participantId"":""8FD1D7CFE8C146558D361B11982CFF04"",""assignmentId"":""0f15e304-fc2b-4e74-b749-9359503d3df0"",""projectId"":""54f8d589-66fc-4c65-830f-1dcc63bce8cc""}","https://test12345.live/?participantId=8FD1D7CFE8C146558D361B11982CFF04&assignmentId=0f15e304-fc2b-4e74-b749-9359503d3df0&projectId=54f8d589-66fc-4c65-830f-1dcc63bce8cc","","null","<div style=""display: flex; justify-content: center; align-items: center;"">
                    <img src=""images/causal/causal_series_5/causal_series_5_a.jpg"" style=""width: 300px; height: 300px;"" />
                  </div>","null","",""
"","","","","","html-keyboard-response","105","282366","0.0-76.0-1.0","8FD1D7CFE8C146558D361B11982CFF04","8FD1D7CFE8C146558D361B11982CFF04","0f15e304-fc2b-4e74-b749-9359503d3df0","54f8d589-66fc-4c65-830f-1dcc63bce8cc","{""participantId"":""8FD1D7CFE8C146558D361B11982CFF04"",""assignmentId"":""0f15e304-fc2b-4e74-b749-9359503d3df0"",""projectId"":""54f8d589-66fc-4c65-830f-1dcc63bce8cc""}","https://test12345.live/?participantId=8FD1D7CFE8C146558D361B11982CFF04&assignmentId=0f15e304-fc2b-4e74-b749-9359503d3df0&projectId=54f8d589-66fc-4c65-830f-1dcc63bce8cc","","null","<div style=""display: flex; justify-content: center; align-items: center;"">
                    <img src=""images/causal/causal_series_5/causal_series_5_b.jpg"" style=""width: 300px; height: 300px;"" />
                  </div>","null","",""
"","","","","","html-keyboard-response","106","285382","0.0-76.0-2.0","8FD1D7CFE8C146558D361B11982CFF04","8FD1D7CFE8C146558D361B11982CFF04","0f15e304-fc2b-4e74-b749-9359503d3df0","54f8d589-66fc-4c65-830f-1dcc63bce8cc","{""participantId"":""8FD1D7CFE8C146558D361B11982CFF04"",""assignmentId"":""0f15e304-fc2b-4e74-b749-9359503d3df0"",""projectId"":""54f8d589-66fc-4c65-830f-1dcc63bce8cc""}","https://test12345.live/?participantId=8FD1D7CFE8C146558D361B11982CFF04&assignmentId=0f15e304-fc2b-4e74-b749-9359503d3df0&projectId=54f8d589-66fc-4c65-830f-1dcc63bce8cc","","null","<div style=""display: flex; justify-content: center; align-items: center;"">
                    <img src=""images/causal/causal_series_5/causal_series_5_c.jpg"" style=""width: 300px; height: 300px;"" />
                  </div>","null","",""
"","","","","","html-keyboard-response","107","288395","0.0-76.0-3.0","8FD1D7CFE8C146558D361B11982CFF04","8FD1D7CFE8C146558D361B11982CFF04","0f15e304-fc2b-4e74-b749-9359503d3df0","54f8d589-66fc-4c65-830f-1dcc63bce8cc","{""participantId"":""8FD1D7CFE8C146558D361B11982CFF04"",""assignmentId"":""0f15e304-fc2b-4e74-b749-9359503d3df0"",""projectId"":""54f8d589-66fc-4c65-830f-1dcc63bce8cc""}","https://test12345.live/?participantId=8FD1D7CFE8C146558D361B11982CFF04&assignmentId=0f15e304-fc2b-4e74-b749-9359503d3df0&projectId=54f8d589-66fc-4c65-830f-1dcc63bce8cc","","null","<div style=""display: flex; justify-content: center; align-items: center;"">
                    <img src=""images/causal/causal_series_5/causal_series_5_d.jpg"" style=""width: 300px; height: 300px;"" />
                  </div>","null","",""
"","","","","","html-button-response","108","289601","0.0-78.0","8FD1D7CFE8C146558D361B11982CFF04","8FD1D7CFE8C146558D361B11982CFF04","0f15e304-fc2b-4e74-b749-9359503d3df0","54f8d589-66fc-4c65-830f-1dcc63bce8cc","{""participantId"":""8FD1D7CFE8C146558D361B11982CFF04"",""assignmentId"":""0f15e304-fc2b-4e74-b749-9359503d3df0"",""projectId"":""54f8d589-66fc-4c65-830f-1dcc63bce8cc""}","https://test12345.live/?participantId=8FD1D7CFE8C146558D361B11982CFF04&assignmentId=0f15e304-fc2b-4e74-b749-9359503d3df0&projectId=54f8d589-66fc-4c65-830f-1dcc63bce8cc","","1204","Was there a person in the picture?","0","",""
"","","","","","survey-likert","109","291406","0.0-79.0","8FD1D7CFE8C146558D361B11982CFF04","8FD1D7CFE8C146558D361B11982CFF04","0f15e304-fc2b-4e74-b749-9359503d3df0","54f8d589-66fc-4c65-830f-1dcc63bce8cc","{""participantId"":""8FD1D7CFE8C146558D361B11982CFF04"",""assignmentId"":""0f15e304-fc2b-4e74-b749-9359503d3df0"",""projectId"":""54f8d589-66fc-4c65-830f-1dcc63bce8cc""}","https://test12345.live/?participantId=8FD1D7CFE8C146558D361B11982CFF04&assignmentId=0f15e304-fc2b-4e74-b749-9359503d3df0&projectId=54f8d589-66fc-4c65-830f-1dcc63bce8cc","","1804","","{""Q0"":1}","","[0]"
"","","","","","html-button-response","110","292454","0.0-80.0","8FD1D7CFE8C146558D361B11982CFF04","8FD1D7CFE8C146558D361B11982CFF04","0f15e304-fc2b-4e74-b749-9359503d3df0","54f8d589-66fc-4c65-830f-1dcc63bce8cc","{""participantId"":""8FD1D7CFE8C146558D361B11982CFF04"",""assignmentId"":""0f15e304-fc2b-4e74-b749-9359503d3df0"",""projectId"":""54f8d589-66fc-4c65-830f-1dcc63bce8cc""}","https://test12345.live/?participantId=8FD1D7CFE8C146558D361B11982CFF04&assignmentId=0f15e304-fc2b-4e74-b749-9359503d3df0&projectId=54f8d589-66fc-4c65-830f-1dcc63bce8cc","","1047","
    <div style=""display: flex; justify-content: center; align-items: center;"">
      <img src=""images/red_deck_2.png"" style=""width: 300px; height: 300px; margin-right: 10px;"" />
      <img src=""images/blue_deck_1.png"" style=""width: 300px; height: 300px;"" />
    </div>","0","0",""
"","","","","","html-keyboard-response","111","295458","0.0-81.0-0.0","8FD1D7CFE8C146558D361B11982CFF04","8FD1D7CFE8C146558D361B11982CFF04","0f15e304-fc2b-4e74-b749-9359503d3df0","54f8d589-66fc-4c65-830f-1dcc63bce8cc","{""participantId"":""8FD1D7CFE8C146558D361B11982CFF04"",""assignmentId"":""0f15e304-fc2b-4e74-b749-9359503d3df0"",""projectId"":""54f8d589-66fc-4c65-830f-1dcc63bce8cc""}","https://test12345.live/?participantId=8FD1D7CFE8C146558D361B11982CFF04&assignmentId=0f15e304-fc2b-4e74-b749-9359503d3df0&projectId=54f8d589-66fc-4c65-830f-1dcc63bce8cc","","null","<div style=""display: flex; justify-content: center; align-items: center;"">
                    <img src=""images/causal/causal_series_16/causal_series_16_a.jpg"" style=""width: 300px; height: 300px;"" />
                  </div>","null","",""
"","","","","","html-keyboard-response","112","298471","0.0-81.0-1.0","8FD1D7CFE8C146558D361B11982CFF04","8FD1D7CFE8C146558D361B11982CFF04","0f15e304-fc2b-4e74-b749-9359503d3df0","54f8d589-66fc-4c65-830f-1dcc63bce8cc","{""participantId"":""8FD1D7CFE8C146558D361B11982CFF04"",""assignmentId"":""0f15e304-fc2b-4e74-b749-9359503d3df0"",""projectId"":""54f8d589-66fc-4c65-830f-1dcc63bce8cc""}","https://test12345.live/?participantId=8FD1D7CFE8C146558D361B11982CFF04&assignmentId=0f15e304-fc2b-4e74-b749-9359503d3df0&projectId=54f8d589-66fc-4c65-830f-1dcc63bce8cc","","null","<div style=""display: flex; justify-content: center; align-items: center;"">
                    <img src=""images/causal/causal_series_16/causal_series_16_b.jpg"" style=""width: 300px; height: 300px;"" />
                  </div>","null","",""
"","","","","","html-keyboard-response","113","301481","0.0-81.0-2.0","8FD1D7CFE8C146558D361B11982CFF04","8FD1D7CFE8C146558D361B11982CFF04","0f15e304-fc2b-4e74-b749-9359503d3df0","54f8d589-66fc-4c65-830f-1dcc63bce8cc","{""participantId"":""8FD1D7CFE8C146558D361B11982CFF04"",""assignmentId"":""0f15e304-fc2b-4e74-b749-9359503d3df0"",""projectId"":""54f8d589-66fc-4c65-830f-1dcc63bce8cc""}","https://test12345.live/?participantId=8FD1D7CFE8C146558D361B11982CFF04&assignmentId=0f15e304-fc2b-4e74-b749-9359503d3df0&projectId=54f8d589-66fc-4c65-830f-1dcc63bce8cc","","null","<div style=""display: flex; justify-content: center; align-items: center;"">
                    <img src=""images/causal/causal_series_16/causal_series_16_c.jpg"" style=""width: 300px; height: 300px;"" />
                  </div>","null","",""
"","","","","","html-keyboard-response","114","304489","0.0-81.0-3.0","8FD1D7CFE8C146558D361B11982CFF04","8FD1D7CFE8C146558D361B11982CFF04","0f15e304-fc2b-4e74-b749-9359503d3df0","54f8d589-66fc-4c65-830f-1dcc63bce8cc","{""participantId"":""8FD1D7CFE8C146558D361B11982CFF04"",""assignmentId"":""0f15e304-fc2b-4e74-b749-9359503d3df0"",""projectId"":""54f8d589-66fc-4c65-830f-1dcc63bce8cc""}","https://test12345.live/?participantId=8FD1D7CFE8C146558D361B11982CFF04&assignmentId=0f15e304-fc2b-4e74-b749-9359503d3df0&projectId=54f8d589-66fc-4c65-830f-1dcc63bce8cc","","null","<div style=""display: flex; justify-content: center; align-items: center;"">
                    <img src=""images/causal/causal_series_16/causal_series_16_d.jpg"" style=""width: 300px; height: 300px;"" />
                  </div>","null","",""
"","","","","","html-button-response","115","305687","0.0-83.0","8FD1D7CFE8C146558D361B11982CFF04","8FD1D7CFE8C146558D361B11982CFF04","0f15e304-fc2b-4e74-b749-9359503d3df0","54f8d589-66fc-4c65-830f-1dcc63bce8cc","{""participantId"":""8FD1D7CFE8C146558D361B11982CFF04"",""assignmentId"":""0f15e304-fc2b-4e74-b749-9359503d3df0"",""projectId"":""54f8d589-66fc-4c65-830f-1dcc63bce8cc""}","https://test12345.live/?participantId=8FD1D7CFE8C146558D361B11982CFF04&assignmentId=0f15e304-fc2b-4e74-b749-9359503d3df0&projectId=54f8d589-66fc-4c65-830f-1dcc63bce8cc","","1197","Was there a person in the picture?","0","",""
"","","","","","survey-likert","116","307901","0.0-84.0","8FD1D7CFE8C146558D361B11982CFF04","8FD1D7CFE8C146558D361B11982CFF04","0f15e304-fc2b-4e74-b749-9359503d3df0","54f8d589-66fc-4c65-830f-1dcc63bce8cc","{""participantId"":""8FD1D7CFE8C146558D361B11982CFF04"",""assignmentId"":""0f15e304-fc2b-4e74-b749-9359503d3df0"",""projectId"":""54f8d589-66fc-4c65-830f-1dcc63bce8cc""}","https://test12345.live/?participantId=8FD1D7CFE8C146558D361B11982CFF04&assignmentId=0f15e304-fc2b-4e74-b749-9359503d3df0&projectId=54f8d589-66fc-4c65-830f-1dcc63bce8cc","","2213","","{""Q0"":1}","","[0]"
"","","","","","html-button-response","117","309001","0.0-85.0","8FD1D7CFE8C146558D361B11982CFF04","8FD1D7CFE8C146558D361B11982CFF04","0f15e304-fc2b-4e74-b749-9359503d3df0","54f8d589-66fc-4c65-830f-1dcc63bce8cc","{""participantId"":""8FD1D7CFE8C146558D361B11982CFF04"",""assignmentId"":""0f15e304-fc2b-4e74-b749-9359503d3df0"",""projectId"":""54f8d589-66fc-4c65-830f-1dcc63bce8cc""}","https://test12345.live/?participantId=8FD1D7CFE8C146558D361B11982CFF04&assignmentId=0f15e304-fc2b-4e74-b749-9359503d3df0&projectId=54f8d589-66fc-4c65-830f-1dcc63bce8cc","","1099","
    <div style=""display: flex; justify-content: center; align-items: center;"">
      <img src=""images/red_deck_2.png"" style=""width: 300px; height: 300px; margin-right: 10px;"" />
      <img src=""images/blue_deck_1.png"" style=""width: 300px; height: 300px;"" />
    </div>","0","0",""
"","","","","","html-keyboard-response","118","312017","0.0-86.0-0.0","8FD1D7CFE8C146558D361B11982CFF04","8FD1D7CFE8C146558D361B11982CFF04","0f15e304-fc2b-4e74-b749-9359503d3df0","54f8d589-66fc-4c65-830f-1dcc63bce8cc","{""participantId"":""8FD1D7CFE8C146558D361B11982CFF04"",""assignmentId"":""0f15e304-fc2b-4e74-b749-9359503d3df0"",""projectId"":""54f8d589-66fc-4c65-830f-1dcc63bce8cc""}","https://test12345.live/?participantId=8FD1D7CFE8C146558D361B11982CFF04&assignmentId=0f15e304-fc2b-4e74-b749-9359503d3df0&projectId=54f8d589-66fc-4c65-830f-1dcc63bce8cc","","null","<div style=""display: flex; justify-content: center; align-items: center;"">
                    <img src=""images/causal/causal_series_6/causal_series_6_a.jpg"" style=""width: 300px; height: 300px;"" />
                  </div>","null","",""
"","","","","","html-keyboard-response","119","315026","0.0-86.0-1.0","8FD1D7CFE8C146558D361B11982CFF04","8FD1D7CFE8C146558D361B11982CFF04","0f15e304-fc2b-4e74-b749-9359503d3df0","54f8d589-66fc-4c65-830f-1dcc63bce8cc","{""participantId"":""8FD1D7CFE8C146558D361B11982CFF04"",""assignmentId"":""0f15e304-fc2b-4e74-b749-9359503d3df0"",""projectId"":""54f8d589-66fc-4c65-830f-1dcc63bce8cc""}","https://test12345.live/?participantId=8FD1D7CFE8C146558D361B11982CFF04&assignmentId=0f15e304-fc2b-4e74-b749-9359503d3df0&projectId=54f8d589-66fc-4c65-830f-1dcc63bce8cc","","null","<div style=""display: flex; justify-content: center; align-items: center;"">
                    <img src=""images/causal/causal_series_6/causal_series_6_b.jpg"" style=""width: 300px; height: 300px;"" />
                  </div>","null","",""
"","","","","","html-keyboard-response","120","318028","0.0-86.0-2.0","8FD1D7CFE8C146558D361B11982CFF04","8FD1D7CFE8C146558D361B11982CFF04","0f15e304-fc2b-4e74-b749-9359503d3df0","54f8d589-66fc-4c65-830f-1dcc63bce8cc","{""participantId"":""8FD1D7CFE8C146558D361B11982CFF04"",""assignmentId"":""0f15e304-fc2b-4e74-b749-9359503d3df0"",""projectId"":""54f8d589-66fc-4c65-830f-1dcc63bce8cc""}","https://test12345.live/?participantId=8FD1D7CFE8C146558D361B11982CFF04&assignmentId=0f15e304-fc2b-4e74-b749-9359503d3df0&projectId=54f8d589-66fc-4c65-830f-1dcc63bce8cc","","null","<div style=""display: flex; justify-content: center; align-items: center;"">
                    <img src=""images/causal/causal_series_6/causal_series_6_c.jpg"" style=""width: 300px; height: 300px;"" />
                  </div>","null","",""
"","","","","","html-keyboard-response","121","321033","0.0-86.0-3.0","8FD1D7CFE8C146558D361B11982CFF04","8FD1D7CFE8C146558D361B11982CFF04","0f15e304-fc2b-4e74-b749-9359503d3df0","54f8d589-66fc-4c65-830f-1dcc63bce8cc","{""participantId"":""8FD1D7CFE8C146558D361B11982CFF04"",""assignmentId"":""0f15e304-fc2b-4e74-b749-9359503d3df0"",""projectId"":""54f8d589-66fc-4c65-830f-1dcc63bce8cc""}","https://test12345.live/?participantId=8FD1D7CFE8C146558D361B11982CFF04&assignmentId=0f15e304-fc2b-4e74-b749-9359503d3df0&projectId=54f8d589-66fc-4c65-830f-1dcc63bce8cc","","null","<div style=""display: flex; justify-content: center; align-items: center;"">
                    <img src=""images/causal/causal_series_6/causal_series_6_d.jpg"" style=""width: 300px; height: 300px;"" />
                  </div>","null","",""
"","","","","","html-button-response","122","323296","0.0-88.0","8FD1D7CFE8C146558D361B11982CFF04","8FD1D7CFE8C146558D361B11982CFF04","0f15e304-fc2b-4e74-b749-9359503d3df0","54f8d589-66fc-4c65-830f-1dcc63bce8cc","{""participantId"":""8FD1D7CFE8C146558D361B11982CFF04"",""assignmentId"":""0f15e304-fc2b-4e74-b749-9359503d3df0"",""projectId"":""54f8d589-66fc-4c65-830f-1dcc63bce8cc""}","https://test12345.live/?participantId=8FD1D7CFE8C146558D361B11982CFF04&assignmentId=0f15e304-fc2b-4e74-b749-9359503d3df0&projectId=54f8d589-66fc-4c65-830f-1dcc63bce8cc","","2262","Was there a person in the picture?","1","",""
"","","","","","survey-likert","123","325101","0.0-89.0","8FD1D7CFE8C146558D361B11982CFF04","8FD1D7CFE8C146558D361B11982CFF04","0f15e304-fc2b-4e74-b749-9359503d3df0","54f8d589-66fc-4c65-830f-1dcc63bce8cc","{""participantId"":""8FD1D7CFE8C146558D361B11982CFF04"",""assignmentId"":""0f15e304-fc2b-4e74-b749-9359503d3df0"",""projectId"":""54f8d589-66fc-4c65-830f-1dcc63bce8cc""}","https://test12345.live/?participantId=8FD1D7CFE8C146558D361B11982CFF04&assignmentId=0f15e304-fc2b-4e74-b749-9359503d3df0&projectId=54f8d589-66fc-4c65-830f-1dcc63bce8cc","","1804","","{""Q0"":0}","","[0]"
"","","","","","html-button-response","124","326611","0.0-90.0","8FD1D7CFE8C146558D361B11982CFF04","8FD1D7CFE8C146558D361B11982CFF04","0f15e304-fc2b-4e74-b749-9359503d3df0","54f8d589-66fc-4c65-830f-1dcc63bce8cc","{""participantId"":""8FD1D7CFE8C146558D361B11982CFF04"",""assignmentId"":""0f15e304-fc2b-4e74-b749-9359503d3df0"",""projectId"":""54f8d589-66fc-4c65-830f-1dcc63bce8cc""}","https://test12345.live/?participantId=8FD1D7CFE8C146558D361B11982CFF04&assignmentId=0f15e304-fc2b-4e74-b749-9359503d3df0&projectId=54f8d589-66fc-4c65-830f-1dcc63bce8cc","","1508","
    <div style=""display: flex; justify-content: center; align-items: center;"">
      <img src=""images/red_deck_2.png"" style=""width: 300px; height: 300px; margin-right: 10px;"" />
      <img src=""images/blue_deck_1.png"" style=""width: 300px; height: 300px;"" />
    </div>","1","1",""
"","","","","","html-keyboard-response","125","329616","0.0-92.0-0.0","8FD1D7CFE8C146558D361B11982CFF04","8FD1D7CFE8C146558D361B11982CFF04","0f15e304-fc2b-4e74-b749-9359503d3df0","54f8d589-66fc-4c65-830f-1dcc63bce8cc","{""participantId"":""8FD1D7CFE8C146558D361B11982CFF04"",""assignmentId"":""0f15e304-fc2b-4e74-b749-9359503d3df0"",""projectId"":""54f8d589-66fc-4c65-830f-1dcc63bce8cc""}","https://test12345.live/?participantId=8FD1D7CFE8C146558D361B11982CFF04&assignmentId=0f15e304-fc2b-4e74-b749-9359503d3df0&projectId=54f8d589-66fc-4c65-830f-1dcc63bce8cc","","null","<div style=""display: flex; justify-content: center; align-items: center;"">
                    <img src=""images/semantic/semantic_series_4/semantic_series_4_a.jpg"" style=""width: 300px; height: 300px;"" />
                  </div>","null","",""
"","","","","","html-keyboard-response","126","332621","0.0-92.0-1.0","8FD1D7CFE8C146558D361B11982CFF04","8FD1D7CFE8C146558D361B11982CFF04","0f15e304-fc2b-4e74-b749-9359503d3df0","54f8d589-66fc-4c65-830f-1dcc63bce8cc","{""participantId"":""8FD1D7CFE8C146558D361B11982CFF04"",""assignmentId"":""0f15e304-fc2b-4e74-b749-9359503d3df0"",""projectId"":""54f8d589-66fc-4c65-830f-1dcc63bce8cc""}","https://test12345.live/?participantId=8FD1D7CFE8C146558D361B11982CFF04&assignmentId=0f15e304-fc2b-4e74-b749-9359503d3df0&projectId=54f8d589-66fc-4c65-830f-1dcc63bce8cc","","null","<div style=""display: flex; justify-content: center; align-items: center;"">
                    <img src=""images/semantic/semantic_series_4/semantic_series_4_b.jpg"" style=""width: 300px; height: 300px;"" />
                  </div>","null","",""
"","","","","","html-keyboard-response","127","335633","0.0-92.0-2.0","8FD1D7CFE8C146558D361B11982CFF04","8FD1D7CFE8C146558D361B11982CFF04","0f15e304-fc2b-4e74-b749-9359503d3df0","54f8d589-66fc-4c65-830f-1dcc63bce8cc","{""participantId"":""8FD1D7CFE8C146558D361B11982CFF04"",""assignmentId"":""0f15e304-fc2b-4e74-b749-9359503d3df0"",""projectId"":""54f8d589-66fc-4c65-830f-1dcc63bce8cc""}","https://test12345.live/?participantId=8FD1D7CFE8C146558D361B11982CFF04&assignmentId=0f15e304-fc2b-4e74-b749-9359503d3df0&projectId=54f8d589-66fc-4c65-830f-1dcc63bce8cc","","null","<div style=""display: flex; justify-content: center; align-items: center;"">
                    <img src=""images/semantic/semantic_series_4/semantic_series_4_c.jpg"" style=""width: 300px; height: 300px;"" />
                  </div>","null","",""
"","","","","","html-keyboard-response","128","338635","0.0-92.0-3.0","8FD1D7CFE8C146558D361B11982CFF04","8FD1D7CFE8C146558D361B11982CFF04","0f15e304-fc2b-4e74-b749-9359503d3df0","54f8d589-66fc-4c65-830f-1dcc63bce8cc","{""participantId"":""8FD1D7CFE8C146558D361B11982CFF04"",""assignmentId"":""0f15e304-fc2b-4e74-b749-9359503d3df0"",""projectId"":""54f8d589-66fc-4c65-830f-1dcc63bce8cc""}","https://test12345.live/?participantId=8FD1D7CFE8C146558D361B11982CFF04&assignmentId=0f15e304-fc2b-4e74-b749-9359503d3df0&projectId=54f8d589-66fc-4c65-830f-1dcc63bce8cc","","null","<div style=""display: flex; justify-content: center; align-items: center;"">
                    <img src=""images/semantic/semantic_series_4/semantic_series_4_d.jpg"" style=""width: 300px; height: 300px;"" />
                  </div>","null","",""
"","","","","","html-button-response","129","339794","0.0-93.0","8FD1D7CFE8C146558D361B11982CFF04","8FD1D7CFE8C146558D361B11982CFF04","0f15e304-fc2b-4e74-b749-9359503d3df0","54f8d589-66fc-4c65-830f-1dcc63bce8cc","{""participantId"":""8FD1D7CFE8C146558D361B11982CFF04"",""assignmentId"":""0f15e304-fc2b-4e74-b749-9359503d3df0"",""projectId"":""54f8d589-66fc-4c65-830f-1dcc63bce8cc""}","https://test12345.live/?participantId=8FD1D7CFE8C146558D361B11982CFF04&assignmentId=0f15e304-fc2b-4e74-b749-9359503d3df0&projectId=54f8d589-66fc-4c65-830f-1dcc63bce8cc","","1158","Was there a person in the picture?","1","",""
"","","","","","survey-likert","130","341945","0.0-94.0","8FD1D7CFE8C146558D361B11982CFF04","8FD1D7CFE8C146558D361B11982CFF04","0f15e304-fc2b-4e74-b749-9359503d3df0","54f8d589-66fc-4c65-830f-1dcc63bce8cc","{""participantId"":""8FD1D7CFE8C146558D361B11982CFF04"",""assignmentId"":""0f15e304-fc2b-4e74-b749-9359503d3df0"",""projectId"":""54f8d589-66fc-4c65-830f-1dcc63bce8cc""}","https://test12345.live/?participantId=8FD1D7CFE8C146558D361B11982CFF04&assignmentId=0f15e304-fc2b-4e74-b749-9359503d3df0&projectId=54f8d589-66fc-4c65-830f-1dcc63bce8cc","","2151","","{""Q0"":0}","","[0]"
"","","","","","survey-text","131","372227","0.0-95.0","8FD1D7CFE8C146558D361B11982CFF04","8FD1D7CFE8C146558D361B11982CFF04","0f15e304-fc2b-4e74-b749-9359503d3df0","54f8d589-66fc-4c65-830f-1dcc63bce8cc","{""participantId"":""8FD1D7CFE8C146558D361B11982CFF04"",""assignmentId"":""0f15e304-fc2b-4e74-b749-9359503d3df0"",""projectId"":""54f8d589-66fc-4c65-830f-1dcc63bce8cc""}","https://test12345.live/?participantId=8FD1D7CFE8C146558D361B11982CFF04&assignmentId=0f15e304-fc2b-4e74-b749-9359503d3df0&projectId=54f8d589-66fc-4c65-830f-1dcc63bce8cc","","30279","","{""Q0"":""I can't find any differences. They both  contained the same types of images""}","",""
