"success","timeout","failed_images","failed_audio","failed_video","trial_type","trial_index","time_elapsed","internal_node_id","subject","subject_id","study_id","session_id","urlvar","current_url","view_history","rt","stimulus","response","choice","question_order"
"true","false","[]","[]","[]","preload","0","3283","0.0-0.0","7FF5A24F8A074BBFA908D7E96C37E3AF","7FF5A24F8A074BBFA908D7E96C37E3AF","3aaa759d-b943-4755-962e-e8469b961d87","54f8d589-66fc-4c65-830f-1dcc63bce8cc","{""participantId"":""7FF5A24F8A074BBFA908D7E96C37E3AF"",""assignmentId"":""3aaa759d-b943-4755-962e-e8469b961d87"",""projectId"":""54f8d589-66fc-4c65-830f-1dcc63bce8cc""}","https://test12345.live/?participantId=7FF5A24F8A074BBFA908D7E96C37E3AF&assignmentId=3aaa759d-b943-4755-962e-e8469b961d87&projectId=54f8d589-66fc-4c65-830f-1dcc63bce8cc","","","","","",""
"","","","","","instructions","1","5976","0.0-1.0","7FF5A24F8A074BBFA908D7E96C37E3AF","7FF5A24F8A074BBFA908D7E96C37E3AF","3aaa759d-b943-4755-962e-e8469b961d87","54f8d589-66fc-4c65-830f-1dcc63bce8cc","{""participantId"":""7FF5A24F8A074BBFA908D7E96C37E3AF"",""assignmentId"":""3aaa759d-b943-4755-962e-e8469b961d87"",""projectId"":""54f8d589-66fc-4c65-830f-1dcc63bce8cc""}","https://test12345.live/?participantId=7FF5A24F8A074BBFA908D7E96C37E3AF&assignmentId=3aaa759d-b943-4755-962e-e8469b961d87&projectId=54f8d589-66fc-4c65-830f-1dcc63bce8cc","[{""page_index"":0,""viewing_time"":2690}]","2691","","","",""
"","","","","","instructions","2","8767","0.0-2.0","7FF5A24F8A074BBFA908D7E96C37E3AF","7FF5A24F8A074BBFA908D7E96C37E3AF","3aaa759d-b943-4755-962e-e8469b961d87","54f8d589-66fc-4c65-830f-1dcc63bce8cc","{""participantId"":""7FF5A24F8A074BBFA908D7E96C37E3AF"",""assignmentId"":""3aaa759d-b943-4755-962e-e8469b961d87"",""projectId"":""54f8d589-66fc-4c65-830f-1dcc63bce8cc""}","https://test12345.live/?participantId=7FF5A24F8A074BBFA908D7E96C37E3AF&assignmentId=3aaa759d-b943-4755-962e-e8469b961d87&projectId=54f8d589-66fc-4c65-830f-1dcc63bce8cc","[{""page_index"":0,""viewing_time"":2790}]","2790","","","",""
"true","","","","","fullscreen","3","11527","0.0-3.0","7FF5A24F8A074BBFA908D7E96C37E3AF","7FF5A24F8A074BBFA908D7E96C37E3AF","3aaa759d-b943-4755-962e-e8469b961d87","54f8d589-66fc-4c65-830f-1dcc63bce8cc","{""participantId"":""7FF5A24F8A074BBFA908D7E96C37E3AF"",""assignmentId"":""3aaa759d-b943-4755-962e-e8469b961d87"",""projectId"":""54f8d589-66fc-4c65-830f-1dcc63bce8cc""}","https://test12345.live/?participantId=7FF5A24F8A074BBFA908D7E96C37E3AF&assignmentId=3aaa759d-b943-4755-962e-e8469b961d87&projectId=54f8d589-66fc-4c65-830f-1dcc63bce8cc","","1756","","","",""
"","","","","","instructions","4","18209","0.0-4.0","7FF5A24F8A074BBFA908D7E96C37E3AF","7FF5A24F8A074BBFA908D7E96C37E3AF","3aaa759d-b943-4755-962e-e8469b961d87","54f8d589-66fc-4c65-830f-1dcc63bce8cc","{""participantId"":""7FF5A24F8A074BBFA908D7E96C37E3AF"",""assignmentId"":""3aaa759d-b943-4755-962e-e8469b961d87"",""projectId"":""54f8d589-66fc-4c65-830f-1dcc63bce8cc""}","https://test12345.live/?participantId=7FF5A24F8A074BBFA908D7E96C37E3AF&assignmentId=3aaa759d-b943-4755-962e-e8469b961d87&projectId=54f8d589-66fc-4c65-830f-1dcc63bce8cc","[{""page_index"":0,""viewing_time"":6681}]","6681","","","",""
"","","","","","html-button-response","5","22314","0.0-5.0","7FF5A24F8A074BBFA908D7E96C37E3AF","7FF5A24F8A074BBFA908D7E96C37E3AF","3aaa759d-b943-4755-962e-e8469b961d87","54f8d589-66fc-4c65-830f-1dcc63bce8cc","{""participantId"":""7FF5A24F8A074BBFA908D7E96C37E3AF"",""assignmentId"":""3aaa759d-b943-4755-962e-e8469b961d87"",""projectId"":""54f8d589-66fc-4c65-830f-1dcc63bce8cc""}","https://test12345.live/?participantId=7FF5A24F8A074BBFA908D7E96C37E3AF&assignmentId=3aaa759d-b943-4755-962e-e8469b961d87&projectId=54f8d589-66fc-4c65-830f-1dcc63bce8cc","","4102","
    <div style=""display: flex; justify-content: center; align-items: center;"">
      <img src=""images/red_deck_2.png"" style=""width: 300px; height: 300px; margin-right: 10px;"" />
      <img src=""images/blue_deck_1.png"" style=""width: 300px; height: 300px;"" />
    </div>","1","1",""
"","","","","","html-keyboard-response","6","25316","0.0-7.0-0.0","7FF5A24F8A074BBFA908D7E96C37E3AF","7FF5A24F8A074BBFA908D7E96C37E3AF","3aaa759d-b943-4755-962e-e8469b961d87","54f8d589-66fc-4c65-830f-1dcc63bce8cc","{""participantId"":""7FF5A24F8A074BBFA908D7E96C37E3AF"",""assignmentId"":""3aaa759d-b943-4755-962e-e8469b961d87"",""projectId"":""54f8d589-66fc-4c65-830f-1dcc63bce8cc""}","https://test12345.live/?participantId=7FF5A24F8A074BBFA908D7E96C37E3AF&assignmentId=3aaa759d-b943-4755-962e-e8469b961d87&projectId=54f8d589-66fc-4c65-830f-1dcc63bce8cc","","null","<div style=""display: flex; justify-content: center; align-items: center;"">
                    <img src=""images/semantic/semantic_series_3/semantic_series_3_a.jpg"" style=""width: 300px; height: 300px;"" />
                  </div>","null","",""
"","","","","","html-keyboard-response","7","28317","0.0-7.0-1.0","7FF5A24F8A074BBFA908D7E96C37E3AF","7FF5A24F8A074BBFA908D7E96C37E3AF","3aaa759d-b943-4755-962e-e8469b961d87","54f8d589-66fc-4c65-830f-1dcc63bce8cc","{""participantId"":""7FF5A24F8A074BBFA908D7E96C37E3AF"",""assignmentId"":""3aaa759d-b943-4755-962e-e8469b961d87"",""projectId"":""54f8d589-66fc-4c65-830f-1dcc63bce8cc""}","https://test12345.live/?participantId=7FF5A24F8A074BBFA908D7E96C37E3AF&assignmentId=3aaa759d-b943-4755-962e-e8469b961d87&projectId=54f8d589-66fc-4c65-830f-1dcc63bce8cc","","null","<div style=""display: flex; justify-content: center; align-items: center;"">
                    <img src=""images/semantic/semantic_series_3/semantic_series_3_b.jpg"" style=""width: 300px; height: 300px;"" />
                  </div>","null","",""
"","","","","","html-keyboard-response","8","31318","0.0-7.0-2.0","7FF5A24F8A074BBFA908D7E96C37E3AF","7FF5A24F8A074BBFA908D7E96C37E3AF","3aaa759d-b943-4755-962e-e8469b961d87","54f8d589-66fc-4c65-830f-1dcc63bce8cc","{""participantId"":""7FF5A24F8A074BBFA908D7E96C37E3AF"",""assignmentId"":""3aaa759d-b943-4755-962e-e8469b961d87"",""projectId"":""54f8d589-66fc-4c65-830f-1dcc63bce8cc""}","https://test12345.live/?participantId=7FF5A24F8A074BBFA908D7E96C37E3AF&assignmentId=3aaa759d-b943-4755-962e-e8469b961d87&projectId=54f8d589-66fc-4c65-830f-1dcc63bce8cc","","null","<div style=""display: flex; justify-content: center; align-items: center;"">
                    <img src=""images/semantic/semantic_series_3/semantic_series_3_c.jpg"" style=""width: 300px; height: 300px;"" />
                  </div>","null","",""
"","","","","","html-keyboard-response","9","34320","0.0-7.0-3.0","7FF5A24F8A074BBFA908D7E96C37E3AF","7FF5A24F8A074BBFA908D7E96C37E3AF","3aaa759d-b943-4755-962e-e8469b961d87","54f8d589-66fc-4c65-830f-1dcc63bce8cc","{""participantId"":""7FF5A24F8A074BBFA908D7E96C37E3AF"",""assignmentId"":""3aaa759d-b943-4755-962e-e8469b961d87"",""projectId"":""54f8d589-66fc-4c65-830f-1dcc63bce8cc""}","https://test12345.live/?participantId=7FF5A24F8A074BBFA908D7E96C37E3AF&assignmentId=3aaa759d-b943-4755-962e-e8469b961d87&projectId=54f8d589-66fc-4c65-830f-1dcc63bce8cc","","null","<div style=""display: flex; justify-content: center; align-items: center;"">
                    <img src=""images/semantic/semantic_series_3/semantic_series_3_d.jpg"" style=""width: 300px; height: 300px;"" />
                  </div>","null","",""
"","","","","","html-button-response","10","39564","0.0-8.0","7FF5A24F8A074BBFA908D7E96C37E3AF","7FF5A24F8A074BBFA908D7E96C37E3AF","3aaa759d-b943-4755-962e-e8469b961d87","54f8d589-66fc-4c65-830f-1dcc63bce8cc","{""participantId"":""7FF5A24F8A074BBFA908D7E96C37E3AF"",""assignmentId"":""3aaa759d-b943-4755-962e-e8469b961d87"",""projectId"":""54f8d589-66fc-4c65-830f-1dcc63bce8cc""}","https://test12345.live/?participantId=7FF5A24F8A074BBFA908D7E96C37E3AF&assignmentId=3aaa759d-b943-4755-962e-e8469b961d87&projectId=54f8d589-66fc-4c65-830f-1dcc63bce8cc","","5242","Was there a person in the picture?","0","",""
"","","","","","survey-likert","11","42659","0.0-9.0","7FF5A24F8A074BBFA908D7E96C37E3AF","7FF5A24F8A074BBFA908D7E96C37E3AF","3aaa759d-b943-4755-962e-e8469b961d87","54f8d589-66fc-4c65-830f-1dcc63bce8cc","{""participantId"":""7FF5A24F8A074BBFA908D7E96C37E3AF"",""assignmentId"":""3aaa759d-b943-4755-962e-e8469b961d87"",""projectId"":""54f8d589-66fc-4c65-830f-1dcc63bce8cc""}","https://test12345.live/?participantId=7FF5A24F8A074BBFA908D7E96C37E3AF&assignmentId=3aaa759d-b943-4755-962e-e8469b961d87&projectId=54f8d589-66fc-4c65-830f-1dcc63bce8cc","","3093","","{""Q0"":4}","","[0]"
"","","","","","html-button-response","12","45389","0.0-10.0","7FF5A24F8A074BBFA908D7E96C37E3AF","7FF5A24F8A074BBFA908D7E96C37E3AF","3aaa759d-b943-4755-962e-e8469b961d87","54f8d589-66fc-4c65-830f-1dcc63bce8cc","{""participantId"":""7FF5A24F8A074BBFA908D7E96C37E3AF"",""assignmentId"":""3aaa759d-b943-4755-962e-e8469b961d87"",""projectId"":""54f8d589-66fc-4c65-830f-1dcc63bce8cc""}","https://test12345.live/?participantId=7FF5A24F8A074BBFA908D7E96C37E3AF&assignmentId=3aaa759d-b943-4755-962e-e8469b961d87&projectId=54f8d589-66fc-4c65-830f-1dcc63bce8cc","","2728","
    <div style=""display: flex; justify-content: center; align-items: center;"">
      <img src=""images/red_deck_2.png"" style=""width: 300px; height: 300px; margin-right: 10px;"" />
      <img src=""images/blue_deck_1.png"" style=""width: 300px; height: 300px;"" />
    </div>","0","0",""
"","","","","","html-keyboard-response","13","48390","0.0-11.0-0.0","7FF5A24F8A074BBFA908D7E96C37E3AF","7FF5A24F8A074BBFA908D7E96C37E3AF","3aaa759d-b943-4755-962e-e8469b961d87","54f8d589-66fc-4c65-830f-1dcc63bce8cc","{""participantId"":""7FF5A24F8A074BBFA908D7E96C37E3AF"",""assignmentId"":""3aaa759d-b943-4755-962e-e8469b961d87"",""projectId"":""54f8d589-66fc-4c65-830f-1dcc63bce8cc""}","https://test12345.live/?participantId=7FF5A24F8A074BBFA908D7E96C37E3AF&assignmentId=3aaa759d-b943-4755-962e-e8469b961d87&projectId=54f8d589-66fc-4c65-830f-1dcc63bce8cc","","null","<div style=""display: flex; justify-content: center; align-items: center;"">
                    <img src=""images/causal/causal_series_3/causal_series_3_a.jpg"" style=""width: 300px; height: 300px;"" />
                  </div>","null","",""
"","","","","","html-keyboard-response","14","51392","0.0-11.0-1.0","7FF5A24F8A074BBFA908D7E96C37E3AF","7FF5A24F8A074BBFA908D7E96C37E3AF","3aaa759d-b943-4755-962e-e8469b961d87","54f8d589-66fc-4c65-830f-1dcc63bce8cc","{""participantId"":""7FF5A24F8A074BBFA908D7E96C37E3AF"",""assignmentId"":""3aaa759d-b943-4755-962e-e8469b961d87"",""projectId"":""54f8d589-66fc-4c65-830f-1dcc63bce8cc""}","https://test12345.live/?participantId=7FF5A24F8A074BBFA908D7E96C37E3AF&assignmentId=3aaa759d-b943-4755-962e-e8469b961d87&projectId=54f8d589-66fc-4c65-830f-1dcc63bce8cc","","null","<div style=""display: flex; justify-content: center; align-items: center;"">
                    <img src=""images/causal/causal_series_3/causal_series_3_b.jpg"" style=""width: 300px; height: 300px;"" />
                  </div>","null","",""
"","","","","","html-keyboard-response","15","54394","0.0-11.0-2.0","7FF5A24F8A074BBFA908D7E96C37E3AF","7FF5A24F8A074BBFA908D7E96C37E3AF","3aaa759d-b943-4755-962e-e8469b961d87","54f8d589-66fc-4c65-830f-1dcc63bce8cc","{""participantId"":""7FF5A24F8A074BBFA908D7E96C37E3AF"",""assignmentId"":""3aaa759d-b943-4755-962e-e8469b961d87"",""projectId"":""54f8d589-66fc-4c65-830f-1dcc63bce8cc""}","https://test12345.live/?participantId=7FF5A24F8A074BBFA908D7E96C37E3AF&assignmentId=3aaa759d-b943-4755-962e-e8469b961d87&projectId=54f8d589-66fc-4c65-830f-1dcc63bce8cc","","null","<div style=""display: flex; justify-content: center; align-items: center;"">
                    <img src=""images/causal/causal_series_3/causal_series_3_c.jpg"" style=""width: 300px; height: 300px;"" />
                  </div>","null","",""
"","","","","","html-keyboard-response","16","57396","0.0-11.0-3.0","7FF5A24F8A074BBFA908D7E96C37E3AF","7FF5A24F8A074BBFA908D7E96C37E3AF","3aaa759d-b943-4755-962e-e8469b961d87","54f8d589-66fc-4c65-830f-1dcc63bce8cc","{""participantId"":""7FF5A24F8A074BBFA908D7E96C37E3AF"",""assignmentId"":""3aaa759d-b943-4755-962e-e8469b961d87"",""projectId"":""54f8d589-66fc-4c65-830f-1dcc63bce8cc""}","https://test12345.live/?participantId=7FF5A24F8A074BBFA908D7E96C37E3AF&assignmentId=3aaa759d-b943-4755-962e-e8469b961d87&projectId=54f8d589-66fc-4c65-830f-1dcc63bce8cc","","null","<div style=""display: flex; justify-content: center; align-items: center;"">
                    <img src=""images/causal/causal_series_3/causal_series_3_d.jpg"" style=""width: 300px; height: 300px;"" />
                  </div>","null","",""
"","","","","","html-button-response","17","59590","0.0-13.0","7FF5A24F8A074BBFA908D7E96C37E3AF","7FF5A24F8A074BBFA908D7E96C37E3AF","3aaa759d-b943-4755-962e-e8469b961d87","54f8d589-66fc-4c65-830f-1dcc63bce8cc","{""participantId"":""7FF5A24F8A074BBFA908D7E96C37E3AF"",""assignmentId"":""3aaa759d-b943-4755-962e-e8469b961d87"",""projectId"":""54f8d589-66fc-4c65-830f-1dcc63bce8cc""}","https://test12345.live/?participantId=7FF5A24F8A074BBFA908D7E96C37E3AF&assignmentId=3aaa759d-b943-4755-962e-e8469b961d87&projectId=54f8d589-66fc-4c65-830f-1dcc63bce8cc","","2192","Was there a person in the picture?","0","",""
"","","","","","survey-likert","18","63140","0.0-14.0","7FF5A24F8A074BBFA908D7E96C37E3AF","7FF5A24F8A074BBFA908D7E96C37E3AF","3aaa759d-b943-4755-962e-e8469b961d87","54f8d589-66fc-4c65-830f-1dcc63bce8cc","{""participantId"":""7FF5A24F8A074BBFA908D7E96C37E3AF"",""assignmentId"":""3aaa759d-b943-4755-962e-e8469b961d87"",""projectId"":""54f8d589-66fc-4c65-830f-1dcc63bce8cc""}","https://test12345.live/?participantId=7FF5A24F8A074BBFA908D7E96C37E3AF&assignmentId=3aaa759d-b943-4755-962e-e8469b961d87&projectId=54f8d589-66fc-4c65-830f-1dcc63bce8cc","","3549","","{""Q0"":3}","","[0]"
"","","","","","html-button-response","19","64748","0.0-15.0","7FF5A24F8A074BBFA908D7E96C37E3AF","7FF5A24F8A074BBFA908D7E96C37E3AF","3aaa759d-b943-4755-962e-e8469b961d87","54f8d589-66fc-4c65-830f-1dcc63bce8cc","{""participantId"":""7FF5A24F8A074BBFA908D7E96C37E3AF"",""assignmentId"":""3aaa759d-b943-4755-962e-e8469b961d87"",""projectId"":""54f8d589-66fc-4c65-830f-1dcc63bce8cc""}","https://test12345.live/?participantId=7FF5A24F8A074BBFA908D7E96C37E3AF&assignmentId=3aaa759d-b943-4755-962e-e8469b961d87&projectId=54f8d589-66fc-4c65-830f-1dcc63bce8cc","","1605","
    <div style=""display: flex; justify-content: center; align-items: center;"">
      <img src=""images/red_deck_2.png"" style=""width: 300px; height: 300px; margin-right: 10px;"" />
      <img src=""images/blue_deck_1.png"" style=""width: 300px; height: 300px;"" />
    </div>","1","1",""
"","","","","","html-keyboard-response","20","67750","0.0-17.0-0.0","7FF5A24F8A074BBFA908D7E96C37E3AF","7FF5A24F8A074BBFA908D7E96C37E3AF","3aaa759d-b943-4755-962e-e8469b961d87","54f8d589-66fc-4c65-830f-1dcc63bce8cc","{""participantId"":""7FF5A24F8A074BBFA908D7E96C37E3AF"",""assignmentId"":""3aaa759d-b943-4755-962e-e8469b961d87"",""projectId"":""54f8d589-66fc-4c65-830f-1dcc63bce8cc""}","https://test12345.live/?participantId=7FF5A24F8A074BBFA908D7E96C37E3AF&assignmentId=3aaa759d-b943-4755-962e-e8469b961d87&projectId=54f8d589-66fc-4c65-830f-1dcc63bce8cc","","null","<div style=""display: flex; justify-content: center; align-items: center;"">
                    <img src=""images/semantic/semantic_series_9/semantic_series_9_a.jpg"" style=""width: 300px; height: 300px;"" />
                  </div>","null","",""
"","","","","","html-keyboard-response","21","70752","0.0-17.0-1.0","7FF5A24F8A074BBFA908D7E96C37E3AF","7FF5A24F8A074BBFA908D7E96C37E3AF","3aaa759d-b943-4755-962e-e8469b961d87","54f8d589-66fc-4c65-830f-1dcc63bce8cc","{""participantId"":""7FF5A24F8A074BBFA908D7E96C37E3AF"",""assignmentId"":""3aaa759d-b943-4755-962e-e8469b961d87"",""projectId"":""54f8d589-66fc-4c65-830f-1dcc63bce8cc""}","https://test12345.live/?participantId=7FF5A24F8A074BBFA908D7E96C37E3AF&assignmentId=3aaa759d-b943-4755-962e-e8469b961d87&projectId=54f8d589-66fc-4c65-830f-1dcc63bce8cc","","null","<div style=""display: flex; justify-content: center; align-items: center;"">
                    <img src=""images/semantic/semantic_series_9/semantic_series_9_b.jpg"" style=""width: 300px; height: 300px;"" />
                  </div>","null","",""
"","","","","","html-keyboard-response","22","73753","0.0-17.0-2.0","7FF5A24F8A074BBFA908D7E96C37E3AF","7FF5A24F8A074BBFA908D7E96C37E3AF","3aaa759d-b943-4755-962e-e8469b961d87","54f8d589-66fc-4c65-830f-1dcc63bce8cc","{""participantId"":""7FF5A24F8A074BBFA908D7E96C37E3AF"",""assignmentId"":""3aaa759d-b943-4755-962e-e8469b961d87"",""projectId"":""54f8d589-66fc-4c65-830f-1dcc63bce8cc""}","https://test12345.live/?participantId=7FF5A24F8A074BBFA908D7E96C37E3AF&assignmentId=3aaa759d-b943-4755-962e-e8469b961d87&projectId=54f8d589-66fc-4c65-830f-1dcc63bce8cc","","null","<div style=""display: flex; justify-content: center; align-items: center;"">
                    <img src=""images/semantic/semantic_series_9/semantic_series_9_c.jpg"" style=""width: 300px; height: 300px;"" />
                  </div>","null","",""
"","","","","","html-keyboard-response","23","76754","0.0-17.0-3.0","7FF5A24F8A074BBFA908D7E96C37E3AF","7FF5A24F8A074BBFA908D7E96C37E3AF","3aaa759d-b943-4755-962e-e8469b961d87","54f8d589-66fc-4c65-830f-1dcc63bce8cc","{""participantId"":""7FF5A24F8A074BBFA908D7E96C37E3AF"",""assignmentId"":""3aaa759d-b943-4755-962e-e8469b961d87"",""projectId"":""54f8d589-66fc-4c65-830f-1dcc63bce8cc""}","https://test12345.live/?participantId=7FF5A24F8A074BBFA908D7E96C37E3AF&assignmentId=3aaa759d-b943-4755-962e-e8469b961d87&projectId=54f8d589-66fc-4c65-830f-1dcc63bce8cc","","null","<div style=""display: flex; justify-content: center; align-items: center;"">
                    <img src=""images/semantic/semantic_series_9/semantic_series_9_d.jpg"" style=""width: 300px; height: 300px;"" />
                  </div>","null","",""
"","","","","","html-button-response","24","78968","0.0-18.0","7FF5A24F8A074BBFA908D7E96C37E3AF","7FF5A24F8A074BBFA908D7E96C37E3AF","3aaa759d-b943-4755-962e-e8469b961d87","54f8d589-66fc-4c65-830f-1dcc63bce8cc","{""participantId"":""7FF5A24F8A074BBFA908D7E96C37E3AF"",""assignmentId"":""3aaa759d-b943-4755-962e-e8469b961d87"",""projectId"":""54f8d589-66fc-4c65-830f-1dcc63bce8cc""}","https://test12345.live/?participantId=7FF5A24F8A074BBFA908D7E96C37E3AF&assignmentId=3aaa759d-b943-4755-962e-e8469b961d87&projectId=54f8d589-66fc-4c65-830f-1dcc63bce8cc","","2212","Was there a person in the picture?","1","",""
"","","","","","survey-likert","25","80717","0.0-19.0","7FF5A24F8A074BBFA908D7E96C37E3AF","7FF5A24F8A074BBFA908D7E96C37E3AF","3aaa759d-b943-4755-962e-e8469b961d87","54f8d589-66fc-4c65-830f-1dcc63bce8cc","{""participantId"":""7FF5A24F8A074BBFA908D7E96C37E3AF"",""assignmentId"":""3aaa759d-b943-4755-962e-e8469b961d87"",""projectId"":""54f8d589-66fc-4c65-830f-1dcc63bce8cc""}","https://test12345.live/?participantId=7FF5A24F8A074BBFA908D7E96C37E3AF&assignmentId=3aaa759d-b943-4755-962e-e8469b961d87&projectId=54f8d589-66fc-4c65-830f-1dcc63bce8cc","","1748","","{""Q0"":1}","","[0]"
"","","","","","html-button-response","26","82173","0.0-20.0","7FF5A24F8A074BBFA908D7E96C37E3AF","7FF5A24F8A074BBFA908D7E96C37E3AF","3aaa759d-b943-4755-962e-e8469b961d87","54f8d589-66fc-4c65-830f-1dcc63bce8cc","{""participantId"":""7FF5A24F8A074BBFA908D7E96C37E3AF"",""assignmentId"":""3aaa759d-b943-4755-962e-e8469b961d87"",""projectId"":""54f8d589-66fc-4c65-830f-1dcc63bce8cc""}","https://test12345.live/?participantId=7FF5A24F8A074BBFA908D7E96C37E3AF&assignmentId=3aaa759d-b943-4755-962e-e8469b961d87&projectId=54f8d589-66fc-4c65-830f-1dcc63bce8cc","","1454","
    <div style=""display: flex; justify-content: center; align-items: center;"">
      <img src=""images/red_deck_2.png"" style=""width: 300px; height: 300px; margin-right: 10px;"" />
      <img src=""images/blue_deck_1.png"" style=""width: 300px; height: 300px;"" />
    </div>","0","0",""
"","","","","","html-keyboard-response","27","85174","0.0-21.0-0.0","7FF5A24F8A074BBFA908D7E96C37E3AF","7FF5A24F8A074BBFA908D7E96C37E3AF","3aaa759d-b943-4755-962e-e8469b961d87","54f8d589-66fc-4c65-830f-1dcc63bce8cc","{""participantId"":""7FF5A24F8A074BBFA908D7E96C37E3AF"",""assignmentId"":""3aaa759d-b943-4755-962e-e8469b961d87"",""projectId"":""54f8d589-66fc-4c65-830f-1dcc63bce8cc""}","https://test12345.live/?participantId=7FF5A24F8A074BBFA908D7E96C37E3AF&assignmentId=3aaa759d-b943-4755-962e-e8469b961d87&projectId=54f8d589-66fc-4c65-830f-1dcc63bce8cc","","null","<div style=""display: flex; justify-content: center; align-items: center;"">
                    <img src=""images/causal/causal_series_14/causal_series_14_a.jpg"" style=""width: 300px; height: 300px;"" />
                  </div>","null","",""
"","","","","","html-keyboard-response","28","88175","0.0-21.0-1.0","7FF5A24F8A074BBFA908D7E96C37E3AF","7FF5A24F8A074BBFA908D7E96C37E3AF","3aaa759d-b943-4755-962e-e8469b961d87","54f8d589-66fc-4c65-830f-1dcc63bce8cc","{""participantId"":""7FF5A24F8A074BBFA908D7E96C37E3AF"",""assignmentId"":""3aaa759d-b943-4755-962e-e8469b961d87"",""projectId"":""54f8d589-66fc-4c65-830f-1dcc63bce8cc""}","https://test12345.live/?participantId=7FF5A24F8A074BBFA908D7E96C37E3AF&assignmentId=3aaa759d-b943-4755-962e-e8469b961d87&projectId=54f8d589-66fc-4c65-830f-1dcc63bce8cc","","null","<div style=""display: flex; justify-content: center; align-items: center;"">
                    <img src=""images/causal/causal_series_14/causal_series_14_b.jpg"" style=""width: 300px; height: 300px;"" />
                  </div>","null","",""
"","","","","","html-keyboard-response","29","91177","0.0-21.0-2.0","7FF5A24F8A074BBFA908D7E96C37E3AF","7FF5A24F8A074BBFA908D7E96C37E3AF","3aaa759d-b943-4755-962e-e8469b961d87","54f8d589-66fc-4c65-830f-1dcc63bce8cc","{""participantId"":""7FF5A24F8A074BBFA908D7E96C37E3AF"",""assignmentId"":""3aaa759d-b943-4755-962e-e8469b961d87"",""projectId"":""54f8d589-66fc-4c65-830f-1dcc63bce8cc""}","https://test12345.live/?participantId=7FF5A24F8A074BBFA908D7E96C37E3AF&assignmentId=3aaa759d-b943-4755-962e-e8469b961d87&projectId=54f8d589-66fc-4c65-830f-1dcc63bce8cc","","null","<div style=""display: flex; justify-content: center; align-items: center;"">
                    <img src=""images/causal/causal_series_14/causal_series_14_c.jpg"" style=""width: 300px; height: 300px;"" />
                  </div>","null","",""
"","","","","","html-keyboard-response","30","94179","0.0-21.0-3.0","7FF5A24F8A074BBFA908D7E96C37E3AF","7FF5A24F8A074BBFA908D7E96C37E3AF","3aaa759d-b943-4755-962e-e8469b961d87","54f8d589-66fc-4c65-830f-1dcc63bce8cc","{""participantId"":""7FF5A24F8A074BBFA908D7E96C37E3AF"",""assignmentId"":""3aaa759d-b943-4755-962e-e8469b961d87"",""projectId"":""54f8d589-66fc-4c65-830f-1dcc63bce8cc""}","https://test12345.live/?participantId=7FF5A24F8A074BBFA908D7E96C37E3AF&assignmentId=3aaa759d-b943-4755-962e-e8469b961d87&projectId=54f8d589-66fc-4c65-830f-1dcc63bce8cc","","null","<div style=""display: flex; justify-content: center; align-items: center;"">
                    <img src=""images/causal/causal_series_14/causal_series_14_d.jpg"" style=""width: 300px; height: 300px;"" />
                  </div>","null","",""
"","","","","","html-button-response","31","95602","0.0-23.0","7FF5A24F8A074BBFA908D7E96C37E3AF","7FF5A24F8A074BBFA908D7E96C37E3AF","3aaa759d-b943-4755-962e-e8469b961d87","54f8d589-66fc-4c65-830f-1dcc63bce8cc","{""participantId"":""7FF5A24F8A074BBFA908D7E96C37E3AF"",""assignmentId"":""3aaa759d-b943-4755-962e-e8469b961d87"",""projectId"":""54f8d589-66fc-4c65-830f-1dcc63bce8cc""}","https://test12345.live/?participantId=7FF5A24F8A074BBFA908D7E96C37E3AF&assignmentId=3aaa759d-b943-4755-962e-e8469b961d87&projectId=54f8d589-66fc-4c65-830f-1dcc63bce8cc","","1420","Was there a person in the picture?","0","",""
"","","","","","survey-likert","32","97442","0.0-24.0","7FF5A24F8A074BBFA908D7E96C37E3AF","7FF5A24F8A074BBFA908D7E96C37E3AF","3aaa759d-b943-4755-962e-e8469b961d87","54f8d589-66fc-4c65-830f-1dcc63bce8cc","{""participantId"":""7FF5A24F8A074BBFA908D7E96C37E3AF"",""assignmentId"":""3aaa759d-b943-4755-962e-e8469b961d87"",""projectId"":""54f8d589-66fc-4c65-830f-1dcc63bce8cc""}","https://test12345.live/?participantId=7FF5A24F8A074BBFA908D7E96C37E3AF&assignmentId=3aaa759d-b943-4755-962e-e8469b961d87&projectId=54f8d589-66fc-4c65-830f-1dcc63bce8cc","","1840","","{""Q0"":3}","","[0]"
"","","","","","html-button-response","33","98483","0.0-25.0","7FF5A24F8A074BBFA908D7E96C37E3AF","7FF5A24F8A074BBFA908D7E96C37E3AF","3aaa759d-b943-4755-962e-e8469b961d87","54f8d589-66fc-4c65-830f-1dcc63bce8cc","{""participantId"":""7FF5A24F8A074BBFA908D7E96C37E3AF"",""assignmentId"":""3aaa759d-b943-4755-962e-e8469b961d87"",""projectId"":""54f8d589-66fc-4c65-830f-1dcc63bce8cc""}","https://test12345.live/?participantId=7FF5A24F8A074BBFA908D7E96C37E3AF&assignmentId=3aaa759d-b943-4755-962e-e8469b961d87&projectId=54f8d589-66fc-4c65-830f-1dcc63bce8cc","","1039","
    <div style=""display: flex; justify-content: center; align-items: center;"">
      <img src=""images/red_deck_2.png"" style=""width: 300px; height: 300px; margin-right: 10px;"" />
      <img src=""images/blue_deck_1.png"" style=""width: 300px; height: 300px;"" />
    </div>","1","1",""
"","","","","","html-keyboard-response","34","101485","0.0-27.0-0.0","7FF5A24F8A074BBFA908D7E96C37E3AF","7FF5A24F8A074BBFA908D7E96C37E3AF","3aaa759d-b943-4755-962e-e8469b961d87","54f8d589-66fc-4c65-830f-1dcc63bce8cc","{""participantId"":""7FF5A24F8A074BBFA908D7E96C37E3AF"",""assignmentId"":""3aaa759d-b943-4755-962e-e8469b961d87"",""projectId"":""54f8d589-66fc-4c65-830f-1dcc63bce8cc""}","https://test12345.live/?participantId=7FF5A24F8A074BBFA908D7E96C37E3AF&assignmentId=3aaa759d-b943-4755-962e-e8469b961d87&projectId=54f8d589-66fc-4c65-830f-1dcc63bce8cc","","null","<div style=""display: flex; justify-content: center; align-items: center;"">
                    <img src=""images/semantic/semantic_series_8/semantic_series_8_a.jpg"" style=""width: 300px; height: 300px;"" />
                  </div>","null","",""
"","","","","","html-keyboard-response","35","104487","0.0-27.0-1.0","7FF5A24F8A074BBFA908D7E96C37E3AF","7FF5A24F8A074BBFA908D7E96C37E3AF","3aaa759d-b943-4755-962e-e8469b961d87","54f8d589-66fc-4c65-830f-1dcc63bce8cc","{""participantId"":""7FF5A24F8A074BBFA908D7E96C37E3AF"",""assignmentId"":""3aaa759d-b943-4755-962e-e8469b961d87"",""projectId"":""54f8d589-66fc-4c65-830f-1dcc63bce8cc""}","https://test12345.live/?participantId=7FF5A24F8A074BBFA908D7E96C37E3AF&assignmentId=3aaa759d-b943-4755-962e-e8469b961d87&projectId=54f8d589-66fc-4c65-830f-1dcc63bce8cc","","null","<div style=""display: flex; justify-content: center; align-items: center;"">
                    <img src=""images/semantic/semantic_series_8/semantic_series_8_b.jpg"" style=""width: 300px; height: 300px;"" />
                  </div>","null","",""
"","","","","","html-keyboard-response","36","107488","0.0-27.0-2.0","7FF5A24F8A074BBFA908D7E96C37E3AF","7FF5A24F8A074BBFA908D7E96C37E3AF","3aaa759d-b943-4755-962e-e8469b961d87","54f8d589-66fc-4c65-830f-1dcc63bce8cc","{""participantId"":""7FF5A24F8A074BBFA908D7E96C37E3AF"",""assignmentId"":""3aaa759d-b943-4755-962e-e8469b961d87"",""projectId"":""54f8d589-66fc-4c65-830f-1dcc63bce8cc""}","https://test12345.live/?participantId=7FF5A24F8A074BBFA908D7E96C37E3AF&assignmentId=3aaa759d-b943-4755-962e-e8469b961d87&projectId=54f8d589-66fc-4c65-830f-1dcc63bce8cc","","null","<div style=""display: flex; justify-content: center; align-items: center;"">
                    <img src=""images/semantic/semantic_series_8/semantic_series_8_c.jpg"" style=""width: 300px; height: 300px;"" />
                  </div>","null","",""
"","","","","","html-keyboard-response","37","110490","0.0-27.0-3.0","7FF5A24F8A074BBFA908D7E96C37E3AF","7FF5A24F8A074BBFA908D7E96C37E3AF","3aaa759d-b943-4755-962e-e8469b961d87","54f8d589-66fc-4c65-830f-1dcc63bce8cc","{""participantId"":""7FF5A24F8A074BBFA908D7E96C37E3AF"",""assignmentId"":""3aaa759d-b943-4755-962e-e8469b961d87"",""projectId"":""54f8d589-66fc-4c65-830f-1dcc63bce8cc""}","https://test12345.live/?participantId=7FF5A24F8A074BBFA908D7E96C37E3AF&assignmentId=3aaa759d-b943-4755-962e-e8469b961d87&projectId=54f8d589-66fc-4c65-830f-1dcc63bce8cc","","null","<div style=""display: flex; justify-content: center; align-items: center;"">
                    <img src=""images/semantic/semantic_series_8/semantic_series_8_d.jpg"" style=""width: 300px; height: 300px;"" />
                  </div>","null","",""
"","","","","","html-button-response","38","112440","0.0-28.0","7FF5A24F8A074BBFA908D7E96C37E3AF","7FF5A24F8A074BBFA908D7E96C37E3AF","3aaa759d-b943-4755-962e-e8469b961d87","54f8d589-66fc-4c65-830f-1dcc63bce8cc","{""participantId"":""7FF5A24F8A074BBFA908D7E96C37E3AF"",""assignmentId"":""3aaa759d-b943-4755-962e-e8469b961d87"",""projectId"":""54f8d589-66fc-4c65-830f-1dcc63bce8cc""}","https://test12345.live/?participantId=7FF5A24F8A074BBFA908D7E96C37E3AF&assignmentId=3aaa759d-b943-4755-962e-e8469b961d87&projectId=54f8d589-66fc-4c65-830f-1dcc63bce8cc","","1949","Was there a person in the picture?","1","",""
"","","","","","survey-likert","39","114152","0.0-29.0","7FF5A24F8A074BBFA908D7E96C37E3AF","7FF5A24F8A074BBFA908D7E96C37E3AF","3aaa759d-b943-4755-962e-e8469b961d87","54f8d589-66fc-4c65-830f-1dcc63bce8cc","{""participantId"":""7FF5A24F8A074BBFA908D7E96C37E3AF"",""assignmentId"":""3aaa759d-b943-4755-962e-e8469b961d87"",""projectId"":""54f8d589-66fc-4c65-830f-1dcc63bce8cc""}","https://test12345.live/?participantId=7FF5A24F8A074BBFA908D7E96C37E3AF&assignmentId=3aaa759d-b943-4755-962e-e8469b961d87&projectId=54f8d589-66fc-4c65-830f-1dcc63bce8cc","","1709","","{""Q0"":3}","","[0]"
"","","","","","html-button-response","40","114998","0.0-30.0","7FF5A24F8A074BBFA908D7E96C37E3AF","7FF5A24F8A074BBFA908D7E96C37E3AF","3aaa759d-b943-4755-962e-e8469b961d87","54f8d589-66fc-4c65-830f-1dcc63bce8cc","{""participantId"":""7FF5A24F8A074BBFA908D7E96C37E3AF"",""assignmentId"":""3aaa759d-b943-4755-962e-e8469b961d87"",""projectId"":""54f8d589-66fc-4c65-830f-1dcc63bce8cc""}","https://test12345.live/?participantId=7FF5A24F8A074BBFA908D7E96C37E3AF&assignmentId=3aaa759d-b943-4755-962e-e8469b961d87&projectId=54f8d589-66fc-4c65-830f-1dcc63bce8cc","","844","
    <div style=""display: flex; justify-content: center; align-items: center;"">
      <img src=""images/red_deck_2.png"" style=""width: 300px; height: 300px; margin-right: 10px;"" />
      <img src=""images/blue_deck_1.png"" style=""width: 300px; height: 300px;"" />
    </div>","1","1",""
"","","","","","html-keyboard-response","41","118000","0.0-32.0-0.0","7FF5A24F8A074BBFA908D7E96C37E3AF","7FF5A24F8A074BBFA908D7E96C37E3AF","3aaa759d-b943-4755-962e-e8469b961d87","54f8d589-66fc-4c65-830f-1dcc63bce8cc","{""participantId"":""7FF5A24F8A074BBFA908D7E96C37E3AF"",""assignmentId"":""3aaa759d-b943-4755-962e-e8469b961d87"",""projectId"":""54f8d589-66fc-4c65-830f-1dcc63bce8cc""}","https://test12345.live/?participantId=7FF5A24F8A074BBFA908D7E96C37E3AF&assignmentId=3aaa759d-b943-4755-962e-e8469b961d87&projectId=54f8d589-66fc-4c65-830f-1dcc63bce8cc","","null","<div style=""display: flex; justify-content: center; align-items: center;"">
                    <img src=""images/semantic/semantic_series_11/semantic_series_11_a.jpg"" style=""width: 300px; height: 300px;"" />
                  </div>","null","",""
"","","","","","html-keyboard-response","42","121002","0.0-32.0-1.0","7FF5A24F8A074BBFA908D7E96C37E3AF","7FF5A24F8A074BBFA908D7E96C37E3AF","3aaa759d-b943-4755-962e-e8469b961d87","54f8d589-66fc-4c65-830f-1dcc63bce8cc","{""participantId"":""7FF5A24F8A074BBFA908D7E96C37E3AF"",""assignmentId"":""3aaa759d-b943-4755-962e-e8469b961d87"",""projectId"":""54f8d589-66fc-4c65-830f-1dcc63bce8cc""}","https://test12345.live/?participantId=7FF5A24F8A074BBFA908D7E96C37E3AF&assignmentId=3aaa759d-b943-4755-962e-e8469b961d87&projectId=54f8d589-66fc-4c65-830f-1dcc63bce8cc","","null","<div style=""display: flex; justify-content: center; align-items: center;"">
                    <img src=""images/semantic/semantic_series_11/semantic_series_11_b.jpg"" style=""width: 300px; height: 300px;"" />
                  </div>","null","",""
"","","","","","html-keyboard-response","43","124004","0.0-32.0-2.0","7FF5A24F8A074BBFA908D7E96C37E3AF","7FF5A24F8A074BBFA908D7E96C37E3AF","3aaa759d-b943-4755-962e-e8469b961d87","54f8d589-66fc-4c65-830f-1dcc63bce8cc","{""participantId"":""7FF5A24F8A074BBFA908D7E96C37E3AF"",""assignmentId"":""3aaa759d-b943-4755-962e-e8469b961d87"",""projectId"":""54f8d589-66fc-4c65-830f-1dcc63bce8cc""}","https://test12345.live/?participantId=7FF5A24F8A074BBFA908D7E96C37E3AF&assignmentId=3aaa759d-b943-4755-962e-e8469b961d87&projectId=54f8d589-66fc-4c65-830f-1dcc63bce8cc","","null","<div style=""display: flex; justify-content: center; align-items: center;"">
                    <img src=""images/semantic/semantic_series_11/semantic_series_11_c.jpg"" style=""width: 300px; height: 300px;"" />
                  </div>","null","",""
"","","","","","html-keyboard-response","44","127006","0.0-32.0-3.0","7FF5A24F8A074BBFA908D7E96C37E3AF","7FF5A24F8A074BBFA908D7E96C37E3AF","3aaa759d-b943-4755-962e-e8469b961d87","54f8d589-66fc-4c65-830f-1dcc63bce8cc","{""participantId"":""7FF5A24F8A074BBFA908D7E96C37E3AF"",""assignmentId"":""3aaa759d-b943-4755-962e-e8469b961d87"",""projectId"":""54f8d589-66fc-4c65-830f-1dcc63bce8cc""}","https://test12345.live/?participantId=7FF5A24F8A074BBFA908D7E96C37E3AF&assignmentId=3aaa759d-b943-4755-962e-e8469b961d87&projectId=54f8d589-66fc-4c65-830f-1dcc63bce8cc","","null","<div style=""display: flex; justify-content: center; align-items: center;"">
                    <img src=""images/semantic/semantic_series_11/semantic_series_11_d.jpg"" style=""width: 300px; height: 300px;"" />
                  </div>","null","",""
"","","","","","html-button-response","45","128397","0.0-33.0","7FF5A24F8A074BBFA908D7E96C37E3AF","7FF5A24F8A074BBFA908D7E96C37E3AF","3aaa759d-b943-4755-962e-e8469b961d87","54f8d589-66fc-4c65-830f-1dcc63bce8cc","{""participantId"":""7FF5A24F8A074BBFA908D7E96C37E3AF"",""assignmentId"":""3aaa759d-b943-4755-962e-e8469b961d87"",""projectId"":""54f8d589-66fc-4c65-830f-1dcc63bce8cc""}","https://test12345.live/?participantId=7FF5A24F8A074BBFA908D7E96C37E3AF&assignmentId=3aaa759d-b943-4755-962e-e8469b961d87&projectId=54f8d589-66fc-4c65-830f-1dcc63bce8cc","","1390","Was there a person in the picture?","0","",""
"","","","","","survey-likert","46","130077","0.0-34.0","7FF5A24F8A074BBFA908D7E96C37E3AF","7FF5A24F8A074BBFA908D7E96C37E3AF","3aaa759d-b943-4755-962e-e8469b961d87","54f8d589-66fc-4c65-830f-1dcc63bce8cc","{""participantId"":""7FF5A24F8A074BBFA908D7E96C37E3AF"",""assignmentId"":""3aaa759d-b943-4755-962e-e8469b961d87"",""projectId"":""54f8d589-66fc-4c65-830f-1dcc63bce8cc""}","https://test12345.live/?participantId=7FF5A24F8A074BBFA908D7E96C37E3AF&assignmentId=3aaa759d-b943-4755-962e-e8469b961d87&projectId=54f8d589-66fc-4c65-830f-1dcc63bce8cc","","1678","","{""Q0"":2}","","[0]"
"","","","","","html-button-response","47","130976","0.0-35.0","7FF5A24F8A074BBFA908D7E96C37E3AF","7FF5A24F8A074BBFA908D7E96C37E3AF","3aaa759d-b943-4755-962e-e8469b961d87","54f8d589-66fc-4c65-830f-1dcc63bce8cc","{""participantId"":""7FF5A24F8A074BBFA908D7E96C37E3AF"",""assignmentId"":""3aaa759d-b943-4755-962e-e8469b961d87"",""projectId"":""54f8d589-66fc-4c65-830f-1dcc63bce8cc""}","https://test12345.live/?participantId=7FF5A24F8A074BBFA908D7E96C37E3AF&assignmentId=3aaa759d-b943-4755-962e-e8469b961d87&projectId=54f8d589-66fc-4c65-830f-1dcc63bce8cc","","897","
    <div style=""display: flex; justify-content: center; align-items: center;"">
      <img src=""images/red_deck_2.png"" style=""width: 300px; height: 300px; margin-right: 10px;"" />
      <img src=""images/blue_deck_1.png"" style=""width: 300px; height: 300px;"" />
    </div>","0","0",""
"","","","","","html-keyboard-response","48","133982","0.0-36.0-0.0","7FF5A24F8A074BBFA908D7E96C37E3AF","7FF5A24F8A074BBFA908D7E96C37E3AF","3aaa759d-b943-4755-962e-e8469b961d87","54f8d589-66fc-4c65-830f-1dcc63bce8cc","{""participantId"":""7FF5A24F8A074BBFA908D7E96C37E3AF"",""assignmentId"":""3aaa759d-b943-4755-962e-e8469b961d87"",""projectId"":""54f8d589-66fc-4c65-830f-1dcc63bce8cc""}","https://test12345.live/?participantId=7FF5A24F8A074BBFA908D7E96C37E3AF&assignmentId=3aaa759d-b943-4755-962e-e8469b961d87&projectId=54f8d589-66fc-4c65-830f-1dcc63bce8cc","","null","<div style=""display: flex; justify-content: center; align-items: center;"">
                    <img src=""images/causal/causal_series_16/causal_series_16_a.jpg"" style=""width: 300px; height: 300px;"" />
                  </div>","null","",""
"","","","","","html-keyboard-response","49","136983","0.0-36.0-1.0","7FF5A24F8A074BBFA908D7E96C37E3AF","7FF5A24F8A074BBFA908D7E96C37E3AF","3aaa759d-b943-4755-962e-e8469b961d87","54f8d589-66fc-4c65-830f-1dcc63bce8cc","{""participantId"":""7FF5A24F8A074BBFA908D7E96C37E3AF"",""assignmentId"":""3aaa759d-b943-4755-962e-e8469b961d87"",""projectId"":""54f8d589-66fc-4c65-830f-1dcc63bce8cc""}","https://test12345.live/?participantId=7FF5A24F8A074BBFA908D7E96C37E3AF&assignmentId=3aaa759d-b943-4755-962e-e8469b961d87&projectId=54f8d589-66fc-4c65-830f-1dcc63bce8cc","","null","<div style=""display: flex; justify-content: center; align-items: center;"">
                    <img src=""images/causal/causal_series_16/causal_series_16_b.jpg"" style=""width: 300px; height: 300px;"" />
                  </div>","null","",""
"","","","","","html-keyboard-response","50","139985","0.0-36.0-2.0","7FF5A24F8A074BBFA908D7E96C37E3AF","7FF5A24F8A074BBFA908D7E96C37E3AF","3aaa759d-b943-4755-962e-e8469b961d87","54f8d589-66fc-4c65-830f-1dcc63bce8cc","{""participantId"":""7FF5A24F8A074BBFA908D7E96C37E3AF"",""assignmentId"":""3aaa759d-b943-4755-962e-e8469b961d87"",""projectId"":""54f8d589-66fc-4c65-830f-1dcc63bce8cc""}","https://test12345.live/?participantId=7FF5A24F8A074BBFA908D7E96C37E3AF&assignmentId=3aaa759d-b943-4755-962e-e8469b961d87&projectId=54f8d589-66fc-4c65-830f-1dcc63bce8cc","","null","<div style=""display: flex; justify-content: center; align-items: center;"">
                    <img src=""images/causal/causal_series_16/causal_series_16_c.jpg"" style=""width: 300px; height: 300px;"" />
                  </div>","null","",""
"","","","","","html-keyboard-response","51","142987","0.0-36.0-3.0","7FF5A24F8A074BBFA908D7E96C37E3AF","7FF5A24F8A074BBFA908D7E96C37E3AF","3aaa759d-b943-4755-962e-e8469b961d87","54f8d589-66fc-4c65-830f-1dcc63bce8cc","{""participantId"":""7FF5A24F8A074BBFA908D7E96C37E3AF"",""assignmentId"":""3aaa759d-b943-4755-962e-e8469b961d87"",""projectId"":""54f8d589-66fc-4c65-830f-1dcc63bce8cc""}","https://test12345.live/?participantId=7FF5A24F8A074BBFA908D7E96C37E3AF&assignmentId=3aaa759d-b943-4755-962e-e8469b961d87&projectId=54f8d589-66fc-4c65-830f-1dcc63bce8cc","","null","<div style=""display: flex; justify-content: center; align-items: center;"">
                    <img src=""images/causal/causal_series_16/causal_series_16_d.jpg"" style=""width: 300px; height: 300px;"" />
                  </div>","null","",""
"","","","","","html-button-response","52","144408","0.0-38.0","7FF5A24F8A074BBFA908D7E96C37E3AF","7FF5A24F8A074BBFA908D7E96C37E3AF","3aaa759d-b943-4755-962e-e8469b961d87","54f8d589-66fc-4c65-830f-1dcc63bce8cc","{""participantId"":""7FF5A24F8A074BBFA908D7E96C37E3AF"",""assignmentId"":""3aaa759d-b943-4755-962e-e8469b961d87"",""projectId"":""54f8d589-66fc-4c65-830f-1dcc63bce8cc""}","https://test12345.live/?participantId=7FF5A24F8A074BBFA908D7E96C37E3AF&assignmentId=3aaa759d-b943-4755-962e-e8469b961d87&projectId=54f8d589-66fc-4c65-830f-1dcc63bce8cc","","1419","Was there a person in the picture?","0","",""
"","","","","","survey-likert","53","147756","0.0-39.0","7FF5A24F8A074BBFA908D7E96C37E3AF","7FF5A24F8A074BBFA908D7E96C37E3AF","3aaa759d-b943-4755-962e-e8469b961d87","54f8d589-66fc-4c65-830f-1dcc63bce8cc","{""participantId"":""7FF5A24F8A074BBFA908D7E96C37E3AF"",""assignmentId"":""3aaa759d-b943-4755-962e-e8469b961d87"",""projectId"":""54f8d589-66fc-4c65-830f-1dcc63bce8cc""}","https://test12345.live/?participantId=7FF5A24F8A074BBFA908D7E96C37E3AF&assignmentId=3aaa759d-b943-4755-962e-e8469b961d87&projectId=54f8d589-66fc-4c65-830f-1dcc63bce8cc","","3346","","{""Q0"":3}","","[0]"
"","","","","","html-button-response","54","148676","0.0-40.0","7FF5A24F8A074BBFA908D7E96C37E3AF","7FF5A24F8A074BBFA908D7E96C37E3AF","3aaa759d-b943-4755-962e-e8469b961d87","54f8d589-66fc-4c65-830f-1dcc63bce8cc","{""participantId"":""7FF5A24F8A074BBFA908D7E96C37E3AF"",""assignmentId"":""3aaa759d-b943-4755-962e-e8469b961d87"",""projectId"":""54f8d589-66fc-4c65-830f-1dcc63bce8cc""}","https://test12345.live/?participantId=7FF5A24F8A074BBFA908D7E96C37E3AF&assignmentId=3aaa759d-b943-4755-962e-e8469b961d87&projectId=54f8d589-66fc-4c65-830f-1dcc63bce8cc","","918","
    <div style=""display: flex; justify-content: center; align-items: center;"">
      <img src=""images/red_deck_2.png"" style=""width: 300px; height: 300px; margin-right: 10px;"" />
      <img src=""images/blue_deck_1.png"" style=""width: 300px; height: 300px;"" />
    </div>","1","1",""
"","","","","","html-keyboard-response","55","151678","0.0-42.0-0.0","7FF5A24F8A074BBFA908D7E96C37E3AF","7FF5A24F8A074BBFA908D7E96C37E3AF","3aaa759d-b943-4755-962e-e8469b961d87","54f8d589-66fc-4c65-830f-1dcc63bce8cc","{""participantId"":""7FF5A24F8A074BBFA908D7E96C37E3AF"",""assignmentId"":""3aaa759d-b943-4755-962e-e8469b961d87"",""projectId"":""54f8d589-66fc-4c65-830f-1dcc63bce8cc""}","https://test12345.live/?participantId=7FF5A24F8A074BBFA908D7E96C37E3AF&assignmentId=3aaa759d-b943-4755-962e-e8469b961d87&projectId=54f8d589-66fc-4c65-830f-1dcc63bce8cc","","null","<div style=""display: flex; justify-content: center; align-items: center;"">
                    <img src=""images/semantic/semantic_series_12/semantic_series_12_a.jpg"" style=""width: 300px; height: 300px;"" />
                  </div>","null","",""
"","","","","","html-keyboard-response","56","154680","0.0-42.0-1.0","7FF5A24F8A074BBFA908D7E96C37E3AF","7FF5A24F8A074BBFA908D7E96C37E3AF","3aaa759d-b943-4755-962e-e8469b961d87","54f8d589-66fc-4c65-830f-1dcc63bce8cc","{""participantId"":""7FF5A24F8A074BBFA908D7E96C37E3AF"",""assignmentId"":""3aaa759d-b943-4755-962e-e8469b961d87"",""projectId"":""54f8d589-66fc-4c65-830f-1dcc63bce8cc""}","https://test12345.live/?participantId=7FF5A24F8A074BBFA908D7E96C37E3AF&assignmentId=3aaa759d-b943-4755-962e-e8469b961d87&projectId=54f8d589-66fc-4c65-830f-1dcc63bce8cc","","null","<div style=""display: flex; justify-content: center; align-items: center;"">
                    <img src=""images/semantic/semantic_series_12/semantic_series_12_b.jpg"" style=""width: 300px; height: 300px;"" />
                  </div>","null","",""
"","","","","","html-keyboard-response","57","157682","0.0-42.0-2.0","7FF5A24F8A074BBFA908D7E96C37E3AF","7FF5A24F8A074BBFA908D7E96C37E3AF","3aaa759d-b943-4755-962e-e8469b961d87","54f8d589-66fc-4c65-830f-1dcc63bce8cc","{""participantId"":""7FF5A24F8A074BBFA908D7E96C37E3AF"",""assignmentId"":""3aaa759d-b943-4755-962e-e8469b961d87"",""projectId"":""54f8d589-66fc-4c65-830f-1dcc63bce8cc""}","https://test12345.live/?participantId=7FF5A24F8A074BBFA908D7E96C37E3AF&assignmentId=3aaa759d-b943-4755-962e-e8469b961d87&projectId=54f8d589-66fc-4c65-830f-1dcc63bce8cc","","null","<div style=""display: flex; justify-content: center; align-items: center;"">
                    <img src=""images/semantic/semantic_series_12/semantic_series_12_c.jpg"" style=""width: 300px; height: 300px;"" />
                  </div>","null","",""
"","","","","","html-keyboard-response","58","160683","0.0-42.0-3.0","7FF5A24F8A074BBFA908D7E96C37E3AF","7FF5A24F8A074BBFA908D7E96C37E3AF","3aaa759d-b943-4755-962e-e8469b961d87","54f8d589-66fc-4c65-830f-1dcc63bce8cc","{""participantId"":""7FF5A24F8A074BBFA908D7E96C37E3AF"",""assignmentId"":""3aaa759d-b943-4755-962e-e8469b961d87"",""projectId"":""54f8d589-66fc-4c65-830f-1dcc63bce8cc""}","https://test12345.live/?participantId=7FF5A24F8A074BBFA908D7E96C37E3AF&assignmentId=3aaa759d-b943-4755-962e-e8469b961d87&projectId=54f8d589-66fc-4c65-830f-1dcc63bce8cc","","null","<div style=""display: flex; justify-content: center; align-items: center;"">
                    <img src=""images/semantic/semantic_series_12/semantic_series_12_d.jpg"" style=""width: 300px; height: 300px;"" />
                  </div>","null","",""
"","","","","","html-button-response","59","161748","0.0-43.0","7FF5A24F8A074BBFA908D7E96C37E3AF","7FF5A24F8A074BBFA908D7E96C37E3AF","3aaa759d-b943-4755-962e-e8469b961d87","54f8d589-66fc-4c65-830f-1dcc63bce8cc","{""participantId"":""7FF5A24F8A074BBFA908D7E96C37E3AF"",""assignmentId"":""3aaa759d-b943-4755-962e-e8469b961d87"",""projectId"":""54f8d589-66fc-4c65-830f-1dcc63bce8cc""}","https://test12345.live/?participantId=7FF5A24F8A074BBFA908D7E96C37E3AF&assignmentId=3aaa759d-b943-4755-962e-e8469b961d87&projectId=54f8d589-66fc-4c65-830f-1dcc63bce8cc","","1063","Was there a person in the picture?","1","",""
"","","","","","survey-likert","60","164570","0.0-44.0","7FF5A24F8A074BBFA908D7E96C37E3AF","7FF5A24F8A074BBFA908D7E96C37E3AF","3aaa759d-b943-4755-962e-e8469b961d87","54f8d589-66fc-4c65-830f-1dcc63bce8cc","{""participantId"":""7FF5A24F8A074BBFA908D7E96C37E3AF"",""assignmentId"":""3aaa759d-b943-4755-962e-e8469b961d87"",""projectId"":""54f8d589-66fc-4c65-830f-1dcc63bce8cc""}","https://test12345.live/?participantId=7FF5A24F8A074BBFA908D7E96C37E3AF&assignmentId=3aaa759d-b943-4755-962e-e8469b961d87&projectId=54f8d589-66fc-4c65-830f-1dcc63bce8cc","","2820","","{""Q0"":3}","","[0]"
"","","","","","html-button-response","61","165683","0.0-45.0","7FF5A24F8A074BBFA908D7E96C37E3AF","7FF5A24F8A074BBFA908D7E96C37E3AF","3aaa759d-b943-4755-962e-e8469b961d87","54f8d589-66fc-4c65-830f-1dcc63bce8cc","{""participantId"":""7FF5A24F8A074BBFA908D7E96C37E3AF"",""assignmentId"":""3aaa759d-b943-4755-962e-e8469b961d87"",""projectId"":""54f8d589-66fc-4c65-830f-1dcc63bce8cc""}","https://test12345.live/?participantId=7FF5A24F8A074BBFA908D7E96C37E3AF&assignmentId=3aaa759d-b943-4755-962e-e8469b961d87&projectId=54f8d589-66fc-4c65-830f-1dcc63bce8cc","","1111","
    <div style=""display: flex; justify-content: center; align-items: center;"">
      <img src=""images/red_deck_2.png"" style=""width: 300px; height: 300px; margin-right: 10px;"" />
      <img src=""images/blue_deck_1.png"" style=""width: 300px; height: 300px;"" />
    </div>","0","0",""
"","","","","","html-keyboard-response","62","168684","0.0-46.0-0.0","7FF5A24F8A074BBFA908D7E96C37E3AF","7FF5A24F8A074BBFA908D7E96C37E3AF","3aaa759d-b943-4755-962e-e8469b961d87","54f8d589-66fc-4c65-830f-1dcc63bce8cc","{""participantId"":""7FF5A24F8A074BBFA908D7E96C37E3AF"",""assignmentId"":""3aaa759d-b943-4755-962e-e8469b961d87"",""projectId"":""54f8d589-66fc-4c65-830f-1dcc63bce8cc""}","https://test12345.live/?participantId=7FF5A24F8A074BBFA908D7E96C37E3AF&assignmentId=3aaa759d-b943-4755-962e-e8469b961d87&projectId=54f8d589-66fc-4c65-830f-1dcc63bce8cc","","null","<div style=""display: flex; justify-content: center; align-items: center;"">
                    <img src=""images/causal/causal_series_10/causal_series_10_a.jpg"" style=""width: 300px; height: 300px;"" />
                  </div>","null","",""
"","","","","","html-keyboard-response","63","171686","0.0-46.0-1.0","7FF5A24F8A074BBFA908D7E96C37E3AF","7FF5A24F8A074BBFA908D7E96C37E3AF","3aaa759d-b943-4755-962e-e8469b961d87","54f8d589-66fc-4c65-830f-1dcc63bce8cc","{""participantId"":""7FF5A24F8A074BBFA908D7E96C37E3AF"",""assignmentId"":""3aaa759d-b943-4755-962e-e8469b961d87"",""projectId"":""54f8d589-66fc-4c65-830f-1dcc63bce8cc""}","https://test12345.live/?participantId=7FF5A24F8A074BBFA908D7E96C37E3AF&assignmentId=3aaa759d-b943-4755-962e-e8469b961d87&projectId=54f8d589-66fc-4c65-830f-1dcc63bce8cc","","null","<div style=""display: flex; justify-content: center; align-items: center;"">
                    <img src=""images/causal/causal_series_10/causal_series_10_b.jpg"" style=""width: 300px; height: 300px;"" />
                  </div>","null","",""
"","","","","","html-keyboard-response","64","174688","0.0-46.0-2.0","7FF5A24F8A074BBFA908D7E96C37E3AF","7FF5A24F8A074BBFA908D7E96C37E3AF","3aaa759d-b943-4755-962e-e8469b961d87","54f8d589-66fc-4c65-830f-1dcc63bce8cc","{""participantId"":""7FF5A24F8A074BBFA908D7E96C37E3AF"",""assignmentId"":""3aaa759d-b943-4755-962e-e8469b961d87"",""projectId"":""54f8d589-66fc-4c65-830f-1dcc63bce8cc""}","https://test12345.live/?participantId=7FF5A24F8A074BBFA908D7E96C37E3AF&assignmentId=3aaa759d-b943-4755-962e-e8469b961d87&projectId=54f8d589-66fc-4c65-830f-1dcc63bce8cc","","null","<div style=""display: flex; justify-content: center; align-items: center;"">
                    <img src=""images/causal/causal_series_10/causal_series_10_c.jpg"" style=""width: 300px; height: 300px;"" />
                  </div>","null","",""
"","","","","","html-keyboard-response","65","177689","0.0-46.0-3.0","7FF5A24F8A074BBFA908D7E96C37E3AF","7FF5A24F8A074BBFA908D7E96C37E3AF","3aaa759d-b943-4755-962e-e8469b961d87","54f8d589-66fc-4c65-830f-1dcc63bce8cc","{""participantId"":""7FF5A24F8A074BBFA908D7E96C37E3AF"",""assignmentId"":""3aaa759d-b943-4755-962e-e8469b961d87"",""projectId"":""54f8d589-66fc-4c65-830f-1dcc63bce8cc""}","https://test12345.live/?participantId=7FF5A24F8A074BBFA908D7E96C37E3AF&assignmentId=3aaa759d-b943-4755-962e-e8469b961d87&projectId=54f8d589-66fc-4c65-830f-1dcc63bce8cc","","null","<div style=""display: flex; justify-content: center; align-items: center;"">
                    <img src=""images/causal/causal_series_10/causal_series_10_d.jpg"" style=""width: 300px; height: 300px;"" />
                  </div>","null","",""
"","","","","","html-button-response","66","179249","0.0-48.0","7FF5A24F8A074BBFA908D7E96C37E3AF","7FF5A24F8A074BBFA908D7E96C37E3AF","3aaa759d-b943-4755-962e-e8469b961d87","54f8d589-66fc-4c65-830f-1dcc63bce8cc","{""participantId"":""7FF5A24F8A074BBFA908D7E96C37E3AF"",""assignmentId"":""3aaa759d-b943-4755-962e-e8469b961d87"",""projectId"":""54f8d589-66fc-4c65-830f-1dcc63bce8cc""}","https://test12345.live/?participantId=7FF5A24F8A074BBFA908D7E96C37E3AF&assignmentId=3aaa759d-b943-4755-962e-e8469b961d87&projectId=54f8d589-66fc-4c65-830f-1dcc63bce8cc","","1559","Was there a person in the picture?","1","",""
"","","","","","survey-likert","67","180959","0.0-49.0","7FF5A24F8A074BBFA908D7E96C37E3AF","7FF5A24F8A074BBFA908D7E96C37E3AF","3aaa759d-b943-4755-962e-e8469b961d87","54f8d589-66fc-4c65-830f-1dcc63bce8cc","{""participantId"":""7FF5A24F8A074BBFA908D7E96C37E3AF"",""assignmentId"":""3aaa759d-b943-4755-962e-e8469b961d87"",""projectId"":""54f8d589-66fc-4c65-830f-1dcc63bce8cc""}","https://test12345.live/?participantId=7FF5A24F8A074BBFA908D7E96C37E3AF&assignmentId=3aaa759d-b943-4755-962e-e8469b961d87&projectId=54f8d589-66fc-4c65-830f-1dcc63bce8cc","","1709","","{""Q0"":4}","","[0]"
"","","","","","html-button-response","68","181819","0.0-50.0","7FF5A24F8A074BBFA908D7E96C37E3AF","7FF5A24F8A074BBFA908D7E96C37E3AF","3aaa759d-b943-4755-962e-e8469b961d87","54f8d589-66fc-4c65-830f-1dcc63bce8cc","{""participantId"":""7FF5A24F8A074BBFA908D7E96C37E3AF"",""assignmentId"":""3aaa759d-b943-4755-962e-e8469b961d87"",""projectId"":""54f8d589-66fc-4c65-830f-1dcc63bce8cc""}","https://test12345.live/?participantId=7FF5A24F8A074BBFA908D7E96C37E3AF&assignmentId=3aaa759d-b943-4755-962e-e8469b961d87&projectId=54f8d589-66fc-4c65-830f-1dcc63bce8cc","","857","
    <div style=""display: flex; justify-content: center; align-items: center;"">
      <img src=""images/red_deck_2.png"" style=""width: 300px; height: 300px; margin-right: 10px;"" />
      <img src=""images/blue_deck_1.png"" style=""width: 300px; height: 300px;"" />
    </div>","1","1",""
"","","","","","html-keyboard-response","69","184821","0.0-52.0-0.0","7FF5A24F8A074BBFA908D7E96C37E3AF","7FF5A24F8A074BBFA908D7E96C37E3AF","3aaa759d-b943-4755-962e-e8469b961d87","54f8d589-66fc-4c65-830f-1dcc63bce8cc","{""participantId"":""7FF5A24F8A074BBFA908D7E96C37E3AF"",""assignmentId"":""3aaa759d-b943-4755-962e-e8469b961d87"",""projectId"":""54f8d589-66fc-4c65-830f-1dcc63bce8cc""}","https://test12345.live/?participantId=7FF5A24F8A074BBFA908D7E96C37E3AF&assignmentId=3aaa759d-b943-4755-962e-e8469b961d87&projectId=54f8d589-66fc-4c65-830f-1dcc63bce8cc","","null","<div style=""display: flex; justify-content: center; align-items: center;"">
                    <img src=""images/semantic/semantic_series_4/semantic_series_4_a.jpg"" style=""width: 300px; height: 300px;"" />
                  </div>","null","",""
"","","","","","html-keyboard-response","70","187823","0.0-52.0-1.0","7FF5A24F8A074BBFA908D7E96C37E3AF","7FF5A24F8A074BBFA908D7E96C37E3AF","3aaa759d-b943-4755-962e-e8469b961d87","54f8d589-66fc-4c65-830f-1dcc63bce8cc","{""participantId"":""7FF5A24F8A074BBFA908D7E96C37E3AF"",""assignmentId"":""3aaa759d-b943-4755-962e-e8469b961d87"",""projectId"":""54f8d589-66fc-4c65-830f-1dcc63bce8cc""}","https://test12345.live/?participantId=7FF5A24F8A074BBFA908D7E96C37E3AF&assignmentId=3aaa759d-b943-4755-962e-e8469b961d87&projectId=54f8d589-66fc-4c65-830f-1dcc63bce8cc","","null","<div style=""display: flex; justify-content: center; align-items: center;"">
                    <img src=""images/semantic/semantic_series_4/semantic_series_4_b.jpg"" style=""width: 300px; height: 300px;"" />
                  </div>","null","",""
"","","","","","html-keyboard-response","71","190824","0.0-52.0-2.0","7FF5A24F8A074BBFA908D7E96C37E3AF","7FF5A24F8A074BBFA908D7E96C37E3AF","3aaa759d-b943-4755-962e-e8469b961d87","54f8d589-66fc-4c65-830f-1dcc63bce8cc","{""participantId"":""7FF5A24F8A074BBFA908D7E96C37E3AF"",""assignmentId"":""3aaa759d-b943-4755-962e-e8469b961d87"",""projectId"":""54f8d589-66fc-4c65-830f-1dcc63bce8cc""}","https://test12345.live/?participantId=7FF5A24F8A074BBFA908D7E96C37E3AF&assignmentId=3aaa759d-b943-4755-962e-e8469b961d87&projectId=54f8d589-66fc-4c65-830f-1dcc63bce8cc","","null","<div style=""display: flex; justify-content: center; align-items: center;"">
                    <img src=""images/semantic/semantic_series_4/semantic_series_4_c.jpg"" style=""width: 300px; height: 300px;"" />
                  </div>","null","",""
"","","","","","html-keyboard-response","72","193826","0.0-52.0-3.0","7FF5A24F8A074BBFA908D7E96C37E3AF","7FF5A24F8A074BBFA908D7E96C37E3AF","3aaa759d-b943-4755-962e-e8469b961d87","54f8d589-66fc-4c65-830f-1dcc63bce8cc","{""participantId"":""7FF5A24F8A074BBFA908D7E96C37E3AF"",""assignmentId"":""3aaa759d-b943-4755-962e-e8469b961d87"",""projectId"":""54f8d589-66fc-4c65-830f-1dcc63bce8cc""}","https://test12345.live/?participantId=7FF5A24F8A074BBFA908D7E96C37E3AF&assignmentId=3aaa759d-b943-4755-962e-e8469b961d87&projectId=54f8d589-66fc-4c65-830f-1dcc63bce8cc","","null","<div style=""display: flex; justify-content: center; align-items: center;"">
                    <img src=""images/semantic/semantic_series_4/semantic_series_4_d.jpg"" style=""width: 300px; height: 300px;"" />
                  </div>","null","",""
"","","","","","html-button-response","73","195061","0.0-53.0","7FF5A24F8A074BBFA908D7E96C37E3AF","7FF5A24F8A074BBFA908D7E96C37E3AF","3aaa759d-b943-4755-962e-e8469b961d87","54f8d589-66fc-4c65-830f-1dcc63bce8cc","{""participantId"":""7FF5A24F8A074BBFA908D7E96C37E3AF"",""assignmentId"":""3aaa759d-b943-4755-962e-e8469b961d87"",""projectId"":""54f8d589-66fc-4c65-830f-1dcc63bce8cc""}","https://test12345.live/?participantId=7FF5A24F8A074BBFA908D7E96C37E3AF&assignmentId=3aaa759d-b943-4755-962e-e8469b961d87&projectId=54f8d589-66fc-4c65-830f-1dcc63bce8cc","","1234","Was there a person in the picture?","1","",""
"","","","","","survey-likert","74","198369","0.0-54.0","7FF5A24F8A074BBFA908D7E96C37E3AF","7FF5A24F8A074BBFA908D7E96C37E3AF","3aaa759d-b943-4755-962e-e8469b961d87","54f8d589-66fc-4c65-830f-1dcc63bce8cc","{""participantId"":""7FF5A24F8A074BBFA908D7E96C37E3AF"",""assignmentId"":""3aaa759d-b943-4755-962e-e8469b961d87"",""projectId"":""54f8d589-66fc-4c65-830f-1dcc63bce8cc""}","https://test12345.live/?participantId=7FF5A24F8A074BBFA908D7E96C37E3AF&assignmentId=3aaa759d-b943-4755-962e-e8469b961d87&projectId=54f8d589-66fc-4c65-830f-1dcc63bce8cc","","3307","","{""Q0"":1}","","[0]"
"","","","","","html-button-response","75","199239","0.0-55.0","7FF5A24F8A074BBFA908D7E96C37E3AF","7FF5A24F8A074BBFA908D7E96C37E3AF","3aaa759d-b943-4755-962e-e8469b961d87","54f8d589-66fc-4c65-830f-1dcc63bce8cc","{""participantId"":""7FF5A24F8A074BBFA908D7E96C37E3AF"",""assignmentId"":""3aaa759d-b943-4755-962e-e8469b961d87"",""projectId"":""54f8d589-66fc-4c65-830f-1dcc63bce8cc""}","https://test12345.live/?participantId=7FF5A24F8A074BBFA908D7E96C37E3AF&assignmentId=3aaa759d-b943-4755-962e-e8469b961d87&projectId=54f8d589-66fc-4c65-830f-1dcc63bce8cc","","868","
    <div style=""display: flex; justify-content: center; align-items: center;"">
      <img src=""images/red_deck_2.png"" style=""width: 300px; height: 300px; margin-right: 10px;"" />
      <img src=""images/blue_deck_1.png"" style=""width: 300px; height: 300px;"" />
    </div>","1","1",""
"","","","","","html-keyboard-response","76","202240","0.0-57.0-0.0","7FF5A24F8A074BBFA908D7E96C37E3AF","7FF5A24F8A074BBFA908D7E96C37E3AF","3aaa759d-b943-4755-962e-e8469b961d87","54f8d589-66fc-4c65-830f-1dcc63bce8cc","{""participantId"":""7FF5A24F8A074BBFA908D7E96C37E3AF"",""assignmentId"":""3aaa759d-b943-4755-962e-e8469b961d87"",""projectId"":""54f8d589-66fc-4c65-830f-1dcc63bce8cc""}","https://test12345.live/?participantId=7FF5A24F8A074BBFA908D7E96C37E3AF&assignmentId=3aaa759d-b943-4755-962e-e8469b961d87&projectId=54f8d589-66fc-4c65-830f-1dcc63bce8cc","","null","<div style=""display: flex; justify-content: center; align-items: center;"">
                    <img src=""images/semantic/semantic_series_17/semantic_series_17_a.jpg"" style=""width: 300px; height: 300px;"" />
                  </div>","null","",""
"","","","","","html-keyboard-response","77","205242","0.0-57.0-1.0","7FF5A24F8A074BBFA908D7E96C37E3AF","7FF5A24F8A074BBFA908D7E96C37E3AF","3aaa759d-b943-4755-962e-e8469b961d87","54f8d589-66fc-4c65-830f-1dcc63bce8cc","{""participantId"":""7FF5A24F8A074BBFA908D7E96C37E3AF"",""assignmentId"":""3aaa759d-b943-4755-962e-e8469b961d87"",""projectId"":""54f8d589-66fc-4c65-830f-1dcc63bce8cc""}","https://test12345.live/?participantId=7FF5A24F8A074BBFA908D7E96C37E3AF&assignmentId=3aaa759d-b943-4755-962e-e8469b961d87&projectId=54f8d589-66fc-4c65-830f-1dcc63bce8cc","","null","<div style=""display: flex; justify-content: center; align-items: center;"">
                    <img src=""images/semantic/semantic_series_17/semantic_series_17_b.jpg"" style=""width: 300px; height: 300px;"" />
                  </div>","null","",""
"","","","","","html-keyboard-response","78","208243","0.0-57.0-2.0","7FF5A24F8A074BBFA908D7E96C37E3AF","7FF5A24F8A074BBFA908D7E96C37E3AF","3aaa759d-b943-4755-962e-e8469b961d87","54f8d589-66fc-4c65-830f-1dcc63bce8cc","{""participantId"":""7FF5A24F8A074BBFA908D7E96C37E3AF"",""assignmentId"":""3aaa759d-b943-4755-962e-e8469b961d87"",""projectId"":""54f8d589-66fc-4c65-830f-1dcc63bce8cc""}","https://test12345.live/?participantId=7FF5A24F8A074BBFA908D7E96C37E3AF&assignmentId=3aaa759d-b943-4755-962e-e8469b961d87&projectId=54f8d589-66fc-4c65-830f-1dcc63bce8cc","","null","<div style=""display: flex; justify-content: center; align-items: center;"">
                    <img src=""images/semantic/semantic_series_17/semantic_series_17_c.jpg"" style=""width: 300px; height: 300px;"" />
                  </div>","null","",""
"","","","","","html-keyboard-response","79","211245","0.0-57.0-3.0","7FF5A24F8A074BBFA908D7E96C37E3AF","7FF5A24F8A074BBFA908D7E96C37E3AF","3aaa759d-b943-4755-962e-e8469b961d87","54f8d589-66fc-4c65-830f-1dcc63bce8cc","{""participantId"":""7FF5A24F8A074BBFA908D7E96C37E3AF"",""assignmentId"":""3aaa759d-b943-4755-962e-e8469b961d87"",""projectId"":""54f8d589-66fc-4c65-830f-1dcc63bce8cc""}","https://test12345.live/?participantId=7FF5A24F8A074BBFA908D7E96C37E3AF&assignmentId=3aaa759d-b943-4755-962e-e8469b961d87&projectId=54f8d589-66fc-4c65-830f-1dcc63bce8cc","","null","<div style=""display: flex; justify-content: center; align-items: center;"">
                    <img src=""images/semantic/semantic_series_17/semantic_series_17_d.jpg"" style=""width: 300px; height: 300px;"" />
                  </div>","null","",""
"","","","","","html-button-response","80","212946","0.0-58.0","7FF5A24F8A074BBFA908D7E96C37E3AF","7FF5A24F8A074BBFA908D7E96C37E3AF","3aaa759d-b943-4755-962e-e8469b961d87","54f8d589-66fc-4c65-830f-1dcc63bce8cc","{""participantId"":""7FF5A24F8A074BBFA908D7E96C37E3AF"",""assignmentId"":""3aaa759d-b943-4755-962e-e8469b961d87"",""projectId"":""54f8d589-66fc-4c65-830f-1dcc63bce8cc""}","https://test12345.live/?participantId=7FF5A24F8A074BBFA908D7E96C37E3AF&assignmentId=3aaa759d-b943-4755-962e-e8469b961d87&projectId=54f8d589-66fc-4c65-830f-1dcc63bce8cc","","1699","Was there a person in the picture?","0","",""
"","","","","","survey-likert","81","215525","0.0-59.0","7FF5A24F8A074BBFA908D7E96C37E3AF","7FF5A24F8A074BBFA908D7E96C37E3AF","3aaa759d-b943-4755-962e-e8469b961d87","54f8d589-66fc-4c65-830f-1dcc63bce8cc","{""participantId"":""7FF5A24F8A074BBFA908D7E96C37E3AF"",""assignmentId"":""3aaa759d-b943-4755-962e-e8469b961d87"",""projectId"":""54f8d589-66fc-4c65-830f-1dcc63bce8cc""}","https://test12345.live/?participantId=7FF5A24F8A074BBFA908D7E96C37E3AF&assignmentId=3aaa759d-b943-4755-962e-e8469b961d87&projectId=54f8d589-66fc-4c65-830f-1dcc63bce8cc","","2578","","{""Q0"":1}","","[0]"
"","","","","","html-button-response","82","217032","0.0-60.0","7FF5A24F8A074BBFA908D7E96C37E3AF","7FF5A24F8A074BBFA908D7E96C37E3AF","3aaa759d-b943-4755-962e-e8469b961d87","54f8d589-66fc-4c65-830f-1dcc63bce8cc","{""participantId"":""7FF5A24F8A074BBFA908D7E96C37E3AF"",""assignmentId"":""3aaa759d-b943-4755-962e-e8469b961d87"",""projectId"":""54f8d589-66fc-4c65-830f-1dcc63bce8cc""}","https://test12345.live/?participantId=7FF5A24F8A074BBFA908D7E96C37E3AF&assignmentId=3aaa759d-b943-4755-962e-e8469b961d87&projectId=54f8d589-66fc-4c65-830f-1dcc63bce8cc","","1505","
    <div style=""display: flex; justify-content: center; align-items: center;"">
      <img src=""images/red_deck_2.png"" style=""width: 300px; height: 300px; margin-right: 10px;"" />
      <img src=""images/blue_deck_1.png"" style=""width: 300px; height: 300px;"" />
    </div>","0","0",""
"","","","","","html-keyboard-response","83","220034","0.0-61.0-0.0","7FF5A24F8A074BBFA908D7E96C37E3AF","7FF5A24F8A074BBFA908D7E96C37E3AF","3aaa759d-b943-4755-962e-e8469b961d87","54f8d589-66fc-4c65-830f-1dcc63bce8cc","{""participantId"":""7FF5A24F8A074BBFA908D7E96C37E3AF"",""assignmentId"":""3aaa759d-b943-4755-962e-e8469b961d87"",""projectId"":""54f8d589-66fc-4c65-830f-1dcc63bce8cc""}","https://test12345.live/?participantId=7FF5A24F8A074BBFA908D7E96C37E3AF&assignmentId=3aaa759d-b943-4755-962e-e8469b961d87&projectId=54f8d589-66fc-4c65-830f-1dcc63bce8cc","","null","<div style=""display: flex; justify-content: center; align-items: center;"">
                    <img src=""images/causal/causal_series_12/causal_series_12_a.jpg"" style=""width: 300px; height: 300px;"" />
                  </div>","null","",""
"","","","","","html-keyboard-response","84","223035","0.0-61.0-1.0","7FF5A24F8A074BBFA908D7E96C37E3AF","7FF5A24F8A074BBFA908D7E96C37E3AF","3aaa759d-b943-4755-962e-e8469b961d87","54f8d589-66fc-4c65-830f-1dcc63bce8cc","{""participantId"":""7FF5A24F8A074BBFA908D7E96C37E3AF"",""assignmentId"":""3aaa759d-b943-4755-962e-e8469b961d87"",""projectId"":""54f8d589-66fc-4c65-830f-1dcc63bce8cc""}","https://test12345.live/?participantId=7FF5A24F8A074BBFA908D7E96C37E3AF&assignmentId=3aaa759d-b943-4755-962e-e8469b961d87&projectId=54f8d589-66fc-4c65-830f-1dcc63bce8cc","","null","<div style=""display: flex; justify-content: center; align-items: center;"">
                    <img src=""images/causal/causal_series_12/causal_series_12_b.jpg"" style=""width: 300px; height: 300px;"" />
                  </div>","null","",""
"","","","","","html-keyboard-response","85","226036","0.0-61.0-2.0","7FF5A24F8A074BBFA908D7E96C37E3AF","7FF5A24F8A074BBFA908D7E96C37E3AF","3aaa759d-b943-4755-962e-e8469b961d87","54f8d589-66fc-4c65-830f-1dcc63bce8cc","{""participantId"":""7FF5A24F8A074BBFA908D7E96C37E3AF"",""assignmentId"":""3aaa759d-b943-4755-962e-e8469b961d87"",""projectId"":""54f8d589-66fc-4c65-830f-1dcc63bce8cc""}","https://test12345.live/?participantId=7FF5A24F8A074BBFA908D7E96C37E3AF&assignmentId=3aaa759d-b943-4755-962e-e8469b961d87&projectId=54f8d589-66fc-4c65-830f-1dcc63bce8cc","","null","<div style=""display: flex; justify-content: center; align-items: center;"">
                    <img src=""images/causal/causal_series_12/causal_series_12_c.jpg"" style=""width: 300px; height: 300px;"" />
                  </div>","null","",""
"","","","","","html-keyboard-response","86","229038","0.0-61.0-3.0","7FF5A24F8A074BBFA908D7E96C37E3AF","7FF5A24F8A074BBFA908D7E96C37E3AF","3aaa759d-b943-4755-962e-e8469b961d87","54f8d589-66fc-4c65-830f-1dcc63bce8cc","{""participantId"":""7FF5A24F8A074BBFA908D7E96C37E3AF"",""assignmentId"":""3aaa759d-b943-4755-962e-e8469b961d87"",""projectId"":""54f8d589-66fc-4c65-830f-1dcc63bce8cc""}","https://test12345.live/?participantId=7FF5A24F8A074BBFA908D7E96C37E3AF&assignmentId=3aaa759d-b943-4755-962e-e8469b961d87&projectId=54f8d589-66fc-4c65-830f-1dcc63bce8cc","","null","<div style=""display: flex; justify-content: center; align-items: center;"">
                    <img src=""images/causal/causal_series_12/causal_series_12_d.jpg"" style=""width: 300px; height: 300px;"" />
                  </div>","null","",""
"","","","","","html-button-response","87","230516","0.0-63.0","7FF5A24F8A074BBFA908D7E96C37E3AF","7FF5A24F8A074BBFA908D7E96C37E3AF","3aaa759d-b943-4755-962e-e8469b961d87","54f8d589-66fc-4c65-830f-1dcc63bce8cc","{""participantId"":""7FF5A24F8A074BBFA908D7E96C37E3AF"",""assignmentId"":""3aaa759d-b943-4755-962e-e8469b961d87"",""projectId"":""54f8d589-66fc-4c65-830f-1dcc63bce8cc""}","https://test12345.live/?participantId=7FF5A24F8A074BBFA908D7E96C37E3AF&assignmentId=3aaa759d-b943-4755-962e-e8469b961d87&projectId=54f8d589-66fc-4c65-830f-1dcc63bce8cc","","1476","Was there a person in the picture?","1","",""
"","","","","","survey-likert","88","232468","0.0-64.0","7FF5A24F8A074BBFA908D7E96C37E3AF","7FF5A24F8A074BBFA908D7E96C37E3AF","3aaa759d-b943-4755-962e-e8469b961d87","54f8d589-66fc-4c65-830f-1dcc63bce8cc","{""participantId"":""7FF5A24F8A074BBFA908D7E96C37E3AF"",""assignmentId"":""3aaa759d-b943-4755-962e-e8469b961d87"",""projectId"":""54f8d589-66fc-4c65-830f-1dcc63bce8cc""}","https://test12345.live/?participantId=7FF5A24F8A074BBFA908D7E96C37E3AF&assignmentId=3aaa759d-b943-4755-962e-e8469b961d87&projectId=54f8d589-66fc-4c65-830f-1dcc63bce8cc","","1951","","{""Q0"":3}","","[0]"
"","","","","","html-button-response","89","233206","0.0-65.0","7FF5A24F8A074BBFA908D7E96C37E3AF","7FF5A24F8A074BBFA908D7E96C37E3AF","3aaa759d-b943-4755-962e-e8469b961d87","54f8d589-66fc-4c65-830f-1dcc63bce8cc","{""participantId"":""7FF5A24F8A074BBFA908D7E96C37E3AF"",""assignmentId"":""3aaa759d-b943-4755-962e-e8469b961d87"",""projectId"":""54f8d589-66fc-4c65-830f-1dcc63bce8cc""}","https://test12345.live/?participantId=7FF5A24F8A074BBFA908D7E96C37E3AF&assignmentId=3aaa759d-b943-4755-962e-e8469b961d87&projectId=54f8d589-66fc-4c65-830f-1dcc63bce8cc","","737","
    <div style=""display: flex; justify-content: center; align-items: center;"">
      <img src=""images/red_deck_2.png"" style=""width: 300px; height: 300px; margin-right: 10px;"" />
      <img src=""images/blue_deck_1.png"" style=""width: 300px; height: 300px;"" />
    </div>","0","0",""
"","","","","","html-keyboard-response","90","236208","0.0-66.0-0.0","7FF5A24F8A074BBFA908D7E96C37E3AF","7FF5A24F8A074BBFA908D7E96C37E3AF","3aaa759d-b943-4755-962e-e8469b961d87","54f8d589-66fc-4c65-830f-1dcc63bce8cc","{""participantId"":""7FF5A24F8A074BBFA908D7E96C37E3AF"",""assignmentId"":""3aaa759d-b943-4755-962e-e8469b961d87"",""projectId"":""54f8d589-66fc-4c65-830f-1dcc63bce8cc""}","https://test12345.live/?participantId=7FF5A24F8A074BBFA908D7E96C37E3AF&assignmentId=3aaa759d-b943-4755-962e-e8469b961d87&projectId=54f8d589-66fc-4c65-830f-1dcc63bce8cc","","null","<div style=""display: flex; justify-content: center; align-items: center;"">
                    <img src=""images/causal/causal_series_8/causal_series_8_a.jpg"" style=""width: 300px; height: 300px;"" />
                  </div>","null","",""
"","","","","","html-keyboard-response","91","239210","0.0-66.0-1.0","7FF5A24F8A074BBFA908D7E96C37E3AF","7FF5A24F8A074BBFA908D7E96C37E3AF","3aaa759d-b943-4755-962e-e8469b961d87","54f8d589-66fc-4c65-830f-1dcc63bce8cc","{""participantId"":""7FF5A24F8A074BBFA908D7E96C37E3AF"",""assignmentId"":""3aaa759d-b943-4755-962e-e8469b961d87"",""projectId"":""54f8d589-66fc-4c65-830f-1dcc63bce8cc""}","https://test12345.live/?participantId=7FF5A24F8A074BBFA908D7E96C37E3AF&assignmentId=3aaa759d-b943-4755-962e-e8469b961d87&projectId=54f8d589-66fc-4c65-830f-1dcc63bce8cc","","null","<div style=""display: flex; justify-content: center; align-items: center;"">
                    <img src=""images/causal/causal_series_8/causal_series_8_b.jpg"" style=""width: 300px; height: 300px;"" />
                  </div>","null","",""
"","","","","","html-keyboard-response","92","242211","0.0-66.0-2.0","7FF5A24F8A074BBFA908D7E96C37E3AF","7FF5A24F8A074BBFA908D7E96C37E3AF","3aaa759d-b943-4755-962e-e8469b961d87","54f8d589-66fc-4c65-830f-1dcc63bce8cc","{""participantId"":""7FF5A24F8A074BBFA908D7E96C37E3AF"",""assignmentId"":""3aaa759d-b943-4755-962e-e8469b961d87"",""projectId"":""54f8d589-66fc-4c65-830f-1dcc63bce8cc""}","https://test12345.live/?participantId=7FF5A24F8A074BBFA908D7E96C37E3AF&assignmentId=3aaa759d-b943-4755-962e-e8469b961d87&projectId=54f8d589-66fc-4c65-830f-1dcc63bce8cc","","null","<div style=""display: flex; justify-content: center; align-items: center;"">
                    <img src=""images/causal/causal_series_8/causal_series_8_c.jpg"" style=""width: 300px; height: 300px;"" />
                  </div>","null","",""
"","","","","","html-keyboard-response","93","245213","0.0-66.0-3.0","7FF5A24F8A074BBFA908D7E96C37E3AF","7FF5A24F8A074BBFA908D7E96C37E3AF","3aaa759d-b943-4755-962e-e8469b961d87","54f8d589-66fc-4c65-830f-1dcc63bce8cc","{""participantId"":""7FF5A24F8A074BBFA908D7E96C37E3AF"",""assignmentId"":""3aaa759d-b943-4755-962e-e8469b961d87"",""projectId"":""54f8d589-66fc-4c65-830f-1dcc63bce8cc""}","https://test12345.live/?participantId=7FF5A24F8A074BBFA908D7E96C37E3AF&assignmentId=3aaa759d-b943-4755-962e-e8469b961d87&projectId=54f8d589-66fc-4c65-830f-1dcc63bce8cc","","null","<div style=""display: flex; justify-content: center; align-items: center;"">
                    <img src=""images/causal/causal_series_8/causal_series_8_d.jpg"" style=""width: 300px; height: 300px;"" />
                  </div>","null","",""
"","","","","","html-button-response","94","246348","0.0-68.0","7FF5A24F8A074BBFA908D7E96C37E3AF","7FF5A24F8A074BBFA908D7E96C37E3AF","3aaa759d-b943-4755-962e-e8469b961d87","54f8d589-66fc-4c65-830f-1dcc63bce8cc","{""participantId"":""7FF5A24F8A074BBFA908D7E96C37E3AF"",""assignmentId"":""3aaa759d-b943-4755-962e-e8469b961d87"",""projectId"":""54f8d589-66fc-4c65-830f-1dcc63bce8cc""}","https://test12345.live/?participantId=7FF5A24F8A074BBFA908D7E96C37E3AF&assignmentId=3aaa759d-b943-4755-962e-e8469b961d87&projectId=54f8d589-66fc-4c65-830f-1dcc63bce8cc","","1134","Was there a person in the picture?","0","",""
"","","","","","survey-likert","95","248726","0.0-69.0","7FF5A24F8A074BBFA908D7E96C37E3AF","7FF5A24F8A074BBFA908D7E96C37E3AF","3aaa759d-b943-4755-962e-e8469b961d87","54f8d589-66fc-4c65-830f-1dcc63bce8cc","{""participantId"":""7FF5A24F8A074BBFA908D7E96C37E3AF"",""assignmentId"":""3aaa759d-b943-4755-962e-e8469b961d87"",""projectId"":""54f8d589-66fc-4c65-830f-1dcc63bce8cc""}","https://test12345.live/?participantId=7FF5A24F8A074BBFA908D7E96C37E3AF&assignmentId=3aaa759d-b943-4755-962e-e8469b961d87&projectId=54f8d589-66fc-4c65-830f-1dcc63bce8cc","","2376","","{""Q0"":3}","","[0]"
"","","","","","html-button-response","96","249444","0.0-70.0","7FF5A24F8A074BBFA908D7E96C37E3AF","7FF5A24F8A074BBFA908D7E96C37E3AF","3aaa759d-b943-4755-962e-e8469b961d87","54f8d589-66fc-4c65-830f-1dcc63bce8cc","{""participantId"":""7FF5A24F8A074BBFA908D7E96C37E3AF"",""assignmentId"":""3aaa759d-b943-4755-962e-e8469b961d87"",""projectId"":""54f8d589-66fc-4c65-830f-1dcc63bce8cc""}","https://test12345.live/?participantId=7FF5A24F8A074BBFA908D7E96C37E3AF&assignmentId=3aaa759d-b943-4755-962e-e8469b961d87&projectId=54f8d589-66fc-4c65-830f-1dcc63bce8cc","","715","
    <div style=""display: flex; justify-content: center; align-items: center;"">
      <img src=""images/red_deck_2.png"" style=""width: 300px; height: 300px; margin-right: 10px;"" />
      <img src=""images/blue_deck_1.png"" style=""width: 300px; height: 300px;"" />
    </div>","0","0",""
"","","","","","html-keyboard-response","97","252445","0.0-71.0-0.0","7FF5A24F8A074BBFA908D7E96C37E3AF","7FF5A24F8A074BBFA908D7E96C37E3AF","3aaa759d-b943-4755-962e-e8469b961d87","54f8d589-66fc-4c65-830f-1dcc63bce8cc","{""participantId"":""7FF5A24F8A074BBFA908D7E96C37E3AF"",""assignmentId"":""3aaa759d-b943-4755-962e-e8469b961d87"",""projectId"":""54f8d589-66fc-4c65-830f-1dcc63bce8cc""}","https://test12345.live/?participantId=7FF5A24F8A074BBFA908D7E96C37E3AF&assignmentId=3aaa759d-b943-4755-962e-e8469b961d87&projectId=54f8d589-66fc-4c65-830f-1dcc63bce8cc","","null","<div style=""display: flex; justify-content: center; align-items: center;"">
                    <img src=""images/causal/causal_series_15/causal_series_15_a.jpg"" style=""width: 300px; height: 300px;"" />
                  </div>","null","",""
"","","","","","html-keyboard-response","98","255447","0.0-71.0-1.0","7FF5A24F8A074BBFA908D7E96C37E3AF","7FF5A24F8A074BBFA908D7E96C37E3AF","3aaa759d-b943-4755-962e-e8469b961d87","54f8d589-66fc-4c65-830f-1dcc63bce8cc","{""participantId"":""7FF5A24F8A074BBFA908D7E96C37E3AF"",""assignmentId"":""3aaa759d-b943-4755-962e-e8469b961d87"",""projectId"":""54f8d589-66fc-4c65-830f-1dcc63bce8cc""}","https://test12345.live/?participantId=7FF5A24F8A074BBFA908D7E96C37E3AF&assignmentId=3aaa759d-b943-4755-962e-e8469b961d87&projectId=54f8d589-66fc-4c65-830f-1dcc63bce8cc","","null","<div style=""display: flex; justify-content: center; align-items: center;"">
                    <img src=""images/causal/causal_series_15/causal_series_15_b.jpg"" style=""width: 300px; height: 300px;"" />
                  </div>","null","",""
"","","","","","html-keyboard-response","99","258449","0.0-71.0-2.0","7FF5A24F8A074BBFA908D7E96C37E3AF","7FF5A24F8A074BBFA908D7E96C37E3AF","3aaa759d-b943-4755-962e-e8469b961d87","54f8d589-66fc-4c65-830f-1dcc63bce8cc","{""participantId"":""7FF5A24F8A074BBFA908D7E96C37E3AF"",""assignmentId"":""3aaa759d-b943-4755-962e-e8469b961d87"",""projectId"":""54f8d589-66fc-4c65-830f-1dcc63bce8cc""}","https://test12345.live/?participantId=7FF5A24F8A074BBFA908D7E96C37E3AF&assignmentId=3aaa759d-b943-4755-962e-e8469b961d87&projectId=54f8d589-66fc-4c65-830f-1dcc63bce8cc","","null","<div style=""display: flex; justify-content: center; align-items: center;"">
                    <img src=""images/causal/causal_series_15/causal_series_15_c.jpg"" style=""width: 300px; height: 300px;"" />
                  </div>","null","",""
"","","","","","html-keyboard-response","100","261450","0.0-71.0-3.0","7FF5A24F8A074BBFA908D7E96C37E3AF","7FF5A24F8A074BBFA908D7E96C37E3AF","3aaa759d-b943-4755-962e-e8469b961d87","54f8d589-66fc-4c65-830f-1dcc63bce8cc","{""participantId"":""7FF5A24F8A074BBFA908D7E96C37E3AF"",""assignmentId"":""3aaa759d-b943-4755-962e-e8469b961d87"",""projectId"":""54f8d589-66fc-4c65-830f-1dcc63bce8cc""}","https://test12345.live/?participantId=7FF5A24F8A074BBFA908D7E96C37E3AF&assignmentId=3aaa759d-b943-4755-962e-e8469b961d87&projectId=54f8d589-66fc-4c65-830f-1dcc63bce8cc","","null","<div style=""display: flex; justify-content: center; align-items: center;"">
                    <img src=""images/causal/causal_series_15/causal_series_15_d.jpg"" style=""width: 300px; height: 300px;"" />
                  </div>","null","",""
"","","","","","html-button-response","101","263414","0.0-73.0","7FF5A24F8A074BBFA908D7E96C37E3AF","7FF5A24F8A074BBFA908D7E96C37E3AF","3aaa759d-b943-4755-962e-e8469b961d87","54f8d589-66fc-4c65-830f-1dcc63bce8cc","{""participantId"":""7FF5A24F8A074BBFA908D7E96C37E3AF"",""assignmentId"":""3aaa759d-b943-4755-962e-e8469b961d87"",""projectId"":""54f8d589-66fc-4c65-830f-1dcc63bce8cc""}","https://test12345.live/?participantId=7FF5A24F8A074BBFA908D7E96C37E3AF&assignmentId=3aaa759d-b943-4755-962e-e8469b961d87&projectId=54f8d589-66fc-4c65-830f-1dcc63bce8cc","","1962","Was there a person in the picture?","0","",""
"","","","","","survey-likert","102","265205","0.0-74.0","7FF5A24F8A074BBFA908D7E96C37E3AF","7FF5A24F8A074BBFA908D7E96C37E3AF","3aaa759d-b943-4755-962e-e8469b961d87","54f8d589-66fc-4c65-830f-1dcc63bce8cc","{""participantId"":""7FF5A24F8A074BBFA908D7E96C37E3AF"",""assignmentId"":""3aaa759d-b943-4755-962e-e8469b961d87"",""projectId"":""54f8d589-66fc-4c65-830f-1dcc63bce8cc""}","https://test12345.live/?participantId=7FF5A24F8A074BBFA908D7E96C37E3AF&assignmentId=3aaa759d-b943-4755-962e-e8469b961d87&projectId=54f8d589-66fc-4c65-830f-1dcc63bce8cc","","1790","","{""Q0"":1}","","[0]"
"","","","","","html-button-response","103","266136","0.0-75.0","7FF5A24F8A074BBFA908D7E96C37E3AF","7FF5A24F8A074BBFA908D7E96C37E3AF","3aaa759d-b943-4755-962e-e8469b961d87","54f8d589-66fc-4c65-830f-1dcc63bce8cc","{""participantId"":""7FF5A24F8A074BBFA908D7E96C37E3AF"",""assignmentId"":""3aaa759d-b943-4755-962e-e8469b961d87"",""projectId"":""54f8d589-66fc-4c65-830f-1dcc63bce8cc""}","https://test12345.live/?participantId=7FF5A24F8A074BBFA908D7E96C37E3AF&assignmentId=3aaa759d-b943-4755-962e-e8469b961d87&projectId=54f8d589-66fc-4c65-830f-1dcc63bce8cc","","928","
    <div style=""display: flex; justify-content: center; align-items: center;"">
      <img src=""images/red_deck_2.png"" style=""width: 300px; height: 300px; margin-right: 10px;"" />
      <img src=""images/blue_deck_1.png"" style=""width: 300px; height: 300px;"" />
    </div>","1","1",""
"","","","","","html-keyboard-response","104","269139","0.0-77.0-0.0","7FF5A24F8A074BBFA908D7E96C37E3AF","7FF5A24F8A074BBFA908D7E96C37E3AF","3aaa759d-b943-4755-962e-e8469b961d87","54f8d589-66fc-4c65-830f-1dcc63bce8cc","{""participantId"":""7FF5A24F8A074BBFA908D7E96C37E3AF"",""assignmentId"":""3aaa759d-b943-4755-962e-e8469b961d87"",""projectId"":""54f8d589-66fc-4c65-830f-1dcc63bce8cc""}","https://test12345.live/?participantId=7FF5A24F8A074BBFA908D7E96C37E3AF&assignmentId=3aaa759d-b943-4755-962e-e8469b961d87&projectId=54f8d589-66fc-4c65-830f-1dcc63bce8cc","","null","<div style=""display: flex; justify-content: center; align-items: center;"">
                    <img src=""images/semantic/semantic_series_15/semantic_series_15_a.jpg"" style=""width: 300px; height: 300px;"" />
                  </div>","null","",""
"","","","","","html-keyboard-response","105","272141","0.0-77.0-1.0","7FF5A24F8A074BBFA908D7E96C37E3AF","7FF5A24F8A074BBFA908D7E96C37E3AF","3aaa759d-b943-4755-962e-e8469b961d87","54f8d589-66fc-4c65-830f-1dcc63bce8cc","{""participantId"":""7FF5A24F8A074BBFA908D7E96C37E3AF"",""assignmentId"":""3aaa759d-b943-4755-962e-e8469b961d87"",""projectId"":""54f8d589-66fc-4c65-830f-1dcc63bce8cc""}","https://test12345.live/?participantId=7FF5A24F8A074BBFA908D7E96C37E3AF&assignmentId=3aaa759d-b943-4755-962e-e8469b961d87&projectId=54f8d589-66fc-4c65-830f-1dcc63bce8cc","","null","<div style=""display: flex; justify-content: center; align-items: center;"">
                    <img src=""images/semantic/semantic_series_15/semantic_series_15_b.jpg"" style=""width: 300px; height: 300px;"" />
                  </div>","null","",""
"","","","","","html-keyboard-response","106","275143","0.0-77.0-2.0","7FF5A24F8A074BBFA908D7E96C37E3AF","7FF5A24F8A074BBFA908D7E96C37E3AF","3aaa759d-b943-4755-962e-e8469b961d87","54f8d589-66fc-4c65-830f-1dcc63bce8cc","{""participantId"":""7FF5A24F8A074BBFA908D7E96C37E3AF"",""assignmentId"":""3aaa759d-b943-4755-962e-e8469b961d87"",""projectId"":""54f8d589-66fc-4c65-830f-1dcc63bce8cc""}","https://test12345.live/?participantId=7FF5A24F8A074BBFA908D7E96C37E3AF&assignmentId=3aaa759d-b943-4755-962e-e8469b961d87&projectId=54f8d589-66fc-4c65-830f-1dcc63bce8cc","","null","<div style=""display: flex; justify-content: center; align-items: center;"">
                    <img src=""images/semantic/semantic_series_15/semantic_series_15_c.jpg"" style=""width: 300px; height: 300px;"" />
                  </div>","null","",""
"","","","","","html-keyboard-response","107","278144","0.0-77.0-3.0","7FF5A24F8A074BBFA908D7E96C37E3AF","7FF5A24F8A074BBFA908D7E96C37E3AF","3aaa759d-b943-4755-962e-e8469b961d87","54f8d589-66fc-4c65-830f-1dcc63bce8cc","{""participantId"":""7FF5A24F8A074BBFA908D7E96C37E3AF"",""assignmentId"":""3aaa759d-b943-4755-962e-e8469b961d87"",""projectId"":""54f8d589-66fc-4c65-830f-1dcc63bce8cc""}","https://test12345.live/?participantId=7FF5A24F8A074BBFA908D7E96C37E3AF&assignmentId=3aaa759d-b943-4755-962e-e8469b961d87&projectId=54f8d589-66fc-4c65-830f-1dcc63bce8cc","","null","<div style=""display: flex; justify-content: center; align-items: center;"">
                    <img src=""images/semantic/semantic_series_15/semantic_series_15_d.jpg"" style=""width: 300px; height: 300px;"" />
                  </div>","null","",""
"","","","","","html-button-response","108","279296","0.0-78.0","7FF5A24F8A074BBFA908D7E96C37E3AF","7FF5A24F8A074BBFA908D7E96C37E3AF","3aaa759d-b943-4755-962e-e8469b961d87","54f8d589-66fc-4c65-830f-1dcc63bce8cc","{""participantId"":""7FF5A24F8A074BBFA908D7E96C37E3AF"",""assignmentId"":""3aaa759d-b943-4755-962e-e8469b961d87"",""projectId"":""54f8d589-66fc-4c65-830f-1dcc63bce8cc""}","https://test12345.live/?participantId=7FF5A24F8A074BBFA908D7E96C37E3AF&assignmentId=3aaa759d-b943-4755-962e-e8469b961d87&projectId=54f8d589-66fc-4c65-830f-1dcc63bce8cc","","1151","Was there a person in the picture?","1","",""
"","","","","","survey-likert","109","281269","0.0-79.0","7FF5A24F8A074BBFA908D7E96C37E3AF","7FF5A24F8A074BBFA908D7E96C37E3AF","3aaa759d-b943-4755-962e-e8469b961d87","54f8d589-66fc-4c65-830f-1dcc63bce8cc","{""participantId"":""7FF5A24F8A074BBFA908D7E96C37E3AF"",""assignmentId"":""3aaa759d-b943-4755-962e-e8469b961d87"",""projectId"":""54f8d589-66fc-4c65-830f-1dcc63bce8cc""}","https://test12345.live/?participantId=7FF5A24F8A074BBFA908D7E96C37E3AF&assignmentId=3aaa759d-b943-4755-962e-e8469b961d87&projectId=54f8d589-66fc-4c65-830f-1dcc63bce8cc","","1972","","{""Q0"":2}","","[0]"
"","","","","","html-button-response","110","282068","0.0-80.0","7FF5A24F8A074BBFA908D7E96C37E3AF","7FF5A24F8A074BBFA908D7E96C37E3AF","3aaa759d-b943-4755-962e-e8469b961d87","54f8d589-66fc-4c65-830f-1dcc63bce8cc","{""participantId"":""7FF5A24F8A074BBFA908D7E96C37E3AF"",""assignmentId"":""3aaa759d-b943-4755-962e-e8469b961d87"",""projectId"":""54f8d589-66fc-4c65-830f-1dcc63bce8cc""}","https://test12345.live/?participantId=7FF5A24F8A074BBFA908D7E96C37E3AF&assignmentId=3aaa759d-b943-4755-962e-e8469b961d87&projectId=54f8d589-66fc-4c65-830f-1dcc63bce8cc","","796","
    <div style=""display: flex; justify-content: center; align-items: center;"">
      <img src=""images/red_deck_2.png"" style=""width: 300px; height: 300px; margin-right: 10px;"" />
      <img src=""images/blue_deck_1.png"" style=""width: 300px; height: 300px;"" />
    </div>","0","0",""
"","","","","","html-keyboard-response","111","285071","0.0-81.0-0.0","7FF5A24F8A074BBFA908D7E96C37E3AF","7FF5A24F8A074BBFA908D7E96C37E3AF","3aaa759d-b943-4755-962e-e8469b961d87","54f8d589-66fc-4c65-830f-1dcc63bce8cc","{""participantId"":""7FF5A24F8A074BBFA908D7E96C37E3AF"",""assignmentId"":""3aaa759d-b943-4755-962e-e8469b961d87"",""projectId"":""54f8d589-66fc-4c65-830f-1dcc63bce8cc""}","https://test12345.live/?participantId=7FF5A24F8A074BBFA908D7E96C37E3AF&assignmentId=3aaa759d-b943-4755-962e-e8469b961d87&projectId=54f8d589-66fc-4c65-830f-1dcc63bce8cc","","null","<div style=""display: flex; justify-content: center; align-items: center;"">
                    <img src=""images/causal/causal_series_2/causal_series_2_a.jpg"" style=""width: 300px; height: 300px;"" />
                  </div>","null","",""
"","","","","","html-keyboard-response","112","288072","0.0-81.0-1.0","7FF5A24F8A074BBFA908D7E96C37E3AF","7FF5A24F8A074BBFA908D7E96C37E3AF","3aaa759d-b943-4755-962e-e8469b961d87","54f8d589-66fc-4c65-830f-1dcc63bce8cc","{""participantId"":""7FF5A24F8A074BBFA908D7E96C37E3AF"",""assignmentId"":""3aaa759d-b943-4755-962e-e8469b961d87"",""projectId"":""54f8d589-66fc-4c65-830f-1dcc63bce8cc""}","https://test12345.live/?participantId=7FF5A24F8A074BBFA908D7E96C37E3AF&assignmentId=3aaa759d-b943-4755-962e-e8469b961d87&projectId=54f8d589-66fc-4c65-830f-1dcc63bce8cc","","null","<div style=""display: flex; justify-content: center; align-items: center;"">
                    <img src=""images/causal/causal_series_2/causal_series_2_b.jpg"" style=""width: 300px; height: 300px;"" />
                  </div>","null","",""
"","","","","","html-keyboard-response","113","291074","0.0-81.0-2.0","7FF5A24F8A074BBFA908D7E96C37E3AF","7FF5A24F8A074BBFA908D7E96C37E3AF","3aaa759d-b943-4755-962e-e8469b961d87","54f8d589-66fc-4c65-830f-1dcc63bce8cc","{""participantId"":""7FF5A24F8A074BBFA908D7E96C37E3AF"",""assignmentId"":""3aaa759d-b943-4755-962e-e8469b961d87"",""projectId"":""54f8d589-66fc-4c65-830f-1dcc63bce8cc""}","https://test12345.live/?participantId=7FF5A24F8A074BBFA908D7E96C37E3AF&assignmentId=3aaa759d-b943-4755-962e-e8469b961d87&projectId=54f8d589-66fc-4c65-830f-1dcc63bce8cc","","null","<div style=""display: flex; justify-content: center; align-items: center;"">
                    <img src=""images/causal/causal_series_2/causal_series_2_c.jpg"" style=""width: 300px; height: 300px;"" />
                  </div>","null","",""
"","","","","","html-keyboard-response","114","294076","0.0-81.0-3.0","7FF5A24F8A074BBFA908D7E96C37E3AF","7FF5A24F8A074BBFA908D7E96C37E3AF","3aaa759d-b943-4755-962e-e8469b961d87","54f8d589-66fc-4c65-830f-1dcc63bce8cc","{""participantId"":""7FF5A24F8A074BBFA908D7E96C37E3AF"",""assignmentId"":""3aaa759d-b943-4755-962e-e8469b961d87"",""projectId"":""54f8d589-66fc-4c65-830f-1dcc63bce8cc""}","https://test12345.live/?participantId=7FF5A24F8A074BBFA908D7E96C37E3AF&assignmentId=3aaa759d-b943-4755-962e-e8469b961d87&projectId=54f8d589-66fc-4c65-830f-1dcc63bce8cc","","null","<div style=""display: flex; justify-content: center; align-items: center;"">
                    <img src=""images/causal/causal_series_2/causal_series_2_d.jpg"" style=""width: 300px; height: 300px;"" />
                  </div>","null","",""
"","","","","","html-button-response","115","295167","0.0-83.0","7FF5A24F8A074BBFA908D7E96C37E3AF","7FF5A24F8A074BBFA908D7E96C37E3AF","3aaa759d-b943-4755-962e-e8469b961d87","54f8d589-66fc-4c65-830f-1dcc63bce8cc","{""participantId"":""7FF5A24F8A074BBFA908D7E96C37E3AF"",""assignmentId"":""3aaa759d-b943-4755-962e-e8469b961d87"",""projectId"":""54f8d589-66fc-4c65-830f-1dcc63bce8cc""}","https://test12345.live/?participantId=7FF5A24F8A074BBFA908D7E96C37E3AF&assignmentId=3aaa759d-b943-4755-962e-e8469b961d87&projectId=54f8d589-66fc-4c65-830f-1dcc63bce8cc","","1090","Was there a person in the picture?","0","",""
"","","","","","survey-likert","116","297120","0.0-84.0","7FF5A24F8A074BBFA908D7E96C37E3AF","7FF5A24F8A074BBFA908D7E96C37E3AF","3aaa759d-b943-4755-962e-e8469b961d87","54f8d589-66fc-4c65-830f-1dcc63bce8cc","{""participantId"":""7FF5A24F8A074BBFA908D7E96C37E3AF"",""assignmentId"":""3aaa759d-b943-4755-962e-e8469b961d87"",""projectId"":""54f8d589-66fc-4c65-830f-1dcc63bce8cc""}","https://test12345.live/?participantId=7FF5A24F8A074BBFA908D7E96C37E3AF&assignmentId=3aaa759d-b943-4755-962e-e8469b961d87&projectId=54f8d589-66fc-4c65-830f-1dcc63bce8cc","","1952","","{""Q0"":2}","","[0]"
"","","","","","html-button-response","117","298160","0.0-85.0","7FF5A24F8A074BBFA908D7E96C37E3AF","7FF5A24F8A074BBFA908D7E96C37E3AF","3aaa759d-b943-4755-962e-e8469b961d87","54f8d589-66fc-4c65-830f-1dcc63bce8cc","{""participantId"":""7FF5A24F8A074BBFA908D7E96C37E3AF"",""assignmentId"":""3aaa759d-b943-4755-962e-e8469b961d87"",""projectId"":""54f8d589-66fc-4c65-830f-1dcc63bce8cc""}","https://test12345.live/?participantId=7FF5A24F8A074BBFA908D7E96C37E3AF&assignmentId=3aaa759d-b943-4755-962e-e8469b961d87&projectId=54f8d589-66fc-4c65-830f-1dcc63bce8cc","","1038","
    <div style=""display: flex; justify-content: center; align-items: center;"">
      <img src=""images/red_deck_2.png"" style=""width: 300px; height: 300px; margin-right: 10px;"" />
      <img src=""images/blue_deck_1.png"" style=""width: 300px; height: 300px;"" />
    </div>","1","1",""
"","","","","","html-keyboard-response","118","301162","0.0-87.0-0.0","7FF5A24F8A074BBFA908D7E96C37E3AF","7FF5A24F8A074BBFA908D7E96C37E3AF","3aaa759d-b943-4755-962e-e8469b961d87","54f8d589-66fc-4c65-830f-1dcc63bce8cc","{""participantId"":""7FF5A24F8A074BBFA908D7E96C37E3AF"",""assignmentId"":""3aaa759d-b943-4755-962e-e8469b961d87"",""projectId"":""54f8d589-66fc-4c65-830f-1dcc63bce8cc""}","https://test12345.live/?participantId=7FF5A24F8A074BBFA908D7E96C37E3AF&assignmentId=3aaa759d-b943-4755-962e-e8469b961d87&projectId=54f8d589-66fc-4c65-830f-1dcc63bce8cc","","null","<div style=""display: flex; justify-content: center; align-items: center;"">
                    <img src=""images/semantic/semantic_series_10/semantic_series_10_a.jpg"" style=""width: 300px; height: 300px;"" />
                  </div>","null","",""
"","","","","","html-keyboard-response","119","304164","0.0-87.0-1.0","7FF5A24F8A074BBFA908D7E96C37E3AF","7FF5A24F8A074BBFA908D7E96C37E3AF","3aaa759d-b943-4755-962e-e8469b961d87","54f8d589-66fc-4c65-830f-1dcc63bce8cc","{""participantId"":""7FF5A24F8A074BBFA908D7E96C37E3AF"",""assignmentId"":""3aaa759d-b943-4755-962e-e8469b961d87"",""projectId"":""54f8d589-66fc-4c65-830f-1dcc63bce8cc""}","https://test12345.live/?participantId=7FF5A24F8A074BBFA908D7E96C37E3AF&assignmentId=3aaa759d-b943-4755-962e-e8469b961d87&projectId=54f8d589-66fc-4c65-830f-1dcc63bce8cc","","null","<div style=""display: flex; justify-content: center; align-items: center;"">
                    <img src=""images/semantic/semantic_series_10/semantic_series_10_b.jpg"" style=""width: 300px; height: 300px;"" />
                  </div>","null","",""
"","","","","","html-keyboard-response","120","307166","0.0-87.0-2.0","7FF5A24F8A074BBFA908D7E96C37E3AF","7FF5A24F8A074BBFA908D7E96C37E3AF","3aaa759d-b943-4755-962e-e8469b961d87","54f8d589-66fc-4c65-830f-1dcc63bce8cc","{""participantId"":""7FF5A24F8A074BBFA908D7E96C37E3AF"",""assignmentId"":""3aaa759d-b943-4755-962e-e8469b961d87"",""projectId"":""54f8d589-66fc-4c65-830f-1dcc63bce8cc""}","https://test12345.live/?participantId=7FF5A24F8A074BBFA908D7E96C37E3AF&assignmentId=3aaa759d-b943-4755-962e-e8469b961d87&projectId=54f8d589-66fc-4c65-830f-1dcc63bce8cc","","null","<div style=""display: flex; justify-content: center; align-items: center;"">
                    <img src=""images/semantic/semantic_series_10/semantic_series_10_c.jpg"" style=""width: 300px; height: 300px;"" />
                  </div>","null","",""
"","","","","","html-keyboard-response","121","310167","0.0-87.0-3.0","7FF5A24F8A074BBFA908D7E96C37E3AF","7FF5A24F8A074BBFA908D7E96C37E3AF","3aaa759d-b943-4755-962e-e8469b961d87","54f8d589-66fc-4c65-830f-1dcc63bce8cc","{""participantId"":""7FF5A24F8A074BBFA908D7E96C37E3AF"",""assignmentId"":""3aaa759d-b943-4755-962e-e8469b961d87"",""projectId"":""54f8d589-66fc-4c65-830f-1dcc63bce8cc""}","https://test12345.live/?participantId=7FF5A24F8A074BBFA908D7E96C37E3AF&assignmentId=3aaa759d-b943-4755-962e-e8469b961d87&projectId=54f8d589-66fc-4c65-830f-1dcc63bce8cc","","null","<div style=""display: flex; justify-content: center; align-items: center;"">
                    <img src=""images/semantic/semantic_series_10/semantic_series_10_d.jpg"" style=""width: 300px; height: 300px;"" />
                  </div>","null","",""
"","","","","","html-button-response","122","310772","0.0-88.0","7FF5A24F8A074BBFA908D7E96C37E3AF","7FF5A24F8A074BBFA908D7E96C37E3AF","3aaa759d-b943-4755-962e-e8469b961d87","54f8d589-66fc-4c65-830f-1dcc63bce8cc","{""participantId"":""7FF5A24F8A074BBFA908D7E96C37E3AF"",""assignmentId"":""3aaa759d-b943-4755-962e-e8469b961d87"",""projectId"":""54f8d589-66fc-4c65-830f-1dcc63bce8cc""}","https://test12345.live/?participantId=7FF5A24F8A074BBFA908D7E96C37E3AF&assignmentId=3aaa759d-b943-4755-962e-e8469b961d87&projectId=54f8d589-66fc-4c65-830f-1dcc63bce8cc","","604","Was there a person in the picture?","1","",""
"","","","","","survey-likert","123","313049","0.0-89.0","7FF5A24F8A074BBFA908D7E96C37E3AF","7FF5A24F8A074BBFA908D7E96C37E3AF","3aaa759d-b943-4755-962e-e8469b961d87","54f8d589-66fc-4c65-830f-1dcc63bce8cc","{""participantId"":""7FF5A24F8A074BBFA908D7E96C37E3AF"",""assignmentId"":""3aaa759d-b943-4755-962e-e8469b961d87"",""projectId"":""54f8d589-66fc-4c65-830f-1dcc63bce8cc""}","https://test12345.live/?participantId=7FF5A24F8A074BBFA908D7E96C37E3AF&assignmentId=3aaa759d-b943-4755-962e-e8469b961d87&projectId=54f8d589-66fc-4c65-830f-1dcc63bce8cc","","2275","","{""Q0"":3}","","[0]"
"","","","","","html-button-response","124","313827","0.0-90.0","7FF5A24F8A074BBFA908D7E96C37E3AF","7FF5A24F8A074BBFA908D7E96C37E3AF","3aaa759d-b943-4755-962e-e8469b961d87","54f8d589-66fc-4c65-830f-1dcc63bce8cc","{""participantId"":""7FF5A24F8A074BBFA908D7E96C37E3AF"",""assignmentId"":""3aaa759d-b943-4755-962e-e8469b961d87"",""projectId"":""54f8d589-66fc-4c65-830f-1dcc63bce8cc""}","https://test12345.live/?participantId=7FF5A24F8A074BBFA908D7E96C37E3AF&assignmentId=3aaa759d-b943-4755-962e-e8469b961d87&projectId=54f8d589-66fc-4c65-830f-1dcc63bce8cc","","776","
    <div style=""display: flex; justify-content: center; align-items: center;"">
      <img src=""images/red_deck_2.png"" style=""width: 300px; height: 300px; margin-right: 10px;"" />
      <img src=""images/blue_deck_1.png"" style=""width: 300px; height: 300px;"" />
    </div>","0","0",""
"","","","","","html-keyboard-response","125","316828","0.0-91.0-0.0","7FF5A24F8A074BBFA908D7E96C37E3AF","7FF5A24F8A074BBFA908D7E96C37E3AF","3aaa759d-b943-4755-962e-e8469b961d87","54f8d589-66fc-4c65-830f-1dcc63bce8cc","{""participantId"":""7FF5A24F8A074BBFA908D7E96C37E3AF"",""assignmentId"":""3aaa759d-b943-4755-962e-e8469b961d87"",""projectId"":""54f8d589-66fc-4c65-830f-1dcc63bce8cc""}","https://test12345.live/?participantId=7FF5A24F8A074BBFA908D7E96C37E3AF&assignmentId=3aaa759d-b943-4755-962e-e8469b961d87&projectId=54f8d589-66fc-4c65-830f-1dcc63bce8cc","","null","<div style=""display: flex; justify-content: center; align-items: center;"">
                    <img src=""images/causal/causal_series_9/causal_series_9_a.jpg"" style=""width: 300px; height: 300px;"" />
                  </div>","null","",""
"","","","","","html-keyboard-response","126","319830","0.0-91.0-1.0","7FF5A24F8A074BBFA908D7E96C37E3AF","7FF5A24F8A074BBFA908D7E96C37E3AF","3aaa759d-b943-4755-962e-e8469b961d87","54f8d589-66fc-4c65-830f-1dcc63bce8cc","{""participantId"":""7FF5A24F8A074BBFA908D7E96C37E3AF"",""assignmentId"":""3aaa759d-b943-4755-962e-e8469b961d87"",""projectId"":""54f8d589-66fc-4c65-830f-1dcc63bce8cc""}","https://test12345.live/?participantId=7FF5A24F8A074BBFA908D7E96C37E3AF&assignmentId=3aaa759d-b943-4755-962e-e8469b961d87&projectId=54f8d589-66fc-4c65-830f-1dcc63bce8cc","","null","<div style=""display: flex; justify-content: center; align-items: center;"">
                    <img src=""images/causal/causal_series_9/causal_series_9_b.jpg"" style=""width: 300px; height: 300px;"" />
                  </div>","null","",""
"","","","","","html-keyboard-response","127","322832","0.0-91.0-2.0","7FF5A24F8A074BBFA908D7E96C37E3AF","7FF5A24F8A074BBFA908D7E96C37E3AF","3aaa759d-b943-4755-962e-e8469b961d87","54f8d589-66fc-4c65-830f-1dcc63bce8cc","{""participantId"":""7FF5A24F8A074BBFA908D7E96C37E3AF"",""assignmentId"":""3aaa759d-b943-4755-962e-e8469b961d87"",""projectId"":""54f8d589-66fc-4c65-830f-1dcc63bce8cc""}","https://test12345.live/?participantId=7FF5A24F8A074BBFA908D7E96C37E3AF&assignmentId=3aaa759d-b943-4755-962e-e8469b961d87&projectId=54f8d589-66fc-4c65-830f-1dcc63bce8cc","","null","<div style=""display: flex; justify-content: center; align-items: center;"">
                    <img src=""images/causal/causal_series_9/causal_series_9_c.jpg"" style=""width: 300px; height: 300px;"" />
                  </div>","null","",""
"","","","","","html-keyboard-response","128","325833","0.0-91.0-3.0","7FF5A24F8A074BBFA908D7E96C37E3AF","7FF5A24F8A074BBFA908D7E96C37E3AF","3aaa759d-b943-4755-962e-e8469b961d87","54f8d589-66fc-4c65-830f-1dcc63bce8cc","{""participantId"":""7FF5A24F8A074BBFA908D7E96C37E3AF"",""assignmentId"":""3aaa759d-b943-4755-962e-e8469b961d87"",""projectId"":""54f8d589-66fc-4c65-830f-1dcc63bce8cc""}","https://test12345.live/?participantId=7FF5A24F8A074BBFA908D7E96C37E3AF&assignmentId=3aaa759d-b943-4755-962e-e8469b961d87&projectId=54f8d589-66fc-4c65-830f-1dcc63bce8cc","","null","<div style=""display: flex; justify-content: center; align-items: center;"">
                    <img src=""images/causal/causal_series_9/causal_series_9_d.jpg"" style=""width: 300px; height: 300px;"" />
                  </div>","null","",""
"","","","","","html-button-response","129","326835","0.0-93.0","7FF5A24F8A074BBFA908D7E96C37E3AF","7FF5A24F8A074BBFA908D7E96C37E3AF","3aaa759d-b943-4755-962e-e8469b961d87","54f8d589-66fc-4c65-830f-1dcc63bce8cc","{""participantId"":""7FF5A24F8A074BBFA908D7E96C37E3AF"",""assignmentId"":""3aaa759d-b943-4755-962e-e8469b961d87"",""projectId"":""54f8d589-66fc-4c65-830f-1dcc63bce8cc""}","https://test12345.live/?participantId=7FF5A24F8A074BBFA908D7E96C37E3AF&assignmentId=3aaa759d-b943-4755-962e-e8469b961d87&projectId=54f8d589-66fc-4c65-830f-1dcc63bce8cc","","1001","Was there a person in the picture?","1","",""
"","","","","","survey-likert","130","328626","0.0-94.0","7FF5A24F8A074BBFA908D7E96C37E3AF","7FF5A24F8A074BBFA908D7E96C37E3AF","3aaa759d-b943-4755-962e-e8469b961d87","54f8d589-66fc-4c65-830f-1dcc63bce8cc","{""participantId"":""7FF5A24F8A074BBFA908D7E96C37E3AF"",""assignmentId"":""3aaa759d-b943-4755-962e-e8469b961d87"",""projectId"":""54f8d589-66fc-4c65-830f-1dcc63bce8cc""}","https://test12345.live/?participantId=7FF5A24F8A074BBFA908D7E96C37E3AF&assignmentId=3aaa759d-b943-4755-962e-e8469b961d87&projectId=54f8d589-66fc-4c65-830f-1dcc63bce8cc","","1790","","{""Q0"":2}","","[0]"
"","","","","","survey-text","131","350489","0.0-95.0","7FF5A24F8A074BBFA908D7E96C37E3AF","7FF5A24F8A074BBFA908D7E96C37E3AF","3aaa759d-b943-4755-962e-e8469b961d87","54f8d589-66fc-4c65-830f-1dcc63bce8cc","{""participantId"":""7FF5A24F8A074BBFA908D7E96C37E3AF"",""assignmentId"":""3aaa759d-b943-4755-962e-e8469b961d87"",""projectId"":""54f8d589-66fc-4c65-830f-1dcc63bce8cc""}","https://test12345.live/?participantId=7FF5A24F8A074BBFA908D7E96C37E3AF&assignmentId=3aaa759d-b943-4755-962e-e8469b961d87&projectId=54f8d589-66fc-4c65-830f-1dcc63bce8cc","","21853","","{""Q0"":""one seems more cartoon based and one seemed more goal or item based""}","",""
