"success","timeout","failed_images","failed_audio","failed_video","trial_type","trial_index","time_elapsed","internal_node_id","subject","subject_id","study_id","session_id","urlvar","current_url","view_history","rt","stimulus","response","choice","question_order"
"true","false","[]","[]","[]","preload","0","728","0.0-0.0","A4575A39077F4171A2DA9A8A9BBBF126","A4575A39077F4171A2DA9A8A9BBBF126","8f1c9f56-2c21-43c5-ac18-37ce48b1b4fb","e622c465-ee29-4445-8260-1f3431e06587","{""participantId"":""A4575A39077F4171A2DA9A8A9BBBF126"",""assignmentId"":""8f1c9f56-2c21-43c5-ac18-37ce48b1b4fb"",""projectId"":""e622c465-ee29-4445-8260-1f3431e06587""}","https://test12345.live/?participantId=A4575A39077F4171A2DA9A8A9BBBF126&assignmentId=8f1c9f56-2c21-43c5-ac18-37ce48b1b4fb&projectId=e622c465-ee29-4445-8260-1f3431e06587","","","","","",""
"","","","","","instructions","1","1897","0.0-1.0","A4575A39077F4171A2DA9A8A9BBBF126","A4575A39077F4171A2DA9A8A9BBBF126","8f1c9f56-2c21-43c5-ac18-37ce48b1b4fb","e622c465-ee29-4445-8260-1f3431e06587","{""participantId"":""A4575A39077F4171A2DA9A8A9BBBF126"",""assignmentId"":""8f1c9f56-2c21-43c5-ac18-37ce48b1b4fb"",""projectId"":""e622c465-ee29-4445-8260-1f3431e06587""}","https://test12345.live/?participantId=A4575A39077F4171A2DA9A8A9BBBF126&assignmentId=8f1c9f56-2c21-43c5-ac18-37ce48b1b4fb&projectId=e622c465-ee29-4445-8260-1f3431e06587","[{""page_index"":0,""viewing_time"":1168}]","1168","","","",""
"","","","","","instructions","2","5354","0.0-2.0","A4575A39077F4171A2DA9A8A9BBBF126","A4575A39077F4171A2DA9A8A9BBBF126","8f1c9f56-2c21-43c5-ac18-37ce48b1b4fb","e622c465-ee29-4445-8260-1f3431e06587","{""participantId"":""A4575A39077F4171A2DA9A8A9BBBF126"",""assignmentId"":""8f1c9f56-2c21-43c5-ac18-37ce48b1b4fb"",""projectId"":""e622c465-ee29-4445-8260-1f3431e06587""}","https://test12345.live/?participantId=A4575A39077F4171A2DA9A8A9BBBF126&assignmentId=8f1c9f56-2c21-43c5-ac18-37ce48b1b4fb&projectId=e622c465-ee29-4445-8260-1f3431e06587","[{""page_index"":0,""viewing_time"":3456}]","3456","","","",""
"true","","","","","fullscreen","3","8879","0.0-3.0","A4575A39077F4171A2DA9A8A9BBBF126","A4575A39077F4171A2DA9A8A9BBBF126","8f1c9f56-2c21-43c5-ac18-37ce48b1b4fb","e622c465-ee29-4445-8260-1f3431e06587","{""participantId"":""A4575A39077F4171A2DA9A8A9BBBF126"",""assignmentId"":""8f1c9f56-2c21-43c5-ac18-37ce48b1b4fb"",""projectId"":""e622c465-ee29-4445-8260-1f3431e06587""}","https://test12345.live/?participantId=A4575A39077F4171A2DA9A8A9BBBF126&assignmentId=8f1c9f56-2c21-43c5-ac18-37ce48b1b4fb&projectId=e622c465-ee29-4445-8260-1f3431e06587","","2522","","","",""
"","","","","","instructions","4","17436","0.0-4.0","A4575A39077F4171A2DA9A8A9BBBF126","A4575A39077F4171A2DA9A8A9BBBF126","8f1c9f56-2c21-43c5-ac18-37ce48b1b4fb","e622c465-ee29-4445-8260-1f3431e06587","{""participantId"":""A4575A39077F4171A2DA9A8A9BBBF126"",""assignmentId"":""8f1c9f56-2c21-43c5-ac18-37ce48b1b4fb"",""projectId"":""e622c465-ee29-4445-8260-1f3431e06587""}","https://test12345.live/?participantId=A4575A39077F4171A2DA9A8A9BBBF126&assignmentId=8f1c9f56-2c21-43c5-ac18-37ce48b1b4fb&projectId=e622c465-ee29-4445-8260-1f3431e06587","[{""page_index"":0,""viewing_time"":8557}]","8557","","","",""
"","","","","","html-button-response","5","24456","0.0-5.0","A4575A39077F4171A2DA9A8A9BBBF126","A4575A39077F4171A2DA9A8A9BBBF126","8f1c9f56-2c21-43c5-ac18-37ce48b1b4fb","e622c465-ee29-4445-8260-1f3431e06587","{""participantId"":""A4575A39077F4171A2DA9A8A9BBBF126"",""assignmentId"":""8f1c9f56-2c21-43c5-ac18-37ce48b1b4fb"",""projectId"":""e622c465-ee29-4445-8260-1f3431e06587""}","https://test12345.live/?participantId=A4575A39077F4171A2DA9A8A9BBBF126&assignmentId=8f1c9f56-2c21-43c5-ac18-37ce48b1b4fb&projectId=e622c465-ee29-4445-8260-1f3431e06587","","7017","
    <div style=""display: flex; justify-content: center; align-items: center;"">
      <img src=""images/blue_deck_1.png"" style=""width: 300px; height: 300px; margin-right: 10px;"" />
      <img src=""images/red_deck_2.png"" style=""width: 300px; height: 300px;"" />
    </div>","1","1",""
"","","","","","html-keyboard-response","6","27459","0.0-7.0-0.0","A4575A39077F4171A2DA9A8A9BBBF126","A4575A39077F4171A2DA9A8A9BBBF126","8f1c9f56-2c21-43c5-ac18-37ce48b1b4fb","e622c465-ee29-4445-8260-1f3431e06587","{""participantId"":""A4575A39077F4171A2DA9A8A9BBBF126"",""assignmentId"":""8f1c9f56-2c21-43c5-ac18-37ce48b1b4fb"",""projectId"":""e622c465-ee29-4445-8260-1f3431e06587""}","https://test12345.live/?participantId=A4575A39077F4171A2DA9A8A9BBBF126&assignmentId=8f1c9f56-2c21-43c5-ac18-37ce48b1b4fb&projectId=e622c465-ee29-4445-8260-1f3431e06587","","null","<div style=""display: flex; justify-content: center; align-items: center;"">
                    <img src=""images/semantic/semantic_series_18/semantic_series_18_a.jpg"" style=""width: 300px; height: 300px;"" />
                  </div>","null","",""
"","","","","","html-keyboard-response","7","30461","0.0-7.0-1.0","A4575A39077F4171A2DA9A8A9BBBF126","A4575A39077F4171A2DA9A8A9BBBF126","8f1c9f56-2c21-43c5-ac18-37ce48b1b4fb","e622c465-ee29-4445-8260-1f3431e06587","{""participantId"":""A4575A39077F4171A2DA9A8A9BBBF126"",""assignmentId"":""8f1c9f56-2c21-43c5-ac18-37ce48b1b4fb"",""projectId"":""e622c465-ee29-4445-8260-1f3431e06587""}","https://test12345.live/?participantId=A4575A39077F4171A2DA9A8A9BBBF126&assignmentId=8f1c9f56-2c21-43c5-ac18-37ce48b1b4fb&projectId=e622c465-ee29-4445-8260-1f3431e06587","","null","<div style=""display: flex; justify-content: center; align-items: center;"">
                    <img src=""images/semantic/semantic_series_18/semantic_series_18_b.jpg"" style=""width: 300px; height: 300px;"" />
                  </div>","null","",""
"","","","","","html-keyboard-response","8","33463","0.0-7.0-2.0","A4575A39077F4171A2DA9A8A9BBBF126","A4575A39077F4171A2DA9A8A9BBBF126","8f1c9f56-2c21-43c5-ac18-37ce48b1b4fb","e622c465-ee29-4445-8260-1f3431e06587","{""participantId"":""A4575A39077F4171A2DA9A8A9BBBF126"",""assignmentId"":""8f1c9f56-2c21-43c5-ac18-37ce48b1b4fb"",""projectId"":""e622c465-ee29-4445-8260-1f3431e06587""}","https://test12345.live/?participantId=A4575A39077F4171A2DA9A8A9BBBF126&assignmentId=8f1c9f56-2c21-43c5-ac18-37ce48b1b4fb&projectId=e622c465-ee29-4445-8260-1f3431e06587","","null","<div style=""display: flex; justify-content: center; align-items: center;"">
                    <img src=""images/semantic/semantic_series_18/semantic_series_18_c.jpg"" style=""width: 300px; height: 300px;"" />
                  </div>","null","",""
"","","","","","html-keyboard-response","9","36465","0.0-7.0-3.0","A4575A39077F4171A2DA9A8A9BBBF126","A4575A39077F4171A2DA9A8A9BBBF126","8f1c9f56-2c21-43c5-ac18-37ce48b1b4fb","e622c465-ee29-4445-8260-1f3431e06587","{""participantId"":""A4575A39077F4171A2DA9A8A9BBBF126"",""assignmentId"":""8f1c9f56-2c21-43c5-ac18-37ce48b1b4fb"",""projectId"":""e622c465-ee29-4445-8260-1f3431e06587""}","https://test12345.live/?participantId=A4575A39077F4171A2DA9A8A9BBBF126&assignmentId=8f1c9f56-2c21-43c5-ac18-37ce48b1b4fb&projectId=e622c465-ee29-4445-8260-1f3431e06587","","null","<div style=""display: flex; justify-content: center; align-items: center;"">
                    <img src=""images/semantic/semantic_series_18/semantic_series_18_d.jpg"" style=""width: 300px; height: 300px;"" />
                  </div>","null","",""
"","","","","","html-button-response","10","38009","0.0-8.0","A4575A39077F4171A2DA9A8A9BBBF126","A4575A39077F4171A2DA9A8A9BBBF126","8f1c9f56-2c21-43c5-ac18-37ce48b1b4fb","e622c465-ee29-4445-8260-1f3431e06587","{""participantId"":""A4575A39077F4171A2DA9A8A9BBBF126"",""assignmentId"":""8f1c9f56-2c21-43c5-ac18-37ce48b1b4fb"",""projectId"":""e622c465-ee29-4445-8260-1f3431e06587""}","https://test12345.live/?participantId=A4575A39077F4171A2DA9A8A9BBBF126&assignmentId=8f1c9f56-2c21-43c5-ac18-37ce48b1b4fb&projectId=e622c465-ee29-4445-8260-1f3431e06587","","1543","Was there a person in the picture?","1","",""
"","","","","","survey-likert","11","42755","0.0-9.0","A4575A39077F4171A2DA9A8A9BBBF126","A4575A39077F4171A2DA9A8A9BBBF126","8f1c9f56-2c21-43c5-ac18-37ce48b1b4fb","e622c465-ee29-4445-8260-1f3431e06587","{""participantId"":""A4575A39077F4171A2DA9A8A9BBBF126"",""assignmentId"":""8f1c9f56-2c21-43c5-ac18-37ce48b1b4fb"",""projectId"":""e622c465-ee29-4445-8260-1f3431e06587""}","https://test12345.live/?participantId=A4575A39077F4171A2DA9A8A9BBBF126&assignmentId=8f1c9f56-2c21-43c5-ac18-37ce48b1b4fb&projectId=e622c465-ee29-4445-8260-1f3431e06587","","4745","","{""Q0"":2}","","[0]"
"","","","","","html-button-response","12","45378","0.0-10.0","A4575A39077F4171A2DA9A8A9BBBF126","A4575A39077F4171A2DA9A8A9BBBF126","8f1c9f56-2c21-43c5-ac18-37ce48b1b4fb","e622c465-ee29-4445-8260-1f3431e06587","{""participantId"":""A4575A39077F4171A2DA9A8A9BBBF126"",""assignmentId"":""8f1c9f56-2c21-43c5-ac18-37ce48b1b4fb"",""projectId"":""e622c465-ee29-4445-8260-1f3431e06587""}","https://test12345.live/?participantId=A4575A39077F4171A2DA9A8A9BBBF126&assignmentId=8f1c9f56-2c21-43c5-ac18-37ce48b1b4fb&projectId=e622c465-ee29-4445-8260-1f3431e06587","","2621","
    <div style=""display: flex; justify-content: center; align-items: center;"">
      <img src=""images/blue_deck_1.png"" style=""width: 300px; height: 300px; margin-right: 10px;"" />
      <img src=""images/red_deck_2.png"" style=""width: 300px; height: 300px;"" />
    </div>","0","0",""
"","","","","","html-keyboard-response","13","48381","0.0-11.0-0.0","A4575A39077F4171A2DA9A8A9BBBF126","A4575A39077F4171A2DA9A8A9BBBF126","8f1c9f56-2c21-43c5-ac18-37ce48b1b4fb","e622c465-ee29-4445-8260-1f3431e06587","{""participantId"":""A4575A39077F4171A2DA9A8A9BBBF126"",""assignmentId"":""8f1c9f56-2c21-43c5-ac18-37ce48b1b4fb"",""projectId"":""e622c465-ee29-4445-8260-1f3431e06587""}","https://test12345.live/?participantId=A4575A39077F4171A2DA9A8A9BBBF126&assignmentId=8f1c9f56-2c21-43c5-ac18-37ce48b1b4fb&projectId=e622c465-ee29-4445-8260-1f3431e06587","","null","<div style=""display: flex; justify-content: center; align-items: center;"">
                    <img src=""images/causal/causal_series_10/causal_series_10_a.jpg"" style=""width: 300px; height: 300px;"" />
                  </div>","null","",""
"","","","","","html-keyboard-response","14","51382","0.0-11.0-1.0","A4575A39077F4171A2DA9A8A9BBBF126","A4575A39077F4171A2DA9A8A9BBBF126","8f1c9f56-2c21-43c5-ac18-37ce48b1b4fb","e622c465-ee29-4445-8260-1f3431e06587","{""participantId"":""A4575A39077F4171A2DA9A8A9BBBF126"",""assignmentId"":""8f1c9f56-2c21-43c5-ac18-37ce48b1b4fb"",""projectId"":""e622c465-ee29-4445-8260-1f3431e06587""}","https://test12345.live/?participantId=A4575A39077F4171A2DA9A8A9BBBF126&assignmentId=8f1c9f56-2c21-43c5-ac18-37ce48b1b4fb&projectId=e622c465-ee29-4445-8260-1f3431e06587","","null","<div style=""display: flex; justify-content: center; align-items: center;"">
                    <img src=""images/causal/causal_series_10/causal_series_10_b.jpg"" style=""width: 300px; height: 300px;"" />
                  </div>","null","",""
"","","","","","html-keyboard-response","15","54385","0.0-11.0-2.0","A4575A39077F4171A2DA9A8A9BBBF126","A4575A39077F4171A2DA9A8A9BBBF126","8f1c9f56-2c21-43c5-ac18-37ce48b1b4fb","e622c465-ee29-4445-8260-1f3431e06587","{""participantId"":""A4575A39077F4171A2DA9A8A9BBBF126"",""assignmentId"":""8f1c9f56-2c21-43c5-ac18-37ce48b1b4fb"",""projectId"":""e622c465-ee29-4445-8260-1f3431e06587""}","https://test12345.live/?participantId=A4575A39077F4171A2DA9A8A9BBBF126&assignmentId=8f1c9f56-2c21-43c5-ac18-37ce48b1b4fb&projectId=e622c465-ee29-4445-8260-1f3431e06587","","null","<div style=""display: flex; justify-content: center; align-items: center;"">
                    <img src=""images/causal/causal_series_10/causal_series_10_c.jpg"" style=""width: 300px; height: 300px;"" />
                  </div>","null","",""
"","","","","","html-keyboard-response","16","57387","0.0-11.0-3.0","A4575A39077F4171A2DA9A8A9BBBF126","A4575A39077F4171A2DA9A8A9BBBF126","8f1c9f56-2c21-43c5-ac18-37ce48b1b4fb","e622c465-ee29-4445-8260-1f3431e06587","{""participantId"":""A4575A39077F4171A2DA9A8A9BBBF126"",""assignmentId"":""8f1c9f56-2c21-43c5-ac18-37ce48b1b4fb"",""projectId"":""e622c465-ee29-4445-8260-1f3431e06587""}","https://test12345.live/?participantId=A4575A39077F4171A2DA9A8A9BBBF126&assignmentId=8f1c9f56-2c21-43c5-ac18-37ce48b1b4fb&projectId=e622c465-ee29-4445-8260-1f3431e06587","","null","<div style=""display: flex; justify-content: center; align-items: center;"">
                    <img src=""images/causal/causal_series_10/causal_series_10_d.jpg"" style=""width: 300px; height: 300px;"" />
                  </div>","null","",""
"","","","","","html-button-response","17","59383","0.0-13.0","A4575A39077F4171A2DA9A8A9BBBF126","A4575A39077F4171A2DA9A8A9BBBF126","8f1c9f56-2c21-43c5-ac18-37ce48b1b4fb","e622c465-ee29-4445-8260-1f3431e06587","{""participantId"":""A4575A39077F4171A2DA9A8A9BBBF126"",""assignmentId"":""8f1c9f56-2c21-43c5-ac18-37ce48b1b4fb"",""projectId"":""e622c465-ee29-4445-8260-1f3431e06587""}","https://test12345.live/?participantId=A4575A39077F4171A2DA9A8A9BBBF126&assignmentId=8f1c9f56-2c21-43c5-ac18-37ce48b1b4fb&projectId=e622c465-ee29-4445-8260-1f3431e06587","","1995","Was there a person in the picture?","1","",""
"","","","","","survey-likert","18","61372","0.0-14.0","A4575A39077F4171A2DA9A8A9BBBF126","A4575A39077F4171A2DA9A8A9BBBF126","8f1c9f56-2c21-43c5-ac18-37ce48b1b4fb","e622c465-ee29-4445-8260-1f3431e06587","{""participantId"":""A4575A39077F4171A2DA9A8A9BBBF126"",""assignmentId"":""8f1c9f56-2c21-43c5-ac18-37ce48b1b4fb"",""projectId"":""e622c465-ee29-4445-8260-1f3431e06587""}","https://test12345.live/?participantId=A4575A39077F4171A2DA9A8A9BBBF126&assignmentId=8f1c9f56-2c21-43c5-ac18-37ce48b1b4fb&projectId=e622c465-ee29-4445-8260-1f3431e06587","","1988","","{""Q0"":3}","","[0]"
"","","","","","html-button-response","19","63126","0.0-15.0","A4575A39077F4171A2DA9A8A9BBBF126","A4575A39077F4171A2DA9A8A9BBBF126","8f1c9f56-2c21-43c5-ac18-37ce48b1b4fb","e622c465-ee29-4445-8260-1f3431e06587","{""participantId"":""A4575A39077F4171A2DA9A8A9BBBF126"",""assignmentId"":""8f1c9f56-2c21-43c5-ac18-37ce48b1b4fb"",""projectId"":""e622c465-ee29-4445-8260-1f3431e06587""}","https://test12345.live/?participantId=A4575A39077F4171A2DA9A8A9BBBF126&assignmentId=8f1c9f56-2c21-43c5-ac18-37ce48b1b4fb&projectId=e622c465-ee29-4445-8260-1f3431e06587","","1753","
    <div style=""display: flex; justify-content: center; align-items: center;"">
      <img src=""images/blue_deck_1.png"" style=""width: 300px; height: 300px; margin-right: 10px;"" />
      <img src=""images/red_deck_2.png"" style=""width: 300px; height: 300px;"" />
    </div>","0","0",""
"","","","","","html-keyboard-response","20","66128","0.0-16.0-0.0","A4575A39077F4171A2DA9A8A9BBBF126","A4575A39077F4171A2DA9A8A9BBBF126","8f1c9f56-2c21-43c5-ac18-37ce48b1b4fb","e622c465-ee29-4445-8260-1f3431e06587","{""participantId"":""A4575A39077F4171A2DA9A8A9BBBF126"",""assignmentId"":""8f1c9f56-2c21-43c5-ac18-37ce48b1b4fb"",""projectId"":""e622c465-ee29-4445-8260-1f3431e06587""}","https://test12345.live/?participantId=A4575A39077F4171A2DA9A8A9BBBF126&assignmentId=8f1c9f56-2c21-43c5-ac18-37ce48b1b4fb&projectId=e622c465-ee29-4445-8260-1f3431e06587","","null","<div style=""display: flex; justify-content: center; align-items: center;"">
                    <img src=""images/causal/causal_series_17/causal_series_17_a.jpg"" style=""width: 300px; height: 300px;"" />
                  </div>","null","",""
"","","","","","html-keyboard-response","21","69131","0.0-16.0-1.0","A4575A39077F4171A2DA9A8A9BBBF126","A4575A39077F4171A2DA9A8A9BBBF126","8f1c9f56-2c21-43c5-ac18-37ce48b1b4fb","e622c465-ee29-4445-8260-1f3431e06587","{""participantId"":""A4575A39077F4171A2DA9A8A9BBBF126"",""assignmentId"":""8f1c9f56-2c21-43c5-ac18-37ce48b1b4fb"",""projectId"":""e622c465-ee29-4445-8260-1f3431e06587""}","https://test12345.live/?participantId=A4575A39077F4171A2DA9A8A9BBBF126&assignmentId=8f1c9f56-2c21-43c5-ac18-37ce48b1b4fb&projectId=e622c465-ee29-4445-8260-1f3431e06587","","null","<div style=""display: flex; justify-content: center; align-items: center;"">
                    <img src=""images/causal/causal_series_17/causal_series_17_b.jpg"" style=""width: 300px; height: 300px;"" />
                  </div>","null","",""
"","","","","","html-keyboard-response","22","72133","0.0-16.0-2.0","A4575A39077F4171A2DA9A8A9BBBF126","A4575A39077F4171A2DA9A8A9BBBF126","8f1c9f56-2c21-43c5-ac18-37ce48b1b4fb","e622c465-ee29-4445-8260-1f3431e06587","{""participantId"":""A4575A39077F4171A2DA9A8A9BBBF126"",""assignmentId"":""8f1c9f56-2c21-43c5-ac18-37ce48b1b4fb"",""projectId"":""e622c465-ee29-4445-8260-1f3431e06587""}","https://test12345.live/?participantId=A4575A39077F4171A2DA9A8A9BBBF126&assignmentId=8f1c9f56-2c21-43c5-ac18-37ce48b1b4fb&projectId=e622c465-ee29-4445-8260-1f3431e06587","","null","<div style=""display: flex; justify-content: center; align-items: center;"">
                    <img src=""images/causal/causal_series_17/causal_series_17_c.jpg"" style=""width: 300px; height: 300px;"" />
                  </div>","null","",""
"","","","","","html-keyboard-response","23","75135","0.0-16.0-3.0","A4575A39077F4171A2DA9A8A9BBBF126","A4575A39077F4171A2DA9A8A9BBBF126","8f1c9f56-2c21-43c5-ac18-37ce48b1b4fb","e622c465-ee29-4445-8260-1f3431e06587","{""participantId"":""A4575A39077F4171A2DA9A8A9BBBF126"",""assignmentId"":""8f1c9f56-2c21-43c5-ac18-37ce48b1b4fb"",""projectId"":""e622c465-ee29-4445-8260-1f3431e06587""}","https://test12345.live/?participantId=A4575A39077F4171A2DA9A8A9BBBF126&assignmentId=8f1c9f56-2c21-43c5-ac18-37ce48b1b4fb&projectId=e622c465-ee29-4445-8260-1f3431e06587","","null","<div style=""display: flex; justify-content: center; align-items: center;"">
                    <img src=""images/causal/causal_series_17/causal_series_17_d.jpg"" style=""width: 300px; height: 300px;"" />
                  </div>","null","",""
"","","","","","html-button-response","24","77214","0.0-18.0","A4575A39077F4171A2DA9A8A9BBBF126","A4575A39077F4171A2DA9A8A9BBBF126","8f1c9f56-2c21-43c5-ac18-37ce48b1b4fb","e622c465-ee29-4445-8260-1f3431e06587","{""participantId"":""A4575A39077F4171A2DA9A8A9BBBF126"",""assignmentId"":""8f1c9f56-2c21-43c5-ac18-37ce48b1b4fb"",""projectId"":""e622c465-ee29-4445-8260-1f3431e06587""}","https://test12345.live/?participantId=A4575A39077F4171A2DA9A8A9BBBF126&assignmentId=8f1c9f56-2c21-43c5-ac18-37ce48b1b4fb&projectId=e622c465-ee29-4445-8260-1f3431e06587","","2079","Was there a person in the picture?","0","",""
"","","","","","survey-likert","25","79421","0.0-19.0","A4575A39077F4171A2DA9A8A9BBBF126","A4575A39077F4171A2DA9A8A9BBBF126","8f1c9f56-2c21-43c5-ac18-37ce48b1b4fb","e622c465-ee29-4445-8260-1f3431e06587","{""participantId"":""A4575A39077F4171A2DA9A8A9BBBF126"",""assignmentId"":""8f1c9f56-2c21-43c5-ac18-37ce48b1b4fb"",""projectId"":""e622c465-ee29-4445-8260-1f3431e06587""}","https://test12345.live/?participantId=A4575A39077F4171A2DA9A8A9BBBF126&assignmentId=8f1c9f56-2c21-43c5-ac18-37ce48b1b4fb&projectId=e622c465-ee29-4445-8260-1f3431e06587","","2205","","{""Q0"":2}","","[0]"
"","","","","","html-button-response","26","80774","0.0-20.0","A4575A39077F4171A2DA9A8A9BBBF126","A4575A39077F4171A2DA9A8A9BBBF126","8f1c9f56-2c21-43c5-ac18-37ce48b1b4fb","e622c465-ee29-4445-8260-1f3431e06587","{""participantId"":""A4575A39077F4171A2DA9A8A9BBBF126"",""assignmentId"":""8f1c9f56-2c21-43c5-ac18-37ce48b1b4fb"",""projectId"":""e622c465-ee29-4445-8260-1f3431e06587""}","https://test12345.live/?participantId=A4575A39077F4171A2DA9A8A9BBBF126&assignmentId=8f1c9f56-2c21-43c5-ac18-37ce48b1b4fb&projectId=e622c465-ee29-4445-8260-1f3431e06587","","1352","
    <div style=""display: flex; justify-content: center; align-items: center;"">
      <img src=""images/blue_deck_1.png"" style=""width: 300px; height: 300px; margin-right: 10px;"" />
      <img src=""images/red_deck_2.png"" style=""width: 300px; height: 300px;"" />
    </div>","1","1",""
"","","","","","html-keyboard-response","27","83777","0.0-22.0-0.0","A4575A39077F4171A2DA9A8A9BBBF126","A4575A39077F4171A2DA9A8A9BBBF126","8f1c9f56-2c21-43c5-ac18-37ce48b1b4fb","e622c465-ee29-4445-8260-1f3431e06587","{""participantId"":""A4575A39077F4171A2DA9A8A9BBBF126"",""assignmentId"":""8f1c9f56-2c21-43c5-ac18-37ce48b1b4fb"",""projectId"":""e622c465-ee29-4445-8260-1f3431e06587""}","https://test12345.live/?participantId=A4575A39077F4171A2DA9A8A9BBBF126&assignmentId=8f1c9f56-2c21-43c5-ac18-37ce48b1b4fb&projectId=e622c465-ee29-4445-8260-1f3431e06587","","null","<div style=""display: flex; justify-content: center; align-items: center;"">
                    <img src=""images/semantic/semantic_series_4/semantic_series_4_a.jpg"" style=""width: 300px; height: 300px;"" />
                  </div>","null","",""
"","","","","","html-keyboard-response","28","86779","0.0-22.0-1.0","A4575A39077F4171A2DA9A8A9BBBF126","A4575A39077F4171A2DA9A8A9BBBF126","8f1c9f56-2c21-43c5-ac18-37ce48b1b4fb","e622c465-ee29-4445-8260-1f3431e06587","{""participantId"":""A4575A39077F4171A2DA9A8A9BBBF126"",""assignmentId"":""8f1c9f56-2c21-43c5-ac18-37ce48b1b4fb"",""projectId"":""e622c465-ee29-4445-8260-1f3431e06587""}","https://test12345.live/?participantId=A4575A39077F4171A2DA9A8A9BBBF126&assignmentId=8f1c9f56-2c21-43c5-ac18-37ce48b1b4fb&projectId=e622c465-ee29-4445-8260-1f3431e06587","","null","<div style=""display: flex; justify-content: center; align-items: center;"">
                    <img src=""images/semantic/semantic_series_4/semantic_series_4_b.jpg"" style=""width: 300px; height: 300px;"" />
                  </div>","null","",""
"","","","","","html-keyboard-response","29","89781","0.0-22.0-2.0","A4575A39077F4171A2DA9A8A9BBBF126","A4575A39077F4171A2DA9A8A9BBBF126","8f1c9f56-2c21-43c5-ac18-37ce48b1b4fb","e622c465-ee29-4445-8260-1f3431e06587","{""participantId"":""A4575A39077F4171A2DA9A8A9BBBF126"",""assignmentId"":""8f1c9f56-2c21-43c5-ac18-37ce48b1b4fb"",""projectId"":""e622c465-ee29-4445-8260-1f3431e06587""}","https://test12345.live/?participantId=A4575A39077F4171A2DA9A8A9BBBF126&assignmentId=8f1c9f56-2c21-43c5-ac18-37ce48b1b4fb&projectId=e622c465-ee29-4445-8260-1f3431e06587","","null","<div style=""display: flex; justify-content: center; align-items: center;"">
                    <img src=""images/semantic/semantic_series_4/semantic_series_4_c.jpg"" style=""width: 300px; height: 300px;"" />
                  </div>","null","",""
"","","","","","html-keyboard-response","30","92784","0.0-22.0-3.0","A4575A39077F4171A2DA9A8A9BBBF126","A4575A39077F4171A2DA9A8A9BBBF126","8f1c9f56-2c21-43c5-ac18-37ce48b1b4fb","e622c465-ee29-4445-8260-1f3431e06587","{""participantId"":""A4575A39077F4171A2DA9A8A9BBBF126"",""assignmentId"":""8f1c9f56-2c21-43c5-ac18-37ce48b1b4fb"",""projectId"":""e622c465-ee29-4445-8260-1f3431e06587""}","https://test12345.live/?participantId=A4575A39077F4171A2DA9A8A9BBBF126&assignmentId=8f1c9f56-2c21-43c5-ac18-37ce48b1b4fb&projectId=e622c465-ee29-4445-8260-1f3431e06587","","null","<div style=""display: flex; justify-content: center; align-items: center;"">
                    <img src=""images/semantic/semantic_series_4/semantic_series_4_d.jpg"" style=""width: 300px; height: 300px;"" />
                  </div>","null","",""
"","","","","","html-button-response","31","94227","0.0-23.0","A4575A39077F4171A2DA9A8A9BBBF126","A4575A39077F4171A2DA9A8A9BBBF126","8f1c9f56-2c21-43c5-ac18-37ce48b1b4fb","e622c465-ee29-4445-8260-1f3431e06587","{""participantId"":""A4575A39077F4171A2DA9A8A9BBBF126"",""assignmentId"":""8f1c9f56-2c21-43c5-ac18-37ce48b1b4fb"",""projectId"":""e622c465-ee29-4445-8260-1f3431e06587""}","https://test12345.live/?participantId=A4575A39077F4171A2DA9A8A9BBBF126&assignmentId=8f1c9f56-2c21-43c5-ac18-37ce48b1b4fb&projectId=e622c465-ee29-4445-8260-1f3431e06587","","1442","Was there a person in the picture?","1","",""
"","","","","","survey-likert","32","96867","0.0-24.0","A4575A39077F4171A2DA9A8A9BBBF126","A4575A39077F4171A2DA9A8A9BBBF126","8f1c9f56-2c21-43c5-ac18-37ce48b1b4fb","e622c465-ee29-4445-8260-1f3431e06587","{""participantId"":""A4575A39077F4171A2DA9A8A9BBBF126"",""assignmentId"":""8f1c9f56-2c21-43c5-ac18-37ce48b1b4fb"",""projectId"":""e622c465-ee29-4445-8260-1f3431e06587""}","https://test12345.live/?participantId=A4575A39077F4171A2DA9A8A9BBBF126&assignmentId=8f1c9f56-2c21-43c5-ac18-37ce48b1b4fb&projectId=e622c465-ee29-4445-8260-1f3431e06587","","2640","","{""Q0"":1}","","[0]"
"","","","","","html-button-response","33","98271","0.0-25.0","A4575A39077F4171A2DA9A8A9BBBF126","A4575A39077F4171A2DA9A8A9BBBF126","8f1c9f56-2c21-43c5-ac18-37ce48b1b4fb","e622c465-ee29-4445-8260-1f3431e06587","{""participantId"":""A4575A39077F4171A2DA9A8A9BBBF126"",""assignmentId"":""8f1c9f56-2c21-43c5-ac18-37ce48b1b4fb"",""projectId"":""e622c465-ee29-4445-8260-1f3431e06587""}","https://test12345.live/?participantId=A4575A39077F4171A2DA9A8A9BBBF126&assignmentId=8f1c9f56-2c21-43c5-ac18-37ce48b1b4fb&projectId=e622c465-ee29-4445-8260-1f3431e06587","","1402","
    <div style=""display: flex; justify-content: center; align-items: center;"">
      <img src=""images/blue_deck_1.png"" style=""width: 300px; height: 300px; margin-right: 10px;"" />
      <img src=""images/red_deck_2.png"" style=""width: 300px; height: 300px;"" />
    </div>","1","1",""
"","","","","","html-keyboard-response","34","101274","0.0-27.0-0.0","A4575A39077F4171A2DA9A8A9BBBF126","A4575A39077F4171A2DA9A8A9BBBF126","8f1c9f56-2c21-43c5-ac18-37ce48b1b4fb","e622c465-ee29-4445-8260-1f3431e06587","{""participantId"":""A4575A39077F4171A2DA9A8A9BBBF126"",""assignmentId"":""8f1c9f56-2c21-43c5-ac18-37ce48b1b4fb"",""projectId"":""e622c465-ee29-4445-8260-1f3431e06587""}","https://test12345.live/?participantId=A4575A39077F4171A2DA9A8A9BBBF126&assignmentId=8f1c9f56-2c21-43c5-ac18-37ce48b1b4fb&projectId=e622c465-ee29-4445-8260-1f3431e06587","","null","<div style=""display: flex; justify-content: center; align-items: center;"">
                    <img src=""images/semantic/semantic_series_3/semantic_series_3_a.jpg"" style=""width: 300px; height: 300px;"" />
                  </div>","null","",""
"","","","","","html-keyboard-response","35","104276","0.0-27.0-1.0","A4575A39077F4171A2DA9A8A9BBBF126","A4575A39077F4171A2DA9A8A9BBBF126","8f1c9f56-2c21-43c5-ac18-37ce48b1b4fb","e622c465-ee29-4445-8260-1f3431e06587","{""participantId"":""A4575A39077F4171A2DA9A8A9BBBF126"",""assignmentId"":""8f1c9f56-2c21-43c5-ac18-37ce48b1b4fb"",""projectId"":""e622c465-ee29-4445-8260-1f3431e06587""}","https://test12345.live/?participantId=A4575A39077F4171A2DA9A8A9BBBF126&assignmentId=8f1c9f56-2c21-43c5-ac18-37ce48b1b4fb&projectId=e622c465-ee29-4445-8260-1f3431e06587","","null","<div style=""display: flex; justify-content: center; align-items: center;"">
                    <img src=""images/semantic/semantic_series_3/semantic_series_3_b.jpg"" style=""width: 300px; height: 300px;"" />
                  </div>","null","",""
"","","","","","html-keyboard-response","36","107278","0.0-27.0-2.0","A4575A39077F4171A2DA9A8A9BBBF126","A4575A39077F4171A2DA9A8A9BBBF126","8f1c9f56-2c21-43c5-ac18-37ce48b1b4fb","e622c465-ee29-4445-8260-1f3431e06587","{""participantId"":""A4575A39077F4171A2DA9A8A9BBBF126"",""assignmentId"":""8f1c9f56-2c21-43c5-ac18-37ce48b1b4fb"",""projectId"":""e622c465-ee29-4445-8260-1f3431e06587""}","https://test12345.live/?participantId=A4575A39077F4171A2DA9A8A9BBBF126&assignmentId=8f1c9f56-2c21-43c5-ac18-37ce48b1b4fb&projectId=e622c465-ee29-4445-8260-1f3431e06587","","null","<div style=""display: flex; justify-content: center; align-items: center;"">
                    <img src=""images/semantic/semantic_series_3/semantic_series_3_c.jpg"" style=""width: 300px; height: 300px;"" />
                  </div>","null","",""
"","","","","","html-keyboard-response","37","110281","0.0-27.0-3.0","A4575A39077F4171A2DA9A8A9BBBF126","A4575A39077F4171A2DA9A8A9BBBF126","8f1c9f56-2c21-43c5-ac18-37ce48b1b4fb","e622c465-ee29-4445-8260-1f3431e06587","{""participantId"":""A4575A39077F4171A2DA9A8A9BBBF126"",""assignmentId"":""8f1c9f56-2c21-43c5-ac18-37ce48b1b4fb"",""projectId"":""e622c465-ee29-4445-8260-1f3431e06587""}","https://test12345.live/?participantId=A4575A39077F4171A2DA9A8A9BBBF126&assignmentId=8f1c9f56-2c21-43c5-ac18-37ce48b1b4fb&projectId=e622c465-ee29-4445-8260-1f3431e06587","","null","<div style=""display: flex; justify-content: center; align-items: center;"">
                    <img src=""images/semantic/semantic_series_3/semantic_series_3_d.jpg"" style=""width: 300px; height: 300px;"" />
                  </div>","null","",""
"","","","","","html-button-response","38","111674","0.0-28.0","A4575A39077F4171A2DA9A8A9BBBF126","A4575A39077F4171A2DA9A8A9BBBF126","8f1c9f56-2c21-43c5-ac18-37ce48b1b4fb","e622c465-ee29-4445-8260-1f3431e06587","{""participantId"":""A4575A39077F4171A2DA9A8A9BBBF126"",""assignmentId"":""8f1c9f56-2c21-43c5-ac18-37ce48b1b4fb"",""projectId"":""e622c465-ee29-4445-8260-1f3431e06587""}","https://test12345.live/?participantId=A4575A39077F4171A2DA9A8A9BBBF126&assignmentId=8f1c9f56-2c21-43c5-ac18-37ce48b1b4fb&projectId=e622c465-ee29-4445-8260-1f3431e06587","","1392","Was there a person in the picture?","0","",""
"","","","","","survey-likert","39","114214","0.0-29.0","A4575A39077F4171A2DA9A8A9BBBF126","A4575A39077F4171A2DA9A8A9BBBF126","8f1c9f56-2c21-43c5-ac18-37ce48b1b4fb","e622c465-ee29-4445-8260-1f3431e06587","{""participantId"":""A4575A39077F4171A2DA9A8A9BBBF126"",""assignmentId"":""8f1c9f56-2c21-43c5-ac18-37ce48b1b4fb"",""projectId"":""e622c465-ee29-4445-8260-1f3431e06587""}","https://test12345.live/?participantId=A4575A39077F4171A2DA9A8A9BBBF126&assignmentId=8f1c9f56-2c21-43c5-ac18-37ce48b1b4fb&projectId=e622c465-ee29-4445-8260-1f3431e06587","","2540","","{""Q0"":1}","","[0]"
"","","","","","html-button-response","40","115885","0.0-30.0","A4575A39077F4171A2DA9A8A9BBBF126","A4575A39077F4171A2DA9A8A9BBBF126","8f1c9f56-2c21-43c5-ac18-37ce48b1b4fb","e622c465-ee29-4445-8260-1f3431e06587","{""participantId"":""A4575A39077F4171A2DA9A8A9BBBF126"",""assignmentId"":""8f1c9f56-2c21-43c5-ac18-37ce48b1b4fb"",""projectId"":""e622c465-ee29-4445-8260-1f3431e06587""}","https://test12345.live/?participantId=A4575A39077F4171A2DA9A8A9BBBF126&assignmentId=8f1c9f56-2c21-43c5-ac18-37ce48b1b4fb&projectId=e622c465-ee29-4445-8260-1f3431e06587","","1670","
    <div style=""display: flex; justify-content: center; align-items: center;"">
      <img src=""images/blue_deck_1.png"" style=""width: 300px; height: 300px; margin-right: 10px;"" />
      <img src=""images/red_deck_2.png"" style=""width: 300px; height: 300px;"" />
    </div>","1","1",""
"","","","","","html-keyboard-response","41","118887","0.0-32.0-0.0","A4575A39077F4171A2DA9A8A9BBBF126","A4575A39077F4171A2DA9A8A9BBBF126","8f1c9f56-2c21-43c5-ac18-37ce48b1b4fb","e622c465-ee29-4445-8260-1f3431e06587","{""participantId"":""A4575A39077F4171A2DA9A8A9BBBF126"",""assignmentId"":""8f1c9f56-2c21-43c5-ac18-37ce48b1b4fb"",""projectId"":""e622c465-ee29-4445-8260-1f3431e06587""}","https://test12345.live/?participantId=A4575A39077F4171A2DA9A8A9BBBF126&assignmentId=8f1c9f56-2c21-43c5-ac18-37ce48b1b4fb&projectId=e622c465-ee29-4445-8260-1f3431e06587","","null","<div style=""display: flex; justify-content: center; align-items: center;"">
                    <img src=""images/semantic/semantic_series_1/semantic_series_1_a.jpg"" style=""width: 300px; height: 300px;"" />
                  </div>","null","",""
"","","","","","html-keyboard-response","42","121890","0.0-32.0-1.0","A4575A39077F4171A2DA9A8A9BBBF126","A4575A39077F4171A2DA9A8A9BBBF126","8f1c9f56-2c21-43c5-ac18-37ce48b1b4fb","e622c465-ee29-4445-8260-1f3431e06587","{""participantId"":""A4575A39077F4171A2DA9A8A9BBBF126"",""assignmentId"":""8f1c9f56-2c21-43c5-ac18-37ce48b1b4fb"",""projectId"":""e622c465-ee29-4445-8260-1f3431e06587""}","https://test12345.live/?participantId=A4575A39077F4171A2DA9A8A9BBBF126&assignmentId=8f1c9f56-2c21-43c5-ac18-37ce48b1b4fb&projectId=e622c465-ee29-4445-8260-1f3431e06587","","null","<div style=""display: flex; justify-content: center; align-items: center;"">
                    <img src=""images/semantic/semantic_series_1/semantic_series_1_b.jpg"" style=""width: 300px; height: 300px;"" />
                  </div>","null","",""
"","","","","","html-keyboard-response","43","124893","0.0-32.0-2.0","A4575A39077F4171A2DA9A8A9BBBF126","A4575A39077F4171A2DA9A8A9BBBF126","8f1c9f56-2c21-43c5-ac18-37ce48b1b4fb","e622c465-ee29-4445-8260-1f3431e06587","{""participantId"":""A4575A39077F4171A2DA9A8A9BBBF126"",""assignmentId"":""8f1c9f56-2c21-43c5-ac18-37ce48b1b4fb"",""projectId"":""e622c465-ee29-4445-8260-1f3431e06587""}","https://test12345.live/?participantId=A4575A39077F4171A2DA9A8A9BBBF126&assignmentId=8f1c9f56-2c21-43c5-ac18-37ce48b1b4fb&projectId=e622c465-ee29-4445-8260-1f3431e06587","","null","<div style=""display: flex; justify-content: center; align-items: center;"">
                    <img src=""images/semantic/semantic_series_1/semantic_series_1_c.jpg"" style=""width: 300px; height: 300px;"" />
                  </div>","null","",""
"","","","","","html-keyboard-response","44","127895","0.0-32.0-3.0","A4575A39077F4171A2DA9A8A9BBBF126","A4575A39077F4171A2DA9A8A9BBBF126","8f1c9f56-2c21-43c5-ac18-37ce48b1b4fb","e622c465-ee29-4445-8260-1f3431e06587","{""participantId"":""A4575A39077F4171A2DA9A8A9BBBF126"",""assignmentId"":""8f1c9f56-2c21-43c5-ac18-37ce48b1b4fb"",""projectId"":""e622c465-ee29-4445-8260-1f3431e06587""}","https://test12345.live/?participantId=A4575A39077F4171A2DA9A8A9BBBF126&assignmentId=8f1c9f56-2c21-43c5-ac18-37ce48b1b4fb&projectId=e622c465-ee29-4445-8260-1f3431e06587","","null","<div style=""display: flex; justify-content: center; align-items: center;"">
                    <img src=""images/semantic/semantic_series_1/semantic_series_1_d.jpg"" style=""width: 300px; height: 300px;"" />
                  </div>","null","",""
"","","","","","html-button-response","45","129907","0.0-33.0","A4575A39077F4171A2DA9A8A9BBBF126","A4575A39077F4171A2DA9A8A9BBBF126","8f1c9f56-2c21-43c5-ac18-37ce48b1b4fb","e622c465-ee29-4445-8260-1f3431e06587","{""participantId"":""A4575A39077F4171A2DA9A8A9BBBF126"",""assignmentId"":""8f1c9f56-2c21-43c5-ac18-37ce48b1b4fb"",""projectId"":""e622c465-ee29-4445-8260-1f3431e06587""}","https://test12345.live/?participantId=A4575A39077F4171A2DA9A8A9BBBF126&assignmentId=8f1c9f56-2c21-43c5-ac18-37ce48b1b4fb&projectId=e622c465-ee29-4445-8260-1f3431e06587","","2012","Was there a person in the picture?","0","",""
"","","","","","survey-likert","46","132397","0.0-34.0","A4575A39077F4171A2DA9A8A9BBBF126","A4575A39077F4171A2DA9A8A9BBBF126","8f1c9f56-2c21-43c5-ac18-37ce48b1b4fb","e622c465-ee29-4445-8260-1f3431e06587","{""participantId"":""A4575A39077F4171A2DA9A8A9BBBF126"",""assignmentId"":""8f1c9f56-2c21-43c5-ac18-37ce48b1b4fb"",""projectId"":""e622c465-ee29-4445-8260-1f3431e06587""}","https://test12345.live/?participantId=A4575A39077F4171A2DA9A8A9BBBF126&assignmentId=8f1c9f56-2c21-43c5-ac18-37ce48b1b4fb&projectId=e622c465-ee29-4445-8260-1f3431e06587","","2489","","{""Q0"":0}","","[0]"
"","","","","","html-button-response","47","133550","0.0-35.0","A4575A39077F4171A2DA9A8A9BBBF126","A4575A39077F4171A2DA9A8A9BBBF126","8f1c9f56-2c21-43c5-ac18-37ce48b1b4fb","e622c465-ee29-4445-8260-1f3431e06587","{""participantId"":""A4575A39077F4171A2DA9A8A9BBBF126"",""assignmentId"":""8f1c9f56-2c21-43c5-ac18-37ce48b1b4fb"",""projectId"":""e622c465-ee29-4445-8260-1f3431e06587""}","https://test12345.live/?participantId=A4575A39077F4171A2DA9A8A9BBBF126&assignmentId=8f1c9f56-2c21-43c5-ac18-37ce48b1b4fb&projectId=e622c465-ee29-4445-8260-1f3431e06587","","1152","
    <div style=""display: flex; justify-content: center; align-items: center;"">
      <img src=""images/blue_deck_1.png"" style=""width: 300px; height: 300px; margin-right: 10px;"" />
      <img src=""images/red_deck_2.png"" style=""width: 300px; height: 300px;"" />
    </div>","0","0",""
"","","","","","html-keyboard-response","48","136552","0.0-36.0-0.0","A4575A39077F4171A2DA9A8A9BBBF126","A4575A39077F4171A2DA9A8A9BBBF126","8f1c9f56-2c21-43c5-ac18-37ce48b1b4fb","e622c465-ee29-4445-8260-1f3431e06587","{""participantId"":""A4575A39077F4171A2DA9A8A9BBBF126"",""assignmentId"":""8f1c9f56-2c21-43c5-ac18-37ce48b1b4fb"",""projectId"":""e622c465-ee29-4445-8260-1f3431e06587""}","https://test12345.live/?participantId=A4575A39077F4171A2DA9A8A9BBBF126&assignmentId=8f1c9f56-2c21-43c5-ac18-37ce48b1b4fb&projectId=e622c465-ee29-4445-8260-1f3431e06587","","null","<div style=""display: flex; justify-content: center; align-items: center;"">
                    <img src=""images/causal/causal_series_5/causal_series_5_a.jpg"" style=""width: 300px; height: 300px;"" />
                  </div>","null","",""
"","","","","","html-keyboard-response","49","139554","0.0-36.0-1.0","A4575A39077F4171A2DA9A8A9BBBF126","A4575A39077F4171A2DA9A8A9BBBF126","8f1c9f56-2c21-43c5-ac18-37ce48b1b4fb","e622c465-ee29-4445-8260-1f3431e06587","{""participantId"":""A4575A39077F4171A2DA9A8A9BBBF126"",""assignmentId"":""8f1c9f56-2c21-43c5-ac18-37ce48b1b4fb"",""projectId"":""e622c465-ee29-4445-8260-1f3431e06587""}","https://test12345.live/?participantId=A4575A39077F4171A2DA9A8A9BBBF126&assignmentId=8f1c9f56-2c21-43c5-ac18-37ce48b1b4fb&projectId=e622c465-ee29-4445-8260-1f3431e06587","","null","<div style=""display: flex; justify-content: center; align-items: center;"">
                    <img src=""images/causal/causal_series_5/causal_series_5_b.jpg"" style=""width: 300px; height: 300px;"" />
                  </div>","null","",""
"","","","","","html-keyboard-response","50","142557","0.0-36.0-2.0","A4575A39077F4171A2DA9A8A9BBBF126","A4575A39077F4171A2DA9A8A9BBBF126","8f1c9f56-2c21-43c5-ac18-37ce48b1b4fb","e622c465-ee29-4445-8260-1f3431e06587","{""participantId"":""A4575A39077F4171A2DA9A8A9BBBF126"",""assignmentId"":""8f1c9f56-2c21-43c5-ac18-37ce48b1b4fb"",""projectId"":""e622c465-ee29-4445-8260-1f3431e06587""}","https://test12345.live/?participantId=A4575A39077F4171A2DA9A8A9BBBF126&assignmentId=8f1c9f56-2c21-43c5-ac18-37ce48b1b4fb&projectId=e622c465-ee29-4445-8260-1f3431e06587","","null","<div style=""display: flex; justify-content: center; align-items: center;"">
                    <img src=""images/causal/causal_series_5/causal_series_5_c.jpg"" style=""width: 300px; height: 300px;"" />
                  </div>","null","",""
"","","","","","html-keyboard-response","51","145558","0.0-36.0-3.0","A4575A39077F4171A2DA9A8A9BBBF126","A4575A39077F4171A2DA9A8A9BBBF126","8f1c9f56-2c21-43c5-ac18-37ce48b1b4fb","e622c465-ee29-4445-8260-1f3431e06587","{""participantId"":""A4575A39077F4171A2DA9A8A9BBBF126"",""assignmentId"":""8f1c9f56-2c21-43c5-ac18-37ce48b1b4fb"",""projectId"":""e622c465-ee29-4445-8260-1f3431e06587""}","https://test12345.live/?participantId=A4575A39077F4171A2DA9A8A9BBBF126&assignmentId=8f1c9f56-2c21-43c5-ac18-37ce48b1b4fb&projectId=e622c465-ee29-4445-8260-1f3431e06587","","null","<div style=""display: flex; justify-content: center; align-items: center;"">
                    <img src=""images/causal/causal_series_5/causal_series_5_d.jpg"" style=""width: 300px; height: 300px;"" />
                  </div>","null","",""
"","","","","","html-button-response","52","147237","0.0-38.0","A4575A39077F4171A2DA9A8A9BBBF126","A4575A39077F4171A2DA9A8A9BBBF126","8f1c9f56-2c21-43c5-ac18-37ce48b1b4fb","e622c465-ee29-4445-8260-1f3431e06587","{""participantId"":""A4575A39077F4171A2DA9A8A9BBBF126"",""assignmentId"":""8f1c9f56-2c21-43c5-ac18-37ce48b1b4fb"",""projectId"":""e622c465-ee29-4445-8260-1f3431e06587""}","https://test12345.live/?participantId=A4575A39077F4171A2DA9A8A9BBBF126&assignmentId=8f1c9f56-2c21-43c5-ac18-37ce48b1b4fb&projectId=e622c465-ee29-4445-8260-1f3431e06587","","1677","Was there a person in the picture?","0","",""
"","","","","","survey-likert","53","149426","0.0-39.0","A4575A39077F4171A2DA9A8A9BBBF126","A4575A39077F4171A2DA9A8A9BBBF126","8f1c9f56-2c21-43c5-ac18-37ce48b1b4fb","e622c465-ee29-4445-8260-1f3431e06587","{""participantId"":""A4575A39077F4171A2DA9A8A9BBBF126"",""assignmentId"":""8f1c9f56-2c21-43c5-ac18-37ce48b1b4fb"",""projectId"":""e622c465-ee29-4445-8260-1f3431e06587""}","https://test12345.live/?participantId=A4575A39077F4171A2DA9A8A9BBBF126&assignmentId=8f1c9f56-2c21-43c5-ac18-37ce48b1b4fb&projectId=e622c465-ee29-4445-8260-1f3431e06587","","2188","","{""Q0"":1}","","[0]"
"","","","","","html-button-response","54","150896","0.0-40.0","A4575A39077F4171A2DA9A8A9BBBF126","A4575A39077F4171A2DA9A8A9BBBF126","8f1c9f56-2c21-43c5-ac18-37ce48b1b4fb","e622c465-ee29-4445-8260-1f3431e06587","{""participantId"":""A4575A39077F4171A2DA9A8A9BBBF126"",""assignmentId"":""8f1c9f56-2c21-43c5-ac18-37ce48b1b4fb"",""projectId"":""e622c465-ee29-4445-8260-1f3431e06587""}","https://test12345.live/?participantId=A4575A39077F4171A2DA9A8A9BBBF126&assignmentId=8f1c9f56-2c21-43c5-ac18-37ce48b1b4fb&projectId=e622c465-ee29-4445-8260-1f3431e06587","","1469","
    <div style=""display: flex; justify-content: center; align-items: center;"">
      <img src=""images/blue_deck_1.png"" style=""width: 300px; height: 300px; margin-right: 10px;"" />
      <img src=""images/red_deck_2.png"" style=""width: 300px; height: 300px;"" />
    </div>","0","0",""
"","","","","","html-keyboard-response","55","153898","0.0-41.0-0.0","A4575A39077F4171A2DA9A8A9BBBF126","A4575A39077F4171A2DA9A8A9BBBF126","8f1c9f56-2c21-43c5-ac18-37ce48b1b4fb","e622c465-ee29-4445-8260-1f3431e06587","{""participantId"":""A4575A39077F4171A2DA9A8A9BBBF126"",""assignmentId"":""8f1c9f56-2c21-43c5-ac18-37ce48b1b4fb"",""projectId"":""e622c465-ee29-4445-8260-1f3431e06587""}","https://test12345.live/?participantId=A4575A39077F4171A2DA9A8A9BBBF126&assignmentId=8f1c9f56-2c21-43c5-ac18-37ce48b1b4fb&projectId=e622c465-ee29-4445-8260-1f3431e06587","","null","<div style=""display: flex; justify-content: center; align-items: center;"">
                    <img src=""images/causal/causal_series_12/causal_series_12_a.jpg"" style=""width: 300px; height: 300px;"" />
                  </div>","null","",""
"","","","","","html-keyboard-response","56","156900","0.0-41.0-1.0","A4575A39077F4171A2DA9A8A9BBBF126","A4575A39077F4171A2DA9A8A9BBBF126","8f1c9f56-2c21-43c5-ac18-37ce48b1b4fb","e622c465-ee29-4445-8260-1f3431e06587","{""participantId"":""A4575A39077F4171A2DA9A8A9BBBF126"",""assignmentId"":""8f1c9f56-2c21-43c5-ac18-37ce48b1b4fb"",""projectId"":""e622c465-ee29-4445-8260-1f3431e06587""}","https://test12345.live/?participantId=A4575A39077F4171A2DA9A8A9BBBF126&assignmentId=8f1c9f56-2c21-43c5-ac18-37ce48b1b4fb&projectId=e622c465-ee29-4445-8260-1f3431e06587","","null","<div style=""display: flex; justify-content: center; align-items: center;"">
                    <img src=""images/causal/causal_series_12/causal_series_12_b.jpg"" style=""width: 300px; height: 300px;"" />
                  </div>","null","",""
"","","","","","html-keyboard-response","57","159902","0.0-41.0-2.0","A4575A39077F4171A2DA9A8A9BBBF126","A4575A39077F4171A2DA9A8A9BBBF126","8f1c9f56-2c21-43c5-ac18-37ce48b1b4fb","e622c465-ee29-4445-8260-1f3431e06587","{""participantId"":""A4575A39077F4171A2DA9A8A9BBBF126"",""assignmentId"":""8f1c9f56-2c21-43c5-ac18-37ce48b1b4fb"",""projectId"":""e622c465-ee29-4445-8260-1f3431e06587""}","https://test12345.live/?participantId=A4575A39077F4171A2DA9A8A9BBBF126&assignmentId=8f1c9f56-2c21-43c5-ac18-37ce48b1b4fb&projectId=e622c465-ee29-4445-8260-1f3431e06587","","null","<div style=""display: flex; justify-content: center; align-items: center;"">
                    <img src=""images/causal/causal_series_12/causal_series_12_c.jpg"" style=""width: 300px; height: 300px;"" />
                  </div>","null","",""
"","","","","","html-keyboard-response","58","162904","0.0-41.0-3.0","A4575A39077F4171A2DA9A8A9BBBF126","A4575A39077F4171A2DA9A8A9BBBF126","8f1c9f56-2c21-43c5-ac18-37ce48b1b4fb","e622c465-ee29-4445-8260-1f3431e06587","{""participantId"":""A4575A39077F4171A2DA9A8A9BBBF126"",""assignmentId"":""8f1c9f56-2c21-43c5-ac18-37ce48b1b4fb"",""projectId"":""e622c465-ee29-4445-8260-1f3431e06587""}","https://test12345.live/?participantId=A4575A39077F4171A2DA9A8A9BBBF126&assignmentId=8f1c9f56-2c21-43c5-ac18-37ce48b1b4fb&projectId=e622c465-ee29-4445-8260-1f3431e06587","","null","<div style=""display: flex; justify-content: center; align-items: center;"">
                    <img src=""images/causal/causal_series_12/causal_series_12_d.jpg"" style=""width: 300px; height: 300px;"" />
                  </div>","null","",""
"","","","","","html-button-response","59","164249","0.0-43.0","A4575A39077F4171A2DA9A8A9BBBF126","A4575A39077F4171A2DA9A8A9BBBF126","8f1c9f56-2c21-43c5-ac18-37ce48b1b4fb","e622c465-ee29-4445-8260-1f3431e06587","{""participantId"":""A4575A39077F4171A2DA9A8A9BBBF126"",""assignmentId"":""8f1c9f56-2c21-43c5-ac18-37ce48b1b4fb"",""projectId"":""e622c465-ee29-4445-8260-1f3431e06587""}","https://test12345.live/?participantId=A4575A39077F4171A2DA9A8A9BBBF126&assignmentId=8f1c9f56-2c21-43c5-ac18-37ce48b1b4fb&projectId=e622c465-ee29-4445-8260-1f3431e06587","","1345","Was there a person in the picture?","1","",""
"","","","","","survey-likert","60","165987","0.0-44.0","A4575A39077F4171A2DA9A8A9BBBF126","A4575A39077F4171A2DA9A8A9BBBF126","8f1c9f56-2c21-43c5-ac18-37ce48b1b4fb","e622c465-ee29-4445-8260-1f3431e06587","{""participantId"":""A4575A39077F4171A2DA9A8A9BBBF126"",""assignmentId"":""8f1c9f56-2c21-43c5-ac18-37ce48b1b4fb"",""projectId"":""e622c465-ee29-4445-8260-1f3431e06587""}","https://test12345.live/?participantId=A4575A39077F4171A2DA9A8A9BBBF126&assignmentId=8f1c9f56-2c21-43c5-ac18-37ce48b1b4fb&projectId=e622c465-ee29-4445-8260-1f3431e06587","","1737","","{""Q0"":2}","","[0]"
"","","","","","html-button-response","61","166873","0.0-45.0","A4575A39077F4171A2DA9A8A9BBBF126","A4575A39077F4171A2DA9A8A9BBBF126","8f1c9f56-2c21-43c5-ac18-37ce48b1b4fb","e622c465-ee29-4445-8260-1f3431e06587","{""participantId"":""A4575A39077F4171A2DA9A8A9BBBF126"",""assignmentId"":""8f1c9f56-2c21-43c5-ac18-37ce48b1b4fb"",""projectId"":""e622c465-ee29-4445-8260-1f3431e06587""}","https://test12345.live/?participantId=A4575A39077F4171A2DA9A8A9BBBF126&assignmentId=8f1c9f56-2c21-43c5-ac18-37ce48b1b4fb&projectId=e622c465-ee29-4445-8260-1f3431e06587","","884","
    <div style=""display: flex; justify-content: center; align-items: center;"">
      <img src=""images/blue_deck_1.png"" style=""width: 300px; height: 300px; margin-right: 10px;"" />
      <img src=""images/red_deck_2.png"" style=""width: 300px; height: 300px;"" />
    </div>","1","1",""
"","","","","","html-keyboard-response","62","169875","0.0-47.0-0.0","A4575A39077F4171A2DA9A8A9BBBF126","A4575A39077F4171A2DA9A8A9BBBF126","8f1c9f56-2c21-43c5-ac18-37ce48b1b4fb","e622c465-ee29-4445-8260-1f3431e06587","{""participantId"":""A4575A39077F4171A2DA9A8A9BBBF126"",""assignmentId"":""8f1c9f56-2c21-43c5-ac18-37ce48b1b4fb"",""projectId"":""e622c465-ee29-4445-8260-1f3431e06587""}","https://test12345.live/?participantId=A4575A39077F4171A2DA9A8A9BBBF126&assignmentId=8f1c9f56-2c21-43c5-ac18-37ce48b1b4fb&projectId=e622c465-ee29-4445-8260-1f3431e06587","","null","<div style=""display: flex; justify-content: center; align-items: center;"">
                    <img src=""images/semantic/semantic_series_5/semantic_series_5_a.jpg"" style=""width: 300px; height: 300px;"" />
                  </div>","null","",""
"","","","","","html-keyboard-response","63","172877","0.0-47.0-1.0","A4575A39077F4171A2DA9A8A9BBBF126","A4575A39077F4171A2DA9A8A9BBBF126","8f1c9f56-2c21-43c5-ac18-37ce48b1b4fb","e622c465-ee29-4445-8260-1f3431e06587","{""participantId"":""A4575A39077F4171A2DA9A8A9BBBF126"",""assignmentId"":""8f1c9f56-2c21-43c5-ac18-37ce48b1b4fb"",""projectId"":""e622c465-ee29-4445-8260-1f3431e06587""}","https://test12345.live/?participantId=A4575A39077F4171A2DA9A8A9BBBF126&assignmentId=8f1c9f56-2c21-43c5-ac18-37ce48b1b4fb&projectId=e622c465-ee29-4445-8260-1f3431e06587","","null","<div style=""display: flex; justify-content: center; align-items: center;"">
                    <img src=""images/semantic/semantic_series_5/semantic_series_5_b.jpg"" style=""width: 300px; height: 300px;"" />
                  </div>","null","",""
"","","","","","html-keyboard-response","64","175880","0.0-47.0-2.0","A4575A39077F4171A2DA9A8A9BBBF126","A4575A39077F4171A2DA9A8A9BBBF126","8f1c9f56-2c21-43c5-ac18-37ce48b1b4fb","e622c465-ee29-4445-8260-1f3431e06587","{""participantId"":""A4575A39077F4171A2DA9A8A9BBBF126"",""assignmentId"":""8f1c9f56-2c21-43c5-ac18-37ce48b1b4fb"",""projectId"":""e622c465-ee29-4445-8260-1f3431e06587""}","https://test12345.live/?participantId=A4575A39077F4171A2DA9A8A9BBBF126&assignmentId=8f1c9f56-2c21-43c5-ac18-37ce48b1b4fb&projectId=e622c465-ee29-4445-8260-1f3431e06587","","null","<div style=""display: flex; justify-content: center; align-items: center;"">
                    <img src=""images/semantic/semantic_series_5/semantic_series_5_c.jpg"" style=""width: 300px; height: 300px;"" />
                  </div>","null","",""
"","","","","","html-keyboard-response","65","178882","0.0-47.0-3.0","A4575A39077F4171A2DA9A8A9BBBF126","A4575A39077F4171A2DA9A8A9BBBF126","8f1c9f56-2c21-43c5-ac18-37ce48b1b4fb","e622c465-ee29-4445-8260-1f3431e06587","{""participantId"":""A4575A39077F4171A2DA9A8A9BBBF126"",""assignmentId"":""8f1c9f56-2c21-43c5-ac18-37ce48b1b4fb"",""projectId"":""e622c465-ee29-4445-8260-1f3431e06587""}","https://test12345.live/?participantId=A4575A39077F4171A2DA9A8A9BBBF126&assignmentId=8f1c9f56-2c21-43c5-ac18-37ce48b1b4fb&projectId=e622c465-ee29-4445-8260-1f3431e06587","","null","<div style=""display: flex; justify-content: center; align-items: center;"">
                    <img src=""images/semantic/semantic_series_5/semantic_series_5_d.jpg"" style=""width: 300px; height: 300px;"" />
                  </div>","null","",""
"","","","","","html-button-response","66","180209","0.0-48.0","A4575A39077F4171A2DA9A8A9BBBF126","A4575A39077F4171A2DA9A8A9BBBF126","8f1c9f56-2c21-43c5-ac18-37ce48b1b4fb","e622c465-ee29-4445-8260-1f3431e06587","{""participantId"":""A4575A39077F4171A2DA9A8A9BBBF126"",""assignmentId"":""8f1c9f56-2c21-43c5-ac18-37ce48b1b4fb"",""projectId"":""e622c465-ee29-4445-8260-1f3431e06587""}","https://test12345.live/?participantId=A4575A39077F4171A2DA9A8A9BBBF126&assignmentId=8f1c9f56-2c21-43c5-ac18-37ce48b1b4fb&projectId=e622c465-ee29-4445-8260-1f3431e06587","","1327","Was there a person in the picture?","0","",""
"","","","","","survey-likert","67","182682","0.0-49.0","A4575A39077F4171A2DA9A8A9BBBF126","A4575A39077F4171A2DA9A8A9BBBF126","8f1c9f56-2c21-43c5-ac18-37ce48b1b4fb","e622c465-ee29-4445-8260-1f3431e06587","{""participantId"":""A4575A39077F4171A2DA9A8A9BBBF126"",""assignmentId"":""8f1c9f56-2c21-43c5-ac18-37ce48b1b4fb"",""projectId"":""e622c465-ee29-4445-8260-1f3431e06587""}","https://test12345.live/?participantId=A4575A39077F4171A2DA9A8A9BBBF126&assignmentId=8f1c9f56-2c21-43c5-ac18-37ce48b1b4fb&projectId=e622c465-ee29-4445-8260-1f3431e06587","","2472","","{""Q0"":3}","","[0]"
"","","","","","html-button-response","68","183685","0.0-50.0","A4575A39077F4171A2DA9A8A9BBBF126","A4575A39077F4171A2DA9A8A9BBBF126","8f1c9f56-2c21-43c5-ac18-37ce48b1b4fb","e622c465-ee29-4445-8260-1f3431e06587","{""participantId"":""A4575A39077F4171A2DA9A8A9BBBF126"",""assignmentId"":""8f1c9f56-2c21-43c5-ac18-37ce48b1b4fb"",""projectId"":""e622c465-ee29-4445-8260-1f3431e06587""}","https://test12345.live/?participantId=A4575A39077F4171A2DA9A8A9BBBF126&assignmentId=8f1c9f56-2c21-43c5-ac18-37ce48b1b4fb&projectId=e622c465-ee29-4445-8260-1f3431e06587","","1002","
    <div style=""display: flex; justify-content: center; align-items: center;"">
      <img src=""images/blue_deck_1.png"" style=""width: 300px; height: 300px; margin-right: 10px;"" />
      <img src=""images/red_deck_2.png"" style=""width: 300px; height: 300px;"" />
    </div>","0","0",""
"","","","","","html-keyboard-response","69","186687","0.0-51.0-0.0","A4575A39077F4171A2DA9A8A9BBBF126","A4575A39077F4171A2DA9A8A9BBBF126","8f1c9f56-2c21-43c5-ac18-37ce48b1b4fb","e622c465-ee29-4445-8260-1f3431e06587","{""participantId"":""A4575A39077F4171A2DA9A8A9BBBF126"",""assignmentId"":""8f1c9f56-2c21-43c5-ac18-37ce48b1b4fb"",""projectId"":""e622c465-ee29-4445-8260-1f3431e06587""}","https://test12345.live/?participantId=A4575A39077F4171A2DA9A8A9BBBF126&assignmentId=8f1c9f56-2c21-43c5-ac18-37ce48b1b4fb&projectId=e622c465-ee29-4445-8260-1f3431e06587","","null","<div style=""display: flex; justify-content: center; align-items: center;"">
                    <img src=""images/causal/causal_series_2/causal_series_2_a.jpg"" style=""width: 300px; height: 300px;"" />
                  </div>","null","",""
"","","","","","html-keyboard-response","70","189689","0.0-51.0-1.0","A4575A39077F4171A2DA9A8A9BBBF126","A4575A39077F4171A2DA9A8A9BBBF126","8f1c9f56-2c21-43c5-ac18-37ce48b1b4fb","e622c465-ee29-4445-8260-1f3431e06587","{""participantId"":""A4575A39077F4171A2DA9A8A9BBBF126"",""assignmentId"":""8f1c9f56-2c21-43c5-ac18-37ce48b1b4fb"",""projectId"":""e622c465-ee29-4445-8260-1f3431e06587""}","https://test12345.live/?participantId=A4575A39077F4171A2DA9A8A9BBBF126&assignmentId=8f1c9f56-2c21-43c5-ac18-37ce48b1b4fb&projectId=e622c465-ee29-4445-8260-1f3431e06587","","null","<div style=""display: flex; justify-content: center; align-items: center;"">
                    <img src=""images/causal/causal_series_2/causal_series_2_b.jpg"" style=""width: 300px; height: 300px;"" />
                  </div>","null","",""
"","","","","","html-keyboard-response","71","192692","0.0-51.0-2.0","A4575A39077F4171A2DA9A8A9BBBF126","A4575A39077F4171A2DA9A8A9BBBF126","8f1c9f56-2c21-43c5-ac18-37ce48b1b4fb","e622c465-ee29-4445-8260-1f3431e06587","{""participantId"":""A4575A39077F4171A2DA9A8A9BBBF126"",""assignmentId"":""8f1c9f56-2c21-43c5-ac18-37ce48b1b4fb"",""projectId"":""e622c465-ee29-4445-8260-1f3431e06587""}","https://test12345.live/?participantId=A4575A39077F4171A2DA9A8A9BBBF126&assignmentId=8f1c9f56-2c21-43c5-ac18-37ce48b1b4fb&projectId=e622c465-ee29-4445-8260-1f3431e06587","","null","<div style=""display: flex; justify-content: center; align-items: center;"">
                    <img src=""images/causal/causal_series_2/causal_series_2_c.jpg"" style=""width: 300px; height: 300px;"" />
                  </div>","null","",""
"","","","","","html-keyboard-response","72","195694","0.0-51.0-3.0","A4575A39077F4171A2DA9A8A9BBBF126","A4575A39077F4171A2DA9A8A9BBBF126","8f1c9f56-2c21-43c5-ac18-37ce48b1b4fb","e622c465-ee29-4445-8260-1f3431e06587","{""participantId"":""A4575A39077F4171A2DA9A8A9BBBF126"",""assignmentId"":""8f1c9f56-2c21-43c5-ac18-37ce48b1b4fb"",""projectId"":""e622c465-ee29-4445-8260-1f3431e06587""}","https://test12345.live/?participantId=A4575A39077F4171A2DA9A8A9BBBF126&assignmentId=8f1c9f56-2c21-43c5-ac18-37ce48b1b4fb&projectId=e622c465-ee29-4445-8260-1f3431e06587","","null","<div style=""display: flex; justify-content: center; align-items: center;"">
                    <img src=""images/causal/causal_series_2/causal_series_2_d.jpg"" style=""width: 300px; height: 300px;"" />
                  </div>","null","",""
"","","","","","html-button-response","73","196971","0.0-53.0","A4575A39077F4171A2DA9A8A9BBBF126","A4575A39077F4171A2DA9A8A9BBBF126","8f1c9f56-2c21-43c5-ac18-37ce48b1b4fb","e622c465-ee29-4445-8260-1f3431e06587","{""participantId"":""A4575A39077F4171A2DA9A8A9BBBF126"",""assignmentId"":""8f1c9f56-2c21-43c5-ac18-37ce48b1b4fb"",""projectId"":""e622c465-ee29-4445-8260-1f3431e06587""}","https://test12345.live/?participantId=A4575A39077F4171A2DA9A8A9BBBF126&assignmentId=8f1c9f56-2c21-43c5-ac18-37ce48b1b4fb&projectId=e622c465-ee29-4445-8260-1f3431e06587","","1276","Was there a person in the picture?","0","",""
"","","","","","survey-likert","74","198994","0.0-54.0","A4575A39077F4171A2DA9A8A9BBBF126","A4575A39077F4171A2DA9A8A9BBBF126","8f1c9f56-2c21-43c5-ac18-37ce48b1b4fb","e622c465-ee29-4445-8260-1f3431e06587","{""participantId"":""A4575A39077F4171A2DA9A8A9BBBF126"",""assignmentId"":""8f1c9f56-2c21-43c5-ac18-37ce48b1b4fb"",""projectId"":""e622c465-ee29-4445-8260-1f3431e06587""}","https://test12345.live/?participantId=A4575A39077F4171A2DA9A8A9BBBF126&assignmentId=8f1c9f56-2c21-43c5-ac18-37ce48b1b4fb&projectId=e622c465-ee29-4445-8260-1f3431e06587","","2022","","{""Q0"":1}","","[0]"
"","","","","","html-button-response","75","200063","0.0-55.0","A4575A39077F4171A2DA9A8A9BBBF126","A4575A39077F4171A2DA9A8A9BBBF126","8f1c9f56-2c21-43c5-ac18-37ce48b1b4fb","e622c465-ee29-4445-8260-1f3431e06587","{""participantId"":""A4575A39077F4171A2DA9A8A9BBBF126"",""assignmentId"":""8f1c9f56-2c21-43c5-ac18-37ce48b1b4fb"",""projectId"":""e622c465-ee29-4445-8260-1f3431e06587""}","https://test12345.live/?participantId=A4575A39077F4171A2DA9A8A9BBBF126&assignmentId=8f1c9f56-2c21-43c5-ac18-37ce48b1b4fb&projectId=e622c465-ee29-4445-8260-1f3431e06587","","1068","
    <div style=""display: flex; justify-content: center; align-items: center;"">
      <img src=""images/blue_deck_1.png"" style=""width: 300px; height: 300px; margin-right: 10px;"" />
      <img src=""images/red_deck_2.png"" style=""width: 300px; height: 300px;"" />
    </div>","0","0",""
"","","","","","html-keyboard-response","76","203065","0.0-56.0-0.0","A4575A39077F4171A2DA9A8A9BBBF126","A4575A39077F4171A2DA9A8A9BBBF126","8f1c9f56-2c21-43c5-ac18-37ce48b1b4fb","e622c465-ee29-4445-8260-1f3431e06587","{""participantId"":""A4575A39077F4171A2DA9A8A9BBBF126"",""assignmentId"":""8f1c9f56-2c21-43c5-ac18-37ce48b1b4fb"",""projectId"":""e622c465-ee29-4445-8260-1f3431e06587""}","https://test12345.live/?participantId=A4575A39077F4171A2DA9A8A9BBBF126&assignmentId=8f1c9f56-2c21-43c5-ac18-37ce48b1b4fb&projectId=e622c465-ee29-4445-8260-1f3431e06587","","null","<div style=""display: flex; justify-content: center; align-items: center;"">
                    <img src=""images/causal/causal_series_14/causal_series_14_a.jpg"" style=""width: 300px; height: 300px;"" />
                  </div>","null","",""
"","","","","","html-keyboard-response","77","206068","0.0-56.0-1.0","A4575A39077F4171A2DA9A8A9BBBF126","A4575A39077F4171A2DA9A8A9BBBF126","8f1c9f56-2c21-43c5-ac18-37ce48b1b4fb","e622c465-ee29-4445-8260-1f3431e06587","{""participantId"":""A4575A39077F4171A2DA9A8A9BBBF126"",""assignmentId"":""8f1c9f56-2c21-43c5-ac18-37ce48b1b4fb"",""projectId"":""e622c465-ee29-4445-8260-1f3431e06587""}","https://test12345.live/?participantId=A4575A39077F4171A2DA9A8A9BBBF126&assignmentId=8f1c9f56-2c21-43c5-ac18-37ce48b1b4fb&projectId=e622c465-ee29-4445-8260-1f3431e06587","","null","<div style=""display: flex; justify-content: center; align-items: center;"">
                    <img src=""images/causal/causal_series_14/causal_series_14_b.jpg"" style=""width: 300px; height: 300px;"" />
                  </div>","null","",""
"","","","","","html-keyboard-response","78","209070","0.0-56.0-2.0","A4575A39077F4171A2DA9A8A9BBBF126","A4575A39077F4171A2DA9A8A9BBBF126","8f1c9f56-2c21-43c5-ac18-37ce48b1b4fb","e622c465-ee29-4445-8260-1f3431e06587","{""participantId"":""A4575A39077F4171A2DA9A8A9BBBF126"",""assignmentId"":""8f1c9f56-2c21-43c5-ac18-37ce48b1b4fb"",""projectId"":""e622c465-ee29-4445-8260-1f3431e06587""}","https://test12345.live/?participantId=A4575A39077F4171A2DA9A8A9BBBF126&assignmentId=8f1c9f56-2c21-43c5-ac18-37ce48b1b4fb&projectId=e622c465-ee29-4445-8260-1f3431e06587","","null","<div style=""display: flex; justify-content: center; align-items: center;"">
                    <img src=""images/causal/causal_series_14/causal_series_14_c.jpg"" style=""width: 300px; height: 300px;"" />
                  </div>","null","",""
"","","","","","html-keyboard-response","79","212073","0.0-56.0-3.0","A4575A39077F4171A2DA9A8A9BBBF126","A4575A39077F4171A2DA9A8A9BBBF126","8f1c9f56-2c21-43c5-ac18-37ce48b1b4fb","e622c465-ee29-4445-8260-1f3431e06587","{""participantId"":""A4575A39077F4171A2DA9A8A9BBBF126"",""assignmentId"":""8f1c9f56-2c21-43c5-ac18-37ce48b1b4fb"",""projectId"":""e622c465-ee29-4445-8260-1f3431e06587""}","https://test12345.live/?participantId=A4575A39077F4171A2DA9A8A9BBBF126&assignmentId=8f1c9f56-2c21-43c5-ac18-37ce48b1b4fb&projectId=e622c465-ee29-4445-8260-1f3431e06587","","null","<div style=""display: flex; justify-content: center; align-items: center;"">
                    <img src=""images/causal/causal_series_14/causal_series_14_d.jpg"" style=""width: 300px; height: 300px;"" />
                  </div>","null","",""
"","","","","","html-button-response","80","214535","0.0-58.0","A4575A39077F4171A2DA9A8A9BBBF126","A4575A39077F4171A2DA9A8A9BBBF126","8f1c9f56-2c21-43c5-ac18-37ce48b1b4fb","e622c465-ee29-4445-8260-1f3431e06587","{""participantId"":""A4575A39077F4171A2DA9A8A9BBBF126"",""assignmentId"":""8f1c9f56-2c21-43c5-ac18-37ce48b1b4fb"",""projectId"":""e622c465-ee29-4445-8260-1f3431e06587""}","https://test12345.live/?participantId=A4575A39077F4171A2DA9A8A9BBBF126&assignmentId=8f1c9f56-2c21-43c5-ac18-37ce48b1b4fb&projectId=e622c465-ee29-4445-8260-1f3431e06587","","2461","Was there a person in the picture?","0","",""
"","","","","","survey-likert","81","216858","0.0-59.0","A4575A39077F4171A2DA9A8A9BBBF126","A4575A39077F4171A2DA9A8A9BBBF126","8f1c9f56-2c21-43c5-ac18-37ce48b1b4fb","e622c465-ee29-4445-8260-1f3431e06587","{""participantId"":""A4575A39077F4171A2DA9A8A9BBBF126"",""assignmentId"":""8f1c9f56-2c21-43c5-ac18-37ce48b1b4fb"",""projectId"":""e622c465-ee29-4445-8260-1f3431e06587""}","https://test12345.live/?participantId=A4575A39077F4171A2DA9A8A9BBBF126&assignmentId=8f1c9f56-2c21-43c5-ac18-37ce48b1b4fb&projectId=e622c465-ee29-4445-8260-1f3431e06587","","2323","","{""Q0"":3}","","[0]"
"","","","","","html-button-response","82","217811","0.0-60.0","A4575A39077F4171A2DA9A8A9BBBF126","A4575A39077F4171A2DA9A8A9BBBF126","8f1c9f56-2c21-43c5-ac18-37ce48b1b4fb","e622c465-ee29-4445-8260-1f3431e06587","{""participantId"":""A4575A39077F4171A2DA9A8A9BBBF126"",""assignmentId"":""8f1c9f56-2c21-43c5-ac18-37ce48b1b4fb"",""projectId"":""e622c465-ee29-4445-8260-1f3431e06587""}","https://test12345.live/?participantId=A4575A39077F4171A2DA9A8A9BBBF126&assignmentId=8f1c9f56-2c21-43c5-ac18-37ce48b1b4fb&projectId=e622c465-ee29-4445-8260-1f3431e06587","","951","
    <div style=""display: flex; justify-content: center; align-items: center;"">
      <img src=""images/blue_deck_1.png"" style=""width: 300px; height: 300px; margin-right: 10px;"" />
      <img src=""images/red_deck_2.png"" style=""width: 300px; height: 300px;"" />
    </div>","1","1",""
"","","","","","html-keyboard-response","83","220812","0.0-62.0-0.0","A4575A39077F4171A2DA9A8A9BBBF126","A4575A39077F4171A2DA9A8A9BBBF126","8f1c9f56-2c21-43c5-ac18-37ce48b1b4fb","e622c465-ee29-4445-8260-1f3431e06587","{""participantId"":""A4575A39077F4171A2DA9A8A9BBBF126"",""assignmentId"":""8f1c9f56-2c21-43c5-ac18-37ce48b1b4fb"",""projectId"":""e622c465-ee29-4445-8260-1f3431e06587""}","https://test12345.live/?participantId=A4575A39077F4171A2DA9A8A9BBBF126&assignmentId=8f1c9f56-2c21-43c5-ac18-37ce48b1b4fb&projectId=e622c465-ee29-4445-8260-1f3431e06587","","null","<div style=""display: flex; justify-content: center; align-items: center;"">
                    <img src=""images/semantic/semantic_series_12/semantic_series_12_a.jpg"" style=""width: 300px; height: 300px;"" />
                  </div>","null","",""
"","","","","","html-keyboard-response","84","223814","0.0-62.0-1.0","A4575A39077F4171A2DA9A8A9BBBF126","A4575A39077F4171A2DA9A8A9BBBF126","8f1c9f56-2c21-43c5-ac18-37ce48b1b4fb","e622c465-ee29-4445-8260-1f3431e06587","{""participantId"":""A4575A39077F4171A2DA9A8A9BBBF126"",""assignmentId"":""8f1c9f56-2c21-43c5-ac18-37ce48b1b4fb"",""projectId"":""e622c465-ee29-4445-8260-1f3431e06587""}","https://test12345.live/?participantId=A4575A39077F4171A2DA9A8A9BBBF126&assignmentId=8f1c9f56-2c21-43c5-ac18-37ce48b1b4fb&projectId=e622c465-ee29-4445-8260-1f3431e06587","","null","<div style=""display: flex; justify-content: center; align-items: center;"">
                    <img src=""images/semantic/semantic_series_12/semantic_series_12_b.jpg"" style=""width: 300px; height: 300px;"" />
                  </div>","null","",""
"","","","","","html-keyboard-response","85","226816","0.0-62.0-2.0","A4575A39077F4171A2DA9A8A9BBBF126","A4575A39077F4171A2DA9A8A9BBBF126","8f1c9f56-2c21-43c5-ac18-37ce48b1b4fb","e622c465-ee29-4445-8260-1f3431e06587","{""participantId"":""A4575A39077F4171A2DA9A8A9BBBF126"",""assignmentId"":""8f1c9f56-2c21-43c5-ac18-37ce48b1b4fb"",""projectId"":""e622c465-ee29-4445-8260-1f3431e06587""}","https://test12345.live/?participantId=A4575A39077F4171A2DA9A8A9BBBF126&assignmentId=8f1c9f56-2c21-43c5-ac18-37ce48b1b4fb&projectId=e622c465-ee29-4445-8260-1f3431e06587","","null","<div style=""display: flex; justify-content: center; align-items: center;"">
                    <img src=""images/semantic/semantic_series_12/semantic_series_12_c.jpg"" style=""width: 300px; height: 300px;"" />
                  </div>","null","",""
"","","","","","html-keyboard-response","86","229818","0.0-62.0-3.0","A4575A39077F4171A2DA9A8A9BBBF126","A4575A39077F4171A2DA9A8A9BBBF126","8f1c9f56-2c21-43c5-ac18-37ce48b1b4fb","e622c465-ee29-4445-8260-1f3431e06587","{""participantId"":""A4575A39077F4171A2DA9A8A9BBBF126"",""assignmentId"":""8f1c9f56-2c21-43c5-ac18-37ce48b1b4fb"",""projectId"":""e622c465-ee29-4445-8260-1f3431e06587""}","https://test12345.live/?participantId=A4575A39077F4171A2DA9A8A9BBBF126&assignmentId=8f1c9f56-2c21-43c5-ac18-37ce48b1b4fb&projectId=e622c465-ee29-4445-8260-1f3431e06587","","null","<div style=""display: flex; justify-content: center; align-items: center;"">
                    <img src=""images/semantic/semantic_series_12/semantic_series_12_d.jpg"" style=""width: 300px; height: 300px;"" />
                  </div>","null","",""
"","","","","","html-button-response","87","230946","0.0-63.0","A4575A39077F4171A2DA9A8A9BBBF126","A4575A39077F4171A2DA9A8A9BBBF126","8f1c9f56-2c21-43c5-ac18-37ce48b1b4fb","e622c465-ee29-4445-8260-1f3431e06587","{""participantId"":""A4575A39077F4171A2DA9A8A9BBBF126"",""assignmentId"":""8f1c9f56-2c21-43c5-ac18-37ce48b1b4fb"",""projectId"":""e622c465-ee29-4445-8260-1f3431e06587""}","https://test12345.live/?participantId=A4575A39077F4171A2DA9A8A9BBBF126&assignmentId=8f1c9f56-2c21-43c5-ac18-37ce48b1b4fb&projectId=e622c465-ee29-4445-8260-1f3431e06587","","1127","Was there a person in the picture?","1","",""
"","","","","","survey-likert","88","232534","0.0-64.0","A4575A39077F4171A2DA9A8A9BBBF126","A4575A39077F4171A2DA9A8A9BBBF126","8f1c9f56-2c21-43c5-ac18-37ce48b1b4fb","e622c465-ee29-4445-8260-1f3431e06587","{""participantId"":""A4575A39077F4171A2DA9A8A9BBBF126"",""assignmentId"":""8f1c9f56-2c21-43c5-ac18-37ce48b1b4fb"",""projectId"":""e622c465-ee29-4445-8260-1f3431e06587""}","https://test12345.live/?participantId=A4575A39077F4171A2DA9A8A9BBBF126&assignmentId=8f1c9f56-2c21-43c5-ac18-37ce48b1b4fb&projectId=e622c465-ee29-4445-8260-1f3431e06587","","1587","","{""Q0"":1}","","[0]"
"","","","","","html-button-response","89","233820","0.0-65.0","A4575A39077F4171A2DA9A8A9BBBF126","A4575A39077F4171A2DA9A8A9BBBF126","8f1c9f56-2c21-43c5-ac18-37ce48b1b4fb","e622c465-ee29-4445-8260-1f3431e06587","{""participantId"":""A4575A39077F4171A2DA9A8A9BBBF126"",""assignmentId"":""8f1c9f56-2c21-43c5-ac18-37ce48b1b4fb"",""projectId"":""e622c465-ee29-4445-8260-1f3431e06587""}","https://test12345.live/?participantId=A4575A39077F4171A2DA9A8A9BBBF126&assignmentId=8f1c9f56-2c21-43c5-ac18-37ce48b1b4fb&projectId=e622c465-ee29-4445-8260-1f3431e06587","","1285","
    <div style=""display: flex; justify-content: center; align-items: center;"">
      <img src=""images/blue_deck_1.png"" style=""width: 300px; height: 300px; margin-right: 10px;"" />
      <img src=""images/red_deck_2.png"" style=""width: 300px; height: 300px;"" />
    </div>","0","0",""
"","","","","","html-keyboard-response","90","236822","0.0-66.0-0.0","A4575A39077F4171A2DA9A8A9BBBF126","A4575A39077F4171A2DA9A8A9BBBF126","8f1c9f56-2c21-43c5-ac18-37ce48b1b4fb","e622c465-ee29-4445-8260-1f3431e06587","{""participantId"":""A4575A39077F4171A2DA9A8A9BBBF126"",""assignmentId"":""8f1c9f56-2c21-43c5-ac18-37ce48b1b4fb"",""projectId"":""e622c465-ee29-4445-8260-1f3431e06587""}","https://test12345.live/?participantId=A4575A39077F4171A2DA9A8A9BBBF126&assignmentId=8f1c9f56-2c21-43c5-ac18-37ce48b1b4fb&projectId=e622c465-ee29-4445-8260-1f3431e06587","","null","<div style=""display: flex; justify-content: center; align-items: center;"">
                    <img src=""images/causal/causal_series_15/causal_series_15_a.jpg"" style=""width: 300px; height: 300px;"" />
                  </div>","null","",""
"","","","","","html-keyboard-response","91","239824","0.0-66.0-1.0","A4575A39077F4171A2DA9A8A9BBBF126","A4575A39077F4171A2DA9A8A9BBBF126","8f1c9f56-2c21-43c5-ac18-37ce48b1b4fb","e622c465-ee29-4445-8260-1f3431e06587","{""participantId"":""A4575A39077F4171A2DA9A8A9BBBF126"",""assignmentId"":""8f1c9f56-2c21-43c5-ac18-37ce48b1b4fb"",""projectId"":""e622c465-ee29-4445-8260-1f3431e06587""}","https://test12345.live/?participantId=A4575A39077F4171A2DA9A8A9BBBF126&assignmentId=8f1c9f56-2c21-43c5-ac18-37ce48b1b4fb&projectId=e622c465-ee29-4445-8260-1f3431e06587","","null","<div style=""display: flex; justify-content: center; align-items: center;"">
                    <img src=""images/causal/causal_series_15/causal_series_15_b.jpg"" style=""width: 300px; height: 300px;"" />
                  </div>","null","",""
"","","","","","html-keyboard-response","92","242826","0.0-66.0-2.0","A4575A39077F4171A2DA9A8A9BBBF126","A4575A39077F4171A2DA9A8A9BBBF126","8f1c9f56-2c21-43c5-ac18-37ce48b1b4fb","e622c465-ee29-4445-8260-1f3431e06587","{""participantId"":""A4575A39077F4171A2DA9A8A9BBBF126"",""assignmentId"":""8f1c9f56-2c21-43c5-ac18-37ce48b1b4fb"",""projectId"":""e622c465-ee29-4445-8260-1f3431e06587""}","https://test12345.live/?participantId=A4575A39077F4171A2DA9A8A9BBBF126&assignmentId=8f1c9f56-2c21-43c5-ac18-37ce48b1b4fb&projectId=e622c465-ee29-4445-8260-1f3431e06587","","null","<div style=""display: flex; justify-content: center; align-items: center;"">
                    <img src=""images/causal/causal_series_15/causal_series_15_c.jpg"" style=""width: 300px; height: 300px;"" />
                  </div>","null","",""
"","","","","","html-keyboard-response","93","245829","0.0-66.0-3.0","A4575A39077F4171A2DA9A8A9BBBF126","A4575A39077F4171A2DA9A8A9BBBF126","8f1c9f56-2c21-43c5-ac18-37ce48b1b4fb","e622c465-ee29-4445-8260-1f3431e06587","{""participantId"":""A4575A39077F4171A2DA9A8A9BBBF126"",""assignmentId"":""8f1c9f56-2c21-43c5-ac18-37ce48b1b4fb"",""projectId"":""e622c465-ee29-4445-8260-1f3431e06587""}","https://test12345.live/?participantId=A4575A39077F4171A2DA9A8A9BBBF126&assignmentId=8f1c9f56-2c21-43c5-ac18-37ce48b1b4fb&projectId=e622c465-ee29-4445-8260-1f3431e06587","","null","<div style=""display: flex; justify-content: center; align-items: center;"">
                    <img src=""images/causal/causal_series_15/causal_series_15_d.jpg"" style=""width: 300px; height: 300px;"" />
                  </div>","null","",""
"","","","","","html-button-response","94","247089","0.0-68.0","A4575A39077F4171A2DA9A8A9BBBF126","A4575A39077F4171A2DA9A8A9BBBF126","8f1c9f56-2c21-43c5-ac18-37ce48b1b4fb","e622c465-ee29-4445-8260-1f3431e06587","{""participantId"":""A4575A39077F4171A2DA9A8A9BBBF126"",""assignmentId"":""8f1c9f56-2c21-43c5-ac18-37ce48b1b4fb"",""projectId"":""e622c465-ee29-4445-8260-1f3431e06587""}","https://test12345.live/?participantId=A4575A39077F4171A2DA9A8A9BBBF126&assignmentId=8f1c9f56-2c21-43c5-ac18-37ce48b1b4fb&projectId=e622c465-ee29-4445-8260-1f3431e06587","","1260","Was there a person in the picture?","0","",""
"","","","","","survey-likert","95","249580","0.0-69.0","A4575A39077F4171A2DA9A8A9BBBF126","A4575A39077F4171A2DA9A8A9BBBF126","8f1c9f56-2c21-43c5-ac18-37ce48b1b4fb","e622c465-ee29-4445-8260-1f3431e06587","{""participantId"":""A4575A39077F4171A2DA9A8A9BBBF126"",""assignmentId"":""8f1c9f56-2c21-43c5-ac18-37ce48b1b4fb"",""projectId"":""e622c465-ee29-4445-8260-1f3431e06587""}","https://test12345.live/?participantId=A4575A39077F4171A2DA9A8A9BBBF126&assignmentId=8f1c9f56-2c21-43c5-ac18-37ce48b1b4fb&projectId=e622c465-ee29-4445-8260-1f3431e06587","","2490","","{""Q0"":2}","","[0]"
"","","","","","html-button-response","96","250616","0.0-70.0","A4575A39077F4171A2DA9A8A9BBBF126","A4575A39077F4171A2DA9A8A9BBBF126","8f1c9f56-2c21-43c5-ac18-37ce48b1b4fb","e622c465-ee29-4445-8260-1f3431e06587","{""participantId"":""A4575A39077F4171A2DA9A8A9BBBF126"",""assignmentId"":""8f1c9f56-2c21-43c5-ac18-37ce48b1b4fb"",""projectId"":""e622c465-ee29-4445-8260-1f3431e06587""}","https://test12345.live/?participantId=A4575A39077F4171A2DA9A8A9BBBF126&assignmentId=8f1c9f56-2c21-43c5-ac18-37ce48b1b4fb&projectId=e622c465-ee29-4445-8260-1f3431e06587","","1034","
    <div style=""display: flex; justify-content: center; align-items: center;"">
      <img src=""images/blue_deck_1.png"" style=""width: 300px; height: 300px; margin-right: 10px;"" />
      <img src=""images/red_deck_2.png"" style=""width: 300px; height: 300px;"" />
    </div>","1","1",""
"","","","","","html-keyboard-response","97","253618","0.0-72.0-0.0","A4575A39077F4171A2DA9A8A9BBBF126","A4575A39077F4171A2DA9A8A9BBBF126","8f1c9f56-2c21-43c5-ac18-37ce48b1b4fb","e622c465-ee29-4445-8260-1f3431e06587","{""participantId"":""A4575A39077F4171A2DA9A8A9BBBF126"",""assignmentId"":""8f1c9f56-2c21-43c5-ac18-37ce48b1b4fb"",""projectId"":""e622c465-ee29-4445-8260-1f3431e06587""}","https://test12345.live/?participantId=A4575A39077F4171A2DA9A8A9BBBF126&assignmentId=8f1c9f56-2c21-43c5-ac18-37ce48b1b4fb&projectId=e622c465-ee29-4445-8260-1f3431e06587","","null","<div style=""display: flex; justify-content: center; align-items: center;"">
                    <img src=""images/semantic/semantic_series_8/semantic_series_8_a.jpg"" style=""width: 300px; height: 300px;"" />
                  </div>","null","",""
"","","","","","html-keyboard-response","98","256620","0.0-72.0-1.0","A4575A39077F4171A2DA9A8A9BBBF126","A4575A39077F4171A2DA9A8A9BBBF126","8f1c9f56-2c21-43c5-ac18-37ce48b1b4fb","e622c465-ee29-4445-8260-1f3431e06587","{""participantId"":""A4575A39077F4171A2DA9A8A9BBBF126"",""assignmentId"":""8f1c9f56-2c21-43c5-ac18-37ce48b1b4fb"",""projectId"":""e622c465-ee29-4445-8260-1f3431e06587""}","https://test12345.live/?participantId=A4575A39077F4171A2DA9A8A9BBBF126&assignmentId=8f1c9f56-2c21-43c5-ac18-37ce48b1b4fb&projectId=e622c465-ee29-4445-8260-1f3431e06587","","null","<div style=""display: flex; justify-content: center; align-items: center;"">
                    <img src=""images/semantic/semantic_series_8/semantic_series_8_b.jpg"" style=""width: 300px; height: 300px;"" />
                  </div>","null","",""
"","","","","","html-keyboard-response","99","259622","0.0-72.0-2.0","A4575A39077F4171A2DA9A8A9BBBF126","A4575A39077F4171A2DA9A8A9BBBF126","8f1c9f56-2c21-43c5-ac18-37ce48b1b4fb","e622c465-ee29-4445-8260-1f3431e06587","{""participantId"":""A4575A39077F4171A2DA9A8A9BBBF126"",""assignmentId"":""8f1c9f56-2c21-43c5-ac18-37ce48b1b4fb"",""projectId"":""e622c465-ee29-4445-8260-1f3431e06587""}","https://test12345.live/?participantId=A4575A39077F4171A2DA9A8A9BBBF126&assignmentId=8f1c9f56-2c21-43c5-ac18-37ce48b1b4fb&projectId=e622c465-ee29-4445-8260-1f3431e06587","","null","<div style=""display: flex; justify-content: center; align-items: center;"">
                    <img src=""images/semantic/semantic_series_8/semantic_series_8_c.jpg"" style=""width: 300px; height: 300px;"" />
                  </div>","null","",""
"","","","","","html-keyboard-response","100","262624","0.0-72.0-3.0","A4575A39077F4171A2DA9A8A9BBBF126","A4575A39077F4171A2DA9A8A9BBBF126","8f1c9f56-2c21-43c5-ac18-37ce48b1b4fb","e622c465-ee29-4445-8260-1f3431e06587","{""participantId"":""A4575A39077F4171A2DA9A8A9BBBF126"",""assignmentId"":""8f1c9f56-2c21-43c5-ac18-37ce48b1b4fb"",""projectId"":""e622c465-ee29-4445-8260-1f3431e06587""}","https://test12345.live/?participantId=A4575A39077F4171A2DA9A8A9BBBF126&assignmentId=8f1c9f56-2c21-43c5-ac18-37ce48b1b4fb&projectId=e622c465-ee29-4445-8260-1f3431e06587","","null","<div style=""display: flex; justify-content: center; align-items: center;"">
                    <img src=""images/semantic/semantic_series_8/semantic_series_8_d.jpg"" style=""width: 300px; height: 300px;"" />
                  </div>","null","",""
"","","","","","html-button-response","101","263985","0.0-73.0","A4575A39077F4171A2DA9A8A9BBBF126","A4575A39077F4171A2DA9A8A9BBBF126","8f1c9f56-2c21-43c5-ac18-37ce48b1b4fb","e622c465-ee29-4445-8260-1f3431e06587","{""participantId"":""A4575A39077F4171A2DA9A8A9BBBF126"",""assignmentId"":""8f1c9f56-2c21-43c5-ac18-37ce48b1b4fb"",""projectId"":""e622c465-ee29-4445-8260-1f3431e06587""}","https://test12345.live/?participantId=A4575A39077F4171A2DA9A8A9BBBF126&assignmentId=8f1c9f56-2c21-43c5-ac18-37ce48b1b4fb&projectId=e622c465-ee29-4445-8260-1f3431e06587","","1361","Was there a person in the picture?","1","",""
"","","","","","survey-likert","102","266058","0.0-74.0","A4575A39077F4171A2DA9A8A9BBBF126","A4575A39077F4171A2DA9A8A9BBBF126","8f1c9f56-2c21-43c5-ac18-37ce48b1b4fb","e622c465-ee29-4445-8260-1f3431e06587","{""participantId"":""A4575A39077F4171A2DA9A8A9BBBF126"",""assignmentId"":""8f1c9f56-2c21-43c5-ac18-37ce48b1b4fb"",""projectId"":""e622c465-ee29-4445-8260-1f3431e06587""}","https://test12345.live/?participantId=A4575A39077F4171A2DA9A8A9BBBF126&assignmentId=8f1c9f56-2c21-43c5-ac18-37ce48b1b4fb&projectId=e622c465-ee29-4445-8260-1f3431e06587","","2072","","{""Q0"":1}","","[0]"
"","","","","","html-button-response","103","267227","0.0-75.0","A4575A39077F4171A2DA9A8A9BBBF126","A4575A39077F4171A2DA9A8A9BBBF126","8f1c9f56-2c21-43c5-ac18-37ce48b1b4fb","e622c465-ee29-4445-8260-1f3431e06587","{""participantId"":""A4575A39077F4171A2DA9A8A9BBBF126"",""assignmentId"":""8f1c9f56-2c21-43c5-ac18-37ce48b1b4fb"",""projectId"":""e622c465-ee29-4445-8260-1f3431e06587""}","https://test12345.live/?participantId=A4575A39077F4171A2DA9A8A9BBBF126&assignmentId=8f1c9f56-2c21-43c5-ac18-37ce48b1b4fb&projectId=e622c465-ee29-4445-8260-1f3431e06587","","1168","
    <div style=""display: flex; justify-content: center; align-items: center;"">
      <img src=""images/blue_deck_1.png"" style=""width: 300px; height: 300px; margin-right: 10px;"" />
      <img src=""images/red_deck_2.png"" style=""width: 300px; height: 300px;"" />
    </div>","1","1",""
"","","","","","html-keyboard-response","104","270230","0.0-77.0-0.0","A4575A39077F4171A2DA9A8A9BBBF126","A4575A39077F4171A2DA9A8A9BBBF126","8f1c9f56-2c21-43c5-ac18-37ce48b1b4fb","e622c465-ee29-4445-8260-1f3431e06587","{""participantId"":""A4575A39077F4171A2DA9A8A9BBBF126"",""assignmentId"":""8f1c9f56-2c21-43c5-ac18-37ce48b1b4fb"",""projectId"":""e622c465-ee29-4445-8260-1f3431e06587""}","https://test12345.live/?participantId=A4575A39077F4171A2DA9A8A9BBBF126&assignmentId=8f1c9f56-2c21-43c5-ac18-37ce48b1b4fb&projectId=e622c465-ee29-4445-8260-1f3431e06587","","null","<div style=""display: flex; justify-content: center; align-items: center;"">
                    <img src=""images/semantic/semantic_series_2/semantic_series_2_a.jpg"" style=""width: 300px; height: 300px;"" />
                  </div>","null","",""
"","","","","","html-keyboard-response","105","273232","0.0-77.0-1.0","A4575A39077F4171A2DA9A8A9BBBF126","A4575A39077F4171A2DA9A8A9BBBF126","8f1c9f56-2c21-43c5-ac18-37ce48b1b4fb","e622c465-ee29-4445-8260-1f3431e06587","{""participantId"":""A4575A39077F4171A2DA9A8A9BBBF126"",""assignmentId"":""8f1c9f56-2c21-43c5-ac18-37ce48b1b4fb"",""projectId"":""e622c465-ee29-4445-8260-1f3431e06587""}","https://test12345.live/?participantId=A4575A39077F4171A2DA9A8A9BBBF126&assignmentId=8f1c9f56-2c21-43c5-ac18-37ce48b1b4fb&projectId=e622c465-ee29-4445-8260-1f3431e06587","","null","<div style=""display: flex; justify-content: center; align-items: center;"">
                    <img src=""images/semantic/semantic_series_2/semantic_series_2_b.jpg"" style=""width: 300px; height: 300px;"" />
                  </div>","null","",""
"","","","","","html-keyboard-response","106","276235","0.0-77.0-2.0","A4575A39077F4171A2DA9A8A9BBBF126","A4575A39077F4171A2DA9A8A9BBBF126","8f1c9f56-2c21-43c5-ac18-37ce48b1b4fb","e622c465-ee29-4445-8260-1f3431e06587","{""participantId"":""A4575A39077F4171A2DA9A8A9BBBF126"",""assignmentId"":""8f1c9f56-2c21-43c5-ac18-37ce48b1b4fb"",""projectId"":""e622c465-ee29-4445-8260-1f3431e06587""}","https://test12345.live/?participantId=A4575A39077F4171A2DA9A8A9BBBF126&assignmentId=8f1c9f56-2c21-43c5-ac18-37ce48b1b4fb&projectId=e622c465-ee29-4445-8260-1f3431e06587","","null","<div style=""display: flex; justify-content: center; align-items: center;"">
                    <img src=""images/semantic/semantic_series_2/semantic_series_2_c.jpg"" style=""width: 300px; height: 300px;"" />
                  </div>","null","",""
"","","","","","html-keyboard-response","107","279237","0.0-77.0-3.0","A4575A39077F4171A2DA9A8A9BBBF126","A4575A39077F4171A2DA9A8A9BBBF126","8f1c9f56-2c21-43c5-ac18-37ce48b1b4fb","e622c465-ee29-4445-8260-1f3431e06587","{""participantId"":""A4575A39077F4171A2DA9A8A9BBBF126"",""assignmentId"":""8f1c9f56-2c21-43c5-ac18-37ce48b1b4fb"",""projectId"":""e622c465-ee29-4445-8260-1f3431e06587""}","https://test12345.live/?participantId=A4575A39077F4171A2DA9A8A9BBBF126&assignmentId=8f1c9f56-2c21-43c5-ac18-37ce48b1b4fb&projectId=e622c465-ee29-4445-8260-1f3431e06587","","null","<div style=""display: flex; justify-content: center; align-items: center;"">
                    <img src=""images/semantic/semantic_series_2/semantic_series_2_d.jpg"" style=""width: 300px; height: 300px;"" />
                  </div>","null","",""
"","","","","","html-button-response","108","280948","0.0-78.0","A4575A39077F4171A2DA9A8A9BBBF126","A4575A39077F4171A2DA9A8A9BBBF126","8f1c9f56-2c21-43c5-ac18-37ce48b1b4fb","e622c465-ee29-4445-8260-1f3431e06587","{""participantId"":""A4575A39077F4171A2DA9A8A9BBBF126"",""assignmentId"":""8f1c9f56-2c21-43c5-ac18-37ce48b1b4fb"",""projectId"":""e622c465-ee29-4445-8260-1f3431e06587""}","https://test12345.live/?participantId=A4575A39077F4171A2DA9A8A9BBBF126&assignmentId=8f1c9f56-2c21-43c5-ac18-37ce48b1b4fb&projectId=e622c465-ee29-4445-8260-1f3431e06587","","1710","Was there a person in the picture?","1","",""
"","","","","","survey-likert","109","282970","0.0-79.0","A4575A39077F4171A2DA9A8A9BBBF126","A4575A39077F4171A2DA9A8A9BBBF126","8f1c9f56-2c21-43c5-ac18-37ce48b1b4fb","e622c465-ee29-4445-8260-1f3431e06587","{""participantId"":""A4575A39077F4171A2DA9A8A9BBBF126"",""assignmentId"":""8f1c9f56-2c21-43c5-ac18-37ce48b1b4fb"",""projectId"":""e622c465-ee29-4445-8260-1f3431e06587""}","https://test12345.live/?participantId=A4575A39077F4171A2DA9A8A9BBBF126&assignmentId=8f1c9f56-2c21-43c5-ac18-37ce48b1b4fb&projectId=e622c465-ee29-4445-8260-1f3431e06587","","2021","","{""Q0"":1}","","[0]"
"","","","","","html-button-response","110","283939","0.0-80.0","A4575A39077F4171A2DA9A8A9BBBF126","A4575A39077F4171A2DA9A8A9BBBF126","8f1c9f56-2c21-43c5-ac18-37ce48b1b4fb","e622c465-ee29-4445-8260-1f3431e06587","{""participantId"":""A4575A39077F4171A2DA9A8A9BBBF126"",""assignmentId"":""8f1c9f56-2c21-43c5-ac18-37ce48b1b4fb"",""projectId"":""e622c465-ee29-4445-8260-1f3431e06587""}","https://test12345.live/?participantId=A4575A39077F4171A2DA9A8A9BBBF126&assignmentId=8f1c9f56-2c21-43c5-ac18-37ce48b1b4fb&projectId=e622c465-ee29-4445-8260-1f3431e06587","","968","
    <div style=""display: flex; justify-content: center; align-items: center;"">
      <img src=""images/blue_deck_1.png"" style=""width: 300px; height: 300px; margin-right: 10px;"" />
      <img src=""images/red_deck_2.png"" style=""width: 300px; height: 300px;"" />
    </div>","0","0",""
"","","","","","html-keyboard-response","111","286942","0.0-81.0-0.0","A4575A39077F4171A2DA9A8A9BBBF126","A4575A39077F4171A2DA9A8A9BBBF126","8f1c9f56-2c21-43c5-ac18-37ce48b1b4fb","e622c465-ee29-4445-8260-1f3431e06587","{""participantId"":""A4575A39077F4171A2DA9A8A9BBBF126"",""assignmentId"":""8f1c9f56-2c21-43c5-ac18-37ce48b1b4fb"",""projectId"":""e622c465-ee29-4445-8260-1f3431e06587""}","https://test12345.live/?participantId=A4575A39077F4171A2DA9A8A9BBBF126&assignmentId=8f1c9f56-2c21-43c5-ac18-37ce48b1b4fb&projectId=e622c465-ee29-4445-8260-1f3431e06587","","null","<div style=""display: flex; justify-content: center; align-items: center;"">
                    <img src=""images/causal/causal_series_4/causal_series_4_a.jpg"" style=""width: 300px; height: 300px;"" />
                  </div>","null","",""
"","","","","","html-keyboard-response","112","289944","0.0-81.0-1.0","A4575A39077F4171A2DA9A8A9BBBF126","A4575A39077F4171A2DA9A8A9BBBF126","8f1c9f56-2c21-43c5-ac18-37ce48b1b4fb","e622c465-ee29-4445-8260-1f3431e06587","{""participantId"":""A4575A39077F4171A2DA9A8A9BBBF126"",""assignmentId"":""8f1c9f56-2c21-43c5-ac18-37ce48b1b4fb"",""projectId"":""e622c465-ee29-4445-8260-1f3431e06587""}","https://test12345.live/?participantId=A4575A39077F4171A2DA9A8A9BBBF126&assignmentId=8f1c9f56-2c21-43c5-ac18-37ce48b1b4fb&projectId=e622c465-ee29-4445-8260-1f3431e06587","","null","<div style=""display: flex; justify-content: center; align-items: center;"">
                    <img src=""images/causal/causal_series_4/causal_series_4_b.jpg"" style=""width: 300px; height: 300px;"" />
                  </div>","null","",""
"","","","","","html-keyboard-response","113","292946","0.0-81.0-2.0","A4575A39077F4171A2DA9A8A9BBBF126","A4575A39077F4171A2DA9A8A9BBBF126","8f1c9f56-2c21-43c5-ac18-37ce48b1b4fb","e622c465-ee29-4445-8260-1f3431e06587","{""participantId"":""A4575A39077F4171A2DA9A8A9BBBF126"",""assignmentId"":""8f1c9f56-2c21-43c5-ac18-37ce48b1b4fb"",""projectId"":""e622c465-ee29-4445-8260-1f3431e06587""}","https://test12345.live/?participantId=A4575A39077F4171A2DA9A8A9BBBF126&assignmentId=8f1c9f56-2c21-43c5-ac18-37ce48b1b4fb&projectId=e622c465-ee29-4445-8260-1f3431e06587","","null","<div style=""display: flex; justify-content: center; align-items: center;"">
                    <img src=""images/causal/causal_series_4/causal_series_4_c.jpg"" style=""width: 300px; height: 300px;"" />
                  </div>","null","",""
"","","","","","html-keyboard-response","114","295948","0.0-81.0-3.0","A4575A39077F4171A2DA9A8A9BBBF126","A4575A39077F4171A2DA9A8A9BBBF126","8f1c9f56-2c21-43c5-ac18-37ce48b1b4fb","e622c465-ee29-4445-8260-1f3431e06587","{""participantId"":""A4575A39077F4171A2DA9A8A9BBBF126"",""assignmentId"":""8f1c9f56-2c21-43c5-ac18-37ce48b1b4fb"",""projectId"":""e622c465-ee29-4445-8260-1f3431e06587""}","https://test12345.live/?participantId=A4575A39077F4171A2DA9A8A9BBBF126&assignmentId=8f1c9f56-2c21-43c5-ac18-37ce48b1b4fb&projectId=e622c465-ee29-4445-8260-1f3431e06587","","null","<div style=""display: flex; justify-content: center; align-items: center;"">
                    <img src=""images/causal/causal_series_4/causal_series_4_d.jpg"" style=""width: 300px; height: 300px;"" />
                  </div>","null","",""
"","","","","","html-button-response","115","297693","0.0-83.0","A4575A39077F4171A2DA9A8A9BBBF126","A4575A39077F4171A2DA9A8A9BBBF126","8f1c9f56-2c21-43c5-ac18-37ce48b1b4fb","e622c465-ee29-4445-8260-1f3431e06587","{""participantId"":""A4575A39077F4171A2DA9A8A9BBBF126"",""assignmentId"":""8f1c9f56-2c21-43c5-ac18-37ce48b1b4fb"",""projectId"":""e622c465-ee29-4445-8260-1f3431e06587""}","https://test12345.live/?participantId=A4575A39077F4171A2DA9A8A9BBBF126&assignmentId=8f1c9f56-2c21-43c5-ac18-37ce48b1b4fb&projectId=e622c465-ee29-4445-8260-1f3431e06587","","1744","Was there a person in the picture?","1","",""
"","","","","","survey-likert","116","301002","0.0-84.0","A4575A39077F4171A2DA9A8A9BBBF126","A4575A39077F4171A2DA9A8A9BBBF126","8f1c9f56-2c21-43c5-ac18-37ce48b1b4fb","e622c465-ee29-4445-8260-1f3431e06587","{""participantId"":""A4575A39077F4171A2DA9A8A9BBBF126"",""assignmentId"":""8f1c9f56-2c21-43c5-ac18-37ce48b1b4fb"",""projectId"":""e622c465-ee29-4445-8260-1f3431e06587""}","https://test12345.live/?participantId=A4575A39077F4171A2DA9A8A9BBBF126&assignmentId=8f1c9f56-2c21-43c5-ac18-37ce48b1b4fb&projectId=e622c465-ee29-4445-8260-1f3431e06587","","3308","","{""Q0"":4}","","[0]"
"","","","","","html-button-response","117","301938","0.0-85.0","A4575A39077F4171A2DA9A8A9BBBF126","A4575A39077F4171A2DA9A8A9BBBF126","8f1c9f56-2c21-43c5-ac18-37ce48b1b4fb","e622c465-ee29-4445-8260-1f3431e06587","{""participantId"":""A4575A39077F4171A2DA9A8A9BBBF126"",""assignmentId"":""8f1c9f56-2c21-43c5-ac18-37ce48b1b4fb"",""projectId"":""e622c465-ee29-4445-8260-1f3431e06587""}","https://test12345.live/?participantId=A4575A39077F4171A2DA9A8A9BBBF126&assignmentId=8f1c9f56-2c21-43c5-ac18-37ce48b1b4fb&projectId=e622c465-ee29-4445-8260-1f3431e06587","","934","
    <div style=""display: flex; justify-content: center; align-items: center;"">
      <img src=""images/blue_deck_1.png"" style=""width: 300px; height: 300px; margin-right: 10px;"" />
      <img src=""images/red_deck_2.png"" style=""width: 300px; height: 300px;"" />
    </div>","1","1",""
"","","","","","html-keyboard-response","118","304940","0.0-87.0-0.0","A4575A39077F4171A2DA9A8A9BBBF126","A4575A39077F4171A2DA9A8A9BBBF126","8f1c9f56-2c21-43c5-ac18-37ce48b1b4fb","e622c465-ee29-4445-8260-1f3431e06587","{""participantId"":""A4575A39077F4171A2DA9A8A9BBBF126"",""assignmentId"":""8f1c9f56-2c21-43c5-ac18-37ce48b1b4fb"",""projectId"":""e622c465-ee29-4445-8260-1f3431e06587""}","https://test12345.live/?participantId=A4575A39077F4171A2DA9A8A9BBBF126&assignmentId=8f1c9f56-2c21-43c5-ac18-37ce48b1b4fb&projectId=e622c465-ee29-4445-8260-1f3431e06587","","null","<div style=""display: flex; justify-content: center; align-items: center;"">
                    <img src=""images/semantic/semantic_series_16/semantic_series_16_a.jpg"" style=""width: 300px; height: 300px;"" />
                  </div>","null","",""
"","","","","","html-keyboard-response","119","307942","0.0-87.0-1.0","A4575A39077F4171A2DA9A8A9BBBF126","A4575A39077F4171A2DA9A8A9BBBF126","8f1c9f56-2c21-43c5-ac18-37ce48b1b4fb","e622c465-ee29-4445-8260-1f3431e06587","{""participantId"":""A4575A39077F4171A2DA9A8A9BBBF126"",""assignmentId"":""8f1c9f56-2c21-43c5-ac18-37ce48b1b4fb"",""projectId"":""e622c465-ee29-4445-8260-1f3431e06587""}","https://test12345.live/?participantId=A4575A39077F4171A2DA9A8A9BBBF126&assignmentId=8f1c9f56-2c21-43c5-ac18-37ce48b1b4fb&projectId=e622c465-ee29-4445-8260-1f3431e06587","","null","<div style=""display: flex; justify-content: center; align-items: center;"">
                    <img src=""images/semantic/semantic_series_16/semantic_series_16_b.jpg"" style=""width: 300px; height: 300px;"" />
                  </div>","null","",""
"","","","","","html-keyboard-response","120","310944","0.0-87.0-2.0","A4575A39077F4171A2DA9A8A9BBBF126","A4575A39077F4171A2DA9A8A9BBBF126","8f1c9f56-2c21-43c5-ac18-37ce48b1b4fb","e622c465-ee29-4445-8260-1f3431e06587","{""participantId"":""A4575A39077F4171A2DA9A8A9BBBF126"",""assignmentId"":""8f1c9f56-2c21-43c5-ac18-37ce48b1b4fb"",""projectId"":""e622c465-ee29-4445-8260-1f3431e06587""}","https://test12345.live/?participantId=A4575A39077F4171A2DA9A8A9BBBF126&assignmentId=8f1c9f56-2c21-43c5-ac18-37ce48b1b4fb&projectId=e622c465-ee29-4445-8260-1f3431e06587","","null","<div style=""display: flex; justify-content: center; align-items: center;"">
                    <img src=""images/semantic/semantic_series_16/semantic_series_16_c.jpg"" style=""width: 300px; height: 300px;"" />
                  </div>","null","",""
"","","","","","html-keyboard-response","121","313946","0.0-87.0-3.0","A4575A39077F4171A2DA9A8A9BBBF126","A4575A39077F4171A2DA9A8A9BBBF126","8f1c9f56-2c21-43c5-ac18-37ce48b1b4fb","e622c465-ee29-4445-8260-1f3431e06587","{""participantId"":""A4575A39077F4171A2DA9A8A9BBBF126"",""assignmentId"":""8f1c9f56-2c21-43c5-ac18-37ce48b1b4fb"",""projectId"":""e622c465-ee29-4445-8260-1f3431e06587""}","https://test12345.live/?participantId=A4575A39077F4171A2DA9A8A9BBBF126&assignmentId=8f1c9f56-2c21-43c5-ac18-37ce48b1b4fb&projectId=e622c465-ee29-4445-8260-1f3431e06587","","null","<div style=""display: flex; justify-content: center; align-items: center;"">
                    <img src=""images/semantic/semantic_series_16/semantic_series_16_d.jpg"" style=""width: 300px; height: 300px;"" />
                  </div>","null","",""
"","","","","","html-button-response","122","315207","0.0-88.0","A4575A39077F4171A2DA9A8A9BBBF126","A4575A39077F4171A2DA9A8A9BBBF126","8f1c9f56-2c21-43c5-ac18-37ce48b1b4fb","e622c465-ee29-4445-8260-1f3431e06587","{""participantId"":""A4575A39077F4171A2DA9A8A9BBBF126"",""assignmentId"":""8f1c9f56-2c21-43c5-ac18-37ce48b1b4fb"",""projectId"":""e622c465-ee29-4445-8260-1f3431e06587""}","https://test12345.live/?participantId=A4575A39077F4171A2DA9A8A9BBBF126&assignmentId=8f1c9f56-2c21-43c5-ac18-37ce48b1b4fb&projectId=e622c465-ee29-4445-8260-1f3431e06587","","1260","Was there a person in the picture?","0","",""
"","","","","","survey-likert","123","316912","0.0-89.0","A4575A39077F4171A2DA9A8A9BBBF126","A4575A39077F4171A2DA9A8A9BBBF126","8f1c9f56-2c21-43c5-ac18-37ce48b1b4fb","e622c465-ee29-4445-8260-1f3431e06587","{""participantId"":""A4575A39077F4171A2DA9A8A9BBBF126"",""assignmentId"":""8f1c9f56-2c21-43c5-ac18-37ce48b1b4fb"",""projectId"":""e622c465-ee29-4445-8260-1f3431e06587""}","https://test12345.live/?participantId=A4575A39077F4171A2DA9A8A9BBBF126&assignmentId=8f1c9f56-2c21-43c5-ac18-37ce48b1b4fb&projectId=e622c465-ee29-4445-8260-1f3431e06587","","1703","","{""Q0"":1}","","[0]"
"","","","","","html-button-response","124","317814","0.0-90.0","A4575A39077F4171A2DA9A8A9BBBF126","A4575A39077F4171A2DA9A8A9BBBF126","8f1c9f56-2c21-43c5-ac18-37ce48b1b4fb","e622c465-ee29-4445-8260-1f3431e06587","{""participantId"":""A4575A39077F4171A2DA9A8A9BBBF126"",""assignmentId"":""8f1c9f56-2c21-43c5-ac18-37ce48b1b4fb"",""projectId"":""e622c465-ee29-4445-8260-1f3431e06587""}","https://test12345.live/?participantId=A4575A39077F4171A2DA9A8A9BBBF126&assignmentId=8f1c9f56-2c21-43c5-ac18-37ce48b1b4fb&projectId=e622c465-ee29-4445-8260-1f3431e06587","","901","
    <div style=""display: flex; justify-content: center; align-items: center;"">
      <img src=""images/blue_deck_1.png"" style=""width: 300px; height: 300px; margin-right: 10px;"" />
      <img src=""images/red_deck_2.png"" style=""width: 300px; height: 300px;"" />
    </div>","0","0",""
"","","","","","html-keyboard-response","125","320817","0.0-91.0-0.0","A4575A39077F4171A2DA9A8A9BBBF126","A4575A39077F4171A2DA9A8A9BBBF126","8f1c9f56-2c21-43c5-ac18-37ce48b1b4fb","e622c465-ee29-4445-8260-1f3431e06587","{""participantId"":""A4575A39077F4171A2DA9A8A9BBBF126"",""assignmentId"":""8f1c9f56-2c21-43c5-ac18-37ce48b1b4fb"",""projectId"":""e622c465-ee29-4445-8260-1f3431e06587""}","https://test12345.live/?participantId=A4575A39077F4171A2DA9A8A9BBBF126&assignmentId=8f1c9f56-2c21-43c5-ac18-37ce48b1b4fb&projectId=e622c465-ee29-4445-8260-1f3431e06587","","null","<div style=""display: flex; justify-content: center; align-items: center;"">
                    <img src=""images/causal/causal_series_6/causal_series_6_a.jpg"" style=""width: 300px; height: 300px;"" />
                  </div>","null","",""
"","","","","","html-keyboard-response","126","323818","0.0-91.0-1.0","A4575A39077F4171A2DA9A8A9BBBF126","A4575A39077F4171A2DA9A8A9BBBF126","8f1c9f56-2c21-43c5-ac18-37ce48b1b4fb","e622c465-ee29-4445-8260-1f3431e06587","{""participantId"":""A4575A39077F4171A2DA9A8A9BBBF126"",""assignmentId"":""8f1c9f56-2c21-43c5-ac18-37ce48b1b4fb"",""projectId"":""e622c465-ee29-4445-8260-1f3431e06587""}","https://test12345.live/?participantId=A4575A39077F4171A2DA9A8A9BBBF126&assignmentId=8f1c9f56-2c21-43c5-ac18-37ce48b1b4fb&projectId=e622c465-ee29-4445-8260-1f3431e06587","","null","<div style=""display: flex; justify-content: center; align-items: center;"">
                    <img src=""images/causal/causal_series_6/causal_series_6_b.jpg"" style=""width: 300px; height: 300px;"" />
                  </div>","null","",""
"","","","","","html-keyboard-response","127","326821","0.0-91.0-2.0","A4575A39077F4171A2DA9A8A9BBBF126","A4575A39077F4171A2DA9A8A9BBBF126","8f1c9f56-2c21-43c5-ac18-37ce48b1b4fb","e622c465-ee29-4445-8260-1f3431e06587","{""participantId"":""A4575A39077F4171A2DA9A8A9BBBF126"",""assignmentId"":""8f1c9f56-2c21-43c5-ac18-37ce48b1b4fb"",""projectId"":""e622c465-ee29-4445-8260-1f3431e06587""}","https://test12345.live/?participantId=A4575A39077F4171A2DA9A8A9BBBF126&assignmentId=8f1c9f56-2c21-43c5-ac18-37ce48b1b4fb&projectId=e622c465-ee29-4445-8260-1f3431e06587","","null","<div style=""display: flex; justify-content: center; align-items: center;"">
                    <img src=""images/causal/causal_series_6/causal_series_6_c.jpg"" style=""width: 300px; height: 300px;"" />
                  </div>","null","",""
"","","","","","html-keyboard-response","128","329823","0.0-91.0-3.0","A4575A39077F4171A2DA9A8A9BBBF126","A4575A39077F4171A2DA9A8A9BBBF126","8f1c9f56-2c21-43c5-ac18-37ce48b1b4fb","e622c465-ee29-4445-8260-1f3431e06587","{""participantId"":""A4575A39077F4171A2DA9A8A9BBBF126"",""assignmentId"":""8f1c9f56-2c21-43c5-ac18-37ce48b1b4fb"",""projectId"":""e622c465-ee29-4445-8260-1f3431e06587""}","https://test12345.live/?participantId=A4575A39077F4171A2DA9A8A9BBBF126&assignmentId=8f1c9f56-2c21-43c5-ac18-37ce48b1b4fb&projectId=e622c465-ee29-4445-8260-1f3431e06587","","null","<div style=""display: flex; justify-content: center; align-items: center;"">
                    <img src=""images/causal/causal_series_6/causal_series_6_d.jpg"" style=""width: 300px; height: 300px;"" />
                  </div>","null","",""
"","","","","","html-button-response","129","332504","0.0-93.0","A4575A39077F4171A2DA9A8A9BBBF126","A4575A39077F4171A2DA9A8A9BBBF126","8f1c9f56-2c21-43c5-ac18-37ce48b1b4fb","e622c465-ee29-4445-8260-1f3431e06587","{""participantId"":""A4575A39077F4171A2DA9A8A9BBBF126"",""assignmentId"":""8f1c9f56-2c21-43c5-ac18-37ce48b1b4fb"",""projectId"":""e622c465-ee29-4445-8260-1f3431e06587""}","https://test12345.live/?participantId=A4575A39077F4171A2DA9A8A9BBBF126&assignmentId=8f1c9f56-2c21-43c5-ac18-37ce48b1b4fb&projectId=e622c465-ee29-4445-8260-1f3431e06587","","2680","Was there a person in the picture?","1","",""
"","","","","","survey-likert","130","334025","0.0-94.0","A4575A39077F4171A2DA9A8A9BBBF126","A4575A39077F4171A2DA9A8A9BBBF126","8f1c9f56-2c21-43c5-ac18-37ce48b1b4fb","e622c465-ee29-4445-8260-1f3431e06587","{""participantId"":""A4575A39077F4171A2DA9A8A9BBBF126"",""assignmentId"":""8f1c9f56-2c21-43c5-ac18-37ce48b1b4fb"",""projectId"":""e622c465-ee29-4445-8260-1f3431e06587""}","https://test12345.live/?participantId=A4575A39077F4171A2DA9A8A9BBBF126&assignmentId=8f1c9f56-2c21-43c5-ac18-37ce48b1b4fb&projectId=e622c465-ee29-4445-8260-1f3431e06587","","1520","","{""Q0"":3}","","[0]"
"","","","","","survey-text","131","370858","0.0-95.0","A4575A39077F4171A2DA9A8A9BBBF126","A4575A39077F4171A2DA9A8A9BBBF126","8f1c9f56-2c21-43c5-ac18-37ce48b1b4fb","e622c465-ee29-4445-8260-1f3431e06587","{""participantId"":""A4575A39077F4171A2DA9A8A9BBBF126"",""assignmentId"":""8f1c9f56-2c21-43c5-ac18-37ce48b1b4fb"",""projectId"":""e622c465-ee29-4445-8260-1f3431e06587""}","https://test12345.live/?participantId=A4575A39077F4171A2DA9A8A9BBBF126&assignmentId=8f1c9f56-2c21-43c5-ac18-37ce48b1b4fb&projectId=e622c465-ee29-4445-8260-1f3431e06587","","36828","","{""Q0"":""Potentially, one seems to be cat centered the other is categories of things""}","",""
