"success","timeout","failed_images","failed_audio","failed_video","trial_type","trial_index","time_elapsed","internal_node_id","subject","subject_id","study_id","session_id","urlvar","current_url","view_history","rt","stimulus","response","choice","question_order"
"true","false","[]","[]","[]","preload","0","360","0.0-0.0","C5C734EB86A040C3839EDDD1E76719BE","C5C734EB86A040C3839EDDD1E76719BE","12c8e4b9-79a5-485e-91de-e42107cc273e","e622c465-ee29-4445-8260-1f3431e06587","{""participantId"":""C5C734EB86A040C3839EDDD1E76719BE"",""assignmentId"":""12c8e4b9-79a5-485e-91de-e42107cc273e"",""projectId"":""e622c465-ee29-4445-8260-1f3431e06587""}","https://test12345.live/?participantId=C5C734EB86A040C3839EDDD1E76719BE&assignmentId=12c8e4b9-79a5-485e-91de-e42107cc273e&projectId=e622c465-ee29-4445-8260-1f3431e06587","","","","","",""
"","","","","","instructions","1","1773","0.0-1.0","C5C734EB86A040C3839EDDD1E76719BE","C5C734EB86A040C3839EDDD1E76719BE","12c8e4b9-79a5-485e-91de-e42107cc273e","e622c465-ee29-4445-8260-1f3431e06587","{""participantId"":""C5C734EB86A040C3839EDDD1E76719BE"",""assignmentId"":""12c8e4b9-79a5-485e-91de-e42107cc273e"",""projectId"":""e622c465-ee29-4445-8260-1f3431e06587""}","https://test12345.live/?participantId=C5C734EB86A040C3839EDDD1E76719BE&assignmentId=12c8e4b9-79a5-485e-91de-e42107cc273e&projectId=e622c465-ee29-4445-8260-1f3431e06587","[{""page_index"":0,""viewing_time"":1412}]","1412","","","",""
"","","","","","instructions","2","5580","0.0-2.0","C5C734EB86A040C3839EDDD1E76719BE","C5C734EB86A040C3839EDDD1E76719BE","12c8e4b9-79a5-485e-91de-e42107cc273e","e622c465-ee29-4445-8260-1f3431e06587","{""participantId"":""C5C734EB86A040C3839EDDD1E76719BE"",""assignmentId"":""12c8e4b9-79a5-485e-91de-e42107cc273e"",""projectId"":""e622c465-ee29-4445-8260-1f3431e06587""}","https://test12345.live/?participantId=C5C734EB86A040C3839EDDD1E76719BE&assignmentId=12c8e4b9-79a5-485e-91de-e42107cc273e&projectId=e622c465-ee29-4445-8260-1f3431e06587","[{""page_index"":0,""viewing_time"":3807}]","3807","","","",""
"true","","","","","fullscreen","3","10335","0.0-3.0","C5C734EB86A040C3839EDDD1E76719BE","C5C734EB86A040C3839EDDD1E76719BE","12c8e4b9-79a5-485e-91de-e42107cc273e","e622c465-ee29-4445-8260-1f3431e06587","{""participantId"":""C5C734EB86A040C3839EDDD1E76719BE"",""assignmentId"":""12c8e4b9-79a5-485e-91de-e42107cc273e"",""projectId"":""e622c465-ee29-4445-8260-1f3431e06587""}","https://test12345.live/?participantId=C5C734EB86A040C3839EDDD1E76719BE&assignmentId=12c8e4b9-79a5-485e-91de-e42107cc273e&projectId=e622c465-ee29-4445-8260-1f3431e06587","","3744","","","",""
"","","","","","instructions","4","11597","0.0-4.0","C5C734EB86A040C3839EDDD1E76719BE","C5C734EB86A040C3839EDDD1E76719BE","12c8e4b9-79a5-485e-91de-e42107cc273e","e622c465-ee29-4445-8260-1f3431e06587","{""participantId"":""C5C734EB86A040C3839EDDD1E76719BE"",""assignmentId"":""12c8e4b9-79a5-485e-91de-e42107cc273e"",""projectId"":""e622c465-ee29-4445-8260-1f3431e06587""}","https://test12345.live/?participantId=C5C734EB86A040C3839EDDD1E76719BE&assignmentId=12c8e4b9-79a5-485e-91de-e42107cc273e&projectId=e622c465-ee29-4445-8260-1f3431e06587","[{""page_index"":0,""viewing_time"":1261}]","1262","","","",""
"","","","","","html-button-response","5","13585","0.0-5.0","C5C734EB86A040C3839EDDD1E76719BE","C5C734EB86A040C3839EDDD1E76719BE","12c8e4b9-79a5-485e-91de-e42107cc273e","e622c465-ee29-4445-8260-1f3431e06587","{""participantId"":""C5C734EB86A040C3839EDDD1E76719BE"",""assignmentId"":""12c8e4b9-79a5-485e-91de-e42107cc273e"",""projectId"":""e622c465-ee29-4445-8260-1f3431e06587""}","https://test12345.live/?participantId=C5C734EB86A040C3839EDDD1E76719BE&assignmentId=12c8e4b9-79a5-485e-91de-e42107cc273e&projectId=e622c465-ee29-4445-8260-1f3431e06587","","1987","
    <div style=""display: flex; justify-content: center; align-items: center;"">
      <img src=""images/blue_deck_1.png"" style=""width: 300px; height: 300px; margin-right: 10px;"" />
      <img src=""images/red_deck_2.png"" style=""width: 300px; height: 300px;"" />
    </div>","0","0",""
"","","","","","html-keyboard-response","6","16601","0.0-6.0-0.0","C5C734EB86A040C3839EDDD1E76719BE","C5C734EB86A040C3839EDDD1E76719BE","12c8e4b9-79a5-485e-91de-e42107cc273e","e622c465-ee29-4445-8260-1f3431e06587","{""participantId"":""C5C734EB86A040C3839EDDD1E76719BE"",""assignmentId"":""12c8e4b9-79a5-485e-91de-e42107cc273e"",""projectId"":""e622c465-ee29-4445-8260-1f3431e06587""}","https://test12345.live/?participantId=C5C734EB86A040C3839EDDD1E76719BE&assignmentId=12c8e4b9-79a5-485e-91de-e42107cc273e&projectId=e622c465-ee29-4445-8260-1f3431e06587","","null","<div style=""display: flex; justify-content: center; align-items: center;"">
                    <img src=""images/causal/causal_series_14/causal_series_14_a.jpg"" style=""width: 300px; height: 300px;"" />
                  </div>","null","",""
"","","","","","html-keyboard-response","7","19614","0.0-6.0-1.0","C5C734EB86A040C3839EDDD1E76719BE","C5C734EB86A040C3839EDDD1E76719BE","12c8e4b9-79a5-485e-91de-e42107cc273e","e622c465-ee29-4445-8260-1f3431e06587","{""participantId"":""C5C734EB86A040C3839EDDD1E76719BE"",""assignmentId"":""12c8e4b9-79a5-485e-91de-e42107cc273e"",""projectId"":""e622c465-ee29-4445-8260-1f3431e06587""}","https://test12345.live/?participantId=C5C734EB86A040C3839EDDD1E76719BE&assignmentId=12c8e4b9-79a5-485e-91de-e42107cc273e&projectId=e622c465-ee29-4445-8260-1f3431e06587","","null","<div style=""display: flex; justify-content: center; align-items: center;"">
                    <img src=""images/causal/causal_series_14/causal_series_14_b.jpg"" style=""width: 300px; height: 300px;"" />
                  </div>","null","",""
"","","","","","html-keyboard-response","8","22620","0.0-6.0-2.0","C5C734EB86A040C3839EDDD1E76719BE","C5C734EB86A040C3839EDDD1E76719BE","12c8e4b9-79a5-485e-91de-e42107cc273e","e622c465-ee29-4445-8260-1f3431e06587","{""participantId"":""C5C734EB86A040C3839EDDD1E76719BE"",""assignmentId"":""12c8e4b9-79a5-485e-91de-e42107cc273e"",""projectId"":""e622c465-ee29-4445-8260-1f3431e06587""}","https://test12345.live/?participantId=C5C734EB86A040C3839EDDD1E76719BE&assignmentId=12c8e4b9-79a5-485e-91de-e42107cc273e&projectId=e622c465-ee29-4445-8260-1f3431e06587","","null","<div style=""display: flex; justify-content: center; align-items: center;"">
                    <img src=""images/causal/causal_series_14/causal_series_14_c.jpg"" style=""width: 300px; height: 300px;"" />
                  </div>","null","",""
"","","","","","html-keyboard-response","9","25627","0.0-6.0-3.0","C5C734EB86A040C3839EDDD1E76719BE","C5C734EB86A040C3839EDDD1E76719BE","12c8e4b9-79a5-485e-91de-e42107cc273e","e622c465-ee29-4445-8260-1f3431e06587","{""participantId"":""C5C734EB86A040C3839EDDD1E76719BE"",""assignmentId"":""12c8e4b9-79a5-485e-91de-e42107cc273e"",""projectId"":""e622c465-ee29-4445-8260-1f3431e06587""}","https://test12345.live/?participantId=C5C734EB86A040C3839EDDD1E76719BE&assignmentId=12c8e4b9-79a5-485e-91de-e42107cc273e&projectId=e622c465-ee29-4445-8260-1f3431e06587","","null","<div style=""display: flex; justify-content: center; align-items: center;"">
                    <img src=""images/causal/causal_series_14/causal_series_14_d.jpg"" style=""width: 300px; height: 300px;"" />
                  </div>","null","",""
"","","","","","html-button-response","10","27627","0.0-8.0","C5C734EB86A040C3839EDDD1E76719BE","C5C734EB86A040C3839EDDD1E76719BE","12c8e4b9-79a5-485e-91de-e42107cc273e","e622c465-ee29-4445-8260-1f3431e06587","{""participantId"":""C5C734EB86A040C3839EDDD1E76719BE"",""assignmentId"":""12c8e4b9-79a5-485e-91de-e42107cc273e"",""projectId"":""e622c465-ee29-4445-8260-1f3431e06587""}","https://test12345.live/?participantId=C5C734EB86A040C3839EDDD1E76719BE&assignmentId=12c8e4b9-79a5-485e-91de-e42107cc273e&projectId=e622c465-ee29-4445-8260-1f3431e06587","","2000","Was there a person in the picture?","0","",""
"","","","","","survey-likert","11","30868","0.0-9.0","C5C734EB86A040C3839EDDD1E76719BE","C5C734EB86A040C3839EDDD1E76719BE","12c8e4b9-79a5-485e-91de-e42107cc273e","e622c465-ee29-4445-8260-1f3431e06587","{""participantId"":""C5C734EB86A040C3839EDDD1E76719BE"",""assignmentId"":""12c8e4b9-79a5-485e-91de-e42107cc273e"",""projectId"":""e622c465-ee29-4445-8260-1f3431e06587""}","https://test12345.live/?participantId=C5C734EB86A040C3839EDDD1E76719BE&assignmentId=12c8e4b9-79a5-485e-91de-e42107cc273e&projectId=e622c465-ee29-4445-8260-1f3431e06587","","3239","","{""Q0"":1}","","[0]"
"","","","","","html-button-response","12","32409","0.0-10.0","C5C734EB86A040C3839EDDD1E76719BE","C5C734EB86A040C3839EDDD1E76719BE","12c8e4b9-79a5-485e-91de-e42107cc273e","e622c465-ee29-4445-8260-1f3431e06587","{""participantId"":""C5C734EB86A040C3839EDDD1E76719BE"",""assignmentId"":""12c8e4b9-79a5-485e-91de-e42107cc273e"",""projectId"":""e622c465-ee29-4445-8260-1f3431e06587""}","https://test12345.live/?participantId=C5C734EB86A040C3839EDDD1E76719BE&assignmentId=12c8e4b9-79a5-485e-91de-e42107cc273e&projectId=e622c465-ee29-4445-8260-1f3431e06587","","1541","
    <div style=""display: flex; justify-content: center; align-items: center;"">
      <img src=""images/blue_deck_1.png"" style=""width: 300px; height: 300px; margin-right: 10px;"" />
      <img src=""images/red_deck_2.png"" style=""width: 300px; height: 300px;"" />
    </div>","1","1",""
"","","","","","html-keyboard-response","13","35419","0.0-12.0-0.0","C5C734EB86A040C3839EDDD1E76719BE","C5C734EB86A040C3839EDDD1E76719BE","12c8e4b9-79a5-485e-91de-e42107cc273e","e622c465-ee29-4445-8260-1f3431e06587","{""participantId"":""C5C734EB86A040C3839EDDD1E76719BE"",""assignmentId"":""12c8e4b9-79a5-485e-91de-e42107cc273e"",""projectId"":""e622c465-ee29-4445-8260-1f3431e06587""}","https://test12345.live/?participantId=C5C734EB86A040C3839EDDD1E76719BE&assignmentId=12c8e4b9-79a5-485e-91de-e42107cc273e&projectId=e622c465-ee29-4445-8260-1f3431e06587","","null","<div style=""display: flex; justify-content: center; align-items: center;"">
                    <img src=""images/semantic/semantic_series_7/semantic_series_7_a.jpg"" style=""width: 300px; height: 300px;"" />
                  </div>","null","",""
"","","","","","html-keyboard-response","14","38429","0.0-12.0-1.0","C5C734EB86A040C3839EDDD1E76719BE","C5C734EB86A040C3839EDDD1E76719BE","12c8e4b9-79a5-485e-91de-e42107cc273e","e622c465-ee29-4445-8260-1f3431e06587","{""participantId"":""C5C734EB86A040C3839EDDD1E76719BE"",""assignmentId"":""12c8e4b9-79a5-485e-91de-e42107cc273e"",""projectId"":""e622c465-ee29-4445-8260-1f3431e06587""}","https://test12345.live/?participantId=C5C734EB86A040C3839EDDD1E76719BE&assignmentId=12c8e4b9-79a5-485e-91de-e42107cc273e&projectId=e622c465-ee29-4445-8260-1f3431e06587","","null","<div style=""display: flex; justify-content: center; align-items: center;"">
                    <img src=""images/semantic/semantic_series_7/semantic_series_7_b.jpg"" style=""width: 300px; height: 300px;"" />
                  </div>","null","",""
"","","","","","html-keyboard-response","15","41433","0.0-12.0-2.0","C5C734EB86A040C3839EDDD1E76719BE","C5C734EB86A040C3839EDDD1E76719BE","12c8e4b9-79a5-485e-91de-e42107cc273e","e622c465-ee29-4445-8260-1f3431e06587","{""participantId"":""C5C734EB86A040C3839EDDD1E76719BE"",""assignmentId"":""12c8e4b9-79a5-485e-91de-e42107cc273e"",""projectId"":""e622c465-ee29-4445-8260-1f3431e06587""}","https://test12345.live/?participantId=C5C734EB86A040C3839EDDD1E76719BE&assignmentId=12c8e4b9-79a5-485e-91de-e42107cc273e&projectId=e622c465-ee29-4445-8260-1f3431e06587","","null","<div style=""display: flex; justify-content: center; align-items: center;"">
                    <img src=""images/semantic/semantic_series_7/semantic_series_7_c.jpg"" style=""width: 300px; height: 300px;"" />
                  </div>","null","",""
"","","","","","html-keyboard-response","16","44442","0.0-12.0-3.0","C5C734EB86A040C3839EDDD1E76719BE","C5C734EB86A040C3839EDDD1E76719BE","12c8e4b9-79a5-485e-91de-e42107cc273e","e622c465-ee29-4445-8260-1f3431e06587","{""participantId"":""C5C734EB86A040C3839EDDD1E76719BE"",""assignmentId"":""12c8e4b9-79a5-485e-91de-e42107cc273e"",""projectId"":""e622c465-ee29-4445-8260-1f3431e06587""}","https://test12345.live/?participantId=C5C734EB86A040C3839EDDD1E76719BE&assignmentId=12c8e4b9-79a5-485e-91de-e42107cc273e&projectId=e622c465-ee29-4445-8260-1f3431e06587","","null","<div style=""display: flex; justify-content: center; align-items: center;"">
                    <img src=""images/semantic/semantic_series_7/semantic_series_7_d.jpg"" style=""width: 300px; height: 300px;"" />
                  </div>","null","",""
"","","","","","html-button-response","17","45753","0.0-13.0","C5C734EB86A040C3839EDDD1E76719BE","C5C734EB86A040C3839EDDD1E76719BE","12c8e4b9-79a5-485e-91de-e42107cc273e","e622c465-ee29-4445-8260-1f3431e06587","{""participantId"":""C5C734EB86A040C3839EDDD1E76719BE"",""assignmentId"":""12c8e4b9-79a5-485e-91de-e42107cc273e"",""projectId"":""e622c465-ee29-4445-8260-1f3431e06587""}","https://test12345.live/?participantId=C5C734EB86A040C3839EDDD1E76719BE&assignmentId=12c8e4b9-79a5-485e-91de-e42107cc273e&projectId=e622c465-ee29-4445-8260-1f3431e06587","","1311","Was there a person in the picture?","1","",""
"","","","","","survey-likert","18","50316","0.0-14.0","C5C734EB86A040C3839EDDD1E76719BE","C5C734EB86A040C3839EDDD1E76719BE","12c8e4b9-79a5-485e-91de-e42107cc273e","e622c465-ee29-4445-8260-1f3431e06587","{""participantId"":""C5C734EB86A040C3839EDDD1E76719BE"",""assignmentId"":""12c8e4b9-79a5-485e-91de-e42107cc273e"",""projectId"":""e622c465-ee29-4445-8260-1f3431e06587""}","https://test12345.live/?participantId=C5C734EB86A040C3839EDDD1E76719BE&assignmentId=12c8e4b9-79a5-485e-91de-e42107cc273e&projectId=e622c465-ee29-4445-8260-1f3431e06587","","4562","","{""Q0"":0}","","[0]"
"","","","","","html-button-response","19","51185","0.0-15.0","C5C734EB86A040C3839EDDD1E76719BE","C5C734EB86A040C3839EDDD1E76719BE","12c8e4b9-79a5-485e-91de-e42107cc273e","e622c465-ee29-4445-8260-1f3431e06587","{""participantId"":""C5C734EB86A040C3839EDDD1E76719BE"",""assignmentId"":""12c8e4b9-79a5-485e-91de-e42107cc273e"",""projectId"":""e622c465-ee29-4445-8260-1f3431e06587""}","https://test12345.live/?participantId=C5C734EB86A040C3839EDDD1E76719BE&assignmentId=12c8e4b9-79a5-485e-91de-e42107cc273e&projectId=e622c465-ee29-4445-8260-1f3431e06587","","868","
    <div style=""display: flex; justify-content: center; align-items: center;"">
      <img src=""images/blue_deck_1.png"" style=""width: 300px; height: 300px; margin-right: 10px;"" />
      <img src=""images/red_deck_2.png"" style=""width: 300px; height: 300px;"" />
    </div>","0","0",""
"","","","","","html-keyboard-response","20","54201","0.0-16.0-0.0","C5C734EB86A040C3839EDDD1E76719BE","C5C734EB86A040C3839EDDD1E76719BE","12c8e4b9-79a5-485e-91de-e42107cc273e","e622c465-ee29-4445-8260-1f3431e06587","{""participantId"":""C5C734EB86A040C3839EDDD1E76719BE"",""assignmentId"":""12c8e4b9-79a5-485e-91de-e42107cc273e"",""projectId"":""e622c465-ee29-4445-8260-1f3431e06587""}","https://test12345.live/?participantId=C5C734EB86A040C3839EDDD1E76719BE&assignmentId=12c8e4b9-79a5-485e-91de-e42107cc273e&projectId=e622c465-ee29-4445-8260-1f3431e06587","","null","<div style=""display: flex; justify-content: center; align-items: center;"">
                    <img src=""images/causal/causal_series_15/causal_series_15_a.jpg"" style=""width: 300px; height: 300px;"" />
                  </div>","null","",""
"","","","","","html-keyboard-response","21","57209","0.0-16.0-1.0","C5C734EB86A040C3839EDDD1E76719BE","C5C734EB86A040C3839EDDD1E76719BE","12c8e4b9-79a5-485e-91de-e42107cc273e","e622c465-ee29-4445-8260-1f3431e06587","{""participantId"":""C5C734EB86A040C3839EDDD1E76719BE"",""assignmentId"":""12c8e4b9-79a5-485e-91de-e42107cc273e"",""projectId"":""e622c465-ee29-4445-8260-1f3431e06587""}","https://test12345.live/?participantId=C5C734EB86A040C3839EDDD1E76719BE&assignmentId=12c8e4b9-79a5-485e-91de-e42107cc273e&projectId=e622c465-ee29-4445-8260-1f3431e06587","","null","<div style=""display: flex; justify-content: center; align-items: center;"">
                    <img src=""images/causal/causal_series_15/causal_series_15_b.jpg"" style=""width: 300px; height: 300px;"" />
                  </div>","null","",""
"","","","","","html-keyboard-response","22","60215","0.0-16.0-2.0","C5C734EB86A040C3839EDDD1E76719BE","C5C734EB86A040C3839EDDD1E76719BE","12c8e4b9-79a5-485e-91de-e42107cc273e","e622c465-ee29-4445-8260-1f3431e06587","{""participantId"":""C5C734EB86A040C3839EDDD1E76719BE"",""assignmentId"":""12c8e4b9-79a5-485e-91de-e42107cc273e"",""projectId"":""e622c465-ee29-4445-8260-1f3431e06587""}","https://test12345.live/?participantId=C5C734EB86A040C3839EDDD1E76719BE&assignmentId=12c8e4b9-79a5-485e-91de-e42107cc273e&projectId=e622c465-ee29-4445-8260-1f3431e06587","","null","<div style=""display: flex; justify-content: center; align-items: center;"">
                    <img src=""images/causal/causal_series_15/causal_series_15_c.jpg"" style=""width: 300px; height: 300px;"" />
                  </div>","null","",""
"","","","","","html-keyboard-response","23","63228","0.0-16.0-3.0","C5C734EB86A040C3839EDDD1E76719BE","C5C734EB86A040C3839EDDD1E76719BE","12c8e4b9-79a5-485e-91de-e42107cc273e","e622c465-ee29-4445-8260-1f3431e06587","{""participantId"":""C5C734EB86A040C3839EDDD1E76719BE"",""assignmentId"":""12c8e4b9-79a5-485e-91de-e42107cc273e"",""projectId"":""e622c465-ee29-4445-8260-1f3431e06587""}","https://test12345.live/?participantId=C5C734EB86A040C3839EDDD1E76719BE&assignmentId=12c8e4b9-79a5-485e-91de-e42107cc273e&projectId=e622c465-ee29-4445-8260-1f3431e06587","","null","<div style=""display: flex; justify-content: center; align-items: center;"">
                    <img src=""images/causal/causal_series_15/causal_series_15_d.jpg"" style=""width: 300px; height: 300px;"" />
                  </div>","null","",""
"","","","","","html-button-response","24","67036","0.0-18.0","C5C734EB86A040C3839EDDD1E76719BE","C5C734EB86A040C3839EDDD1E76719BE","12c8e4b9-79a5-485e-91de-e42107cc273e","e622c465-ee29-4445-8260-1f3431e06587","{""participantId"":""C5C734EB86A040C3839EDDD1E76719BE"",""assignmentId"":""12c8e4b9-79a5-485e-91de-e42107cc273e"",""projectId"":""e622c465-ee29-4445-8260-1f3431e06587""}","https://test12345.live/?participantId=C5C734EB86A040C3839EDDD1E76719BE&assignmentId=12c8e4b9-79a5-485e-91de-e42107cc273e&projectId=e622c465-ee29-4445-8260-1f3431e06587","","3807","Was there a person in the picture?","1","",""
"","","","","","survey-likert","25","68509","0.0-19.0","C5C734EB86A040C3839EDDD1E76719BE","C5C734EB86A040C3839EDDD1E76719BE","12c8e4b9-79a5-485e-91de-e42107cc273e","e622c465-ee29-4445-8260-1f3431e06587","{""participantId"":""C5C734EB86A040C3839EDDD1E76719BE"",""assignmentId"":""12c8e4b9-79a5-485e-91de-e42107cc273e"",""projectId"":""e622c465-ee29-4445-8260-1f3431e06587""}","https://test12345.live/?participantId=C5C734EB86A040C3839EDDD1E76719BE&assignmentId=12c8e4b9-79a5-485e-91de-e42107cc273e&projectId=e622c465-ee29-4445-8260-1f3431e06587","","1473","","{""Q0"":0}","","[0]"
"","","","","","html-button-response","26","69237","0.0-20.0","C5C734EB86A040C3839EDDD1E76719BE","C5C734EB86A040C3839EDDD1E76719BE","12c8e4b9-79a5-485e-91de-e42107cc273e","e622c465-ee29-4445-8260-1f3431e06587","{""participantId"":""C5C734EB86A040C3839EDDD1E76719BE"",""assignmentId"":""12c8e4b9-79a5-485e-91de-e42107cc273e"",""projectId"":""e622c465-ee29-4445-8260-1f3431e06587""}","https://test12345.live/?participantId=C5C734EB86A040C3839EDDD1E76719BE&assignmentId=12c8e4b9-79a5-485e-91de-e42107cc273e&projectId=e622c465-ee29-4445-8260-1f3431e06587","","727","
    <div style=""display: flex; justify-content: center; align-items: center;"">
      <img src=""images/blue_deck_1.png"" style=""width: 300px; height: 300px; margin-right: 10px;"" />
      <img src=""images/red_deck_2.png"" style=""width: 300px; height: 300px;"" />
    </div>","0","0",""
"","","","","","html-keyboard-response","27","72244","0.0-21.0-0.0","C5C734EB86A040C3839EDDD1E76719BE","C5C734EB86A040C3839EDDD1E76719BE","12c8e4b9-79a5-485e-91de-e42107cc273e","e622c465-ee29-4445-8260-1f3431e06587","{""participantId"":""C5C734EB86A040C3839EDDD1E76719BE"",""assignmentId"":""12c8e4b9-79a5-485e-91de-e42107cc273e"",""projectId"":""e622c465-ee29-4445-8260-1f3431e06587""}","https://test12345.live/?participantId=C5C734EB86A040C3839EDDD1E76719BE&assignmentId=12c8e4b9-79a5-485e-91de-e42107cc273e&projectId=e622c465-ee29-4445-8260-1f3431e06587","","null","<div style=""display: flex; justify-content: center; align-items: center;"">
                    <img src=""images/causal/causal_series_7/causal_series_7_a.jpg"" style=""width: 300px; height: 300px;"" />
                  </div>","null","",""
"","","","","","html-keyboard-response","28","75245","0.0-21.0-1.0","C5C734EB86A040C3839EDDD1E76719BE","C5C734EB86A040C3839EDDD1E76719BE","12c8e4b9-79a5-485e-91de-e42107cc273e","e622c465-ee29-4445-8260-1f3431e06587","{""participantId"":""C5C734EB86A040C3839EDDD1E76719BE"",""assignmentId"":""12c8e4b9-79a5-485e-91de-e42107cc273e"",""projectId"":""e622c465-ee29-4445-8260-1f3431e06587""}","https://test12345.live/?participantId=C5C734EB86A040C3839EDDD1E76719BE&assignmentId=12c8e4b9-79a5-485e-91de-e42107cc273e&projectId=e622c465-ee29-4445-8260-1f3431e06587","","null","<div style=""display: flex; justify-content: center; align-items: center;"">
                    <img src=""images/causal/causal_series_7/causal_series_7_b.jpg"" style=""width: 300px; height: 300px;"" />
                  </div>","null","",""
"","","","","","html-keyboard-response","29","78261","0.0-21.0-2.0","C5C734EB86A040C3839EDDD1E76719BE","C5C734EB86A040C3839EDDD1E76719BE","12c8e4b9-79a5-485e-91de-e42107cc273e","e622c465-ee29-4445-8260-1f3431e06587","{""participantId"":""C5C734EB86A040C3839EDDD1E76719BE"",""assignmentId"":""12c8e4b9-79a5-485e-91de-e42107cc273e"",""projectId"":""e622c465-ee29-4445-8260-1f3431e06587""}","https://test12345.live/?participantId=C5C734EB86A040C3839EDDD1E76719BE&assignmentId=12c8e4b9-79a5-485e-91de-e42107cc273e&projectId=e622c465-ee29-4445-8260-1f3431e06587","","null","<div style=""display: flex; justify-content: center; align-items: center;"">
                    <img src=""images/causal/causal_series_7/causal_series_7_c.jpg"" style=""width: 300px; height: 300px;"" />
                  </div>","null","",""
"","","","","","html-keyboard-response","30","81275","0.0-21.0-3.0","C5C734EB86A040C3839EDDD1E76719BE","C5C734EB86A040C3839EDDD1E76719BE","12c8e4b9-79a5-485e-91de-e42107cc273e","e622c465-ee29-4445-8260-1f3431e06587","{""participantId"":""C5C734EB86A040C3839EDDD1E76719BE"",""assignmentId"":""12c8e4b9-79a5-485e-91de-e42107cc273e"",""projectId"":""e622c465-ee29-4445-8260-1f3431e06587""}","https://test12345.live/?participantId=C5C734EB86A040C3839EDDD1E76719BE&assignmentId=12c8e4b9-79a5-485e-91de-e42107cc273e&projectId=e622c465-ee29-4445-8260-1f3431e06587","","null","<div style=""display: flex; justify-content: center; align-items: center;"">
                    <img src=""images/causal/causal_series_7/causal_series_7_d.jpg"" style=""width: 300px; height: 300px;"" />
                  </div>","null","",""
"","","","","","html-button-response","31","82327","0.0-23.0","C5C734EB86A040C3839EDDD1E76719BE","C5C734EB86A040C3839EDDD1E76719BE","12c8e4b9-79a5-485e-91de-e42107cc273e","e622c465-ee29-4445-8260-1f3431e06587","{""participantId"":""C5C734EB86A040C3839EDDD1E76719BE"",""assignmentId"":""12c8e4b9-79a5-485e-91de-e42107cc273e"",""projectId"":""e622c465-ee29-4445-8260-1f3431e06587""}","https://test12345.live/?participantId=C5C734EB86A040C3839EDDD1E76719BE&assignmentId=12c8e4b9-79a5-485e-91de-e42107cc273e&projectId=e622c465-ee29-4445-8260-1f3431e06587","","1051","Was there a person in the picture?","1","",""
"","","","","","survey-likert","32","84704","0.0-24.0","C5C734EB86A040C3839EDDD1E76719BE","C5C734EB86A040C3839EDDD1E76719BE","12c8e4b9-79a5-485e-91de-e42107cc273e","e622c465-ee29-4445-8260-1f3431e06587","{""participantId"":""C5C734EB86A040C3839EDDD1E76719BE"",""assignmentId"":""12c8e4b9-79a5-485e-91de-e42107cc273e"",""projectId"":""e622c465-ee29-4445-8260-1f3431e06587""}","https://test12345.live/?participantId=C5C734EB86A040C3839EDDD1E76719BE&assignmentId=12c8e4b9-79a5-485e-91de-e42107cc273e&projectId=e622c465-ee29-4445-8260-1f3431e06587","","2377","","{""Q0"":0}","","[0]"
"","","","","","html-button-response","33","85965","0.0-25.0","C5C734EB86A040C3839EDDD1E76719BE","C5C734EB86A040C3839EDDD1E76719BE","12c8e4b9-79a5-485e-91de-e42107cc273e","e622c465-ee29-4445-8260-1f3431e06587","{""participantId"":""C5C734EB86A040C3839EDDD1E76719BE"",""assignmentId"":""12c8e4b9-79a5-485e-91de-e42107cc273e"",""projectId"":""e622c465-ee29-4445-8260-1f3431e06587""}","https://test12345.live/?participantId=C5C734EB86A040C3839EDDD1E76719BE&assignmentId=12c8e4b9-79a5-485e-91de-e42107cc273e&projectId=e622c465-ee29-4445-8260-1f3431e06587","","1260","
    <div style=""display: flex; justify-content: center; align-items: center;"">
      <img src=""images/blue_deck_1.png"" style=""width: 300px; height: 300px; margin-right: 10px;"" />
      <img src=""images/red_deck_2.png"" style=""width: 300px; height: 300px;"" />
    </div>","1","1",""
"","","","","","html-keyboard-response","34","88980","0.0-27.0-0.0","C5C734EB86A040C3839EDDD1E76719BE","C5C734EB86A040C3839EDDD1E76719BE","12c8e4b9-79a5-485e-91de-e42107cc273e","e622c465-ee29-4445-8260-1f3431e06587","{""participantId"":""C5C734EB86A040C3839EDDD1E76719BE"",""assignmentId"":""12c8e4b9-79a5-485e-91de-e42107cc273e"",""projectId"":""e622c465-ee29-4445-8260-1f3431e06587""}","https://test12345.live/?participantId=C5C734EB86A040C3839EDDD1E76719BE&assignmentId=12c8e4b9-79a5-485e-91de-e42107cc273e&projectId=e622c465-ee29-4445-8260-1f3431e06587","","null","<div style=""display: flex; justify-content: center; align-items: center;"">
                    <img src=""images/semantic/semantic_series_11/semantic_series_11_a.jpg"" style=""width: 300px; height: 300px;"" />
                  </div>","null","",""
"","","","","","html-keyboard-response","35","91990","0.0-27.0-1.0","C5C734EB86A040C3839EDDD1E76719BE","C5C734EB86A040C3839EDDD1E76719BE","12c8e4b9-79a5-485e-91de-e42107cc273e","e622c465-ee29-4445-8260-1f3431e06587","{""participantId"":""C5C734EB86A040C3839EDDD1E76719BE"",""assignmentId"":""12c8e4b9-79a5-485e-91de-e42107cc273e"",""projectId"":""e622c465-ee29-4445-8260-1f3431e06587""}","https://test12345.live/?participantId=C5C734EB86A040C3839EDDD1E76719BE&assignmentId=12c8e4b9-79a5-485e-91de-e42107cc273e&projectId=e622c465-ee29-4445-8260-1f3431e06587","","null","<div style=""display: flex; justify-content: center; align-items: center;"">
                    <img src=""images/semantic/semantic_series_11/semantic_series_11_b.jpg"" style=""width: 300px; height: 300px;"" />
                  </div>","null","",""
"","","","","","html-keyboard-response","36","95001","0.0-27.0-2.0","C5C734EB86A040C3839EDDD1E76719BE","C5C734EB86A040C3839EDDD1E76719BE","12c8e4b9-79a5-485e-91de-e42107cc273e","e622c465-ee29-4445-8260-1f3431e06587","{""participantId"":""C5C734EB86A040C3839EDDD1E76719BE"",""assignmentId"":""12c8e4b9-79a5-485e-91de-e42107cc273e"",""projectId"":""e622c465-ee29-4445-8260-1f3431e06587""}","https://test12345.live/?participantId=C5C734EB86A040C3839EDDD1E76719BE&assignmentId=12c8e4b9-79a5-485e-91de-e42107cc273e&projectId=e622c465-ee29-4445-8260-1f3431e06587","","null","<div style=""display: flex; justify-content: center; align-items: center;"">
                    <img src=""images/semantic/semantic_series_11/semantic_series_11_c.jpg"" style=""width: 300px; height: 300px;"" />
                  </div>","null","",""
"","","","","","html-keyboard-response","37","98013","0.0-27.0-3.0","C5C734EB86A040C3839EDDD1E76719BE","C5C734EB86A040C3839EDDD1E76719BE","12c8e4b9-79a5-485e-91de-e42107cc273e","e622c465-ee29-4445-8260-1f3431e06587","{""participantId"":""C5C734EB86A040C3839EDDD1E76719BE"",""assignmentId"":""12c8e4b9-79a5-485e-91de-e42107cc273e"",""projectId"":""e622c465-ee29-4445-8260-1f3431e06587""}","https://test12345.live/?participantId=C5C734EB86A040C3839EDDD1E76719BE&assignmentId=12c8e4b9-79a5-485e-91de-e42107cc273e&projectId=e622c465-ee29-4445-8260-1f3431e06587","","null","<div style=""display: flex; justify-content: center; align-items: center;"">
                    <img src=""images/semantic/semantic_series_11/semantic_series_11_d.jpg"" style=""width: 300px; height: 300px;"" />
                  </div>","null","",""
"","","","","","html-button-response","38","100936","0.0-28.0","C5C734EB86A040C3839EDDD1E76719BE","C5C734EB86A040C3839EDDD1E76719BE","12c8e4b9-79a5-485e-91de-e42107cc273e","e622c465-ee29-4445-8260-1f3431e06587","{""participantId"":""C5C734EB86A040C3839EDDD1E76719BE"",""assignmentId"":""12c8e4b9-79a5-485e-91de-e42107cc273e"",""projectId"":""e622c465-ee29-4445-8260-1f3431e06587""}","https://test12345.live/?participantId=C5C734EB86A040C3839EDDD1E76719BE&assignmentId=12c8e4b9-79a5-485e-91de-e42107cc273e&projectId=e622c465-ee29-4445-8260-1f3431e06587","","2923","Was there a person in the picture?","0","",""
"","","","","","survey-likert","39","102938","0.0-29.0","C5C734EB86A040C3839EDDD1E76719BE","C5C734EB86A040C3839EDDD1E76719BE","12c8e4b9-79a5-485e-91de-e42107cc273e","e622c465-ee29-4445-8260-1f3431e06587","{""participantId"":""C5C734EB86A040C3839EDDD1E76719BE"",""assignmentId"":""12c8e4b9-79a5-485e-91de-e42107cc273e"",""projectId"":""e622c465-ee29-4445-8260-1f3431e06587""}","https://test12345.live/?participantId=C5C734EB86A040C3839EDDD1E76719BE&assignmentId=12c8e4b9-79a5-485e-91de-e42107cc273e&projectId=e622c465-ee29-4445-8260-1f3431e06587","","2002","","{""Q0"":0}","","[0]"
"","","","","","html-button-response","40","104255","0.0-30.0","C5C734EB86A040C3839EDDD1E76719BE","C5C734EB86A040C3839EDDD1E76719BE","12c8e4b9-79a5-485e-91de-e42107cc273e","e622c465-ee29-4445-8260-1f3431e06587","{""participantId"":""C5C734EB86A040C3839EDDD1E76719BE"",""assignmentId"":""12c8e4b9-79a5-485e-91de-e42107cc273e"",""projectId"":""e622c465-ee29-4445-8260-1f3431e06587""}","https://test12345.live/?participantId=C5C734EB86A040C3839EDDD1E76719BE&assignmentId=12c8e4b9-79a5-485e-91de-e42107cc273e&projectId=e622c465-ee29-4445-8260-1f3431e06587","","1316","
    <div style=""display: flex; justify-content: center; align-items: center;"">
      <img src=""images/blue_deck_1.png"" style=""width: 300px; height: 300px; margin-right: 10px;"" />
      <img src=""images/red_deck_2.png"" style=""width: 300px; height: 300px;"" />
    </div>","1","1",""
"","","","","","html-keyboard-response","41","107263","0.0-32.0-0.0","C5C734EB86A040C3839EDDD1E76719BE","C5C734EB86A040C3839EDDD1E76719BE","12c8e4b9-79a5-485e-91de-e42107cc273e","e622c465-ee29-4445-8260-1f3431e06587","{""participantId"":""C5C734EB86A040C3839EDDD1E76719BE"",""assignmentId"":""12c8e4b9-79a5-485e-91de-e42107cc273e"",""projectId"":""e622c465-ee29-4445-8260-1f3431e06587""}","https://test12345.live/?participantId=C5C734EB86A040C3839EDDD1E76719BE&assignmentId=12c8e4b9-79a5-485e-91de-e42107cc273e&projectId=e622c465-ee29-4445-8260-1f3431e06587","","null","<div style=""display: flex; justify-content: center; align-items: center;"">
                    <img src=""images/semantic/semantic_series_16/semantic_series_16_a.jpg"" style=""width: 300px; height: 300px;"" />
                  </div>","null","",""
"","","","","","html-keyboard-response","42","110268","0.0-32.0-1.0","C5C734EB86A040C3839EDDD1E76719BE","C5C734EB86A040C3839EDDD1E76719BE","12c8e4b9-79a5-485e-91de-e42107cc273e","e622c465-ee29-4445-8260-1f3431e06587","{""participantId"":""C5C734EB86A040C3839EDDD1E76719BE"",""assignmentId"":""12c8e4b9-79a5-485e-91de-e42107cc273e"",""projectId"":""e622c465-ee29-4445-8260-1f3431e06587""}","https://test12345.live/?participantId=C5C734EB86A040C3839EDDD1E76719BE&assignmentId=12c8e4b9-79a5-485e-91de-e42107cc273e&projectId=e622c465-ee29-4445-8260-1f3431e06587","","null","<div style=""display: flex; justify-content: center; align-items: center;"">
                    <img src=""images/semantic/semantic_series_16/semantic_series_16_b.jpg"" style=""width: 300px; height: 300px;"" />
                  </div>","null","",""
"","","","","","html-keyboard-response","43","113276","0.0-32.0-2.0","C5C734EB86A040C3839EDDD1E76719BE","C5C734EB86A040C3839EDDD1E76719BE","12c8e4b9-79a5-485e-91de-e42107cc273e","e622c465-ee29-4445-8260-1f3431e06587","{""participantId"":""C5C734EB86A040C3839EDDD1E76719BE"",""assignmentId"":""12c8e4b9-79a5-485e-91de-e42107cc273e"",""projectId"":""e622c465-ee29-4445-8260-1f3431e06587""}","https://test12345.live/?participantId=C5C734EB86A040C3839EDDD1E76719BE&assignmentId=12c8e4b9-79a5-485e-91de-e42107cc273e&projectId=e622c465-ee29-4445-8260-1f3431e06587","","null","<div style=""display: flex; justify-content: center; align-items: center;"">
                    <img src=""images/semantic/semantic_series_16/semantic_series_16_c.jpg"" style=""width: 300px; height: 300px;"" />
                  </div>","null","",""
"","","","","","html-keyboard-response","44","116291","0.0-32.0-3.0","C5C734EB86A040C3839EDDD1E76719BE","C5C734EB86A040C3839EDDD1E76719BE","12c8e4b9-79a5-485e-91de-e42107cc273e","e622c465-ee29-4445-8260-1f3431e06587","{""participantId"":""C5C734EB86A040C3839EDDD1E76719BE"",""assignmentId"":""12c8e4b9-79a5-485e-91de-e42107cc273e"",""projectId"":""e622c465-ee29-4445-8260-1f3431e06587""}","https://test12345.live/?participantId=C5C734EB86A040C3839EDDD1E76719BE&assignmentId=12c8e4b9-79a5-485e-91de-e42107cc273e&projectId=e622c465-ee29-4445-8260-1f3431e06587","","null","<div style=""display: flex; justify-content: center; align-items: center;"">
                    <img src=""images/semantic/semantic_series_16/semantic_series_16_d.jpg"" style=""width: 300px; height: 300px;"" />
                  </div>","null","",""
"","","","","","html-button-response","45","119993","0.0-33.0","C5C734EB86A040C3839EDDD1E76719BE","C5C734EB86A040C3839EDDD1E76719BE","12c8e4b9-79a5-485e-91de-e42107cc273e","e622c465-ee29-4445-8260-1f3431e06587","{""participantId"":""C5C734EB86A040C3839EDDD1E76719BE"",""assignmentId"":""12c8e4b9-79a5-485e-91de-e42107cc273e"",""projectId"":""e622c465-ee29-4445-8260-1f3431e06587""}","https://test12345.live/?participantId=C5C734EB86A040C3839EDDD1E76719BE&assignmentId=12c8e4b9-79a5-485e-91de-e42107cc273e&projectId=e622c465-ee29-4445-8260-1f3431e06587","","3702","Was there a person in the picture?","0","",""
"","","","","","survey-likert","46","120907","0.0-34.0","C5C734EB86A040C3839EDDD1E76719BE","C5C734EB86A040C3839EDDD1E76719BE","12c8e4b9-79a5-485e-91de-e42107cc273e","e622c465-ee29-4445-8260-1f3431e06587","{""participantId"":""C5C734EB86A040C3839EDDD1E76719BE"",""assignmentId"":""12c8e4b9-79a5-485e-91de-e42107cc273e"",""projectId"":""e622c465-ee29-4445-8260-1f3431e06587""}","https://test12345.live/?participantId=C5C734EB86A040C3839EDDD1E76719BE&assignmentId=12c8e4b9-79a5-485e-91de-e42107cc273e&projectId=e622c465-ee29-4445-8260-1f3431e06587","","913","","{""Q0"":0}","","[0]"
"","","","","","html-button-response","47","121607","0.0-35.0","C5C734EB86A040C3839EDDD1E76719BE","C5C734EB86A040C3839EDDD1E76719BE","12c8e4b9-79a5-485e-91de-e42107cc273e","e622c465-ee29-4445-8260-1f3431e06587","{""participantId"":""C5C734EB86A040C3839EDDD1E76719BE"",""assignmentId"":""12c8e4b9-79a5-485e-91de-e42107cc273e"",""projectId"":""e622c465-ee29-4445-8260-1f3431e06587""}","https://test12345.live/?participantId=C5C734EB86A040C3839EDDD1E76719BE&assignmentId=12c8e4b9-79a5-485e-91de-e42107cc273e&projectId=e622c465-ee29-4445-8260-1f3431e06587","","699","
    <div style=""display: flex; justify-content: center; align-items: center;"">
      <img src=""images/blue_deck_1.png"" style=""width: 300px; height: 300px; margin-right: 10px;"" />
      <img src=""images/red_deck_2.png"" style=""width: 300px; height: 300px;"" />
    </div>","1","1",""
"","","","","","html-keyboard-response","48","124617","0.0-37.0-0.0","C5C734EB86A040C3839EDDD1E76719BE","C5C734EB86A040C3839EDDD1E76719BE","12c8e4b9-79a5-485e-91de-e42107cc273e","e622c465-ee29-4445-8260-1f3431e06587","{""participantId"":""C5C734EB86A040C3839EDDD1E76719BE"",""assignmentId"":""12c8e4b9-79a5-485e-91de-e42107cc273e"",""projectId"":""e622c465-ee29-4445-8260-1f3431e06587""}","https://test12345.live/?participantId=C5C734EB86A040C3839EDDD1E76719BE&assignmentId=12c8e4b9-79a5-485e-91de-e42107cc273e&projectId=e622c465-ee29-4445-8260-1f3431e06587","","null","<div style=""display: flex; justify-content: center; align-items: center;"">
                    <img src=""images/semantic/semantic_series_2/semantic_series_2_a.jpg"" style=""width: 300px; height: 300px;"" />
                  </div>","null","",""
"","","","","","html-keyboard-response","49","127632","0.0-37.0-1.0","C5C734EB86A040C3839EDDD1E76719BE","C5C734EB86A040C3839EDDD1E76719BE","12c8e4b9-79a5-485e-91de-e42107cc273e","e622c465-ee29-4445-8260-1f3431e06587","{""participantId"":""C5C734EB86A040C3839EDDD1E76719BE"",""assignmentId"":""12c8e4b9-79a5-485e-91de-e42107cc273e"",""projectId"":""e622c465-ee29-4445-8260-1f3431e06587""}","https://test12345.live/?participantId=C5C734EB86A040C3839EDDD1E76719BE&assignmentId=12c8e4b9-79a5-485e-91de-e42107cc273e&projectId=e622c465-ee29-4445-8260-1f3431e06587","","null","<div style=""display: flex; justify-content: center; align-items: center;"">
                    <img src=""images/semantic/semantic_series_2/semantic_series_2_b.jpg"" style=""width: 300px; height: 300px;"" />
                  </div>","null","",""
"","","","","","html-keyboard-response","50","130645","0.0-37.0-2.0","C5C734EB86A040C3839EDDD1E76719BE","C5C734EB86A040C3839EDDD1E76719BE","12c8e4b9-79a5-485e-91de-e42107cc273e","e622c465-ee29-4445-8260-1f3431e06587","{""participantId"":""C5C734EB86A040C3839EDDD1E76719BE"",""assignmentId"":""12c8e4b9-79a5-485e-91de-e42107cc273e"",""projectId"":""e622c465-ee29-4445-8260-1f3431e06587""}","https://test12345.live/?participantId=C5C734EB86A040C3839EDDD1E76719BE&assignmentId=12c8e4b9-79a5-485e-91de-e42107cc273e&projectId=e622c465-ee29-4445-8260-1f3431e06587","","null","<div style=""display: flex; justify-content: center; align-items: center;"">
                    <img src=""images/semantic/semantic_series_2/semantic_series_2_c.jpg"" style=""width: 300px; height: 300px;"" />
                  </div>","null","",""
"","","","","","html-keyboard-response","51","133655","0.0-37.0-3.0","C5C734EB86A040C3839EDDD1E76719BE","C5C734EB86A040C3839EDDD1E76719BE","12c8e4b9-79a5-485e-91de-e42107cc273e","e622c465-ee29-4445-8260-1f3431e06587","{""participantId"":""C5C734EB86A040C3839EDDD1E76719BE"",""assignmentId"":""12c8e4b9-79a5-485e-91de-e42107cc273e"",""projectId"":""e622c465-ee29-4445-8260-1f3431e06587""}","https://test12345.live/?participantId=C5C734EB86A040C3839EDDD1E76719BE&assignmentId=12c8e4b9-79a5-485e-91de-e42107cc273e&projectId=e622c465-ee29-4445-8260-1f3431e06587","","null","<div style=""display: flex; justify-content: center; align-items: center;"">
                    <img src=""images/semantic/semantic_series_2/semantic_series_2_d.jpg"" style=""width: 300px; height: 300px;"" />
                  </div>","null","",""
"","","","","","html-button-response","52","136445","0.0-38.0","C5C734EB86A040C3839EDDD1E76719BE","C5C734EB86A040C3839EDDD1E76719BE","12c8e4b9-79a5-485e-91de-e42107cc273e","e622c465-ee29-4445-8260-1f3431e06587","{""participantId"":""C5C734EB86A040C3839EDDD1E76719BE"",""assignmentId"":""12c8e4b9-79a5-485e-91de-e42107cc273e"",""projectId"":""e622c465-ee29-4445-8260-1f3431e06587""}","https://test12345.live/?participantId=C5C734EB86A040C3839EDDD1E76719BE&assignmentId=12c8e4b9-79a5-485e-91de-e42107cc273e&projectId=e622c465-ee29-4445-8260-1f3431e06587","","2790","Was there a person in the picture?","0","",""
"","","","","","survey-likert","53","138587","0.0-39.0","C5C734EB86A040C3839EDDD1E76719BE","C5C734EB86A040C3839EDDD1E76719BE","12c8e4b9-79a5-485e-91de-e42107cc273e","e622c465-ee29-4445-8260-1f3431e06587","{""participantId"":""C5C734EB86A040C3839EDDD1E76719BE"",""assignmentId"":""12c8e4b9-79a5-485e-91de-e42107cc273e"",""projectId"":""e622c465-ee29-4445-8260-1f3431e06587""}","https://test12345.live/?participantId=C5C734EB86A040C3839EDDD1E76719BE&assignmentId=12c8e4b9-79a5-485e-91de-e42107cc273e&projectId=e622c465-ee29-4445-8260-1f3431e06587","","2142","","{""Q0"":2}","","[0]"
"","","","","","html-button-response","54","139453","0.0-40.0","C5C734EB86A040C3839EDDD1E76719BE","C5C734EB86A040C3839EDDD1E76719BE","12c8e4b9-79a5-485e-91de-e42107cc273e","e622c465-ee29-4445-8260-1f3431e06587","{""participantId"":""C5C734EB86A040C3839EDDD1E76719BE"",""assignmentId"":""12c8e4b9-79a5-485e-91de-e42107cc273e"",""projectId"":""e622c465-ee29-4445-8260-1f3431e06587""}","https://test12345.live/?participantId=C5C734EB86A040C3839EDDD1E76719BE&assignmentId=12c8e4b9-79a5-485e-91de-e42107cc273e&projectId=e622c465-ee29-4445-8260-1f3431e06587","","865","
    <div style=""display: flex; justify-content: center; align-items: center;"">
      <img src=""images/blue_deck_1.png"" style=""width: 300px; height: 300px; margin-right: 10px;"" />
      <img src=""images/red_deck_2.png"" style=""width: 300px; height: 300px;"" />
    </div>","1","1",""
"","","","","","html-keyboard-response","55","142463","0.0-42.0-0.0","C5C734EB86A040C3839EDDD1E76719BE","C5C734EB86A040C3839EDDD1E76719BE","12c8e4b9-79a5-485e-91de-e42107cc273e","e622c465-ee29-4445-8260-1f3431e06587","{""participantId"":""C5C734EB86A040C3839EDDD1E76719BE"",""assignmentId"":""12c8e4b9-79a5-485e-91de-e42107cc273e"",""projectId"":""e622c465-ee29-4445-8260-1f3431e06587""}","https://test12345.live/?participantId=C5C734EB86A040C3839EDDD1E76719BE&assignmentId=12c8e4b9-79a5-485e-91de-e42107cc273e&projectId=e622c465-ee29-4445-8260-1f3431e06587","","null","<div style=""display: flex; justify-content: center; align-items: center;"">
                    <img src=""images/semantic/semantic_series_12/semantic_series_12_a.jpg"" style=""width: 300px; height: 300px;"" />
                  </div>","null","",""
"","","","","","html-keyboard-response","56","145474","0.0-42.0-1.0","C5C734EB86A040C3839EDDD1E76719BE","C5C734EB86A040C3839EDDD1E76719BE","12c8e4b9-79a5-485e-91de-e42107cc273e","e622c465-ee29-4445-8260-1f3431e06587","{""participantId"":""C5C734EB86A040C3839EDDD1E76719BE"",""assignmentId"":""12c8e4b9-79a5-485e-91de-e42107cc273e"",""projectId"":""e622c465-ee29-4445-8260-1f3431e06587""}","https://test12345.live/?participantId=C5C734EB86A040C3839EDDD1E76719BE&assignmentId=12c8e4b9-79a5-485e-91de-e42107cc273e&projectId=e622c465-ee29-4445-8260-1f3431e06587","","null","<div style=""display: flex; justify-content: center; align-items: center;"">
                    <img src=""images/semantic/semantic_series_12/semantic_series_12_b.jpg"" style=""width: 300px; height: 300px;"" />
                  </div>","null","",""
"","","","","","html-keyboard-response","57","148489","0.0-42.0-2.0","C5C734EB86A040C3839EDDD1E76719BE","C5C734EB86A040C3839EDDD1E76719BE","12c8e4b9-79a5-485e-91de-e42107cc273e","e622c465-ee29-4445-8260-1f3431e06587","{""participantId"":""C5C734EB86A040C3839EDDD1E76719BE"",""assignmentId"":""12c8e4b9-79a5-485e-91de-e42107cc273e"",""projectId"":""e622c465-ee29-4445-8260-1f3431e06587""}","https://test12345.live/?participantId=C5C734EB86A040C3839EDDD1E76719BE&assignmentId=12c8e4b9-79a5-485e-91de-e42107cc273e&projectId=e622c465-ee29-4445-8260-1f3431e06587","","null","<div style=""display: flex; justify-content: center; align-items: center;"">
                    <img src=""images/semantic/semantic_series_12/semantic_series_12_c.jpg"" style=""width: 300px; height: 300px;"" />
                  </div>","null","",""
"","","","","","html-keyboard-response","58","151495","0.0-42.0-3.0","C5C734EB86A040C3839EDDD1E76719BE","C5C734EB86A040C3839EDDD1E76719BE","12c8e4b9-79a5-485e-91de-e42107cc273e","e622c465-ee29-4445-8260-1f3431e06587","{""participantId"":""C5C734EB86A040C3839EDDD1E76719BE"",""assignmentId"":""12c8e4b9-79a5-485e-91de-e42107cc273e"",""projectId"":""e622c465-ee29-4445-8260-1f3431e06587""}","https://test12345.live/?participantId=C5C734EB86A040C3839EDDD1E76719BE&assignmentId=12c8e4b9-79a5-485e-91de-e42107cc273e&projectId=e622c465-ee29-4445-8260-1f3431e06587","","null","<div style=""display: flex; justify-content: center; align-items: center;"">
                    <img src=""images/semantic/semantic_series_12/semantic_series_12_d.jpg"" style=""width: 300px; height: 300px;"" />
                  </div>","null","",""
"","","","","","html-button-response","59","152547","0.0-43.0","C5C734EB86A040C3839EDDD1E76719BE","C5C734EB86A040C3839EDDD1E76719BE","12c8e4b9-79a5-485e-91de-e42107cc273e","e622c465-ee29-4445-8260-1f3431e06587","{""participantId"":""C5C734EB86A040C3839EDDD1E76719BE"",""assignmentId"":""12c8e4b9-79a5-485e-91de-e42107cc273e"",""projectId"":""e622c465-ee29-4445-8260-1f3431e06587""}","https://test12345.live/?participantId=C5C734EB86A040C3839EDDD1E76719BE&assignmentId=12c8e4b9-79a5-485e-91de-e42107cc273e&projectId=e622c465-ee29-4445-8260-1f3431e06587","","1051","Was there a person in the picture?","1","",""
"","","","","","survey-likert","60","153941","0.0-44.0","C5C734EB86A040C3839EDDD1E76719BE","C5C734EB86A040C3839EDDD1E76719BE","12c8e4b9-79a5-485e-91de-e42107cc273e","e622c465-ee29-4445-8260-1f3431e06587","{""participantId"":""C5C734EB86A040C3839EDDD1E76719BE"",""assignmentId"":""12c8e4b9-79a5-485e-91de-e42107cc273e"",""projectId"":""e622c465-ee29-4445-8260-1f3431e06587""}","https://test12345.live/?participantId=C5C734EB86A040C3839EDDD1E76719BE&assignmentId=12c8e4b9-79a5-485e-91de-e42107cc273e&projectId=e622c465-ee29-4445-8260-1f3431e06587","","1394","","{""Q0"":1}","","[0]"
"","","","","","html-button-response","61","154868","0.0-45.0","C5C734EB86A040C3839EDDD1E76719BE","C5C734EB86A040C3839EDDD1E76719BE","12c8e4b9-79a5-485e-91de-e42107cc273e","e622c465-ee29-4445-8260-1f3431e06587","{""participantId"":""C5C734EB86A040C3839EDDD1E76719BE"",""assignmentId"":""12c8e4b9-79a5-485e-91de-e42107cc273e"",""projectId"":""e622c465-ee29-4445-8260-1f3431e06587""}","https://test12345.live/?participantId=C5C734EB86A040C3839EDDD1E76719BE&assignmentId=12c8e4b9-79a5-485e-91de-e42107cc273e&projectId=e622c465-ee29-4445-8260-1f3431e06587","","926","
    <div style=""display: flex; justify-content: center; align-items: center;"">
      <img src=""images/blue_deck_1.png"" style=""width: 300px; height: 300px; margin-right: 10px;"" />
      <img src=""images/red_deck_2.png"" style=""width: 300px; height: 300px;"" />
    </div>","1","1",""
"","","","","","html-keyboard-response","62","157874","0.0-47.0-0.0","C5C734EB86A040C3839EDDD1E76719BE","C5C734EB86A040C3839EDDD1E76719BE","12c8e4b9-79a5-485e-91de-e42107cc273e","e622c465-ee29-4445-8260-1f3431e06587","{""participantId"":""C5C734EB86A040C3839EDDD1E76719BE"",""assignmentId"":""12c8e4b9-79a5-485e-91de-e42107cc273e"",""projectId"":""e622c465-ee29-4445-8260-1f3431e06587""}","https://test12345.live/?participantId=C5C734EB86A040C3839EDDD1E76719BE&assignmentId=12c8e4b9-79a5-485e-91de-e42107cc273e&projectId=e622c465-ee29-4445-8260-1f3431e06587","","null","<div style=""display: flex; justify-content: center; align-items: center;"">
                    <img src=""images/semantic/semantic_series_17/semantic_series_17_a.jpg"" style=""width: 300px; height: 300px;"" />
                  </div>","null","",""
"","","","","","html-keyboard-response","63","160884","0.0-47.0-1.0","C5C734EB86A040C3839EDDD1E76719BE","C5C734EB86A040C3839EDDD1E76719BE","12c8e4b9-79a5-485e-91de-e42107cc273e","e622c465-ee29-4445-8260-1f3431e06587","{""participantId"":""C5C734EB86A040C3839EDDD1E76719BE"",""assignmentId"":""12c8e4b9-79a5-485e-91de-e42107cc273e"",""projectId"":""e622c465-ee29-4445-8260-1f3431e06587""}","https://test12345.live/?participantId=C5C734EB86A040C3839EDDD1E76719BE&assignmentId=12c8e4b9-79a5-485e-91de-e42107cc273e&projectId=e622c465-ee29-4445-8260-1f3431e06587","","null","<div style=""display: flex; justify-content: center; align-items: center;"">
                    <img src=""images/semantic/semantic_series_17/semantic_series_17_b.jpg"" style=""width: 300px; height: 300px;"" />
                  </div>","null","",""
"","","","","","html-keyboard-response","64","163895","0.0-47.0-2.0","C5C734EB86A040C3839EDDD1E76719BE","C5C734EB86A040C3839EDDD1E76719BE","12c8e4b9-79a5-485e-91de-e42107cc273e","e622c465-ee29-4445-8260-1f3431e06587","{""participantId"":""C5C734EB86A040C3839EDDD1E76719BE"",""assignmentId"":""12c8e4b9-79a5-485e-91de-e42107cc273e"",""projectId"":""e622c465-ee29-4445-8260-1f3431e06587""}","https://test12345.live/?participantId=C5C734EB86A040C3839EDDD1E76719BE&assignmentId=12c8e4b9-79a5-485e-91de-e42107cc273e&projectId=e622c465-ee29-4445-8260-1f3431e06587","","null","<div style=""display: flex; justify-content: center; align-items: center;"">
                    <img src=""images/semantic/semantic_series_17/semantic_series_17_c.jpg"" style=""width: 300px; height: 300px;"" />
                  </div>","null","",""
"","","","","","html-keyboard-response","65","166903","0.0-47.0-3.0","C5C734EB86A040C3839EDDD1E76719BE","C5C734EB86A040C3839EDDD1E76719BE","12c8e4b9-79a5-485e-91de-e42107cc273e","e622c465-ee29-4445-8260-1f3431e06587","{""participantId"":""C5C734EB86A040C3839EDDD1E76719BE"",""assignmentId"":""12c8e4b9-79a5-485e-91de-e42107cc273e"",""projectId"":""e622c465-ee29-4445-8260-1f3431e06587""}","https://test12345.live/?participantId=C5C734EB86A040C3839EDDD1E76719BE&assignmentId=12c8e4b9-79a5-485e-91de-e42107cc273e&projectId=e622c465-ee29-4445-8260-1f3431e06587","","null","<div style=""display: flex; justify-content: center; align-items: center;"">
                    <img src=""images/semantic/semantic_series_17/semantic_series_17_d.jpg"" style=""width: 300px; height: 300px;"" />
                  </div>","null","",""
"","","","","","html-button-response","66","230708","0.0-48.0","C5C734EB86A040C3839EDDD1E76719BE","C5C734EB86A040C3839EDDD1E76719BE","12c8e4b9-79a5-485e-91de-e42107cc273e","e622c465-ee29-4445-8260-1f3431e06587","{""participantId"":""C5C734EB86A040C3839EDDD1E76719BE"",""assignmentId"":""12c8e4b9-79a5-485e-91de-e42107cc273e"",""projectId"":""e622c465-ee29-4445-8260-1f3431e06587""}","https://test12345.live/?participantId=C5C734EB86A040C3839EDDD1E76719BE&assignmentId=12c8e4b9-79a5-485e-91de-e42107cc273e&projectId=e622c465-ee29-4445-8260-1f3431e06587","","63804","Was there a person in the picture?","0","",""
"","","","","","survey-likert","67","231738","0.0-49.0","C5C734EB86A040C3839EDDD1E76719BE","C5C734EB86A040C3839EDDD1E76719BE","12c8e4b9-79a5-485e-91de-e42107cc273e","e622c465-ee29-4445-8260-1f3431e06587","{""participantId"":""C5C734EB86A040C3839EDDD1E76719BE"",""assignmentId"":""12c8e4b9-79a5-485e-91de-e42107cc273e"",""projectId"":""e622c465-ee29-4445-8260-1f3431e06587""}","https://test12345.live/?participantId=C5C734EB86A040C3839EDDD1E76719BE&assignmentId=12c8e4b9-79a5-485e-91de-e42107cc273e&projectId=e622c465-ee29-4445-8260-1f3431e06587","","1030","","{""Q0"":1}","","[0]"
"","","","","","html-button-response","68","233296","0.0-50.0","C5C734EB86A040C3839EDDD1E76719BE","C5C734EB86A040C3839EDDD1E76719BE","12c8e4b9-79a5-485e-91de-e42107cc273e","e622c465-ee29-4445-8260-1f3431e06587","{""participantId"":""C5C734EB86A040C3839EDDD1E76719BE"",""assignmentId"":""12c8e4b9-79a5-485e-91de-e42107cc273e"",""projectId"":""e622c465-ee29-4445-8260-1f3431e06587""}","https://test12345.live/?participantId=C5C734EB86A040C3839EDDD1E76719BE&assignmentId=12c8e4b9-79a5-485e-91de-e42107cc273e&projectId=e622c465-ee29-4445-8260-1f3431e06587","","1557","
    <div style=""display: flex; justify-content: center; align-items: center;"">
      <img src=""images/blue_deck_1.png"" style=""width: 300px; height: 300px; margin-right: 10px;"" />
      <img src=""images/red_deck_2.png"" style=""width: 300px; height: 300px;"" />
    </div>","1","1",""
"","","","","","html-keyboard-response","69","236304","0.0-52.0-0.0","C5C734EB86A040C3839EDDD1E76719BE","C5C734EB86A040C3839EDDD1E76719BE","12c8e4b9-79a5-485e-91de-e42107cc273e","e622c465-ee29-4445-8260-1f3431e06587","{""participantId"":""C5C734EB86A040C3839EDDD1E76719BE"",""assignmentId"":""12c8e4b9-79a5-485e-91de-e42107cc273e"",""projectId"":""e622c465-ee29-4445-8260-1f3431e06587""}","https://test12345.live/?participantId=C5C734EB86A040C3839EDDD1E76719BE&assignmentId=12c8e4b9-79a5-485e-91de-e42107cc273e&projectId=e622c465-ee29-4445-8260-1f3431e06587","","null","<div style=""display: flex; justify-content: center; align-items: center;"">
                    <img src=""images/semantic/semantic_series_8/semantic_series_8_a.jpg"" style=""width: 300px; height: 300px;"" />
                  </div>","null","",""
"","","","","","html-keyboard-response","70","239321","0.0-52.0-1.0","C5C734EB86A040C3839EDDD1E76719BE","C5C734EB86A040C3839EDDD1E76719BE","12c8e4b9-79a5-485e-91de-e42107cc273e","e622c465-ee29-4445-8260-1f3431e06587","{""participantId"":""C5C734EB86A040C3839EDDD1E76719BE"",""assignmentId"":""12c8e4b9-79a5-485e-91de-e42107cc273e"",""projectId"":""e622c465-ee29-4445-8260-1f3431e06587""}","https://test12345.live/?participantId=C5C734EB86A040C3839EDDD1E76719BE&assignmentId=12c8e4b9-79a5-485e-91de-e42107cc273e&projectId=e622c465-ee29-4445-8260-1f3431e06587","","null","<div style=""display: flex; justify-content: center; align-items: center;"">
                    <img src=""images/semantic/semantic_series_8/semantic_series_8_b.jpg"" style=""width: 300px; height: 300px;"" />
                  </div>","null","",""
"","","","","","html-keyboard-response","71","242336","0.0-52.0-2.0","C5C734EB86A040C3839EDDD1E76719BE","C5C734EB86A040C3839EDDD1E76719BE","12c8e4b9-79a5-485e-91de-e42107cc273e","e622c465-ee29-4445-8260-1f3431e06587","{""participantId"":""C5C734EB86A040C3839EDDD1E76719BE"",""assignmentId"":""12c8e4b9-79a5-485e-91de-e42107cc273e"",""projectId"":""e622c465-ee29-4445-8260-1f3431e06587""}","https://test12345.live/?participantId=C5C734EB86A040C3839EDDD1E76719BE&assignmentId=12c8e4b9-79a5-485e-91de-e42107cc273e&projectId=e622c465-ee29-4445-8260-1f3431e06587","","null","<div style=""display: flex; justify-content: center; align-items: center;"">
                    <img src=""images/semantic/semantic_series_8/semantic_series_8_c.jpg"" style=""width: 300px; height: 300px;"" />
                  </div>","null","",""
"","","","","","html-keyboard-response","72","245341","0.0-52.0-3.0","C5C734EB86A040C3839EDDD1E76719BE","C5C734EB86A040C3839EDDD1E76719BE","12c8e4b9-79a5-485e-91de-e42107cc273e","e622c465-ee29-4445-8260-1f3431e06587","{""participantId"":""C5C734EB86A040C3839EDDD1E76719BE"",""assignmentId"":""12c8e4b9-79a5-485e-91de-e42107cc273e"",""projectId"":""e622c465-ee29-4445-8260-1f3431e06587""}","https://test12345.live/?participantId=C5C734EB86A040C3839EDDD1E76719BE&assignmentId=12c8e4b9-79a5-485e-91de-e42107cc273e&projectId=e622c465-ee29-4445-8260-1f3431e06587","","null","<div style=""display: flex; justify-content: center; align-items: center;"">
                    <img src=""images/semantic/semantic_series_8/semantic_series_8_d.jpg"" style=""width: 300px; height: 300px;"" />
                  </div>","null","",""
"","","","","","html-button-response","73","247623","0.0-53.0","C5C734EB86A040C3839EDDD1E76719BE","C5C734EB86A040C3839EDDD1E76719BE","12c8e4b9-79a5-485e-91de-e42107cc273e","e622c465-ee29-4445-8260-1f3431e06587","{""participantId"":""C5C734EB86A040C3839EDDD1E76719BE"",""assignmentId"":""12c8e4b9-79a5-485e-91de-e42107cc273e"",""projectId"":""e622c465-ee29-4445-8260-1f3431e06587""}","https://test12345.live/?participantId=C5C734EB86A040C3839EDDD1E76719BE&assignmentId=12c8e4b9-79a5-485e-91de-e42107cc273e&projectId=e622c465-ee29-4445-8260-1f3431e06587","","2281","Was there a person in the picture?","1","",""
"","","","","","survey-likert","74","249545","0.0-54.0","C5C734EB86A040C3839EDDD1E76719BE","C5C734EB86A040C3839EDDD1E76719BE","12c8e4b9-79a5-485e-91de-e42107cc273e","e622c465-ee29-4445-8260-1f3431e06587","{""participantId"":""C5C734EB86A040C3839EDDD1E76719BE"",""assignmentId"":""12c8e4b9-79a5-485e-91de-e42107cc273e"",""projectId"":""e622c465-ee29-4445-8260-1f3431e06587""}","https://test12345.live/?participantId=C5C734EB86A040C3839EDDD1E76719BE&assignmentId=12c8e4b9-79a5-485e-91de-e42107cc273e&projectId=e622c465-ee29-4445-8260-1f3431e06587","","1921","","{""Q0"":1}","","[0]"
"","","","","","html-button-response","75","250160","0.0-55.0","C5C734EB86A040C3839EDDD1E76719BE","C5C734EB86A040C3839EDDD1E76719BE","12c8e4b9-79a5-485e-91de-e42107cc273e","e622c465-ee29-4445-8260-1f3431e06587","{""participantId"":""C5C734EB86A040C3839EDDD1E76719BE"",""assignmentId"":""12c8e4b9-79a5-485e-91de-e42107cc273e"",""projectId"":""e622c465-ee29-4445-8260-1f3431e06587""}","https://test12345.live/?participantId=C5C734EB86A040C3839EDDD1E76719BE&assignmentId=12c8e4b9-79a5-485e-91de-e42107cc273e&projectId=e622c465-ee29-4445-8260-1f3431e06587","","614","
    <div style=""display: flex; justify-content: center; align-items: center;"">
      <img src=""images/blue_deck_1.png"" style=""width: 300px; height: 300px; margin-right: 10px;"" />
      <img src=""images/red_deck_2.png"" style=""width: 300px; height: 300px;"" />
    </div>","1","1",""
"","","","","","html-keyboard-response","76","253164","0.0-57.0-0.0","C5C734EB86A040C3839EDDD1E76719BE","C5C734EB86A040C3839EDDD1E76719BE","12c8e4b9-79a5-485e-91de-e42107cc273e","e622c465-ee29-4445-8260-1f3431e06587","{""participantId"":""C5C734EB86A040C3839EDDD1E76719BE"",""assignmentId"":""12c8e4b9-79a5-485e-91de-e42107cc273e"",""projectId"":""e622c465-ee29-4445-8260-1f3431e06587""}","https://test12345.live/?participantId=C5C734EB86A040C3839EDDD1E76719BE&assignmentId=12c8e4b9-79a5-485e-91de-e42107cc273e&projectId=e622c465-ee29-4445-8260-1f3431e06587","","null","<div style=""display: flex; justify-content: center; align-items: center;"">
                    <img src=""images/semantic/semantic_series_18/semantic_series_18_a.jpg"" style=""width: 300px; height: 300px;"" />
                  </div>","null","",""
"","","","","","html-keyboard-response","77","256177","0.0-57.0-1.0","C5C734EB86A040C3839EDDD1E76719BE","C5C734EB86A040C3839EDDD1E76719BE","12c8e4b9-79a5-485e-91de-e42107cc273e","e622c465-ee29-4445-8260-1f3431e06587","{""participantId"":""C5C734EB86A040C3839EDDD1E76719BE"",""assignmentId"":""12c8e4b9-79a5-485e-91de-e42107cc273e"",""projectId"":""e622c465-ee29-4445-8260-1f3431e06587""}","https://test12345.live/?participantId=C5C734EB86A040C3839EDDD1E76719BE&assignmentId=12c8e4b9-79a5-485e-91de-e42107cc273e&projectId=e622c465-ee29-4445-8260-1f3431e06587","","null","<div style=""display: flex; justify-content: center; align-items: center;"">
                    <img src=""images/semantic/semantic_series_18/semantic_series_18_b.jpg"" style=""width: 300px; height: 300px;"" />
                  </div>","null","",""
"","","","","","html-keyboard-response","78","259180","0.0-57.0-2.0","C5C734EB86A040C3839EDDD1E76719BE","C5C734EB86A040C3839EDDD1E76719BE","12c8e4b9-79a5-485e-91de-e42107cc273e","e622c465-ee29-4445-8260-1f3431e06587","{""participantId"":""C5C734EB86A040C3839EDDD1E76719BE"",""assignmentId"":""12c8e4b9-79a5-485e-91de-e42107cc273e"",""projectId"":""e622c465-ee29-4445-8260-1f3431e06587""}","https://test12345.live/?participantId=C5C734EB86A040C3839EDDD1E76719BE&assignmentId=12c8e4b9-79a5-485e-91de-e42107cc273e&projectId=e622c465-ee29-4445-8260-1f3431e06587","","null","<div style=""display: flex; justify-content: center; align-items: center;"">
                    <img src=""images/semantic/semantic_series_18/semantic_series_18_c.jpg"" style=""width: 300px; height: 300px;"" />
                  </div>","null","",""
"","","","","","html-keyboard-response","79","262189","0.0-57.0-3.0","C5C734EB86A040C3839EDDD1E76719BE","C5C734EB86A040C3839EDDD1E76719BE","12c8e4b9-79a5-485e-91de-e42107cc273e","e622c465-ee29-4445-8260-1f3431e06587","{""participantId"":""C5C734EB86A040C3839EDDD1E76719BE"",""assignmentId"":""12c8e4b9-79a5-485e-91de-e42107cc273e"",""projectId"":""e622c465-ee29-4445-8260-1f3431e06587""}","https://test12345.live/?participantId=C5C734EB86A040C3839EDDD1E76719BE&assignmentId=12c8e4b9-79a5-485e-91de-e42107cc273e&projectId=e622c465-ee29-4445-8260-1f3431e06587","","null","<div style=""display: flex; justify-content: center; align-items: center;"">
                    <img src=""images/semantic/semantic_series_18/semantic_series_18_d.jpg"" style=""width: 300px; height: 300px;"" />
                  </div>","null","",""
"","","","","","html-button-response","80","263808","0.0-58.0","C5C734EB86A040C3839EDDD1E76719BE","C5C734EB86A040C3839EDDD1E76719BE","12c8e4b9-79a5-485e-91de-e42107cc273e","e622c465-ee29-4445-8260-1f3431e06587","{""participantId"":""C5C734EB86A040C3839EDDD1E76719BE"",""assignmentId"":""12c8e4b9-79a5-485e-91de-e42107cc273e"",""projectId"":""e622c465-ee29-4445-8260-1f3431e06587""}","https://test12345.live/?participantId=C5C734EB86A040C3839EDDD1E76719BE&assignmentId=12c8e4b9-79a5-485e-91de-e42107cc273e&projectId=e622c465-ee29-4445-8260-1f3431e06587","","1619","Was there a person in the picture?","1","",""
"","","","","","survey-likert","81","267697","0.0-59.0","C5C734EB86A040C3839EDDD1E76719BE","C5C734EB86A040C3839EDDD1E76719BE","12c8e4b9-79a5-485e-91de-e42107cc273e","e622c465-ee29-4445-8260-1f3431e06587","{""participantId"":""C5C734EB86A040C3839EDDD1E76719BE"",""assignmentId"":""12c8e4b9-79a5-485e-91de-e42107cc273e"",""projectId"":""e622c465-ee29-4445-8260-1f3431e06587""}","https://test12345.live/?participantId=C5C734EB86A040C3839EDDD1E76719BE&assignmentId=12c8e4b9-79a5-485e-91de-e42107cc273e&projectId=e622c465-ee29-4445-8260-1f3431e06587","","3888","","{""Q0"":1}","","[0]"
"","","","","","html-button-response","82","268660","0.0-60.0","C5C734EB86A040C3839EDDD1E76719BE","C5C734EB86A040C3839EDDD1E76719BE","12c8e4b9-79a5-485e-91de-e42107cc273e","e622c465-ee29-4445-8260-1f3431e06587","{""participantId"":""C5C734EB86A040C3839EDDD1E76719BE"",""assignmentId"":""12c8e4b9-79a5-485e-91de-e42107cc273e"",""projectId"":""e622c465-ee29-4445-8260-1f3431e06587""}","https://test12345.live/?participantId=C5C734EB86A040C3839EDDD1E76719BE&assignmentId=12c8e4b9-79a5-485e-91de-e42107cc273e&projectId=e622c465-ee29-4445-8260-1f3431e06587","","962","
    <div style=""display: flex; justify-content: center; align-items: center;"">
      <img src=""images/blue_deck_1.png"" style=""width: 300px; height: 300px; margin-right: 10px;"" />
      <img src=""images/red_deck_2.png"" style=""width: 300px; height: 300px;"" />
    </div>","0","0",""
"","","","","","html-keyboard-response","83","271660","0.0-61.0-0.0","C5C734EB86A040C3839EDDD1E76719BE","C5C734EB86A040C3839EDDD1E76719BE","12c8e4b9-79a5-485e-91de-e42107cc273e","e622c465-ee29-4445-8260-1f3431e06587","{""participantId"":""C5C734EB86A040C3839EDDD1E76719BE"",""assignmentId"":""12c8e4b9-79a5-485e-91de-e42107cc273e"",""projectId"":""e622c465-ee29-4445-8260-1f3431e06587""}","https://test12345.live/?participantId=C5C734EB86A040C3839EDDD1E76719BE&assignmentId=12c8e4b9-79a5-485e-91de-e42107cc273e&projectId=e622c465-ee29-4445-8260-1f3431e06587","","null","<div style=""display: flex; justify-content: center; align-items: center;"">
                    <img src=""images/causal/causal_series_8/causal_series_8_a.jpg"" style=""width: 300px; height: 300px;"" />
                  </div>","null","",""
"","","","","","html-keyboard-response","84","274667","0.0-61.0-1.0","C5C734EB86A040C3839EDDD1E76719BE","C5C734EB86A040C3839EDDD1E76719BE","12c8e4b9-79a5-485e-91de-e42107cc273e","e622c465-ee29-4445-8260-1f3431e06587","{""participantId"":""C5C734EB86A040C3839EDDD1E76719BE"",""assignmentId"":""12c8e4b9-79a5-485e-91de-e42107cc273e"",""projectId"":""e622c465-ee29-4445-8260-1f3431e06587""}","https://test12345.live/?participantId=C5C734EB86A040C3839EDDD1E76719BE&assignmentId=12c8e4b9-79a5-485e-91de-e42107cc273e&projectId=e622c465-ee29-4445-8260-1f3431e06587","","null","<div style=""display: flex; justify-content: center; align-items: center;"">
                    <img src=""images/causal/causal_series_8/causal_series_8_b.jpg"" style=""width: 300px; height: 300px;"" />
                  </div>","null","",""
"","","","","","html-keyboard-response","85","277669","0.0-61.0-2.0","C5C734EB86A040C3839EDDD1E76719BE","C5C734EB86A040C3839EDDD1E76719BE","12c8e4b9-79a5-485e-91de-e42107cc273e","e622c465-ee29-4445-8260-1f3431e06587","{""participantId"":""C5C734EB86A040C3839EDDD1E76719BE"",""assignmentId"":""12c8e4b9-79a5-485e-91de-e42107cc273e"",""projectId"":""e622c465-ee29-4445-8260-1f3431e06587""}","https://test12345.live/?participantId=C5C734EB86A040C3839EDDD1E76719BE&assignmentId=12c8e4b9-79a5-485e-91de-e42107cc273e&projectId=e622c465-ee29-4445-8260-1f3431e06587","","null","<div style=""display: flex; justify-content: center; align-items: center;"">
                    <img src=""images/causal/causal_series_8/causal_series_8_c.jpg"" style=""width: 300px; height: 300px;"" />
                  </div>","null","",""
"","","","","","html-keyboard-response","86","280678","0.0-61.0-3.0","C5C734EB86A040C3839EDDD1E76719BE","C5C734EB86A040C3839EDDD1E76719BE","12c8e4b9-79a5-485e-91de-e42107cc273e","e622c465-ee29-4445-8260-1f3431e06587","{""participantId"":""C5C734EB86A040C3839EDDD1E76719BE"",""assignmentId"":""12c8e4b9-79a5-485e-91de-e42107cc273e"",""projectId"":""e622c465-ee29-4445-8260-1f3431e06587""}","https://test12345.live/?participantId=C5C734EB86A040C3839EDDD1E76719BE&assignmentId=12c8e4b9-79a5-485e-91de-e42107cc273e&projectId=e622c465-ee29-4445-8260-1f3431e06587","","null","<div style=""display: flex; justify-content: center; align-items: center;"">
                    <img src=""images/causal/causal_series_8/causal_series_8_d.jpg"" style=""width: 300px; height: 300px;"" />
                  </div>","null","",""
"","","","","","html-button-response","87","281854","0.0-63.0","C5C734EB86A040C3839EDDD1E76719BE","C5C734EB86A040C3839EDDD1E76719BE","12c8e4b9-79a5-485e-91de-e42107cc273e","e622c465-ee29-4445-8260-1f3431e06587","{""participantId"":""C5C734EB86A040C3839EDDD1E76719BE"",""assignmentId"":""12c8e4b9-79a5-485e-91de-e42107cc273e"",""projectId"":""e622c465-ee29-4445-8260-1f3431e06587""}","https://test12345.live/?participantId=C5C734EB86A040C3839EDDD1E76719BE&assignmentId=12c8e4b9-79a5-485e-91de-e42107cc273e&projectId=e622c465-ee29-4445-8260-1f3431e06587","","1175","Was there a person in the picture?","0","",""
"","","","","","survey-likert","88","285394","0.0-64.0","C5C734EB86A040C3839EDDD1E76719BE","C5C734EB86A040C3839EDDD1E76719BE","12c8e4b9-79a5-485e-91de-e42107cc273e","e622c465-ee29-4445-8260-1f3431e06587","{""participantId"":""C5C734EB86A040C3839EDDD1E76719BE"",""assignmentId"":""12c8e4b9-79a5-485e-91de-e42107cc273e"",""projectId"":""e622c465-ee29-4445-8260-1f3431e06587""}","https://test12345.live/?participantId=C5C734EB86A040C3839EDDD1E76719BE&assignmentId=12c8e4b9-79a5-485e-91de-e42107cc273e&projectId=e622c465-ee29-4445-8260-1f3431e06587","","3540","","{""Q0"":3}","","[0]"
"","","","","","html-button-response","89","286328","0.0-65.0","C5C734EB86A040C3839EDDD1E76719BE","C5C734EB86A040C3839EDDD1E76719BE","12c8e4b9-79a5-485e-91de-e42107cc273e","e622c465-ee29-4445-8260-1f3431e06587","{""participantId"":""C5C734EB86A040C3839EDDD1E76719BE"",""assignmentId"":""12c8e4b9-79a5-485e-91de-e42107cc273e"",""projectId"":""e622c465-ee29-4445-8260-1f3431e06587""}","https://test12345.live/?participantId=C5C734EB86A040C3839EDDD1E76719BE&assignmentId=12c8e4b9-79a5-485e-91de-e42107cc273e&projectId=e622c465-ee29-4445-8260-1f3431e06587","","934","
    <div style=""display: flex; justify-content: center; align-items: center;"">
      <img src=""images/blue_deck_1.png"" style=""width: 300px; height: 300px; margin-right: 10px;"" />
      <img src=""images/red_deck_2.png"" style=""width: 300px; height: 300px;"" />
    </div>","0","0",""
"","","","","","html-keyboard-response","90","289336","0.0-66.0-0.0","C5C734EB86A040C3839EDDD1E76719BE","C5C734EB86A040C3839EDDD1E76719BE","12c8e4b9-79a5-485e-91de-e42107cc273e","e622c465-ee29-4445-8260-1f3431e06587","{""participantId"":""C5C734EB86A040C3839EDDD1E76719BE"",""assignmentId"":""12c8e4b9-79a5-485e-91de-e42107cc273e"",""projectId"":""e622c465-ee29-4445-8260-1f3431e06587""}","https://test12345.live/?participantId=C5C734EB86A040C3839EDDD1E76719BE&assignmentId=12c8e4b9-79a5-485e-91de-e42107cc273e&projectId=e622c465-ee29-4445-8260-1f3431e06587","","null","<div style=""display: flex; justify-content: center; align-items: center;"">
                    <img src=""images/causal/causal_series_9/causal_series_9_a.jpg"" style=""width: 300px; height: 300px;"" />
                  </div>","null","",""
"","","","","","html-keyboard-response","91","292349","0.0-66.0-1.0","C5C734EB86A040C3839EDDD1E76719BE","C5C734EB86A040C3839EDDD1E76719BE","12c8e4b9-79a5-485e-91de-e42107cc273e","e622c465-ee29-4445-8260-1f3431e06587","{""participantId"":""C5C734EB86A040C3839EDDD1E76719BE"",""assignmentId"":""12c8e4b9-79a5-485e-91de-e42107cc273e"",""projectId"":""e622c465-ee29-4445-8260-1f3431e06587""}","https://test12345.live/?participantId=C5C734EB86A040C3839EDDD1E76719BE&assignmentId=12c8e4b9-79a5-485e-91de-e42107cc273e&projectId=e622c465-ee29-4445-8260-1f3431e06587","","null","<div style=""display: flex; justify-content: center; align-items: center;"">
                    <img src=""images/causal/causal_series_9/causal_series_9_b.jpg"" style=""width: 300px; height: 300px;"" />
                  </div>","null","",""
"","","","","","html-keyboard-response","92","295351","0.0-66.0-2.0","C5C734EB86A040C3839EDDD1E76719BE","C5C734EB86A040C3839EDDD1E76719BE","12c8e4b9-79a5-485e-91de-e42107cc273e","e622c465-ee29-4445-8260-1f3431e06587","{""participantId"":""C5C734EB86A040C3839EDDD1E76719BE"",""assignmentId"":""12c8e4b9-79a5-485e-91de-e42107cc273e"",""projectId"":""e622c465-ee29-4445-8260-1f3431e06587""}","https://test12345.live/?participantId=C5C734EB86A040C3839EDDD1E76719BE&assignmentId=12c8e4b9-79a5-485e-91de-e42107cc273e&projectId=e622c465-ee29-4445-8260-1f3431e06587","","null","<div style=""display: flex; justify-content: center; align-items: center;"">
                    <img src=""images/causal/causal_series_9/causal_series_9_c.jpg"" style=""width: 300px; height: 300px;"" />
                  </div>","null","",""
"","","","","","html-keyboard-response","93","298358","0.0-66.0-3.0","C5C734EB86A040C3839EDDD1E76719BE","C5C734EB86A040C3839EDDD1E76719BE","12c8e4b9-79a5-485e-91de-e42107cc273e","e622c465-ee29-4445-8260-1f3431e06587","{""participantId"":""C5C734EB86A040C3839EDDD1E76719BE"",""assignmentId"":""12c8e4b9-79a5-485e-91de-e42107cc273e"",""projectId"":""e622c465-ee29-4445-8260-1f3431e06587""}","https://test12345.live/?participantId=C5C734EB86A040C3839EDDD1E76719BE&assignmentId=12c8e4b9-79a5-485e-91de-e42107cc273e&projectId=e622c465-ee29-4445-8260-1f3431e06587","","null","<div style=""display: flex; justify-content: center; align-items: center;"">
                    <img src=""images/causal/causal_series_9/causal_series_9_d.jpg"" style=""width: 300px; height: 300px;"" />
                  </div>","null","",""
"","","","","","html-button-response","94","301076","0.0-68.0","C5C734EB86A040C3839EDDD1E76719BE","C5C734EB86A040C3839EDDD1E76719BE","12c8e4b9-79a5-485e-91de-e42107cc273e","e622c465-ee29-4445-8260-1f3431e06587","{""participantId"":""C5C734EB86A040C3839EDDD1E76719BE"",""assignmentId"":""12c8e4b9-79a5-485e-91de-e42107cc273e"",""projectId"":""e622c465-ee29-4445-8260-1f3431e06587""}","https://test12345.live/?participantId=C5C734EB86A040C3839EDDD1E76719BE&assignmentId=12c8e4b9-79a5-485e-91de-e42107cc273e&projectId=e622c465-ee29-4445-8260-1f3431e06587","","2717","Was there a person in the picture?","1","",""
"","","","","","survey-likert","95","303012","0.0-69.0","C5C734EB86A040C3839EDDD1E76719BE","C5C734EB86A040C3839EDDD1E76719BE","12c8e4b9-79a5-485e-91de-e42107cc273e","e622c465-ee29-4445-8260-1f3431e06587","{""participantId"":""C5C734EB86A040C3839EDDD1E76719BE"",""assignmentId"":""12c8e4b9-79a5-485e-91de-e42107cc273e"",""projectId"":""e622c465-ee29-4445-8260-1f3431e06587""}","https://test12345.live/?participantId=C5C734EB86A040C3839EDDD1E76719BE&assignmentId=12c8e4b9-79a5-485e-91de-e42107cc273e&projectId=e622c465-ee29-4445-8260-1f3431e06587","","1936","","{""Q0"":1}","","[0]"
"","","","","","html-button-response","96","303841","0.0-70.0","C5C734EB86A040C3839EDDD1E76719BE","C5C734EB86A040C3839EDDD1E76719BE","12c8e4b9-79a5-485e-91de-e42107cc273e","e622c465-ee29-4445-8260-1f3431e06587","{""participantId"":""C5C734EB86A040C3839EDDD1E76719BE"",""assignmentId"":""12c8e4b9-79a5-485e-91de-e42107cc273e"",""projectId"":""e622c465-ee29-4445-8260-1f3431e06587""}","https://test12345.live/?participantId=C5C734EB86A040C3839EDDD1E76719BE&assignmentId=12c8e4b9-79a5-485e-91de-e42107cc273e&projectId=e622c465-ee29-4445-8260-1f3431e06587","","828","
    <div style=""display: flex; justify-content: center; align-items: center;"">
      <img src=""images/blue_deck_1.png"" style=""width: 300px; height: 300px; margin-right: 10px;"" />
      <img src=""images/red_deck_2.png"" style=""width: 300px; height: 300px;"" />
    </div>","0","0",""
"","","","","","html-keyboard-response","97","306843","0.0-71.0-0.0","C5C734EB86A040C3839EDDD1E76719BE","C5C734EB86A040C3839EDDD1E76719BE","12c8e4b9-79a5-485e-91de-e42107cc273e","e622c465-ee29-4445-8260-1f3431e06587","{""participantId"":""C5C734EB86A040C3839EDDD1E76719BE"",""assignmentId"":""12c8e4b9-79a5-485e-91de-e42107cc273e"",""projectId"":""e622c465-ee29-4445-8260-1f3431e06587""}","https://test12345.live/?participantId=C5C734EB86A040C3839EDDD1E76719BE&assignmentId=12c8e4b9-79a5-485e-91de-e42107cc273e&projectId=e622c465-ee29-4445-8260-1f3431e06587","","null","<div style=""display: flex; justify-content: center; align-items: center;"">
                    <img src=""images/causal/causal_series_5/causal_series_5_a.jpg"" style=""width: 300px; height: 300px;"" />
                  </div>","null","",""
"","","","","","html-keyboard-response","98","309849","0.0-71.0-1.0","C5C734EB86A040C3839EDDD1E76719BE","C5C734EB86A040C3839EDDD1E76719BE","12c8e4b9-79a5-485e-91de-e42107cc273e","e622c465-ee29-4445-8260-1f3431e06587","{""participantId"":""C5C734EB86A040C3839EDDD1E76719BE"",""assignmentId"":""12c8e4b9-79a5-485e-91de-e42107cc273e"",""projectId"":""e622c465-ee29-4445-8260-1f3431e06587""}","https://test12345.live/?participantId=C5C734EB86A040C3839EDDD1E76719BE&assignmentId=12c8e4b9-79a5-485e-91de-e42107cc273e&projectId=e622c465-ee29-4445-8260-1f3431e06587","","null","<div style=""display: flex; justify-content: center; align-items: center;"">
                    <img src=""images/causal/causal_series_5/causal_series_5_b.jpg"" style=""width: 300px; height: 300px;"" />
                  </div>","null","",""
"","","","","","html-keyboard-response","99","312851","0.0-71.0-2.0","C5C734EB86A040C3839EDDD1E76719BE","C5C734EB86A040C3839EDDD1E76719BE","12c8e4b9-79a5-485e-91de-e42107cc273e","e622c465-ee29-4445-8260-1f3431e06587","{""participantId"":""C5C734EB86A040C3839EDDD1E76719BE"",""assignmentId"":""12c8e4b9-79a5-485e-91de-e42107cc273e"",""projectId"":""e622c465-ee29-4445-8260-1f3431e06587""}","https://test12345.live/?participantId=C5C734EB86A040C3839EDDD1E76719BE&assignmentId=12c8e4b9-79a5-485e-91de-e42107cc273e&projectId=e622c465-ee29-4445-8260-1f3431e06587","","null","<div style=""display: flex; justify-content: center; align-items: center;"">
                    <img src=""images/causal/causal_series_5/causal_series_5_c.jpg"" style=""width: 300px; height: 300px;"" />
                  </div>","null","",""
"","","","","","html-keyboard-response","100","315858","0.0-71.0-3.0","C5C734EB86A040C3839EDDD1E76719BE","C5C734EB86A040C3839EDDD1E76719BE","12c8e4b9-79a5-485e-91de-e42107cc273e","e622c465-ee29-4445-8260-1f3431e06587","{""participantId"":""C5C734EB86A040C3839EDDD1E76719BE"",""assignmentId"":""12c8e4b9-79a5-485e-91de-e42107cc273e"",""projectId"":""e622c465-ee29-4445-8260-1f3431e06587""}","https://test12345.live/?participantId=C5C734EB86A040C3839EDDD1E76719BE&assignmentId=12c8e4b9-79a5-485e-91de-e42107cc273e&projectId=e622c465-ee29-4445-8260-1f3431e06587","","null","<div style=""display: flex; justify-content: center; align-items: center;"">
                    <img src=""images/causal/causal_series_5/causal_series_5_d.jpg"" style=""width: 300px; height: 300px;"" />
                  </div>","null","",""
"","","","","","html-button-response","101","316617","0.0-73.0","C5C734EB86A040C3839EDDD1E76719BE","C5C734EB86A040C3839EDDD1E76719BE","12c8e4b9-79a5-485e-91de-e42107cc273e","e622c465-ee29-4445-8260-1f3431e06587","{""participantId"":""C5C734EB86A040C3839EDDD1E76719BE"",""assignmentId"":""12c8e4b9-79a5-485e-91de-e42107cc273e"",""projectId"":""e622c465-ee29-4445-8260-1f3431e06587""}","https://test12345.live/?participantId=C5C734EB86A040C3839EDDD1E76719BE&assignmentId=12c8e4b9-79a5-485e-91de-e42107cc273e&projectId=e622c465-ee29-4445-8260-1f3431e06587","","759","Was there a person in the picture?","0","",""
"","","","","","survey-likert","102","318180","0.0-74.0","C5C734EB86A040C3839EDDD1E76719BE","C5C734EB86A040C3839EDDD1E76719BE","12c8e4b9-79a5-485e-91de-e42107cc273e","e622c465-ee29-4445-8260-1f3431e06587","{""participantId"":""C5C734EB86A040C3839EDDD1E76719BE"",""assignmentId"":""12c8e4b9-79a5-485e-91de-e42107cc273e"",""projectId"":""e622c465-ee29-4445-8260-1f3431e06587""}","https://test12345.live/?participantId=C5C734EB86A040C3839EDDD1E76719BE&assignmentId=12c8e4b9-79a5-485e-91de-e42107cc273e&projectId=e622c465-ee29-4445-8260-1f3431e06587","","1563","","{""Q0"":0}","","[0]"
"","","","","","html-button-response","103","319229","0.0-75.0","C5C734EB86A040C3839EDDD1E76719BE","C5C734EB86A040C3839EDDD1E76719BE","12c8e4b9-79a5-485e-91de-e42107cc273e","e622c465-ee29-4445-8260-1f3431e06587","{""participantId"":""C5C734EB86A040C3839EDDD1E76719BE"",""assignmentId"":""12c8e4b9-79a5-485e-91de-e42107cc273e"",""projectId"":""e622c465-ee29-4445-8260-1f3431e06587""}","https://test12345.live/?participantId=C5C734EB86A040C3839EDDD1E76719BE&assignmentId=12c8e4b9-79a5-485e-91de-e42107cc273e&projectId=e622c465-ee29-4445-8260-1f3431e06587","","1048","
    <div style=""display: flex; justify-content: center; align-items: center;"">
      <img src=""images/blue_deck_1.png"" style=""width: 300px; height: 300px; margin-right: 10px;"" />
      <img src=""images/red_deck_2.png"" style=""width: 300px; height: 300px;"" />
    </div>","0","0",""
"","","","","","html-keyboard-response","104","322230","0.0-76.0-0.0","C5C734EB86A040C3839EDDD1E76719BE","C5C734EB86A040C3839EDDD1E76719BE","12c8e4b9-79a5-485e-91de-e42107cc273e","e622c465-ee29-4445-8260-1f3431e06587","{""participantId"":""C5C734EB86A040C3839EDDD1E76719BE"",""assignmentId"":""12c8e4b9-79a5-485e-91de-e42107cc273e"",""projectId"":""e622c465-ee29-4445-8260-1f3431e06587""}","https://test12345.live/?participantId=C5C734EB86A040C3839EDDD1E76719BE&assignmentId=12c8e4b9-79a5-485e-91de-e42107cc273e&projectId=e622c465-ee29-4445-8260-1f3431e06587","","null","<div style=""display: flex; justify-content: center; align-items: center;"">
                    <img src=""images/causal/causal_series_16/causal_series_16_a.jpg"" style=""width: 300px; height: 300px;"" />
                  </div>","null","",""
"","","","","","html-keyboard-response","105","325242","0.0-76.0-1.0","C5C734EB86A040C3839EDDD1E76719BE","C5C734EB86A040C3839EDDD1E76719BE","12c8e4b9-79a5-485e-91de-e42107cc273e","e622c465-ee29-4445-8260-1f3431e06587","{""participantId"":""C5C734EB86A040C3839EDDD1E76719BE"",""assignmentId"":""12c8e4b9-79a5-485e-91de-e42107cc273e"",""projectId"":""e622c465-ee29-4445-8260-1f3431e06587""}","https://test12345.live/?participantId=C5C734EB86A040C3839EDDD1E76719BE&assignmentId=12c8e4b9-79a5-485e-91de-e42107cc273e&projectId=e622c465-ee29-4445-8260-1f3431e06587","","null","<div style=""display: flex; justify-content: center; align-items: center;"">
                    <img src=""images/causal/causal_series_16/causal_series_16_b.jpg"" style=""width: 300px; height: 300px;"" />
                  </div>","null","",""
"","","","","","html-keyboard-response","106","328248","0.0-76.0-2.0","C5C734EB86A040C3839EDDD1E76719BE","C5C734EB86A040C3839EDDD1E76719BE","12c8e4b9-79a5-485e-91de-e42107cc273e","e622c465-ee29-4445-8260-1f3431e06587","{""participantId"":""C5C734EB86A040C3839EDDD1E76719BE"",""assignmentId"":""12c8e4b9-79a5-485e-91de-e42107cc273e"",""projectId"":""e622c465-ee29-4445-8260-1f3431e06587""}","https://test12345.live/?participantId=C5C734EB86A040C3839EDDD1E76719BE&assignmentId=12c8e4b9-79a5-485e-91de-e42107cc273e&projectId=e622c465-ee29-4445-8260-1f3431e06587","","null","<div style=""display: flex; justify-content: center; align-items: center;"">
                    <img src=""images/causal/causal_series_16/causal_series_16_c.jpg"" style=""width: 300px; height: 300px;"" />
                  </div>","null","",""
"","","","","","html-keyboard-response","107","331256","0.0-76.0-3.0","C5C734EB86A040C3839EDDD1E76719BE","C5C734EB86A040C3839EDDD1E76719BE","12c8e4b9-79a5-485e-91de-e42107cc273e","e622c465-ee29-4445-8260-1f3431e06587","{""participantId"":""C5C734EB86A040C3839EDDD1E76719BE"",""assignmentId"":""12c8e4b9-79a5-485e-91de-e42107cc273e"",""projectId"":""e622c465-ee29-4445-8260-1f3431e06587""}","https://test12345.live/?participantId=C5C734EB86A040C3839EDDD1E76719BE&assignmentId=12c8e4b9-79a5-485e-91de-e42107cc273e&projectId=e622c465-ee29-4445-8260-1f3431e06587","","null","<div style=""display: flex; justify-content: center; align-items: center;"">
                    <img src=""images/causal/causal_series_16/causal_series_16_d.jpg"" style=""width: 300px; height: 300px;"" />
                  </div>","null","",""
"","","","","","html-button-response","108","333275","0.0-78.0","C5C734EB86A040C3839EDDD1E76719BE","C5C734EB86A040C3839EDDD1E76719BE","12c8e4b9-79a5-485e-91de-e42107cc273e","e622c465-ee29-4445-8260-1f3431e06587","{""participantId"":""C5C734EB86A040C3839EDDD1E76719BE"",""assignmentId"":""12c8e4b9-79a5-485e-91de-e42107cc273e"",""projectId"":""e622c465-ee29-4445-8260-1f3431e06587""}","https://test12345.live/?participantId=C5C734EB86A040C3839EDDD1E76719BE&assignmentId=12c8e4b9-79a5-485e-91de-e42107cc273e&projectId=e622c465-ee29-4445-8260-1f3431e06587","","2018","Was there a person in the picture?","0","",""
"","","","","","survey-likert","109","335201","0.0-79.0","C5C734EB86A040C3839EDDD1E76719BE","C5C734EB86A040C3839EDDD1E76719BE","12c8e4b9-79a5-485e-91de-e42107cc273e","e622c465-ee29-4445-8260-1f3431e06587","{""participantId"":""C5C734EB86A040C3839EDDD1E76719BE"",""assignmentId"":""12c8e4b9-79a5-485e-91de-e42107cc273e"",""projectId"":""e622c465-ee29-4445-8260-1f3431e06587""}","https://test12345.live/?participantId=C5C734EB86A040C3839EDDD1E76719BE&assignmentId=12c8e4b9-79a5-485e-91de-e42107cc273e&projectId=e622c465-ee29-4445-8260-1f3431e06587","","1926","","{""Q0"":3}","","[0]"
"","","","","","html-button-response","110","336554","0.0-80.0","C5C734EB86A040C3839EDDD1E76719BE","C5C734EB86A040C3839EDDD1E76719BE","12c8e4b9-79a5-485e-91de-e42107cc273e","e622c465-ee29-4445-8260-1f3431e06587","{""participantId"":""C5C734EB86A040C3839EDDD1E76719BE"",""assignmentId"":""12c8e4b9-79a5-485e-91de-e42107cc273e"",""projectId"":""e622c465-ee29-4445-8260-1f3431e06587""}","https://test12345.live/?participantId=C5C734EB86A040C3839EDDD1E76719BE&assignmentId=12c8e4b9-79a5-485e-91de-e42107cc273e&projectId=e622c465-ee29-4445-8260-1f3431e06587","","1352","
    <div style=""display: flex; justify-content: center; align-items: center;"">
      <img src=""images/blue_deck_1.png"" style=""width: 300px; height: 300px; margin-right: 10px;"" />
      <img src=""images/red_deck_2.png"" style=""width: 300px; height: 300px;"" />
    </div>","0","0",""
"","","","","","html-keyboard-response","111","339558","0.0-81.0-0.0","C5C734EB86A040C3839EDDD1E76719BE","C5C734EB86A040C3839EDDD1E76719BE","12c8e4b9-79a5-485e-91de-e42107cc273e","e622c465-ee29-4445-8260-1f3431e06587","{""participantId"":""C5C734EB86A040C3839EDDD1E76719BE"",""assignmentId"":""12c8e4b9-79a5-485e-91de-e42107cc273e"",""projectId"":""e622c465-ee29-4445-8260-1f3431e06587""}","https://test12345.live/?participantId=C5C734EB86A040C3839EDDD1E76719BE&assignmentId=12c8e4b9-79a5-485e-91de-e42107cc273e&projectId=e622c465-ee29-4445-8260-1f3431e06587","","null","<div style=""display: flex; justify-content: center; align-items: center;"">
                    <img src=""images/causal/causal_series_4/causal_series_4_a.jpg"" style=""width: 300px; height: 300px;"" />
                  </div>","null","",""
"","","","","","html-keyboard-response","112","342573","0.0-81.0-1.0","C5C734EB86A040C3839EDDD1E76719BE","C5C734EB86A040C3839EDDD1E76719BE","12c8e4b9-79a5-485e-91de-e42107cc273e","e622c465-ee29-4445-8260-1f3431e06587","{""participantId"":""C5C734EB86A040C3839EDDD1E76719BE"",""assignmentId"":""12c8e4b9-79a5-485e-91de-e42107cc273e"",""projectId"":""e622c465-ee29-4445-8260-1f3431e06587""}","https://test12345.live/?participantId=C5C734EB86A040C3839EDDD1E76719BE&assignmentId=12c8e4b9-79a5-485e-91de-e42107cc273e&projectId=e622c465-ee29-4445-8260-1f3431e06587","","null","<div style=""display: flex; justify-content: center; align-items: center;"">
                    <img src=""images/causal/causal_series_4/causal_series_4_b.jpg"" style=""width: 300px; height: 300px;"" />
                  </div>","null","",""
"","","","","","html-keyboard-response","113","345575","0.0-81.0-2.0","C5C734EB86A040C3839EDDD1E76719BE","C5C734EB86A040C3839EDDD1E76719BE","12c8e4b9-79a5-485e-91de-e42107cc273e","e622c465-ee29-4445-8260-1f3431e06587","{""participantId"":""C5C734EB86A040C3839EDDD1E76719BE"",""assignmentId"":""12c8e4b9-79a5-485e-91de-e42107cc273e"",""projectId"":""e622c465-ee29-4445-8260-1f3431e06587""}","https://test12345.live/?participantId=C5C734EB86A040C3839EDDD1E76719BE&assignmentId=12c8e4b9-79a5-485e-91de-e42107cc273e&projectId=e622c465-ee29-4445-8260-1f3431e06587","","null","<div style=""display: flex; justify-content: center; align-items: center;"">
                    <img src=""images/causal/causal_series_4/causal_series_4_c.jpg"" style=""width: 300px; height: 300px;"" />
                  </div>","null","",""
"","","","","","html-keyboard-response","114","348582","0.0-81.0-3.0","C5C734EB86A040C3839EDDD1E76719BE","C5C734EB86A040C3839EDDD1E76719BE","12c8e4b9-79a5-485e-91de-e42107cc273e","e622c465-ee29-4445-8260-1f3431e06587","{""participantId"":""C5C734EB86A040C3839EDDD1E76719BE"",""assignmentId"":""12c8e4b9-79a5-485e-91de-e42107cc273e"",""projectId"":""e622c465-ee29-4445-8260-1f3431e06587""}","https://test12345.live/?participantId=C5C734EB86A040C3839EDDD1E76719BE&assignmentId=12c8e4b9-79a5-485e-91de-e42107cc273e&projectId=e622c465-ee29-4445-8260-1f3431e06587","","null","<div style=""display: flex; justify-content: center; align-items: center;"">
                    <img src=""images/causal/causal_series_4/causal_series_4_d.jpg"" style=""width: 300px; height: 300px;"" />
                  </div>","null","",""
"","","","","","html-button-response","115","353943","0.0-83.0","C5C734EB86A040C3839EDDD1E76719BE","C5C734EB86A040C3839EDDD1E76719BE","12c8e4b9-79a5-485e-91de-e42107cc273e","e622c465-ee29-4445-8260-1f3431e06587","{""participantId"":""C5C734EB86A040C3839EDDD1E76719BE"",""assignmentId"":""12c8e4b9-79a5-485e-91de-e42107cc273e"",""projectId"":""e622c465-ee29-4445-8260-1f3431e06587""}","https://test12345.live/?participantId=C5C734EB86A040C3839EDDD1E76719BE&assignmentId=12c8e4b9-79a5-485e-91de-e42107cc273e&projectId=e622c465-ee29-4445-8260-1f3431e06587","","5362","Was there a person in the picture?","1","",""
"","","","","","survey-likert","116","355580","0.0-84.0","C5C734EB86A040C3839EDDD1E76719BE","C5C734EB86A040C3839EDDD1E76719BE","12c8e4b9-79a5-485e-91de-e42107cc273e","e622c465-ee29-4445-8260-1f3431e06587","{""participantId"":""C5C734EB86A040C3839EDDD1E76719BE"",""assignmentId"":""12c8e4b9-79a5-485e-91de-e42107cc273e"",""projectId"":""e622c465-ee29-4445-8260-1f3431e06587""}","https://test12345.live/?participantId=C5C734EB86A040C3839EDDD1E76719BE&assignmentId=12c8e4b9-79a5-485e-91de-e42107cc273e&projectId=e622c465-ee29-4445-8260-1f3431e06587","","1637","","{""Q0"":0}","","[0]"
"","","","","","html-button-response","117","356240","0.0-85.0","C5C734EB86A040C3839EDDD1E76719BE","C5C734EB86A040C3839EDDD1E76719BE","12c8e4b9-79a5-485e-91de-e42107cc273e","e622c465-ee29-4445-8260-1f3431e06587","{""participantId"":""C5C734EB86A040C3839EDDD1E76719BE"",""assignmentId"":""12c8e4b9-79a5-485e-91de-e42107cc273e"",""projectId"":""e622c465-ee29-4445-8260-1f3431e06587""}","https://test12345.live/?participantId=C5C734EB86A040C3839EDDD1E76719BE&assignmentId=12c8e4b9-79a5-485e-91de-e42107cc273e&projectId=e622c465-ee29-4445-8260-1f3431e06587","","659","
    <div style=""display: flex; justify-content: center; align-items: center;"">
      <img src=""images/blue_deck_1.png"" style=""width: 300px; height: 300px; margin-right: 10px;"" />
      <img src=""images/red_deck_2.png"" style=""width: 300px; height: 300px;"" />
    </div>","0","0",""
"","","","","","html-keyboard-response","118","359249","0.0-86.0-0.0","C5C734EB86A040C3839EDDD1E76719BE","C5C734EB86A040C3839EDDD1E76719BE","12c8e4b9-79a5-485e-91de-e42107cc273e","e622c465-ee29-4445-8260-1f3431e06587","{""participantId"":""C5C734EB86A040C3839EDDD1E76719BE"",""assignmentId"":""12c8e4b9-79a5-485e-91de-e42107cc273e"",""projectId"":""e622c465-ee29-4445-8260-1f3431e06587""}","https://test12345.live/?participantId=C5C734EB86A040C3839EDDD1E76719BE&assignmentId=12c8e4b9-79a5-485e-91de-e42107cc273e&projectId=e622c465-ee29-4445-8260-1f3431e06587","","null","<div style=""display: flex; justify-content: center; align-items: center;"">
                    <img src=""images/causal/causal_series_12/causal_series_12_a.jpg"" style=""width: 300px; height: 300px;"" />
                  </div>","null","",""
"","","","","","html-keyboard-response","119","362263","0.0-86.0-1.0","C5C734EB86A040C3839EDDD1E76719BE","C5C734EB86A040C3839EDDD1E76719BE","12c8e4b9-79a5-485e-91de-e42107cc273e","e622c465-ee29-4445-8260-1f3431e06587","{""participantId"":""C5C734EB86A040C3839EDDD1E76719BE"",""assignmentId"":""12c8e4b9-79a5-485e-91de-e42107cc273e"",""projectId"":""e622c465-ee29-4445-8260-1f3431e06587""}","https://test12345.live/?participantId=C5C734EB86A040C3839EDDD1E76719BE&assignmentId=12c8e4b9-79a5-485e-91de-e42107cc273e&projectId=e622c465-ee29-4445-8260-1f3431e06587","","null","<div style=""display: flex; justify-content: center; align-items: center;"">
                    <img src=""images/causal/causal_series_12/causal_series_12_b.jpg"" style=""width: 300px; height: 300px;"" />
                  </div>","null","",""
"","","","","","html-keyboard-response","120","365273","0.0-86.0-2.0","C5C734EB86A040C3839EDDD1E76719BE","C5C734EB86A040C3839EDDD1E76719BE","12c8e4b9-79a5-485e-91de-e42107cc273e","e622c465-ee29-4445-8260-1f3431e06587","{""participantId"":""C5C734EB86A040C3839EDDD1E76719BE"",""assignmentId"":""12c8e4b9-79a5-485e-91de-e42107cc273e"",""projectId"":""e622c465-ee29-4445-8260-1f3431e06587""}","https://test12345.live/?participantId=C5C734EB86A040C3839EDDD1E76719BE&assignmentId=12c8e4b9-79a5-485e-91de-e42107cc273e&projectId=e622c465-ee29-4445-8260-1f3431e06587","","null","<div style=""display: flex; justify-content: center; align-items: center;"">
                    <img src=""images/causal/causal_series_12/causal_series_12_c.jpg"" style=""width: 300px; height: 300px;"" />
                  </div>","null","",""
"","","","","","html-keyboard-response","121","368275","0.0-86.0-3.0","C5C734EB86A040C3839EDDD1E76719BE","C5C734EB86A040C3839EDDD1E76719BE","12c8e4b9-79a5-485e-91de-e42107cc273e","e622c465-ee29-4445-8260-1f3431e06587","{""participantId"":""C5C734EB86A040C3839EDDD1E76719BE"",""assignmentId"":""12c8e4b9-79a5-485e-91de-e42107cc273e"",""projectId"":""e622c465-ee29-4445-8260-1f3431e06587""}","https://test12345.live/?participantId=C5C734EB86A040C3839EDDD1E76719BE&assignmentId=12c8e4b9-79a5-485e-91de-e42107cc273e&projectId=e622c465-ee29-4445-8260-1f3431e06587","","null","<div style=""display: flex; justify-content: center; align-items: center;"">
                    <img src=""images/causal/causal_series_12/causal_series_12_d.jpg"" style=""width: 300px; height: 300px;"" />
                  </div>","null","",""
"","","","","","html-button-response","122","369380","0.0-88.0","C5C734EB86A040C3839EDDD1E76719BE","C5C734EB86A040C3839EDDD1E76719BE","12c8e4b9-79a5-485e-91de-e42107cc273e","e622c465-ee29-4445-8260-1f3431e06587","{""participantId"":""C5C734EB86A040C3839EDDD1E76719BE"",""assignmentId"":""12c8e4b9-79a5-485e-91de-e42107cc273e"",""projectId"":""e622c465-ee29-4445-8260-1f3431e06587""}","https://test12345.live/?participantId=C5C734EB86A040C3839EDDD1E76719BE&assignmentId=12c8e4b9-79a5-485e-91de-e42107cc273e&projectId=e622c465-ee29-4445-8260-1f3431e06587","","1105","Was there a person in the picture?","1","",""
"","","","","","survey-likert","123","371023","0.0-89.0","C5C734EB86A040C3839EDDD1E76719BE","C5C734EB86A040C3839EDDD1E76719BE","12c8e4b9-79a5-485e-91de-e42107cc273e","e622c465-ee29-4445-8260-1f3431e06587","{""participantId"":""C5C734EB86A040C3839EDDD1E76719BE"",""assignmentId"":""12c8e4b9-79a5-485e-91de-e42107cc273e"",""projectId"":""e622c465-ee29-4445-8260-1f3431e06587""}","https://test12345.live/?participantId=C5C734EB86A040C3839EDDD1E76719BE&assignmentId=12c8e4b9-79a5-485e-91de-e42107cc273e&projectId=e622c465-ee29-4445-8260-1f3431e06587","","1643","","{""Q0"":2}","","[0]"
"","","","","","html-button-response","124","372460","0.0-90.0","C5C734EB86A040C3839EDDD1E76719BE","C5C734EB86A040C3839EDDD1E76719BE","12c8e4b9-79a5-485e-91de-e42107cc273e","e622c465-ee29-4445-8260-1f3431e06587","{""participantId"":""C5C734EB86A040C3839EDDD1E76719BE"",""assignmentId"":""12c8e4b9-79a5-485e-91de-e42107cc273e"",""projectId"":""e622c465-ee29-4445-8260-1f3431e06587""}","https://test12345.live/?participantId=C5C734EB86A040C3839EDDD1E76719BE&assignmentId=12c8e4b9-79a5-485e-91de-e42107cc273e&projectId=e622c465-ee29-4445-8260-1f3431e06587","","1436","
    <div style=""display: flex; justify-content: center; align-items: center;"">
      <img src=""images/blue_deck_1.png"" style=""width: 300px; height: 300px; margin-right: 10px;"" />
      <img src=""images/red_deck_2.png"" style=""width: 300px; height: 300px;"" />
    </div>","1","1",""
"","","","","","html-keyboard-response","125","375470","0.0-92.0-0.0","C5C734EB86A040C3839EDDD1E76719BE","C5C734EB86A040C3839EDDD1E76719BE","12c8e4b9-79a5-485e-91de-e42107cc273e","e622c465-ee29-4445-8260-1f3431e06587","{""participantId"":""C5C734EB86A040C3839EDDD1E76719BE"",""assignmentId"":""12c8e4b9-79a5-485e-91de-e42107cc273e"",""projectId"":""e622c465-ee29-4445-8260-1f3431e06587""}","https://test12345.live/?participantId=C5C734EB86A040C3839EDDD1E76719BE&assignmentId=12c8e4b9-79a5-485e-91de-e42107cc273e&projectId=e622c465-ee29-4445-8260-1f3431e06587","","null","<div style=""display: flex; justify-content: center; align-items: center;"">
                    <img src=""images/semantic/semantic_series_13/semantic_series_13_a.jpg"" style=""width: 300px; height: 300px;"" />
                  </div>","null","",""
"","","","","","html-keyboard-response","126","378471","0.0-92.0-1.0","C5C734EB86A040C3839EDDD1E76719BE","C5C734EB86A040C3839EDDD1E76719BE","12c8e4b9-79a5-485e-91de-e42107cc273e","e622c465-ee29-4445-8260-1f3431e06587","{""participantId"":""C5C734EB86A040C3839EDDD1E76719BE"",""assignmentId"":""12c8e4b9-79a5-485e-91de-e42107cc273e"",""projectId"":""e622c465-ee29-4445-8260-1f3431e06587""}","https://test12345.live/?participantId=C5C734EB86A040C3839EDDD1E76719BE&assignmentId=12c8e4b9-79a5-485e-91de-e42107cc273e&projectId=e622c465-ee29-4445-8260-1f3431e06587","","null","<div style=""display: flex; justify-content: center; align-items: center;"">
                    <img src=""images/semantic/semantic_series_13/semantic_series_13_b.jpg"" style=""width: 300px; height: 300px;"" />
                  </div>","null","",""
"","","","","","html-keyboard-response","127","381482","0.0-92.0-2.0","C5C734EB86A040C3839EDDD1E76719BE","C5C734EB86A040C3839EDDD1E76719BE","12c8e4b9-79a5-485e-91de-e42107cc273e","e622c465-ee29-4445-8260-1f3431e06587","{""participantId"":""C5C734EB86A040C3839EDDD1E76719BE"",""assignmentId"":""12c8e4b9-79a5-485e-91de-e42107cc273e"",""projectId"":""e622c465-ee29-4445-8260-1f3431e06587""}","https://test12345.live/?participantId=C5C734EB86A040C3839EDDD1E76719BE&assignmentId=12c8e4b9-79a5-485e-91de-e42107cc273e&projectId=e622c465-ee29-4445-8260-1f3431e06587","","null","<div style=""display: flex; justify-content: center; align-items: center;"">
                    <img src=""images/semantic/semantic_series_13/semantic_series_13_c.jpg"" style=""width: 300px; height: 300px;"" />
                  </div>","null","",""
"","","","","","html-keyboard-response","128","384497","0.0-92.0-3.0","C5C734EB86A040C3839EDDD1E76719BE","C5C734EB86A040C3839EDDD1E76719BE","12c8e4b9-79a5-485e-91de-e42107cc273e","e622c465-ee29-4445-8260-1f3431e06587","{""participantId"":""C5C734EB86A040C3839EDDD1E76719BE"",""assignmentId"":""12c8e4b9-79a5-485e-91de-e42107cc273e"",""projectId"":""e622c465-ee29-4445-8260-1f3431e06587""}","https://test12345.live/?participantId=C5C734EB86A040C3839EDDD1E76719BE&assignmentId=12c8e4b9-79a5-485e-91de-e42107cc273e&projectId=e622c465-ee29-4445-8260-1f3431e06587","","null","<div style=""display: flex; justify-content: center; align-items: center;"">
                    <img src=""images/semantic/semantic_series_13/semantic_series_13_d.jpg"" style=""width: 300px; height: 300px;"" />
                  </div>","null","",""
"","","","","","html-button-response","129","386764","0.0-93.0","C5C734EB86A040C3839EDDD1E76719BE","C5C734EB86A040C3839EDDD1E76719BE","12c8e4b9-79a5-485e-91de-e42107cc273e","e622c465-ee29-4445-8260-1f3431e06587","{""participantId"":""C5C734EB86A040C3839EDDD1E76719BE"",""assignmentId"":""12c8e4b9-79a5-485e-91de-e42107cc273e"",""projectId"":""e622c465-ee29-4445-8260-1f3431e06587""}","https://test12345.live/?participantId=C5C734EB86A040C3839EDDD1E76719BE&assignmentId=12c8e4b9-79a5-485e-91de-e42107cc273e&projectId=e622c465-ee29-4445-8260-1f3431e06587","","2266","Was there a person in the picture?","0","",""
"","","","","","survey-likert","130","388480","0.0-94.0","C5C734EB86A040C3839EDDD1E76719BE","C5C734EB86A040C3839EDDD1E76719BE","12c8e4b9-79a5-485e-91de-e42107cc273e","e622c465-ee29-4445-8260-1f3431e06587","{""participantId"":""C5C734EB86A040C3839EDDD1E76719BE"",""assignmentId"":""12c8e4b9-79a5-485e-91de-e42107cc273e"",""projectId"":""e622c465-ee29-4445-8260-1f3431e06587""}","https://test12345.live/?participantId=C5C734EB86A040C3839EDDD1E76719BE&assignmentId=12c8e4b9-79a5-485e-91de-e42107cc273e&projectId=e622c465-ee29-4445-8260-1f3431e06587","","1716","","{""Q0"":1}","","[0]"
"","","","","","survey-text","131","396864","0.0-95.0","C5C734EB86A040C3839EDDD1E76719BE","C5C734EB86A040C3839EDDD1E76719BE","12c8e4b9-79a5-485e-91de-e42107cc273e","e622c465-ee29-4445-8260-1f3431e06587","{""participantId"":""C5C734EB86A040C3839EDDD1E76719BE"",""assignmentId"":""12c8e4b9-79a5-485e-91de-e42107cc273e"",""projectId"":""e622c465-ee29-4445-8260-1f3431e06587""}","https://test12345.live/?participantId=C5C734EB86A040C3839EDDD1E76719BE&assignmentId=12c8e4b9-79a5-485e-91de-e42107cc273e&projectId=e622c465-ee29-4445-8260-1f3431e06587","","8382","","{""Q0"":""no difference""}","",""
