"success","timeout","failed_images","failed_audio","failed_video","trial_type","trial_index","time_elapsed","internal_node_id","subject","subject_id","study_id","session_id","urlvar","current_url","view_history","rt","stimulus","response","choice","question_order"
"true","false","[]","[]","[]","preload","0","5510","0.0-0.0","C569E99B68B8491792FCD56407E934F7","C569E99B68B8491792FCD56407E934F7","d5458185-00d9-4603-86c0-af54db09e139","54f8d589-66fc-4c65-830f-1dcc63bce8cc","{""participantId"":""C569E99B68B8491792FCD56407E934F7"",""assignmentId"":""d5458185-00d9-4603-86c0-af54db09e139"",""projectId"":""54f8d589-66fc-4c65-830f-1dcc63bce8cc""}","https://test12345.live/?participantId=C569E99B68B8491792FCD56407E934F7&assignmentId=d5458185-00d9-4603-86c0-af54db09e139&projectId=54f8d589-66fc-4c65-830f-1dcc63bce8cc","","","","","",""
"","","","","","instructions","1","7556","0.0-1.0","C569E99B68B8491792FCD56407E934F7","C569E99B68B8491792FCD56407E934F7","d5458185-00d9-4603-86c0-af54db09e139","54f8d589-66fc-4c65-830f-1dcc63bce8cc","{""participantId"":""C569E99B68B8491792FCD56407E934F7"",""assignmentId"":""d5458185-00d9-4603-86c0-af54db09e139"",""projectId"":""54f8d589-66fc-4c65-830f-1dcc63bce8cc""}","https://test12345.live/?participantId=C569E99B68B8491792FCD56407E934F7&assignmentId=d5458185-00d9-4603-86c0-af54db09e139&projectId=54f8d589-66fc-4c65-830f-1dcc63bce8cc","[{""page_index"":0,""viewing_time"":2043}]","2045","","","",""
"","","","","","instructions","2","11446","0.0-2.0","C569E99B68B8491792FCD56407E934F7","C569E99B68B8491792FCD56407E934F7","d5458185-00d9-4603-86c0-af54db09e139","54f8d589-66fc-4c65-830f-1dcc63bce8cc","{""participantId"":""C569E99B68B8491792FCD56407E934F7"",""assignmentId"":""d5458185-00d9-4603-86c0-af54db09e139"",""projectId"":""54f8d589-66fc-4c65-830f-1dcc63bce8cc""}","https://test12345.live/?participantId=C569E99B68B8491792FCD56407E934F7&assignmentId=d5458185-00d9-4603-86c0-af54db09e139&projectId=54f8d589-66fc-4c65-830f-1dcc63bce8cc","[{""page_index"":0,""viewing_time"":3888}]","3889","","","",""
"true","","","","","fullscreen","3","14204","0.0-3.0","C569E99B68B8491792FCD56407E934F7","C569E99B68B8491792FCD56407E934F7","d5458185-00d9-4603-86c0-af54db09e139","54f8d589-66fc-4c65-830f-1dcc63bce8cc","{""participantId"":""C569E99B68B8491792FCD56407E934F7"",""assignmentId"":""d5458185-00d9-4603-86c0-af54db09e139"",""projectId"":""54f8d589-66fc-4c65-830f-1dcc63bce8cc""}","https://test12345.live/?participantId=C569E99B68B8491792FCD56407E934F7&assignmentId=d5458185-00d9-4603-86c0-af54db09e139&projectId=54f8d589-66fc-4c65-830f-1dcc63bce8cc","","1750","","","",""
"","","","","","instructions","4","19400","0.0-4.0","C569E99B68B8491792FCD56407E934F7","C569E99B68B8491792FCD56407E934F7","d5458185-00d9-4603-86c0-af54db09e139","54f8d589-66fc-4c65-830f-1dcc63bce8cc","{""participantId"":""C569E99B68B8491792FCD56407E934F7"",""assignmentId"":""d5458185-00d9-4603-86c0-af54db09e139"",""projectId"":""54f8d589-66fc-4c65-830f-1dcc63bce8cc""}","https://test12345.live/?participantId=C569E99B68B8491792FCD56407E934F7&assignmentId=d5458185-00d9-4603-86c0-af54db09e139&projectId=54f8d589-66fc-4c65-830f-1dcc63bce8cc","[{""page_index"":0,""viewing_time"":5195}]","5196","","","",""
"","","","","","html-button-response","5","24364","0.0-5.0","C569E99B68B8491792FCD56407E934F7","C569E99B68B8491792FCD56407E934F7","d5458185-00d9-4603-86c0-af54db09e139","54f8d589-66fc-4c65-830f-1dcc63bce8cc","{""participantId"":""C569E99B68B8491792FCD56407E934F7"",""assignmentId"":""d5458185-00d9-4603-86c0-af54db09e139"",""projectId"":""54f8d589-66fc-4c65-830f-1dcc63bce8cc""}","https://test12345.live/?participantId=C569E99B68B8491792FCD56407E934F7&assignmentId=d5458185-00d9-4603-86c0-af54db09e139&projectId=54f8d589-66fc-4c65-830f-1dcc63bce8cc","","4962","
    <div style=""display: flex; justify-content: center; align-items: center;"">
      <img src=""images/red_deck_2.png"" style=""width: 300px; height: 300px; margin-right: 10px;"" />
      <img src=""images/blue_deck_1.png"" style=""width: 300px; height: 300px;"" />
    </div>","1","1",""
"","","","","","html-keyboard-response","6","27376","0.0-7.0-0.0","C569E99B68B8491792FCD56407E934F7","C569E99B68B8491792FCD56407E934F7","d5458185-00d9-4603-86c0-af54db09e139","54f8d589-66fc-4c65-830f-1dcc63bce8cc","{""participantId"":""C569E99B68B8491792FCD56407E934F7"",""assignmentId"":""d5458185-00d9-4603-86c0-af54db09e139"",""projectId"":""54f8d589-66fc-4c65-830f-1dcc63bce8cc""}","https://test12345.live/?participantId=C569E99B68B8491792FCD56407E934F7&assignmentId=d5458185-00d9-4603-86c0-af54db09e139&projectId=54f8d589-66fc-4c65-830f-1dcc63bce8cc","","null","<div style=""display: flex; justify-content: center; align-items: center;"">
                    <img src=""images/semantic/semantic_series_5/semantic_series_5_a.jpg"" style=""width: 300px; height: 300px;"" />
                  </div>","null","",""
"","","","","","html-keyboard-response","7","30380","0.0-7.0-1.0","C569E99B68B8491792FCD56407E934F7","C569E99B68B8491792FCD56407E934F7","d5458185-00d9-4603-86c0-af54db09e139","54f8d589-66fc-4c65-830f-1dcc63bce8cc","{""participantId"":""C569E99B68B8491792FCD56407E934F7"",""assignmentId"":""d5458185-00d9-4603-86c0-af54db09e139"",""projectId"":""54f8d589-66fc-4c65-830f-1dcc63bce8cc""}","https://test12345.live/?participantId=C569E99B68B8491792FCD56407E934F7&assignmentId=d5458185-00d9-4603-86c0-af54db09e139&projectId=54f8d589-66fc-4c65-830f-1dcc63bce8cc","","null","<div style=""display: flex; justify-content: center; align-items: center;"">
                    <img src=""images/semantic/semantic_series_5/semantic_series_5_b.jpg"" style=""width: 300px; height: 300px;"" />
                  </div>","null","",""
"","","","","","html-keyboard-response","8","33387","0.0-7.0-2.0","C569E99B68B8491792FCD56407E934F7","C569E99B68B8491792FCD56407E934F7","d5458185-00d9-4603-86c0-af54db09e139","54f8d589-66fc-4c65-830f-1dcc63bce8cc","{""participantId"":""C569E99B68B8491792FCD56407E934F7"",""assignmentId"":""d5458185-00d9-4603-86c0-af54db09e139"",""projectId"":""54f8d589-66fc-4c65-830f-1dcc63bce8cc""}","https://test12345.live/?participantId=C569E99B68B8491792FCD56407E934F7&assignmentId=d5458185-00d9-4603-86c0-af54db09e139&projectId=54f8d589-66fc-4c65-830f-1dcc63bce8cc","","null","<div style=""display: flex; justify-content: center; align-items: center;"">
                    <img src=""images/semantic/semantic_series_5/semantic_series_5_c.jpg"" style=""width: 300px; height: 300px;"" />
                  </div>","null","",""
"","","","","","html-keyboard-response","9","36397","0.0-7.0-3.0","C569E99B68B8491792FCD56407E934F7","C569E99B68B8491792FCD56407E934F7","d5458185-00d9-4603-86c0-af54db09e139","54f8d589-66fc-4c65-830f-1dcc63bce8cc","{""participantId"":""C569E99B68B8491792FCD56407E934F7"",""assignmentId"":""d5458185-00d9-4603-86c0-af54db09e139"",""projectId"":""54f8d589-66fc-4c65-830f-1dcc63bce8cc""}","https://test12345.live/?participantId=C569E99B68B8491792FCD56407E934F7&assignmentId=d5458185-00d9-4603-86c0-af54db09e139&projectId=54f8d589-66fc-4c65-830f-1dcc63bce8cc","","null","<div style=""display: flex; justify-content: center; align-items: center;"">
                    <img src=""images/semantic/semantic_series_5/semantic_series_5_d.jpg"" style=""width: 300px; height: 300px;"" />
                  </div>","null","",""
"","","","","","html-button-response","10","38983","0.0-8.0","C569E99B68B8491792FCD56407E934F7","C569E99B68B8491792FCD56407E934F7","d5458185-00d9-4603-86c0-af54db09e139","54f8d589-66fc-4c65-830f-1dcc63bce8cc","{""participantId"":""C569E99B68B8491792FCD56407E934F7"",""assignmentId"":""d5458185-00d9-4603-86c0-af54db09e139"",""projectId"":""54f8d589-66fc-4c65-830f-1dcc63bce8cc""}","https://test12345.live/?participantId=C569E99B68B8491792FCD56407E934F7&assignmentId=d5458185-00d9-4603-86c0-af54db09e139&projectId=54f8d589-66fc-4c65-830f-1dcc63bce8cc","","2585","Was there a person in the picture?","0","",""
"","","","","","survey-likert","11","41642","0.0-9.0","C569E99B68B8491792FCD56407E934F7","C569E99B68B8491792FCD56407E934F7","d5458185-00d9-4603-86c0-af54db09e139","54f8d589-66fc-4c65-830f-1dcc63bce8cc","{""participantId"":""C569E99B68B8491792FCD56407E934F7"",""assignmentId"":""d5458185-00d9-4603-86c0-af54db09e139"",""projectId"":""54f8d589-66fc-4c65-830f-1dcc63bce8cc""}","https://test12345.live/?participantId=C569E99B68B8491792FCD56407E934F7&assignmentId=d5458185-00d9-4603-86c0-af54db09e139&projectId=54f8d589-66fc-4c65-830f-1dcc63bce8cc","","2657","","{""Q0"":3}","","[0]"
"","","","","","html-button-response","12","46924","0.0-10.0","C569E99B68B8491792FCD56407E934F7","C569E99B68B8491792FCD56407E934F7","d5458185-00d9-4603-86c0-af54db09e139","54f8d589-66fc-4c65-830f-1dcc63bce8cc","{""participantId"":""C569E99B68B8491792FCD56407E934F7"",""assignmentId"":""d5458185-00d9-4603-86c0-af54db09e139"",""projectId"":""54f8d589-66fc-4c65-830f-1dcc63bce8cc""}","https://test12345.live/?participantId=C569E99B68B8491792FCD56407E934F7&assignmentId=d5458185-00d9-4603-86c0-af54db09e139&projectId=54f8d589-66fc-4c65-830f-1dcc63bce8cc","","5281","
    <div style=""display: flex; justify-content: center; align-items: center;"">
      <img src=""images/red_deck_2.png"" style=""width: 300px; height: 300px; margin-right: 10px;"" />
      <img src=""images/blue_deck_1.png"" style=""width: 300px; height: 300px;"" />
    </div>","0","0",""
"","","","","","html-keyboard-response","13","49935","0.0-11.0-0.0","C569E99B68B8491792FCD56407E934F7","C569E99B68B8491792FCD56407E934F7","d5458185-00d9-4603-86c0-af54db09e139","54f8d589-66fc-4c65-830f-1dcc63bce8cc","{""participantId"":""C569E99B68B8491792FCD56407E934F7"",""assignmentId"":""d5458185-00d9-4603-86c0-af54db09e139"",""projectId"":""54f8d589-66fc-4c65-830f-1dcc63bce8cc""}","https://test12345.live/?participantId=C569E99B68B8491792FCD56407E934F7&assignmentId=d5458185-00d9-4603-86c0-af54db09e139&projectId=54f8d589-66fc-4c65-830f-1dcc63bce8cc","","null","<div style=""display: flex; justify-content: center; align-items: center;"">
                    <img src=""images/causal/causal_series_10/causal_series_10_a.jpg"" style=""width: 300px; height: 300px;"" />
                  </div>","null","",""
"","","","","","html-keyboard-response","14","52944","0.0-11.0-1.0","C569E99B68B8491792FCD56407E934F7","C569E99B68B8491792FCD56407E934F7","d5458185-00d9-4603-86c0-af54db09e139","54f8d589-66fc-4c65-830f-1dcc63bce8cc","{""participantId"":""C569E99B68B8491792FCD56407E934F7"",""assignmentId"":""d5458185-00d9-4603-86c0-af54db09e139"",""projectId"":""54f8d589-66fc-4c65-830f-1dcc63bce8cc""}","https://test12345.live/?participantId=C569E99B68B8491792FCD56407E934F7&assignmentId=d5458185-00d9-4603-86c0-af54db09e139&projectId=54f8d589-66fc-4c65-830f-1dcc63bce8cc","","null","<div style=""display: flex; justify-content: center; align-items: center;"">
                    <img src=""images/causal/causal_series_10/causal_series_10_b.jpg"" style=""width: 300px; height: 300px;"" />
                  </div>","null","",""
"","","","","","html-keyboard-response","15","55947","0.0-11.0-2.0","C569E99B68B8491792FCD56407E934F7","C569E99B68B8491792FCD56407E934F7","d5458185-00d9-4603-86c0-af54db09e139","54f8d589-66fc-4c65-830f-1dcc63bce8cc","{""participantId"":""C569E99B68B8491792FCD56407E934F7"",""assignmentId"":""d5458185-00d9-4603-86c0-af54db09e139"",""projectId"":""54f8d589-66fc-4c65-830f-1dcc63bce8cc""}","https://test12345.live/?participantId=C569E99B68B8491792FCD56407E934F7&assignmentId=d5458185-00d9-4603-86c0-af54db09e139&projectId=54f8d589-66fc-4c65-830f-1dcc63bce8cc","","null","<div style=""display: flex; justify-content: center; align-items: center;"">
                    <img src=""images/causal/causal_series_10/causal_series_10_c.jpg"" style=""width: 300px; height: 300px;"" />
                  </div>","null","",""
"","","","","","html-keyboard-response","16","58962","0.0-11.0-3.0","C569E99B68B8491792FCD56407E934F7","C569E99B68B8491792FCD56407E934F7","d5458185-00d9-4603-86c0-af54db09e139","54f8d589-66fc-4c65-830f-1dcc63bce8cc","{""participantId"":""C569E99B68B8491792FCD56407E934F7"",""assignmentId"":""d5458185-00d9-4603-86c0-af54db09e139"",""projectId"":""54f8d589-66fc-4c65-830f-1dcc63bce8cc""}","https://test12345.live/?participantId=C569E99B68B8491792FCD56407E934F7&assignmentId=d5458185-00d9-4603-86c0-af54db09e139&projectId=54f8d589-66fc-4c65-830f-1dcc63bce8cc","","null","<div style=""display: flex; justify-content: center; align-items: center;"">
                    <img src=""images/causal/causal_series_10/causal_series_10_d.jpg"" style=""width: 300px; height: 300px;"" />
                  </div>","null","",""
"","","","","","html-button-response","17","63777","0.0-13.0","C569E99B68B8491792FCD56407E934F7","C569E99B68B8491792FCD56407E934F7","d5458185-00d9-4603-86c0-af54db09e139","54f8d589-66fc-4c65-830f-1dcc63bce8cc","{""participantId"":""C569E99B68B8491792FCD56407E934F7"",""assignmentId"":""d5458185-00d9-4603-86c0-af54db09e139"",""projectId"":""54f8d589-66fc-4c65-830f-1dcc63bce8cc""}","https://test12345.live/?participantId=C569E99B68B8491792FCD56407E934F7&assignmentId=d5458185-00d9-4603-86c0-af54db09e139&projectId=54f8d589-66fc-4c65-830f-1dcc63bce8cc","","4814","Was there a person in the picture?","1","",""
"","","","","","survey-likert","18","69591","0.0-14.0","C569E99B68B8491792FCD56407E934F7","C569E99B68B8491792FCD56407E934F7","d5458185-00d9-4603-86c0-af54db09e139","54f8d589-66fc-4c65-830f-1dcc63bce8cc","{""participantId"":""C569E99B68B8491792FCD56407E934F7"",""assignmentId"":""d5458185-00d9-4603-86c0-af54db09e139"",""projectId"":""54f8d589-66fc-4c65-830f-1dcc63bce8cc""}","https://test12345.live/?participantId=C569E99B68B8491792FCD56407E934F7&assignmentId=d5458185-00d9-4603-86c0-af54db09e139&projectId=54f8d589-66fc-4c65-830f-1dcc63bce8cc","","5813","","{""Q0"":3}","","[0]"
"","","","","","html-button-response","19","71511","0.0-15.0","C569E99B68B8491792FCD56407E934F7","C569E99B68B8491792FCD56407E934F7","d5458185-00d9-4603-86c0-af54db09e139","54f8d589-66fc-4c65-830f-1dcc63bce8cc","{""participantId"":""C569E99B68B8491792FCD56407E934F7"",""assignmentId"":""d5458185-00d9-4603-86c0-af54db09e139"",""projectId"":""54f8d589-66fc-4c65-830f-1dcc63bce8cc""}","https://test12345.live/?participantId=C569E99B68B8491792FCD56407E934F7&assignmentId=d5458185-00d9-4603-86c0-af54db09e139&projectId=54f8d589-66fc-4c65-830f-1dcc63bce8cc","","1918","
    <div style=""display: flex; justify-content: center; align-items: center;"">
      <img src=""images/red_deck_2.png"" style=""width: 300px; height: 300px; margin-right: 10px;"" />
      <img src=""images/blue_deck_1.png"" style=""width: 300px; height: 300px;"" />
    </div>","1","1",""
"","","","","","html-keyboard-response","20","74523","0.0-17.0-0.0","C569E99B68B8491792FCD56407E934F7","C569E99B68B8491792FCD56407E934F7","d5458185-00d9-4603-86c0-af54db09e139","54f8d589-66fc-4c65-830f-1dcc63bce8cc","{""participantId"":""C569E99B68B8491792FCD56407E934F7"",""assignmentId"":""d5458185-00d9-4603-86c0-af54db09e139"",""projectId"":""54f8d589-66fc-4c65-830f-1dcc63bce8cc""}","https://test12345.live/?participantId=C569E99B68B8491792FCD56407E934F7&assignmentId=d5458185-00d9-4603-86c0-af54db09e139&projectId=54f8d589-66fc-4c65-830f-1dcc63bce8cc","","null","<div style=""display: flex; justify-content: center; align-items: center;"">
                    <img src=""images/semantic/semantic_series_7/semantic_series_7_a.jpg"" style=""width: 300px; height: 300px;"" />
                  </div>","null","",""
"","","","","","html-keyboard-response","21","77531","0.0-17.0-1.0","C569E99B68B8491792FCD56407E934F7","C569E99B68B8491792FCD56407E934F7","d5458185-00d9-4603-86c0-af54db09e139","54f8d589-66fc-4c65-830f-1dcc63bce8cc","{""participantId"":""C569E99B68B8491792FCD56407E934F7"",""assignmentId"":""d5458185-00d9-4603-86c0-af54db09e139"",""projectId"":""54f8d589-66fc-4c65-830f-1dcc63bce8cc""}","https://test12345.live/?participantId=C569E99B68B8491792FCD56407E934F7&assignmentId=d5458185-00d9-4603-86c0-af54db09e139&projectId=54f8d589-66fc-4c65-830f-1dcc63bce8cc","","null","<div style=""display: flex; justify-content: center; align-items: center;"">
                    <img src=""images/semantic/semantic_series_7/semantic_series_7_b.jpg"" style=""width: 300px; height: 300px;"" />
                  </div>","null","",""
"","","","","","html-keyboard-response","22","80533","0.0-17.0-2.0","C569E99B68B8491792FCD56407E934F7","C569E99B68B8491792FCD56407E934F7","d5458185-00d9-4603-86c0-af54db09e139","54f8d589-66fc-4c65-830f-1dcc63bce8cc","{""participantId"":""C569E99B68B8491792FCD56407E934F7"",""assignmentId"":""d5458185-00d9-4603-86c0-af54db09e139"",""projectId"":""54f8d589-66fc-4c65-830f-1dcc63bce8cc""}","https://test12345.live/?participantId=C569E99B68B8491792FCD56407E934F7&assignmentId=d5458185-00d9-4603-86c0-af54db09e139&projectId=54f8d589-66fc-4c65-830f-1dcc63bce8cc","","null","<div style=""display: flex; justify-content: center; align-items: center;"">
                    <img src=""images/semantic/semantic_series_7/semantic_series_7_c.jpg"" style=""width: 300px; height: 300px;"" />
                  </div>","null","",""
"","","","","","html-keyboard-response","23","83545","0.0-17.0-3.0","C569E99B68B8491792FCD56407E934F7","C569E99B68B8491792FCD56407E934F7","d5458185-00d9-4603-86c0-af54db09e139","54f8d589-66fc-4c65-830f-1dcc63bce8cc","{""participantId"":""C569E99B68B8491792FCD56407E934F7"",""assignmentId"":""d5458185-00d9-4603-86c0-af54db09e139"",""projectId"":""54f8d589-66fc-4c65-830f-1dcc63bce8cc""}","https://test12345.live/?participantId=C569E99B68B8491792FCD56407E934F7&assignmentId=d5458185-00d9-4603-86c0-af54db09e139&projectId=54f8d589-66fc-4c65-830f-1dcc63bce8cc","","null","<div style=""display: flex; justify-content: center; align-items: center;"">
                    <img src=""images/semantic/semantic_series_7/semantic_series_7_d.jpg"" style=""width: 300px; height: 300px;"" />
                  </div>","null","",""
"","","","","","html-button-response","24","86778","0.0-18.0","C569E99B68B8491792FCD56407E934F7","C569E99B68B8491792FCD56407E934F7","d5458185-00d9-4603-86c0-af54db09e139","54f8d589-66fc-4c65-830f-1dcc63bce8cc","{""participantId"":""C569E99B68B8491792FCD56407E934F7"",""assignmentId"":""d5458185-00d9-4603-86c0-af54db09e139"",""projectId"":""54f8d589-66fc-4c65-830f-1dcc63bce8cc""}","https://test12345.live/?participantId=C569E99B68B8491792FCD56407E934F7&assignmentId=d5458185-00d9-4603-86c0-af54db09e139&projectId=54f8d589-66fc-4c65-830f-1dcc63bce8cc","","3232","Was there a person in the picture?","1","",""
"","","","","","survey-likert","25","89048","0.0-19.0","C569E99B68B8491792FCD56407E934F7","C569E99B68B8491792FCD56407E934F7","d5458185-00d9-4603-86c0-af54db09e139","54f8d589-66fc-4c65-830f-1dcc63bce8cc","{""participantId"":""C569E99B68B8491792FCD56407E934F7"",""assignmentId"":""d5458185-00d9-4603-86c0-af54db09e139"",""projectId"":""54f8d589-66fc-4c65-830f-1dcc63bce8cc""}","https://test12345.live/?participantId=C569E99B68B8491792FCD56407E934F7&assignmentId=d5458185-00d9-4603-86c0-af54db09e139&projectId=54f8d589-66fc-4c65-830f-1dcc63bce8cc","","2268","","{""Q0"":2}","","[0]"
"","","","","","html-button-response","26","90703","0.0-20.0","C569E99B68B8491792FCD56407E934F7","C569E99B68B8491792FCD56407E934F7","d5458185-00d9-4603-86c0-af54db09e139","54f8d589-66fc-4c65-830f-1dcc63bce8cc","{""participantId"":""C569E99B68B8491792FCD56407E934F7"",""assignmentId"":""d5458185-00d9-4603-86c0-af54db09e139"",""projectId"":""54f8d589-66fc-4c65-830f-1dcc63bce8cc""}","https://test12345.live/?participantId=C569E99B68B8491792FCD56407E934F7&assignmentId=d5458185-00d9-4603-86c0-af54db09e139&projectId=54f8d589-66fc-4c65-830f-1dcc63bce8cc","","1654","
    <div style=""display: flex; justify-content: center; align-items: center;"">
      <img src=""images/red_deck_2.png"" style=""width: 300px; height: 300px; margin-right: 10px;"" />
      <img src=""images/blue_deck_1.png"" style=""width: 300px; height: 300px;"" />
    </div>","0","0",""
"","","","","","html-keyboard-response","27","93706","0.0-21.0-0.0","C569E99B68B8491792FCD56407E934F7","C569E99B68B8491792FCD56407E934F7","d5458185-00d9-4603-86c0-af54db09e139","54f8d589-66fc-4c65-830f-1dcc63bce8cc","{""participantId"":""C569E99B68B8491792FCD56407E934F7"",""assignmentId"":""d5458185-00d9-4603-86c0-af54db09e139"",""projectId"":""54f8d589-66fc-4c65-830f-1dcc63bce8cc""}","https://test12345.live/?participantId=C569E99B68B8491792FCD56407E934F7&assignmentId=d5458185-00d9-4603-86c0-af54db09e139&projectId=54f8d589-66fc-4c65-830f-1dcc63bce8cc","","null","<div style=""display: flex; justify-content: center; align-items: center;"">
                    <img src=""images/causal/causal_series_4/causal_series_4_a.jpg"" style=""width: 300px; height: 300px;"" />
                  </div>","null","",""
"","","","","","html-keyboard-response","28","96712","0.0-21.0-1.0","C569E99B68B8491792FCD56407E934F7","C569E99B68B8491792FCD56407E934F7","d5458185-00d9-4603-86c0-af54db09e139","54f8d589-66fc-4c65-830f-1dcc63bce8cc","{""participantId"":""C569E99B68B8491792FCD56407E934F7"",""assignmentId"":""d5458185-00d9-4603-86c0-af54db09e139"",""projectId"":""54f8d589-66fc-4c65-830f-1dcc63bce8cc""}","https://test12345.live/?participantId=C569E99B68B8491792FCD56407E934F7&assignmentId=d5458185-00d9-4603-86c0-af54db09e139&projectId=54f8d589-66fc-4c65-830f-1dcc63bce8cc","","null","<div style=""display: flex; justify-content: center; align-items: center;"">
                    <img src=""images/causal/causal_series_4/causal_series_4_b.jpg"" style=""width: 300px; height: 300px;"" />
                  </div>","null","",""
"","","","","","html-keyboard-response","29","99728","0.0-21.0-2.0","C569E99B68B8491792FCD56407E934F7","C569E99B68B8491792FCD56407E934F7","d5458185-00d9-4603-86c0-af54db09e139","54f8d589-66fc-4c65-830f-1dcc63bce8cc","{""participantId"":""C569E99B68B8491792FCD56407E934F7"",""assignmentId"":""d5458185-00d9-4603-86c0-af54db09e139"",""projectId"":""54f8d589-66fc-4c65-830f-1dcc63bce8cc""}","https://test12345.live/?participantId=C569E99B68B8491792FCD56407E934F7&assignmentId=d5458185-00d9-4603-86c0-af54db09e139&projectId=54f8d589-66fc-4c65-830f-1dcc63bce8cc","","null","<div style=""display: flex; justify-content: center; align-items: center;"">
                    <img src=""images/causal/causal_series_4/causal_series_4_c.jpg"" style=""width: 300px; height: 300px;"" />
                  </div>","null","",""
"","","","","","html-keyboard-response","30","102737","0.0-21.0-3.0","C569E99B68B8491792FCD56407E934F7","C569E99B68B8491792FCD56407E934F7","d5458185-00d9-4603-86c0-af54db09e139","54f8d589-66fc-4c65-830f-1dcc63bce8cc","{""participantId"":""C569E99B68B8491792FCD56407E934F7"",""assignmentId"":""d5458185-00d9-4603-86c0-af54db09e139"",""projectId"":""54f8d589-66fc-4c65-830f-1dcc63bce8cc""}","https://test12345.live/?participantId=C569E99B68B8491792FCD56407E934F7&assignmentId=d5458185-00d9-4603-86c0-af54db09e139&projectId=54f8d589-66fc-4c65-830f-1dcc63bce8cc","","null","<div style=""display: flex; justify-content: center; align-items: center;"">
                    <img src=""images/causal/causal_series_4/causal_series_4_d.jpg"" style=""width: 300px; height: 300px;"" />
                  </div>","null","",""
"","","","","","html-button-response","31","103866","0.0-23.0","C569E99B68B8491792FCD56407E934F7","C569E99B68B8491792FCD56407E934F7","d5458185-00d9-4603-86c0-af54db09e139","54f8d589-66fc-4c65-830f-1dcc63bce8cc","{""participantId"":""C569E99B68B8491792FCD56407E934F7"",""assignmentId"":""d5458185-00d9-4603-86c0-af54db09e139"",""projectId"":""54f8d589-66fc-4c65-830f-1dcc63bce8cc""}","https://test12345.live/?participantId=C569E99B68B8491792FCD56407E934F7&assignmentId=d5458185-00d9-4603-86c0-af54db09e139&projectId=54f8d589-66fc-4c65-830f-1dcc63bce8cc","","1128","Was there a person in the picture?","1","",""
"","","","","","survey-likert","32","105502","0.0-24.0","C569E99B68B8491792FCD56407E934F7","C569E99B68B8491792FCD56407E934F7","d5458185-00d9-4603-86c0-af54db09e139","54f8d589-66fc-4c65-830f-1dcc63bce8cc","{""participantId"":""C569E99B68B8491792FCD56407E934F7"",""assignmentId"":""d5458185-00d9-4603-86c0-af54db09e139"",""projectId"":""54f8d589-66fc-4c65-830f-1dcc63bce8cc""}","https://test12345.live/?participantId=C569E99B68B8491792FCD56407E934F7&assignmentId=d5458185-00d9-4603-86c0-af54db09e139&projectId=54f8d589-66fc-4c65-830f-1dcc63bce8cc","","1634","","{""Q0"":3}","","[0]"
"","","","","","html-button-response","33","119422","0.0-25.0","C569E99B68B8491792FCD56407E934F7","C569E99B68B8491792FCD56407E934F7","d5458185-00d9-4603-86c0-af54db09e139","54f8d589-66fc-4c65-830f-1dcc63bce8cc","{""participantId"":""C569E99B68B8491792FCD56407E934F7"",""assignmentId"":""d5458185-00d9-4603-86c0-af54db09e139"",""projectId"":""54f8d589-66fc-4c65-830f-1dcc63bce8cc""}","https://test12345.live/?participantId=C569E99B68B8491792FCD56407E934F7&assignmentId=d5458185-00d9-4603-86c0-af54db09e139&projectId=54f8d589-66fc-4c65-830f-1dcc63bce8cc","","13919","
    <div style=""display: flex; justify-content: center; align-items: center;"">
      <img src=""images/red_deck_2.png"" style=""width: 300px; height: 300px; margin-right: 10px;"" />
      <img src=""images/blue_deck_1.png"" style=""width: 300px; height: 300px;"" />
    </div>","1","1",""
"","","","","","html-keyboard-response","34","122434","0.0-27.0-0.0","C569E99B68B8491792FCD56407E934F7","C569E99B68B8491792FCD56407E934F7","d5458185-00d9-4603-86c0-af54db09e139","54f8d589-66fc-4c65-830f-1dcc63bce8cc","{""participantId"":""C569E99B68B8491792FCD56407E934F7"",""assignmentId"":""d5458185-00d9-4603-86c0-af54db09e139"",""projectId"":""54f8d589-66fc-4c65-830f-1dcc63bce8cc""}","https://test12345.live/?participantId=C569E99B68B8491792FCD56407E934F7&assignmentId=d5458185-00d9-4603-86c0-af54db09e139&projectId=54f8d589-66fc-4c65-830f-1dcc63bce8cc","","null","<div style=""display: flex; justify-content: center; align-items: center;"">
                    <img src=""images/semantic/semantic_series_1/semantic_series_1_a.jpg"" style=""width: 300px; height: 300px;"" />
                  </div>","null","",""
"","","","","","html-keyboard-response","35","125439","0.0-27.0-1.0","C569E99B68B8491792FCD56407E934F7","C569E99B68B8491792FCD56407E934F7","d5458185-00d9-4603-86c0-af54db09e139","54f8d589-66fc-4c65-830f-1dcc63bce8cc","{""participantId"":""C569E99B68B8491792FCD56407E934F7"",""assignmentId"":""d5458185-00d9-4603-86c0-af54db09e139"",""projectId"":""54f8d589-66fc-4c65-830f-1dcc63bce8cc""}","https://test12345.live/?participantId=C569E99B68B8491792FCD56407E934F7&assignmentId=d5458185-00d9-4603-86c0-af54db09e139&projectId=54f8d589-66fc-4c65-830f-1dcc63bce8cc","","null","<div style=""display: flex; justify-content: center; align-items: center;"">
                    <img src=""images/semantic/semantic_series_1/semantic_series_1_b.jpg"" style=""width: 300px; height: 300px;"" />
                  </div>","null","",""
"","","","","","html-keyboard-response","36","128445","0.0-27.0-2.0","C569E99B68B8491792FCD56407E934F7","C569E99B68B8491792FCD56407E934F7","d5458185-00d9-4603-86c0-af54db09e139","54f8d589-66fc-4c65-830f-1dcc63bce8cc","{""participantId"":""C569E99B68B8491792FCD56407E934F7"",""assignmentId"":""d5458185-00d9-4603-86c0-af54db09e139"",""projectId"":""54f8d589-66fc-4c65-830f-1dcc63bce8cc""}","https://test12345.live/?participantId=C569E99B68B8491792FCD56407E934F7&assignmentId=d5458185-00d9-4603-86c0-af54db09e139&projectId=54f8d589-66fc-4c65-830f-1dcc63bce8cc","","null","<div style=""display: flex; justify-content: center; align-items: center;"">
                    <img src=""images/semantic/semantic_series_1/semantic_series_1_c.jpg"" style=""width: 300px; height: 300px;"" />
                  </div>","null","",""
"","","","","","html-keyboard-response","37","131461","0.0-27.0-3.0","C569E99B68B8491792FCD56407E934F7","C569E99B68B8491792FCD56407E934F7","d5458185-00d9-4603-86c0-af54db09e139","54f8d589-66fc-4c65-830f-1dcc63bce8cc","{""participantId"":""C569E99B68B8491792FCD56407E934F7"",""assignmentId"":""d5458185-00d9-4603-86c0-af54db09e139"",""projectId"":""54f8d589-66fc-4c65-830f-1dcc63bce8cc""}","https://test12345.live/?participantId=C569E99B68B8491792FCD56407E934F7&assignmentId=d5458185-00d9-4603-86c0-af54db09e139&projectId=54f8d589-66fc-4c65-830f-1dcc63bce8cc","","null","<div style=""display: flex; justify-content: center; align-items: center;"">
                    <img src=""images/semantic/semantic_series_1/semantic_series_1_d.jpg"" style=""width: 300px; height: 300px;"" />
                  </div>","null","",""
"","","","","","html-button-response","38","134783","0.0-28.0","C569E99B68B8491792FCD56407E934F7","C569E99B68B8491792FCD56407E934F7","d5458185-00d9-4603-86c0-af54db09e139","54f8d589-66fc-4c65-830f-1dcc63bce8cc","{""participantId"":""C569E99B68B8491792FCD56407E934F7"",""assignmentId"":""d5458185-00d9-4603-86c0-af54db09e139"",""projectId"":""54f8d589-66fc-4c65-830f-1dcc63bce8cc""}","https://test12345.live/?participantId=C569E99B68B8491792FCD56407E934F7&assignmentId=d5458185-00d9-4603-86c0-af54db09e139&projectId=54f8d589-66fc-4c65-830f-1dcc63bce8cc","","3321","Was there a person in the picture?","0","",""
"","","","","","survey-likert","39","136239","0.0-29.0","C569E99B68B8491792FCD56407E934F7","C569E99B68B8491792FCD56407E934F7","d5458185-00d9-4603-86c0-af54db09e139","54f8d589-66fc-4c65-830f-1dcc63bce8cc","{""participantId"":""C569E99B68B8491792FCD56407E934F7"",""assignmentId"":""d5458185-00d9-4603-86c0-af54db09e139"",""projectId"":""54f8d589-66fc-4c65-830f-1dcc63bce8cc""}","https://test12345.live/?participantId=C569E99B68B8491792FCD56407E934F7&assignmentId=d5458185-00d9-4603-86c0-af54db09e139&projectId=54f8d589-66fc-4c65-830f-1dcc63bce8cc","","1455","","{""Q0"":4}","","[0]"
"","","","","","html-button-response","40","137555","0.0-30.0","C569E99B68B8491792FCD56407E934F7","C569E99B68B8491792FCD56407E934F7","d5458185-00d9-4603-86c0-af54db09e139","54f8d589-66fc-4c65-830f-1dcc63bce8cc","{""participantId"":""C569E99B68B8491792FCD56407E934F7"",""assignmentId"":""d5458185-00d9-4603-86c0-af54db09e139"",""projectId"":""54f8d589-66fc-4c65-830f-1dcc63bce8cc""}","https://test12345.live/?participantId=C569E99B68B8491792FCD56407E934F7&assignmentId=d5458185-00d9-4603-86c0-af54db09e139&projectId=54f8d589-66fc-4c65-830f-1dcc63bce8cc","","1313","
    <div style=""display: flex; justify-content: center; align-items: center;"">
      <img src=""images/red_deck_2.png"" style=""width: 300px; height: 300px; margin-right: 10px;"" />
      <img src=""images/blue_deck_1.png"" style=""width: 300px; height: 300px;"" />
    </div>","1","1",""
"","","","","","html-keyboard-response","41","140560","0.0-32.0-0.0","C569E99B68B8491792FCD56407E934F7","C569E99B68B8491792FCD56407E934F7","d5458185-00d9-4603-86c0-af54db09e139","54f8d589-66fc-4c65-830f-1dcc63bce8cc","{""participantId"":""C569E99B68B8491792FCD56407E934F7"",""assignmentId"":""d5458185-00d9-4603-86c0-af54db09e139"",""projectId"":""54f8d589-66fc-4c65-830f-1dcc63bce8cc""}","https://test12345.live/?participantId=C569E99B68B8491792FCD56407E934F7&assignmentId=d5458185-00d9-4603-86c0-af54db09e139&projectId=54f8d589-66fc-4c65-830f-1dcc63bce8cc","","null","<div style=""display: flex; justify-content: center; align-items: center;"">
                    <img src=""images/semantic/semantic_series_6/semantic_series_6_a.jpg"" style=""width: 300px; height: 300px;"" />
                  </div>","null","",""
"","","","","","html-keyboard-response","42","143564","0.0-32.0-1.0","C569E99B68B8491792FCD56407E934F7","C569E99B68B8491792FCD56407E934F7","d5458185-00d9-4603-86c0-af54db09e139","54f8d589-66fc-4c65-830f-1dcc63bce8cc","{""participantId"":""C569E99B68B8491792FCD56407E934F7"",""assignmentId"":""d5458185-00d9-4603-86c0-af54db09e139"",""projectId"":""54f8d589-66fc-4c65-830f-1dcc63bce8cc""}","https://test12345.live/?participantId=C569E99B68B8491792FCD56407E934F7&assignmentId=d5458185-00d9-4603-86c0-af54db09e139&projectId=54f8d589-66fc-4c65-830f-1dcc63bce8cc","","null","<div style=""display: flex; justify-content: center; align-items: center;"">
                    <img src=""images/semantic/semantic_series_6/semantic_series_6_b.jpg"" style=""width: 300px; height: 300px;"" />
                  </div>","null","",""
"","","","","","html-keyboard-response","43","146566","0.0-32.0-2.0","C569E99B68B8491792FCD56407E934F7","C569E99B68B8491792FCD56407E934F7","d5458185-00d9-4603-86c0-af54db09e139","54f8d589-66fc-4c65-830f-1dcc63bce8cc","{""participantId"":""C569E99B68B8491792FCD56407E934F7"",""assignmentId"":""d5458185-00d9-4603-86c0-af54db09e139"",""projectId"":""54f8d589-66fc-4c65-830f-1dcc63bce8cc""}","https://test12345.live/?participantId=C569E99B68B8491792FCD56407E934F7&assignmentId=d5458185-00d9-4603-86c0-af54db09e139&projectId=54f8d589-66fc-4c65-830f-1dcc63bce8cc","","null","<div style=""display: flex; justify-content: center; align-items: center;"">
                    <img src=""images/semantic/semantic_series_6/semantic_series_6_c.jpg"" style=""width: 300px; height: 300px;"" />
                  </div>","null","",""
"","","","","","html-keyboard-response","44","149579","0.0-32.0-3.0","C569E99B68B8491792FCD56407E934F7","C569E99B68B8491792FCD56407E934F7","d5458185-00d9-4603-86c0-af54db09e139","54f8d589-66fc-4c65-830f-1dcc63bce8cc","{""participantId"":""C569E99B68B8491792FCD56407E934F7"",""assignmentId"":""d5458185-00d9-4603-86c0-af54db09e139"",""projectId"":""54f8d589-66fc-4c65-830f-1dcc63bce8cc""}","https://test12345.live/?participantId=C569E99B68B8491792FCD56407E934F7&assignmentId=d5458185-00d9-4603-86c0-af54db09e139&projectId=54f8d589-66fc-4c65-830f-1dcc63bce8cc","","null","<div style=""display: flex; justify-content: center; align-items: center;"">
                    <img src=""images/semantic/semantic_series_6/semantic_series_6_d.jpg"" style=""width: 300px; height: 300px;"" />
                  </div>","null","",""
"","","","","","html-button-response","45","156915","0.0-33.0","C569E99B68B8491792FCD56407E934F7","C569E99B68B8491792FCD56407E934F7","d5458185-00d9-4603-86c0-af54db09e139","54f8d589-66fc-4c65-830f-1dcc63bce8cc","{""participantId"":""C569E99B68B8491792FCD56407E934F7"",""assignmentId"":""d5458185-00d9-4603-86c0-af54db09e139"",""projectId"":""54f8d589-66fc-4c65-830f-1dcc63bce8cc""}","https://test12345.live/?participantId=C569E99B68B8491792FCD56407E934F7&assignmentId=d5458185-00d9-4603-86c0-af54db09e139&projectId=54f8d589-66fc-4c65-830f-1dcc63bce8cc","","7335","Was there a person in the picture?","1","",""
"","","","","","survey-likert","46","158790","0.0-34.0","C569E99B68B8491792FCD56407E934F7","C569E99B68B8491792FCD56407E934F7","d5458185-00d9-4603-86c0-af54db09e139","54f8d589-66fc-4c65-830f-1dcc63bce8cc","{""participantId"":""C569E99B68B8491792FCD56407E934F7"",""assignmentId"":""d5458185-00d9-4603-86c0-af54db09e139"",""projectId"":""54f8d589-66fc-4c65-830f-1dcc63bce8cc""}","https://test12345.live/?participantId=C569E99B68B8491792FCD56407E934F7&assignmentId=d5458185-00d9-4603-86c0-af54db09e139&projectId=54f8d589-66fc-4c65-830f-1dcc63bce8cc","","1873","","{""Q0"":3}","","[0]"
"","","","","","html-button-response","47","160057","0.0-35.0","C569E99B68B8491792FCD56407E934F7","C569E99B68B8491792FCD56407E934F7","d5458185-00d9-4603-86c0-af54db09e139","54f8d589-66fc-4c65-830f-1dcc63bce8cc","{""participantId"":""C569E99B68B8491792FCD56407E934F7"",""assignmentId"":""d5458185-00d9-4603-86c0-af54db09e139"",""projectId"":""54f8d589-66fc-4c65-830f-1dcc63bce8cc""}","https://test12345.live/?participantId=C569E99B68B8491792FCD56407E934F7&assignmentId=d5458185-00d9-4603-86c0-af54db09e139&projectId=54f8d589-66fc-4c65-830f-1dcc63bce8cc","","1266","
    <div style=""display: flex; justify-content: center; align-items: center;"">
      <img src=""images/red_deck_2.png"" style=""width: 300px; height: 300px; margin-right: 10px;"" />
      <img src=""images/blue_deck_1.png"" style=""width: 300px; height: 300px;"" />
    </div>","0","0",""
"","","","","","html-keyboard-response","48","163074","0.0-36.0-0.0","C569E99B68B8491792FCD56407E934F7","C569E99B68B8491792FCD56407E934F7","d5458185-00d9-4603-86c0-af54db09e139","54f8d589-66fc-4c65-830f-1dcc63bce8cc","{""participantId"":""C569E99B68B8491792FCD56407E934F7"",""assignmentId"":""d5458185-00d9-4603-86c0-af54db09e139"",""projectId"":""54f8d589-66fc-4c65-830f-1dcc63bce8cc""}","https://test12345.live/?participantId=C569E99B68B8491792FCD56407E934F7&assignmentId=d5458185-00d9-4603-86c0-af54db09e139&projectId=54f8d589-66fc-4c65-830f-1dcc63bce8cc","","null","<div style=""display: flex; justify-content: center; align-items: center;"">
                    <img src=""images/causal/causal_series_11/causal_series_11_a.jpg"" style=""width: 300px; height: 300px;"" />
                  </div>","null","",""
"","","","","","html-keyboard-response","49","166082","0.0-36.0-1.0","C569E99B68B8491792FCD56407E934F7","C569E99B68B8491792FCD56407E934F7","d5458185-00d9-4603-86c0-af54db09e139","54f8d589-66fc-4c65-830f-1dcc63bce8cc","{""participantId"":""C569E99B68B8491792FCD56407E934F7"",""assignmentId"":""d5458185-00d9-4603-86c0-af54db09e139"",""projectId"":""54f8d589-66fc-4c65-830f-1dcc63bce8cc""}","https://test12345.live/?participantId=C569E99B68B8491792FCD56407E934F7&assignmentId=d5458185-00d9-4603-86c0-af54db09e139&projectId=54f8d589-66fc-4c65-830f-1dcc63bce8cc","","null","<div style=""display: flex; justify-content: center; align-items: center;"">
                    <img src=""images/causal/causal_series_11/causal_series_11_b.jpg"" style=""width: 300px; height: 300px;"" />
                  </div>","null","",""
"","","","","","html-keyboard-response","50","169092","0.0-36.0-2.0","C569E99B68B8491792FCD56407E934F7","C569E99B68B8491792FCD56407E934F7","d5458185-00d9-4603-86c0-af54db09e139","54f8d589-66fc-4c65-830f-1dcc63bce8cc","{""participantId"":""C569E99B68B8491792FCD56407E934F7"",""assignmentId"":""d5458185-00d9-4603-86c0-af54db09e139"",""projectId"":""54f8d589-66fc-4c65-830f-1dcc63bce8cc""}","https://test12345.live/?participantId=C569E99B68B8491792FCD56407E934F7&assignmentId=d5458185-00d9-4603-86c0-af54db09e139&projectId=54f8d589-66fc-4c65-830f-1dcc63bce8cc","","null","<div style=""display: flex; justify-content: center; align-items: center;"">
                    <img src=""images/causal/causal_series_11/causal_series_11_c.jpg"" style=""width: 300px; height: 300px;"" />
                  </div>","null","",""
"","","","","","html-keyboard-response","51","172109","0.0-36.0-3.0","C569E99B68B8491792FCD56407E934F7","C569E99B68B8491792FCD56407E934F7","d5458185-00d9-4603-86c0-af54db09e139","54f8d589-66fc-4c65-830f-1dcc63bce8cc","{""participantId"":""C569E99B68B8491792FCD56407E934F7"",""assignmentId"":""d5458185-00d9-4603-86c0-af54db09e139"",""projectId"":""54f8d589-66fc-4c65-830f-1dcc63bce8cc""}","https://test12345.live/?participantId=C569E99B68B8491792FCD56407E934F7&assignmentId=d5458185-00d9-4603-86c0-af54db09e139&projectId=54f8d589-66fc-4c65-830f-1dcc63bce8cc","","null","<div style=""display: flex; justify-content: center; align-items: center;"">
                    <img src=""images/causal/causal_series_11/causal_series_11_d.jpg"" style=""width: 300px; height: 300px;"" />
                  </div>","null","",""
"","","","","","html-button-response","52","179310","0.0-38.0","C569E99B68B8491792FCD56407E934F7","C569E99B68B8491792FCD56407E934F7","d5458185-00d9-4603-86c0-af54db09e139","54f8d589-66fc-4c65-830f-1dcc63bce8cc","{""participantId"":""C569E99B68B8491792FCD56407E934F7"",""assignmentId"":""d5458185-00d9-4603-86c0-af54db09e139"",""projectId"":""54f8d589-66fc-4c65-830f-1dcc63bce8cc""}","https://test12345.live/?participantId=C569E99B68B8491792FCD56407E934F7&assignmentId=d5458185-00d9-4603-86c0-af54db09e139&projectId=54f8d589-66fc-4c65-830f-1dcc63bce8cc","","7199","Was there a person in the picture?","1","",""
"","","","","","survey-likert","53","181454","0.0-39.0","C569E99B68B8491792FCD56407E934F7","C569E99B68B8491792FCD56407E934F7","d5458185-00d9-4603-86c0-af54db09e139","54f8d589-66fc-4c65-830f-1dcc63bce8cc","{""participantId"":""C569E99B68B8491792FCD56407E934F7"",""assignmentId"":""d5458185-00d9-4603-86c0-af54db09e139"",""projectId"":""54f8d589-66fc-4c65-830f-1dcc63bce8cc""}","https://test12345.live/?participantId=C569E99B68B8491792FCD56407E934F7&assignmentId=d5458185-00d9-4603-86c0-af54db09e139&projectId=54f8d589-66fc-4c65-830f-1dcc63bce8cc","","2143","","{""Q0"":3}","","[0]"
"","","","","","html-button-response","54","183780","0.0-40.0","C569E99B68B8491792FCD56407E934F7","C569E99B68B8491792FCD56407E934F7","d5458185-00d9-4603-86c0-af54db09e139","54f8d589-66fc-4c65-830f-1dcc63bce8cc","{""participantId"":""C569E99B68B8491792FCD56407E934F7"",""assignmentId"":""d5458185-00d9-4603-86c0-af54db09e139"",""projectId"":""54f8d589-66fc-4c65-830f-1dcc63bce8cc""}","https://test12345.live/?participantId=C569E99B68B8491792FCD56407E934F7&assignmentId=d5458185-00d9-4603-86c0-af54db09e139&projectId=54f8d589-66fc-4c65-830f-1dcc63bce8cc","","2325","
    <div style=""display: flex; justify-content: center; align-items: center;"">
      <img src=""images/red_deck_2.png"" style=""width: 300px; height: 300px; margin-right: 10px;"" />
      <img src=""images/blue_deck_1.png"" style=""width: 300px; height: 300px;"" />
    </div>","1","1",""
"","","","","","html-keyboard-response","55","186785","0.0-42.0-0.0","C569E99B68B8491792FCD56407E934F7","C569E99B68B8491792FCD56407E934F7","d5458185-00d9-4603-86c0-af54db09e139","54f8d589-66fc-4c65-830f-1dcc63bce8cc","{""participantId"":""C569E99B68B8491792FCD56407E934F7"",""assignmentId"":""d5458185-00d9-4603-86c0-af54db09e139"",""projectId"":""54f8d589-66fc-4c65-830f-1dcc63bce8cc""}","https://test12345.live/?participantId=C569E99B68B8491792FCD56407E934F7&assignmentId=d5458185-00d9-4603-86c0-af54db09e139&projectId=54f8d589-66fc-4c65-830f-1dcc63bce8cc","","null","<div style=""display: flex; justify-content: center; align-items: center;"">
                    <img src=""images/semantic/semantic_series_12/semantic_series_12_a.jpg"" style=""width: 300px; height: 300px;"" />
                  </div>","null","",""
"","","","","","html-keyboard-response","56","189800","0.0-42.0-1.0","C569E99B68B8491792FCD56407E934F7","C569E99B68B8491792FCD56407E934F7","d5458185-00d9-4603-86c0-af54db09e139","54f8d589-66fc-4c65-830f-1dcc63bce8cc","{""participantId"":""C569E99B68B8491792FCD56407E934F7"",""assignmentId"":""d5458185-00d9-4603-86c0-af54db09e139"",""projectId"":""54f8d589-66fc-4c65-830f-1dcc63bce8cc""}","https://test12345.live/?participantId=C569E99B68B8491792FCD56407E934F7&assignmentId=d5458185-00d9-4603-86c0-af54db09e139&projectId=54f8d589-66fc-4c65-830f-1dcc63bce8cc","","null","<div style=""display: flex; justify-content: center; align-items: center;"">
                    <img src=""images/semantic/semantic_series_12/semantic_series_12_b.jpg"" style=""width: 300px; height: 300px;"" />
                  </div>","null","",""
"","","","","","html-keyboard-response","57","192817","0.0-42.0-2.0","C569E99B68B8491792FCD56407E934F7","C569E99B68B8491792FCD56407E934F7","d5458185-00d9-4603-86c0-af54db09e139","54f8d589-66fc-4c65-830f-1dcc63bce8cc","{""participantId"":""C569E99B68B8491792FCD56407E934F7"",""assignmentId"":""d5458185-00d9-4603-86c0-af54db09e139"",""projectId"":""54f8d589-66fc-4c65-830f-1dcc63bce8cc""}","https://test12345.live/?participantId=C569E99B68B8491792FCD56407E934F7&assignmentId=d5458185-00d9-4603-86c0-af54db09e139&projectId=54f8d589-66fc-4c65-830f-1dcc63bce8cc","","null","<div style=""display: flex; justify-content: center; align-items: center;"">
                    <img src=""images/semantic/semantic_series_12/semantic_series_12_c.jpg"" style=""width: 300px; height: 300px;"" />
                  </div>","null","",""
"","","","","","html-keyboard-response","58","195826","0.0-42.0-3.0","C569E99B68B8491792FCD56407E934F7","C569E99B68B8491792FCD56407E934F7","d5458185-00d9-4603-86c0-af54db09e139","54f8d589-66fc-4c65-830f-1dcc63bce8cc","{""participantId"":""C569E99B68B8491792FCD56407E934F7"",""assignmentId"":""d5458185-00d9-4603-86c0-af54db09e139"",""projectId"":""54f8d589-66fc-4c65-830f-1dcc63bce8cc""}","https://test12345.live/?participantId=C569E99B68B8491792FCD56407E934F7&assignmentId=d5458185-00d9-4603-86c0-af54db09e139&projectId=54f8d589-66fc-4c65-830f-1dcc63bce8cc","","null","<div style=""display: flex; justify-content: center; align-items: center;"">
                    <img src=""images/semantic/semantic_series_12/semantic_series_12_d.jpg"" style=""width: 300px; height: 300px;"" />
                  </div>","null","",""
"","","","","","html-button-response","59","202419","0.0-43.0","C569E99B68B8491792FCD56407E934F7","C569E99B68B8491792FCD56407E934F7","d5458185-00d9-4603-86c0-af54db09e139","54f8d589-66fc-4c65-830f-1dcc63bce8cc","{""participantId"":""C569E99B68B8491792FCD56407E934F7"",""assignmentId"":""d5458185-00d9-4603-86c0-af54db09e139"",""projectId"":""54f8d589-66fc-4c65-830f-1dcc63bce8cc""}","https://test12345.live/?participantId=C569E99B68B8491792FCD56407E934F7&assignmentId=d5458185-00d9-4603-86c0-af54db09e139&projectId=54f8d589-66fc-4c65-830f-1dcc63bce8cc","","6593","Was there a person in the picture?","1","",""
"","","","","","survey-likert","60","204093","0.0-44.0","C569E99B68B8491792FCD56407E934F7","C569E99B68B8491792FCD56407E934F7","d5458185-00d9-4603-86c0-af54db09e139","54f8d589-66fc-4c65-830f-1dcc63bce8cc","{""participantId"":""C569E99B68B8491792FCD56407E934F7"",""assignmentId"":""d5458185-00d9-4603-86c0-af54db09e139"",""projectId"":""54f8d589-66fc-4c65-830f-1dcc63bce8cc""}","https://test12345.live/?participantId=C569E99B68B8491792FCD56407E934F7&assignmentId=d5458185-00d9-4603-86c0-af54db09e139&projectId=54f8d589-66fc-4c65-830f-1dcc63bce8cc","","1673","","{""Q0"":4}","","[0]"
"","","","","","html-button-response","61","207041","0.0-45.0","C569E99B68B8491792FCD56407E934F7","C569E99B68B8491792FCD56407E934F7","d5458185-00d9-4603-86c0-af54db09e139","54f8d589-66fc-4c65-830f-1dcc63bce8cc","{""participantId"":""C569E99B68B8491792FCD56407E934F7"",""assignmentId"":""d5458185-00d9-4603-86c0-af54db09e139"",""projectId"":""54f8d589-66fc-4c65-830f-1dcc63bce8cc""}","https://test12345.live/?participantId=C569E99B68B8491792FCD56407E934F7&assignmentId=d5458185-00d9-4603-86c0-af54db09e139&projectId=54f8d589-66fc-4c65-830f-1dcc63bce8cc","","2946","
    <div style=""display: flex; justify-content: center; align-items: center;"">
      <img src=""images/red_deck_2.png"" style=""width: 300px; height: 300px; margin-right: 10px;"" />
      <img src=""images/blue_deck_1.png"" style=""width: 300px; height: 300px;"" />
    </div>","0","0",""
"","","","","","html-keyboard-response","62","210058","0.0-46.0-0.0","C569E99B68B8491792FCD56407E934F7","C569E99B68B8491792FCD56407E934F7","d5458185-00d9-4603-86c0-af54db09e139","54f8d589-66fc-4c65-830f-1dcc63bce8cc","{""participantId"":""C569E99B68B8491792FCD56407E934F7"",""assignmentId"":""d5458185-00d9-4603-86c0-af54db09e139"",""projectId"":""54f8d589-66fc-4c65-830f-1dcc63bce8cc""}","https://test12345.live/?participantId=C569E99B68B8491792FCD56407E934F7&assignmentId=d5458185-00d9-4603-86c0-af54db09e139&projectId=54f8d589-66fc-4c65-830f-1dcc63bce8cc","","null","<div style=""display: flex; justify-content: center; align-items: center;"">
                    <img src=""images/causal/causal_series_15/causal_series_15_a.jpg"" style=""width: 300px; height: 300px;"" />
                  </div>","null","",""
"","","","","","html-keyboard-response","63","213071","0.0-46.0-1.0","C569E99B68B8491792FCD56407E934F7","C569E99B68B8491792FCD56407E934F7","d5458185-00d9-4603-86c0-af54db09e139","54f8d589-66fc-4c65-830f-1dcc63bce8cc","{""participantId"":""C569E99B68B8491792FCD56407E934F7"",""assignmentId"":""d5458185-00d9-4603-86c0-af54db09e139"",""projectId"":""54f8d589-66fc-4c65-830f-1dcc63bce8cc""}","https://test12345.live/?participantId=C569E99B68B8491792FCD56407E934F7&assignmentId=d5458185-00d9-4603-86c0-af54db09e139&projectId=54f8d589-66fc-4c65-830f-1dcc63bce8cc","","null","<div style=""display: flex; justify-content: center; align-items: center;"">
                    <img src=""images/causal/causal_series_15/causal_series_15_b.jpg"" style=""width: 300px; height: 300px;"" />
                  </div>","null","",""
"","","","","","html-keyboard-response","64","216073","0.0-46.0-2.0","C569E99B68B8491792FCD56407E934F7","C569E99B68B8491792FCD56407E934F7","d5458185-00d9-4603-86c0-af54db09e139","54f8d589-66fc-4c65-830f-1dcc63bce8cc","{""participantId"":""C569E99B68B8491792FCD56407E934F7"",""assignmentId"":""d5458185-00d9-4603-86c0-af54db09e139"",""projectId"":""54f8d589-66fc-4c65-830f-1dcc63bce8cc""}","https://test12345.live/?participantId=C569E99B68B8491792FCD56407E934F7&assignmentId=d5458185-00d9-4603-86c0-af54db09e139&projectId=54f8d589-66fc-4c65-830f-1dcc63bce8cc","","null","<div style=""display: flex; justify-content: center; align-items: center;"">
                    <img src=""images/causal/causal_series_15/causal_series_15_c.jpg"" style=""width: 300px; height: 300px;"" />
                  </div>","null","",""
"","","","","","html-keyboard-response","65","219075","0.0-46.0-3.0","C569E99B68B8491792FCD56407E934F7","C569E99B68B8491792FCD56407E934F7","d5458185-00d9-4603-86c0-af54db09e139","54f8d589-66fc-4c65-830f-1dcc63bce8cc","{""participantId"":""C569E99B68B8491792FCD56407E934F7"",""assignmentId"":""d5458185-00d9-4603-86c0-af54db09e139"",""projectId"":""54f8d589-66fc-4c65-830f-1dcc63bce8cc""}","https://test12345.live/?participantId=C569E99B68B8491792FCD56407E934F7&assignmentId=d5458185-00d9-4603-86c0-af54db09e139&projectId=54f8d589-66fc-4c65-830f-1dcc63bce8cc","","null","<div style=""display: flex; justify-content: center; align-items: center;"">
                    <img src=""images/causal/causal_series_15/causal_series_15_d.jpg"" style=""width: 300px; height: 300px;"" />
                  </div>","null","",""
"","","","","","html-button-response","66","221019","0.0-48.0","C569E99B68B8491792FCD56407E934F7","C569E99B68B8491792FCD56407E934F7","d5458185-00d9-4603-86c0-af54db09e139","54f8d589-66fc-4c65-830f-1dcc63bce8cc","{""participantId"":""C569E99B68B8491792FCD56407E934F7"",""assignmentId"":""d5458185-00d9-4603-86c0-af54db09e139"",""projectId"":""54f8d589-66fc-4c65-830f-1dcc63bce8cc""}","https://test12345.live/?participantId=C569E99B68B8491792FCD56407E934F7&assignmentId=d5458185-00d9-4603-86c0-af54db09e139&projectId=54f8d589-66fc-4c65-830f-1dcc63bce8cc","","1943","Was there a person in the picture?","0","",""
"","","","","","survey-likert","67","223875","0.0-49.0","C569E99B68B8491792FCD56407E934F7","C569E99B68B8491792FCD56407E934F7","d5458185-00d9-4603-86c0-af54db09e139","54f8d589-66fc-4c65-830f-1dcc63bce8cc","{""participantId"":""C569E99B68B8491792FCD56407E934F7"",""assignmentId"":""d5458185-00d9-4603-86c0-af54db09e139"",""projectId"":""54f8d589-66fc-4c65-830f-1dcc63bce8cc""}","https://test12345.live/?participantId=C569E99B68B8491792FCD56407E934F7&assignmentId=d5458185-00d9-4603-86c0-af54db09e139&projectId=54f8d589-66fc-4c65-830f-1dcc63bce8cc","","2855","","{""Q0"":3}","","[0]"
"","","","","","html-button-response","68","225305","0.0-50.0","C569E99B68B8491792FCD56407E934F7","C569E99B68B8491792FCD56407E934F7","d5458185-00d9-4603-86c0-af54db09e139","54f8d589-66fc-4c65-830f-1dcc63bce8cc","{""participantId"":""C569E99B68B8491792FCD56407E934F7"",""assignmentId"":""d5458185-00d9-4603-86c0-af54db09e139"",""projectId"":""54f8d589-66fc-4c65-830f-1dcc63bce8cc""}","https://test12345.live/?participantId=C569E99B68B8491792FCD56407E934F7&assignmentId=d5458185-00d9-4603-86c0-af54db09e139&projectId=54f8d589-66fc-4c65-830f-1dcc63bce8cc","","1429","
    <div style=""display: flex; justify-content: center; align-items: center;"">
      <img src=""images/red_deck_2.png"" style=""width: 300px; height: 300px; margin-right: 10px;"" />
      <img src=""images/blue_deck_1.png"" style=""width: 300px; height: 300px;"" />
    </div>","0","0",""
"","","","","","html-keyboard-response","69","228313","0.0-51.0-0.0","C569E99B68B8491792FCD56407E934F7","C569E99B68B8491792FCD56407E934F7","d5458185-00d9-4603-86c0-af54db09e139","54f8d589-66fc-4c65-830f-1dcc63bce8cc","{""participantId"":""C569E99B68B8491792FCD56407E934F7"",""assignmentId"":""d5458185-00d9-4603-86c0-af54db09e139"",""projectId"":""54f8d589-66fc-4c65-830f-1dcc63bce8cc""}","https://test12345.live/?participantId=C569E99B68B8491792FCD56407E934F7&assignmentId=d5458185-00d9-4603-86c0-af54db09e139&projectId=54f8d589-66fc-4c65-830f-1dcc63bce8cc","","null","<div style=""display: flex; justify-content: center; align-items: center;"">
                    <img src=""images/causal/causal_series_6/causal_series_6_a.jpg"" style=""width: 300px; height: 300px;"" />
                  </div>","null","",""
"","","","","","html-keyboard-response","70","231320","0.0-51.0-1.0","C569E99B68B8491792FCD56407E934F7","C569E99B68B8491792FCD56407E934F7","d5458185-00d9-4603-86c0-af54db09e139","54f8d589-66fc-4c65-830f-1dcc63bce8cc","{""participantId"":""C569E99B68B8491792FCD56407E934F7"",""assignmentId"":""d5458185-00d9-4603-86c0-af54db09e139"",""projectId"":""54f8d589-66fc-4c65-830f-1dcc63bce8cc""}","https://test12345.live/?participantId=C569E99B68B8491792FCD56407E934F7&assignmentId=d5458185-00d9-4603-86c0-af54db09e139&projectId=54f8d589-66fc-4c65-830f-1dcc63bce8cc","","null","<div style=""display: flex; justify-content: center; align-items: center;"">
                    <img src=""images/causal/causal_series_6/causal_series_6_b.jpg"" style=""width: 300px; height: 300px;"" />
                  </div>","null","",""
"","","","","","html-keyboard-response","71","234333","0.0-51.0-2.0","C569E99B68B8491792FCD56407E934F7","C569E99B68B8491792FCD56407E934F7","d5458185-00d9-4603-86c0-af54db09e139","54f8d589-66fc-4c65-830f-1dcc63bce8cc","{""participantId"":""C569E99B68B8491792FCD56407E934F7"",""assignmentId"":""d5458185-00d9-4603-86c0-af54db09e139"",""projectId"":""54f8d589-66fc-4c65-830f-1dcc63bce8cc""}","https://test12345.live/?participantId=C569E99B68B8491792FCD56407E934F7&assignmentId=d5458185-00d9-4603-86c0-af54db09e139&projectId=54f8d589-66fc-4c65-830f-1dcc63bce8cc","","null","<div style=""display: flex; justify-content: center; align-items: center;"">
                    <img src=""images/causal/causal_series_6/causal_series_6_c.jpg"" style=""width: 300px; height: 300px;"" />
                  </div>","null","",""
"","","","","","html-keyboard-response","72","237346","0.0-51.0-3.0","C569E99B68B8491792FCD56407E934F7","C569E99B68B8491792FCD56407E934F7","d5458185-00d9-4603-86c0-af54db09e139","54f8d589-66fc-4c65-830f-1dcc63bce8cc","{""participantId"":""C569E99B68B8491792FCD56407E934F7"",""assignmentId"":""d5458185-00d9-4603-86c0-af54db09e139"",""projectId"":""54f8d589-66fc-4c65-830f-1dcc63bce8cc""}","https://test12345.live/?participantId=C569E99B68B8491792FCD56407E934F7&assignmentId=d5458185-00d9-4603-86c0-af54db09e139&projectId=54f8d589-66fc-4c65-830f-1dcc63bce8cc","","null","<div style=""display: flex; justify-content: center; align-items: center;"">
                    <img src=""images/causal/causal_series_6/causal_series_6_d.jpg"" style=""width: 300px; height: 300px;"" />
                  </div>","null","",""
"","","","","","html-button-response","73","239745","0.0-53.0","C569E99B68B8491792FCD56407E934F7","C569E99B68B8491792FCD56407E934F7","d5458185-00d9-4603-86c0-af54db09e139","54f8d589-66fc-4c65-830f-1dcc63bce8cc","{""participantId"":""C569E99B68B8491792FCD56407E934F7"",""assignmentId"":""d5458185-00d9-4603-86c0-af54db09e139"",""projectId"":""54f8d589-66fc-4c65-830f-1dcc63bce8cc""}","https://test12345.live/?participantId=C569E99B68B8491792FCD56407E934F7&assignmentId=d5458185-00d9-4603-86c0-af54db09e139&projectId=54f8d589-66fc-4c65-830f-1dcc63bce8cc","","2397","Was there a person in the picture?","1","",""
"","","","","","survey-likert","74","241953","0.0-54.0","C569E99B68B8491792FCD56407E934F7","C569E99B68B8491792FCD56407E934F7","d5458185-00d9-4603-86c0-af54db09e139","54f8d589-66fc-4c65-830f-1dcc63bce8cc","{""participantId"":""C569E99B68B8491792FCD56407E934F7"",""assignmentId"":""d5458185-00d9-4603-86c0-af54db09e139"",""projectId"":""54f8d589-66fc-4c65-830f-1dcc63bce8cc""}","https://test12345.live/?participantId=C569E99B68B8491792FCD56407E934F7&assignmentId=d5458185-00d9-4603-86c0-af54db09e139&projectId=54f8d589-66fc-4c65-830f-1dcc63bce8cc","","2206","","{""Q0"":3}","","[0]"
"","","","","","html-button-response","75","243417","0.0-55.0","C569E99B68B8491792FCD56407E934F7","C569E99B68B8491792FCD56407E934F7","d5458185-00d9-4603-86c0-af54db09e139","54f8d589-66fc-4c65-830f-1dcc63bce8cc","{""participantId"":""C569E99B68B8491792FCD56407E934F7"",""assignmentId"":""d5458185-00d9-4603-86c0-af54db09e139"",""projectId"":""54f8d589-66fc-4c65-830f-1dcc63bce8cc""}","https://test12345.live/?participantId=C569E99B68B8491792FCD56407E934F7&assignmentId=d5458185-00d9-4603-86c0-af54db09e139&projectId=54f8d589-66fc-4c65-830f-1dcc63bce8cc","","1460","
    <div style=""display: flex; justify-content: center; align-items: center;"">
      <img src=""images/red_deck_2.png"" style=""width: 300px; height: 300px; margin-right: 10px;"" />
      <img src=""images/blue_deck_1.png"" style=""width: 300px; height: 300px;"" />
    </div>","0","0",""
"","","","","","html-keyboard-response","76","246427","0.0-56.0-0.0","C569E99B68B8491792FCD56407E934F7","C569E99B68B8491792FCD56407E934F7","d5458185-00d9-4603-86c0-af54db09e139","54f8d589-66fc-4c65-830f-1dcc63bce8cc","{""participantId"":""C569E99B68B8491792FCD56407E934F7"",""assignmentId"":""d5458185-00d9-4603-86c0-af54db09e139"",""projectId"":""54f8d589-66fc-4c65-830f-1dcc63bce8cc""}","https://test12345.live/?participantId=C569E99B68B8491792FCD56407E934F7&assignmentId=d5458185-00d9-4603-86c0-af54db09e139&projectId=54f8d589-66fc-4c65-830f-1dcc63bce8cc","","null","<div style=""display: flex; justify-content: center; align-items: center;"">
                    <img src=""images/causal/causal_series_2/causal_series_2_a.jpg"" style=""width: 300px; height: 300px;"" />
                  </div>","null","",""
"","","","","","html-keyboard-response","77","249432","0.0-56.0-1.0","C569E99B68B8491792FCD56407E934F7","C569E99B68B8491792FCD56407E934F7","d5458185-00d9-4603-86c0-af54db09e139","54f8d589-66fc-4c65-830f-1dcc63bce8cc","{""participantId"":""C569E99B68B8491792FCD56407E934F7"",""assignmentId"":""d5458185-00d9-4603-86c0-af54db09e139"",""projectId"":""54f8d589-66fc-4c65-830f-1dcc63bce8cc""}","https://test12345.live/?participantId=C569E99B68B8491792FCD56407E934F7&assignmentId=d5458185-00d9-4603-86c0-af54db09e139&projectId=54f8d589-66fc-4c65-830f-1dcc63bce8cc","","null","<div style=""display: flex; justify-content: center; align-items: center;"">
                    <img src=""images/causal/causal_series_2/causal_series_2_b.jpg"" style=""width: 300px; height: 300px;"" />
                  </div>","null","",""
"","","","","","html-keyboard-response","78","252442","0.0-56.0-2.0","C569E99B68B8491792FCD56407E934F7","C569E99B68B8491792FCD56407E934F7","d5458185-00d9-4603-86c0-af54db09e139","54f8d589-66fc-4c65-830f-1dcc63bce8cc","{""participantId"":""C569E99B68B8491792FCD56407E934F7"",""assignmentId"":""d5458185-00d9-4603-86c0-af54db09e139"",""projectId"":""54f8d589-66fc-4c65-830f-1dcc63bce8cc""}","https://test12345.live/?participantId=C569E99B68B8491792FCD56407E934F7&assignmentId=d5458185-00d9-4603-86c0-af54db09e139&projectId=54f8d589-66fc-4c65-830f-1dcc63bce8cc","","null","<div style=""display: flex; justify-content: center; align-items: center;"">
                    <img src=""images/causal/causal_series_2/causal_series_2_c.jpg"" style=""width: 300px; height: 300px;"" />
                  </div>","null","",""
"","","","","","html-keyboard-response","79","255444","0.0-56.0-3.0","C569E99B68B8491792FCD56407E934F7","C569E99B68B8491792FCD56407E934F7","d5458185-00d9-4603-86c0-af54db09e139","54f8d589-66fc-4c65-830f-1dcc63bce8cc","{""participantId"":""C569E99B68B8491792FCD56407E934F7"",""assignmentId"":""d5458185-00d9-4603-86c0-af54db09e139"",""projectId"":""54f8d589-66fc-4c65-830f-1dcc63bce8cc""}","https://test12345.live/?participantId=C569E99B68B8491792FCD56407E934F7&assignmentId=d5458185-00d9-4603-86c0-af54db09e139&projectId=54f8d589-66fc-4c65-830f-1dcc63bce8cc","","null","<div style=""display: flex; justify-content: center; align-items: center;"">
                    <img src=""images/causal/causal_series_2/causal_series_2_d.jpg"" style=""width: 300px; height: 300px;"" />
                  </div>","null","",""
"","","","","","html-button-response","80","257431","0.0-58.0","C569E99B68B8491792FCD56407E934F7","C569E99B68B8491792FCD56407E934F7","d5458185-00d9-4603-86c0-af54db09e139","54f8d589-66fc-4c65-830f-1dcc63bce8cc","{""participantId"":""C569E99B68B8491792FCD56407E934F7"",""assignmentId"":""d5458185-00d9-4603-86c0-af54db09e139"",""projectId"":""54f8d589-66fc-4c65-830f-1dcc63bce8cc""}","https://test12345.live/?participantId=C569E99B68B8491792FCD56407E934F7&assignmentId=d5458185-00d9-4603-86c0-af54db09e139&projectId=54f8d589-66fc-4c65-830f-1dcc63bce8cc","","1985","Was there a person in the picture?","0","",""
"","","","","","survey-likert","81","258987","0.0-59.0","C569E99B68B8491792FCD56407E934F7","C569E99B68B8491792FCD56407E934F7","d5458185-00d9-4603-86c0-af54db09e139","54f8d589-66fc-4c65-830f-1dcc63bce8cc","{""participantId"":""C569E99B68B8491792FCD56407E934F7"",""assignmentId"":""d5458185-00d9-4603-86c0-af54db09e139"",""projectId"":""54f8d589-66fc-4c65-830f-1dcc63bce8cc""}","https://test12345.live/?participantId=C569E99B68B8491792FCD56407E934F7&assignmentId=d5458185-00d9-4603-86c0-af54db09e139&projectId=54f8d589-66fc-4c65-830f-1dcc63bce8cc","","1555","","{""Q0"":4}","","[0]"
"","","","","","html-button-response","82","260286","0.0-60.0","C569E99B68B8491792FCD56407E934F7","C569E99B68B8491792FCD56407E934F7","d5458185-00d9-4603-86c0-af54db09e139","54f8d589-66fc-4c65-830f-1dcc63bce8cc","{""participantId"":""C569E99B68B8491792FCD56407E934F7"",""assignmentId"":""d5458185-00d9-4603-86c0-af54db09e139"",""projectId"":""54f8d589-66fc-4c65-830f-1dcc63bce8cc""}","https://test12345.live/?participantId=C569E99B68B8491792FCD56407E934F7&assignmentId=d5458185-00d9-4603-86c0-af54db09e139&projectId=54f8d589-66fc-4c65-830f-1dcc63bce8cc","","1297","
    <div style=""display: flex; justify-content: center; align-items: center;"">
      <img src=""images/red_deck_2.png"" style=""width: 300px; height: 300px; margin-right: 10px;"" />
      <img src=""images/blue_deck_1.png"" style=""width: 300px; height: 300px;"" />
    </div>","0","0",""
"","","","","","html-keyboard-response","83","263289","0.0-61.0-0.0","C569E99B68B8491792FCD56407E934F7","C569E99B68B8491792FCD56407E934F7","d5458185-00d9-4603-86c0-af54db09e139","54f8d589-66fc-4c65-830f-1dcc63bce8cc","{""participantId"":""C569E99B68B8491792FCD56407E934F7"",""assignmentId"":""d5458185-00d9-4603-86c0-af54db09e139"",""projectId"":""54f8d589-66fc-4c65-830f-1dcc63bce8cc""}","https://test12345.live/?participantId=C569E99B68B8491792FCD56407E934F7&assignmentId=d5458185-00d9-4603-86c0-af54db09e139&projectId=54f8d589-66fc-4c65-830f-1dcc63bce8cc","","null","<div style=""display: flex; justify-content: center; align-items: center;"">
                    <img src=""images/causal/causal_series_12/causal_series_12_a.jpg"" style=""width: 300px; height: 300px;"" />
                  </div>","null","",""
"","","","","","html-keyboard-response","84","266300","0.0-61.0-1.0","C569E99B68B8491792FCD56407E934F7","C569E99B68B8491792FCD56407E934F7","d5458185-00d9-4603-86c0-af54db09e139","54f8d589-66fc-4c65-830f-1dcc63bce8cc","{""participantId"":""C569E99B68B8491792FCD56407E934F7"",""assignmentId"":""d5458185-00d9-4603-86c0-af54db09e139"",""projectId"":""54f8d589-66fc-4c65-830f-1dcc63bce8cc""}","https://test12345.live/?participantId=C569E99B68B8491792FCD56407E934F7&assignmentId=d5458185-00d9-4603-86c0-af54db09e139&projectId=54f8d589-66fc-4c65-830f-1dcc63bce8cc","","null","<div style=""display: flex; justify-content: center; align-items: center;"">
                    <img src=""images/causal/causal_series_12/causal_series_12_b.jpg"" style=""width: 300px; height: 300px;"" />
                  </div>","null","",""
"","","","","","html-keyboard-response","85","269303","0.0-61.0-2.0","C569E99B68B8491792FCD56407E934F7","C569E99B68B8491792FCD56407E934F7","d5458185-00d9-4603-86c0-af54db09e139","54f8d589-66fc-4c65-830f-1dcc63bce8cc","{""participantId"":""C569E99B68B8491792FCD56407E934F7"",""assignmentId"":""d5458185-00d9-4603-86c0-af54db09e139"",""projectId"":""54f8d589-66fc-4c65-830f-1dcc63bce8cc""}","https://test12345.live/?participantId=C569E99B68B8491792FCD56407E934F7&assignmentId=d5458185-00d9-4603-86c0-af54db09e139&projectId=54f8d589-66fc-4c65-830f-1dcc63bce8cc","","null","<div style=""display: flex; justify-content: center; align-items: center;"">
                    <img src=""images/causal/causal_series_12/causal_series_12_c.jpg"" style=""width: 300px; height: 300px;"" />
                  </div>","null","",""
"","","","","","html-keyboard-response","86","272307","0.0-61.0-3.0","C569E99B68B8491792FCD56407E934F7","C569E99B68B8491792FCD56407E934F7","d5458185-00d9-4603-86c0-af54db09e139","54f8d589-66fc-4c65-830f-1dcc63bce8cc","{""participantId"":""C569E99B68B8491792FCD56407E934F7"",""assignmentId"":""d5458185-00d9-4603-86c0-af54db09e139"",""projectId"":""54f8d589-66fc-4c65-830f-1dcc63bce8cc""}","https://test12345.live/?participantId=C569E99B68B8491792FCD56407E934F7&assignmentId=d5458185-00d9-4603-86c0-af54db09e139&projectId=54f8d589-66fc-4c65-830f-1dcc63bce8cc","","null","<div style=""display: flex; justify-content: center; align-items: center;"">
                    <img src=""images/causal/causal_series_12/causal_series_12_d.jpg"" style=""width: 300px; height: 300px;"" />
                  </div>","null","",""
"","","","","","html-button-response","87","273854","0.0-63.0","C569E99B68B8491792FCD56407E934F7","C569E99B68B8491792FCD56407E934F7","d5458185-00d9-4603-86c0-af54db09e139","54f8d589-66fc-4c65-830f-1dcc63bce8cc","{""participantId"":""C569E99B68B8491792FCD56407E934F7"",""assignmentId"":""d5458185-00d9-4603-86c0-af54db09e139"",""projectId"":""54f8d589-66fc-4c65-830f-1dcc63bce8cc""}","https://test12345.live/?participantId=C569E99B68B8491792FCD56407E934F7&assignmentId=d5458185-00d9-4603-86c0-af54db09e139&projectId=54f8d589-66fc-4c65-830f-1dcc63bce8cc","","1545","Was there a person in the picture?","1","",""
"","","","","","survey-likert","88","276670","0.0-64.0","C569E99B68B8491792FCD56407E934F7","C569E99B68B8491792FCD56407E934F7","d5458185-00d9-4603-86c0-af54db09e139","54f8d589-66fc-4c65-830f-1dcc63bce8cc","{""participantId"":""C569E99B68B8491792FCD56407E934F7"",""assignmentId"":""d5458185-00d9-4603-86c0-af54db09e139"",""projectId"":""54f8d589-66fc-4c65-830f-1dcc63bce8cc""}","https://test12345.live/?participantId=C569E99B68B8491792FCD56407E934F7&assignmentId=d5458185-00d9-4603-86c0-af54db09e139&projectId=54f8d589-66fc-4c65-830f-1dcc63bce8cc","","2815","","{""Q0"":1}","","[0]"
"","","","","","html-button-response","89","277673","0.0-65.0","C569E99B68B8491792FCD56407E934F7","C569E99B68B8491792FCD56407E934F7","d5458185-00d9-4603-86c0-af54db09e139","54f8d589-66fc-4c65-830f-1dcc63bce8cc","{""participantId"":""C569E99B68B8491792FCD56407E934F7"",""assignmentId"":""d5458185-00d9-4603-86c0-af54db09e139"",""projectId"":""54f8d589-66fc-4c65-830f-1dcc63bce8cc""}","https://test12345.live/?participantId=C569E99B68B8491792FCD56407E934F7&assignmentId=d5458185-00d9-4603-86c0-af54db09e139&projectId=54f8d589-66fc-4c65-830f-1dcc63bce8cc","","1000","
    <div style=""display: flex; justify-content: center; align-items: center;"">
      <img src=""images/red_deck_2.png"" style=""width: 300px; height: 300px; margin-right: 10px;"" />
      <img src=""images/blue_deck_1.png"" style=""width: 300px; height: 300px;"" />
    </div>","1","1",""
"","","","","","html-keyboard-response","90","280679","0.0-67.0-0.0","C569E99B68B8491792FCD56407E934F7","C569E99B68B8491792FCD56407E934F7","d5458185-00d9-4603-86c0-af54db09e139","54f8d589-66fc-4c65-830f-1dcc63bce8cc","{""participantId"":""C569E99B68B8491792FCD56407E934F7"",""assignmentId"":""d5458185-00d9-4603-86c0-af54db09e139"",""projectId"":""54f8d589-66fc-4c65-830f-1dcc63bce8cc""}","https://test12345.live/?participantId=C569E99B68B8491792FCD56407E934F7&assignmentId=d5458185-00d9-4603-86c0-af54db09e139&projectId=54f8d589-66fc-4c65-830f-1dcc63bce8cc","","null","<div style=""display: flex; justify-content: center; align-items: center;"">
                    <img src=""images/semantic/semantic_series_4/semantic_series_4_a.jpg"" style=""width: 300px; height: 300px;"" />
                  </div>","null","",""
"","","","","","html-keyboard-response","91","283690","0.0-67.0-1.0","C569E99B68B8491792FCD56407E934F7","C569E99B68B8491792FCD56407E934F7","d5458185-00d9-4603-86c0-af54db09e139","54f8d589-66fc-4c65-830f-1dcc63bce8cc","{""participantId"":""C569E99B68B8491792FCD56407E934F7"",""assignmentId"":""d5458185-00d9-4603-86c0-af54db09e139"",""projectId"":""54f8d589-66fc-4c65-830f-1dcc63bce8cc""}","https://test12345.live/?participantId=C569E99B68B8491792FCD56407E934F7&assignmentId=d5458185-00d9-4603-86c0-af54db09e139&projectId=54f8d589-66fc-4c65-830f-1dcc63bce8cc","","null","<div style=""display: flex; justify-content: center; align-items: center;"">
                    <img src=""images/semantic/semantic_series_4/semantic_series_4_b.jpg"" style=""width: 300px; height: 300px;"" />
                  </div>","null","",""
"","","","","","html-keyboard-response","92","286700","0.0-67.0-2.0","C569E99B68B8491792FCD56407E934F7","C569E99B68B8491792FCD56407E934F7","d5458185-00d9-4603-86c0-af54db09e139","54f8d589-66fc-4c65-830f-1dcc63bce8cc","{""participantId"":""C569E99B68B8491792FCD56407E934F7"",""assignmentId"":""d5458185-00d9-4603-86c0-af54db09e139"",""projectId"":""54f8d589-66fc-4c65-830f-1dcc63bce8cc""}","https://test12345.live/?participantId=C569E99B68B8491792FCD56407E934F7&assignmentId=d5458185-00d9-4603-86c0-af54db09e139&projectId=54f8d589-66fc-4c65-830f-1dcc63bce8cc","","null","<div style=""display: flex; justify-content: center; align-items: center;"">
                    <img src=""images/semantic/semantic_series_4/semantic_series_4_c.jpg"" style=""width: 300px; height: 300px;"" />
                  </div>","null","",""
"","","","","","html-keyboard-response","93","289709","0.0-67.0-3.0","C569E99B68B8491792FCD56407E934F7","C569E99B68B8491792FCD56407E934F7","d5458185-00d9-4603-86c0-af54db09e139","54f8d589-66fc-4c65-830f-1dcc63bce8cc","{""participantId"":""C569E99B68B8491792FCD56407E934F7"",""assignmentId"":""d5458185-00d9-4603-86c0-af54db09e139"",""projectId"":""54f8d589-66fc-4c65-830f-1dcc63bce8cc""}","https://test12345.live/?participantId=C569E99B68B8491792FCD56407E934F7&assignmentId=d5458185-00d9-4603-86c0-af54db09e139&projectId=54f8d589-66fc-4c65-830f-1dcc63bce8cc","","null","<div style=""display: flex; justify-content: center; align-items: center;"">
                    <img src=""images/semantic/semantic_series_4/semantic_series_4_d.jpg"" style=""width: 300px; height: 300px;"" />
                  </div>","null","",""
"","","","","","html-button-response","94","290735","0.0-68.0","C569E99B68B8491792FCD56407E934F7","C569E99B68B8491792FCD56407E934F7","d5458185-00d9-4603-86c0-af54db09e139","54f8d589-66fc-4c65-830f-1dcc63bce8cc","{""participantId"":""C569E99B68B8491792FCD56407E934F7"",""assignmentId"":""d5458185-00d9-4603-86c0-af54db09e139"",""projectId"":""54f8d589-66fc-4c65-830f-1dcc63bce8cc""}","https://test12345.live/?participantId=C569E99B68B8491792FCD56407E934F7&assignmentId=d5458185-00d9-4603-86c0-af54db09e139&projectId=54f8d589-66fc-4c65-830f-1dcc63bce8cc","","1024","Was there a person in the picture?","1","",""
"","","","","","survey-likert","95","292415","0.0-69.0","C569E99B68B8491792FCD56407E934F7","C569E99B68B8491792FCD56407E934F7","d5458185-00d9-4603-86c0-af54db09e139","54f8d589-66fc-4c65-830f-1dcc63bce8cc","{""participantId"":""C569E99B68B8491792FCD56407E934F7"",""assignmentId"":""d5458185-00d9-4603-86c0-af54db09e139"",""projectId"":""54f8d589-66fc-4c65-830f-1dcc63bce8cc""}","https://test12345.live/?participantId=C569E99B68B8491792FCD56407E934F7&assignmentId=d5458185-00d9-4603-86c0-af54db09e139&projectId=54f8d589-66fc-4c65-830f-1dcc63bce8cc","","1679","","{""Q0"":2}","","[0]"
"","","","","","html-button-response","96","293512","0.0-70.0","C569E99B68B8491792FCD56407E934F7","C569E99B68B8491792FCD56407E934F7","d5458185-00d9-4603-86c0-af54db09e139","54f8d589-66fc-4c65-830f-1dcc63bce8cc","{""participantId"":""C569E99B68B8491792FCD56407E934F7"",""assignmentId"":""d5458185-00d9-4603-86c0-af54db09e139"",""projectId"":""54f8d589-66fc-4c65-830f-1dcc63bce8cc""}","https://test12345.live/?participantId=C569E99B68B8491792FCD56407E934F7&assignmentId=d5458185-00d9-4603-86c0-af54db09e139&projectId=54f8d589-66fc-4c65-830f-1dcc63bce8cc","","1096","
    <div style=""display: flex; justify-content: center; align-items: center;"">
      <img src=""images/red_deck_2.png"" style=""width: 300px; height: 300px; margin-right: 10px;"" />
      <img src=""images/blue_deck_1.png"" style=""width: 300px; height: 300px;"" />
    </div>","0","0",""
"","","","","","html-keyboard-response","97","296514","0.0-71.0-0.0","C569E99B68B8491792FCD56407E934F7","C569E99B68B8491792FCD56407E934F7","d5458185-00d9-4603-86c0-af54db09e139","54f8d589-66fc-4c65-830f-1dcc63bce8cc","{""participantId"":""C569E99B68B8491792FCD56407E934F7"",""assignmentId"":""d5458185-00d9-4603-86c0-af54db09e139"",""projectId"":""54f8d589-66fc-4c65-830f-1dcc63bce8cc""}","https://test12345.live/?participantId=C569E99B68B8491792FCD56407E934F7&assignmentId=d5458185-00d9-4603-86c0-af54db09e139&projectId=54f8d589-66fc-4c65-830f-1dcc63bce8cc","","null","<div style=""display: flex; justify-content: center; align-items: center;"">
                    <img src=""images/causal/causal_series_17/causal_series_17_a.jpg"" style=""width: 300px; height: 300px;"" />
                  </div>","null","",""
"","","","","","html-keyboard-response","98","299527","0.0-71.0-1.0","C569E99B68B8491792FCD56407E934F7","C569E99B68B8491792FCD56407E934F7","d5458185-00d9-4603-86c0-af54db09e139","54f8d589-66fc-4c65-830f-1dcc63bce8cc","{""participantId"":""C569E99B68B8491792FCD56407E934F7"",""assignmentId"":""d5458185-00d9-4603-86c0-af54db09e139"",""projectId"":""54f8d589-66fc-4c65-830f-1dcc63bce8cc""}","https://test12345.live/?participantId=C569E99B68B8491792FCD56407E934F7&assignmentId=d5458185-00d9-4603-86c0-af54db09e139&projectId=54f8d589-66fc-4c65-830f-1dcc63bce8cc","","null","<div style=""display: flex; justify-content: center; align-items: center;"">
                    <img src=""images/causal/causal_series_17/causal_series_17_b.jpg"" style=""width: 300px; height: 300px;"" />
                  </div>","null","",""
"","","","","","html-keyboard-response","99","302533","0.0-71.0-2.0","C569E99B68B8491792FCD56407E934F7","C569E99B68B8491792FCD56407E934F7","d5458185-00d9-4603-86c0-af54db09e139","54f8d589-66fc-4c65-830f-1dcc63bce8cc","{""participantId"":""C569E99B68B8491792FCD56407E934F7"",""assignmentId"":""d5458185-00d9-4603-86c0-af54db09e139"",""projectId"":""54f8d589-66fc-4c65-830f-1dcc63bce8cc""}","https://test12345.live/?participantId=C569E99B68B8491792FCD56407E934F7&assignmentId=d5458185-00d9-4603-86c0-af54db09e139&projectId=54f8d589-66fc-4c65-830f-1dcc63bce8cc","","null","<div style=""display: flex; justify-content: center; align-items: center;"">
                    <img src=""images/causal/causal_series_17/causal_series_17_c.jpg"" style=""width: 300px; height: 300px;"" />
                  </div>","null","",""
"","","","","","html-keyboard-response","100","305542","0.0-71.0-3.0","C569E99B68B8491792FCD56407E934F7","C569E99B68B8491792FCD56407E934F7","d5458185-00d9-4603-86c0-af54db09e139","54f8d589-66fc-4c65-830f-1dcc63bce8cc","{""participantId"":""C569E99B68B8491792FCD56407E934F7"",""assignmentId"":""d5458185-00d9-4603-86c0-af54db09e139"",""projectId"":""54f8d589-66fc-4c65-830f-1dcc63bce8cc""}","https://test12345.live/?participantId=C569E99B68B8491792FCD56407E934F7&assignmentId=d5458185-00d9-4603-86c0-af54db09e139&projectId=54f8d589-66fc-4c65-830f-1dcc63bce8cc","","null","<div style=""display: flex; justify-content: center; align-items: center;"">
                    <img src=""images/causal/causal_series_17/causal_series_17_d.jpg"" style=""width: 300px; height: 300px;"" />
                  </div>","null","",""
"","","","","","html-button-response","101","307681","0.0-73.0","C569E99B68B8491792FCD56407E934F7","C569E99B68B8491792FCD56407E934F7","d5458185-00d9-4603-86c0-af54db09e139","54f8d589-66fc-4c65-830f-1dcc63bce8cc","{""participantId"":""C569E99B68B8491792FCD56407E934F7"",""assignmentId"":""d5458185-00d9-4603-86c0-af54db09e139"",""projectId"":""54f8d589-66fc-4c65-830f-1dcc63bce8cc""}","https://test12345.live/?participantId=C569E99B68B8491792FCD56407E934F7&assignmentId=d5458185-00d9-4603-86c0-af54db09e139&projectId=54f8d589-66fc-4c65-830f-1dcc63bce8cc","","2138","Was there a person in the picture?","1","",""
"","","","","","survey-likert","102","309965","0.0-74.0","C569E99B68B8491792FCD56407E934F7","C569E99B68B8491792FCD56407E934F7","d5458185-00d9-4603-86c0-af54db09e139","54f8d589-66fc-4c65-830f-1dcc63bce8cc","{""participantId"":""C569E99B68B8491792FCD56407E934F7"",""assignmentId"":""d5458185-00d9-4603-86c0-af54db09e139"",""projectId"":""54f8d589-66fc-4c65-830f-1dcc63bce8cc""}","https://test12345.live/?participantId=C569E99B68B8491792FCD56407E934F7&assignmentId=d5458185-00d9-4603-86c0-af54db09e139&projectId=54f8d589-66fc-4c65-830f-1dcc63bce8cc","","2284","","{""Q0"":2}","","[0]"
"","","","","","html-button-response","103","311062","0.0-75.0","C569E99B68B8491792FCD56407E934F7","C569E99B68B8491792FCD56407E934F7","d5458185-00d9-4603-86c0-af54db09e139","54f8d589-66fc-4c65-830f-1dcc63bce8cc","{""participantId"":""C569E99B68B8491792FCD56407E934F7"",""assignmentId"":""d5458185-00d9-4603-86c0-af54db09e139"",""projectId"":""54f8d589-66fc-4c65-830f-1dcc63bce8cc""}","https://test12345.live/?participantId=C569E99B68B8491792FCD56407E934F7&assignmentId=d5458185-00d9-4603-86c0-af54db09e139&projectId=54f8d589-66fc-4c65-830f-1dcc63bce8cc","","1095","
    <div style=""display: flex; justify-content: center; align-items: center;"">
      <img src=""images/red_deck_2.png"" style=""width: 300px; height: 300px; margin-right: 10px;"" />
      <img src=""images/blue_deck_1.png"" style=""width: 300px; height: 300px;"" />
    </div>","1","1",""
"","","","","","html-keyboard-response","104","314073","0.0-77.0-0.0","C569E99B68B8491792FCD56407E934F7","C569E99B68B8491792FCD56407E934F7","d5458185-00d9-4603-86c0-af54db09e139","54f8d589-66fc-4c65-830f-1dcc63bce8cc","{""participantId"":""C569E99B68B8491792FCD56407E934F7"",""assignmentId"":""d5458185-00d9-4603-86c0-af54db09e139"",""projectId"":""54f8d589-66fc-4c65-830f-1dcc63bce8cc""}","https://test12345.live/?participantId=C569E99B68B8491792FCD56407E934F7&assignmentId=d5458185-00d9-4603-86c0-af54db09e139&projectId=54f8d589-66fc-4c65-830f-1dcc63bce8cc","","null","<div style=""display: flex; justify-content: center; align-items: center;"">
                    <img src=""images/semantic/semantic_series_9/semantic_series_9_a.jpg"" style=""width: 300px; height: 300px;"" />
                  </div>","null","",""
"","","","","","html-keyboard-response","105","317090","0.0-77.0-1.0","C569E99B68B8491792FCD56407E934F7","C569E99B68B8491792FCD56407E934F7","d5458185-00d9-4603-86c0-af54db09e139","54f8d589-66fc-4c65-830f-1dcc63bce8cc","{""participantId"":""C569E99B68B8491792FCD56407E934F7"",""assignmentId"":""d5458185-00d9-4603-86c0-af54db09e139"",""projectId"":""54f8d589-66fc-4c65-830f-1dcc63bce8cc""}","https://test12345.live/?participantId=C569E99B68B8491792FCD56407E934F7&assignmentId=d5458185-00d9-4603-86c0-af54db09e139&projectId=54f8d589-66fc-4c65-830f-1dcc63bce8cc","","null","<div style=""display: flex; justify-content: center; align-items: center;"">
                    <img src=""images/semantic/semantic_series_9/semantic_series_9_b.jpg"" style=""width: 300px; height: 300px;"" />
                  </div>","null","",""
"","","","","","html-keyboard-response","106","320095","0.0-77.0-2.0","C569E99B68B8491792FCD56407E934F7","C569E99B68B8491792FCD56407E934F7","d5458185-00d9-4603-86c0-af54db09e139","54f8d589-66fc-4c65-830f-1dcc63bce8cc","{""participantId"":""C569E99B68B8491792FCD56407E934F7"",""assignmentId"":""d5458185-00d9-4603-86c0-af54db09e139"",""projectId"":""54f8d589-66fc-4c65-830f-1dcc63bce8cc""}","https://test12345.live/?participantId=C569E99B68B8491792FCD56407E934F7&assignmentId=d5458185-00d9-4603-86c0-af54db09e139&projectId=54f8d589-66fc-4c65-830f-1dcc63bce8cc","","null","<div style=""display: flex; justify-content: center; align-items: center;"">
                    <img src=""images/semantic/semantic_series_9/semantic_series_9_c.jpg"" style=""width: 300px; height: 300px;"" />
                  </div>","null","",""
"","","","","","html-keyboard-response","107","323104","0.0-77.0-3.0","C569E99B68B8491792FCD56407E934F7","C569E99B68B8491792FCD56407E934F7","d5458185-00d9-4603-86c0-af54db09e139","54f8d589-66fc-4c65-830f-1dcc63bce8cc","{""participantId"":""C569E99B68B8491792FCD56407E934F7"",""assignmentId"":""d5458185-00d9-4603-86c0-af54db09e139"",""projectId"":""54f8d589-66fc-4c65-830f-1dcc63bce8cc""}","https://test12345.live/?participantId=C569E99B68B8491792FCD56407E934F7&assignmentId=d5458185-00d9-4603-86c0-af54db09e139&projectId=54f8d589-66fc-4c65-830f-1dcc63bce8cc","","null","<div style=""display: flex; justify-content: center; align-items: center;"">
                    <img src=""images/semantic/semantic_series_9/semantic_series_9_d.jpg"" style=""width: 300px; height: 300px;"" />
                  </div>","null","",""
"","","","","","html-button-response","108","325336","0.0-78.0","C569E99B68B8491792FCD56407E934F7","C569E99B68B8491792FCD56407E934F7","d5458185-00d9-4603-86c0-af54db09e139","54f8d589-66fc-4c65-830f-1dcc63bce8cc","{""participantId"":""C569E99B68B8491792FCD56407E934F7"",""assignmentId"":""d5458185-00d9-4603-86c0-af54db09e139"",""projectId"":""54f8d589-66fc-4c65-830f-1dcc63bce8cc""}","https://test12345.live/?participantId=C569E99B68B8491792FCD56407E934F7&assignmentId=d5458185-00d9-4603-86c0-af54db09e139&projectId=54f8d589-66fc-4c65-830f-1dcc63bce8cc","","2230","Was there a person in the picture?","0","",""
"","","","","","survey-likert","109","328218","0.0-79.0","C569E99B68B8491792FCD56407E934F7","C569E99B68B8491792FCD56407E934F7","d5458185-00d9-4603-86c0-af54db09e139","54f8d589-66fc-4c65-830f-1dcc63bce8cc","{""participantId"":""C569E99B68B8491792FCD56407E934F7"",""assignmentId"":""d5458185-00d9-4603-86c0-af54db09e139"",""projectId"":""54f8d589-66fc-4c65-830f-1dcc63bce8cc""}","https://test12345.live/?participantId=C569E99B68B8491792FCD56407E934F7&assignmentId=d5458185-00d9-4603-86c0-af54db09e139&projectId=54f8d589-66fc-4c65-830f-1dcc63bce8cc","","2880","","{""Q0"":3}","","[0]"
"","","","","","html-button-response","110","329318","0.0-80.0","C569E99B68B8491792FCD56407E934F7","C569E99B68B8491792FCD56407E934F7","d5458185-00d9-4603-86c0-af54db09e139","54f8d589-66fc-4c65-830f-1dcc63bce8cc","{""participantId"":""C569E99B68B8491792FCD56407E934F7"",""assignmentId"":""d5458185-00d9-4603-86c0-af54db09e139"",""projectId"":""54f8d589-66fc-4c65-830f-1dcc63bce8cc""}","https://test12345.live/?participantId=C569E99B68B8491792FCD56407E934F7&assignmentId=d5458185-00d9-4603-86c0-af54db09e139&projectId=54f8d589-66fc-4c65-830f-1dcc63bce8cc","","1098","
    <div style=""display: flex; justify-content: center; align-items: center;"">
      <img src=""images/red_deck_2.png"" style=""width: 300px; height: 300px; margin-right: 10px;"" />
      <img src=""images/blue_deck_1.png"" style=""width: 300px; height: 300px;"" />
    </div>","1","1",""
"","","","","","html-keyboard-response","111","332330","0.0-82.0-0.0","C569E99B68B8491792FCD56407E934F7","C569E99B68B8491792FCD56407E934F7","d5458185-00d9-4603-86c0-af54db09e139","54f8d589-66fc-4c65-830f-1dcc63bce8cc","{""participantId"":""C569E99B68B8491792FCD56407E934F7"",""assignmentId"":""d5458185-00d9-4603-86c0-af54db09e139"",""projectId"":""54f8d589-66fc-4c65-830f-1dcc63bce8cc""}","https://test12345.live/?participantId=C569E99B68B8491792FCD56407E934F7&assignmentId=d5458185-00d9-4603-86c0-af54db09e139&projectId=54f8d589-66fc-4c65-830f-1dcc63bce8cc","","null","<div style=""display: flex; justify-content: center; align-items: center;"">
                    <img src=""images/semantic/semantic_series_13/semantic_series_13_a.jpg"" style=""width: 300px; height: 300px;"" />
                  </div>","null","",""
"","","","","","html-keyboard-response","112","335338","0.0-82.0-1.0","C569E99B68B8491792FCD56407E934F7","C569E99B68B8491792FCD56407E934F7","d5458185-00d9-4603-86c0-af54db09e139","54f8d589-66fc-4c65-830f-1dcc63bce8cc","{""participantId"":""C569E99B68B8491792FCD56407E934F7"",""assignmentId"":""d5458185-00d9-4603-86c0-af54db09e139"",""projectId"":""54f8d589-66fc-4c65-830f-1dcc63bce8cc""}","https://test12345.live/?participantId=C569E99B68B8491792FCD56407E934F7&assignmentId=d5458185-00d9-4603-86c0-af54db09e139&projectId=54f8d589-66fc-4c65-830f-1dcc63bce8cc","","null","<div style=""display: flex; justify-content: center; align-items: center;"">
                    <img src=""images/semantic/semantic_series_13/semantic_series_13_b.jpg"" style=""width: 300px; height: 300px;"" />
                  </div>","null","",""
"","","","","","html-keyboard-response","113","338344","0.0-82.0-2.0","C569E99B68B8491792FCD56407E934F7","C569E99B68B8491792FCD56407E934F7","d5458185-00d9-4603-86c0-af54db09e139","54f8d589-66fc-4c65-830f-1dcc63bce8cc","{""participantId"":""C569E99B68B8491792FCD56407E934F7"",""assignmentId"":""d5458185-00d9-4603-86c0-af54db09e139"",""projectId"":""54f8d589-66fc-4c65-830f-1dcc63bce8cc""}","https://test12345.live/?participantId=C569E99B68B8491792FCD56407E934F7&assignmentId=d5458185-00d9-4603-86c0-af54db09e139&projectId=54f8d589-66fc-4c65-830f-1dcc63bce8cc","","null","<div style=""display: flex; justify-content: center; align-items: center;"">
                    <img src=""images/semantic/semantic_series_13/semantic_series_13_c.jpg"" style=""width: 300px; height: 300px;"" />
                  </div>","null","",""
"","","","","","html-keyboard-response","114","341353","0.0-82.0-3.0","C569E99B68B8491792FCD56407E934F7","C569E99B68B8491792FCD56407E934F7","d5458185-00d9-4603-86c0-af54db09e139","54f8d589-66fc-4c65-830f-1dcc63bce8cc","{""participantId"":""C569E99B68B8491792FCD56407E934F7"",""assignmentId"":""d5458185-00d9-4603-86c0-af54db09e139"",""projectId"":""54f8d589-66fc-4c65-830f-1dcc63bce8cc""}","https://test12345.live/?participantId=C569E99B68B8491792FCD56407E934F7&assignmentId=d5458185-00d9-4603-86c0-af54db09e139&projectId=54f8d589-66fc-4c65-830f-1dcc63bce8cc","","null","<div style=""display: flex; justify-content: center; align-items: center;"">
                    <img src=""images/semantic/semantic_series_13/semantic_series_13_d.jpg"" style=""width: 300px; height: 300px;"" />
                  </div>","null","",""
"","","","","","html-button-response","115","342757","0.0-83.0","C569E99B68B8491792FCD56407E934F7","C569E99B68B8491792FCD56407E934F7","d5458185-00d9-4603-86c0-af54db09e139","54f8d589-66fc-4c65-830f-1dcc63bce8cc","{""participantId"":""C569E99B68B8491792FCD56407E934F7"",""assignmentId"":""d5458185-00d9-4603-86c0-af54db09e139"",""projectId"":""54f8d589-66fc-4c65-830f-1dcc63bce8cc""}","https://test12345.live/?participantId=C569E99B68B8491792FCD56407E934F7&assignmentId=d5458185-00d9-4603-86c0-af54db09e139&projectId=54f8d589-66fc-4c65-830f-1dcc63bce8cc","","1403","Was there a person in the picture?","0","",""
"","","","","","survey-likert","116","345135","0.0-84.0","C569E99B68B8491792FCD56407E934F7","C569E99B68B8491792FCD56407E934F7","d5458185-00d9-4603-86c0-af54db09e139","54f8d589-66fc-4c65-830f-1dcc63bce8cc","{""participantId"":""C569E99B68B8491792FCD56407E934F7"",""assignmentId"":""d5458185-00d9-4603-86c0-af54db09e139"",""projectId"":""54f8d589-66fc-4c65-830f-1dcc63bce8cc""}","https://test12345.live/?participantId=C569E99B68B8491792FCD56407E934F7&assignmentId=d5458185-00d9-4603-86c0-af54db09e139&projectId=54f8d589-66fc-4c65-830f-1dcc63bce8cc","","2376","","{""Q0"":4}","","[0]"
"","","","","","html-button-response","117","346137","0.0-85.0","C569E99B68B8491792FCD56407E934F7","C569E99B68B8491792FCD56407E934F7","d5458185-00d9-4603-86c0-af54db09e139","54f8d589-66fc-4c65-830f-1dcc63bce8cc","{""participantId"":""C569E99B68B8491792FCD56407E934F7"",""assignmentId"":""d5458185-00d9-4603-86c0-af54db09e139"",""projectId"":""54f8d589-66fc-4c65-830f-1dcc63bce8cc""}","https://test12345.live/?participantId=C569E99B68B8491792FCD56407E934F7&assignmentId=d5458185-00d9-4603-86c0-af54db09e139&projectId=54f8d589-66fc-4c65-830f-1dcc63bce8cc","","1001","
    <div style=""display: flex; justify-content: center; align-items: center;"">
      <img src=""images/red_deck_2.png"" style=""width: 300px; height: 300px; margin-right: 10px;"" />
      <img src=""images/blue_deck_1.png"" style=""width: 300px; height: 300px;"" />
    </div>","1","1",""
"","","","","","html-keyboard-response","118","349145","0.0-87.0-0.0","C569E99B68B8491792FCD56407E934F7","C569E99B68B8491792FCD56407E934F7","d5458185-00d9-4603-86c0-af54db09e139","54f8d589-66fc-4c65-830f-1dcc63bce8cc","{""participantId"":""C569E99B68B8491792FCD56407E934F7"",""assignmentId"":""d5458185-00d9-4603-86c0-af54db09e139"",""projectId"":""54f8d589-66fc-4c65-830f-1dcc63bce8cc""}","https://test12345.live/?participantId=C569E99B68B8491792FCD56407E934F7&assignmentId=d5458185-00d9-4603-86c0-af54db09e139&projectId=54f8d589-66fc-4c65-830f-1dcc63bce8cc","","null","<div style=""display: flex; justify-content: center; align-items: center;"">
                    <img src=""images/semantic/semantic_series_18/semantic_series_18_a.jpg"" style=""width: 300px; height: 300px;"" />
                  </div>","null","",""
"","","","","","html-keyboard-response","119","352162","0.0-87.0-1.0","C569E99B68B8491792FCD56407E934F7","C569E99B68B8491792FCD56407E934F7","d5458185-00d9-4603-86c0-af54db09e139","54f8d589-66fc-4c65-830f-1dcc63bce8cc","{""participantId"":""C569E99B68B8491792FCD56407E934F7"",""assignmentId"":""d5458185-00d9-4603-86c0-af54db09e139"",""projectId"":""54f8d589-66fc-4c65-830f-1dcc63bce8cc""}","https://test12345.live/?participantId=C569E99B68B8491792FCD56407E934F7&assignmentId=d5458185-00d9-4603-86c0-af54db09e139&projectId=54f8d589-66fc-4c65-830f-1dcc63bce8cc","","null","<div style=""display: flex; justify-content: center; align-items: center;"">
                    <img src=""images/semantic/semantic_series_18/semantic_series_18_b.jpg"" style=""width: 300px; height: 300px;"" />
                  </div>","null","",""
"","","","","","html-keyboard-response","120","355171","0.0-87.0-2.0","C569E99B68B8491792FCD56407E934F7","C569E99B68B8491792FCD56407E934F7","d5458185-00d9-4603-86c0-af54db09e139","54f8d589-66fc-4c65-830f-1dcc63bce8cc","{""participantId"":""C569E99B68B8491792FCD56407E934F7"",""assignmentId"":""d5458185-00d9-4603-86c0-af54db09e139"",""projectId"":""54f8d589-66fc-4c65-830f-1dcc63bce8cc""}","https://test12345.live/?participantId=C569E99B68B8491792FCD56407E934F7&assignmentId=d5458185-00d9-4603-86c0-af54db09e139&projectId=54f8d589-66fc-4c65-830f-1dcc63bce8cc","","null","<div style=""display: flex; justify-content: center; align-items: center;"">
                    <img src=""images/semantic/semantic_series_18/semantic_series_18_c.jpg"" style=""width: 300px; height: 300px;"" />
                  </div>","null","",""
"","","","","","html-keyboard-response","121","358184","0.0-87.0-3.0","C569E99B68B8491792FCD56407E934F7","C569E99B68B8491792FCD56407E934F7","d5458185-00d9-4603-86c0-af54db09e139","54f8d589-66fc-4c65-830f-1dcc63bce8cc","{""participantId"":""C569E99B68B8491792FCD56407E934F7"",""assignmentId"":""d5458185-00d9-4603-86c0-af54db09e139"",""projectId"":""54f8d589-66fc-4c65-830f-1dcc63bce8cc""}","https://test12345.live/?participantId=C569E99B68B8491792FCD56407E934F7&assignmentId=d5458185-00d9-4603-86c0-af54db09e139&projectId=54f8d589-66fc-4c65-830f-1dcc63bce8cc","","null","<div style=""display: flex; justify-content: center; align-items: center;"">
                    <img src=""images/semantic/semantic_series_18/semantic_series_18_d.jpg"" style=""width: 300px; height: 300px;"" />
                  </div>","null","",""
"","","","","","html-button-response","122","360118","0.0-88.0","C569E99B68B8491792FCD56407E934F7","C569E99B68B8491792FCD56407E934F7","d5458185-00d9-4603-86c0-af54db09e139","54f8d589-66fc-4c65-830f-1dcc63bce8cc","{""participantId"":""C569E99B68B8491792FCD56407E934F7"",""assignmentId"":""d5458185-00d9-4603-86c0-af54db09e139"",""projectId"":""54f8d589-66fc-4c65-830f-1dcc63bce8cc""}","https://test12345.live/?participantId=C569E99B68B8491792FCD56407E934F7&assignmentId=d5458185-00d9-4603-86c0-af54db09e139&projectId=54f8d589-66fc-4c65-830f-1dcc63bce8cc","","1933","Was there a person in the picture?","1","",""
"","","","","","survey-likert","123","361264","0.0-89.0","C569E99B68B8491792FCD56407E934F7","C569E99B68B8491792FCD56407E934F7","d5458185-00d9-4603-86c0-af54db09e139","54f8d589-66fc-4c65-830f-1dcc63bce8cc","{""participantId"":""C569E99B68B8491792FCD56407E934F7"",""assignmentId"":""d5458185-00d9-4603-86c0-af54db09e139"",""projectId"":""54f8d589-66fc-4c65-830f-1dcc63bce8cc""}","https://test12345.live/?participantId=C569E99B68B8491792FCD56407E934F7&assignmentId=d5458185-00d9-4603-86c0-af54db09e139&projectId=54f8d589-66fc-4c65-830f-1dcc63bce8cc","","1145","","{""Q0"":3}","","[0]"
"","","","","","html-button-response","124","362476","0.0-90.0","C569E99B68B8491792FCD56407E934F7","C569E99B68B8491792FCD56407E934F7","d5458185-00d9-4603-86c0-af54db09e139","54f8d589-66fc-4c65-830f-1dcc63bce8cc","{""participantId"":""C569E99B68B8491792FCD56407E934F7"",""assignmentId"":""d5458185-00d9-4603-86c0-af54db09e139"",""projectId"":""54f8d589-66fc-4c65-830f-1dcc63bce8cc""}","https://test12345.live/?participantId=C569E99B68B8491792FCD56407E934F7&assignmentId=d5458185-00d9-4603-86c0-af54db09e139&projectId=54f8d589-66fc-4c65-830f-1dcc63bce8cc","","1210","
    <div style=""display: flex; justify-content: center; align-items: center;"">
      <img src=""images/red_deck_2.png"" style=""width: 300px; height: 300px; margin-right: 10px;"" />
      <img src=""images/blue_deck_1.png"" style=""width: 300px; height: 300px;"" />
    </div>","0","0",""
"","","","","","html-keyboard-response","125","365485","0.0-91.0-0.0","C569E99B68B8491792FCD56407E934F7","C569E99B68B8491792FCD56407E934F7","d5458185-00d9-4603-86c0-af54db09e139","54f8d589-66fc-4c65-830f-1dcc63bce8cc","{""participantId"":""C569E99B68B8491792FCD56407E934F7"",""assignmentId"":""d5458185-00d9-4603-86c0-af54db09e139"",""projectId"":""54f8d589-66fc-4c65-830f-1dcc63bce8cc""}","https://test12345.live/?participantId=C569E99B68B8491792FCD56407E934F7&assignmentId=d5458185-00d9-4603-86c0-af54db09e139&projectId=54f8d589-66fc-4c65-830f-1dcc63bce8cc","","null","<div style=""display: flex; justify-content: center; align-items: center;"">
                    <img src=""images/causal/causal_series_16/causal_series_16_a.jpg"" style=""width: 300px; height: 300px;"" />
                  </div>","null","",""
"","","","","","html-keyboard-response","126","368495","0.0-91.0-1.0","C569E99B68B8491792FCD56407E934F7","C569E99B68B8491792FCD56407E934F7","d5458185-00d9-4603-86c0-af54db09e139","54f8d589-66fc-4c65-830f-1dcc63bce8cc","{""participantId"":""C569E99B68B8491792FCD56407E934F7"",""assignmentId"":""d5458185-00d9-4603-86c0-af54db09e139"",""projectId"":""54f8d589-66fc-4c65-830f-1dcc63bce8cc""}","https://test12345.live/?participantId=C569E99B68B8491792FCD56407E934F7&assignmentId=d5458185-00d9-4603-86c0-af54db09e139&projectId=54f8d589-66fc-4c65-830f-1dcc63bce8cc","","null","<div style=""display: flex; justify-content: center; align-items: center;"">
                    <img src=""images/causal/causal_series_16/causal_series_16_b.jpg"" style=""width: 300px; height: 300px;"" />
                  </div>","null","",""
"","","","","","html-keyboard-response","127","371502","0.0-91.0-2.0","C569E99B68B8491792FCD56407E934F7","C569E99B68B8491792FCD56407E934F7","d5458185-00d9-4603-86c0-af54db09e139","54f8d589-66fc-4c65-830f-1dcc63bce8cc","{""participantId"":""C569E99B68B8491792FCD56407E934F7"",""assignmentId"":""d5458185-00d9-4603-86c0-af54db09e139"",""projectId"":""54f8d589-66fc-4c65-830f-1dcc63bce8cc""}","https://test12345.live/?participantId=C569E99B68B8491792FCD56407E934F7&assignmentId=d5458185-00d9-4603-86c0-af54db09e139&projectId=54f8d589-66fc-4c65-830f-1dcc63bce8cc","","null","<div style=""display: flex; justify-content: center; align-items: center;"">
                    <img src=""images/causal/causal_series_16/causal_series_16_c.jpg"" style=""width: 300px; height: 300px;"" />
                  </div>","null","",""
"","","","","","html-keyboard-response","128","374510","0.0-91.0-3.0","C569E99B68B8491792FCD56407E934F7","C569E99B68B8491792FCD56407E934F7","d5458185-00d9-4603-86c0-af54db09e139","54f8d589-66fc-4c65-830f-1dcc63bce8cc","{""participantId"":""C569E99B68B8491792FCD56407E934F7"",""assignmentId"":""d5458185-00d9-4603-86c0-af54db09e139"",""projectId"":""54f8d589-66fc-4c65-830f-1dcc63bce8cc""}","https://test12345.live/?participantId=C569E99B68B8491792FCD56407E934F7&assignmentId=d5458185-00d9-4603-86c0-af54db09e139&projectId=54f8d589-66fc-4c65-830f-1dcc63bce8cc","","null","<div style=""display: flex; justify-content: center; align-items: center;"">
                    <img src=""images/causal/causal_series_16/causal_series_16_d.jpg"" style=""width: 300px; height: 300px;"" />
                  </div>","null","",""
"","","","","","html-button-response","129","375968","0.0-93.0","C569E99B68B8491792FCD56407E934F7","C569E99B68B8491792FCD56407E934F7","d5458185-00d9-4603-86c0-af54db09e139","54f8d589-66fc-4c65-830f-1dcc63bce8cc","{""participantId"":""C569E99B68B8491792FCD56407E934F7"",""assignmentId"":""d5458185-00d9-4603-86c0-af54db09e139"",""projectId"":""54f8d589-66fc-4c65-830f-1dcc63bce8cc""}","https://test12345.live/?participantId=C569E99B68B8491792FCD56407E934F7&assignmentId=d5458185-00d9-4603-86c0-af54db09e139&projectId=54f8d589-66fc-4c65-830f-1dcc63bce8cc","","1457","Was there a person in the picture?","1","",""
"","","","","","survey-likert","130","376951","0.0-94.0","C569E99B68B8491792FCD56407E934F7","C569E99B68B8491792FCD56407E934F7","d5458185-00d9-4603-86c0-af54db09e139","54f8d589-66fc-4c65-830f-1dcc63bce8cc","{""participantId"":""C569E99B68B8491792FCD56407E934F7"",""assignmentId"":""d5458185-00d9-4603-86c0-af54db09e139"",""projectId"":""54f8d589-66fc-4c65-830f-1dcc63bce8cc""}","https://test12345.live/?participantId=C569E99B68B8491792FCD56407E934F7&assignmentId=d5458185-00d9-4603-86c0-af54db09e139&projectId=54f8d589-66fc-4c65-830f-1dcc63bce8cc","","982","","{""Q0"":2}","","[0]"
"","","","","","survey-text","131","480371","0.0-95.0","C569E99B68B8491792FCD56407E934F7","C569E99B68B8491792FCD56407E934F7","d5458185-00d9-4603-86c0-af54db09e139","54f8d589-66fc-4c65-830f-1dcc63bce8cc","{""participantId"":""C569E99B68B8491792FCD56407E934F7"",""assignmentId"":""d5458185-00d9-4603-86c0-af54db09e139"",""projectId"":""54f8d589-66fc-4c65-830f-1dcc63bce8cc""}","https://test12345.live/?participantId=C569E99B68B8491792FCD56407E934F7&assignmentId=d5458185-00d9-4603-86c0-af54db09e139&projectId=54f8d589-66fc-4c65-830f-1dcc63bce8cc","","103416","","{""Q0"":""The two decks of cards are different in the sense that one is red and the other is blue. Also, the contents of the cards differ in that one deck contains the series of images that were viewed yesterday while the other was cartoon images ""}","",""
