"success","timeout","failed_images","failed_audio","failed_video","trial_type","trial_index","time_elapsed","internal_node_id","subject","subject_id","study_id","session_id","urlvar","current_url","view_history","rt","stimulus","response","choice","question_order"
"true","false","[]","[]","[]","preload","0","410","0.0-0.0","B7C756CFF6B8455F988969F84F3A3700","B7C756CFF6B8455F988969F84F3A3700","aa752e32-3298-43bc-940b-c75b3b5bb606","54f8d589-66fc-4c65-830f-1dcc63bce8cc","{""participantId"":""B7C756CFF6B8455F988969F84F3A3700"",""assignmentId"":""aa752e32-3298-43bc-940b-c75b3b5bb606"",""projectId"":""54f8d589-66fc-4c65-830f-1dcc63bce8cc""}","https://test12345.live/?participantId=B7C756CFF6B8455F988969F84F3A3700&assignmentId=aa752e32-3298-43bc-940b-c75b3b5bb606&projectId=54f8d589-66fc-4c65-830f-1dcc63bce8cc","","","","","",""
"","","","","","instructions","1","2525","0.0-1.0","B7C756CFF6B8455F988969F84F3A3700","B7C756CFF6B8455F988969F84F3A3700","aa752e32-3298-43bc-940b-c75b3b5bb606","54f8d589-66fc-4c65-830f-1dcc63bce8cc","{""participantId"":""B7C756CFF6B8455F988969F84F3A3700"",""assignmentId"":""aa752e32-3298-43bc-940b-c75b3b5bb606"",""projectId"":""54f8d589-66fc-4c65-830f-1dcc63bce8cc""}","https://test12345.live/?participantId=B7C756CFF6B8455F988969F84F3A3700&assignmentId=aa752e32-3298-43bc-940b-c75b3b5bb606&projectId=54f8d589-66fc-4c65-830f-1dcc63bce8cc","[{""page_index"":0,""viewing_time"":2113}]","2113","","","",""
"","","","","","instructions","2","6263","0.0-2.0","B7C756CFF6B8455F988969F84F3A3700","B7C756CFF6B8455F988969F84F3A3700","aa752e32-3298-43bc-940b-c75b3b5bb606","54f8d589-66fc-4c65-830f-1dcc63bce8cc","{""participantId"":""B7C756CFF6B8455F988969F84F3A3700"",""assignmentId"":""aa752e32-3298-43bc-940b-c75b3b5bb606"",""projectId"":""54f8d589-66fc-4c65-830f-1dcc63bce8cc""}","https://test12345.live/?participantId=B7C756CFF6B8455F988969F84F3A3700&assignmentId=aa752e32-3298-43bc-940b-c75b3b5bb606&projectId=54f8d589-66fc-4c65-830f-1dcc63bce8cc","[{""page_index"":0,""viewing_time"":3731}]","3737","","","",""
"true","","","","","fullscreen","3","9125","0.0-3.0","B7C756CFF6B8455F988969F84F3A3700","B7C756CFF6B8455F988969F84F3A3700","aa752e32-3298-43bc-940b-c75b3b5bb606","54f8d589-66fc-4c65-830f-1dcc63bce8cc","{""participantId"":""B7C756CFF6B8455F988969F84F3A3700"",""assignmentId"":""aa752e32-3298-43bc-940b-c75b3b5bb606"",""projectId"":""54f8d589-66fc-4c65-830f-1dcc63bce8cc""}","https://test12345.live/?participantId=B7C756CFF6B8455F988969F84F3A3700&assignmentId=aa752e32-3298-43bc-940b-c75b3b5bb606&projectId=54f8d589-66fc-4c65-830f-1dcc63bce8cc","","1859","","","",""
"","","","","","instructions","4","19442","0.0-4.0","B7C756CFF6B8455F988969F84F3A3700","B7C756CFF6B8455F988969F84F3A3700","aa752e32-3298-43bc-940b-c75b3b5bb606","54f8d589-66fc-4c65-830f-1dcc63bce8cc","{""participantId"":""B7C756CFF6B8455F988969F84F3A3700"",""assignmentId"":""aa752e32-3298-43bc-940b-c75b3b5bb606"",""projectId"":""54f8d589-66fc-4c65-830f-1dcc63bce8cc""}","https://test12345.live/?participantId=B7C756CFF6B8455F988969F84F3A3700&assignmentId=aa752e32-3298-43bc-940b-c75b3b5bb606&projectId=54f8d589-66fc-4c65-830f-1dcc63bce8cc","[{""page_index"":0,""viewing_time"":10314}]","10315","","","",""
"","","","","","html-button-response","5","22507","0.0-5.0","B7C756CFF6B8455F988969F84F3A3700","B7C756CFF6B8455F988969F84F3A3700","aa752e32-3298-43bc-940b-c75b3b5bb606","54f8d589-66fc-4c65-830f-1dcc63bce8cc","{""participantId"":""B7C756CFF6B8455F988969F84F3A3700"",""assignmentId"":""aa752e32-3298-43bc-940b-c75b3b5bb606"",""projectId"":""54f8d589-66fc-4c65-830f-1dcc63bce8cc""}","https://test12345.live/?participantId=B7C756CFF6B8455F988969F84F3A3700&assignmentId=aa752e32-3298-43bc-940b-c75b3b5bb606&projectId=54f8d589-66fc-4c65-830f-1dcc63bce8cc","","3063","
    <div style=""display: flex; justify-content: center; align-items: center;"">
      <img src=""images/red_deck_2.png"" style=""width: 300px; height: 300px; margin-right: 10px;"" />
      <img src=""images/blue_deck_1.png"" style=""width: 300px; height: 300px;"" />
    </div>","0","0",""
"","","","","","html-keyboard-response","6","25512","0.0-6.0-0.0","B7C756CFF6B8455F988969F84F3A3700","B7C756CFF6B8455F988969F84F3A3700","aa752e32-3298-43bc-940b-c75b3b5bb606","54f8d589-66fc-4c65-830f-1dcc63bce8cc","{""participantId"":""B7C756CFF6B8455F988969F84F3A3700"",""assignmentId"":""aa752e32-3298-43bc-940b-c75b3b5bb606"",""projectId"":""54f8d589-66fc-4c65-830f-1dcc63bce8cc""}","https://test12345.live/?participantId=B7C756CFF6B8455F988969F84F3A3700&assignmentId=aa752e32-3298-43bc-940b-c75b3b5bb606&projectId=54f8d589-66fc-4c65-830f-1dcc63bce8cc","","null","<div style=""display: flex; justify-content: center; align-items: center;"">
                    <img src=""images/causal/causal_series_13/causal_series_13_a.jpg"" style=""width: 300px; height: 300px;"" />
                  </div>","null","",""
"","","","","","html-keyboard-response","7","28514","0.0-6.0-1.0","B7C756CFF6B8455F988969F84F3A3700","B7C756CFF6B8455F988969F84F3A3700","aa752e32-3298-43bc-940b-c75b3b5bb606","54f8d589-66fc-4c65-830f-1dcc63bce8cc","{""participantId"":""B7C756CFF6B8455F988969F84F3A3700"",""assignmentId"":""aa752e32-3298-43bc-940b-c75b3b5bb606"",""projectId"":""54f8d589-66fc-4c65-830f-1dcc63bce8cc""}","https://test12345.live/?participantId=B7C756CFF6B8455F988969F84F3A3700&assignmentId=aa752e32-3298-43bc-940b-c75b3b5bb606&projectId=54f8d589-66fc-4c65-830f-1dcc63bce8cc","","null","<div style=""display: flex; justify-content: center; align-items: center;"">
                    <img src=""images/causal/causal_series_13/causal_series_13_b.jpg"" style=""width: 300px; height: 300px;"" />
                  </div>","null","",""
"","","","","","html-keyboard-response","8","31517","0.0-6.0-2.0","B7C756CFF6B8455F988969F84F3A3700","B7C756CFF6B8455F988969F84F3A3700","aa752e32-3298-43bc-940b-c75b3b5bb606","54f8d589-66fc-4c65-830f-1dcc63bce8cc","{""participantId"":""B7C756CFF6B8455F988969F84F3A3700"",""assignmentId"":""aa752e32-3298-43bc-940b-c75b3b5bb606"",""projectId"":""54f8d589-66fc-4c65-830f-1dcc63bce8cc""}","https://test12345.live/?participantId=B7C756CFF6B8455F988969F84F3A3700&assignmentId=aa752e32-3298-43bc-940b-c75b3b5bb606&projectId=54f8d589-66fc-4c65-830f-1dcc63bce8cc","","null","<div style=""display: flex; justify-content: center; align-items: center;"">
                    <img src=""images/causal/causal_series_13/causal_series_13_c.jpg"" style=""width: 300px; height: 300px;"" />
                  </div>","null","",""
"","","","","","html-keyboard-response","9","34521","0.0-6.0-3.0","B7C756CFF6B8455F988969F84F3A3700","B7C756CFF6B8455F988969F84F3A3700","aa752e32-3298-43bc-940b-c75b3b5bb606","54f8d589-66fc-4c65-830f-1dcc63bce8cc","{""participantId"":""B7C756CFF6B8455F988969F84F3A3700"",""assignmentId"":""aa752e32-3298-43bc-940b-c75b3b5bb606"",""projectId"":""54f8d589-66fc-4c65-830f-1dcc63bce8cc""}","https://test12345.live/?participantId=B7C756CFF6B8455F988969F84F3A3700&assignmentId=aa752e32-3298-43bc-940b-c75b3b5bb606&projectId=54f8d589-66fc-4c65-830f-1dcc63bce8cc","","null","<div style=""display: flex; justify-content: center; align-items: center;"">
                    <img src=""images/causal/causal_series_13/causal_series_13_d.jpg"" style=""width: 300px; height: 300px;"" />
                  </div>","null","",""
"","","","","","html-button-response","10","39308","0.0-8.0","B7C756CFF6B8455F988969F84F3A3700","B7C756CFF6B8455F988969F84F3A3700","aa752e32-3298-43bc-940b-c75b3b5bb606","54f8d589-66fc-4c65-830f-1dcc63bce8cc","{""participantId"":""B7C756CFF6B8455F988969F84F3A3700"",""assignmentId"":""aa752e32-3298-43bc-940b-c75b3b5bb606"",""projectId"":""54f8d589-66fc-4c65-830f-1dcc63bce8cc""}","https://test12345.live/?participantId=B7C756CFF6B8455F988969F84F3A3700&assignmentId=aa752e32-3298-43bc-940b-c75b3b5bb606&projectId=54f8d589-66fc-4c65-830f-1dcc63bce8cc","","4784","Was there a person in the picture?","0","",""
"","","","","","survey-likert","11","44743","0.0-9.0","B7C756CFF6B8455F988969F84F3A3700","B7C756CFF6B8455F988969F84F3A3700","aa752e32-3298-43bc-940b-c75b3b5bb606","54f8d589-66fc-4c65-830f-1dcc63bce8cc","{""participantId"":""B7C756CFF6B8455F988969F84F3A3700"",""assignmentId"":""aa752e32-3298-43bc-940b-c75b3b5bb606"",""projectId"":""54f8d589-66fc-4c65-830f-1dcc63bce8cc""}","https://test12345.live/?participantId=B7C756CFF6B8455F988969F84F3A3700&assignmentId=aa752e32-3298-43bc-940b-c75b3b5bb606&projectId=54f8d589-66fc-4c65-830f-1dcc63bce8cc","","5428","","{""Q0"":1}","","[0]"
"","","","","","html-button-response","12","46440","0.0-10.0","B7C756CFF6B8455F988969F84F3A3700","B7C756CFF6B8455F988969F84F3A3700","aa752e32-3298-43bc-940b-c75b3b5bb606","54f8d589-66fc-4c65-830f-1dcc63bce8cc","{""participantId"":""B7C756CFF6B8455F988969F84F3A3700"",""assignmentId"":""aa752e32-3298-43bc-940b-c75b3b5bb606"",""projectId"":""54f8d589-66fc-4c65-830f-1dcc63bce8cc""}","https://test12345.live/?participantId=B7C756CFF6B8455F988969F84F3A3700&assignmentId=aa752e32-3298-43bc-940b-c75b3b5bb606&projectId=54f8d589-66fc-4c65-830f-1dcc63bce8cc","","1695","
    <div style=""display: flex; justify-content: center; align-items: center;"">
      <img src=""images/red_deck_2.png"" style=""width: 300px; height: 300px; margin-right: 10px;"" />
      <img src=""images/blue_deck_1.png"" style=""width: 300px; height: 300px;"" />
    </div>","0","0",""
"","","","","","html-keyboard-response","13","49443","0.0-11.0-0.0","B7C756CFF6B8455F988969F84F3A3700","B7C756CFF6B8455F988969F84F3A3700","aa752e32-3298-43bc-940b-c75b3b5bb606","54f8d589-66fc-4c65-830f-1dcc63bce8cc","{""participantId"":""B7C756CFF6B8455F988969F84F3A3700"",""assignmentId"":""aa752e32-3298-43bc-940b-c75b3b5bb606"",""projectId"":""54f8d589-66fc-4c65-830f-1dcc63bce8cc""}","https://test12345.live/?participantId=B7C756CFF6B8455F988969F84F3A3700&assignmentId=aa752e32-3298-43bc-940b-c75b3b5bb606&projectId=54f8d589-66fc-4c65-830f-1dcc63bce8cc","","null","<div style=""display: flex; justify-content: center; align-items: center;"">
                    <img src=""images/causal/causal_series_10/causal_series_10_a.jpg"" style=""width: 300px; height: 300px;"" />
                  </div>","null","",""
"","","","","","html-keyboard-response","14","52446","0.0-11.0-1.0","B7C756CFF6B8455F988969F84F3A3700","B7C756CFF6B8455F988969F84F3A3700","aa752e32-3298-43bc-940b-c75b3b5bb606","54f8d589-66fc-4c65-830f-1dcc63bce8cc","{""participantId"":""B7C756CFF6B8455F988969F84F3A3700"",""assignmentId"":""aa752e32-3298-43bc-940b-c75b3b5bb606"",""projectId"":""54f8d589-66fc-4c65-830f-1dcc63bce8cc""}","https://test12345.live/?participantId=B7C756CFF6B8455F988969F84F3A3700&assignmentId=aa752e32-3298-43bc-940b-c75b3b5bb606&projectId=54f8d589-66fc-4c65-830f-1dcc63bce8cc","","null","<div style=""display: flex; justify-content: center; align-items: center;"">
                    <img src=""images/causal/causal_series_10/causal_series_10_b.jpg"" style=""width: 300px; height: 300px;"" />
                  </div>","null","",""
"","","","","","html-keyboard-response","15","55448","0.0-11.0-2.0","B7C756CFF6B8455F988969F84F3A3700","B7C756CFF6B8455F988969F84F3A3700","aa752e32-3298-43bc-940b-c75b3b5bb606","54f8d589-66fc-4c65-830f-1dcc63bce8cc","{""participantId"":""B7C756CFF6B8455F988969F84F3A3700"",""assignmentId"":""aa752e32-3298-43bc-940b-c75b3b5bb606"",""projectId"":""54f8d589-66fc-4c65-830f-1dcc63bce8cc""}","https://test12345.live/?participantId=B7C756CFF6B8455F988969F84F3A3700&assignmentId=aa752e32-3298-43bc-940b-c75b3b5bb606&projectId=54f8d589-66fc-4c65-830f-1dcc63bce8cc","","null","<div style=""display: flex; justify-content: center; align-items: center;"">
                    <img src=""images/causal/causal_series_10/causal_series_10_c.jpg"" style=""width: 300px; height: 300px;"" />
                  </div>","null","",""
"","","","","","html-keyboard-response","16","58452","0.0-11.0-3.0","B7C756CFF6B8455F988969F84F3A3700","B7C756CFF6B8455F988969F84F3A3700","aa752e32-3298-43bc-940b-c75b3b5bb606","54f8d589-66fc-4c65-830f-1dcc63bce8cc","{""participantId"":""B7C756CFF6B8455F988969F84F3A3700"",""assignmentId"":""aa752e32-3298-43bc-940b-c75b3b5bb606"",""projectId"":""54f8d589-66fc-4c65-830f-1dcc63bce8cc""}","https://test12345.live/?participantId=B7C756CFF6B8455F988969F84F3A3700&assignmentId=aa752e32-3298-43bc-940b-c75b3b5bb606&projectId=54f8d589-66fc-4c65-830f-1dcc63bce8cc","","null","<div style=""display: flex; justify-content: center; align-items: center;"">
                    <img src=""images/causal/causal_series_10/causal_series_10_d.jpg"" style=""width: 300px; height: 300px;"" />
                  </div>","null","",""
"","","","","","html-button-response","17","60273","0.0-13.0","B7C756CFF6B8455F988969F84F3A3700","B7C756CFF6B8455F988969F84F3A3700","aa752e32-3298-43bc-940b-c75b3b5bb606","54f8d589-66fc-4c65-830f-1dcc63bce8cc","{""participantId"":""B7C756CFF6B8455F988969F84F3A3700"",""assignmentId"":""aa752e32-3298-43bc-940b-c75b3b5bb606"",""projectId"":""54f8d589-66fc-4c65-830f-1dcc63bce8cc""}","https://test12345.live/?participantId=B7C756CFF6B8455F988969F84F3A3700&assignmentId=aa752e32-3298-43bc-940b-c75b3b5bb606&projectId=54f8d589-66fc-4c65-830f-1dcc63bce8cc","","1819","Was there a person in the picture?","1","",""
"","","","","","survey-likert","18","62492","0.0-14.0","B7C756CFF6B8455F988969F84F3A3700","B7C756CFF6B8455F988969F84F3A3700","aa752e32-3298-43bc-940b-c75b3b5bb606","54f8d589-66fc-4c65-830f-1dcc63bce8cc","{""participantId"":""B7C756CFF6B8455F988969F84F3A3700"",""assignmentId"":""aa752e32-3298-43bc-940b-c75b3b5bb606"",""projectId"":""54f8d589-66fc-4c65-830f-1dcc63bce8cc""}","https://test12345.live/?participantId=B7C756CFF6B8455F988969F84F3A3700&assignmentId=aa752e32-3298-43bc-940b-c75b3b5bb606&projectId=54f8d589-66fc-4c65-830f-1dcc63bce8cc","","2217","","{""Q0"":3}","","[0]"
"","","","","","html-button-response","19","63773","0.0-15.0","B7C756CFF6B8455F988969F84F3A3700","B7C756CFF6B8455F988969F84F3A3700","aa752e32-3298-43bc-940b-c75b3b5bb606","54f8d589-66fc-4c65-830f-1dcc63bce8cc","{""participantId"":""B7C756CFF6B8455F988969F84F3A3700"",""assignmentId"":""aa752e32-3298-43bc-940b-c75b3b5bb606"",""projectId"":""54f8d589-66fc-4c65-830f-1dcc63bce8cc""}","https://test12345.live/?participantId=B7C756CFF6B8455F988969F84F3A3700&assignmentId=aa752e32-3298-43bc-940b-c75b3b5bb606&projectId=54f8d589-66fc-4c65-830f-1dcc63bce8cc","","1279","
    <div style=""display: flex; justify-content: center; align-items: center;"">
      <img src=""images/red_deck_2.png"" style=""width: 300px; height: 300px; margin-right: 10px;"" />
      <img src=""images/blue_deck_1.png"" style=""width: 300px; height: 300px;"" />
    </div>","0","0",""
"","","","","","html-keyboard-response","20","66776","0.0-16.0-0.0","B7C756CFF6B8455F988969F84F3A3700","B7C756CFF6B8455F988969F84F3A3700","aa752e32-3298-43bc-940b-c75b3b5bb606","54f8d589-66fc-4c65-830f-1dcc63bce8cc","{""participantId"":""B7C756CFF6B8455F988969F84F3A3700"",""assignmentId"":""aa752e32-3298-43bc-940b-c75b3b5bb606"",""projectId"":""54f8d589-66fc-4c65-830f-1dcc63bce8cc""}","https://test12345.live/?participantId=B7C756CFF6B8455F988969F84F3A3700&assignmentId=aa752e32-3298-43bc-940b-c75b3b5bb606&projectId=54f8d589-66fc-4c65-830f-1dcc63bce8cc","","null","<div style=""display: flex; justify-content: center; align-items: center;"">
                    <img src=""images/causal/causal_series_12/causal_series_12_a.jpg"" style=""width: 300px; height: 300px;"" />
                  </div>","null","",""
"","","","","","html-keyboard-response","21","69779","0.0-16.0-1.0","B7C756CFF6B8455F988969F84F3A3700","B7C756CFF6B8455F988969F84F3A3700","aa752e32-3298-43bc-940b-c75b3b5bb606","54f8d589-66fc-4c65-830f-1dcc63bce8cc","{""participantId"":""B7C756CFF6B8455F988969F84F3A3700"",""assignmentId"":""aa752e32-3298-43bc-940b-c75b3b5bb606"",""projectId"":""54f8d589-66fc-4c65-830f-1dcc63bce8cc""}","https://test12345.live/?participantId=B7C756CFF6B8455F988969F84F3A3700&assignmentId=aa752e32-3298-43bc-940b-c75b3b5bb606&projectId=54f8d589-66fc-4c65-830f-1dcc63bce8cc","","null","<div style=""display: flex; justify-content: center; align-items: center;"">
                    <img src=""images/causal/causal_series_12/causal_series_12_b.jpg"" style=""width: 300px; height: 300px;"" />
                  </div>","null","",""
"","","","","","html-keyboard-response","22","72782","0.0-16.0-2.0","B7C756CFF6B8455F988969F84F3A3700","B7C756CFF6B8455F988969F84F3A3700","aa752e32-3298-43bc-940b-c75b3b5bb606","54f8d589-66fc-4c65-830f-1dcc63bce8cc","{""participantId"":""B7C756CFF6B8455F988969F84F3A3700"",""assignmentId"":""aa752e32-3298-43bc-940b-c75b3b5bb606"",""projectId"":""54f8d589-66fc-4c65-830f-1dcc63bce8cc""}","https://test12345.live/?participantId=B7C756CFF6B8455F988969F84F3A3700&assignmentId=aa752e32-3298-43bc-940b-c75b3b5bb606&projectId=54f8d589-66fc-4c65-830f-1dcc63bce8cc","","null","<div style=""display: flex; justify-content: center; align-items: center;"">
                    <img src=""images/causal/causal_series_12/causal_series_12_c.jpg"" style=""width: 300px; height: 300px;"" />
                  </div>","null","",""
"","","","","","html-keyboard-response","23","75785","0.0-16.0-3.0","B7C756CFF6B8455F988969F84F3A3700","B7C756CFF6B8455F988969F84F3A3700","aa752e32-3298-43bc-940b-c75b3b5bb606","54f8d589-66fc-4c65-830f-1dcc63bce8cc","{""participantId"":""B7C756CFF6B8455F988969F84F3A3700"",""assignmentId"":""aa752e32-3298-43bc-940b-c75b3b5bb606"",""projectId"":""54f8d589-66fc-4c65-830f-1dcc63bce8cc""}","https://test12345.live/?participantId=B7C756CFF6B8455F988969F84F3A3700&assignmentId=aa752e32-3298-43bc-940b-c75b3b5bb606&projectId=54f8d589-66fc-4c65-830f-1dcc63bce8cc","","null","<div style=""display: flex; justify-content: center; align-items: center;"">
                    <img src=""images/causal/causal_series_12/causal_series_12_d.jpg"" style=""width: 300px; height: 300px;"" />
                  </div>","null","",""
"","","","","","html-button-response","24","77507","0.0-18.0","B7C756CFF6B8455F988969F84F3A3700","B7C756CFF6B8455F988969F84F3A3700","aa752e32-3298-43bc-940b-c75b3b5bb606","54f8d589-66fc-4c65-830f-1dcc63bce8cc","{""participantId"":""B7C756CFF6B8455F988969F84F3A3700"",""assignmentId"":""aa752e32-3298-43bc-940b-c75b3b5bb606"",""projectId"":""54f8d589-66fc-4c65-830f-1dcc63bce8cc""}","https://test12345.live/?participantId=B7C756CFF6B8455F988969F84F3A3700&assignmentId=aa752e32-3298-43bc-940b-c75b3b5bb606&projectId=54f8d589-66fc-4c65-830f-1dcc63bce8cc","","1720","Was there a person in the picture?","1","",""
"","","","","","survey-likert","25","80426","0.0-19.0","B7C756CFF6B8455F988969F84F3A3700","B7C756CFF6B8455F988969F84F3A3700","aa752e32-3298-43bc-940b-c75b3b5bb606","54f8d589-66fc-4c65-830f-1dcc63bce8cc","{""participantId"":""B7C756CFF6B8455F988969F84F3A3700"",""assignmentId"":""aa752e32-3298-43bc-940b-c75b3b5bb606"",""projectId"":""54f8d589-66fc-4c65-830f-1dcc63bce8cc""}","https://test12345.live/?participantId=B7C756CFF6B8455F988969F84F3A3700&assignmentId=aa752e32-3298-43bc-940b-c75b3b5bb606&projectId=54f8d589-66fc-4c65-830f-1dcc63bce8cc","","2916","","{""Q0"":3}","","[0]"
"","","","","","html-button-response","26","81423","0.0-20.0","B7C756CFF6B8455F988969F84F3A3700","B7C756CFF6B8455F988969F84F3A3700","aa752e32-3298-43bc-940b-c75b3b5bb606","54f8d589-66fc-4c65-830f-1dcc63bce8cc","{""participantId"":""B7C756CFF6B8455F988969F84F3A3700"",""assignmentId"":""aa752e32-3298-43bc-940b-c75b3b5bb606"",""projectId"":""54f8d589-66fc-4c65-830f-1dcc63bce8cc""}","https://test12345.live/?participantId=B7C756CFF6B8455F988969F84F3A3700&assignmentId=aa752e32-3298-43bc-940b-c75b3b5bb606&projectId=54f8d589-66fc-4c65-830f-1dcc63bce8cc","","995","
    <div style=""display: flex; justify-content: center; align-items: center;"">
      <img src=""images/red_deck_2.png"" style=""width: 300px; height: 300px; margin-right: 10px;"" />
      <img src=""images/blue_deck_1.png"" style=""width: 300px; height: 300px;"" />
    </div>","1","1",""
"","","","","","html-keyboard-response","27","84426","0.0-22.0-0.0","B7C756CFF6B8455F988969F84F3A3700","B7C756CFF6B8455F988969F84F3A3700","aa752e32-3298-43bc-940b-c75b3b5bb606","54f8d589-66fc-4c65-830f-1dcc63bce8cc","{""participantId"":""B7C756CFF6B8455F988969F84F3A3700"",""assignmentId"":""aa752e32-3298-43bc-940b-c75b3b5bb606"",""projectId"":""54f8d589-66fc-4c65-830f-1dcc63bce8cc""}","https://test12345.live/?participantId=B7C756CFF6B8455F988969F84F3A3700&assignmentId=aa752e32-3298-43bc-940b-c75b3b5bb606&projectId=54f8d589-66fc-4c65-830f-1dcc63bce8cc","","null","<div style=""display: flex; justify-content: center; align-items: center;"">
                    <img src=""images/semantic/semantic_series_9/semantic_series_9_a.jpg"" style=""width: 300px; height: 300px;"" />
                  </div>","null","",""
"","","","","","html-keyboard-response","28","87430","0.0-22.0-1.0","B7C756CFF6B8455F988969F84F3A3700","B7C756CFF6B8455F988969F84F3A3700","aa752e32-3298-43bc-940b-c75b3b5bb606","54f8d589-66fc-4c65-830f-1dcc63bce8cc","{""participantId"":""B7C756CFF6B8455F988969F84F3A3700"",""assignmentId"":""aa752e32-3298-43bc-940b-c75b3b5bb606"",""projectId"":""54f8d589-66fc-4c65-830f-1dcc63bce8cc""}","https://test12345.live/?participantId=B7C756CFF6B8455F988969F84F3A3700&assignmentId=aa752e32-3298-43bc-940b-c75b3b5bb606&projectId=54f8d589-66fc-4c65-830f-1dcc63bce8cc","","null","<div style=""display: flex; justify-content: center; align-items: center;"">
                    <img src=""images/semantic/semantic_series_9/semantic_series_9_b.jpg"" style=""width: 300px; height: 300px;"" />
                  </div>","null","",""
"","","","","","html-keyboard-response","29","90433","0.0-22.0-2.0","B7C756CFF6B8455F988969F84F3A3700","B7C756CFF6B8455F988969F84F3A3700","aa752e32-3298-43bc-940b-c75b3b5bb606","54f8d589-66fc-4c65-830f-1dcc63bce8cc","{""participantId"":""B7C756CFF6B8455F988969F84F3A3700"",""assignmentId"":""aa752e32-3298-43bc-940b-c75b3b5bb606"",""projectId"":""54f8d589-66fc-4c65-830f-1dcc63bce8cc""}","https://test12345.live/?participantId=B7C756CFF6B8455F988969F84F3A3700&assignmentId=aa752e32-3298-43bc-940b-c75b3b5bb606&projectId=54f8d589-66fc-4c65-830f-1dcc63bce8cc","","null","<div style=""display: flex; justify-content: center; align-items: center;"">
                    <img src=""images/semantic/semantic_series_9/semantic_series_9_c.jpg"" style=""width: 300px; height: 300px;"" />
                  </div>","null","",""
"","","","","","html-keyboard-response","30","93435","0.0-22.0-3.0","B7C756CFF6B8455F988969F84F3A3700","B7C756CFF6B8455F988969F84F3A3700","aa752e32-3298-43bc-940b-c75b3b5bb606","54f8d589-66fc-4c65-830f-1dcc63bce8cc","{""participantId"":""B7C756CFF6B8455F988969F84F3A3700"",""assignmentId"":""aa752e32-3298-43bc-940b-c75b3b5bb606"",""projectId"":""54f8d589-66fc-4c65-830f-1dcc63bce8cc""}","https://test12345.live/?participantId=B7C756CFF6B8455F988969F84F3A3700&assignmentId=aa752e32-3298-43bc-940b-c75b3b5bb606&projectId=54f8d589-66fc-4c65-830f-1dcc63bce8cc","","null","<div style=""display: flex; justify-content: center; align-items: center;"">
                    <img src=""images/semantic/semantic_series_9/semantic_series_9_d.jpg"" style=""width: 300px; height: 300px;"" />
                  </div>","null","",""
"","","","","","html-button-response","31","95056","0.0-23.0","B7C756CFF6B8455F988969F84F3A3700","B7C756CFF6B8455F988969F84F3A3700","aa752e32-3298-43bc-940b-c75b3b5bb606","54f8d589-66fc-4c65-830f-1dcc63bce8cc","{""participantId"":""B7C756CFF6B8455F988969F84F3A3700"",""assignmentId"":""aa752e32-3298-43bc-940b-c75b3b5bb606"",""projectId"":""54f8d589-66fc-4c65-830f-1dcc63bce8cc""}","https://test12345.live/?participantId=B7C756CFF6B8455F988969F84F3A3700&assignmentId=aa752e32-3298-43bc-940b-c75b3b5bb606&projectId=54f8d589-66fc-4c65-830f-1dcc63bce8cc","","1619","Was there a person in the picture?","1","",""
"","","","","","survey-likert","32","98559","0.0-24.0","B7C756CFF6B8455F988969F84F3A3700","B7C756CFF6B8455F988969F84F3A3700","aa752e32-3298-43bc-940b-c75b3b5bb606","54f8d589-66fc-4c65-830f-1dcc63bce8cc","{""participantId"":""B7C756CFF6B8455F988969F84F3A3700"",""assignmentId"":""aa752e32-3298-43bc-940b-c75b3b5bb606"",""projectId"":""54f8d589-66fc-4c65-830f-1dcc63bce8cc""}","https://test12345.live/?participantId=B7C756CFF6B8455F988969F84F3A3700&assignmentId=aa752e32-3298-43bc-940b-c75b3b5bb606&projectId=54f8d589-66fc-4c65-830f-1dcc63bce8cc","","3500","","{""Q0"":2}","","[0]"
"","","","","","html-button-response","33","99823","0.0-25.0","B7C756CFF6B8455F988969F84F3A3700","B7C756CFF6B8455F988969F84F3A3700","aa752e32-3298-43bc-940b-c75b3b5bb606","54f8d589-66fc-4c65-830f-1dcc63bce8cc","{""participantId"":""B7C756CFF6B8455F988969F84F3A3700"",""assignmentId"":""aa752e32-3298-43bc-940b-c75b3b5bb606"",""projectId"":""54f8d589-66fc-4c65-830f-1dcc63bce8cc""}","https://test12345.live/?participantId=B7C756CFF6B8455F988969F84F3A3700&assignmentId=aa752e32-3298-43bc-940b-c75b3b5bb606&projectId=54f8d589-66fc-4c65-830f-1dcc63bce8cc","","1262","
    <div style=""display: flex; justify-content: center; align-items: center;"">
      <img src=""images/red_deck_2.png"" style=""width: 300px; height: 300px; margin-right: 10px;"" />
      <img src=""images/blue_deck_1.png"" style=""width: 300px; height: 300px;"" />
    </div>","0","0",""
"","","","","","html-keyboard-response","34","102825","0.0-26.0-0.0","B7C756CFF6B8455F988969F84F3A3700","B7C756CFF6B8455F988969F84F3A3700","aa752e32-3298-43bc-940b-c75b3b5bb606","54f8d589-66fc-4c65-830f-1dcc63bce8cc","{""participantId"":""B7C756CFF6B8455F988969F84F3A3700"",""assignmentId"":""aa752e32-3298-43bc-940b-c75b3b5bb606"",""projectId"":""54f8d589-66fc-4c65-830f-1dcc63bce8cc""}","https://test12345.live/?participantId=B7C756CFF6B8455F988969F84F3A3700&assignmentId=aa752e32-3298-43bc-940b-c75b3b5bb606&projectId=54f8d589-66fc-4c65-830f-1dcc63bce8cc","","null","<div style=""display: flex; justify-content: center; align-items: center;"">
                    <img src=""images/causal/causal_series_2/causal_series_2_a.jpg"" style=""width: 300px; height: 300px;"" />
                  </div>","null","",""
"","","","","","html-keyboard-response","35","105828","0.0-26.0-1.0","B7C756CFF6B8455F988969F84F3A3700","B7C756CFF6B8455F988969F84F3A3700","aa752e32-3298-43bc-940b-c75b3b5bb606","54f8d589-66fc-4c65-830f-1dcc63bce8cc","{""participantId"":""B7C756CFF6B8455F988969F84F3A3700"",""assignmentId"":""aa752e32-3298-43bc-940b-c75b3b5bb606"",""projectId"":""54f8d589-66fc-4c65-830f-1dcc63bce8cc""}","https://test12345.live/?participantId=B7C756CFF6B8455F988969F84F3A3700&assignmentId=aa752e32-3298-43bc-940b-c75b3b5bb606&projectId=54f8d589-66fc-4c65-830f-1dcc63bce8cc","","null","<div style=""display: flex; justify-content: center; align-items: center;"">
                    <img src=""images/causal/causal_series_2/causal_series_2_b.jpg"" style=""width: 300px; height: 300px;"" />
                  </div>","null","",""
"","","","","","html-keyboard-response","36","108831","0.0-26.0-2.0","B7C756CFF6B8455F988969F84F3A3700","B7C756CFF6B8455F988969F84F3A3700","aa752e32-3298-43bc-940b-c75b3b5bb606","54f8d589-66fc-4c65-830f-1dcc63bce8cc","{""participantId"":""B7C756CFF6B8455F988969F84F3A3700"",""assignmentId"":""aa752e32-3298-43bc-940b-c75b3b5bb606"",""projectId"":""54f8d589-66fc-4c65-830f-1dcc63bce8cc""}","https://test12345.live/?participantId=B7C756CFF6B8455F988969F84F3A3700&assignmentId=aa752e32-3298-43bc-940b-c75b3b5bb606&projectId=54f8d589-66fc-4c65-830f-1dcc63bce8cc","","null","<div style=""display: flex; justify-content: center; align-items: center;"">
                    <img src=""images/causal/causal_series_2/causal_series_2_c.jpg"" style=""width: 300px; height: 300px;"" />
                  </div>","null","",""
"","","","","","html-keyboard-response","37","111834","0.0-26.0-3.0","B7C756CFF6B8455F988969F84F3A3700","B7C756CFF6B8455F988969F84F3A3700","aa752e32-3298-43bc-940b-c75b3b5bb606","54f8d589-66fc-4c65-830f-1dcc63bce8cc","{""participantId"":""B7C756CFF6B8455F988969F84F3A3700"",""assignmentId"":""aa752e32-3298-43bc-940b-c75b3b5bb606"",""projectId"":""54f8d589-66fc-4c65-830f-1dcc63bce8cc""}","https://test12345.live/?participantId=B7C756CFF6B8455F988969F84F3A3700&assignmentId=aa752e32-3298-43bc-940b-c75b3b5bb606&projectId=54f8d589-66fc-4c65-830f-1dcc63bce8cc","","null","<div style=""display: flex; justify-content: center; align-items: center;"">
                    <img src=""images/causal/causal_series_2/causal_series_2_d.jpg"" style=""width: 300px; height: 300px;"" />
                  </div>","null","",""
"","","","","","html-button-response","38","118452","0.0-28.0","B7C756CFF6B8455F988969F84F3A3700","B7C756CFF6B8455F988969F84F3A3700","aa752e32-3298-43bc-940b-c75b3b5bb606","54f8d589-66fc-4c65-830f-1dcc63bce8cc","{""participantId"":""B7C756CFF6B8455F988969F84F3A3700"",""assignmentId"":""aa752e32-3298-43bc-940b-c75b3b5bb606"",""projectId"":""54f8d589-66fc-4c65-830f-1dcc63bce8cc""}","https://test12345.live/?participantId=B7C756CFF6B8455F988969F84F3A3700&assignmentId=aa752e32-3298-43bc-940b-c75b3b5bb606&projectId=54f8d589-66fc-4c65-830f-1dcc63bce8cc","","6614","Was there a person in the picture?","0","",""
"","","","","","survey-likert","39","120559","0.0-29.0","B7C756CFF6B8455F988969F84F3A3700","B7C756CFF6B8455F988969F84F3A3700","aa752e32-3298-43bc-940b-c75b3b5bb606","54f8d589-66fc-4c65-830f-1dcc63bce8cc","{""participantId"":""B7C756CFF6B8455F988969F84F3A3700"",""assignmentId"":""aa752e32-3298-43bc-940b-c75b3b5bb606"",""projectId"":""54f8d589-66fc-4c65-830f-1dcc63bce8cc""}","https://test12345.live/?participantId=B7C756CFF6B8455F988969F84F3A3700&assignmentId=aa752e32-3298-43bc-940b-c75b3b5bb606&projectId=54f8d589-66fc-4c65-830f-1dcc63bce8cc","","2105","","{""Q0"":2}","","[0]"
"","","","","","html-button-response","40","121589","0.0-30.0","B7C756CFF6B8455F988969F84F3A3700","B7C756CFF6B8455F988969F84F3A3700","aa752e32-3298-43bc-940b-c75b3b5bb606","54f8d589-66fc-4c65-830f-1dcc63bce8cc","{""participantId"":""B7C756CFF6B8455F988969F84F3A3700"",""assignmentId"":""aa752e32-3298-43bc-940b-c75b3b5bb606"",""projectId"":""54f8d589-66fc-4c65-830f-1dcc63bce8cc""}","https://test12345.live/?participantId=B7C756CFF6B8455F988969F84F3A3700&assignmentId=aa752e32-3298-43bc-940b-c75b3b5bb606&projectId=54f8d589-66fc-4c65-830f-1dcc63bce8cc","","1027","
    <div style=""display: flex; justify-content: center; align-items: center;"">
      <img src=""images/red_deck_2.png"" style=""width: 300px; height: 300px; margin-right: 10px;"" />
      <img src=""images/blue_deck_1.png"" style=""width: 300px; height: 300px;"" />
    </div>","0","0",""
"","","","","","html-keyboard-response","41","124592","0.0-31.0-0.0","B7C756CFF6B8455F988969F84F3A3700","B7C756CFF6B8455F988969F84F3A3700","aa752e32-3298-43bc-940b-c75b3b5bb606","54f8d589-66fc-4c65-830f-1dcc63bce8cc","{""participantId"":""B7C756CFF6B8455F988969F84F3A3700"",""assignmentId"":""aa752e32-3298-43bc-940b-c75b3b5bb606"",""projectId"":""54f8d589-66fc-4c65-830f-1dcc63bce8cc""}","https://test12345.live/?participantId=B7C756CFF6B8455F988969F84F3A3700&assignmentId=aa752e32-3298-43bc-940b-c75b3b5bb606&projectId=54f8d589-66fc-4c65-830f-1dcc63bce8cc","","null","<div style=""display: flex; justify-content: center; align-items: center;"">
                    <img src=""images/causal/causal_series_14/causal_series_14_a.jpg"" style=""width: 300px; height: 300px;"" />
                  </div>","null","",""
"","","","","","html-keyboard-response","42","127594","0.0-31.0-1.0","B7C756CFF6B8455F988969F84F3A3700","B7C756CFF6B8455F988969F84F3A3700","aa752e32-3298-43bc-940b-c75b3b5bb606","54f8d589-66fc-4c65-830f-1dcc63bce8cc","{""participantId"":""B7C756CFF6B8455F988969F84F3A3700"",""assignmentId"":""aa752e32-3298-43bc-940b-c75b3b5bb606"",""projectId"":""54f8d589-66fc-4c65-830f-1dcc63bce8cc""}","https://test12345.live/?participantId=B7C756CFF6B8455F988969F84F3A3700&assignmentId=aa752e32-3298-43bc-940b-c75b3b5bb606&projectId=54f8d589-66fc-4c65-830f-1dcc63bce8cc","","null","<div style=""display: flex; justify-content: center; align-items: center;"">
                    <img src=""images/causal/causal_series_14/causal_series_14_b.jpg"" style=""width: 300px; height: 300px;"" />
                  </div>","null","",""
"","","","","","html-keyboard-response","43","130597","0.0-31.0-2.0","B7C756CFF6B8455F988969F84F3A3700","B7C756CFF6B8455F988969F84F3A3700","aa752e32-3298-43bc-940b-c75b3b5bb606","54f8d589-66fc-4c65-830f-1dcc63bce8cc","{""participantId"":""B7C756CFF6B8455F988969F84F3A3700"",""assignmentId"":""aa752e32-3298-43bc-940b-c75b3b5bb606"",""projectId"":""54f8d589-66fc-4c65-830f-1dcc63bce8cc""}","https://test12345.live/?participantId=B7C756CFF6B8455F988969F84F3A3700&assignmentId=aa752e32-3298-43bc-940b-c75b3b5bb606&projectId=54f8d589-66fc-4c65-830f-1dcc63bce8cc","","null","<div style=""display: flex; justify-content: center; align-items: center;"">
                    <img src=""images/causal/causal_series_14/causal_series_14_c.jpg"" style=""width: 300px; height: 300px;"" />
                  </div>","null","",""
"","","","","","html-keyboard-response","44","133601","0.0-31.0-3.0","B7C756CFF6B8455F988969F84F3A3700","B7C756CFF6B8455F988969F84F3A3700","aa752e32-3298-43bc-940b-c75b3b5bb606","54f8d589-66fc-4c65-830f-1dcc63bce8cc","{""participantId"":""B7C756CFF6B8455F988969F84F3A3700"",""assignmentId"":""aa752e32-3298-43bc-940b-c75b3b5bb606"",""projectId"":""54f8d589-66fc-4c65-830f-1dcc63bce8cc""}","https://test12345.live/?participantId=B7C756CFF6B8455F988969F84F3A3700&assignmentId=aa752e32-3298-43bc-940b-c75b3b5bb606&projectId=54f8d589-66fc-4c65-830f-1dcc63bce8cc","","null","<div style=""display: flex; justify-content: center; align-items: center;"">
                    <img src=""images/causal/causal_series_14/causal_series_14_d.jpg"" style=""width: 300px; height: 300px;"" />
                  </div>","null","",""
"","","","","","html-button-response","45","136205","0.0-33.0","B7C756CFF6B8455F988969F84F3A3700","B7C756CFF6B8455F988969F84F3A3700","aa752e32-3298-43bc-940b-c75b3b5bb606","54f8d589-66fc-4c65-830f-1dcc63bce8cc","{""participantId"":""B7C756CFF6B8455F988969F84F3A3700"",""assignmentId"":""aa752e32-3298-43bc-940b-c75b3b5bb606"",""projectId"":""54f8d589-66fc-4c65-830f-1dcc63bce8cc""}","https://test12345.live/?participantId=B7C756CFF6B8455F988969F84F3A3700&assignmentId=aa752e32-3298-43bc-940b-c75b3b5bb606&projectId=54f8d589-66fc-4c65-830f-1dcc63bce8cc","","2602","Was there a person in the picture?","0","",""
"","","","","","survey-likert","46","138894","0.0-34.0","B7C756CFF6B8455F988969F84F3A3700","B7C756CFF6B8455F988969F84F3A3700","aa752e32-3298-43bc-940b-c75b3b5bb606","54f8d589-66fc-4c65-830f-1dcc63bce8cc","{""participantId"":""B7C756CFF6B8455F988969F84F3A3700"",""assignmentId"":""aa752e32-3298-43bc-940b-c75b3b5bb606"",""projectId"":""54f8d589-66fc-4c65-830f-1dcc63bce8cc""}","https://test12345.live/?participantId=B7C756CFF6B8455F988969F84F3A3700&assignmentId=aa752e32-3298-43bc-940b-c75b3b5bb606&projectId=54f8d589-66fc-4c65-830f-1dcc63bce8cc","","2688","","{""Q0"":2}","","[0]"
"","","","","","html-button-response","47","141791","0.0-35.0","B7C756CFF6B8455F988969F84F3A3700","B7C756CFF6B8455F988969F84F3A3700","aa752e32-3298-43bc-940b-c75b3b5bb606","54f8d589-66fc-4c65-830f-1dcc63bce8cc","{""participantId"":""B7C756CFF6B8455F988969F84F3A3700"",""assignmentId"":""aa752e32-3298-43bc-940b-c75b3b5bb606"",""projectId"":""54f8d589-66fc-4c65-830f-1dcc63bce8cc""}","https://test12345.live/?participantId=B7C756CFF6B8455F988969F84F3A3700&assignmentId=aa752e32-3298-43bc-940b-c75b3b5bb606&projectId=54f8d589-66fc-4c65-830f-1dcc63bce8cc","","2894","
    <div style=""display: flex; justify-content: center; align-items: center;"">
      <img src=""images/red_deck_2.png"" style=""width: 300px; height: 300px; margin-right: 10px;"" />
      <img src=""images/blue_deck_1.png"" style=""width: 300px; height: 300px;"" />
    </div>","0","0",""
"","","","","","html-keyboard-response","48","144794","0.0-36.0-0.0","B7C756CFF6B8455F988969F84F3A3700","B7C756CFF6B8455F988969F84F3A3700","aa752e32-3298-43bc-940b-c75b3b5bb606","54f8d589-66fc-4c65-830f-1dcc63bce8cc","{""participantId"":""B7C756CFF6B8455F988969F84F3A3700"",""assignmentId"":""aa752e32-3298-43bc-940b-c75b3b5bb606"",""projectId"":""54f8d589-66fc-4c65-830f-1dcc63bce8cc""}","https://test12345.live/?participantId=B7C756CFF6B8455F988969F84F3A3700&assignmentId=aa752e32-3298-43bc-940b-c75b3b5bb606&projectId=54f8d589-66fc-4c65-830f-1dcc63bce8cc","","null","<div style=""display: flex; justify-content: center; align-items: center;"">
                    <img src=""images/causal/causal_series_15/causal_series_15_a.jpg"" style=""width: 300px; height: 300px;"" />
                  </div>","null","",""
"","","","","","html-keyboard-response","49","147797","0.0-36.0-1.0","B7C756CFF6B8455F988969F84F3A3700","B7C756CFF6B8455F988969F84F3A3700","aa752e32-3298-43bc-940b-c75b3b5bb606","54f8d589-66fc-4c65-830f-1dcc63bce8cc","{""participantId"":""B7C756CFF6B8455F988969F84F3A3700"",""assignmentId"":""aa752e32-3298-43bc-940b-c75b3b5bb606"",""projectId"":""54f8d589-66fc-4c65-830f-1dcc63bce8cc""}","https://test12345.live/?participantId=B7C756CFF6B8455F988969F84F3A3700&assignmentId=aa752e32-3298-43bc-940b-c75b3b5bb606&projectId=54f8d589-66fc-4c65-830f-1dcc63bce8cc","","null","<div style=""display: flex; justify-content: center; align-items: center;"">
                    <img src=""images/causal/causal_series_15/causal_series_15_b.jpg"" style=""width: 300px; height: 300px;"" />
                  </div>","null","",""
"","","","","","html-keyboard-response","50","150800","0.0-36.0-2.0","B7C756CFF6B8455F988969F84F3A3700","B7C756CFF6B8455F988969F84F3A3700","aa752e32-3298-43bc-940b-c75b3b5bb606","54f8d589-66fc-4c65-830f-1dcc63bce8cc","{""participantId"":""B7C756CFF6B8455F988969F84F3A3700"",""assignmentId"":""aa752e32-3298-43bc-940b-c75b3b5bb606"",""projectId"":""54f8d589-66fc-4c65-830f-1dcc63bce8cc""}","https://test12345.live/?participantId=B7C756CFF6B8455F988969F84F3A3700&assignmentId=aa752e32-3298-43bc-940b-c75b3b5bb606&projectId=54f8d589-66fc-4c65-830f-1dcc63bce8cc","","null","<div style=""display: flex; justify-content: center; align-items: center;"">
                    <img src=""images/causal/causal_series_15/causal_series_15_c.jpg"" style=""width: 300px; height: 300px;"" />
                  </div>","null","",""
"","","","","","html-keyboard-response","51","153803","0.0-36.0-3.0","B7C756CFF6B8455F988969F84F3A3700","B7C756CFF6B8455F988969F84F3A3700","aa752e32-3298-43bc-940b-c75b3b5bb606","54f8d589-66fc-4c65-830f-1dcc63bce8cc","{""participantId"":""B7C756CFF6B8455F988969F84F3A3700"",""assignmentId"":""aa752e32-3298-43bc-940b-c75b3b5bb606"",""projectId"":""54f8d589-66fc-4c65-830f-1dcc63bce8cc""}","https://test12345.live/?participantId=B7C756CFF6B8455F988969F84F3A3700&assignmentId=aa752e32-3298-43bc-940b-c75b3b5bb606&projectId=54f8d589-66fc-4c65-830f-1dcc63bce8cc","","null","<div style=""display: flex; justify-content: center; align-items: center;"">
                    <img src=""images/causal/causal_series_15/causal_series_15_d.jpg"" style=""width: 300px; height: 300px;"" />
                  </div>","null","",""
"","","","","","html-button-response","52","154924","0.0-38.0","B7C756CFF6B8455F988969F84F3A3700","B7C756CFF6B8455F988969F84F3A3700","aa752e32-3298-43bc-940b-c75b3b5bb606","54f8d589-66fc-4c65-830f-1dcc63bce8cc","{""participantId"":""B7C756CFF6B8455F988969F84F3A3700"",""assignmentId"":""aa752e32-3298-43bc-940b-c75b3b5bb606"",""projectId"":""54f8d589-66fc-4c65-830f-1dcc63bce8cc""}","https://test12345.live/?participantId=B7C756CFF6B8455F988969F84F3A3700&assignmentId=aa752e32-3298-43bc-940b-c75b3b5bb606&projectId=54f8d589-66fc-4c65-830f-1dcc63bce8cc","","1119","Was there a person in the picture?","0","",""
"","","","","","survey-likert","53","156659","0.0-39.0","B7C756CFF6B8455F988969F84F3A3700","B7C756CFF6B8455F988969F84F3A3700","aa752e32-3298-43bc-940b-c75b3b5bb606","54f8d589-66fc-4c65-830f-1dcc63bce8cc","{""participantId"":""B7C756CFF6B8455F988969F84F3A3700"",""assignmentId"":""aa752e32-3298-43bc-940b-c75b3b5bb606"",""projectId"":""54f8d589-66fc-4c65-830f-1dcc63bce8cc""}","https://test12345.live/?participantId=B7C756CFF6B8455F988969F84F3A3700&assignmentId=aa752e32-3298-43bc-940b-c75b3b5bb606&projectId=54f8d589-66fc-4c65-830f-1dcc63bce8cc","","1733","","{""Q0"":2}","","[0]"
"","","","","","html-button-response","54","157974","0.0-40.0","B7C756CFF6B8455F988969F84F3A3700","B7C756CFF6B8455F988969F84F3A3700","aa752e32-3298-43bc-940b-c75b3b5bb606","54f8d589-66fc-4c65-830f-1dcc63bce8cc","{""participantId"":""B7C756CFF6B8455F988969F84F3A3700"",""assignmentId"":""aa752e32-3298-43bc-940b-c75b3b5bb606"",""projectId"":""54f8d589-66fc-4c65-830f-1dcc63bce8cc""}","https://test12345.live/?participantId=B7C756CFF6B8455F988969F84F3A3700&assignmentId=aa752e32-3298-43bc-940b-c75b3b5bb606&projectId=54f8d589-66fc-4c65-830f-1dcc63bce8cc","","1312","
    <div style=""display: flex; justify-content: center; align-items: center;"">
      <img src=""images/red_deck_2.png"" style=""width: 300px; height: 300px; margin-right: 10px;"" />
      <img src=""images/blue_deck_1.png"" style=""width: 300px; height: 300px;"" />
    </div>","1","1",""
"","","","","","html-keyboard-response","55","160976","0.0-42.0-0.0","B7C756CFF6B8455F988969F84F3A3700","B7C756CFF6B8455F988969F84F3A3700","aa752e32-3298-43bc-940b-c75b3b5bb606","54f8d589-66fc-4c65-830f-1dcc63bce8cc","{""participantId"":""B7C756CFF6B8455F988969F84F3A3700"",""assignmentId"":""aa752e32-3298-43bc-940b-c75b3b5bb606"",""projectId"":""54f8d589-66fc-4c65-830f-1dcc63bce8cc""}","https://test12345.live/?participantId=B7C756CFF6B8455F988969F84F3A3700&assignmentId=aa752e32-3298-43bc-940b-c75b3b5bb606&projectId=54f8d589-66fc-4c65-830f-1dcc63bce8cc","","null","<div style=""display: flex; justify-content: center; align-items: center;"">
                    <img src=""images/semantic/semantic_series_5/semantic_series_5_a.jpg"" style=""width: 300px; height: 300px;"" />
                  </div>","null","",""
"","","","","","html-keyboard-response","56","163980","0.0-42.0-1.0","B7C756CFF6B8455F988969F84F3A3700","B7C756CFF6B8455F988969F84F3A3700","aa752e32-3298-43bc-940b-c75b3b5bb606","54f8d589-66fc-4c65-830f-1dcc63bce8cc","{""participantId"":""B7C756CFF6B8455F988969F84F3A3700"",""assignmentId"":""aa752e32-3298-43bc-940b-c75b3b5bb606"",""projectId"":""54f8d589-66fc-4c65-830f-1dcc63bce8cc""}","https://test12345.live/?participantId=B7C756CFF6B8455F988969F84F3A3700&assignmentId=aa752e32-3298-43bc-940b-c75b3b5bb606&projectId=54f8d589-66fc-4c65-830f-1dcc63bce8cc","","null","<div style=""display: flex; justify-content: center; align-items: center;"">
                    <img src=""images/semantic/semantic_series_5/semantic_series_5_b.jpg"" style=""width: 300px; height: 300px;"" />
                  </div>","null","",""
"","","","","","html-keyboard-response","57","166986","0.0-42.0-2.0","B7C756CFF6B8455F988969F84F3A3700","B7C756CFF6B8455F988969F84F3A3700","aa752e32-3298-43bc-940b-c75b3b5bb606","54f8d589-66fc-4c65-830f-1dcc63bce8cc","{""participantId"":""B7C756CFF6B8455F988969F84F3A3700"",""assignmentId"":""aa752e32-3298-43bc-940b-c75b3b5bb606"",""projectId"":""54f8d589-66fc-4c65-830f-1dcc63bce8cc""}","https://test12345.live/?participantId=B7C756CFF6B8455F988969F84F3A3700&assignmentId=aa752e32-3298-43bc-940b-c75b3b5bb606&projectId=54f8d589-66fc-4c65-830f-1dcc63bce8cc","","null","<div style=""display: flex; justify-content: center; align-items: center;"">
                    <img src=""images/semantic/semantic_series_5/semantic_series_5_c.jpg"" style=""width: 300px; height: 300px;"" />
                  </div>","null","",""
"","","","","","html-keyboard-response","58","169989","0.0-42.0-3.0","B7C756CFF6B8455F988969F84F3A3700","B7C756CFF6B8455F988969F84F3A3700","aa752e32-3298-43bc-940b-c75b3b5bb606","54f8d589-66fc-4c65-830f-1dcc63bce8cc","{""participantId"":""B7C756CFF6B8455F988969F84F3A3700"",""assignmentId"":""aa752e32-3298-43bc-940b-c75b3b5bb606"",""projectId"":""54f8d589-66fc-4c65-830f-1dcc63bce8cc""}","https://test12345.live/?participantId=B7C756CFF6B8455F988969F84F3A3700&assignmentId=aa752e32-3298-43bc-940b-c75b3b5bb606&projectId=54f8d589-66fc-4c65-830f-1dcc63bce8cc","","null","<div style=""display: flex; justify-content: center; align-items: center;"">
                    <img src=""images/semantic/semantic_series_5/semantic_series_5_d.jpg"" style=""width: 300px; height: 300px;"" />
                  </div>","null","",""
"","","","","","html-button-response","59","171426","0.0-43.0","B7C756CFF6B8455F988969F84F3A3700","B7C756CFF6B8455F988969F84F3A3700","aa752e32-3298-43bc-940b-c75b3b5bb606","54f8d589-66fc-4c65-830f-1dcc63bce8cc","{""participantId"":""B7C756CFF6B8455F988969F84F3A3700"",""assignmentId"":""aa752e32-3298-43bc-940b-c75b3b5bb606"",""projectId"":""54f8d589-66fc-4c65-830f-1dcc63bce8cc""}","https://test12345.live/?participantId=B7C756CFF6B8455F988969F84F3A3700&assignmentId=aa752e32-3298-43bc-940b-c75b3b5bb606&projectId=54f8d589-66fc-4c65-830f-1dcc63bce8cc","","1432","Was there a person in the picture?","0","",""
"","","","","","survey-likert","60","173044","0.0-44.0","B7C756CFF6B8455F988969F84F3A3700","B7C756CFF6B8455F988969F84F3A3700","aa752e32-3298-43bc-940b-c75b3b5bb606","54f8d589-66fc-4c65-830f-1dcc63bce8cc","{""participantId"":""B7C756CFF6B8455F988969F84F3A3700"",""assignmentId"":""aa752e32-3298-43bc-940b-c75b3b5bb606"",""projectId"":""54f8d589-66fc-4c65-830f-1dcc63bce8cc""}","https://test12345.live/?participantId=B7C756CFF6B8455F988969F84F3A3700&assignmentId=aa752e32-3298-43bc-940b-c75b3b5bb606&projectId=54f8d589-66fc-4c65-830f-1dcc63bce8cc","","1617","","{""Q0"":1}","","[0]"
"","","","","","html-button-response","61","173841","0.0-45.0","B7C756CFF6B8455F988969F84F3A3700","B7C756CFF6B8455F988969F84F3A3700","aa752e32-3298-43bc-940b-c75b3b5bb606","54f8d589-66fc-4c65-830f-1dcc63bce8cc","{""participantId"":""B7C756CFF6B8455F988969F84F3A3700"",""assignmentId"":""aa752e32-3298-43bc-940b-c75b3b5bb606"",""projectId"":""54f8d589-66fc-4c65-830f-1dcc63bce8cc""}","https://test12345.live/?participantId=B7C756CFF6B8455F988969F84F3A3700&assignmentId=aa752e32-3298-43bc-940b-c75b3b5bb606&projectId=54f8d589-66fc-4c65-830f-1dcc63bce8cc","","794","
    <div style=""display: flex; justify-content: center; align-items: center;"">
      <img src=""images/red_deck_2.png"" style=""width: 300px; height: 300px; margin-right: 10px;"" />
      <img src=""images/blue_deck_1.png"" style=""width: 300px; height: 300px;"" />
    </div>","1","1",""
"","","","","","html-keyboard-response","62","176843","0.0-47.0-0.0","B7C756CFF6B8455F988969F84F3A3700","B7C756CFF6B8455F988969F84F3A3700","aa752e32-3298-43bc-940b-c75b3b5bb606","54f8d589-66fc-4c65-830f-1dcc63bce8cc","{""participantId"":""B7C756CFF6B8455F988969F84F3A3700"",""assignmentId"":""aa752e32-3298-43bc-940b-c75b3b5bb606"",""projectId"":""54f8d589-66fc-4c65-830f-1dcc63bce8cc""}","https://test12345.live/?participantId=B7C756CFF6B8455F988969F84F3A3700&assignmentId=aa752e32-3298-43bc-940b-c75b3b5bb606&projectId=54f8d589-66fc-4c65-830f-1dcc63bce8cc","","null","<div style=""display: flex; justify-content: center; align-items: center;"">
                    <img src=""images/semantic/semantic_series_2/semantic_series_2_a.jpg"" style=""width: 300px; height: 300px;"" />
                  </div>","null","",""
"","","","","","html-keyboard-response","63","179849","0.0-47.0-1.0","B7C756CFF6B8455F988969F84F3A3700","B7C756CFF6B8455F988969F84F3A3700","aa752e32-3298-43bc-940b-c75b3b5bb606","54f8d589-66fc-4c65-830f-1dcc63bce8cc","{""participantId"":""B7C756CFF6B8455F988969F84F3A3700"",""assignmentId"":""aa752e32-3298-43bc-940b-c75b3b5bb606"",""projectId"":""54f8d589-66fc-4c65-830f-1dcc63bce8cc""}","https://test12345.live/?participantId=B7C756CFF6B8455F988969F84F3A3700&assignmentId=aa752e32-3298-43bc-940b-c75b3b5bb606&projectId=54f8d589-66fc-4c65-830f-1dcc63bce8cc","","null","<div style=""display: flex; justify-content: center; align-items: center;"">
                    <img src=""images/semantic/semantic_series_2/semantic_series_2_b.jpg"" style=""width: 300px; height: 300px;"" />
                  </div>","null","",""
"","","","","","html-keyboard-response","64","182854","0.0-47.0-2.0","B7C756CFF6B8455F988969F84F3A3700","B7C756CFF6B8455F988969F84F3A3700","aa752e32-3298-43bc-940b-c75b3b5bb606","54f8d589-66fc-4c65-830f-1dcc63bce8cc","{""participantId"":""B7C756CFF6B8455F988969F84F3A3700"",""assignmentId"":""aa752e32-3298-43bc-940b-c75b3b5bb606"",""projectId"":""54f8d589-66fc-4c65-830f-1dcc63bce8cc""}","https://test12345.live/?participantId=B7C756CFF6B8455F988969F84F3A3700&assignmentId=aa752e32-3298-43bc-940b-c75b3b5bb606&projectId=54f8d589-66fc-4c65-830f-1dcc63bce8cc","","null","<div style=""display: flex; justify-content: center; align-items: center;"">
                    <img src=""images/semantic/semantic_series_2/semantic_series_2_c.jpg"" style=""width: 300px; height: 300px;"" />
                  </div>","null","",""
"","","","","","html-keyboard-response","65","185858","0.0-47.0-3.0","B7C756CFF6B8455F988969F84F3A3700","B7C756CFF6B8455F988969F84F3A3700","aa752e32-3298-43bc-940b-c75b3b5bb606","54f8d589-66fc-4c65-830f-1dcc63bce8cc","{""participantId"":""B7C756CFF6B8455F988969F84F3A3700"",""assignmentId"":""aa752e32-3298-43bc-940b-c75b3b5bb606"",""projectId"":""54f8d589-66fc-4c65-830f-1dcc63bce8cc""}","https://test12345.live/?participantId=B7C756CFF6B8455F988969F84F3A3700&assignmentId=aa752e32-3298-43bc-940b-c75b3b5bb606&projectId=54f8d589-66fc-4c65-830f-1dcc63bce8cc","","null","<div style=""display: flex; justify-content: center; align-items: center;"">
                    <img src=""images/semantic/semantic_series_2/semantic_series_2_d.jpg"" style=""width: 300px; height: 300px;"" />
                  </div>","null","",""
"","","","","","html-button-response","66","189375","0.0-48.0","B7C756CFF6B8455F988969F84F3A3700","B7C756CFF6B8455F988969F84F3A3700","aa752e32-3298-43bc-940b-c75b3b5bb606","54f8d589-66fc-4c65-830f-1dcc63bce8cc","{""participantId"":""B7C756CFF6B8455F988969F84F3A3700"",""assignmentId"":""aa752e32-3298-43bc-940b-c75b3b5bb606"",""projectId"":""54f8d589-66fc-4c65-830f-1dcc63bce8cc""}","https://test12345.live/?participantId=B7C756CFF6B8455F988969F84F3A3700&assignmentId=aa752e32-3298-43bc-940b-c75b3b5bb606&projectId=54f8d589-66fc-4c65-830f-1dcc63bce8cc","","3514","Was there a person in the picture?","0","",""
"","","","","","survey-likert","67","194260","0.0-49.0","B7C756CFF6B8455F988969F84F3A3700","B7C756CFF6B8455F988969F84F3A3700","aa752e32-3298-43bc-940b-c75b3b5bb606","54f8d589-66fc-4c65-830f-1dcc63bce8cc","{""participantId"":""B7C756CFF6B8455F988969F84F3A3700"",""assignmentId"":""aa752e32-3298-43bc-940b-c75b3b5bb606"",""projectId"":""54f8d589-66fc-4c65-830f-1dcc63bce8cc""}","https://test12345.live/?participantId=B7C756CFF6B8455F988969F84F3A3700&assignmentId=aa752e32-3298-43bc-940b-c75b3b5bb606&projectId=54f8d589-66fc-4c65-830f-1dcc63bce8cc","","4884","","{""Q0"":1}","","[0]"
"","","","","","html-button-response","68","195873","0.0-50.0","B7C756CFF6B8455F988969F84F3A3700","B7C756CFF6B8455F988969F84F3A3700","aa752e32-3298-43bc-940b-c75b3b5bb606","54f8d589-66fc-4c65-830f-1dcc63bce8cc","{""participantId"":""B7C756CFF6B8455F988969F84F3A3700"",""assignmentId"":""aa752e32-3298-43bc-940b-c75b3b5bb606"",""projectId"":""54f8d589-66fc-4c65-830f-1dcc63bce8cc""}","https://test12345.live/?participantId=B7C756CFF6B8455F988969F84F3A3700&assignmentId=aa752e32-3298-43bc-940b-c75b3b5bb606&projectId=54f8d589-66fc-4c65-830f-1dcc63bce8cc","","1610","
    <div style=""display: flex; justify-content: center; align-items: center;"">
      <img src=""images/red_deck_2.png"" style=""width: 300px; height: 300px; margin-right: 10px;"" />
      <img src=""images/blue_deck_1.png"" style=""width: 300px; height: 300px;"" />
    </div>","1","1",""
"","","","","","html-keyboard-response","69","198877","0.0-52.0-0.0","B7C756CFF6B8455F988969F84F3A3700","B7C756CFF6B8455F988969F84F3A3700","aa752e32-3298-43bc-940b-c75b3b5bb606","54f8d589-66fc-4c65-830f-1dcc63bce8cc","{""participantId"":""B7C756CFF6B8455F988969F84F3A3700"",""assignmentId"":""aa752e32-3298-43bc-940b-c75b3b5bb606"",""projectId"":""54f8d589-66fc-4c65-830f-1dcc63bce8cc""}","https://test12345.live/?participantId=B7C756CFF6B8455F988969F84F3A3700&assignmentId=aa752e32-3298-43bc-940b-c75b3b5bb606&projectId=54f8d589-66fc-4c65-830f-1dcc63bce8cc","","null","<div style=""display: flex; justify-content: center; align-items: center;"">
                    <img src=""images/semantic/semantic_series_15/semantic_series_15_a.jpg"" style=""width: 300px; height: 300px;"" />
                  </div>","null","",""
"","","","","","html-keyboard-response","70","201881","0.0-52.0-1.0","B7C756CFF6B8455F988969F84F3A3700","B7C756CFF6B8455F988969F84F3A3700","aa752e32-3298-43bc-940b-c75b3b5bb606","54f8d589-66fc-4c65-830f-1dcc63bce8cc","{""participantId"":""B7C756CFF6B8455F988969F84F3A3700"",""assignmentId"":""aa752e32-3298-43bc-940b-c75b3b5bb606"",""projectId"":""54f8d589-66fc-4c65-830f-1dcc63bce8cc""}","https://test12345.live/?participantId=B7C756CFF6B8455F988969F84F3A3700&assignmentId=aa752e32-3298-43bc-940b-c75b3b5bb606&projectId=54f8d589-66fc-4c65-830f-1dcc63bce8cc","","null","<div style=""display: flex; justify-content: center; align-items: center;"">
                    <img src=""images/semantic/semantic_series_15/semantic_series_15_b.jpg"" style=""width: 300px; height: 300px;"" />
                  </div>","null","",""
"","","","","","html-keyboard-response","71","204884","0.0-52.0-2.0","B7C756CFF6B8455F988969F84F3A3700","B7C756CFF6B8455F988969F84F3A3700","aa752e32-3298-43bc-940b-c75b3b5bb606","54f8d589-66fc-4c65-830f-1dcc63bce8cc","{""participantId"":""B7C756CFF6B8455F988969F84F3A3700"",""assignmentId"":""aa752e32-3298-43bc-940b-c75b3b5bb606"",""projectId"":""54f8d589-66fc-4c65-830f-1dcc63bce8cc""}","https://test12345.live/?participantId=B7C756CFF6B8455F988969F84F3A3700&assignmentId=aa752e32-3298-43bc-940b-c75b3b5bb606&projectId=54f8d589-66fc-4c65-830f-1dcc63bce8cc","","null","<div style=""display: flex; justify-content: center; align-items: center;"">
                    <img src=""images/semantic/semantic_series_15/semantic_series_15_c.jpg"" style=""width: 300px; height: 300px;"" />
                  </div>","null","",""
"","","","","","html-keyboard-response","72","207886","0.0-52.0-3.0","B7C756CFF6B8455F988969F84F3A3700","B7C756CFF6B8455F988969F84F3A3700","aa752e32-3298-43bc-940b-c75b3b5bb606","54f8d589-66fc-4c65-830f-1dcc63bce8cc","{""participantId"":""B7C756CFF6B8455F988969F84F3A3700"",""assignmentId"":""aa752e32-3298-43bc-940b-c75b3b5bb606"",""projectId"":""54f8d589-66fc-4c65-830f-1dcc63bce8cc""}","https://test12345.live/?participantId=B7C756CFF6B8455F988969F84F3A3700&assignmentId=aa752e32-3298-43bc-940b-c75b3b5bb606&projectId=54f8d589-66fc-4c65-830f-1dcc63bce8cc","","null","<div style=""display: flex; justify-content: center; align-items: center;"">
                    <img src=""images/semantic/semantic_series_15/semantic_series_15_d.jpg"" style=""width: 300px; height: 300px;"" />
                  </div>","null","",""
"","","","","","html-button-response","73","209925","0.0-53.0","B7C756CFF6B8455F988969F84F3A3700","B7C756CFF6B8455F988969F84F3A3700","aa752e32-3298-43bc-940b-c75b3b5bb606","54f8d589-66fc-4c65-830f-1dcc63bce8cc","{""participantId"":""B7C756CFF6B8455F988969F84F3A3700"",""assignmentId"":""aa752e32-3298-43bc-940b-c75b3b5bb606"",""projectId"":""54f8d589-66fc-4c65-830f-1dcc63bce8cc""}","https://test12345.live/?participantId=B7C756CFF6B8455F988969F84F3A3700&assignmentId=aa752e32-3298-43bc-940b-c75b3b5bb606&projectId=54f8d589-66fc-4c65-830f-1dcc63bce8cc","","2037","Was there a person in the picture?","1","",""
"","","","","","survey-likert","74","212177","0.0-54.0","B7C756CFF6B8455F988969F84F3A3700","B7C756CFF6B8455F988969F84F3A3700","aa752e32-3298-43bc-940b-c75b3b5bb606","54f8d589-66fc-4c65-830f-1dcc63bce8cc","{""participantId"":""B7C756CFF6B8455F988969F84F3A3700"",""assignmentId"":""aa752e32-3298-43bc-940b-c75b3b5bb606"",""projectId"":""54f8d589-66fc-4c65-830f-1dcc63bce8cc""}","https://test12345.live/?participantId=B7C756CFF6B8455F988969F84F3A3700&assignmentId=aa752e32-3298-43bc-940b-c75b3b5bb606&projectId=54f8d589-66fc-4c65-830f-1dcc63bce8cc","","2249","","{""Q0"":2}","","[0]"
"","","","","","html-button-response","75","213140","0.0-55.0","B7C756CFF6B8455F988969F84F3A3700","B7C756CFF6B8455F988969F84F3A3700","aa752e32-3298-43bc-940b-c75b3b5bb606","54f8d589-66fc-4c65-830f-1dcc63bce8cc","{""participantId"":""B7C756CFF6B8455F988969F84F3A3700"",""assignmentId"":""aa752e32-3298-43bc-940b-c75b3b5bb606"",""projectId"":""54f8d589-66fc-4c65-830f-1dcc63bce8cc""}","https://test12345.live/?participantId=B7C756CFF6B8455F988969F84F3A3700&assignmentId=aa752e32-3298-43bc-940b-c75b3b5bb606&projectId=54f8d589-66fc-4c65-830f-1dcc63bce8cc","","962","
    <div style=""display: flex; justify-content: center; align-items: center;"">
      <img src=""images/red_deck_2.png"" style=""width: 300px; height: 300px; margin-right: 10px;"" />
      <img src=""images/blue_deck_1.png"" style=""width: 300px; height: 300px;"" />
    </div>","0","0",""
"","","","","","html-keyboard-response","76","216143","0.0-56.0-0.0","B7C756CFF6B8455F988969F84F3A3700","B7C756CFF6B8455F988969F84F3A3700","aa752e32-3298-43bc-940b-c75b3b5bb606","54f8d589-66fc-4c65-830f-1dcc63bce8cc","{""participantId"":""B7C756CFF6B8455F988969F84F3A3700"",""assignmentId"":""aa752e32-3298-43bc-940b-c75b3b5bb606"",""projectId"":""54f8d589-66fc-4c65-830f-1dcc63bce8cc""}","https://test12345.live/?participantId=B7C756CFF6B8455F988969F84F3A3700&assignmentId=aa752e32-3298-43bc-940b-c75b3b5bb606&projectId=54f8d589-66fc-4c65-830f-1dcc63bce8cc","","null","<div style=""display: flex; justify-content: center; align-items: center;"">
                    <img src=""images/causal/causal_series_5/causal_series_5_a.jpg"" style=""width: 300px; height: 300px;"" />
                  </div>","null","",""
"","","","","","html-keyboard-response","77","219146","0.0-56.0-1.0","B7C756CFF6B8455F988969F84F3A3700","B7C756CFF6B8455F988969F84F3A3700","aa752e32-3298-43bc-940b-c75b3b5bb606","54f8d589-66fc-4c65-830f-1dcc63bce8cc","{""participantId"":""B7C756CFF6B8455F988969F84F3A3700"",""assignmentId"":""aa752e32-3298-43bc-940b-c75b3b5bb606"",""projectId"":""54f8d589-66fc-4c65-830f-1dcc63bce8cc""}","https://test12345.live/?participantId=B7C756CFF6B8455F988969F84F3A3700&assignmentId=aa752e32-3298-43bc-940b-c75b3b5bb606&projectId=54f8d589-66fc-4c65-830f-1dcc63bce8cc","","null","<div style=""display: flex; justify-content: center; align-items: center;"">
                    <img src=""images/causal/causal_series_5/causal_series_5_b.jpg"" style=""width: 300px; height: 300px;"" />
                  </div>","null","",""
"","","","","","html-keyboard-response","78","222149","0.0-56.0-2.0","B7C756CFF6B8455F988969F84F3A3700","B7C756CFF6B8455F988969F84F3A3700","aa752e32-3298-43bc-940b-c75b3b5bb606","54f8d589-66fc-4c65-830f-1dcc63bce8cc","{""participantId"":""B7C756CFF6B8455F988969F84F3A3700"",""assignmentId"":""aa752e32-3298-43bc-940b-c75b3b5bb606"",""projectId"":""54f8d589-66fc-4c65-830f-1dcc63bce8cc""}","https://test12345.live/?participantId=B7C756CFF6B8455F988969F84F3A3700&assignmentId=aa752e32-3298-43bc-940b-c75b3b5bb606&projectId=54f8d589-66fc-4c65-830f-1dcc63bce8cc","","null","<div style=""display: flex; justify-content: center; align-items: center;"">
                    <img src=""images/causal/causal_series_5/causal_series_5_c.jpg"" style=""width: 300px; height: 300px;"" />
                  </div>","null","",""
"","","","","","html-keyboard-response","79","225152","0.0-56.0-3.0","B7C756CFF6B8455F988969F84F3A3700","B7C756CFF6B8455F988969F84F3A3700","aa752e32-3298-43bc-940b-c75b3b5bb606","54f8d589-66fc-4c65-830f-1dcc63bce8cc","{""participantId"":""B7C756CFF6B8455F988969F84F3A3700"",""assignmentId"":""aa752e32-3298-43bc-940b-c75b3b5bb606"",""projectId"":""54f8d589-66fc-4c65-830f-1dcc63bce8cc""}","https://test12345.live/?participantId=B7C756CFF6B8455F988969F84F3A3700&assignmentId=aa752e32-3298-43bc-940b-c75b3b5bb606&projectId=54f8d589-66fc-4c65-830f-1dcc63bce8cc","","null","<div style=""display: flex; justify-content: center; align-items: center;"">
                    <img src=""images/causal/causal_series_5/causal_series_5_d.jpg"" style=""width: 300px; height: 300px;"" />
                  </div>","null","",""
"","","","","","html-button-response","80","226975","0.0-58.0","B7C756CFF6B8455F988969F84F3A3700","B7C756CFF6B8455F988969F84F3A3700","aa752e32-3298-43bc-940b-c75b3b5bb606","54f8d589-66fc-4c65-830f-1dcc63bce8cc","{""participantId"":""B7C756CFF6B8455F988969F84F3A3700"",""assignmentId"":""aa752e32-3298-43bc-940b-c75b3b5bb606"",""projectId"":""54f8d589-66fc-4c65-830f-1dcc63bce8cc""}","https://test12345.live/?participantId=B7C756CFF6B8455F988969F84F3A3700&assignmentId=aa752e32-3298-43bc-940b-c75b3b5bb606&projectId=54f8d589-66fc-4c65-830f-1dcc63bce8cc","","1821","Was there a person in the picture?","0","",""
"","","","","","survey-likert","81","228643","0.0-59.0","B7C756CFF6B8455F988969F84F3A3700","B7C756CFF6B8455F988969F84F3A3700","aa752e32-3298-43bc-940b-c75b3b5bb606","54f8d589-66fc-4c65-830f-1dcc63bce8cc","{""participantId"":""B7C756CFF6B8455F988969F84F3A3700"",""assignmentId"":""aa752e32-3298-43bc-940b-c75b3b5bb606"",""projectId"":""54f8d589-66fc-4c65-830f-1dcc63bce8cc""}","https://test12345.live/?participantId=B7C756CFF6B8455F988969F84F3A3700&assignmentId=aa752e32-3298-43bc-940b-c75b3b5bb606&projectId=54f8d589-66fc-4c65-830f-1dcc63bce8cc","","1667","","{""Q0"":0}","","[0]"
"","","","","","html-button-response","82","229658","0.0-60.0","B7C756CFF6B8455F988969F84F3A3700","B7C756CFF6B8455F988969F84F3A3700","aa752e32-3298-43bc-940b-c75b3b5bb606","54f8d589-66fc-4c65-830f-1dcc63bce8cc","{""participantId"":""B7C756CFF6B8455F988969F84F3A3700"",""assignmentId"":""aa752e32-3298-43bc-940b-c75b3b5bb606"",""projectId"":""54f8d589-66fc-4c65-830f-1dcc63bce8cc""}","https://test12345.live/?participantId=B7C756CFF6B8455F988969F84F3A3700&assignmentId=aa752e32-3298-43bc-940b-c75b3b5bb606&projectId=54f8d589-66fc-4c65-830f-1dcc63bce8cc","","1012","
    <div style=""display: flex; justify-content: center; align-items: center;"">
      <img src=""images/red_deck_2.png"" style=""width: 300px; height: 300px; margin-right: 10px;"" />
      <img src=""images/blue_deck_1.png"" style=""width: 300px; height: 300px;"" />
    </div>","0","0",""
"","","","","","html-keyboard-response","83","232660","0.0-61.0-0.0","B7C756CFF6B8455F988969F84F3A3700","B7C756CFF6B8455F988969F84F3A3700","aa752e32-3298-43bc-940b-c75b3b5bb606","54f8d589-66fc-4c65-830f-1dcc63bce8cc","{""participantId"":""B7C756CFF6B8455F988969F84F3A3700"",""assignmentId"":""aa752e32-3298-43bc-940b-c75b3b5bb606"",""projectId"":""54f8d589-66fc-4c65-830f-1dcc63bce8cc""}","https://test12345.live/?participantId=B7C756CFF6B8455F988969F84F3A3700&assignmentId=aa752e32-3298-43bc-940b-c75b3b5bb606&projectId=54f8d589-66fc-4c65-830f-1dcc63bce8cc","","null","<div style=""display: flex; justify-content: center; align-items: center;"">
                    <img src=""images/causal/causal_series_4/causal_series_4_a.jpg"" style=""width: 300px; height: 300px;"" />
                  </div>","null","",""
"","","","","","html-keyboard-response","84","235663","0.0-61.0-1.0","B7C756CFF6B8455F988969F84F3A3700","B7C756CFF6B8455F988969F84F3A3700","aa752e32-3298-43bc-940b-c75b3b5bb606","54f8d589-66fc-4c65-830f-1dcc63bce8cc","{""participantId"":""B7C756CFF6B8455F988969F84F3A3700"",""assignmentId"":""aa752e32-3298-43bc-940b-c75b3b5bb606"",""projectId"":""54f8d589-66fc-4c65-830f-1dcc63bce8cc""}","https://test12345.live/?participantId=B7C756CFF6B8455F988969F84F3A3700&assignmentId=aa752e32-3298-43bc-940b-c75b3b5bb606&projectId=54f8d589-66fc-4c65-830f-1dcc63bce8cc","","null","<div style=""display: flex; justify-content: center; align-items: center;"">
                    <img src=""images/causal/causal_series_4/causal_series_4_b.jpg"" style=""width: 300px; height: 300px;"" />
                  </div>","null","",""
"","","","","","html-keyboard-response","85","238665","0.0-61.0-2.0","B7C756CFF6B8455F988969F84F3A3700","B7C756CFF6B8455F988969F84F3A3700","aa752e32-3298-43bc-940b-c75b3b5bb606","54f8d589-66fc-4c65-830f-1dcc63bce8cc","{""participantId"":""B7C756CFF6B8455F988969F84F3A3700"",""assignmentId"":""aa752e32-3298-43bc-940b-c75b3b5bb606"",""projectId"":""54f8d589-66fc-4c65-830f-1dcc63bce8cc""}","https://test12345.live/?participantId=B7C756CFF6B8455F988969F84F3A3700&assignmentId=aa752e32-3298-43bc-940b-c75b3b5bb606&projectId=54f8d589-66fc-4c65-830f-1dcc63bce8cc","","null","<div style=""display: flex; justify-content: center; align-items: center;"">
                    <img src=""images/causal/causal_series_4/causal_series_4_c.jpg"" style=""width: 300px; height: 300px;"" />
                  </div>","null","",""
"","","","","","html-keyboard-response","86","241669","0.0-61.0-3.0","B7C756CFF6B8455F988969F84F3A3700","B7C756CFF6B8455F988969F84F3A3700","aa752e32-3298-43bc-940b-c75b3b5bb606","54f8d589-66fc-4c65-830f-1dcc63bce8cc","{""participantId"":""B7C756CFF6B8455F988969F84F3A3700"",""assignmentId"":""aa752e32-3298-43bc-940b-c75b3b5bb606"",""projectId"":""54f8d589-66fc-4c65-830f-1dcc63bce8cc""}","https://test12345.live/?participantId=B7C756CFF6B8455F988969F84F3A3700&assignmentId=aa752e32-3298-43bc-940b-c75b3b5bb606&projectId=54f8d589-66fc-4c65-830f-1dcc63bce8cc","","null","<div style=""display: flex; justify-content: center; align-items: center;"">
                    <img src=""images/causal/causal_series_4/causal_series_4_d.jpg"" style=""width: 300px; height: 300px;"" />
                  </div>","null","",""
"","","","","","html-button-response","87","243373","0.0-63.0","B7C756CFF6B8455F988969F84F3A3700","B7C756CFF6B8455F988969F84F3A3700","aa752e32-3298-43bc-940b-c75b3b5bb606","54f8d589-66fc-4c65-830f-1dcc63bce8cc","{""participantId"":""B7C756CFF6B8455F988969F84F3A3700"",""assignmentId"":""aa752e32-3298-43bc-940b-c75b3b5bb606"",""projectId"":""54f8d589-66fc-4c65-830f-1dcc63bce8cc""}","https://test12345.live/?participantId=B7C756CFF6B8455F988969F84F3A3700&assignmentId=aa752e32-3298-43bc-940b-c75b3b5bb606&projectId=54f8d589-66fc-4c65-830f-1dcc63bce8cc","","1703","Was there a person in the picture?","1","",""
"","","","","","survey-likert","88","244909","0.0-64.0","B7C756CFF6B8455F988969F84F3A3700","B7C756CFF6B8455F988969F84F3A3700","aa752e32-3298-43bc-940b-c75b3b5bb606","54f8d589-66fc-4c65-830f-1dcc63bce8cc","{""participantId"":""B7C756CFF6B8455F988969F84F3A3700"",""assignmentId"":""aa752e32-3298-43bc-940b-c75b3b5bb606"",""projectId"":""54f8d589-66fc-4c65-830f-1dcc63bce8cc""}","https://test12345.live/?participantId=B7C756CFF6B8455F988969F84F3A3700&assignmentId=aa752e32-3298-43bc-940b-c75b3b5bb606&projectId=54f8d589-66fc-4c65-830f-1dcc63bce8cc","","1533","","{""Q0"":3}","","[0]"
"","","","","","html-button-response","89","247308","0.0-65.0","B7C756CFF6B8455F988969F84F3A3700","B7C756CFF6B8455F988969F84F3A3700","aa752e32-3298-43bc-940b-c75b3b5bb606","54f8d589-66fc-4c65-830f-1dcc63bce8cc","{""participantId"":""B7C756CFF6B8455F988969F84F3A3700"",""assignmentId"":""aa752e32-3298-43bc-940b-c75b3b5bb606"",""projectId"":""54f8d589-66fc-4c65-830f-1dcc63bce8cc""}","https://test12345.live/?participantId=B7C756CFF6B8455F988969F84F3A3700&assignmentId=aa752e32-3298-43bc-940b-c75b3b5bb606&projectId=54f8d589-66fc-4c65-830f-1dcc63bce8cc","","2394","
    <div style=""display: flex; justify-content: center; align-items: center;"">
      <img src=""images/red_deck_2.png"" style=""width: 300px; height: 300px; margin-right: 10px;"" />
      <img src=""images/blue_deck_1.png"" style=""width: 300px; height: 300px;"" />
    </div>","1","1",""
"","","","","","html-keyboard-response","90","250312","0.0-67.0-0.0","B7C756CFF6B8455F988969F84F3A3700","B7C756CFF6B8455F988969F84F3A3700","aa752e32-3298-43bc-940b-c75b3b5bb606","54f8d589-66fc-4c65-830f-1dcc63bce8cc","{""participantId"":""B7C756CFF6B8455F988969F84F3A3700"",""assignmentId"":""aa752e32-3298-43bc-940b-c75b3b5bb606"",""projectId"":""54f8d589-66fc-4c65-830f-1dcc63bce8cc""}","https://test12345.live/?participantId=B7C756CFF6B8455F988969F84F3A3700&assignmentId=aa752e32-3298-43bc-940b-c75b3b5bb606&projectId=54f8d589-66fc-4c65-830f-1dcc63bce8cc","","null","<div style=""display: flex; justify-content: center; align-items: center;"">
                    <img src=""images/semantic/semantic_series_14/semantic_series_14_a.jpg"" style=""width: 300px; height: 300px;"" />
                  </div>","null","",""
"","","","","","html-keyboard-response","91","253318","0.0-67.0-1.0","B7C756CFF6B8455F988969F84F3A3700","B7C756CFF6B8455F988969F84F3A3700","aa752e32-3298-43bc-940b-c75b3b5bb606","54f8d589-66fc-4c65-830f-1dcc63bce8cc","{""participantId"":""B7C756CFF6B8455F988969F84F3A3700"",""assignmentId"":""aa752e32-3298-43bc-940b-c75b3b5bb606"",""projectId"":""54f8d589-66fc-4c65-830f-1dcc63bce8cc""}","https://test12345.live/?participantId=B7C756CFF6B8455F988969F84F3A3700&assignmentId=aa752e32-3298-43bc-940b-c75b3b5bb606&projectId=54f8d589-66fc-4c65-830f-1dcc63bce8cc","","null","<div style=""display: flex; justify-content: center; align-items: center;"">
                    <img src=""images/semantic/semantic_series_14/semantic_series_14_b.jpg"" style=""width: 300px; height: 300px;"" />
                  </div>","null","",""
"","","","","","html-keyboard-response","92","256322","0.0-67.0-2.0","B7C756CFF6B8455F988969F84F3A3700","B7C756CFF6B8455F988969F84F3A3700","aa752e32-3298-43bc-940b-c75b3b5bb606","54f8d589-66fc-4c65-830f-1dcc63bce8cc","{""participantId"":""B7C756CFF6B8455F988969F84F3A3700"",""assignmentId"":""aa752e32-3298-43bc-940b-c75b3b5bb606"",""projectId"":""54f8d589-66fc-4c65-830f-1dcc63bce8cc""}","https://test12345.live/?participantId=B7C756CFF6B8455F988969F84F3A3700&assignmentId=aa752e32-3298-43bc-940b-c75b3b5bb606&projectId=54f8d589-66fc-4c65-830f-1dcc63bce8cc","","null","<div style=""display: flex; justify-content: center; align-items: center;"">
                    <img src=""images/semantic/semantic_series_14/semantic_series_14_c.jpg"" style=""width: 300px; height: 300px;"" />
                  </div>","null","",""
"","","","","","html-keyboard-response","93","259327","0.0-67.0-3.0","B7C756CFF6B8455F988969F84F3A3700","B7C756CFF6B8455F988969F84F3A3700","aa752e32-3298-43bc-940b-c75b3b5bb606","54f8d589-66fc-4c65-830f-1dcc63bce8cc","{""participantId"":""B7C756CFF6B8455F988969F84F3A3700"",""assignmentId"":""aa752e32-3298-43bc-940b-c75b3b5bb606"",""projectId"":""54f8d589-66fc-4c65-830f-1dcc63bce8cc""}","https://test12345.live/?participantId=B7C756CFF6B8455F988969F84F3A3700&assignmentId=aa752e32-3298-43bc-940b-c75b3b5bb606&projectId=54f8d589-66fc-4c65-830f-1dcc63bce8cc","","null","<div style=""display: flex; justify-content: center; align-items: center;"">
                    <img src=""images/semantic/semantic_series_14/semantic_series_14_d.jpg"" style=""width: 300px; height: 300px;"" />
                  </div>","null","",""
"","","","","","html-button-response","94","260325","0.0-68.0","B7C756CFF6B8455F988969F84F3A3700","B7C756CFF6B8455F988969F84F3A3700","aa752e32-3298-43bc-940b-c75b3b5bb606","54f8d589-66fc-4c65-830f-1dcc63bce8cc","{""participantId"":""B7C756CFF6B8455F988969F84F3A3700"",""assignmentId"":""aa752e32-3298-43bc-940b-c75b3b5bb606"",""projectId"":""54f8d589-66fc-4c65-830f-1dcc63bce8cc""}","https://test12345.live/?participantId=B7C756CFF6B8455F988969F84F3A3700&assignmentId=aa752e32-3298-43bc-940b-c75b3b5bb606&projectId=54f8d589-66fc-4c65-830f-1dcc63bce8cc","","994","Was there a person in the picture?","0","",""
"","","","","","survey-likert","95","261875","0.0-69.0","B7C756CFF6B8455F988969F84F3A3700","B7C756CFF6B8455F988969F84F3A3700","aa752e32-3298-43bc-940b-c75b3b5bb606","54f8d589-66fc-4c65-830f-1dcc63bce8cc","{""participantId"":""B7C756CFF6B8455F988969F84F3A3700"",""assignmentId"":""aa752e32-3298-43bc-940b-c75b3b5bb606"",""projectId"":""54f8d589-66fc-4c65-830f-1dcc63bce8cc""}","https://test12345.live/?participantId=B7C756CFF6B8455F988969F84F3A3700&assignmentId=aa752e32-3298-43bc-940b-c75b3b5bb606&projectId=54f8d589-66fc-4c65-830f-1dcc63bce8cc","","1548","","{""Q0"":0}","","[0]"
"","","","","","html-button-response","96","262824","0.0-70.0","B7C756CFF6B8455F988969F84F3A3700","B7C756CFF6B8455F988969F84F3A3700","aa752e32-3298-43bc-940b-c75b3b5bb606","54f8d589-66fc-4c65-830f-1dcc63bce8cc","{""participantId"":""B7C756CFF6B8455F988969F84F3A3700"",""assignmentId"":""aa752e32-3298-43bc-940b-c75b3b5bb606"",""projectId"":""54f8d589-66fc-4c65-830f-1dcc63bce8cc""}","https://test12345.live/?participantId=B7C756CFF6B8455F988969F84F3A3700&assignmentId=aa752e32-3298-43bc-940b-c75b3b5bb606&projectId=54f8d589-66fc-4c65-830f-1dcc63bce8cc","","946","
    <div style=""display: flex; justify-content: center; align-items: center;"">
      <img src=""images/red_deck_2.png"" style=""width: 300px; height: 300px; margin-right: 10px;"" />
      <img src=""images/blue_deck_1.png"" style=""width: 300px; height: 300px;"" />
    </div>","0","0",""
"","","","","","html-keyboard-response","97","265826","0.0-71.0-0.0","B7C756CFF6B8455F988969F84F3A3700","B7C756CFF6B8455F988969F84F3A3700","aa752e32-3298-43bc-940b-c75b3b5bb606","54f8d589-66fc-4c65-830f-1dcc63bce8cc","{""participantId"":""B7C756CFF6B8455F988969F84F3A3700"",""assignmentId"":""aa752e32-3298-43bc-940b-c75b3b5bb606"",""projectId"":""54f8d589-66fc-4c65-830f-1dcc63bce8cc""}","https://test12345.live/?participantId=B7C756CFF6B8455F988969F84F3A3700&assignmentId=aa752e32-3298-43bc-940b-c75b3b5bb606&projectId=54f8d589-66fc-4c65-830f-1dcc63bce8cc","","null","<div style=""display: flex; justify-content: center; align-items: center;"">
                    <img src=""images/causal/causal_series_17/causal_series_17_a.jpg"" style=""width: 300px; height: 300px;"" />
                  </div>","null","",""
"","","","","","html-keyboard-response","98","268829","0.0-71.0-1.0","B7C756CFF6B8455F988969F84F3A3700","B7C756CFF6B8455F988969F84F3A3700","aa752e32-3298-43bc-940b-c75b3b5bb606","54f8d589-66fc-4c65-830f-1dcc63bce8cc","{""participantId"":""B7C756CFF6B8455F988969F84F3A3700"",""assignmentId"":""aa752e32-3298-43bc-940b-c75b3b5bb606"",""projectId"":""54f8d589-66fc-4c65-830f-1dcc63bce8cc""}","https://test12345.live/?participantId=B7C756CFF6B8455F988969F84F3A3700&assignmentId=aa752e32-3298-43bc-940b-c75b3b5bb606&projectId=54f8d589-66fc-4c65-830f-1dcc63bce8cc","","null","<div style=""display: flex; justify-content: center; align-items: center;"">
                    <img src=""images/causal/causal_series_17/causal_series_17_b.jpg"" style=""width: 300px; height: 300px;"" />
                  </div>","null","",""
"","","","","","html-keyboard-response","99","271834","0.0-71.0-2.0","B7C756CFF6B8455F988969F84F3A3700","B7C756CFF6B8455F988969F84F3A3700","aa752e32-3298-43bc-940b-c75b3b5bb606","54f8d589-66fc-4c65-830f-1dcc63bce8cc","{""participantId"":""B7C756CFF6B8455F988969F84F3A3700"",""assignmentId"":""aa752e32-3298-43bc-940b-c75b3b5bb606"",""projectId"":""54f8d589-66fc-4c65-830f-1dcc63bce8cc""}","https://test12345.live/?participantId=B7C756CFF6B8455F988969F84F3A3700&assignmentId=aa752e32-3298-43bc-940b-c75b3b5bb606&projectId=54f8d589-66fc-4c65-830f-1dcc63bce8cc","","null","<div style=""display: flex; justify-content: center; align-items: center;"">
                    <img src=""images/causal/causal_series_17/causal_series_17_c.jpg"" style=""width: 300px; height: 300px;"" />
                  </div>","null","",""
"","","","","","html-keyboard-response","100","274836","0.0-71.0-3.0","B7C756CFF6B8455F988969F84F3A3700","B7C756CFF6B8455F988969F84F3A3700","aa752e32-3298-43bc-940b-c75b3b5bb606","54f8d589-66fc-4c65-830f-1dcc63bce8cc","{""participantId"":""B7C756CFF6B8455F988969F84F3A3700"",""assignmentId"":""aa752e32-3298-43bc-940b-c75b3b5bb606"",""projectId"":""54f8d589-66fc-4c65-830f-1dcc63bce8cc""}","https://test12345.live/?participantId=B7C756CFF6B8455F988969F84F3A3700&assignmentId=aa752e32-3298-43bc-940b-c75b3b5bb606&projectId=54f8d589-66fc-4c65-830f-1dcc63bce8cc","","null","<div style=""display: flex; justify-content: center; align-items: center;"">
                    <img src=""images/causal/causal_series_17/causal_series_17_d.jpg"" style=""width: 300px; height: 300px;"" />
                  </div>","null","",""
"","","","","","html-button-response","101","304241","0.0-73.0","B7C756CFF6B8455F988969F84F3A3700","B7C756CFF6B8455F988969F84F3A3700","aa752e32-3298-43bc-940b-c75b3b5bb606","54f8d589-66fc-4c65-830f-1dcc63bce8cc","{""participantId"":""B7C756CFF6B8455F988969F84F3A3700"",""assignmentId"":""aa752e32-3298-43bc-940b-c75b3b5bb606"",""projectId"":""54f8d589-66fc-4c65-830f-1dcc63bce8cc""}","https://test12345.live/?participantId=B7C756CFF6B8455F988969F84F3A3700&assignmentId=aa752e32-3298-43bc-940b-c75b3b5bb606&projectId=54f8d589-66fc-4c65-830f-1dcc63bce8cc","","29402","Was there a person in the picture?","1","",""
"","","","","","survey-likert","102","306860","0.0-74.0","B7C756CFF6B8455F988969F84F3A3700","B7C756CFF6B8455F988969F84F3A3700","aa752e32-3298-43bc-940b-c75b3b5bb606","54f8d589-66fc-4c65-830f-1dcc63bce8cc","{""participantId"":""B7C756CFF6B8455F988969F84F3A3700"",""assignmentId"":""aa752e32-3298-43bc-940b-c75b3b5bb606"",""projectId"":""54f8d589-66fc-4c65-830f-1dcc63bce8cc""}","https://test12345.live/?participantId=B7C756CFF6B8455F988969F84F3A3700&assignmentId=aa752e32-3298-43bc-940b-c75b3b5bb606&projectId=54f8d589-66fc-4c65-830f-1dcc63bce8cc","","2616","","{""Q0"":2}","","[0]"
"","","","","","html-button-response","103","307892","0.0-75.0","B7C756CFF6B8455F988969F84F3A3700","B7C756CFF6B8455F988969F84F3A3700","aa752e32-3298-43bc-940b-c75b3b5bb606","54f8d589-66fc-4c65-830f-1dcc63bce8cc","{""participantId"":""B7C756CFF6B8455F988969F84F3A3700"",""assignmentId"":""aa752e32-3298-43bc-940b-c75b3b5bb606"",""projectId"":""54f8d589-66fc-4c65-830f-1dcc63bce8cc""}","https://test12345.live/?participantId=B7C756CFF6B8455F988969F84F3A3700&assignmentId=aa752e32-3298-43bc-940b-c75b3b5bb606&projectId=54f8d589-66fc-4c65-830f-1dcc63bce8cc","","1029","
    <div style=""display: flex; justify-content: center; align-items: center;"">
      <img src=""images/red_deck_2.png"" style=""width: 300px; height: 300px; margin-right: 10px;"" />
      <img src=""images/blue_deck_1.png"" style=""width: 300px; height: 300px;"" />
    </div>","0","0",""
"","","","","","html-keyboard-response","104","310894","0.0-76.0-0.0","B7C756CFF6B8455F988969F84F3A3700","B7C756CFF6B8455F988969F84F3A3700","aa752e32-3298-43bc-940b-c75b3b5bb606","54f8d589-66fc-4c65-830f-1dcc63bce8cc","{""participantId"":""B7C756CFF6B8455F988969F84F3A3700"",""assignmentId"":""aa752e32-3298-43bc-940b-c75b3b5bb606"",""projectId"":""54f8d589-66fc-4c65-830f-1dcc63bce8cc""}","https://test12345.live/?participantId=B7C756CFF6B8455F988969F84F3A3700&assignmentId=aa752e32-3298-43bc-940b-c75b3b5bb606&projectId=54f8d589-66fc-4c65-830f-1dcc63bce8cc","","null","<div style=""display: flex; justify-content: center; align-items: center;"">
                    <img src=""images/causal/causal_series_18/causal_series_18_a.jpg"" style=""width: 300px; height: 300px;"" />
                  </div>","null","",""
"","","","","","html-keyboard-response","105","313897","0.0-76.0-1.0","B7C756CFF6B8455F988969F84F3A3700","B7C756CFF6B8455F988969F84F3A3700","aa752e32-3298-43bc-940b-c75b3b5bb606","54f8d589-66fc-4c65-830f-1dcc63bce8cc","{""participantId"":""B7C756CFF6B8455F988969F84F3A3700"",""assignmentId"":""aa752e32-3298-43bc-940b-c75b3b5bb606"",""projectId"":""54f8d589-66fc-4c65-830f-1dcc63bce8cc""}","https://test12345.live/?participantId=B7C756CFF6B8455F988969F84F3A3700&assignmentId=aa752e32-3298-43bc-940b-c75b3b5bb606&projectId=54f8d589-66fc-4c65-830f-1dcc63bce8cc","","null","<div style=""display: flex; justify-content: center; align-items: center;"">
                    <img src=""images/causal/causal_series_18/causal_series_18_b.jpg"" style=""width: 300px; height: 300px;"" />
                  </div>","null","",""
"","","","","","html-keyboard-response","106","316903","0.0-76.0-2.0","B7C756CFF6B8455F988969F84F3A3700","B7C756CFF6B8455F988969F84F3A3700","aa752e32-3298-43bc-940b-c75b3b5bb606","54f8d589-66fc-4c65-830f-1dcc63bce8cc","{""participantId"":""B7C756CFF6B8455F988969F84F3A3700"",""assignmentId"":""aa752e32-3298-43bc-940b-c75b3b5bb606"",""projectId"":""54f8d589-66fc-4c65-830f-1dcc63bce8cc""}","https://test12345.live/?participantId=B7C756CFF6B8455F988969F84F3A3700&assignmentId=aa752e32-3298-43bc-940b-c75b3b5bb606&projectId=54f8d589-66fc-4c65-830f-1dcc63bce8cc","","null","<div style=""display: flex; justify-content: center; align-items: center;"">
                    <img src=""images/causal/causal_series_18/causal_series_18_c.jpg"" style=""width: 300px; height: 300px;"" />
                  </div>","null","",""
"","","","","","html-keyboard-response","107","319908","0.0-76.0-3.0","B7C756CFF6B8455F988969F84F3A3700","B7C756CFF6B8455F988969F84F3A3700","aa752e32-3298-43bc-940b-c75b3b5bb606","54f8d589-66fc-4c65-830f-1dcc63bce8cc","{""participantId"":""B7C756CFF6B8455F988969F84F3A3700"",""assignmentId"":""aa752e32-3298-43bc-940b-c75b3b5bb606"",""projectId"":""54f8d589-66fc-4c65-830f-1dcc63bce8cc""}","https://test12345.live/?participantId=B7C756CFF6B8455F988969F84F3A3700&assignmentId=aa752e32-3298-43bc-940b-c75b3b5bb606&projectId=54f8d589-66fc-4c65-830f-1dcc63bce8cc","","null","<div style=""display: flex; justify-content: center; align-items: center;"">
                    <img src=""images/causal/causal_series_18/causal_series_18_d.jpg"" style=""width: 300px; height: 300px;"" />
                  </div>","null","",""
"","","","","","html-button-response","108","336142","0.0-78.0","B7C756CFF6B8455F988969F84F3A3700","B7C756CFF6B8455F988969F84F3A3700","aa752e32-3298-43bc-940b-c75b3b5bb606","54f8d589-66fc-4c65-830f-1dcc63bce8cc","{""participantId"":""B7C756CFF6B8455F988969F84F3A3700"",""assignmentId"":""aa752e32-3298-43bc-940b-c75b3b5bb606"",""projectId"":""54f8d589-66fc-4c65-830f-1dcc63bce8cc""}","https://test12345.live/?participantId=B7C756CFF6B8455F988969F84F3A3700&assignmentId=aa752e32-3298-43bc-940b-c75b3b5bb606&projectId=54f8d589-66fc-4c65-830f-1dcc63bce8cc","","16230","Was there a person in the picture?","1","",""
"","","","","","survey-likert","109","339195","0.0-79.0","B7C756CFF6B8455F988969F84F3A3700","B7C756CFF6B8455F988969F84F3A3700","aa752e32-3298-43bc-940b-c75b3b5bb606","54f8d589-66fc-4c65-830f-1dcc63bce8cc","{""participantId"":""B7C756CFF6B8455F988969F84F3A3700"",""assignmentId"":""aa752e32-3298-43bc-940b-c75b3b5bb606"",""projectId"":""54f8d589-66fc-4c65-830f-1dcc63bce8cc""}","https://test12345.live/?participantId=B7C756CFF6B8455F988969F84F3A3700&assignmentId=aa752e32-3298-43bc-940b-c75b3b5bb606&projectId=54f8d589-66fc-4c65-830f-1dcc63bce8cc","","3050","","{""Q0"":2}","","[0]"
"","","","","","html-button-response","110","340125","0.0-80.0","B7C756CFF6B8455F988969F84F3A3700","B7C756CFF6B8455F988969F84F3A3700","aa752e32-3298-43bc-940b-c75b3b5bb606","54f8d589-66fc-4c65-830f-1dcc63bce8cc","{""participantId"":""B7C756CFF6B8455F988969F84F3A3700"",""assignmentId"":""aa752e32-3298-43bc-940b-c75b3b5bb606"",""projectId"":""54f8d589-66fc-4c65-830f-1dcc63bce8cc""}","https://test12345.live/?participantId=B7C756CFF6B8455F988969F84F3A3700&assignmentId=aa752e32-3298-43bc-940b-c75b3b5bb606&projectId=54f8d589-66fc-4c65-830f-1dcc63bce8cc","","928","
    <div style=""display: flex; justify-content: center; align-items: center;"">
      <img src=""images/red_deck_2.png"" style=""width: 300px; height: 300px; margin-right: 10px;"" />
      <img src=""images/blue_deck_1.png"" style=""width: 300px; height: 300px;"" />
    </div>","0","0",""
"","","","","","html-keyboard-response","111","343128","0.0-81.0-0.0","B7C756CFF6B8455F988969F84F3A3700","B7C756CFF6B8455F988969F84F3A3700","aa752e32-3298-43bc-940b-c75b3b5bb606","54f8d589-66fc-4c65-830f-1dcc63bce8cc","{""participantId"":""B7C756CFF6B8455F988969F84F3A3700"",""assignmentId"":""aa752e32-3298-43bc-940b-c75b3b5bb606"",""projectId"":""54f8d589-66fc-4c65-830f-1dcc63bce8cc""}","https://test12345.live/?participantId=B7C756CFF6B8455F988969F84F3A3700&assignmentId=aa752e32-3298-43bc-940b-c75b3b5bb606&projectId=54f8d589-66fc-4c65-830f-1dcc63bce8cc","","null","<div style=""display: flex; justify-content: center; align-items: center;"">
                    <img src=""images/causal/causal_series_6/causal_series_6_a.jpg"" style=""width: 300px; height: 300px;"" />
                  </div>","null","",""
"","","","","","html-keyboard-response","112","346131","0.0-81.0-1.0","B7C756CFF6B8455F988969F84F3A3700","B7C756CFF6B8455F988969F84F3A3700","aa752e32-3298-43bc-940b-c75b3b5bb606","54f8d589-66fc-4c65-830f-1dcc63bce8cc","{""participantId"":""B7C756CFF6B8455F988969F84F3A3700"",""assignmentId"":""aa752e32-3298-43bc-940b-c75b3b5bb606"",""projectId"":""54f8d589-66fc-4c65-830f-1dcc63bce8cc""}","https://test12345.live/?participantId=B7C756CFF6B8455F988969F84F3A3700&assignmentId=aa752e32-3298-43bc-940b-c75b3b5bb606&projectId=54f8d589-66fc-4c65-830f-1dcc63bce8cc","","null","<div style=""display: flex; justify-content: center; align-items: center;"">
                    <img src=""images/causal/causal_series_6/causal_series_6_b.jpg"" style=""width: 300px; height: 300px;"" />
                  </div>","null","",""
"","","","","","html-keyboard-response","113","349134","0.0-81.0-2.0","B7C756CFF6B8455F988969F84F3A3700","B7C756CFF6B8455F988969F84F3A3700","aa752e32-3298-43bc-940b-c75b3b5bb606","54f8d589-66fc-4c65-830f-1dcc63bce8cc","{""participantId"":""B7C756CFF6B8455F988969F84F3A3700"",""assignmentId"":""aa752e32-3298-43bc-940b-c75b3b5bb606"",""projectId"":""54f8d589-66fc-4c65-830f-1dcc63bce8cc""}","https://test12345.live/?participantId=B7C756CFF6B8455F988969F84F3A3700&assignmentId=aa752e32-3298-43bc-940b-c75b3b5bb606&projectId=54f8d589-66fc-4c65-830f-1dcc63bce8cc","","null","<div style=""display: flex; justify-content: center; align-items: center;"">
                    <img src=""images/causal/causal_series_6/causal_series_6_c.jpg"" style=""width: 300px; height: 300px;"" />
                  </div>","null","",""
"","","","","","html-keyboard-response","114","352137","0.0-81.0-3.0","B7C756CFF6B8455F988969F84F3A3700","B7C756CFF6B8455F988969F84F3A3700","aa752e32-3298-43bc-940b-c75b3b5bb606","54f8d589-66fc-4c65-830f-1dcc63bce8cc","{""participantId"":""B7C756CFF6B8455F988969F84F3A3700"",""assignmentId"":""aa752e32-3298-43bc-940b-c75b3b5bb606"",""projectId"":""54f8d589-66fc-4c65-830f-1dcc63bce8cc""}","https://test12345.live/?participantId=B7C756CFF6B8455F988969F84F3A3700&assignmentId=aa752e32-3298-43bc-940b-c75b3b5bb606&projectId=54f8d589-66fc-4c65-830f-1dcc63bce8cc","","null","<div style=""display: flex; justify-content: center; align-items: center;"">
                    <img src=""images/causal/causal_series_6/causal_series_6_d.jpg"" style=""width: 300px; height: 300px;"" />
                  </div>","null","",""
"","","","","","html-button-response","115","353142","0.0-83.0","B7C756CFF6B8455F988969F84F3A3700","B7C756CFF6B8455F988969F84F3A3700","aa752e32-3298-43bc-940b-c75b3b5bb606","54f8d589-66fc-4c65-830f-1dcc63bce8cc","{""participantId"":""B7C756CFF6B8455F988969F84F3A3700"",""assignmentId"":""aa752e32-3298-43bc-940b-c75b3b5bb606"",""projectId"":""54f8d589-66fc-4c65-830f-1dcc63bce8cc""}","https://test12345.live/?participantId=B7C756CFF6B8455F988969F84F3A3700&assignmentId=aa752e32-3298-43bc-940b-c75b3b5bb606&projectId=54f8d589-66fc-4c65-830f-1dcc63bce8cc","","1002","Was there a person in the picture?","1","",""
"","","","","","survey-likert","116","354661","0.0-84.0","B7C756CFF6B8455F988969F84F3A3700","B7C756CFF6B8455F988969F84F3A3700","aa752e32-3298-43bc-940b-c75b3b5bb606","54f8d589-66fc-4c65-830f-1dcc63bce8cc","{""participantId"":""B7C756CFF6B8455F988969F84F3A3700"",""assignmentId"":""aa752e32-3298-43bc-940b-c75b3b5bb606"",""projectId"":""54f8d589-66fc-4c65-830f-1dcc63bce8cc""}","https://test12345.live/?participantId=B7C756CFF6B8455F988969F84F3A3700&assignmentId=aa752e32-3298-43bc-940b-c75b3b5bb606&projectId=54f8d589-66fc-4c65-830f-1dcc63bce8cc","","1517","","{""Q0"":2}","","[0]"
"","","","","","html-button-response","117","355758","0.0-85.0","B7C756CFF6B8455F988969F84F3A3700","B7C756CFF6B8455F988969F84F3A3700","aa752e32-3298-43bc-940b-c75b3b5bb606","54f8d589-66fc-4c65-830f-1dcc63bce8cc","{""participantId"":""B7C756CFF6B8455F988969F84F3A3700"",""assignmentId"":""aa752e32-3298-43bc-940b-c75b3b5bb606"",""projectId"":""54f8d589-66fc-4c65-830f-1dcc63bce8cc""}","https://test12345.live/?participantId=B7C756CFF6B8455F988969F84F3A3700&assignmentId=aa752e32-3298-43bc-940b-c75b3b5bb606&projectId=54f8d589-66fc-4c65-830f-1dcc63bce8cc","","1095","
    <div style=""display: flex; justify-content: center; align-items: center;"">
      <img src=""images/red_deck_2.png"" style=""width: 300px; height: 300px; margin-right: 10px;"" />
      <img src=""images/blue_deck_1.png"" style=""width: 300px; height: 300px;"" />
    </div>","0","0",""
"","","","","","html-keyboard-response","118","358761","0.0-86.0-0.0","B7C756CFF6B8455F988969F84F3A3700","B7C756CFF6B8455F988969F84F3A3700","aa752e32-3298-43bc-940b-c75b3b5bb606","54f8d589-66fc-4c65-830f-1dcc63bce8cc","{""participantId"":""B7C756CFF6B8455F988969F84F3A3700"",""assignmentId"":""aa752e32-3298-43bc-940b-c75b3b5bb606"",""projectId"":""54f8d589-66fc-4c65-830f-1dcc63bce8cc""}","https://test12345.live/?participantId=B7C756CFF6B8455F988969F84F3A3700&assignmentId=aa752e32-3298-43bc-940b-c75b3b5bb606&projectId=54f8d589-66fc-4c65-830f-1dcc63bce8cc","","null","<div style=""display: flex; justify-content: center; align-items: center;"">
                    <img src=""images/causal/causal_series_8/causal_series_8_a.jpg"" style=""width: 300px; height: 300px;"" />
                  </div>","null","",""
"","","","","","html-keyboard-response","119","361763","0.0-86.0-1.0","B7C756CFF6B8455F988969F84F3A3700","B7C756CFF6B8455F988969F84F3A3700","aa752e32-3298-43bc-940b-c75b3b5bb606","54f8d589-66fc-4c65-830f-1dcc63bce8cc","{""participantId"":""B7C756CFF6B8455F988969F84F3A3700"",""assignmentId"":""aa752e32-3298-43bc-940b-c75b3b5bb606"",""projectId"":""54f8d589-66fc-4c65-830f-1dcc63bce8cc""}","https://test12345.live/?participantId=B7C756CFF6B8455F988969F84F3A3700&assignmentId=aa752e32-3298-43bc-940b-c75b3b5bb606&projectId=54f8d589-66fc-4c65-830f-1dcc63bce8cc","","null","<div style=""display: flex; justify-content: center; align-items: center;"">
                    <img src=""images/causal/causal_series_8/causal_series_8_b.jpg"" style=""width: 300px; height: 300px;"" />
                  </div>","null","",""
"","","","","","html-keyboard-response","120","364766","0.0-86.0-2.0","B7C756CFF6B8455F988969F84F3A3700","B7C756CFF6B8455F988969F84F3A3700","aa752e32-3298-43bc-940b-c75b3b5bb606","54f8d589-66fc-4c65-830f-1dcc63bce8cc","{""participantId"":""B7C756CFF6B8455F988969F84F3A3700"",""assignmentId"":""aa752e32-3298-43bc-940b-c75b3b5bb606"",""projectId"":""54f8d589-66fc-4c65-830f-1dcc63bce8cc""}","https://test12345.live/?participantId=B7C756CFF6B8455F988969F84F3A3700&assignmentId=aa752e32-3298-43bc-940b-c75b3b5bb606&projectId=54f8d589-66fc-4c65-830f-1dcc63bce8cc","","null","<div style=""display: flex; justify-content: center; align-items: center;"">
                    <img src=""images/causal/causal_series_8/causal_series_8_c.jpg"" style=""width: 300px; height: 300px;"" />
                  </div>","null","",""
"","","","","","html-keyboard-response","121","367768","0.0-86.0-3.0","B7C756CFF6B8455F988969F84F3A3700","B7C756CFF6B8455F988969F84F3A3700","aa752e32-3298-43bc-940b-c75b3b5bb606","54f8d589-66fc-4c65-830f-1dcc63bce8cc","{""participantId"":""B7C756CFF6B8455F988969F84F3A3700"",""assignmentId"":""aa752e32-3298-43bc-940b-c75b3b5bb606"",""projectId"":""54f8d589-66fc-4c65-830f-1dcc63bce8cc""}","https://test12345.live/?participantId=B7C756CFF6B8455F988969F84F3A3700&assignmentId=aa752e32-3298-43bc-940b-c75b3b5bb606&projectId=54f8d589-66fc-4c65-830f-1dcc63bce8cc","","null","<div style=""display: flex; justify-content: center; align-items: center;"">
                    <img src=""images/causal/causal_series_8/causal_series_8_d.jpg"" style=""width: 300px; height: 300px;"" />
                  </div>","null","",""
"","","","","","html-button-response","122","369959","0.0-88.0","B7C756CFF6B8455F988969F84F3A3700","B7C756CFF6B8455F988969F84F3A3700","aa752e32-3298-43bc-940b-c75b3b5bb606","54f8d589-66fc-4c65-830f-1dcc63bce8cc","{""participantId"":""B7C756CFF6B8455F988969F84F3A3700"",""assignmentId"":""aa752e32-3298-43bc-940b-c75b3b5bb606"",""projectId"":""54f8d589-66fc-4c65-830f-1dcc63bce8cc""}","https://test12345.live/?participantId=B7C756CFF6B8455F988969F84F3A3700&assignmentId=aa752e32-3298-43bc-940b-c75b3b5bb606&projectId=54f8d589-66fc-4c65-830f-1dcc63bce8cc","","2189","Was there a person in the picture?","0","",""
"","","","","","survey-likert","123","371595","0.0-89.0","B7C756CFF6B8455F988969F84F3A3700","B7C756CFF6B8455F988969F84F3A3700","aa752e32-3298-43bc-940b-c75b3b5bb606","54f8d589-66fc-4c65-830f-1dcc63bce8cc","{""participantId"":""B7C756CFF6B8455F988969F84F3A3700"",""assignmentId"":""aa752e32-3298-43bc-940b-c75b3b5bb606"",""projectId"":""54f8d589-66fc-4c65-830f-1dcc63bce8cc""}","https://test12345.live/?participantId=B7C756CFF6B8455F988969F84F3A3700&assignmentId=aa752e32-3298-43bc-940b-c75b3b5bb606&projectId=54f8d589-66fc-4c65-830f-1dcc63bce8cc","","1634","","{""Q0"":4}","","[0]"
"","","","","","html-button-response","124","372594","0.0-90.0","B7C756CFF6B8455F988969F84F3A3700","B7C756CFF6B8455F988969F84F3A3700","aa752e32-3298-43bc-940b-c75b3b5bb606","54f8d589-66fc-4c65-830f-1dcc63bce8cc","{""participantId"":""B7C756CFF6B8455F988969F84F3A3700"",""assignmentId"":""aa752e32-3298-43bc-940b-c75b3b5bb606"",""projectId"":""54f8d589-66fc-4c65-830f-1dcc63bce8cc""}","https://test12345.live/?participantId=B7C756CFF6B8455F988969F84F3A3700&assignmentId=aa752e32-3298-43bc-940b-c75b3b5bb606&projectId=54f8d589-66fc-4c65-830f-1dcc63bce8cc","","996","
    <div style=""display: flex; justify-content: center; align-items: center;"">
      <img src=""images/red_deck_2.png"" style=""width: 300px; height: 300px; margin-right: 10px;"" />
      <img src=""images/blue_deck_1.png"" style=""width: 300px; height: 300px;"" />
    </div>","0","0",""
"","","","","","html-keyboard-response","125","375596","0.0-91.0-0.0","B7C756CFF6B8455F988969F84F3A3700","B7C756CFF6B8455F988969F84F3A3700","aa752e32-3298-43bc-940b-c75b3b5bb606","54f8d589-66fc-4c65-830f-1dcc63bce8cc","{""participantId"":""B7C756CFF6B8455F988969F84F3A3700"",""assignmentId"":""aa752e32-3298-43bc-940b-c75b3b5bb606"",""projectId"":""54f8d589-66fc-4c65-830f-1dcc63bce8cc""}","https://test12345.live/?participantId=B7C756CFF6B8455F988969F84F3A3700&assignmentId=aa752e32-3298-43bc-940b-c75b3b5bb606&projectId=54f8d589-66fc-4c65-830f-1dcc63bce8cc","","null","<div style=""display: flex; justify-content: center; align-items: center;"">
                    <img src=""images/causal/causal_series_3/causal_series_3_a.jpg"" style=""width: 300px; height: 300px;"" />
                  </div>","null","",""
"","","","","","html-keyboard-response","126","378600","0.0-91.0-1.0","B7C756CFF6B8455F988969F84F3A3700","B7C756CFF6B8455F988969F84F3A3700","aa752e32-3298-43bc-940b-c75b3b5bb606","54f8d589-66fc-4c65-830f-1dcc63bce8cc","{""participantId"":""B7C756CFF6B8455F988969F84F3A3700"",""assignmentId"":""aa752e32-3298-43bc-940b-c75b3b5bb606"",""projectId"":""54f8d589-66fc-4c65-830f-1dcc63bce8cc""}","https://test12345.live/?participantId=B7C756CFF6B8455F988969F84F3A3700&assignmentId=aa752e32-3298-43bc-940b-c75b3b5bb606&projectId=54f8d589-66fc-4c65-830f-1dcc63bce8cc","","null","<div style=""display: flex; justify-content: center; align-items: center;"">
                    <img src=""images/causal/causal_series_3/causal_series_3_b.jpg"" style=""width: 300px; height: 300px;"" />
                  </div>","null","",""
"","","","","","html-keyboard-response","127","381605","0.0-91.0-2.0","B7C756CFF6B8455F988969F84F3A3700","B7C756CFF6B8455F988969F84F3A3700","aa752e32-3298-43bc-940b-c75b3b5bb606","54f8d589-66fc-4c65-830f-1dcc63bce8cc","{""participantId"":""B7C756CFF6B8455F988969F84F3A3700"",""assignmentId"":""aa752e32-3298-43bc-940b-c75b3b5bb606"",""projectId"":""54f8d589-66fc-4c65-830f-1dcc63bce8cc""}","https://test12345.live/?participantId=B7C756CFF6B8455F988969F84F3A3700&assignmentId=aa752e32-3298-43bc-940b-c75b3b5bb606&projectId=54f8d589-66fc-4c65-830f-1dcc63bce8cc","","null","<div style=""display: flex; justify-content: center; align-items: center;"">
                    <img src=""images/causal/causal_series_3/causal_series_3_c.jpg"" style=""width: 300px; height: 300px;"" />
                  </div>","null","",""
"","","","","","html-keyboard-response","128","384608","0.0-91.0-3.0","B7C756CFF6B8455F988969F84F3A3700","B7C756CFF6B8455F988969F84F3A3700","aa752e32-3298-43bc-940b-c75b3b5bb606","54f8d589-66fc-4c65-830f-1dcc63bce8cc","{""participantId"":""B7C756CFF6B8455F988969F84F3A3700"",""assignmentId"":""aa752e32-3298-43bc-940b-c75b3b5bb606"",""projectId"":""54f8d589-66fc-4c65-830f-1dcc63bce8cc""}","https://test12345.live/?participantId=B7C756CFF6B8455F988969F84F3A3700&assignmentId=aa752e32-3298-43bc-940b-c75b3b5bb606&projectId=54f8d589-66fc-4c65-830f-1dcc63bce8cc","","null","<div style=""display: flex; justify-content: center; align-items: center;"">
                    <img src=""images/causal/causal_series_3/causal_series_3_d.jpg"" style=""width: 300px; height: 300px;"" />
                  </div>","null","",""
"","","","","","html-button-response","129","385793","0.0-93.0","B7C756CFF6B8455F988969F84F3A3700","B7C756CFF6B8455F988969F84F3A3700","aa752e32-3298-43bc-940b-c75b3b5bb606","54f8d589-66fc-4c65-830f-1dcc63bce8cc","{""participantId"":""B7C756CFF6B8455F988969F84F3A3700"",""assignmentId"":""aa752e32-3298-43bc-940b-c75b3b5bb606"",""projectId"":""54f8d589-66fc-4c65-830f-1dcc63bce8cc""}","https://test12345.live/?participantId=B7C756CFF6B8455F988969F84F3A3700&assignmentId=aa752e32-3298-43bc-940b-c75b3b5bb606&projectId=54f8d589-66fc-4c65-830f-1dcc63bce8cc","","1182","Was there a person in the picture?","0","",""
"","","","","","survey-likert","130","387911","0.0-94.0","B7C756CFF6B8455F988969F84F3A3700","B7C756CFF6B8455F988969F84F3A3700","aa752e32-3298-43bc-940b-c75b3b5bb606","54f8d589-66fc-4c65-830f-1dcc63bce8cc","{""participantId"":""B7C756CFF6B8455F988969F84F3A3700"",""assignmentId"":""aa752e32-3298-43bc-940b-c75b3b5bb606"",""projectId"":""54f8d589-66fc-4c65-830f-1dcc63bce8cc""}","https://test12345.live/?participantId=B7C756CFF6B8455F988969F84F3A3700&assignmentId=aa752e32-3298-43bc-940b-c75b3b5bb606&projectId=54f8d589-66fc-4c65-830f-1dcc63bce8cc","","2116","","{""Q0"":3}","","[0]"
"","","","","","survey-text","131","410145","0.0-95.0","B7C756CFF6B8455F988969F84F3A3700","B7C756CFF6B8455F988969F84F3A3700","aa752e32-3298-43bc-940b-c75b3b5bb606","54f8d589-66fc-4c65-830f-1dcc63bce8cc","{""participantId"":""B7C756CFF6B8455F988969F84F3A3700"",""assignmentId"":""aa752e32-3298-43bc-940b-c75b3b5bb606"",""projectId"":""54f8d589-66fc-4c65-830f-1dcc63bce8cc""}","https://test12345.live/?participantId=B7C756CFF6B8455F988969F84F3A3700&assignmentId=aa752e32-3298-43bc-940b-c75b3b5bb606&projectId=54f8d589-66fc-4c65-830f-1dcc63bce8cc","","22212","","{""Q0"":""one had more realistic scenarios with humans while the other was animal focused""}","",""
