"success","timeout","failed_images","failed_audio","failed_video","trial_type","trial_index","time_elapsed","internal_node_id","subject","subject_id","study_id","session_id","urlvar","current_url","view_history","rt","stimulus","response","choice","question_order"
"true","false","[]","[]","[]","preload","0","3296","0.0-0.0","FC508EC12BF34D6EADBCB2E3EC7575DD","FC508EC12BF34D6EADBCB2E3EC7575DD","5e5df77d-f8c5-4afa-9e4b-2995b5e83571","e622c465-ee29-4445-8260-1f3431e06587","{""participantId"":""FC508EC12BF34D6EADBCB2E3EC7575DD"",""assignmentId"":""5e5df77d-f8c5-4afa-9e4b-2995b5e83571"",""projectId"":""e622c465-ee29-4445-8260-1f3431e06587""}","https://test12345.live/?participantId=FC508EC12BF34D6EADBCB2E3EC7575DD&assignmentId=5e5df77d-f8c5-4afa-9e4b-2995b5e83571&projectId=e622c465-ee29-4445-8260-1f3431e06587","","","","","",""
"","","","","","instructions","1","153923","0.0-1.0","FC508EC12BF34D6EADBCB2E3EC7575DD","FC508EC12BF34D6EADBCB2E3EC7575DD","5e5df77d-f8c5-4afa-9e4b-2995b5e83571","e622c465-ee29-4445-8260-1f3431e06587","{""participantId"":""FC508EC12BF34D6EADBCB2E3EC7575DD"",""assignmentId"":""5e5df77d-f8c5-4afa-9e4b-2995b5e83571"",""projectId"":""e622c465-ee29-4445-8260-1f3431e06587""}","https://test12345.live/?participantId=FC508EC12BF34D6EADBCB2E3EC7575DD&assignmentId=5e5df77d-f8c5-4afa-9e4b-2995b5e83571&projectId=e622c465-ee29-4445-8260-1f3431e06587","[{""page_index"":0,""viewing_time"":150625}]","150626","","","",""
"","","","","","instructions","2","162854","0.0-2.0","FC508EC12BF34D6EADBCB2E3EC7575DD","FC508EC12BF34D6EADBCB2E3EC7575DD","5e5df77d-f8c5-4afa-9e4b-2995b5e83571","e622c465-ee29-4445-8260-1f3431e06587","{""participantId"":""FC508EC12BF34D6EADBCB2E3EC7575DD"",""assignmentId"":""5e5df77d-f8c5-4afa-9e4b-2995b5e83571"",""projectId"":""e622c465-ee29-4445-8260-1f3431e06587""}","https://test12345.live/?participantId=FC508EC12BF34D6EADBCB2E3EC7575DD&assignmentId=5e5df77d-f8c5-4afa-9e4b-2995b5e83571&projectId=e622c465-ee29-4445-8260-1f3431e06587","[{""page_index"":0,""viewing_time"":8930}]","8930","","","",""
"true","","","","","fullscreen","3","173627","0.0-3.0","FC508EC12BF34D6EADBCB2E3EC7575DD","FC508EC12BF34D6EADBCB2E3EC7575DD","5e5df77d-f8c5-4afa-9e4b-2995b5e83571","e622c465-ee29-4445-8260-1f3431e06587","{""participantId"":""FC508EC12BF34D6EADBCB2E3EC7575DD"",""assignmentId"":""5e5df77d-f8c5-4afa-9e4b-2995b5e83571"",""projectId"":""e622c465-ee29-4445-8260-1f3431e06587""}","https://test12345.live/?participantId=FC508EC12BF34D6EADBCB2E3EC7575DD&assignmentId=5e5df77d-f8c5-4afa-9e4b-2995b5e83571&projectId=e622c465-ee29-4445-8260-1f3431e06587","","9758","","","",""
"","","","","","instructions","4","178920","0.0-4.0","FC508EC12BF34D6EADBCB2E3EC7575DD","FC508EC12BF34D6EADBCB2E3EC7575DD","5e5df77d-f8c5-4afa-9e4b-2995b5e83571","e622c465-ee29-4445-8260-1f3431e06587","{""participantId"":""FC508EC12BF34D6EADBCB2E3EC7575DD"",""assignmentId"":""5e5df77d-f8c5-4afa-9e4b-2995b5e83571"",""projectId"":""e622c465-ee29-4445-8260-1f3431e06587""}","https://test12345.live/?participantId=FC508EC12BF34D6EADBCB2E3EC7575DD&assignmentId=5e5df77d-f8c5-4afa-9e4b-2995b5e83571&projectId=e622c465-ee29-4445-8260-1f3431e06587","[{""page_index"":0,""viewing_time"":5292}]","5292","","","",""
"","","","","","html-button-response","5","183444","0.0-5.0","FC508EC12BF34D6EADBCB2E3EC7575DD","FC508EC12BF34D6EADBCB2E3EC7575DD","5e5df77d-f8c5-4afa-9e4b-2995b5e83571","e622c465-ee29-4445-8260-1f3431e06587","{""participantId"":""FC508EC12BF34D6EADBCB2E3EC7575DD"",""assignmentId"":""5e5df77d-f8c5-4afa-9e4b-2995b5e83571"",""projectId"":""e622c465-ee29-4445-8260-1f3431e06587""}","https://test12345.live/?participantId=FC508EC12BF34D6EADBCB2E3EC7575DD&assignmentId=5e5df77d-f8c5-4afa-9e4b-2995b5e83571&projectId=e622c465-ee29-4445-8260-1f3431e06587","","4523","
    <div style=""display: flex; justify-content: center; align-items: center;"">
      <img src=""images/blue_deck_1.png"" style=""width: 300px; height: 300px; margin-right: 10px;"" />
      <img src=""images/red_deck_2.png"" style=""width: 300px; height: 300px;"" />
    </div>","0","0",""
"","","","","","html-keyboard-response","6","186452","0.0-6.0-0.0","FC508EC12BF34D6EADBCB2E3EC7575DD","FC508EC12BF34D6EADBCB2E3EC7575DD","5e5df77d-f8c5-4afa-9e4b-2995b5e83571","e622c465-ee29-4445-8260-1f3431e06587","{""participantId"":""FC508EC12BF34D6EADBCB2E3EC7575DD"",""assignmentId"":""5e5df77d-f8c5-4afa-9e4b-2995b5e83571"",""projectId"":""e622c465-ee29-4445-8260-1f3431e06587""}","https://test12345.live/?participantId=FC508EC12BF34D6EADBCB2E3EC7575DD&assignmentId=5e5df77d-f8c5-4afa-9e4b-2995b5e83571&projectId=e622c465-ee29-4445-8260-1f3431e06587","","null","<div style=""display: flex; justify-content: center; align-items: center;"">
                    <img src=""images/causal/causal_series_2/causal_series_2_a.jpg"" style=""width: 300px; height: 300px;"" />
                  </div>","null","",""
"","","","","","html-keyboard-response","7","189466","0.0-6.0-1.0","FC508EC12BF34D6EADBCB2E3EC7575DD","FC508EC12BF34D6EADBCB2E3EC7575DD","5e5df77d-f8c5-4afa-9e4b-2995b5e83571","e622c465-ee29-4445-8260-1f3431e06587","{""participantId"":""FC508EC12BF34D6EADBCB2E3EC7575DD"",""assignmentId"":""5e5df77d-f8c5-4afa-9e4b-2995b5e83571"",""projectId"":""e622c465-ee29-4445-8260-1f3431e06587""}","https://test12345.live/?participantId=FC508EC12BF34D6EADBCB2E3EC7575DD&assignmentId=5e5df77d-f8c5-4afa-9e4b-2995b5e83571&projectId=e622c465-ee29-4445-8260-1f3431e06587","","null","<div style=""display: flex; justify-content: center; align-items: center;"">
                    <img src=""images/causal/causal_series_2/causal_series_2_b.jpg"" style=""width: 300px; height: 300px;"" />
                  </div>","null","",""
"","","","","","html-keyboard-response","8","192479","0.0-6.0-2.0","FC508EC12BF34D6EADBCB2E3EC7575DD","FC508EC12BF34D6EADBCB2E3EC7575DD","5e5df77d-f8c5-4afa-9e4b-2995b5e83571","e622c465-ee29-4445-8260-1f3431e06587","{""participantId"":""FC508EC12BF34D6EADBCB2E3EC7575DD"",""assignmentId"":""5e5df77d-f8c5-4afa-9e4b-2995b5e83571"",""projectId"":""e622c465-ee29-4445-8260-1f3431e06587""}","https://test12345.live/?participantId=FC508EC12BF34D6EADBCB2E3EC7575DD&assignmentId=5e5df77d-f8c5-4afa-9e4b-2995b5e83571&projectId=e622c465-ee29-4445-8260-1f3431e06587","","null","<div style=""display: flex; justify-content: center; align-items: center;"">
                    <img src=""images/causal/causal_series_2/causal_series_2_c.jpg"" style=""width: 300px; height: 300px;"" />
                  </div>","null","",""
"","","","","","html-keyboard-response","9","195485","0.0-6.0-3.0","FC508EC12BF34D6EADBCB2E3EC7575DD","FC508EC12BF34D6EADBCB2E3EC7575DD","5e5df77d-f8c5-4afa-9e4b-2995b5e83571","e622c465-ee29-4445-8260-1f3431e06587","{""participantId"":""FC508EC12BF34D6EADBCB2E3EC7575DD"",""assignmentId"":""5e5df77d-f8c5-4afa-9e4b-2995b5e83571"",""projectId"":""e622c465-ee29-4445-8260-1f3431e06587""}","https://test12345.live/?participantId=FC508EC12BF34D6EADBCB2E3EC7575DD&assignmentId=5e5df77d-f8c5-4afa-9e4b-2995b5e83571&projectId=e622c465-ee29-4445-8260-1f3431e06587","","null","<div style=""display: flex; justify-content: center; align-items: center;"">
                    <img src=""images/causal/causal_series_2/causal_series_2_d.jpg"" style=""width: 300px; height: 300px;"" />
                  </div>","null","",""
"","","","","","html-button-response","10","197351","0.0-8.0","FC508EC12BF34D6EADBCB2E3EC7575DD","FC508EC12BF34D6EADBCB2E3EC7575DD","5e5df77d-f8c5-4afa-9e4b-2995b5e83571","e622c465-ee29-4445-8260-1f3431e06587","{""participantId"":""FC508EC12BF34D6EADBCB2E3EC7575DD"",""assignmentId"":""5e5df77d-f8c5-4afa-9e4b-2995b5e83571"",""projectId"":""e622c465-ee29-4445-8260-1f3431e06587""}","https://test12345.live/?participantId=FC508EC12BF34D6EADBCB2E3EC7575DD&assignmentId=5e5df77d-f8c5-4afa-9e4b-2995b5e83571&projectId=e622c465-ee29-4445-8260-1f3431e06587","","1866","Was there a person in the picture?","0","",""
"","","","","","survey-likert","11","199972","0.0-9.0","FC508EC12BF34D6EADBCB2E3EC7575DD","FC508EC12BF34D6EADBCB2E3EC7575DD","5e5df77d-f8c5-4afa-9e4b-2995b5e83571","e622c465-ee29-4445-8260-1f3431e06587","{""participantId"":""FC508EC12BF34D6EADBCB2E3EC7575DD"",""assignmentId"":""5e5df77d-f8c5-4afa-9e4b-2995b5e83571"",""projectId"":""e622c465-ee29-4445-8260-1f3431e06587""}","https://test12345.live/?participantId=FC508EC12BF34D6EADBCB2E3EC7575DD&assignmentId=5e5df77d-f8c5-4afa-9e4b-2995b5e83571&projectId=e622c465-ee29-4445-8260-1f3431e06587","","2619","","{""Q0"":3}","","[0]"
"","","","","","html-button-response","12","201058","0.0-10.0","FC508EC12BF34D6EADBCB2E3EC7575DD","FC508EC12BF34D6EADBCB2E3EC7575DD","5e5df77d-f8c5-4afa-9e4b-2995b5e83571","e622c465-ee29-4445-8260-1f3431e06587","{""participantId"":""FC508EC12BF34D6EADBCB2E3EC7575DD"",""assignmentId"":""5e5df77d-f8c5-4afa-9e4b-2995b5e83571"",""projectId"":""e622c465-ee29-4445-8260-1f3431e06587""}","https://test12345.live/?participantId=FC508EC12BF34D6EADBCB2E3EC7575DD&assignmentId=5e5df77d-f8c5-4afa-9e4b-2995b5e83571&projectId=e622c465-ee29-4445-8260-1f3431e06587","","1084","
    <div style=""display: flex; justify-content: center; align-items: center;"">
      <img src=""images/blue_deck_1.png"" style=""width: 300px; height: 300px; margin-right: 10px;"" />
      <img src=""images/red_deck_2.png"" style=""width: 300px; height: 300px;"" />
    </div>","1","1",""
"","","","","","html-keyboard-response","13","204074","0.0-12.0-0.0","FC508EC12BF34D6EADBCB2E3EC7575DD","FC508EC12BF34D6EADBCB2E3EC7575DD","5e5df77d-f8c5-4afa-9e4b-2995b5e83571","e622c465-ee29-4445-8260-1f3431e06587","{""participantId"":""FC508EC12BF34D6EADBCB2E3EC7575DD"",""assignmentId"":""5e5df77d-f8c5-4afa-9e4b-2995b5e83571"",""projectId"":""e622c465-ee29-4445-8260-1f3431e06587""}","https://test12345.live/?participantId=FC508EC12BF34D6EADBCB2E3EC7575DD&assignmentId=5e5df77d-f8c5-4afa-9e4b-2995b5e83571&projectId=e622c465-ee29-4445-8260-1f3431e06587","","null","<div style=""display: flex; justify-content: center; align-items: center;"">
                    <img src=""images/semantic/semantic_series_7/semantic_series_7_a.jpg"" style=""width: 300px; height: 300px;"" />
                  </div>","null","",""
"","","","","","html-keyboard-response","14","207089","0.0-12.0-1.0","FC508EC12BF34D6EADBCB2E3EC7575DD","FC508EC12BF34D6EADBCB2E3EC7575DD","5e5df77d-f8c5-4afa-9e4b-2995b5e83571","e622c465-ee29-4445-8260-1f3431e06587","{""participantId"":""FC508EC12BF34D6EADBCB2E3EC7575DD"",""assignmentId"":""5e5df77d-f8c5-4afa-9e4b-2995b5e83571"",""projectId"":""e622c465-ee29-4445-8260-1f3431e06587""}","https://test12345.live/?participantId=FC508EC12BF34D6EADBCB2E3EC7575DD&assignmentId=5e5df77d-f8c5-4afa-9e4b-2995b5e83571&projectId=e622c465-ee29-4445-8260-1f3431e06587","","null","<div style=""display: flex; justify-content: center; align-items: center;"">
                    <img src=""images/semantic/semantic_series_7/semantic_series_7_b.jpg"" style=""width: 300px; height: 300px;"" />
                  </div>","null","",""
"","","","","","html-keyboard-response","15","210101","0.0-12.0-2.0","FC508EC12BF34D6EADBCB2E3EC7575DD","FC508EC12BF34D6EADBCB2E3EC7575DD","5e5df77d-f8c5-4afa-9e4b-2995b5e83571","e622c465-ee29-4445-8260-1f3431e06587","{""participantId"":""FC508EC12BF34D6EADBCB2E3EC7575DD"",""assignmentId"":""5e5df77d-f8c5-4afa-9e4b-2995b5e83571"",""projectId"":""e622c465-ee29-4445-8260-1f3431e06587""}","https://test12345.live/?participantId=FC508EC12BF34D6EADBCB2E3EC7575DD&assignmentId=5e5df77d-f8c5-4afa-9e4b-2995b5e83571&projectId=e622c465-ee29-4445-8260-1f3431e06587","","null","<div style=""display: flex; justify-content: center; align-items: center;"">
                    <img src=""images/semantic/semantic_series_7/semantic_series_7_c.jpg"" style=""width: 300px; height: 300px;"" />
                  </div>","null","",""
"","","","","","html-keyboard-response","16","213112","0.0-12.0-3.0","FC508EC12BF34D6EADBCB2E3EC7575DD","FC508EC12BF34D6EADBCB2E3EC7575DD","5e5df77d-f8c5-4afa-9e4b-2995b5e83571","e622c465-ee29-4445-8260-1f3431e06587","{""participantId"":""FC508EC12BF34D6EADBCB2E3EC7575DD"",""assignmentId"":""5e5df77d-f8c5-4afa-9e4b-2995b5e83571"",""projectId"":""e622c465-ee29-4445-8260-1f3431e06587""}","https://test12345.live/?participantId=FC508EC12BF34D6EADBCB2E3EC7575DD&assignmentId=5e5df77d-f8c5-4afa-9e4b-2995b5e83571&projectId=e622c465-ee29-4445-8260-1f3431e06587","","null","<div style=""display: flex; justify-content: center; align-items: center;"">
                    <img src=""images/semantic/semantic_series_7/semantic_series_7_d.jpg"" style=""width: 300px; height: 300px;"" />
                  </div>","null","",""
"","","","","","html-button-response","17","215647","0.0-13.0","FC508EC12BF34D6EADBCB2E3EC7575DD","FC508EC12BF34D6EADBCB2E3EC7575DD","5e5df77d-f8c5-4afa-9e4b-2995b5e83571","e622c465-ee29-4445-8260-1f3431e06587","{""participantId"":""FC508EC12BF34D6EADBCB2E3EC7575DD"",""assignmentId"":""5e5df77d-f8c5-4afa-9e4b-2995b5e83571"",""projectId"":""e622c465-ee29-4445-8260-1f3431e06587""}","https://test12345.live/?participantId=FC508EC12BF34D6EADBCB2E3EC7575DD&assignmentId=5e5df77d-f8c5-4afa-9e4b-2995b5e83571&projectId=e622c465-ee29-4445-8260-1f3431e06587","","2535","Was there a person in the picture?","1","",""
"","","","","","survey-likert","18","219131","0.0-14.0","FC508EC12BF34D6EADBCB2E3EC7575DD","FC508EC12BF34D6EADBCB2E3EC7575DD","5e5df77d-f8c5-4afa-9e4b-2995b5e83571","e622c465-ee29-4445-8260-1f3431e06587","{""participantId"":""FC508EC12BF34D6EADBCB2E3EC7575DD"",""assignmentId"":""5e5df77d-f8c5-4afa-9e4b-2995b5e83571"",""projectId"":""e622c465-ee29-4445-8260-1f3431e06587""}","https://test12345.live/?participantId=FC508EC12BF34D6EADBCB2E3EC7575DD&assignmentId=5e5df77d-f8c5-4afa-9e4b-2995b5e83571&projectId=e622c465-ee29-4445-8260-1f3431e06587","","3484","","{""Q0"":3}","","[0]"
"","","","","","html-button-response","19","220408","0.0-15.0","FC508EC12BF34D6EADBCB2E3EC7575DD","FC508EC12BF34D6EADBCB2E3EC7575DD","5e5df77d-f8c5-4afa-9e4b-2995b5e83571","e622c465-ee29-4445-8260-1f3431e06587","{""participantId"":""FC508EC12BF34D6EADBCB2E3EC7575DD"",""assignmentId"":""5e5df77d-f8c5-4afa-9e4b-2995b5e83571"",""projectId"":""e622c465-ee29-4445-8260-1f3431e06587""}","https://test12345.live/?participantId=FC508EC12BF34D6EADBCB2E3EC7575DD&assignmentId=5e5df77d-f8c5-4afa-9e4b-2995b5e83571&projectId=e622c465-ee29-4445-8260-1f3431e06587","","1276","
    <div style=""display: flex; justify-content: center; align-items: center;"">
      <img src=""images/blue_deck_1.png"" style=""width: 300px; height: 300px; margin-right: 10px;"" />
      <img src=""images/red_deck_2.png"" style=""width: 300px; height: 300px;"" />
    </div>","1","1",""
"","","","","","html-keyboard-response","20","223422","0.0-17.0-0.0","FC508EC12BF34D6EADBCB2E3EC7575DD","FC508EC12BF34D6EADBCB2E3EC7575DD","5e5df77d-f8c5-4afa-9e4b-2995b5e83571","e622c465-ee29-4445-8260-1f3431e06587","{""participantId"":""FC508EC12BF34D6EADBCB2E3EC7575DD"",""assignmentId"":""5e5df77d-f8c5-4afa-9e4b-2995b5e83571"",""projectId"":""e622c465-ee29-4445-8260-1f3431e06587""}","https://test12345.live/?participantId=FC508EC12BF34D6EADBCB2E3EC7575DD&assignmentId=5e5df77d-f8c5-4afa-9e4b-2995b5e83571&projectId=e622c465-ee29-4445-8260-1f3431e06587","","null","<div style=""display: flex; justify-content: center; align-items: center;"">
                    <img src=""images/semantic/semantic_series_8/semantic_series_8_a.jpg"" style=""width: 300px; height: 300px;"" />
                  </div>","null","",""
"","","","","","html-keyboard-response","21","226434","0.0-17.0-1.0","FC508EC12BF34D6EADBCB2E3EC7575DD","FC508EC12BF34D6EADBCB2E3EC7575DD","5e5df77d-f8c5-4afa-9e4b-2995b5e83571","e622c465-ee29-4445-8260-1f3431e06587","{""participantId"":""FC508EC12BF34D6EADBCB2E3EC7575DD"",""assignmentId"":""5e5df77d-f8c5-4afa-9e4b-2995b5e83571"",""projectId"":""e622c465-ee29-4445-8260-1f3431e06587""}","https://test12345.live/?participantId=FC508EC12BF34D6EADBCB2E3EC7575DD&assignmentId=5e5df77d-f8c5-4afa-9e4b-2995b5e83571&projectId=e622c465-ee29-4445-8260-1f3431e06587","","null","<div style=""display: flex; justify-content: center; align-items: center;"">
                    <img src=""images/semantic/semantic_series_8/semantic_series_8_b.jpg"" style=""width: 300px; height: 300px;"" />
                  </div>","null","",""
"","","","","","html-keyboard-response","22","229449","0.0-17.0-2.0","FC508EC12BF34D6EADBCB2E3EC7575DD","FC508EC12BF34D6EADBCB2E3EC7575DD","5e5df77d-f8c5-4afa-9e4b-2995b5e83571","e622c465-ee29-4445-8260-1f3431e06587","{""participantId"":""FC508EC12BF34D6EADBCB2E3EC7575DD"",""assignmentId"":""5e5df77d-f8c5-4afa-9e4b-2995b5e83571"",""projectId"":""e622c465-ee29-4445-8260-1f3431e06587""}","https://test12345.live/?participantId=FC508EC12BF34D6EADBCB2E3EC7575DD&assignmentId=5e5df77d-f8c5-4afa-9e4b-2995b5e83571&projectId=e622c465-ee29-4445-8260-1f3431e06587","","null","<div style=""display: flex; justify-content: center; align-items: center;"">
                    <img src=""images/semantic/semantic_series_8/semantic_series_8_c.jpg"" style=""width: 300px; height: 300px;"" />
                  </div>","null","",""
"","","","","","html-keyboard-response","23","232461","0.0-17.0-3.0","FC508EC12BF34D6EADBCB2E3EC7575DD","FC508EC12BF34D6EADBCB2E3EC7575DD","5e5df77d-f8c5-4afa-9e4b-2995b5e83571","e622c465-ee29-4445-8260-1f3431e06587","{""participantId"":""FC508EC12BF34D6EADBCB2E3EC7575DD"",""assignmentId"":""5e5df77d-f8c5-4afa-9e4b-2995b5e83571"",""projectId"":""e622c465-ee29-4445-8260-1f3431e06587""}","https://test12345.live/?participantId=FC508EC12BF34D6EADBCB2E3EC7575DD&assignmentId=5e5df77d-f8c5-4afa-9e4b-2995b5e83571&projectId=e622c465-ee29-4445-8260-1f3431e06587","","null","<div style=""display: flex; justify-content: center; align-items: center;"">
                    <img src=""images/semantic/semantic_series_8/semantic_series_8_d.jpg"" style=""width: 300px; height: 300px;"" />
                  </div>","null","",""
"","","","","","html-button-response","24","234077","0.0-18.0","FC508EC12BF34D6EADBCB2E3EC7575DD","FC508EC12BF34D6EADBCB2E3EC7575DD","5e5df77d-f8c5-4afa-9e4b-2995b5e83571","e622c465-ee29-4445-8260-1f3431e06587","{""participantId"":""FC508EC12BF34D6EADBCB2E3EC7575DD"",""assignmentId"":""5e5df77d-f8c5-4afa-9e4b-2995b5e83571"",""projectId"":""e622c465-ee29-4445-8260-1f3431e06587""}","https://test12345.live/?participantId=FC508EC12BF34D6EADBCB2E3EC7575DD&assignmentId=5e5df77d-f8c5-4afa-9e4b-2995b5e83571&projectId=e622c465-ee29-4445-8260-1f3431e06587","","1616","Was there a person in the picture?","1","",""
"","","","","","survey-likert","25","241116","0.0-19.0","FC508EC12BF34D6EADBCB2E3EC7575DD","FC508EC12BF34D6EADBCB2E3EC7575DD","5e5df77d-f8c5-4afa-9e4b-2995b5e83571","e622c465-ee29-4445-8260-1f3431e06587","{""participantId"":""FC508EC12BF34D6EADBCB2E3EC7575DD"",""assignmentId"":""5e5df77d-f8c5-4afa-9e4b-2995b5e83571"",""projectId"":""e622c465-ee29-4445-8260-1f3431e06587""}","https://test12345.live/?participantId=FC508EC12BF34D6EADBCB2E3EC7575DD&assignmentId=5e5df77d-f8c5-4afa-9e4b-2995b5e83571&projectId=e622c465-ee29-4445-8260-1f3431e06587","","7038","","{""Q0"":4}","","[0]"
"","","","","","html-button-response","26","242294","0.0-20.0","FC508EC12BF34D6EADBCB2E3EC7575DD","FC508EC12BF34D6EADBCB2E3EC7575DD","5e5df77d-f8c5-4afa-9e4b-2995b5e83571","e622c465-ee29-4445-8260-1f3431e06587","{""participantId"":""FC508EC12BF34D6EADBCB2E3EC7575DD"",""assignmentId"":""5e5df77d-f8c5-4afa-9e4b-2995b5e83571"",""projectId"":""e622c465-ee29-4445-8260-1f3431e06587""}","https://test12345.live/?participantId=FC508EC12BF34D6EADBCB2E3EC7575DD&assignmentId=5e5df77d-f8c5-4afa-9e4b-2995b5e83571&projectId=e622c465-ee29-4445-8260-1f3431e06587","","1177","
    <div style=""display: flex; justify-content: center; align-items: center;"">
      <img src=""images/blue_deck_1.png"" style=""width: 300px; height: 300px; margin-right: 10px;"" />
      <img src=""images/red_deck_2.png"" style=""width: 300px; height: 300px;"" />
    </div>","1","1",""
"","","","","","html-keyboard-response","27","245301","0.0-22.0-0.0","FC508EC12BF34D6EADBCB2E3EC7575DD","FC508EC12BF34D6EADBCB2E3EC7575DD","5e5df77d-f8c5-4afa-9e4b-2995b5e83571","e622c465-ee29-4445-8260-1f3431e06587","{""participantId"":""FC508EC12BF34D6EADBCB2E3EC7575DD"",""assignmentId"":""5e5df77d-f8c5-4afa-9e4b-2995b5e83571"",""projectId"":""e622c465-ee29-4445-8260-1f3431e06587""}","https://test12345.live/?participantId=FC508EC12BF34D6EADBCB2E3EC7575DD&assignmentId=5e5df77d-f8c5-4afa-9e4b-2995b5e83571&projectId=e622c465-ee29-4445-8260-1f3431e06587","","null","<div style=""display: flex; justify-content: center; align-items: center;"">
                    <img src=""images/semantic/semantic_series_10/semantic_series_10_a.jpg"" style=""width: 300px; height: 300px;"" />
                  </div>","null","",""
"","","","","","html-keyboard-response","28","248314","0.0-22.0-1.0","FC508EC12BF34D6EADBCB2E3EC7575DD","FC508EC12BF34D6EADBCB2E3EC7575DD","5e5df77d-f8c5-4afa-9e4b-2995b5e83571","e622c465-ee29-4445-8260-1f3431e06587","{""participantId"":""FC508EC12BF34D6EADBCB2E3EC7575DD"",""assignmentId"":""5e5df77d-f8c5-4afa-9e4b-2995b5e83571"",""projectId"":""e622c465-ee29-4445-8260-1f3431e06587""}","https://test12345.live/?participantId=FC508EC12BF34D6EADBCB2E3EC7575DD&assignmentId=5e5df77d-f8c5-4afa-9e4b-2995b5e83571&projectId=e622c465-ee29-4445-8260-1f3431e06587","","null","<div style=""display: flex; justify-content: center; align-items: center;"">
                    <img src=""images/semantic/semantic_series_10/semantic_series_10_b.jpg"" style=""width: 300px; height: 300px;"" />
                  </div>","null","",""
"","","","","","html-keyboard-response","29","251320","0.0-22.0-2.0","FC508EC12BF34D6EADBCB2E3EC7575DD","FC508EC12BF34D6EADBCB2E3EC7575DD","5e5df77d-f8c5-4afa-9e4b-2995b5e83571","e622c465-ee29-4445-8260-1f3431e06587","{""participantId"":""FC508EC12BF34D6EADBCB2E3EC7575DD"",""assignmentId"":""5e5df77d-f8c5-4afa-9e4b-2995b5e83571"",""projectId"":""e622c465-ee29-4445-8260-1f3431e06587""}","https://test12345.live/?participantId=FC508EC12BF34D6EADBCB2E3EC7575DD&assignmentId=5e5df77d-f8c5-4afa-9e4b-2995b5e83571&projectId=e622c465-ee29-4445-8260-1f3431e06587","","null","<div style=""display: flex; justify-content: center; align-items: center;"">
                    <img src=""images/semantic/semantic_series_10/semantic_series_10_c.jpg"" style=""width: 300px; height: 300px;"" />
                  </div>","null","",""
"","","","","","html-keyboard-response","30","254321","0.0-22.0-3.0","FC508EC12BF34D6EADBCB2E3EC7575DD","FC508EC12BF34D6EADBCB2E3EC7575DD","5e5df77d-f8c5-4afa-9e4b-2995b5e83571","e622c465-ee29-4445-8260-1f3431e06587","{""participantId"":""FC508EC12BF34D6EADBCB2E3EC7575DD"",""assignmentId"":""5e5df77d-f8c5-4afa-9e4b-2995b5e83571"",""projectId"":""e622c465-ee29-4445-8260-1f3431e06587""}","https://test12345.live/?participantId=FC508EC12BF34D6EADBCB2E3EC7575DD&assignmentId=5e5df77d-f8c5-4afa-9e4b-2995b5e83571&projectId=e622c465-ee29-4445-8260-1f3431e06587","","null","<div style=""display: flex; justify-content: center; align-items: center;"">
                    <img src=""images/semantic/semantic_series_10/semantic_series_10_d.jpg"" style=""width: 300px; height: 300px;"" />
                  </div>","null","",""
"","","","","","html-button-response","31","255880","0.0-23.0","FC508EC12BF34D6EADBCB2E3EC7575DD","FC508EC12BF34D6EADBCB2E3EC7575DD","5e5df77d-f8c5-4afa-9e4b-2995b5e83571","e622c465-ee29-4445-8260-1f3431e06587","{""participantId"":""FC508EC12BF34D6EADBCB2E3EC7575DD"",""assignmentId"":""5e5df77d-f8c5-4afa-9e4b-2995b5e83571"",""projectId"":""e622c465-ee29-4445-8260-1f3431e06587""}","https://test12345.live/?participantId=FC508EC12BF34D6EADBCB2E3EC7575DD&assignmentId=5e5df77d-f8c5-4afa-9e4b-2995b5e83571&projectId=e622c465-ee29-4445-8260-1f3431e06587","","1559","Was there a person in the picture?","1","",""
"","","","","","survey-likert","32","258250","0.0-24.0","FC508EC12BF34D6EADBCB2E3EC7575DD","FC508EC12BF34D6EADBCB2E3EC7575DD","5e5df77d-f8c5-4afa-9e4b-2995b5e83571","e622c465-ee29-4445-8260-1f3431e06587","{""participantId"":""FC508EC12BF34D6EADBCB2E3EC7575DD"",""assignmentId"":""5e5df77d-f8c5-4afa-9e4b-2995b5e83571"",""projectId"":""e622c465-ee29-4445-8260-1f3431e06587""}","https://test12345.live/?participantId=FC508EC12BF34D6EADBCB2E3EC7575DD&assignmentId=5e5df77d-f8c5-4afa-9e4b-2995b5e83571&projectId=e622c465-ee29-4445-8260-1f3431e06587","","2369","","{""Q0"":2}","","[0]"
"","","","","","html-button-response","33","259494","0.0-25.0","FC508EC12BF34D6EADBCB2E3EC7575DD","FC508EC12BF34D6EADBCB2E3EC7575DD","5e5df77d-f8c5-4afa-9e4b-2995b5e83571","e622c465-ee29-4445-8260-1f3431e06587","{""participantId"":""FC508EC12BF34D6EADBCB2E3EC7575DD"",""assignmentId"":""5e5df77d-f8c5-4afa-9e4b-2995b5e83571"",""projectId"":""e622c465-ee29-4445-8260-1f3431e06587""}","https://test12345.live/?participantId=FC508EC12BF34D6EADBCB2E3EC7575DD&assignmentId=5e5df77d-f8c5-4afa-9e4b-2995b5e83571&projectId=e622c465-ee29-4445-8260-1f3431e06587","","1244","
    <div style=""display: flex; justify-content: center; align-items: center;"">
      <img src=""images/blue_deck_1.png"" style=""width: 300px; height: 300px; margin-right: 10px;"" />
      <img src=""images/red_deck_2.png"" style=""width: 300px; height: 300px;"" />
    </div>","1","1",""
"","","","","","html-keyboard-response","34","262511","0.0-27.0-0.0","FC508EC12BF34D6EADBCB2E3EC7575DD","FC508EC12BF34D6EADBCB2E3EC7575DD","5e5df77d-f8c5-4afa-9e4b-2995b5e83571","e622c465-ee29-4445-8260-1f3431e06587","{""participantId"":""FC508EC12BF34D6EADBCB2E3EC7575DD"",""assignmentId"":""5e5df77d-f8c5-4afa-9e4b-2995b5e83571"",""projectId"":""e622c465-ee29-4445-8260-1f3431e06587""}","https://test12345.live/?participantId=FC508EC12BF34D6EADBCB2E3EC7575DD&assignmentId=5e5df77d-f8c5-4afa-9e4b-2995b5e83571&projectId=e622c465-ee29-4445-8260-1f3431e06587","","null","<div style=""display: flex; justify-content: center; align-items: center;"">
                    <img src=""images/semantic/semantic_series_17/semantic_series_17_a.jpg"" style=""width: 300px; height: 300px;"" />
                  </div>","null","",""
"","","","","","html-keyboard-response","35","265524","0.0-27.0-1.0","FC508EC12BF34D6EADBCB2E3EC7575DD","FC508EC12BF34D6EADBCB2E3EC7575DD","5e5df77d-f8c5-4afa-9e4b-2995b5e83571","e622c465-ee29-4445-8260-1f3431e06587","{""participantId"":""FC508EC12BF34D6EADBCB2E3EC7575DD"",""assignmentId"":""5e5df77d-f8c5-4afa-9e4b-2995b5e83571"",""projectId"":""e622c465-ee29-4445-8260-1f3431e06587""}","https://test12345.live/?participantId=FC508EC12BF34D6EADBCB2E3EC7575DD&assignmentId=5e5df77d-f8c5-4afa-9e4b-2995b5e83571&projectId=e622c465-ee29-4445-8260-1f3431e06587","","null","<div style=""display: flex; justify-content: center; align-items: center;"">
                    <img src=""images/semantic/semantic_series_17/semantic_series_17_b.jpg"" style=""width: 300px; height: 300px;"" />
                  </div>","null","",""
"","","","","","html-keyboard-response","36","268540","0.0-27.0-2.0","FC508EC12BF34D6EADBCB2E3EC7575DD","FC508EC12BF34D6EADBCB2E3EC7575DD","5e5df77d-f8c5-4afa-9e4b-2995b5e83571","e622c465-ee29-4445-8260-1f3431e06587","{""participantId"":""FC508EC12BF34D6EADBCB2E3EC7575DD"",""assignmentId"":""5e5df77d-f8c5-4afa-9e4b-2995b5e83571"",""projectId"":""e622c465-ee29-4445-8260-1f3431e06587""}","https://test12345.live/?participantId=FC508EC12BF34D6EADBCB2E3EC7575DD&assignmentId=5e5df77d-f8c5-4afa-9e4b-2995b5e83571&projectId=e622c465-ee29-4445-8260-1f3431e06587","","null","<div style=""display: flex; justify-content: center; align-items: center;"">
                    <img src=""images/semantic/semantic_series_17/semantic_series_17_c.jpg"" style=""width: 300px; height: 300px;"" />
                  </div>","null","",""
"","","","","","html-keyboard-response","37","271556","0.0-27.0-3.0","FC508EC12BF34D6EADBCB2E3EC7575DD","FC508EC12BF34D6EADBCB2E3EC7575DD","5e5df77d-f8c5-4afa-9e4b-2995b5e83571","e622c465-ee29-4445-8260-1f3431e06587","{""participantId"":""FC508EC12BF34D6EADBCB2E3EC7575DD"",""assignmentId"":""5e5df77d-f8c5-4afa-9e4b-2995b5e83571"",""projectId"":""e622c465-ee29-4445-8260-1f3431e06587""}","https://test12345.live/?participantId=FC508EC12BF34D6EADBCB2E3EC7575DD&assignmentId=5e5df77d-f8c5-4afa-9e4b-2995b5e83571&projectId=e622c465-ee29-4445-8260-1f3431e06587","","null","<div style=""display: flex; justify-content: center; align-items: center;"">
                    <img src=""images/semantic/semantic_series_17/semantic_series_17_d.jpg"" style=""width: 300px; height: 300px;"" />
                  </div>","null","",""
"","","","","","html-button-response","38","272685","0.0-28.0","FC508EC12BF34D6EADBCB2E3EC7575DD","FC508EC12BF34D6EADBCB2E3EC7575DD","5e5df77d-f8c5-4afa-9e4b-2995b5e83571","e622c465-ee29-4445-8260-1f3431e06587","{""participantId"":""FC508EC12BF34D6EADBCB2E3EC7575DD"",""assignmentId"":""5e5df77d-f8c5-4afa-9e4b-2995b5e83571"",""projectId"":""e622c465-ee29-4445-8260-1f3431e06587""}","https://test12345.live/?participantId=FC508EC12BF34D6EADBCB2E3EC7575DD&assignmentId=5e5df77d-f8c5-4afa-9e4b-2995b5e83571&projectId=e622c465-ee29-4445-8260-1f3431e06587","","1128","Was there a person in the picture?","0","",""
"","","","","","survey-likert","39","275235","0.0-29.0","FC508EC12BF34D6EADBCB2E3EC7575DD","FC508EC12BF34D6EADBCB2E3EC7575DD","5e5df77d-f8c5-4afa-9e4b-2995b5e83571","e622c465-ee29-4445-8260-1f3431e06587","{""participantId"":""FC508EC12BF34D6EADBCB2E3EC7575DD"",""assignmentId"":""5e5df77d-f8c5-4afa-9e4b-2995b5e83571"",""projectId"":""e622c465-ee29-4445-8260-1f3431e06587""}","https://test12345.live/?participantId=FC508EC12BF34D6EADBCB2E3EC7575DD&assignmentId=5e5df77d-f8c5-4afa-9e4b-2995b5e83571&projectId=e622c465-ee29-4445-8260-1f3431e06587","","2550","","{""Q0"":3}","","[0]"
"","","","","","html-button-response","40","276804","0.0-30.0","FC508EC12BF34D6EADBCB2E3EC7575DD","FC508EC12BF34D6EADBCB2E3EC7575DD","5e5df77d-f8c5-4afa-9e4b-2995b5e83571","e622c465-ee29-4445-8260-1f3431e06587","{""participantId"":""FC508EC12BF34D6EADBCB2E3EC7575DD"",""assignmentId"":""5e5df77d-f8c5-4afa-9e4b-2995b5e83571"",""projectId"":""e622c465-ee29-4445-8260-1f3431e06587""}","https://test12345.live/?participantId=FC508EC12BF34D6EADBCB2E3EC7575DD&assignmentId=5e5df77d-f8c5-4afa-9e4b-2995b5e83571&projectId=e622c465-ee29-4445-8260-1f3431e06587","","1568","
    <div style=""display: flex; justify-content: center; align-items: center;"">
      <img src=""images/blue_deck_1.png"" style=""width: 300px; height: 300px; margin-right: 10px;"" />
      <img src=""images/red_deck_2.png"" style=""width: 300px; height: 300px;"" />
    </div>","1","1",""
"","","","","","html-keyboard-response","41","279818","0.0-32.0-0.0","FC508EC12BF34D6EADBCB2E3EC7575DD","FC508EC12BF34D6EADBCB2E3EC7575DD","5e5df77d-f8c5-4afa-9e4b-2995b5e83571","e622c465-ee29-4445-8260-1f3431e06587","{""participantId"":""FC508EC12BF34D6EADBCB2E3EC7575DD"",""assignmentId"":""5e5df77d-f8c5-4afa-9e4b-2995b5e83571"",""projectId"":""e622c465-ee29-4445-8260-1f3431e06587""}","https://test12345.live/?participantId=FC508EC12BF34D6EADBCB2E3EC7575DD&assignmentId=5e5df77d-f8c5-4afa-9e4b-2995b5e83571&projectId=e622c465-ee29-4445-8260-1f3431e06587","","null","<div style=""display: flex; justify-content: center; align-items: center;"">
                    <img src=""images/semantic/semantic_series_3/semantic_series_3_a.jpg"" style=""width: 300px; height: 300px;"" />
                  </div>","null","",""
"","","","","","html-keyboard-response","42","282823","0.0-32.0-1.0","FC508EC12BF34D6EADBCB2E3EC7575DD","FC508EC12BF34D6EADBCB2E3EC7575DD","5e5df77d-f8c5-4afa-9e4b-2995b5e83571","e622c465-ee29-4445-8260-1f3431e06587","{""participantId"":""FC508EC12BF34D6EADBCB2E3EC7575DD"",""assignmentId"":""5e5df77d-f8c5-4afa-9e4b-2995b5e83571"",""projectId"":""e622c465-ee29-4445-8260-1f3431e06587""}","https://test12345.live/?participantId=FC508EC12BF34D6EADBCB2E3EC7575DD&assignmentId=5e5df77d-f8c5-4afa-9e4b-2995b5e83571&projectId=e622c465-ee29-4445-8260-1f3431e06587","","null","<div style=""display: flex; justify-content: center; align-items: center;"">
                    <img src=""images/semantic/semantic_series_3/semantic_series_3_b.jpg"" style=""width: 300px; height: 300px;"" />
                  </div>","null","",""
"","","","","","html-keyboard-response","43","285835","0.0-32.0-2.0","FC508EC12BF34D6EADBCB2E3EC7575DD","FC508EC12BF34D6EADBCB2E3EC7575DD","5e5df77d-f8c5-4afa-9e4b-2995b5e83571","e622c465-ee29-4445-8260-1f3431e06587","{""participantId"":""FC508EC12BF34D6EADBCB2E3EC7575DD"",""assignmentId"":""5e5df77d-f8c5-4afa-9e4b-2995b5e83571"",""projectId"":""e622c465-ee29-4445-8260-1f3431e06587""}","https://test12345.live/?participantId=FC508EC12BF34D6EADBCB2E3EC7575DD&assignmentId=5e5df77d-f8c5-4afa-9e4b-2995b5e83571&projectId=e622c465-ee29-4445-8260-1f3431e06587","","null","<div style=""display: flex; justify-content: center; align-items: center;"">
                    <img src=""images/semantic/semantic_series_3/semantic_series_3_c.jpg"" style=""width: 300px; height: 300px;"" />
                  </div>","null","",""
"","","","","","html-keyboard-response","44","288844","0.0-32.0-3.0","FC508EC12BF34D6EADBCB2E3EC7575DD","FC508EC12BF34D6EADBCB2E3EC7575DD","5e5df77d-f8c5-4afa-9e4b-2995b5e83571","e622c465-ee29-4445-8260-1f3431e06587","{""participantId"":""FC508EC12BF34D6EADBCB2E3EC7575DD"",""assignmentId"":""5e5df77d-f8c5-4afa-9e4b-2995b5e83571"",""projectId"":""e622c465-ee29-4445-8260-1f3431e06587""}","https://test12345.live/?participantId=FC508EC12BF34D6EADBCB2E3EC7575DD&assignmentId=5e5df77d-f8c5-4afa-9e4b-2995b5e83571&projectId=e622c465-ee29-4445-8260-1f3431e06587","","null","<div style=""display: flex; justify-content: center; align-items: center;"">
                    <img src=""images/semantic/semantic_series_3/semantic_series_3_d.jpg"" style=""width: 300px; height: 300px;"" />
                  </div>","null","",""
"","","","","","html-button-response","45","290907","0.0-33.0","FC508EC12BF34D6EADBCB2E3EC7575DD","FC508EC12BF34D6EADBCB2E3EC7575DD","5e5df77d-f8c5-4afa-9e4b-2995b5e83571","e622c465-ee29-4445-8260-1f3431e06587","{""participantId"":""FC508EC12BF34D6EADBCB2E3EC7575DD"",""assignmentId"":""5e5df77d-f8c5-4afa-9e4b-2995b5e83571"",""projectId"":""e622c465-ee29-4445-8260-1f3431e06587""}","https://test12345.live/?participantId=FC508EC12BF34D6EADBCB2E3EC7575DD&assignmentId=5e5df77d-f8c5-4afa-9e4b-2995b5e83571&projectId=e622c465-ee29-4445-8260-1f3431e06587","","2063","Was there a person in the picture?","0","",""
"","","","","","survey-likert","46","292258","0.0-34.0","FC508EC12BF34D6EADBCB2E3EC7575DD","FC508EC12BF34D6EADBCB2E3EC7575DD","5e5df77d-f8c5-4afa-9e4b-2995b5e83571","e622c465-ee29-4445-8260-1f3431e06587","{""participantId"":""FC508EC12BF34D6EADBCB2E3EC7575DD"",""assignmentId"":""5e5df77d-f8c5-4afa-9e4b-2995b5e83571"",""projectId"":""e622c465-ee29-4445-8260-1f3431e06587""}","https://test12345.live/?participantId=FC508EC12BF34D6EADBCB2E3EC7575DD&assignmentId=5e5df77d-f8c5-4afa-9e4b-2995b5e83571&projectId=e622c465-ee29-4445-8260-1f3431e06587","","1350","","{""Q0"":3}","","[0]"
"","","","","","html-button-response","47","293696","0.0-35.0","FC508EC12BF34D6EADBCB2E3EC7575DD","FC508EC12BF34D6EADBCB2E3EC7575DD","5e5df77d-f8c5-4afa-9e4b-2995b5e83571","e622c465-ee29-4445-8260-1f3431e06587","{""participantId"":""FC508EC12BF34D6EADBCB2E3EC7575DD"",""assignmentId"":""5e5df77d-f8c5-4afa-9e4b-2995b5e83571"",""projectId"":""e622c465-ee29-4445-8260-1f3431e06587""}","https://test12345.live/?participantId=FC508EC12BF34D6EADBCB2E3EC7575DD&assignmentId=5e5df77d-f8c5-4afa-9e4b-2995b5e83571&projectId=e622c465-ee29-4445-8260-1f3431e06587","","1438","
    <div style=""display: flex; justify-content: center; align-items: center;"">
      <img src=""images/blue_deck_1.png"" style=""width: 300px; height: 300px; margin-right: 10px;"" />
      <img src=""images/red_deck_2.png"" style=""width: 300px; height: 300px;"" />
    </div>","1","1",""
"","","","","","html-keyboard-response","48","296704","0.0-37.0-0.0","FC508EC12BF34D6EADBCB2E3EC7575DD","FC508EC12BF34D6EADBCB2E3EC7575DD","5e5df77d-f8c5-4afa-9e4b-2995b5e83571","e622c465-ee29-4445-8260-1f3431e06587","{""participantId"":""FC508EC12BF34D6EADBCB2E3EC7575DD"",""assignmentId"":""5e5df77d-f8c5-4afa-9e4b-2995b5e83571"",""projectId"":""e622c465-ee29-4445-8260-1f3431e06587""}","https://test12345.live/?participantId=FC508EC12BF34D6EADBCB2E3EC7575DD&assignmentId=5e5df77d-f8c5-4afa-9e4b-2995b5e83571&projectId=e622c465-ee29-4445-8260-1f3431e06587","","null","<div style=""display: flex; justify-content: center; align-items: center;"">
                    <img src=""images/semantic/semantic_series_16/semantic_series_16_a.jpg"" style=""width: 300px; height: 300px;"" />
                  </div>","null","",""
"","","","","","html-keyboard-response","49","299714","0.0-37.0-1.0","FC508EC12BF34D6EADBCB2E3EC7575DD","FC508EC12BF34D6EADBCB2E3EC7575DD","5e5df77d-f8c5-4afa-9e4b-2995b5e83571","e622c465-ee29-4445-8260-1f3431e06587","{""participantId"":""FC508EC12BF34D6EADBCB2E3EC7575DD"",""assignmentId"":""5e5df77d-f8c5-4afa-9e4b-2995b5e83571"",""projectId"":""e622c465-ee29-4445-8260-1f3431e06587""}","https://test12345.live/?participantId=FC508EC12BF34D6EADBCB2E3EC7575DD&assignmentId=5e5df77d-f8c5-4afa-9e4b-2995b5e83571&projectId=e622c465-ee29-4445-8260-1f3431e06587","","null","<div style=""display: flex; justify-content: center; align-items: center;"">
                    <img src=""images/semantic/semantic_series_16/semantic_series_16_b.jpg"" style=""width: 300px; height: 300px;"" />
                  </div>","null","",""
"","","","","","html-keyboard-response","50","302717","0.0-37.0-2.0","FC508EC12BF34D6EADBCB2E3EC7575DD","FC508EC12BF34D6EADBCB2E3EC7575DD","5e5df77d-f8c5-4afa-9e4b-2995b5e83571","e622c465-ee29-4445-8260-1f3431e06587","{""participantId"":""FC508EC12BF34D6EADBCB2E3EC7575DD"",""assignmentId"":""5e5df77d-f8c5-4afa-9e4b-2995b5e83571"",""projectId"":""e622c465-ee29-4445-8260-1f3431e06587""}","https://test12345.live/?participantId=FC508EC12BF34D6EADBCB2E3EC7575DD&assignmentId=5e5df77d-f8c5-4afa-9e4b-2995b5e83571&projectId=e622c465-ee29-4445-8260-1f3431e06587","","null","<div style=""display: flex; justify-content: center; align-items: center;"">
                    <img src=""images/semantic/semantic_series_16/semantic_series_16_c.jpg"" style=""width: 300px; height: 300px;"" />
                  </div>","null","",""
"","","","","","html-keyboard-response","51","305733","0.0-37.0-3.0","FC508EC12BF34D6EADBCB2E3EC7575DD","FC508EC12BF34D6EADBCB2E3EC7575DD","5e5df77d-f8c5-4afa-9e4b-2995b5e83571","e622c465-ee29-4445-8260-1f3431e06587","{""participantId"":""FC508EC12BF34D6EADBCB2E3EC7575DD"",""assignmentId"":""5e5df77d-f8c5-4afa-9e4b-2995b5e83571"",""projectId"":""e622c465-ee29-4445-8260-1f3431e06587""}","https://test12345.live/?participantId=FC508EC12BF34D6EADBCB2E3EC7575DD&assignmentId=5e5df77d-f8c5-4afa-9e4b-2995b5e83571&projectId=e622c465-ee29-4445-8260-1f3431e06587","","null","<div style=""display: flex; justify-content: center; align-items: center;"">
                    <img src=""images/semantic/semantic_series_16/semantic_series_16_d.jpg"" style=""width: 300px; height: 300px;"" />
                  </div>","null","",""
"","","","","","html-button-response","52","306897","0.0-38.0","FC508EC12BF34D6EADBCB2E3EC7575DD","FC508EC12BF34D6EADBCB2E3EC7575DD","5e5df77d-f8c5-4afa-9e4b-2995b5e83571","e622c465-ee29-4445-8260-1f3431e06587","{""participantId"":""FC508EC12BF34D6EADBCB2E3EC7575DD"",""assignmentId"":""5e5df77d-f8c5-4afa-9e4b-2995b5e83571"",""projectId"":""e622c465-ee29-4445-8260-1f3431e06587""}","https://test12345.live/?participantId=FC508EC12BF34D6EADBCB2E3EC7575DD&assignmentId=5e5df77d-f8c5-4afa-9e4b-2995b5e83571&projectId=e622c465-ee29-4445-8260-1f3431e06587","","1164","Was there a person in the picture?","0","",""
"","","","","","survey-likert","53","308679","0.0-39.0","FC508EC12BF34D6EADBCB2E3EC7575DD","FC508EC12BF34D6EADBCB2E3EC7575DD","5e5df77d-f8c5-4afa-9e4b-2995b5e83571","e622c465-ee29-4445-8260-1f3431e06587","{""participantId"":""FC508EC12BF34D6EADBCB2E3EC7575DD"",""assignmentId"":""5e5df77d-f8c5-4afa-9e4b-2995b5e83571"",""projectId"":""e622c465-ee29-4445-8260-1f3431e06587""}","https://test12345.live/?participantId=FC508EC12BF34D6EADBCB2E3EC7575DD&assignmentId=5e5df77d-f8c5-4afa-9e4b-2995b5e83571&projectId=e622c465-ee29-4445-8260-1f3431e06587","","1781","","{""Q0"":3}","","[0]"
"","","","","","html-button-response","54","309882","0.0-40.0","FC508EC12BF34D6EADBCB2E3EC7575DD","FC508EC12BF34D6EADBCB2E3EC7575DD","5e5df77d-f8c5-4afa-9e4b-2995b5e83571","e622c465-ee29-4445-8260-1f3431e06587","{""participantId"":""FC508EC12BF34D6EADBCB2E3EC7575DD"",""assignmentId"":""5e5df77d-f8c5-4afa-9e4b-2995b5e83571"",""projectId"":""e622c465-ee29-4445-8260-1f3431e06587""}","https://test12345.live/?participantId=FC508EC12BF34D6EADBCB2E3EC7575DD&assignmentId=5e5df77d-f8c5-4afa-9e4b-2995b5e83571&projectId=e622c465-ee29-4445-8260-1f3431e06587","","1203","
    <div style=""display: flex; justify-content: center; align-items: center;"">
      <img src=""images/blue_deck_1.png"" style=""width: 300px; height: 300px; margin-right: 10px;"" />
      <img src=""images/red_deck_2.png"" style=""width: 300px; height: 300px;"" />
    </div>","0","0",""
"","","","","","html-keyboard-response","55","312889","0.0-41.0-0.0","FC508EC12BF34D6EADBCB2E3EC7575DD","FC508EC12BF34D6EADBCB2E3EC7575DD","5e5df77d-f8c5-4afa-9e4b-2995b5e83571","e622c465-ee29-4445-8260-1f3431e06587","{""participantId"":""FC508EC12BF34D6EADBCB2E3EC7575DD"",""assignmentId"":""5e5df77d-f8c5-4afa-9e4b-2995b5e83571"",""projectId"":""e622c465-ee29-4445-8260-1f3431e06587""}","https://test12345.live/?participantId=FC508EC12BF34D6EADBCB2E3EC7575DD&assignmentId=5e5df77d-f8c5-4afa-9e4b-2995b5e83571&projectId=e622c465-ee29-4445-8260-1f3431e06587","","null","<div style=""display: flex; justify-content: center; align-items: center;"">
                    <img src=""images/causal/causal_series_5/causal_series_5_a.jpg"" style=""width: 300px; height: 300px;"" />
                  </div>","null","",""
"","","","","","html-keyboard-response","56","315904","0.0-41.0-1.0","FC508EC12BF34D6EADBCB2E3EC7575DD","FC508EC12BF34D6EADBCB2E3EC7575DD","5e5df77d-f8c5-4afa-9e4b-2995b5e83571","e622c465-ee29-4445-8260-1f3431e06587","{""participantId"":""FC508EC12BF34D6EADBCB2E3EC7575DD"",""assignmentId"":""5e5df77d-f8c5-4afa-9e4b-2995b5e83571"",""projectId"":""e622c465-ee29-4445-8260-1f3431e06587""}","https://test12345.live/?participantId=FC508EC12BF34D6EADBCB2E3EC7575DD&assignmentId=5e5df77d-f8c5-4afa-9e4b-2995b5e83571&projectId=e622c465-ee29-4445-8260-1f3431e06587","","null","<div style=""display: flex; justify-content: center; align-items: center;"">
                    <img src=""images/causal/causal_series_5/causal_series_5_b.jpg"" style=""width: 300px; height: 300px;"" />
                  </div>","null","",""
"","","","","","html-keyboard-response","57","318919","0.0-41.0-2.0","FC508EC12BF34D6EADBCB2E3EC7575DD","FC508EC12BF34D6EADBCB2E3EC7575DD","5e5df77d-f8c5-4afa-9e4b-2995b5e83571","e622c465-ee29-4445-8260-1f3431e06587","{""participantId"":""FC508EC12BF34D6EADBCB2E3EC7575DD"",""assignmentId"":""5e5df77d-f8c5-4afa-9e4b-2995b5e83571"",""projectId"":""e622c465-ee29-4445-8260-1f3431e06587""}","https://test12345.live/?participantId=FC508EC12BF34D6EADBCB2E3EC7575DD&assignmentId=5e5df77d-f8c5-4afa-9e4b-2995b5e83571&projectId=e622c465-ee29-4445-8260-1f3431e06587","","null","<div style=""display: flex; justify-content: center; align-items: center;"">
                    <img src=""images/causal/causal_series_5/causal_series_5_c.jpg"" style=""width: 300px; height: 300px;"" />
                  </div>","null","",""
"","","","","","html-keyboard-response","58","321933","0.0-41.0-3.0","FC508EC12BF34D6EADBCB2E3EC7575DD","FC508EC12BF34D6EADBCB2E3EC7575DD","5e5df77d-f8c5-4afa-9e4b-2995b5e83571","e622c465-ee29-4445-8260-1f3431e06587","{""participantId"":""FC508EC12BF34D6EADBCB2E3EC7575DD"",""assignmentId"":""5e5df77d-f8c5-4afa-9e4b-2995b5e83571"",""projectId"":""e622c465-ee29-4445-8260-1f3431e06587""}","https://test12345.live/?participantId=FC508EC12BF34D6EADBCB2E3EC7575DD&assignmentId=5e5df77d-f8c5-4afa-9e4b-2995b5e83571&projectId=e622c465-ee29-4445-8260-1f3431e06587","","null","<div style=""display: flex; justify-content: center; align-items: center;"">
                    <img src=""images/causal/causal_series_5/causal_series_5_d.jpg"" style=""width: 300px; height: 300px;"" />
                  </div>","null","",""
"","","","","","html-button-response","59","322971","0.0-43.0","FC508EC12BF34D6EADBCB2E3EC7575DD","FC508EC12BF34D6EADBCB2E3EC7575DD","5e5df77d-f8c5-4afa-9e4b-2995b5e83571","e622c465-ee29-4445-8260-1f3431e06587","{""participantId"":""FC508EC12BF34D6EADBCB2E3EC7575DD"",""assignmentId"":""5e5df77d-f8c5-4afa-9e4b-2995b5e83571"",""projectId"":""e622c465-ee29-4445-8260-1f3431e06587""}","https://test12345.live/?participantId=FC508EC12BF34D6EADBCB2E3EC7575DD&assignmentId=5e5df77d-f8c5-4afa-9e4b-2995b5e83571&projectId=e622c465-ee29-4445-8260-1f3431e06587","","1037","Was there a person in the picture?","0","",""
"","","","","","survey-likert","60","324968","0.0-44.0","FC508EC12BF34D6EADBCB2E3EC7575DD","FC508EC12BF34D6EADBCB2E3EC7575DD","5e5df77d-f8c5-4afa-9e4b-2995b5e83571","e622c465-ee29-4445-8260-1f3431e06587","{""participantId"":""FC508EC12BF34D6EADBCB2E3EC7575DD"",""assignmentId"":""5e5df77d-f8c5-4afa-9e4b-2995b5e83571"",""projectId"":""e622c465-ee29-4445-8260-1f3431e06587""}","https://test12345.live/?participantId=FC508EC12BF34D6EADBCB2E3EC7575DD&assignmentId=5e5df77d-f8c5-4afa-9e4b-2995b5e83571&projectId=e622c465-ee29-4445-8260-1f3431e06587","","1996","","{""Q0"":4}","","[0]"
"","","","","","html-button-response","61","326022","0.0-45.0","FC508EC12BF34D6EADBCB2E3EC7575DD","FC508EC12BF34D6EADBCB2E3EC7575DD","5e5df77d-f8c5-4afa-9e4b-2995b5e83571","e622c465-ee29-4445-8260-1f3431e06587","{""participantId"":""FC508EC12BF34D6EADBCB2E3EC7575DD"",""assignmentId"":""5e5df77d-f8c5-4afa-9e4b-2995b5e83571"",""projectId"":""e622c465-ee29-4445-8260-1f3431e06587""}","https://test12345.live/?participantId=FC508EC12BF34D6EADBCB2E3EC7575DD&assignmentId=5e5df77d-f8c5-4afa-9e4b-2995b5e83571&projectId=e622c465-ee29-4445-8260-1f3431e06587","","1054","
    <div style=""display: flex; justify-content: center; align-items: center;"">
      <img src=""images/blue_deck_1.png"" style=""width: 300px; height: 300px; margin-right: 10px;"" />
      <img src=""images/red_deck_2.png"" style=""width: 300px; height: 300px;"" />
    </div>","0","0",""
"","","","","","html-keyboard-response","62","329035","0.0-46.0-0.0","FC508EC12BF34D6EADBCB2E3EC7575DD","FC508EC12BF34D6EADBCB2E3EC7575DD","5e5df77d-f8c5-4afa-9e4b-2995b5e83571","e622c465-ee29-4445-8260-1f3431e06587","{""participantId"":""FC508EC12BF34D6EADBCB2E3EC7575DD"",""assignmentId"":""5e5df77d-f8c5-4afa-9e4b-2995b5e83571"",""projectId"":""e622c465-ee29-4445-8260-1f3431e06587""}","https://test12345.live/?participantId=FC508EC12BF34D6EADBCB2E3EC7575DD&assignmentId=5e5df77d-f8c5-4afa-9e4b-2995b5e83571&projectId=e622c465-ee29-4445-8260-1f3431e06587","","null","<div style=""display: flex; justify-content: center; align-items: center;"">
                    <img src=""images/causal/causal_series_14/causal_series_14_a.jpg"" style=""width: 300px; height: 300px;"" />
                  </div>","null","",""
"","","","","","html-keyboard-response","63","332038","0.0-46.0-1.0","FC508EC12BF34D6EADBCB2E3EC7575DD","FC508EC12BF34D6EADBCB2E3EC7575DD","5e5df77d-f8c5-4afa-9e4b-2995b5e83571","e622c465-ee29-4445-8260-1f3431e06587","{""participantId"":""FC508EC12BF34D6EADBCB2E3EC7575DD"",""assignmentId"":""5e5df77d-f8c5-4afa-9e4b-2995b5e83571"",""projectId"":""e622c465-ee29-4445-8260-1f3431e06587""}","https://test12345.live/?participantId=FC508EC12BF34D6EADBCB2E3EC7575DD&assignmentId=5e5df77d-f8c5-4afa-9e4b-2995b5e83571&projectId=e622c465-ee29-4445-8260-1f3431e06587","","null","<div style=""display: flex; justify-content: center; align-items: center;"">
                    <img src=""images/causal/causal_series_14/causal_series_14_b.jpg"" style=""width: 300px; height: 300px;"" />
                  </div>","null","",""
"","","","","","html-keyboard-response","64","335049","0.0-46.0-2.0","FC508EC12BF34D6EADBCB2E3EC7575DD","FC508EC12BF34D6EADBCB2E3EC7575DD","5e5df77d-f8c5-4afa-9e4b-2995b5e83571","e622c465-ee29-4445-8260-1f3431e06587","{""participantId"":""FC508EC12BF34D6EADBCB2E3EC7575DD"",""assignmentId"":""5e5df77d-f8c5-4afa-9e4b-2995b5e83571"",""projectId"":""e622c465-ee29-4445-8260-1f3431e06587""}","https://test12345.live/?participantId=FC508EC12BF34D6EADBCB2E3EC7575DD&assignmentId=5e5df77d-f8c5-4afa-9e4b-2995b5e83571&projectId=e622c465-ee29-4445-8260-1f3431e06587","","null","<div style=""display: flex; justify-content: center; align-items: center;"">
                    <img src=""images/causal/causal_series_14/causal_series_14_c.jpg"" style=""width: 300px; height: 300px;"" />
                  </div>","null","",""
"","","","","","html-keyboard-response","65","338052","0.0-46.0-3.0","FC508EC12BF34D6EADBCB2E3EC7575DD","FC508EC12BF34D6EADBCB2E3EC7575DD","5e5df77d-f8c5-4afa-9e4b-2995b5e83571","e622c465-ee29-4445-8260-1f3431e06587","{""participantId"":""FC508EC12BF34D6EADBCB2E3EC7575DD"",""assignmentId"":""5e5df77d-f8c5-4afa-9e4b-2995b5e83571"",""projectId"":""e622c465-ee29-4445-8260-1f3431e06587""}","https://test12345.live/?participantId=FC508EC12BF34D6EADBCB2E3EC7575DD&assignmentId=5e5df77d-f8c5-4afa-9e4b-2995b5e83571&projectId=e622c465-ee29-4445-8260-1f3431e06587","","null","<div style=""display: flex; justify-content: center; align-items: center;"">
                    <img src=""images/causal/causal_series_14/causal_series_14_d.jpg"" style=""width: 300px; height: 300px;"" />
                  </div>","null","",""
"","","","","","html-button-response","66","339421","0.0-48.0","FC508EC12BF34D6EADBCB2E3EC7575DD","FC508EC12BF34D6EADBCB2E3EC7575DD","5e5df77d-f8c5-4afa-9e4b-2995b5e83571","e622c465-ee29-4445-8260-1f3431e06587","{""participantId"":""FC508EC12BF34D6EADBCB2E3EC7575DD"",""assignmentId"":""5e5df77d-f8c5-4afa-9e4b-2995b5e83571"",""projectId"":""e622c465-ee29-4445-8260-1f3431e06587""}","https://test12345.live/?participantId=FC508EC12BF34D6EADBCB2E3EC7575DD&assignmentId=5e5df77d-f8c5-4afa-9e4b-2995b5e83571&projectId=e622c465-ee29-4445-8260-1f3431e06587","","1368","Was there a person in the picture?","0","",""
"","","","","","survey-likert","67","342038","0.0-49.0","FC508EC12BF34D6EADBCB2E3EC7575DD","FC508EC12BF34D6EADBCB2E3EC7575DD","5e5df77d-f8c5-4afa-9e4b-2995b5e83571","e622c465-ee29-4445-8260-1f3431e06587","{""participantId"":""FC508EC12BF34D6EADBCB2E3EC7575DD"",""assignmentId"":""5e5df77d-f8c5-4afa-9e4b-2995b5e83571"",""projectId"":""e622c465-ee29-4445-8260-1f3431e06587""}","https://test12345.live/?participantId=FC508EC12BF34D6EADBCB2E3EC7575DD&assignmentId=5e5df77d-f8c5-4afa-9e4b-2995b5e83571&projectId=e622c465-ee29-4445-8260-1f3431e06587","","2617","","{""Q0"":3}","","[0]"
"","","","","","html-button-response","68","343259","0.0-50.0","FC508EC12BF34D6EADBCB2E3EC7575DD","FC508EC12BF34D6EADBCB2E3EC7575DD","5e5df77d-f8c5-4afa-9e4b-2995b5e83571","e622c465-ee29-4445-8260-1f3431e06587","{""participantId"":""FC508EC12BF34D6EADBCB2E3EC7575DD"",""assignmentId"":""5e5df77d-f8c5-4afa-9e4b-2995b5e83571"",""projectId"":""e622c465-ee29-4445-8260-1f3431e06587""}","https://test12345.live/?participantId=FC508EC12BF34D6EADBCB2E3EC7575DD&assignmentId=5e5df77d-f8c5-4afa-9e4b-2995b5e83571&projectId=e622c465-ee29-4445-8260-1f3431e06587","","1220","
    <div style=""display: flex; justify-content: center; align-items: center;"">
      <img src=""images/blue_deck_1.png"" style=""width: 300px; height: 300px; margin-right: 10px;"" />
      <img src=""images/red_deck_2.png"" style=""width: 300px; height: 300px;"" />
    </div>","0","0",""
"","","","","","html-keyboard-response","69","346273","0.0-51.0-0.0","FC508EC12BF34D6EADBCB2E3EC7575DD","FC508EC12BF34D6EADBCB2E3EC7575DD","5e5df77d-f8c5-4afa-9e4b-2995b5e83571","e622c465-ee29-4445-8260-1f3431e06587","{""participantId"":""FC508EC12BF34D6EADBCB2E3EC7575DD"",""assignmentId"":""5e5df77d-f8c5-4afa-9e4b-2995b5e83571"",""projectId"":""e622c465-ee29-4445-8260-1f3431e06587""}","https://test12345.live/?participantId=FC508EC12BF34D6EADBCB2E3EC7575DD&assignmentId=5e5df77d-f8c5-4afa-9e4b-2995b5e83571&projectId=e622c465-ee29-4445-8260-1f3431e06587","","null","<div style=""display: flex; justify-content: center; align-items: center;"">
                    <img src=""images/causal/causal_series_8/causal_series_8_a.jpg"" style=""width: 300px; height: 300px;"" />
                  </div>","null","",""
"","","","","","html-keyboard-response","70","349275","0.0-51.0-1.0","FC508EC12BF34D6EADBCB2E3EC7575DD","FC508EC12BF34D6EADBCB2E3EC7575DD","5e5df77d-f8c5-4afa-9e4b-2995b5e83571","e622c465-ee29-4445-8260-1f3431e06587","{""participantId"":""FC508EC12BF34D6EADBCB2E3EC7575DD"",""assignmentId"":""5e5df77d-f8c5-4afa-9e4b-2995b5e83571"",""projectId"":""e622c465-ee29-4445-8260-1f3431e06587""}","https://test12345.live/?participantId=FC508EC12BF34D6EADBCB2E3EC7575DD&assignmentId=5e5df77d-f8c5-4afa-9e4b-2995b5e83571&projectId=e622c465-ee29-4445-8260-1f3431e06587","","null","<div style=""display: flex; justify-content: center; align-items: center;"">
                    <img src=""images/causal/causal_series_8/causal_series_8_b.jpg"" style=""width: 300px; height: 300px;"" />
                  </div>","null","",""
"","","","","","html-keyboard-response","71","352290","0.0-51.0-2.0","FC508EC12BF34D6EADBCB2E3EC7575DD","FC508EC12BF34D6EADBCB2E3EC7575DD","5e5df77d-f8c5-4afa-9e4b-2995b5e83571","e622c465-ee29-4445-8260-1f3431e06587","{""participantId"":""FC508EC12BF34D6EADBCB2E3EC7575DD"",""assignmentId"":""5e5df77d-f8c5-4afa-9e4b-2995b5e83571"",""projectId"":""e622c465-ee29-4445-8260-1f3431e06587""}","https://test12345.live/?participantId=FC508EC12BF34D6EADBCB2E3EC7575DD&assignmentId=5e5df77d-f8c5-4afa-9e4b-2995b5e83571&projectId=e622c465-ee29-4445-8260-1f3431e06587","","null","<div style=""display: flex; justify-content: center; align-items: center;"">
                    <img src=""images/causal/causal_series_8/causal_series_8_c.jpg"" style=""width: 300px; height: 300px;"" />
                  </div>","null","",""
"","","","","","html-keyboard-response","72","355299","0.0-51.0-3.0","FC508EC12BF34D6EADBCB2E3EC7575DD","FC508EC12BF34D6EADBCB2E3EC7575DD","5e5df77d-f8c5-4afa-9e4b-2995b5e83571","e622c465-ee29-4445-8260-1f3431e06587","{""participantId"":""FC508EC12BF34D6EADBCB2E3EC7575DD"",""assignmentId"":""5e5df77d-f8c5-4afa-9e4b-2995b5e83571"",""projectId"":""e622c465-ee29-4445-8260-1f3431e06587""}","https://test12345.live/?participantId=FC508EC12BF34D6EADBCB2E3EC7575DD&assignmentId=5e5df77d-f8c5-4afa-9e4b-2995b5e83571&projectId=e622c465-ee29-4445-8260-1f3431e06587","","null","<div style=""display: flex; justify-content: center; align-items: center;"">
                    <img src=""images/causal/causal_series_8/causal_series_8_d.jpg"" style=""width: 300px; height: 300px;"" />
                  </div>","null","",""
"","","","","","html-button-response","73","356618","0.0-53.0","FC508EC12BF34D6EADBCB2E3EC7575DD","FC508EC12BF34D6EADBCB2E3EC7575DD","5e5df77d-f8c5-4afa-9e4b-2995b5e83571","e622c465-ee29-4445-8260-1f3431e06587","{""participantId"":""FC508EC12BF34D6EADBCB2E3EC7575DD"",""assignmentId"":""5e5df77d-f8c5-4afa-9e4b-2995b5e83571"",""projectId"":""e622c465-ee29-4445-8260-1f3431e06587""}","https://test12345.live/?participantId=FC508EC12BF34D6EADBCB2E3EC7575DD&assignmentId=5e5df77d-f8c5-4afa-9e4b-2995b5e83571&projectId=e622c465-ee29-4445-8260-1f3431e06587","","1318","Was there a person in the picture?","0","",""
"","","","","","survey-likert","74","358627","0.0-54.0","FC508EC12BF34D6EADBCB2E3EC7575DD","FC508EC12BF34D6EADBCB2E3EC7575DD","5e5df77d-f8c5-4afa-9e4b-2995b5e83571","e622c465-ee29-4445-8260-1f3431e06587","{""participantId"":""FC508EC12BF34D6EADBCB2E3EC7575DD"",""assignmentId"":""5e5df77d-f8c5-4afa-9e4b-2995b5e83571"",""projectId"":""e622c465-ee29-4445-8260-1f3431e06587""}","https://test12345.live/?participantId=FC508EC12BF34D6EADBCB2E3EC7575DD&assignmentId=5e5df77d-f8c5-4afa-9e4b-2995b5e83571&projectId=e622c465-ee29-4445-8260-1f3431e06587","","2008","","{""Q0"":3}","","[0]"
"","","","","","html-button-response","75","359600","0.0-55.0","FC508EC12BF34D6EADBCB2E3EC7575DD","FC508EC12BF34D6EADBCB2E3EC7575DD","5e5df77d-f8c5-4afa-9e4b-2995b5e83571","e622c465-ee29-4445-8260-1f3431e06587","{""participantId"":""FC508EC12BF34D6EADBCB2E3EC7575DD"",""assignmentId"":""5e5df77d-f8c5-4afa-9e4b-2995b5e83571"",""projectId"":""e622c465-ee29-4445-8260-1f3431e06587""}","https://test12345.live/?participantId=FC508EC12BF34D6EADBCB2E3EC7575DD&assignmentId=5e5df77d-f8c5-4afa-9e4b-2995b5e83571&projectId=e622c465-ee29-4445-8260-1f3431e06587","","972","
    <div style=""display: flex; justify-content: center; align-items: center;"">
      <img src=""images/blue_deck_1.png"" style=""width: 300px; height: 300px; margin-right: 10px;"" />
      <img src=""images/red_deck_2.png"" style=""width: 300px; height: 300px;"" />
    </div>","1","1",""
"","","","","","html-keyboard-response","76","362614","0.0-57.0-0.0","FC508EC12BF34D6EADBCB2E3EC7575DD","FC508EC12BF34D6EADBCB2E3EC7575DD","5e5df77d-f8c5-4afa-9e4b-2995b5e83571","e622c465-ee29-4445-8260-1f3431e06587","{""participantId"":""FC508EC12BF34D6EADBCB2E3EC7575DD"",""assignmentId"":""5e5df77d-f8c5-4afa-9e4b-2995b5e83571"",""projectId"":""e622c465-ee29-4445-8260-1f3431e06587""}","https://test12345.live/?participantId=FC508EC12BF34D6EADBCB2E3EC7575DD&assignmentId=5e5df77d-f8c5-4afa-9e4b-2995b5e83571&projectId=e622c465-ee29-4445-8260-1f3431e06587","","null","<div style=""display: flex; justify-content: center; align-items: center;"">
                    <img src=""images/semantic/semantic_series_1/semantic_series_1_a.jpg"" style=""width: 300px; height: 300px;"" />
                  </div>","null","",""
"","","","","","html-keyboard-response","77","365620","0.0-57.0-1.0","FC508EC12BF34D6EADBCB2E3EC7575DD","FC508EC12BF34D6EADBCB2E3EC7575DD","5e5df77d-f8c5-4afa-9e4b-2995b5e83571","e622c465-ee29-4445-8260-1f3431e06587","{""participantId"":""FC508EC12BF34D6EADBCB2E3EC7575DD"",""assignmentId"":""5e5df77d-f8c5-4afa-9e4b-2995b5e83571"",""projectId"":""e622c465-ee29-4445-8260-1f3431e06587""}","https://test12345.live/?participantId=FC508EC12BF34D6EADBCB2E3EC7575DD&assignmentId=5e5df77d-f8c5-4afa-9e4b-2995b5e83571&projectId=e622c465-ee29-4445-8260-1f3431e06587","","null","<div style=""display: flex; justify-content: center; align-items: center;"">
                    <img src=""images/semantic/semantic_series_1/semantic_series_1_b.jpg"" style=""width: 300px; height: 300px;"" />
                  </div>","null","",""
"","","","","","html-keyboard-response","78","368634","0.0-57.0-2.0","FC508EC12BF34D6EADBCB2E3EC7575DD","FC508EC12BF34D6EADBCB2E3EC7575DD","5e5df77d-f8c5-4afa-9e4b-2995b5e83571","e622c465-ee29-4445-8260-1f3431e06587","{""participantId"":""FC508EC12BF34D6EADBCB2E3EC7575DD"",""assignmentId"":""5e5df77d-f8c5-4afa-9e4b-2995b5e83571"",""projectId"":""e622c465-ee29-4445-8260-1f3431e06587""}","https://test12345.live/?participantId=FC508EC12BF34D6EADBCB2E3EC7575DD&assignmentId=5e5df77d-f8c5-4afa-9e4b-2995b5e83571&projectId=e622c465-ee29-4445-8260-1f3431e06587","","null","<div style=""display: flex; justify-content: center; align-items: center;"">
                    <img src=""images/semantic/semantic_series_1/semantic_series_1_c.jpg"" style=""width: 300px; height: 300px;"" />
                  </div>","null","",""
"","","","","","html-keyboard-response","79","371641","0.0-57.0-3.0","FC508EC12BF34D6EADBCB2E3EC7575DD","FC508EC12BF34D6EADBCB2E3EC7575DD","5e5df77d-f8c5-4afa-9e4b-2995b5e83571","e622c465-ee29-4445-8260-1f3431e06587","{""participantId"":""FC508EC12BF34D6EADBCB2E3EC7575DD"",""assignmentId"":""5e5df77d-f8c5-4afa-9e4b-2995b5e83571"",""projectId"":""e622c465-ee29-4445-8260-1f3431e06587""}","https://test12345.live/?participantId=FC508EC12BF34D6EADBCB2E3EC7575DD&assignmentId=5e5df77d-f8c5-4afa-9e4b-2995b5e83571&projectId=e622c465-ee29-4445-8260-1f3431e06587","","null","<div style=""display: flex; justify-content: center; align-items: center;"">
                    <img src=""images/semantic/semantic_series_1/semantic_series_1_d.jpg"" style=""width: 300px; height: 300px;"" />
                  </div>","null","",""
"","","","","","html-button-response","80","372635","0.0-58.0","FC508EC12BF34D6EADBCB2E3EC7575DD","FC508EC12BF34D6EADBCB2E3EC7575DD","5e5df77d-f8c5-4afa-9e4b-2995b5e83571","e622c465-ee29-4445-8260-1f3431e06587","{""participantId"":""FC508EC12BF34D6EADBCB2E3EC7575DD"",""assignmentId"":""5e5df77d-f8c5-4afa-9e4b-2995b5e83571"",""projectId"":""e622c465-ee29-4445-8260-1f3431e06587""}","https://test12345.live/?participantId=FC508EC12BF34D6EADBCB2E3EC7575DD&assignmentId=5e5df77d-f8c5-4afa-9e4b-2995b5e83571&projectId=e622c465-ee29-4445-8260-1f3431e06587","","994","Was there a person in the picture?","0","",""
"","","","","","survey-likert","81","374223","0.0-59.0","FC508EC12BF34D6EADBCB2E3EC7575DD","FC508EC12BF34D6EADBCB2E3EC7575DD","5e5df77d-f8c5-4afa-9e4b-2995b5e83571","e622c465-ee29-4445-8260-1f3431e06587","{""participantId"":""FC508EC12BF34D6EADBCB2E3EC7575DD"",""assignmentId"":""5e5df77d-f8c5-4afa-9e4b-2995b5e83571"",""projectId"":""e622c465-ee29-4445-8260-1f3431e06587""}","https://test12345.live/?participantId=FC508EC12BF34D6EADBCB2E3EC7575DD&assignmentId=5e5df77d-f8c5-4afa-9e4b-2995b5e83571&projectId=e622c465-ee29-4445-8260-1f3431e06587","","1588","","{""Q0"":3}","","[0]"
"","","","","","html-button-response","82","375084","0.0-60.0","FC508EC12BF34D6EADBCB2E3EC7575DD","FC508EC12BF34D6EADBCB2E3EC7575DD","5e5df77d-f8c5-4afa-9e4b-2995b5e83571","e622c465-ee29-4445-8260-1f3431e06587","{""participantId"":""FC508EC12BF34D6EADBCB2E3EC7575DD"",""assignmentId"":""5e5df77d-f8c5-4afa-9e4b-2995b5e83571"",""projectId"":""e622c465-ee29-4445-8260-1f3431e06587""}","https://test12345.live/?participantId=FC508EC12BF34D6EADBCB2E3EC7575DD&assignmentId=5e5df77d-f8c5-4afa-9e4b-2995b5e83571&projectId=e622c465-ee29-4445-8260-1f3431e06587","","860","
    <div style=""display: flex; justify-content: center; align-items: center;"">
      <img src=""images/blue_deck_1.png"" style=""width: 300px; height: 300px; margin-right: 10px;"" />
      <img src=""images/red_deck_2.png"" style=""width: 300px; height: 300px;"" />
    </div>","1","1",""
"","","","","","html-keyboard-response","83","378099","0.0-62.0-0.0","FC508EC12BF34D6EADBCB2E3EC7575DD","FC508EC12BF34D6EADBCB2E3EC7575DD","5e5df77d-f8c5-4afa-9e4b-2995b5e83571","e622c465-ee29-4445-8260-1f3431e06587","{""participantId"":""FC508EC12BF34D6EADBCB2E3EC7575DD"",""assignmentId"":""5e5df77d-f8c5-4afa-9e4b-2995b5e83571"",""projectId"":""e622c465-ee29-4445-8260-1f3431e06587""}","https://test12345.live/?participantId=FC508EC12BF34D6EADBCB2E3EC7575DD&assignmentId=5e5df77d-f8c5-4afa-9e4b-2995b5e83571&projectId=e622c465-ee29-4445-8260-1f3431e06587","","null","<div style=""display: flex; justify-content: center; align-items: center;"">
                    <img src=""images/semantic/semantic_series_4/semantic_series_4_a.jpg"" style=""width: 300px; height: 300px;"" />
                  </div>","null","",""
"","","","","","html-keyboard-response","84","381100","0.0-62.0-1.0","FC508EC12BF34D6EADBCB2E3EC7575DD","FC508EC12BF34D6EADBCB2E3EC7575DD","5e5df77d-f8c5-4afa-9e4b-2995b5e83571","e622c465-ee29-4445-8260-1f3431e06587","{""participantId"":""FC508EC12BF34D6EADBCB2E3EC7575DD"",""assignmentId"":""5e5df77d-f8c5-4afa-9e4b-2995b5e83571"",""projectId"":""e622c465-ee29-4445-8260-1f3431e06587""}","https://test12345.live/?participantId=FC508EC12BF34D6EADBCB2E3EC7575DD&assignmentId=5e5df77d-f8c5-4afa-9e4b-2995b5e83571&projectId=e622c465-ee29-4445-8260-1f3431e06587","","null","<div style=""display: flex; justify-content: center; align-items: center;"">
                    <img src=""images/semantic/semantic_series_4/semantic_series_4_b.jpg"" style=""width: 300px; height: 300px;"" />
                  </div>","null","",""
"","","","","","html-keyboard-response","85","384104","0.0-62.0-2.0","FC508EC12BF34D6EADBCB2E3EC7575DD","FC508EC12BF34D6EADBCB2E3EC7575DD","5e5df77d-f8c5-4afa-9e4b-2995b5e83571","e622c465-ee29-4445-8260-1f3431e06587","{""participantId"":""FC508EC12BF34D6EADBCB2E3EC7575DD"",""assignmentId"":""5e5df77d-f8c5-4afa-9e4b-2995b5e83571"",""projectId"":""e622c465-ee29-4445-8260-1f3431e06587""}","https://test12345.live/?participantId=FC508EC12BF34D6EADBCB2E3EC7575DD&assignmentId=5e5df77d-f8c5-4afa-9e4b-2995b5e83571&projectId=e622c465-ee29-4445-8260-1f3431e06587","","null","<div style=""display: flex; justify-content: center; align-items: center;"">
                    <img src=""images/semantic/semantic_series_4/semantic_series_4_c.jpg"" style=""width: 300px; height: 300px;"" />
                  </div>","null","",""
"","","","","","html-keyboard-response","86","387108","0.0-62.0-3.0","FC508EC12BF34D6EADBCB2E3EC7575DD","FC508EC12BF34D6EADBCB2E3EC7575DD","5e5df77d-f8c5-4afa-9e4b-2995b5e83571","e622c465-ee29-4445-8260-1f3431e06587","{""participantId"":""FC508EC12BF34D6EADBCB2E3EC7575DD"",""assignmentId"":""5e5df77d-f8c5-4afa-9e4b-2995b5e83571"",""projectId"":""e622c465-ee29-4445-8260-1f3431e06587""}","https://test12345.live/?participantId=FC508EC12BF34D6EADBCB2E3EC7575DD&assignmentId=5e5df77d-f8c5-4afa-9e4b-2995b5e83571&projectId=e622c465-ee29-4445-8260-1f3431e06587","","null","<div style=""display: flex; justify-content: center; align-items: center;"">
                    <img src=""images/semantic/semantic_series_4/semantic_series_4_d.jpg"" style=""width: 300px; height: 300px;"" />
                  </div>","null","",""
"","","","","","html-button-response","87","388422","0.0-63.0","FC508EC12BF34D6EADBCB2E3EC7575DD","FC508EC12BF34D6EADBCB2E3EC7575DD","5e5df77d-f8c5-4afa-9e4b-2995b5e83571","e622c465-ee29-4445-8260-1f3431e06587","{""participantId"":""FC508EC12BF34D6EADBCB2E3EC7575DD"",""assignmentId"":""5e5df77d-f8c5-4afa-9e4b-2995b5e83571"",""projectId"":""e622c465-ee29-4445-8260-1f3431e06587""}","https://test12345.live/?participantId=FC508EC12BF34D6EADBCB2E3EC7575DD&assignmentId=5e5df77d-f8c5-4afa-9e4b-2995b5e83571&projectId=e622c465-ee29-4445-8260-1f3431e06587","","1313","Was there a person in the picture?","1","",""
"","","","","","survey-likert","88","390126","0.0-64.0","FC508EC12BF34D6EADBCB2E3EC7575DD","FC508EC12BF34D6EADBCB2E3EC7575DD","5e5df77d-f8c5-4afa-9e4b-2995b5e83571","e622c465-ee29-4445-8260-1f3431e06587","{""participantId"":""FC508EC12BF34D6EADBCB2E3EC7575DD"",""assignmentId"":""5e5df77d-f8c5-4afa-9e4b-2995b5e83571"",""projectId"":""e622c465-ee29-4445-8260-1f3431e06587""}","https://test12345.live/?participantId=FC508EC12BF34D6EADBCB2E3EC7575DD&assignmentId=5e5df77d-f8c5-4afa-9e4b-2995b5e83571&projectId=e622c465-ee29-4445-8260-1f3431e06587","","1704","","{""Q0"":3}","","[0]"
"","","","","","html-button-response","89","391176","0.0-65.0","FC508EC12BF34D6EADBCB2E3EC7575DD","FC508EC12BF34D6EADBCB2E3EC7575DD","5e5df77d-f8c5-4afa-9e4b-2995b5e83571","e622c465-ee29-4445-8260-1f3431e06587","{""participantId"":""FC508EC12BF34D6EADBCB2E3EC7575DD"",""assignmentId"":""5e5df77d-f8c5-4afa-9e4b-2995b5e83571"",""projectId"":""e622c465-ee29-4445-8260-1f3431e06587""}","https://test12345.live/?participantId=FC508EC12BF34D6EADBCB2E3EC7575DD&assignmentId=5e5df77d-f8c5-4afa-9e4b-2995b5e83571&projectId=e622c465-ee29-4445-8260-1f3431e06587","","1049","
    <div style=""display: flex; justify-content: center; align-items: center;"">
      <img src=""images/blue_deck_1.png"" style=""width: 300px; height: 300px; margin-right: 10px;"" />
      <img src=""images/red_deck_2.png"" style=""width: 300px; height: 300px;"" />
    </div>","1","1",""
"","","","","","html-keyboard-response","90","394182","0.0-67.0-0.0","FC508EC12BF34D6EADBCB2E3EC7575DD","FC508EC12BF34D6EADBCB2E3EC7575DD","5e5df77d-f8c5-4afa-9e4b-2995b5e83571","e622c465-ee29-4445-8260-1f3431e06587","{""participantId"":""FC508EC12BF34D6EADBCB2E3EC7575DD"",""assignmentId"":""5e5df77d-f8c5-4afa-9e4b-2995b5e83571"",""projectId"":""e622c465-ee29-4445-8260-1f3431e06587""}","https://test12345.live/?participantId=FC508EC12BF34D6EADBCB2E3EC7575DD&assignmentId=5e5df77d-f8c5-4afa-9e4b-2995b5e83571&projectId=e622c465-ee29-4445-8260-1f3431e06587","","null","<div style=""display: flex; justify-content: center; align-items: center;"">
                    <img src=""images/semantic/semantic_series_15/semantic_series_15_a.jpg"" style=""width: 300px; height: 300px;"" />
                  </div>","null","",""
"","","","","","html-keyboard-response","91","397192","0.0-67.0-1.0","FC508EC12BF34D6EADBCB2E3EC7575DD","FC508EC12BF34D6EADBCB2E3EC7575DD","5e5df77d-f8c5-4afa-9e4b-2995b5e83571","e622c465-ee29-4445-8260-1f3431e06587","{""participantId"":""FC508EC12BF34D6EADBCB2E3EC7575DD"",""assignmentId"":""5e5df77d-f8c5-4afa-9e4b-2995b5e83571"",""projectId"":""e622c465-ee29-4445-8260-1f3431e06587""}","https://test12345.live/?participantId=FC508EC12BF34D6EADBCB2E3EC7575DD&assignmentId=5e5df77d-f8c5-4afa-9e4b-2995b5e83571&projectId=e622c465-ee29-4445-8260-1f3431e06587","","null","<div style=""display: flex; justify-content: center; align-items: center;"">
                    <img src=""images/semantic/semantic_series_15/semantic_series_15_b.jpg"" style=""width: 300px; height: 300px;"" />
                  </div>","null","",""
"","","","","","html-keyboard-response","92","400206","0.0-67.0-2.0","FC508EC12BF34D6EADBCB2E3EC7575DD","FC508EC12BF34D6EADBCB2E3EC7575DD","5e5df77d-f8c5-4afa-9e4b-2995b5e83571","e622c465-ee29-4445-8260-1f3431e06587","{""participantId"":""FC508EC12BF34D6EADBCB2E3EC7575DD"",""assignmentId"":""5e5df77d-f8c5-4afa-9e4b-2995b5e83571"",""projectId"":""e622c465-ee29-4445-8260-1f3431e06587""}","https://test12345.live/?participantId=FC508EC12BF34D6EADBCB2E3EC7575DD&assignmentId=5e5df77d-f8c5-4afa-9e4b-2995b5e83571&projectId=e622c465-ee29-4445-8260-1f3431e06587","","null","<div style=""display: flex; justify-content: center; align-items: center;"">
                    <img src=""images/semantic/semantic_series_15/semantic_series_15_c.jpg"" style=""width: 300px; height: 300px;"" />
                  </div>","null","",""
"","","","","","html-keyboard-response","93","403210","0.0-67.0-3.0","FC508EC12BF34D6EADBCB2E3EC7575DD","FC508EC12BF34D6EADBCB2E3EC7575DD","5e5df77d-f8c5-4afa-9e4b-2995b5e83571","e622c465-ee29-4445-8260-1f3431e06587","{""participantId"":""FC508EC12BF34D6EADBCB2E3EC7575DD"",""assignmentId"":""5e5df77d-f8c5-4afa-9e4b-2995b5e83571"",""projectId"":""e622c465-ee29-4445-8260-1f3431e06587""}","https://test12345.live/?participantId=FC508EC12BF34D6EADBCB2E3EC7575DD&assignmentId=5e5df77d-f8c5-4afa-9e4b-2995b5e83571&projectId=e622c465-ee29-4445-8260-1f3431e06587","","null","<div style=""display: flex; justify-content: center; align-items: center;"">
                    <img src=""images/semantic/semantic_series_15/semantic_series_15_d.jpg"" style=""width: 300px; height: 300px;"" />
                  </div>","null","",""
"","","","","","html-button-response","94","405596","0.0-68.0","FC508EC12BF34D6EADBCB2E3EC7575DD","FC508EC12BF34D6EADBCB2E3EC7575DD","5e5df77d-f8c5-4afa-9e4b-2995b5e83571","e622c465-ee29-4445-8260-1f3431e06587","{""participantId"":""FC508EC12BF34D6EADBCB2E3EC7575DD"",""assignmentId"":""5e5df77d-f8c5-4afa-9e4b-2995b5e83571"",""projectId"":""e622c465-ee29-4445-8260-1f3431e06587""}","https://test12345.live/?participantId=FC508EC12BF34D6EADBCB2E3EC7575DD&assignmentId=5e5df77d-f8c5-4afa-9e4b-2995b5e83571&projectId=e622c465-ee29-4445-8260-1f3431e06587","","2386","Was there a person in the picture?","1","",""
"","","","","","survey-likert","95","408330","0.0-69.0","FC508EC12BF34D6EADBCB2E3EC7575DD","FC508EC12BF34D6EADBCB2E3EC7575DD","5e5df77d-f8c5-4afa-9e4b-2995b5e83571","e622c465-ee29-4445-8260-1f3431e06587","{""participantId"":""FC508EC12BF34D6EADBCB2E3EC7575DD"",""assignmentId"":""5e5df77d-f8c5-4afa-9e4b-2995b5e83571"",""projectId"":""e622c465-ee29-4445-8260-1f3431e06587""}","https://test12345.live/?participantId=FC508EC12BF34D6EADBCB2E3EC7575DD&assignmentId=5e5df77d-f8c5-4afa-9e4b-2995b5e83571&projectId=e622c465-ee29-4445-8260-1f3431e06587","","2734","","{""Q0"":4}","","[0]"
"","","","","","html-button-response","96","418345","0.0-70.0","FC508EC12BF34D6EADBCB2E3EC7575DD","FC508EC12BF34D6EADBCB2E3EC7575DD","5e5df77d-f8c5-4afa-9e4b-2995b5e83571","e622c465-ee29-4445-8260-1f3431e06587","{""participantId"":""FC508EC12BF34D6EADBCB2E3EC7575DD"",""assignmentId"":""5e5df77d-f8c5-4afa-9e4b-2995b5e83571"",""projectId"":""e622c465-ee29-4445-8260-1f3431e06587""}","https://test12345.live/?participantId=FC508EC12BF34D6EADBCB2E3EC7575DD&assignmentId=5e5df77d-f8c5-4afa-9e4b-2995b5e83571&projectId=e622c465-ee29-4445-8260-1f3431e06587","","10014","
    <div style=""display: flex; justify-content: center; align-items: center;"">
      <img src=""images/blue_deck_1.png"" style=""width: 300px; height: 300px; margin-right: 10px;"" />
      <img src=""images/red_deck_2.png"" style=""width: 300px; height: 300px;"" />
    </div>","1","1",""
"","","","","","html-keyboard-response","97","421357","0.0-72.0-0.0","FC508EC12BF34D6EADBCB2E3EC7575DD","FC508EC12BF34D6EADBCB2E3EC7575DD","5e5df77d-f8c5-4afa-9e4b-2995b5e83571","e622c465-ee29-4445-8260-1f3431e06587","{""participantId"":""FC508EC12BF34D6EADBCB2E3EC7575DD"",""assignmentId"":""5e5df77d-f8c5-4afa-9e4b-2995b5e83571"",""projectId"":""e622c465-ee29-4445-8260-1f3431e06587""}","https://test12345.live/?participantId=FC508EC12BF34D6EADBCB2E3EC7575DD&assignmentId=5e5df77d-f8c5-4afa-9e4b-2995b5e83571&projectId=e622c465-ee29-4445-8260-1f3431e06587","","null","<div style=""display: flex; justify-content: center; align-items: center;"">
                    <img src=""images/semantic/semantic_series_14/semantic_series_14_a.jpg"" style=""width: 300px; height: 300px;"" />
                  </div>","null","",""
"","","","","","html-keyboard-response","98","424371","0.0-72.0-1.0","FC508EC12BF34D6EADBCB2E3EC7575DD","FC508EC12BF34D6EADBCB2E3EC7575DD","5e5df77d-f8c5-4afa-9e4b-2995b5e83571","e622c465-ee29-4445-8260-1f3431e06587","{""participantId"":""FC508EC12BF34D6EADBCB2E3EC7575DD"",""assignmentId"":""5e5df77d-f8c5-4afa-9e4b-2995b5e83571"",""projectId"":""e622c465-ee29-4445-8260-1f3431e06587""}","https://test12345.live/?participantId=FC508EC12BF34D6EADBCB2E3EC7575DD&assignmentId=5e5df77d-f8c5-4afa-9e4b-2995b5e83571&projectId=e622c465-ee29-4445-8260-1f3431e06587","","null","<div style=""display: flex; justify-content: center; align-items: center;"">
                    <img src=""images/semantic/semantic_series_14/semantic_series_14_b.jpg"" style=""width: 300px; height: 300px;"" />
                  </div>","null","",""
"","","","","","html-keyboard-response","99","427384","0.0-72.0-2.0","FC508EC12BF34D6EADBCB2E3EC7575DD","FC508EC12BF34D6EADBCB2E3EC7575DD","5e5df77d-f8c5-4afa-9e4b-2995b5e83571","e622c465-ee29-4445-8260-1f3431e06587","{""participantId"":""FC508EC12BF34D6EADBCB2E3EC7575DD"",""assignmentId"":""5e5df77d-f8c5-4afa-9e4b-2995b5e83571"",""projectId"":""e622c465-ee29-4445-8260-1f3431e06587""}","https://test12345.live/?participantId=FC508EC12BF34D6EADBCB2E3EC7575DD&assignmentId=5e5df77d-f8c5-4afa-9e4b-2995b5e83571&projectId=e622c465-ee29-4445-8260-1f3431e06587","","null","<div style=""display: flex; justify-content: center; align-items: center;"">
                    <img src=""images/semantic/semantic_series_14/semantic_series_14_c.jpg"" style=""width: 300px; height: 300px;"" />
                  </div>","null","",""
"","","","","","html-keyboard-response","100","430396","0.0-72.0-3.0","FC508EC12BF34D6EADBCB2E3EC7575DD","FC508EC12BF34D6EADBCB2E3EC7575DD","5e5df77d-f8c5-4afa-9e4b-2995b5e83571","e622c465-ee29-4445-8260-1f3431e06587","{""participantId"":""FC508EC12BF34D6EADBCB2E3EC7575DD"",""assignmentId"":""5e5df77d-f8c5-4afa-9e4b-2995b5e83571"",""projectId"":""e622c465-ee29-4445-8260-1f3431e06587""}","https://test12345.live/?participantId=FC508EC12BF34D6EADBCB2E3EC7575DD&assignmentId=5e5df77d-f8c5-4afa-9e4b-2995b5e83571&projectId=e622c465-ee29-4445-8260-1f3431e06587","","null","<div style=""display: flex; justify-content: center; align-items: center;"">
                    <img src=""images/semantic/semantic_series_14/semantic_series_14_d.jpg"" style=""width: 300px; height: 300px;"" />
                  </div>","null","",""
"","","","","","html-button-response","101","432567","0.0-73.0","FC508EC12BF34D6EADBCB2E3EC7575DD","FC508EC12BF34D6EADBCB2E3EC7575DD","5e5df77d-f8c5-4afa-9e4b-2995b5e83571","e622c465-ee29-4445-8260-1f3431e06587","{""participantId"":""FC508EC12BF34D6EADBCB2E3EC7575DD"",""assignmentId"":""5e5df77d-f8c5-4afa-9e4b-2995b5e83571"",""projectId"":""e622c465-ee29-4445-8260-1f3431e06587""}","https://test12345.live/?participantId=FC508EC12BF34D6EADBCB2E3EC7575DD&assignmentId=5e5df77d-f8c5-4afa-9e4b-2995b5e83571&projectId=e622c465-ee29-4445-8260-1f3431e06587","","2171","Was there a person in the picture?","0","",""
"","","","","","survey-likert","102","435206","0.0-74.0","FC508EC12BF34D6EADBCB2E3EC7575DD","FC508EC12BF34D6EADBCB2E3EC7575DD","5e5df77d-f8c5-4afa-9e4b-2995b5e83571","e622c465-ee29-4445-8260-1f3431e06587","{""participantId"":""FC508EC12BF34D6EADBCB2E3EC7575DD"",""assignmentId"":""5e5df77d-f8c5-4afa-9e4b-2995b5e83571"",""projectId"":""e622c465-ee29-4445-8260-1f3431e06587""}","https://test12345.live/?participantId=FC508EC12BF34D6EADBCB2E3EC7575DD&assignmentId=5e5df77d-f8c5-4afa-9e4b-2995b5e83571&projectId=e622c465-ee29-4445-8260-1f3431e06587","","2638","","{""Q0"":4}","","[0]"
"","","","","","html-button-response","103","436354","0.0-75.0","FC508EC12BF34D6EADBCB2E3EC7575DD","FC508EC12BF34D6EADBCB2E3EC7575DD","5e5df77d-f8c5-4afa-9e4b-2995b5e83571","e622c465-ee29-4445-8260-1f3431e06587","{""participantId"":""FC508EC12BF34D6EADBCB2E3EC7575DD"",""assignmentId"":""5e5df77d-f8c5-4afa-9e4b-2995b5e83571"",""projectId"":""e622c465-ee29-4445-8260-1f3431e06587""}","https://test12345.live/?participantId=FC508EC12BF34D6EADBCB2E3EC7575DD&assignmentId=5e5df77d-f8c5-4afa-9e4b-2995b5e83571&projectId=e622c465-ee29-4445-8260-1f3431e06587","","1146","
    <div style=""display: flex; justify-content: center; align-items: center;"">
      <img src=""images/blue_deck_1.png"" style=""width: 300px; height: 300px; margin-right: 10px;"" />
      <img src=""images/red_deck_2.png"" style=""width: 300px; height: 300px;"" />
    </div>","1","1",""
"","","","","","html-keyboard-response","104","439358","0.0-77.0-0.0","FC508EC12BF34D6EADBCB2E3EC7575DD","FC508EC12BF34D6EADBCB2E3EC7575DD","5e5df77d-f8c5-4afa-9e4b-2995b5e83571","e622c465-ee29-4445-8260-1f3431e06587","{""participantId"":""FC508EC12BF34D6EADBCB2E3EC7575DD"",""assignmentId"":""5e5df77d-f8c5-4afa-9e4b-2995b5e83571"",""projectId"":""e622c465-ee29-4445-8260-1f3431e06587""}","https://test12345.live/?participantId=FC508EC12BF34D6EADBCB2E3EC7575DD&assignmentId=5e5df77d-f8c5-4afa-9e4b-2995b5e83571&projectId=e622c465-ee29-4445-8260-1f3431e06587","","null","<div style=""display: flex; justify-content: center; align-items: center;"">
                    <img src=""images/semantic/semantic_series_6/semantic_series_6_a.jpg"" style=""width: 300px; height: 300px;"" />
                  </div>","null","",""
"","","","","","html-keyboard-response","105","442370","0.0-77.0-1.0","FC508EC12BF34D6EADBCB2E3EC7575DD","FC508EC12BF34D6EADBCB2E3EC7575DD","5e5df77d-f8c5-4afa-9e4b-2995b5e83571","e622c465-ee29-4445-8260-1f3431e06587","{""participantId"":""FC508EC12BF34D6EADBCB2E3EC7575DD"",""assignmentId"":""5e5df77d-f8c5-4afa-9e4b-2995b5e83571"",""projectId"":""e622c465-ee29-4445-8260-1f3431e06587""}","https://test12345.live/?participantId=FC508EC12BF34D6EADBCB2E3EC7575DD&assignmentId=5e5df77d-f8c5-4afa-9e4b-2995b5e83571&projectId=e622c465-ee29-4445-8260-1f3431e06587","","null","<div style=""display: flex; justify-content: center; align-items: center;"">
                    <img src=""images/semantic/semantic_series_6/semantic_series_6_b.jpg"" style=""width: 300px; height: 300px;"" />
                  </div>","null","",""
"","","","","","html-keyboard-response","106","445384","0.0-77.0-2.0","FC508EC12BF34D6EADBCB2E3EC7575DD","FC508EC12BF34D6EADBCB2E3EC7575DD","5e5df77d-f8c5-4afa-9e4b-2995b5e83571","e622c465-ee29-4445-8260-1f3431e06587","{""participantId"":""FC508EC12BF34D6EADBCB2E3EC7575DD"",""assignmentId"":""5e5df77d-f8c5-4afa-9e4b-2995b5e83571"",""projectId"":""e622c465-ee29-4445-8260-1f3431e06587""}","https://test12345.live/?participantId=FC508EC12BF34D6EADBCB2E3EC7575DD&assignmentId=5e5df77d-f8c5-4afa-9e4b-2995b5e83571&projectId=e622c465-ee29-4445-8260-1f3431e06587","","null","<div style=""display: flex; justify-content: center; align-items: center;"">
                    <img src=""images/semantic/semantic_series_6/semantic_series_6_c.jpg"" style=""width: 300px; height: 300px;"" />
                  </div>","null","",""
"","","","","","html-keyboard-response","107","448399","0.0-77.0-3.0","FC508EC12BF34D6EADBCB2E3EC7575DD","FC508EC12BF34D6EADBCB2E3EC7575DD","5e5df77d-f8c5-4afa-9e4b-2995b5e83571","e622c465-ee29-4445-8260-1f3431e06587","{""participantId"":""FC508EC12BF34D6EADBCB2E3EC7575DD"",""assignmentId"":""5e5df77d-f8c5-4afa-9e4b-2995b5e83571"",""projectId"":""e622c465-ee29-4445-8260-1f3431e06587""}","https://test12345.live/?participantId=FC508EC12BF34D6EADBCB2E3EC7575DD&assignmentId=5e5df77d-f8c5-4afa-9e4b-2995b5e83571&projectId=e622c465-ee29-4445-8260-1f3431e06587","","null","<div style=""display: flex; justify-content: center; align-items: center;"">
                    <img src=""images/semantic/semantic_series_6/semantic_series_6_d.jpg"" style=""width: 300px; height: 300px;"" />
                  </div>","null","",""
"","","","","","html-button-response","108","450241","0.0-78.0","FC508EC12BF34D6EADBCB2E3EC7575DD","FC508EC12BF34D6EADBCB2E3EC7575DD","5e5df77d-f8c5-4afa-9e4b-2995b5e83571","e622c465-ee29-4445-8260-1f3431e06587","{""participantId"":""FC508EC12BF34D6EADBCB2E3EC7575DD"",""assignmentId"":""5e5df77d-f8c5-4afa-9e4b-2995b5e83571"",""projectId"":""e622c465-ee29-4445-8260-1f3431e06587""}","https://test12345.live/?participantId=FC508EC12BF34D6EADBCB2E3EC7575DD&assignmentId=5e5df77d-f8c5-4afa-9e4b-2995b5e83571&projectId=e622c465-ee29-4445-8260-1f3431e06587","","1842","Was there a person in the picture?","1","",""
"","","","","","survey-likert","109","454912","0.0-79.0","FC508EC12BF34D6EADBCB2E3EC7575DD","FC508EC12BF34D6EADBCB2E3EC7575DD","5e5df77d-f8c5-4afa-9e4b-2995b5e83571","e622c465-ee29-4445-8260-1f3431e06587","{""participantId"":""FC508EC12BF34D6EADBCB2E3EC7575DD"",""assignmentId"":""5e5df77d-f8c5-4afa-9e4b-2995b5e83571"",""projectId"":""e622c465-ee29-4445-8260-1f3431e06587""}","https://test12345.live/?participantId=FC508EC12BF34D6EADBCB2E3EC7575DD&assignmentId=5e5df77d-f8c5-4afa-9e4b-2995b5e83571&projectId=e622c465-ee29-4445-8260-1f3431e06587","","4670","","{""Q0"":2}","","[0]"
"","","","","","html-button-response","110","455819","0.0-80.0","FC508EC12BF34D6EADBCB2E3EC7575DD","FC508EC12BF34D6EADBCB2E3EC7575DD","5e5df77d-f8c5-4afa-9e4b-2995b5e83571","e622c465-ee29-4445-8260-1f3431e06587","{""participantId"":""FC508EC12BF34D6EADBCB2E3EC7575DD"",""assignmentId"":""5e5df77d-f8c5-4afa-9e4b-2995b5e83571"",""projectId"":""e622c465-ee29-4445-8260-1f3431e06587""}","https://test12345.live/?participantId=FC508EC12BF34D6EADBCB2E3EC7575DD&assignmentId=5e5df77d-f8c5-4afa-9e4b-2995b5e83571&projectId=e622c465-ee29-4445-8260-1f3431e06587","","906","
    <div style=""display: flex; justify-content: center; align-items: center;"">
      <img src=""images/blue_deck_1.png"" style=""width: 300px; height: 300px; margin-right: 10px;"" />
      <img src=""images/red_deck_2.png"" style=""width: 300px; height: 300px;"" />
    </div>","1","1",""
"","","","","","html-keyboard-response","111","458829","0.0-82.0-0.0","FC508EC12BF34D6EADBCB2E3EC7575DD","FC508EC12BF34D6EADBCB2E3EC7575DD","5e5df77d-f8c5-4afa-9e4b-2995b5e83571","e622c465-ee29-4445-8260-1f3431e06587","{""participantId"":""FC508EC12BF34D6EADBCB2E3EC7575DD"",""assignmentId"":""5e5df77d-f8c5-4afa-9e4b-2995b5e83571"",""projectId"":""e622c465-ee29-4445-8260-1f3431e06587""}","https://test12345.live/?participantId=FC508EC12BF34D6EADBCB2E3EC7575DD&assignmentId=5e5df77d-f8c5-4afa-9e4b-2995b5e83571&projectId=e622c465-ee29-4445-8260-1f3431e06587","","null","<div style=""display: flex; justify-content: center; align-items: center;"">
                    <img src=""images/semantic/semantic_series_2/semantic_series_2_a.jpg"" style=""width: 300px; height: 300px;"" />
                  </div>","null","",""
"","","","","","html-keyboard-response","112","461845","0.0-82.0-1.0","FC508EC12BF34D6EADBCB2E3EC7575DD","FC508EC12BF34D6EADBCB2E3EC7575DD","5e5df77d-f8c5-4afa-9e4b-2995b5e83571","e622c465-ee29-4445-8260-1f3431e06587","{""participantId"":""FC508EC12BF34D6EADBCB2E3EC7575DD"",""assignmentId"":""5e5df77d-f8c5-4afa-9e4b-2995b5e83571"",""projectId"":""e622c465-ee29-4445-8260-1f3431e06587""}","https://test12345.live/?participantId=FC508EC12BF34D6EADBCB2E3EC7575DD&assignmentId=5e5df77d-f8c5-4afa-9e4b-2995b5e83571&projectId=e622c465-ee29-4445-8260-1f3431e06587","","null","<div style=""display: flex; justify-content: center; align-items: center;"">
                    <img src=""images/semantic/semantic_series_2/semantic_series_2_b.jpg"" style=""width: 300px; height: 300px;"" />
                  </div>","null","",""
"","","","","","html-keyboard-response","113","464856","0.0-82.0-2.0","FC508EC12BF34D6EADBCB2E3EC7575DD","FC508EC12BF34D6EADBCB2E3EC7575DD","5e5df77d-f8c5-4afa-9e4b-2995b5e83571","e622c465-ee29-4445-8260-1f3431e06587","{""participantId"":""FC508EC12BF34D6EADBCB2E3EC7575DD"",""assignmentId"":""5e5df77d-f8c5-4afa-9e4b-2995b5e83571"",""projectId"":""e622c465-ee29-4445-8260-1f3431e06587""}","https://test12345.live/?participantId=FC508EC12BF34D6EADBCB2E3EC7575DD&assignmentId=5e5df77d-f8c5-4afa-9e4b-2995b5e83571&projectId=e622c465-ee29-4445-8260-1f3431e06587","","null","<div style=""display: flex; justify-content: center; align-items: center;"">
                    <img src=""images/semantic/semantic_series_2/semantic_series_2_c.jpg"" style=""width: 300px; height: 300px;"" />
                  </div>","null","",""
"","","","","","html-keyboard-response","114","467858","0.0-82.0-3.0","FC508EC12BF34D6EADBCB2E3EC7575DD","FC508EC12BF34D6EADBCB2E3EC7575DD","5e5df77d-f8c5-4afa-9e4b-2995b5e83571","e622c465-ee29-4445-8260-1f3431e06587","{""participantId"":""FC508EC12BF34D6EADBCB2E3EC7575DD"",""assignmentId"":""5e5df77d-f8c5-4afa-9e4b-2995b5e83571"",""projectId"":""e622c465-ee29-4445-8260-1f3431e06587""}","https://test12345.live/?participantId=FC508EC12BF34D6EADBCB2E3EC7575DD&assignmentId=5e5df77d-f8c5-4afa-9e4b-2995b5e83571&projectId=e622c465-ee29-4445-8260-1f3431e06587","","null","<div style=""display: flex; justify-content: center; align-items: center;"">
                    <img src=""images/semantic/semantic_series_2/semantic_series_2_d.jpg"" style=""width: 300px; height: 300px;"" />
                  </div>","null","",""
"","","","","","html-button-response","115","468696","0.0-83.0","FC508EC12BF34D6EADBCB2E3EC7575DD","FC508EC12BF34D6EADBCB2E3EC7575DD","5e5df77d-f8c5-4afa-9e4b-2995b5e83571","e622c465-ee29-4445-8260-1f3431e06587","{""participantId"":""FC508EC12BF34D6EADBCB2E3EC7575DD"",""assignmentId"":""5e5df77d-f8c5-4afa-9e4b-2995b5e83571"",""projectId"":""e622c465-ee29-4445-8260-1f3431e06587""}","https://test12345.live/?participantId=FC508EC12BF34D6EADBCB2E3EC7575DD&assignmentId=5e5df77d-f8c5-4afa-9e4b-2995b5e83571&projectId=e622c465-ee29-4445-8260-1f3431e06587","","838","Was there a person in the picture?","0","",""
"","","","","","survey-likert","116","471486","0.0-84.0","FC508EC12BF34D6EADBCB2E3EC7575DD","FC508EC12BF34D6EADBCB2E3EC7575DD","5e5df77d-f8c5-4afa-9e4b-2995b5e83571","e622c465-ee29-4445-8260-1f3431e06587","{""participantId"":""FC508EC12BF34D6EADBCB2E3EC7575DD"",""assignmentId"":""5e5df77d-f8c5-4afa-9e4b-2995b5e83571"",""projectId"":""e622c465-ee29-4445-8260-1f3431e06587""}","https://test12345.live/?participantId=FC508EC12BF34D6EADBCB2E3EC7575DD&assignmentId=5e5df77d-f8c5-4afa-9e4b-2995b5e83571&projectId=e622c465-ee29-4445-8260-1f3431e06587","","2789","","{""Q0"":3}","","[0]"
"","","","","","html-button-response","117","472499","0.0-85.0","FC508EC12BF34D6EADBCB2E3EC7575DD","FC508EC12BF34D6EADBCB2E3EC7575DD","5e5df77d-f8c5-4afa-9e4b-2995b5e83571","e622c465-ee29-4445-8260-1f3431e06587","{""participantId"":""FC508EC12BF34D6EADBCB2E3EC7575DD"",""assignmentId"":""5e5df77d-f8c5-4afa-9e4b-2995b5e83571"",""projectId"":""e622c465-ee29-4445-8260-1f3431e06587""}","https://test12345.live/?participantId=FC508EC12BF34D6EADBCB2E3EC7575DD&assignmentId=5e5df77d-f8c5-4afa-9e4b-2995b5e83571&projectId=e622c465-ee29-4445-8260-1f3431e06587","","1012","
    <div style=""display: flex; justify-content: center; align-items: center;"">
      <img src=""images/blue_deck_1.png"" style=""width: 300px; height: 300px; margin-right: 10px;"" />
      <img src=""images/red_deck_2.png"" style=""width: 300px; height: 300px;"" />
    </div>","1","1",""
"","","","","","html-keyboard-response","118","475510","0.0-87.0-0.0","FC508EC12BF34D6EADBCB2E3EC7575DD","FC508EC12BF34D6EADBCB2E3EC7575DD","5e5df77d-f8c5-4afa-9e4b-2995b5e83571","e622c465-ee29-4445-8260-1f3431e06587","{""participantId"":""FC508EC12BF34D6EADBCB2E3EC7575DD"",""assignmentId"":""5e5df77d-f8c5-4afa-9e4b-2995b5e83571"",""projectId"":""e622c465-ee29-4445-8260-1f3431e06587""}","https://test12345.live/?participantId=FC508EC12BF34D6EADBCB2E3EC7575DD&assignmentId=5e5df77d-f8c5-4afa-9e4b-2995b5e83571&projectId=e622c465-ee29-4445-8260-1f3431e06587","","null","<div style=""display: flex; justify-content: center; align-items: center;"">
                    <img src=""images/semantic/semantic_series_12/semantic_series_12_a.jpg"" style=""width: 300px; height: 300px;"" />
                  </div>","null","",""
"","","","","","html-keyboard-response","119","478512","0.0-87.0-1.0","FC508EC12BF34D6EADBCB2E3EC7575DD","FC508EC12BF34D6EADBCB2E3EC7575DD","5e5df77d-f8c5-4afa-9e4b-2995b5e83571","e622c465-ee29-4445-8260-1f3431e06587","{""participantId"":""FC508EC12BF34D6EADBCB2E3EC7575DD"",""assignmentId"":""5e5df77d-f8c5-4afa-9e4b-2995b5e83571"",""projectId"":""e622c465-ee29-4445-8260-1f3431e06587""}","https://test12345.live/?participantId=FC508EC12BF34D6EADBCB2E3EC7575DD&assignmentId=5e5df77d-f8c5-4afa-9e4b-2995b5e83571&projectId=e622c465-ee29-4445-8260-1f3431e06587","","null","<div style=""display: flex; justify-content: center; align-items: center;"">
                    <img src=""images/semantic/semantic_series_12/semantic_series_12_b.jpg"" style=""width: 300px; height: 300px;"" />
                  </div>","null","",""
"","","","","","html-keyboard-response","120","481513","0.0-87.0-2.0","FC508EC12BF34D6EADBCB2E3EC7575DD","FC508EC12BF34D6EADBCB2E3EC7575DD","5e5df77d-f8c5-4afa-9e4b-2995b5e83571","e622c465-ee29-4445-8260-1f3431e06587","{""participantId"":""FC508EC12BF34D6EADBCB2E3EC7575DD"",""assignmentId"":""5e5df77d-f8c5-4afa-9e4b-2995b5e83571"",""projectId"":""e622c465-ee29-4445-8260-1f3431e06587""}","https://test12345.live/?participantId=FC508EC12BF34D6EADBCB2E3EC7575DD&assignmentId=5e5df77d-f8c5-4afa-9e4b-2995b5e83571&projectId=e622c465-ee29-4445-8260-1f3431e06587","","null","<div style=""display: flex; justify-content: center; align-items: center;"">
                    <img src=""images/semantic/semantic_series_12/semantic_series_12_c.jpg"" style=""width: 300px; height: 300px;"" />
                  </div>","null","",""
"","","","","","html-keyboard-response","121","484514","0.0-87.0-3.0","FC508EC12BF34D6EADBCB2E3EC7575DD","FC508EC12BF34D6EADBCB2E3EC7575DD","5e5df77d-f8c5-4afa-9e4b-2995b5e83571","e622c465-ee29-4445-8260-1f3431e06587","{""participantId"":""FC508EC12BF34D6EADBCB2E3EC7575DD"",""assignmentId"":""5e5df77d-f8c5-4afa-9e4b-2995b5e83571"",""projectId"":""e622c465-ee29-4445-8260-1f3431e06587""}","https://test12345.live/?participantId=FC508EC12BF34D6EADBCB2E3EC7575DD&assignmentId=5e5df77d-f8c5-4afa-9e4b-2995b5e83571&projectId=e622c465-ee29-4445-8260-1f3431e06587","","null","<div style=""display: flex; justify-content: center; align-items: center;"">
                    <img src=""images/semantic/semantic_series_12/semantic_series_12_d.jpg"" style=""width: 300px; height: 300px;"" />
                  </div>","null","",""
"","","","","","html-button-response","122","486453","0.0-88.0","FC508EC12BF34D6EADBCB2E3EC7575DD","FC508EC12BF34D6EADBCB2E3EC7575DD","5e5df77d-f8c5-4afa-9e4b-2995b5e83571","e622c465-ee29-4445-8260-1f3431e06587","{""participantId"":""FC508EC12BF34D6EADBCB2E3EC7575DD"",""assignmentId"":""5e5df77d-f8c5-4afa-9e4b-2995b5e83571"",""projectId"":""e622c465-ee29-4445-8260-1f3431e06587""}","https://test12345.live/?participantId=FC508EC12BF34D6EADBCB2E3EC7575DD&assignmentId=5e5df77d-f8c5-4afa-9e4b-2995b5e83571&projectId=e622c465-ee29-4445-8260-1f3431e06587","","1938","Was there a person in the picture?","1","",""
"","","","","","survey-likert","123","490222","0.0-89.0","FC508EC12BF34D6EADBCB2E3EC7575DD","FC508EC12BF34D6EADBCB2E3EC7575DD","5e5df77d-f8c5-4afa-9e4b-2995b5e83571","e622c465-ee29-4445-8260-1f3431e06587","{""participantId"":""FC508EC12BF34D6EADBCB2E3EC7575DD"",""assignmentId"":""5e5df77d-f8c5-4afa-9e4b-2995b5e83571"",""projectId"":""e622c465-ee29-4445-8260-1f3431e06587""}","https://test12345.live/?participantId=FC508EC12BF34D6EADBCB2E3EC7575DD&assignmentId=5e5df77d-f8c5-4afa-9e4b-2995b5e83571&projectId=e622c465-ee29-4445-8260-1f3431e06587","","3769","","{""Q0"":2}","","[0]"
"","","","","","html-button-response","124","491190","0.0-90.0","FC508EC12BF34D6EADBCB2E3EC7575DD","FC508EC12BF34D6EADBCB2E3EC7575DD","5e5df77d-f8c5-4afa-9e4b-2995b5e83571","e622c465-ee29-4445-8260-1f3431e06587","{""participantId"":""FC508EC12BF34D6EADBCB2E3EC7575DD"",""assignmentId"":""5e5df77d-f8c5-4afa-9e4b-2995b5e83571"",""projectId"":""e622c465-ee29-4445-8260-1f3431e06587""}","https://test12345.live/?participantId=FC508EC12BF34D6EADBCB2E3EC7575DD&assignmentId=5e5df77d-f8c5-4afa-9e4b-2995b5e83571&projectId=e622c465-ee29-4445-8260-1f3431e06587","","967","
    <div style=""display: flex; justify-content: center; align-items: center;"">
      <img src=""images/blue_deck_1.png"" style=""width: 300px; height: 300px; margin-right: 10px;"" />
      <img src=""images/red_deck_2.png"" style=""width: 300px; height: 300px;"" />
    </div>","0","0",""
"","","","","","html-keyboard-response","125","494200","0.0-91.0-0.0","FC508EC12BF34D6EADBCB2E3EC7575DD","FC508EC12BF34D6EADBCB2E3EC7575DD","5e5df77d-f8c5-4afa-9e4b-2995b5e83571","e622c465-ee29-4445-8260-1f3431e06587","{""participantId"":""FC508EC12BF34D6EADBCB2E3EC7575DD"",""assignmentId"":""5e5df77d-f8c5-4afa-9e4b-2995b5e83571"",""projectId"":""e622c465-ee29-4445-8260-1f3431e06587""}","https://test12345.live/?participantId=FC508EC12BF34D6EADBCB2E3EC7575DD&assignmentId=5e5df77d-f8c5-4afa-9e4b-2995b5e83571&projectId=e622c465-ee29-4445-8260-1f3431e06587","","null","<div style=""display: flex; justify-content: center; align-items: center;"">
                    <img src=""images/causal/causal_series_12/causal_series_12_a.jpg"" style=""width: 300px; height: 300px;"" />
                  </div>","null","",""
"","","","","","html-keyboard-response","126","497202","0.0-91.0-1.0","FC508EC12BF34D6EADBCB2E3EC7575DD","FC508EC12BF34D6EADBCB2E3EC7575DD","5e5df77d-f8c5-4afa-9e4b-2995b5e83571","e622c465-ee29-4445-8260-1f3431e06587","{""participantId"":""FC508EC12BF34D6EADBCB2E3EC7575DD"",""assignmentId"":""5e5df77d-f8c5-4afa-9e4b-2995b5e83571"",""projectId"":""e622c465-ee29-4445-8260-1f3431e06587""}","https://test12345.live/?participantId=FC508EC12BF34D6EADBCB2E3EC7575DD&assignmentId=5e5df77d-f8c5-4afa-9e4b-2995b5e83571&projectId=e622c465-ee29-4445-8260-1f3431e06587","","null","<div style=""display: flex; justify-content: center; align-items: center;"">
                    <img src=""images/causal/causal_series_12/causal_series_12_b.jpg"" style=""width: 300px; height: 300px;"" />
                  </div>","null","",""
"","","","","","html-keyboard-response","127","500214","0.0-91.0-2.0","FC508EC12BF34D6EADBCB2E3EC7575DD","FC508EC12BF34D6EADBCB2E3EC7575DD","5e5df77d-f8c5-4afa-9e4b-2995b5e83571","e622c465-ee29-4445-8260-1f3431e06587","{""participantId"":""FC508EC12BF34D6EADBCB2E3EC7575DD"",""assignmentId"":""5e5df77d-f8c5-4afa-9e4b-2995b5e83571"",""projectId"":""e622c465-ee29-4445-8260-1f3431e06587""}","https://test12345.live/?participantId=FC508EC12BF34D6EADBCB2E3EC7575DD&assignmentId=5e5df77d-f8c5-4afa-9e4b-2995b5e83571&projectId=e622c465-ee29-4445-8260-1f3431e06587","","null","<div style=""display: flex; justify-content: center; align-items: center;"">
                    <img src=""images/causal/causal_series_12/causal_series_12_c.jpg"" style=""width: 300px; height: 300px;"" />
                  </div>","null","",""
"","","","","","html-keyboard-response","128","503228","0.0-91.0-3.0","FC508EC12BF34D6EADBCB2E3EC7575DD","FC508EC12BF34D6EADBCB2E3EC7575DD","5e5df77d-f8c5-4afa-9e4b-2995b5e83571","e622c465-ee29-4445-8260-1f3431e06587","{""participantId"":""FC508EC12BF34D6EADBCB2E3EC7575DD"",""assignmentId"":""5e5df77d-f8c5-4afa-9e4b-2995b5e83571"",""projectId"":""e622c465-ee29-4445-8260-1f3431e06587""}","https://test12345.live/?participantId=FC508EC12BF34D6EADBCB2E3EC7575DD&assignmentId=5e5df77d-f8c5-4afa-9e4b-2995b5e83571&projectId=e622c465-ee29-4445-8260-1f3431e06587","","null","<div style=""display: flex; justify-content: center; align-items: center;"">
                    <img src=""images/causal/causal_series_12/causal_series_12_d.jpg"" style=""width: 300px; height: 300px;"" />
                  </div>","null","",""
"","","","","","html-button-response","129","520970","0.0-93.0","FC508EC12BF34D6EADBCB2E3EC7575DD","FC508EC12BF34D6EADBCB2E3EC7575DD","5e5df77d-f8c5-4afa-9e4b-2995b5e83571","e622c465-ee29-4445-8260-1f3431e06587","{""participantId"":""FC508EC12BF34D6EADBCB2E3EC7575DD"",""assignmentId"":""5e5df77d-f8c5-4afa-9e4b-2995b5e83571"",""projectId"":""e622c465-ee29-4445-8260-1f3431e06587""}","https://test12345.live/?participantId=FC508EC12BF34D6EADBCB2E3EC7575DD&assignmentId=5e5df77d-f8c5-4afa-9e4b-2995b5e83571&projectId=e622c465-ee29-4445-8260-1f3431e06587","","17741","Was there a person in the picture?","1","",""
"","","","","","survey-likert","130","524066","0.0-94.0","FC508EC12BF34D6EADBCB2E3EC7575DD","FC508EC12BF34D6EADBCB2E3EC7575DD","5e5df77d-f8c5-4afa-9e4b-2995b5e83571","e622c465-ee29-4445-8260-1f3431e06587","{""participantId"":""FC508EC12BF34D6EADBCB2E3EC7575DD"",""assignmentId"":""5e5df77d-f8c5-4afa-9e4b-2995b5e83571"",""projectId"":""e622c465-ee29-4445-8260-1f3431e06587""}","https://test12345.live/?participantId=FC508EC12BF34D6EADBCB2E3EC7575DD&assignmentId=5e5df77d-f8c5-4afa-9e4b-2995b5e83571&projectId=e622c465-ee29-4445-8260-1f3431e06587","","3096","","{""Q0"":3}","","[0]"
"","","","","","survey-text","131","599645","0.0-95.0","FC508EC12BF34D6EADBCB2E3EC7575DD","FC508EC12BF34D6EADBCB2E3EC7575DD","5e5df77d-f8c5-4afa-9e4b-2995b5e83571","e622c465-ee29-4445-8260-1f3431e06587","{""participantId"":""FC508EC12BF34D6EADBCB2E3EC7575DD"",""assignmentId"":""5e5df77d-f8c5-4afa-9e4b-2995b5e83571"",""projectId"":""e622c465-ee29-4445-8260-1f3431e06587""}","https://test12345.live/?participantId=FC508EC12BF34D6EADBCB2E3EC7575DD&assignmentId=5e5df77d-f8c5-4afa-9e4b-2995b5e83571&projectId=e622c465-ee29-4445-8260-1f3431e06587","","75577","","{""Q0"":""The difference between the two deck of cards is that one is red and the other is blue, most obviously. Secondly, I believe the Blue one is more realism focused, and the Red one is more creative focused.""}","",""
