"success","timeout","failed_images","failed_audio","failed_video","trial_type","trial_index","time_elapsed","internal_node_id","subject","subject_id","study_id","session_id","urlvar","current_url","view_history","rt","stimulus","response","choice","question_order"
"true","false","[]","[]","[]","preload","0","439","0.0-0.0","2FF0E9504B6C45D4B0B2646794D10C4A","2FF0E9504B6C45D4B0B2646794D10C4A","1f2b29af-2a67-41a2-9276-86dfb84ab7a8","54f8d589-66fc-4c65-830f-1dcc63bce8cc","{""participantId"":""2FF0E9504B6C45D4B0B2646794D10C4A"",""assignmentId"":""1f2b29af-2a67-41a2-9276-86dfb84ab7a8"",""projectId"":""54f8d589-66fc-4c65-830f-1dcc63bce8cc""}","https://test12345.live/?participantId=2FF0E9504B6C45D4B0B2646794D10C4A&assignmentId=1f2b29af-2a67-41a2-9276-86dfb84ab7a8&projectId=54f8d589-66fc-4c65-830f-1dcc63bce8cc","","","","","",""
"","","","","","instructions","1","3070","0.0-1.0","2FF0E9504B6C45D4B0B2646794D10C4A","2FF0E9504B6C45D4B0B2646794D10C4A","1f2b29af-2a67-41a2-9276-86dfb84ab7a8","54f8d589-66fc-4c65-830f-1dcc63bce8cc","{""participantId"":""2FF0E9504B6C45D4B0B2646794D10C4A"",""assignmentId"":""1f2b29af-2a67-41a2-9276-86dfb84ab7a8"",""projectId"":""54f8d589-66fc-4c65-830f-1dcc63bce8cc""}","https://test12345.live/?participantId=2FF0E9504B6C45D4B0B2646794D10C4A&assignmentId=1f2b29af-2a67-41a2-9276-86dfb84ab7a8&projectId=54f8d589-66fc-4c65-830f-1dcc63bce8cc","[{""page_index"":0,""viewing_time"":2630}]","2630","","","",""
"","","","","","instructions","2","6064","0.0-2.0","2FF0E9504B6C45D4B0B2646794D10C4A","2FF0E9504B6C45D4B0B2646794D10C4A","1f2b29af-2a67-41a2-9276-86dfb84ab7a8","54f8d589-66fc-4c65-830f-1dcc63bce8cc","{""participantId"":""2FF0E9504B6C45D4B0B2646794D10C4A"",""assignmentId"":""1f2b29af-2a67-41a2-9276-86dfb84ab7a8"",""projectId"":""54f8d589-66fc-4c65-830f-1dcc63bce8cc""}","https://test12345.live/?participantId=2FF0E9504B6C45D4B0B2646794D10C4A&assignmentId=1f2b29af-2a67-41a2-9276-86dfb84ab7a8&projectId=54f8d589-66fc-4c65-830f-1dcc63bce8cc","[{""page_index"":0,""viewing_time"":2994}]","2994","","","",""
"true","","","","","fullscreen","3","9146","0.0-3.0","2FF0E9504B6C45D4B0B2646794D10C4A","2FF0E9504B6C45D4B0B2646794D10C4A","1f2b29af-2a67-41a2-9276-86dfb84ab7a8","54f8d589-66fc-4c65-830f-1dcc63bce8cc","{""participantId"":""2FF0E9504B6C45D4B0B2646794D10C4A"",""assignmentId"":""1f2b29af-2a67-41a2-9276-86dfb84ab7a8"",""projectId"":""54f8d589-66fc-4c65-830f-1dcc63bce8cc""}","https://test12345.live/?participantId=2FF0E9504B6C45D4B0B2646794D10C4A&assignmentId=1f2b29af-2a67-41a2-9276-86dfb84ab7a8&projectId=54f8d589-66fc-4c65-830f-1dcc63bce8cc","","2076","","","",""
"","","","","","instructions","4","16389","0.0-4.0","2FF0E9504B6C45D4B0B2646794D10C4A","2FF0E9504B6C45D4B0B2646794D10C4A","1f2b29af-2a67-41a2-9276-86dfb84ab7a8","54f8d589-66fc-4c65-830f-1dcc63bce8cc","{""participantId"":""2FF0E9504B6C45D4B0B2646794D10C4A"",""assignmentId"":""1f2b29af-2a67-41a2-9276-86dfb84ab7a8"",""projectId"":""54f8d589-66fc-4c65-830f-1dcc63bce8cc""}","https://test12345.live/?participantId=2FF0E9504B6C45D4B0B2646794D10C4A&assignmentId=1f2b29af-2a67-41a2-9276-86dfb84ab7a8&projectId=54f8d589-66fc-4c65-830f-1dcc63bce8cc","[{""page_index"":0,""viewing_time"":7243}]","7243","","","",""
"","","","","","html-button-response","5","19134","0.0-5.0","2FF0E9504B6C45D4B0B2646794D10C4A","2FF0E9504B6C45D4B0B2646794D10C4A","1f2b29af-2a67-41a2-9276-86dfb84ab7a8","54f8d589-66fc-4c65-830f-1dcc63bce8cc","{""participantId"":""2FF0E9504B6C45D4B0B2646794D10C4A"",""assignmentId"":""1f2b29af-2a67-41a2-9276-86dfb84ab7a8"",""projectId"":""54f8d589-66fc-4c65-830f-1dcc63bce8cc""}","https://test12345.live/?participantId=2FF0E9504B6C45D4B0B2646794D10C4A&assignmentId=1f2b29af-2a67-41a2-9276-86dfb84ab7a8&projectId=54f8d589-66fc-4c65-830f-1dcc63bce8cc","","2744","
    <div style=""display: flex; justify-content: center; align-items: center;"">
      <img src=""images/red_deck_2.png"" style=""width: 300px; height: 300px; margin-right: 10px;"" />
      <img src=""images/blue_deck_1.png"" style=""width: 300px; height: 300px;"" />
    </div>","1","1",""
"","","","","","html-keyboard-response","6","22137","0.0-7.0-0.0","2FF0E9504B6C45D4B0B2646794D10C4A","2FF0E9504B6C45D4B0B2646794D10C4A","1f2b29af-2a67-41a2-9276-86dfb84ab7a8","54f8d589-66fc-4c65-830f-1dcc63bce8cc","{""participantId"":""2FF0E9504B6C45D4B0B2646794D10C4A"",""assignmentId"":""1f2b29af-2a67-41a2-9276-86dfb84ab7a8"",""projectId"":""54f8d589-66fc-4c65-830f-1dcc63bce8cc""}","https://test12345.live/?participantId=2FF0E9504B6C45D4B0B2646794D10C4A&assignmentId=1f2b29af-2a67-41a2-9276-86dfb84ab7a8&projectId=54f8d589-66fc-4c65-830f-1dcc63bce8cc","","null","<div style=""display: flex; justify-content: center; align-items: center;"">
                    <img src=""images/semantic/semantic_series_6/semantic_series_6_a.jpg"" style=""width: 300px; height: 300px;"" />
                  </div>","null","",""
"","","","","","html-keyboard-response","7","25144","0.0-7.0-1.0","2FF0E9504B6C45D4B0B2646794D10C4A","2FF0E9504B6C45D4B0B2646794D10C4A","1f2b29af-2a67-41a2-9276-86dfb84ab7a8","54f8d589-66fc-4c65-830f-1dcc63bce8cc","{""participantId"":""2FF0E9504B6C45D4B0B2646794D10C4A"",""assignmentId"":""1f2b29af-2a67-41a2-9276-86dfb84ab7a8"",""projectId"":""54f8d589-66fc-4c65-830f-1dcc63bce8cc""}","https://test12345.live/?participantId=2FF0E9504B6C45D4B0B2646794D10C4A&assignmentId=1f2b29af-2a67-41a2-9276-86dfb84ab7a8&projectId=54f8d589-66fc-4c65-830f-1dcc63bce8cc","","null","<div style=""display: flex; justify-content: center; align-items: center;"">
                    <img src=""images/semantic/semantic_series_6/semantic_series_6_b.jpg"" style=""width: 300px; height: 300px;"" />
                  </div>","null","",""
"","","","","","html-keyboard-response","8","28145","0.0-7.0-2.0","2FF0E9504B6C45D4B0B2646794D10C4A","2FF0E9504B6C45D4B0B2646794D10C4A","1f2b29af-2a67-41a2-9276-86dfb84ab7a8","54f8d589-66fc-4c65-830f-1dcc63bce8cc","{""participantId"":""2FF0E9504B6C45D4B0B2646794D10C4A"",""assignmentId"":""1f2b29af-2a67-41a2-9276-86dfb84ab7a8"",""projectId"":""54f8d589-66fc-4c65-830f-1dcc63bce8cc""}","https://test12345.live/?participantId=2FF0E9504B6C45D4B0B2646794D10C4A&assignmentId=1f2b29af-2a67-41a2-9276-86dfb84ab7a8&projectId=54f8d589-66fc-4c65-830f-1dcc63bce8cc","","null","<div style=""display: flex; justify-content: center; align-items: center;"">
                    <img src=""images/semantic/semantic_series_6/semantic_series_6_c.jpg"" style=""width: 300px; height: 300px;"" />
                  </div>","null","",""
"","","","","","html-keyboard-response","9","31160","0.0-7.0-3.0","2FF0E9504B6C45D4B0B2646794D10C4A","2FF0E9504B6C45D4B0B2646794D10C4A","1f2b29af-2a67-41a2-9276-86dfb84ab7a8","54f8d589-66fc-4c65-830f-1dcc63bce8cc","{""participantId"":""2FF0E9504B6C45D4B0B2646794D10C4A"",""assignmentId"":""1f2b29af-2a67-41a2-9276-86dfb84ab7a8"",""projectId"":""54f8d589-66fc-4c65-830f-1dcc63bce8cc""}","https://test12345.live/?participantId=2FF0E9504B6C45D4B0B2646794D10C4A&assignmentId=1f2b29af-2a67-41a2-9276-86dfb84ab7a8&projectId=54f8d589-66fc-4c65-830f-1dcc63bce8cc","","null","<div style=""display: flex; justify-content: center; align-items: center;"">
                    <img src=""images/semantic/semantic_series_6/semantic_series_6_d.jpg"" style=""width: 300px; height: 300px;"" />
                  </div>","null","",""
"","","","","","html-button-response","10","33080","0.0-8.0","2FF0E9504B6C45D4B0B2646794D10C4A","2FF0E9504B6C45D4B0B2646794D10C4A","1f2b29af-2a67-41a2-9276-86dfb84ab7a8","54f8d589-66fc-4c65-830f-1dcc63bce8cc","{""participantId"":""2FF0E9504B6C45D4B0B2646794D10C4A"",""assignmentId"":""1f2b29af-2a67-41a2-9276-86dfb84ab7a8"",""projectId"":""54f8d589-66fc-4c65-830f-1dcc63bce8cc""}","https://test12345.live/?participantId=2FF0E9504B6C45D4B0B2646794D10C4A&assignmentId=1f2b29af-2a67-41a2-9276-86dfb84ab7a8&projectId=54f8d589-66fc-4c65-830f-1dcc63bce8cc","","1920","Was there a person in the picture?","1","",""
"","","","","","survey-likert","11","37292","0.0-9.0","2FF0E9504B6C45D4B0B2646794D10C4A","2FF0E9504B6C45D4B0B2646794D10C4A","1f2b29af-2a67-41a2-9276-86dfb84ab7a8","54f8d589-66fc-4c65-830f-1dcc63bce8cc","{""participantId"":""2FF0E9504B6C45D4B0B2646794D10C4A"",""assignmentId"":""1f2b29af-2a67-41a2-9276-86dfb84ab7a8"",""projectId"":""54f8d589-66fc-4c65-830f-1dcc63bce8cc""}","https://test12345.live/?participantId=2FF0E9504B6C45D4B0B2646794D10C4A&assignmentId=1f2b29af-2a67-41a2-9276-86dfb84ab7a8&projectId=54f8d589-66fc-4c65-830f-1dcc63bce8cc","","4211","","{""Q0"":0}","","[0]"
"","","","","","html-button-response","12","41538","0.0-10.0","2FF0E9504B6C45D4B0B2646794D10C4A","2FF0E9504B6C45D4B0B2646794D10C4A","1f2b29af-2a67-41a2-9276-86dfb84ab7a8","54f8d589-66fc-4c65-830f-1dcc63bce8cc","{""participantId"":""2FF0E9504B6C45D4B0B2646794D10C4A"",""assignmentId"":""1f2b29af-2a67-41a2-9276-86dfb84ab7a8"",""projectId"":""54f8d589-66fc-4c65-830f-1dcc63bce8cc""}","https://test12345.live/?participantId=2FF0E9504B6C45D4B0B2646794D10C4A&assignmentId=1f2b29af-2a67-41a2-9276-86dfb84ab7a8&projectId=54f8d589-66fc-4c65-830f-1dcc63bce8cc","","4246","
    <div style=""display: flex; justify-content: center; align-items: center;"">
      <img src=""images/red_deck_2.png"" style=""width: 300px; height: 300px; margin-right: 10px;"" />
      <img src=""images/blue_deck_1.png"" style=""width: 300px; height: 300px;"" />
    </div>","0","0",""
"","","","","","html-keyboard-response","13","44542","0.0-11.0-0.0","2FF0E9504B6C45D4B0B2646794D10C4A","2FF0E9504B6C45D4B0B2646794D10C4A","1f2b29af-2a67-41a2-9276-86dfb84ab7a8","54f8d589-66fc-4c65-830f-1dcc63bce8cc","{""participantId"":""2FF0E9504B6C45D4B0B2646794D10C4A"",""assignmentId"":""1f2b29af-2a67-41a2-9276-86dfb84ab7a8"",""projectId"":""54f8d589-66fc-4c65-830f-1dcc63bce8cc""}","https://test12345.live/?participantId=2FF0E9504B6C45D4B0B2646794D10C4A&assignmentId=1f2b29af-2a67-41a2-9276-86dfb84ab7a8&projectId=54f8d589-66fc-4c65-830f-1dcc63bce8cc","","null","<div style=""display: flex; justify-content: center; align-items: center;"">
                    <img src=""images/causal/causal_series_18/causal_series_18_a.jpg"" style=""width: 300px; height: 300px;"" />
                  </div>","null","",""
"","","","","","html-keyboard-response","14","47549","0.0-11.0-1.0","2FF0E9504B6C45D4B0B2646794D10C4A","2FF0E9504B6C45D4B0B2646794D10C4A","1f2b29af-2a67-41a2-9276-86dfb84ab7a8","54f8d589-66fc-4c65-830f-1dcc63bce8cc","{""participantId"":""2FF0E9504B6C45D4B0B2646794D10C4A"",""assignmentId"":""1f2b29af-2a67-41a2-9276-86dfb84ab7a8"",""projectId"":""54f8d589-66fc-4c65-830f-1dcc63bce8cc""}","https://test12345.live/?participantId=2FF0E9504B6C45D4B0B2646794D10C4A&assignmentId=1f2b29af-2a67-41a2-9276-86dfb84ab7a8&projectId=54f8d589-66fc-4c65-830f-1dcc63bce8cc","","null","<div style=""display: flex; justify-content: center; align-items: center;"">
                    <img src=""images/causal/causal_series_18/causal_series_18_b.jpg"" style=""width: 300px; height: 300px;"" />
                  </div>","null","",""
"","","","","","html-keyboard-response","15","50563","0.0-11.0-2.0","2FF0E9504B6C45D4B0B2646794D10C4A","2FF0E9504B6C45D4B0B2646794D10C4A","1f2b29af-2a67-41a2-9276-86dfb84ab7a8","54f8d589-66fc-4c65-830f-1dcc63bce8cc","{""participantId"":""2FF0E9504B6C45D4B0B2646794D10C4A"",""assignmentId"":""1f2b29af-2a67-41a2-9276-86dfb84ab7a8"",""projectId"":""54f8d589-66fc-4c65-830f-1dcc63bce8cc""}","https://test12345.live/?participantId=2FF0E9504B6C45D4B0B2646794D10C4A&assignmentId=1f2b29af-2a67-41a2-9276-86dfb84ab7a8&projectId=54f8d589-66fc-4c65-830f-1dcc63bce8cc","","null","<div style=""display: flex; justify-content: center; align-items: center;"">
                    <img src=""images/causal/causal_series_18/causal_series_18_c.jpg"" style=""width: 300px; height: 300px;"" />
                  </div>","null","",""
"","","","","","html-keyboard-response","16","53571","0.0-11.0-3.0","2FF0E9504B6C45D4B0B2646794D10C4A","2FF0E9504B6C45D4B0B2646794D10C4A","1f2b29af-2a67-41a2-9276-86dfb84ab7a8","54f8d589-66fc-4c65-830f-1dcc63bce8cc","{""participantId"":""2FF0E9504B6C45D4B0B2646794D10C4A"",""assignmentId"":""1f2b29af-2a67-41a2-9276-86dfb84ab7a8"",""projectId"":""54f8d589-66fc-4c65-830f-1dcc63bce8cc""}","https://test12345.live/?participantId=2FF0E9504B6C45D4B0B2646794D10C4A&assignmentId=1f2b29af-2a67-41a2-9276-86dfb84ab7a8&projectId=54f8d589-66fc-4c65-830f-1dcc63bce8cc","","null","<div style=""display: flex; justify-content: center; align-items: center;"">
                    <img src=""images/causal/causal_series_18/causal_series_18_d.jpg"" style=""width: 300px; height: 300px;"" />
                  </div>","null","",""
"","","","","","html-button-response","17","56745","0.0-13.0","2FF0E9504B6C45D4B0B2646794D10C4A","2FF0E9504B6C45D4B0B2646794D10C4A","1f2b29af-2a67-41a2-9276-86dfb84ab7a8","54f8d589-66fc-4c65-830f-1dcc63bce8cc","{""participantId"":""2FF0E9504B6C45D4B0B2646794D10C4A"",""assignmentId"":""1f2b29af-2a67-41a2-9276-86dfb84ab7a8"",""projectId"":""54f8d589-66fc-4c65-830f-1dcc63bce8cc""}","https://test12345.live/?participantId=2FF0E9504B6C45D4B0B2646794D10C4A&assignmentId=1f2b29af-2a67-41a2-9276-86dfb84ab7a8&projectId=54f8d589-66fc-4c65-830f-1dcc63bce8cc","","3173","Was there a person in the picture?","1","",""
"","","","","","survey-likert","18","60075","0.0-14.0","2FF0E9504B6C45D4B0B2646794D10C4A","2FF0E9504B6C45D4B0B2646794D10C4A","1f2b29af-2a67-41a2-9276-86dfb84ab7a8","54f8d589-66fc-4c65-830f-1dcc63bce8cc","{""participantId"":""2FF0E9504B6C45D4B0B2646794D10C4A"",""assignmentId"":""1f2b29af-2a67-41a2-9276-86dfb84ab7a8"",""projectId"":""54f8d589-66fc-4c65-830f-1dcc63bce8cc""}","https://test12345.live/?participantId=2FF0E9504B6C45D4B0B2646794D10C4A&assignmentId=1f2b29af-2a67-41a2-9276-86dfb84ab7a8&projectId=54f8d589-66fc-4c65-830f-1dcc63bce8cc","","3330","","{""Q0"":2}","","[0]"
"","","","","","html-button-response","19","62130","0.0-15.0","2FF0E9504B6C45D4B0B2646794D10C4A","2FF0E9504B6C45D4B0B2646794D10C4A","1f2b29af-2a67-41a2-9276-86dfb84ab7a8","54f8d589-66fc-4c65-830f-1dcc63bce8cc","{""participantId"":""2FF0E9504B6C45D4B0B2646794D10C4A"",""assignmentId"":""1f2b29af-2a67-41a2-9276-86dfb84ab7a8"",""projectId"":""54f8d589-66fc-4c65-830f-1dcc63bce8cc""}","https://test12345.live/?participantId=2FF0E9504B6C45D4B0B2646794D10C4A&assignmentId=1f2b29af-2a67-41a2-9276-86dfb84ab7a8&projectId=54f8d589-66fc-4c65-830f-1dcc63bce8cc","","2054","
    <div style=""display: flex; justify-content: center; align-items: center;"">
      <img src=""images/red_deck_2.png"" style=""width: 300px; height: 300px; margin-right: 10px;"" />
      <img src=""images/blue_deck_1.png"" style=""width: 300px; height: 300px;"" />
    </div>","0","0",""
"","","","","","html-keyboard-response","20","65131","0.0-16.0-0.0","2FF0E9504B6C45D4B0B2646794D10C4A","2FF0E9504B6C45D4B0B2646794D10C4A","1f2b29af-2a67-41a2-9276-86dfb84ab7a8","54f8d589-66fc-4c65-830f-1dcc63bce8cc","{""participantId"":""2FF0E9504B6C45D4B0B2646794D10C4A"",""assignmentId"":""1f2b29af-2a67-41a2-9276-86dfb84ab7a8"",""projectId"":""54f8d589-66fc-4c65-830f-1dcc63bce8cc""}","https://test12345.live/?participantId=2FF0E9504B6C45D4B0B2646794D10C4A&assignmentId=1f2b29af-2a67-41a2-9276-86dfb84ab7a8&projectId=54f8d589-66fc-4c65-830f-1dcc63bce8cc","","null","<div style=""display: flex; justify-content: center; align-items: center;"">
                    <img src=""images/causal/causal_series_7/causal_series_7_a.jpg"" style=""width: 300px; height: 300px;"" />
                  </div>","null","",""
"","","","","","html-keyboard-response","21","68142","0.0-16.0-1.0","2FF0E9504B6C45D4B0B2646794D10C4A","2FF0E9504B6C45D4B0B2646794D10C4A","1f2b29af-2a67-41a2-9276-86dfb84ab7a8","54f8d589-66fc-4c65-830f-1dcc63bce8cc","{""participantId"":""2FF0E9504B6C45D4B0B2646794D10C4A"",""assignmentId"":""1f2b29af-2a67-41a2-9276-86dfb84ab7a8"",""projectId"":""54f8d589-66fc-4c65-830f-1dcc63bce8cc""}","https://test12345.live/?participantId=2FF0E9504B6C45D4B0B2646794D10C4A&assignmentId=1f2b29af-2a67-41a2-9276-86dfb84ab7a8&projectId=54f8d589-66fc-4c65-830f-1dcc63bce8cc","","null","<div style=""display: flex; justify-content: center; align-items: center;"">
                    <img src=""images/causal/causal_series_7/causal_series_7_b.jpg"" style=""width: 300px; height: 300px;"" />
                  </div>","null","",""
"","","","","","html-keyboard-response","22","71156","0.0-16.0-2.0","2FF0E9504B6C45D4B0B2646794D10C4A","2FF0E9504B6C45D4B0B2646794D10C4A","1f2b29af-2a67-41a2-9276-86dfb84ab7a8","54f8d589-66fc-4c65-830f-1dcc63bce8cc","{""participantId"":""2FF0E9504B6C45D4B0B2646794D10C4A"",""assignmentId"":""1f2b29af-2a67-41a2-9276-86dfb84ab7a8"",""projectId"":""54f8d589-66fc-4c65-830f-1dcc63bce8cc""}","https://test12345.live/?participantId=2FF0E9504B6C45D4B0B2646794D10C4A&assignmentId=1f2b29af-2a67-41a2-9276-86dfb84ab7a8&projectId=54f8d589-66fc-4c65-830f-1dcc63bce8cc","","null","<div style=""display: flex; justify-content: center; align-items: center;"">
                    <img src=""images/causal/causal_series_7/causal_series_7_c.jpg"" style=""width: 300px; height: 300px;"" />
                  </div>","null","",""
"","","","","","html-keyboard-response","23","74167","0.0-16.0-3.0","2FF0E9504B6C45D4B0B2646794D10C4A","2FF0E9504B6C45D4B0B2646794D10C4A","1f2b29af-2a67-41a2-9276-86dfb84ab7a8","54f8d589-66fc-4c65-830f-1dcc63bce8cc","{""participantId"":""2FF0E9504B6C45D4B0B2646794D10C4A"",""assignmentId"":""1f2b29af-2a67-41a2-9276-86dfb84ab7a8"",""projectId"":""54f8d589-66fc-4c65-830f-1dcc63bce8cc""}","https://test12345.live/?participantId=2FF0E9504B6C45D4B0B2646794D10C4A&assignmentId=1f2b29af-2a67-41a2-9276-86dfb84ab7a8&projectId=54f8d589-66fc-4c65-830f-1dcc63bce8cc","","null","<div style=""display: flex; justify-content: center; align-items: center;"">
                    <img src=""images/causal/causal_series_7/causal_series_7_d.jpg"" style=""width: 300px; height: 300px;"" />
                  </div>","null","",""
"","","","","","html-button-response","24","75554","0.0-18.0","2FF0E9504B6C45D4B0B2646794D10C4A","2FF0E9504B6C45D4B0B2646794D10C4A","1f2b29af-2a67-41a2-9276-86dfb84ab7a8","54f8d589-66fc-4c65-830f-1dcc63bce8cc","{""participantId"":""2FF0E9504B6C45D4B0B2646794D10C4A"",""assignmentId"":""1f2b29af-2a67-41a2-9276-86dfb84ab7a8"",""projectId"":""54f8d589-66fc-4c65-830f-1dcc63bce8cc""}","https://test12345.live/?participantId=2FF0E9504B6C45D4B0B2646794D10C4A&assignmentId=1f2b29af-2a67-41a2-9276-86dfb84ab7a8&projectId=54f8d589-66fc-4c65-830f-1dcc63bce8cc","","1386","Was there a person in the picture?","1","",""
"","","","","","survey-likert","25","77141","0.0-19.0","2FF0E9504B6C45D4B0B2646794D10C4A","2FF0E9504B6C45D4B0B2646794D10C4A","1f2b29af-2a67-41a2-9276-86dfb84ab7a8","54f8d589-66fc-4c65-830f-1dcc63bce8cc","{""participantId"":""2FF0E9504B6C45D4B0B2646794D10C4A"",""assignmentId"":""1f2b29af-2a67-41a2-9276-86dfb84ab7a8"",""projectId"":""54f8d589-66fc-4c65-830f-1dcc63bce8cc""}","https://test12345.live/?participantId=2FF0E9504B6C45D4B0B2646794D10C4A&assignmentId=1f2b29af-2a67-41a2-9276-86dfb84ab7a8&projectId=54f8d589-66fc-4c65-830f-1dcc63bce8cc","","1587","","{""Q0"":1}","","[0]"
"","","","","","html-button-response","26","79165","0.0-20.0","2FF0E9504B6C45D4B0B2646794D10C4A","2FF0E9504B6C45D4B0B2646794D10C4A","1f2b29af-2a67-41a2-9276-86dfb84ab7a8","54f8d589-66fc-4c65-830f-1dcc63bce8cc","{""participantId"":""2FF0E9504B6C45D4B0B2646794D10C4A"",""assignmentId"":""1f2b29af-2a67-41a2-9276-86dfb84ab7a8"",""projectId"":""54f8d589-66fc-4c65-830f-1dcc63bce8cc""}","https://test12345.live/?participantId=2FF0E9504B6C45D4B0B2646794D10C4A&assignmentId=1f2b29af-2a67-41a2-9276-86dfb84ab7a8&projectId=54f8d589-66fc-4c65-830f-1dcc63bce8cc","","2023","
    <div style=""display: flex; justify-content: center; align-items: center;"">
      <img src=""images/red_deck_2.png"" style=""width: 300px; height: 300px; margin-right: 10px;"" />
      <img src=""images/blue_deck_1.png"" style=""width: 300px; height: 300px;"" />
    </div>","0","0",""
"","","","","","html-keyboard-response","27","82176","0.0-21.0-0.0","2FF0E9504B6C45D4B0B2646794D10C4A","2FF0E9504B6C45D4B0B2646794D10C4A","1f2b29af-2a67-41a2-9276-86dfb84ab7a8","54f8d589-66fc-4c65-830f-1dcc63bce8cc","{""participantId"":""2FF0E9504B6C45D4B0B2646794D10C4A"",""assignmentId"":""1f2b29af-2a67-41a2-9276-86dfb84ab7a8"",""projectId"":""54f8d589-66fc-4c65-830f-1dcc63bce8cc""}","https://test12345.live/?participantId=2FF0E9504B6C45D4B0B2646794D10C4A&assignmentId=1f2b29af-2a67-41a2-9276-86dfb84ab7a8&projectId=54f8d589-66fc-4c65-830f-1dcc63bce8cc","","null","<div style=""display: flex; justify-content: center; align-items: center;"">
                    <img src=""images/causal/causal_series_15/causal_series_15_a.jpg"" style=""width: 300px; height: 300px;"" />
                  </div>","null","",""
"","","","","","html-keyboard-response","28","85184","0.0-21.0-1.0","2FF0E9504B6C45D4B0B2646794D10C4A","2FF0E9504B6C45D4B0B2646794D10C4A","1f2b29af-2a67-41a2-9276-86dfb84ab7a8","54f8d589-66fc-4c65-830f-1dcc63bce8cc","{""participantId"":""2FF0E9504B6C45D4B0B2646794D10C4A"",""assignmentId"":""1f2b29af-2a67-41a2-9276-86dfb84ab7a8"",""projectId"":""54f8d589-66fc-4c65-830f-1dcc63bce8cc""}","https://test12345.live/?participantId=2FF0E9504B6C45D4B0B2646794D10C4A&assignmentId=1f2b29af-2a67-41a2-9276-86dfb84ab7a8&projectId=54f8d589-66fc-4c65-830f-1dcc63bce8cc","","null","<div style=""display: flex; justify-content: center; align-items: center;"">
                    <img src=""images/causal/causal_series_15/causal_series_15_b.jpg"" style=""width: 300px; height: 300px;"" />
                  </div>","null","",""
"","","","","","html-keyboard-response","29","88199","0.0-21.0-2.0","2FF0E9504B6C45D4B0B2646794D10C4A","2FF0E9504B6C45D4B0B2646794D10C4A","1f2b29af-2a67-41a2-9276-86dfb84ab7a8","54f8d589-66fc-4c65-830f-1dcc63bce8cc","{""participantId"":""2FF0E9504B6C45D4B0B2646794D10C4A"",""assignmentId"":""1f2b29af-2a67-41a2-9276-86dfb84ab7a8"",""projectId"":""54f8d589-66fc-4c65-830f-1dcc63bce8cc""}","https://test12345.live/?participantId=2FF0E9504B6C45D4B0B2646794D10C4A&assignmentId=1f2b29af-2a67-41a2-9276-86dfb84ab7a8&projectId=54f8d589-66fc-4c65-830f-1dcc63bce8cc","","null","<div style=""display: flex; justify-content: center; align-items: center;"">
                    <img src=""images/causal/causal_series_15/causal_series_15_c.jpg"" style=""width: 300px; height: 300px;"" />
                  </div>","null","",""
"","","","","","html-keyboard-response","30","91204","0.0-21.0-3.0","2FF0E9504B6C45D4B0B2646794D10C4A","2FF0E9504B6C45D4B0B2646794D10C4A","1f2b29af-2a67-41a2-9276-86dfb84ab7a8","54f8d589-66fc-4c65-830f-1dcc63bce8cc","{""participantId"":""2FF0E9504B6C45D4B0B2646794D10C4A"",""assignmentId"":""1f2b29af-2a67-41a2-9276-86dfb84ab7a8"",""projectId"":""54f8d589-66fc-4c65-830f-1dcc63bce8cc""}","https://test12345.live/?participantId=2FF0E9504B6C45D4B0B2646794D10C4A&assignmentId=1f2b29af-2a67-41a2-9276-86dfb84ab7a8&projectId=54f8d589-66fc-4c65-830f-1dcc63bce8cc","","null","<div style=""display: flex; justify-content: center; align-items: center;"">
                    <img src=""images/causal/causal_series_15/causal_series_15_d.jpg"" style=""width: 300px; height: 300px;"" />
                  </div>","null","",""
"","","","","","html-button-response","31","92507","0.0-23.0","2FF0E9504B6C45D4B0B2646794D10C4A","2FF0E9504B6C45D4B0B2646794D10C4A","1f2b29af-2a67-41a2-9276-86dfb84ab7a8","54f8d589-66fc-4c65-830f-1dcc63bce8cc","{""participantId"":""2FF0E9504B6C45D4B0B2646794D10C4A"",""assignmentId"":""1f2b29af-2a67-41a2-9276-86dfb84ab7a8"",""projectId"":""54f8d589-66fc-4c65-830f-1dcc63bce8cc""}","https://test12345.live/?participantId=2FF0E9504B6C45D4B0B2646794D10C4A&assignmentId=1f2b29af-2a67-41a2-9276-86dfb84ab7a8&projectId=54f8d589-66fc-4c65-830f-1dcc63bce8cc","","1302","Was there a person in the picture?","0","",""
"","","","","","survey-likert","32","94841","0.0-24.0","2FF0E9504B6C45D4B0B2646794D10C4A","2FF0E9504B6C45D4B0B2646794D10C4A","1f2b29af-2a67-41a2-9276-86dfb84ab7a8","54f8d589-66fc-4c65-830f-1dcc63bce8cc","{""participantId"":""2FF0E9504B6C45D4B0B2646794D10C4A"",""assignmentId"":""1f2b29af-2a67-41a2-9276-86dfb84ab7a8"",""projectId"":""54f8d589-66fc-4c65-830f-1dcc63bce8cc""}","https://test12345.live/?participantId=2FF0E9504B6C45D4B0B2646794D10C4A&assignmentId=1f2b29af-2a67-41a2-9276-86dfb84ab7a8&projectId=54f8d589-66fc-4c65-830f-1dcc63bce8cc","","2334","","{""Q0"":1}","","[0]"
"","","","","","html-button-response","33","95979","0.0-25.0","2FF0E9504B6C45D4B0B2646794D10C4A","2FF0E9504B6C45D4B0B2646794D10C4A","1f2b29af-2a67-41a2-9276-86dfb84ab7a8","54f8d589-66fc-4c65-830f-1dcc63bce8cc","{""participantId"":""2FF0E9504B6C45D4B0B2646794D10C4A"",""assignmentId"":""1f2b29af-2a67-41a2-9276-86dfb84ab7a8"",""projectId"":""54f8d589-66fc-4c65-830f-1dcc63bce8cc""}","https://test12345.live/?participantId=2FF0E9504B6C45D4B0B2646794D10C4A&assignmentId=1f2b29af-2a67-41a2-9276-86dfb84ab7a8&projectId=54f8d589-66fc-4c65-830f-1dcc63bce8cc","","1137","
    <div style=""display: flex; justify-content: center; align-items: center;"">
      <img src=""images/red_deck_2.png"" style=""width: 300px; height: 300px; margin-right: 10px;"" />
      <img src=""images/blue_deck_1.png"" style=""width: 300px; height: 300px;"" />
    </div>","1","1",""
"","","","","","html-keyboard-response","34","98987","0.0-27.0-0.0","2FF0E9504B6C45D4B0B2646794D10C4A","2FF0E9504B6C45D4B0B2646794D10C4A","1f2b29af-2a67-41a2-9276-86dfb84ab7a8","54f8d589-66fc-4c65-830f-1dcc63bce8cc","{""participantId"":""2FF0E9504B6C45D4B0B2646794D10C4A"",""assignmentId"":""1f2b29af-2a67-41a2-9276-86dfb84ab7a8"",""projectId"":""54f8d589-66fc-4c65-830f-1dcc63bce8cc""}","https://test12345.live/?participantId=2FF0E9504B6C45D4B0B2646794D10C4A&assignmentId=1f2b29af-2a67-41a2-9276-86dfb84ab7a8&projectId=54f8d589-66fc-4c65-830f-1dcc63bce8cc","","null","<div style=""display: flex; justify-content: center; align-items: center;"">
                    <img src=""images/semantic/semantic_series_14/semantic_series_14_a.jpg"" style=""width: 300px; height: 300px;"" />
                  </div>","null","",""
"","","","","","html-keyboard-response","35","101990","0.0-27.0-1.0","2FF0E9504B6C45D4B0B2646794D10C4A","2FF0E9504B6C45D4B0B2646794D10C4A","1f2b29af-2a67-41a2-9276-86dfb84ab7a8","54f8d589-66fc-4c65-830f-1dcc63bce8cc","{""participantId"":""2FF0E9504B6C45D4B0B2646794D10C4A"",""assignmentId"":""1f2b29af-2a67-41a2-9276-86dfb84ab7a8"",""projectId"":""54f8d589-66fc-4c65-830f-1dcc63bce8cc""}","https://test12345.live/?participantId=2FF0E9504B6C45D4B0B2646794D10C4A&assignmentId=1f2b29af-2a67-41a2-9276-86dfb84ab7a8&projectId=54f8d589-66fc-4c65-830f-1dcc63bce8cc","","null","<div style=""display: flex; justify-content: center; align-items: center;"">
                    <img src=""images/semantic/semantic_series_14/semantic_series_14_b.jpg"" style=""width: 300px; height: 300px;"" />
                  </div>","null","",""
"","","","","","html-keyboard-response","36","105006","0.0-27.0-2.0","2FF0E9504B6C45D4B0B2646794D10C4A","2FF0E9504B6C45D4B0B2646794D10C4A","1f2b29af-2a67-41a2-9276-86dfb84ab7a8","54f8d589-66fc-4c65-830f-1dcc63bce8cc","{""participantId"":""2FF0E9504B6C45D4B0B2646794D10C4A"",""assignmentId"":""1f2b29af-2a67-41a2-9276-86dfb84ab7a8"",""projectId"":""54f8d589-66fc-4c65-830f-1dcc63bce8cc""}","https://test12345.live/?participantId=2FF0E9504B6C45D4B0B2646794D10C4A&assignmentId=1f2b29af-2a67-41a2-9276-86dfb84ab7a8&projectId=54f8d589-66fc-4c65-830f-1dcc63bce8cc","","null","<div style=""display: flex; justify-content: center; align-items: center;"">
                    <img src=""images/semantic/semantic_series_14/semantic_series_14_c.jpg"" style=""width: 300px; height: 300px;"" />
                  </div>","null","",""
"","","","","","html-keyboard-response","37","108021","0.0-27.0-3.0","2FF0E9504B6C45D4B0B2646794D10C4A","2FF0E9504B6C45D4B0B2646794D10C4A","1f2b29af-2a67-41a2-9276-86dfb84ab7a8","54f8d589-66fc-4c65-830f-1dcc63bce8cc","{""participantId"":""2FF0E9504B6C45D4B0B2646794D10C4A"",""assignmentId"":""1f2b29af-2a67-41a2-9276-86dfb84ab7a8"",""projectId"":""54f8d589-66fc-4c65-830f-1dcc63bce8cc""}","https://test12345.live/?participantId=2FF0E9504B6C45D4B0B2646794D10C4A&assignmentId=1f2b29af-2a67-41a2-9276-86dfb84ab7a8&projectId=54f8d589-66fc-4c65-830f-1dcc63bce8cc","","null","<div style=""display: flex; justify-content: center; align-items: center;"">
                    <img src=""images/semantic/semantic_series_14/semantic_series_14_d.jpg"" style=""width: 300px; height: 300px;"" />
                  </div>","null","",""
"","","","","","html-button-response","38","109334","0.0-28.0","2FF0E9504B6C45D4B0B2646794D10C4A","2FF0E9504B6C45D4B0B2646794D10C4A","1f2b29af-2a67-41a2-9276-86dfb84ab7a8","54f8d589-66fc-4c65-830f-1dcc63bce8cc","{""participantId"":""2FF0E9504B6C45D4B0B2646794D10C4A"",""assignmentId"":""1f2b29af-2a67-41a2-9276-86dfb84ab7a8"",""projectId"":""54f8d589-66fc-4c65-830f-1dcc63bce8cc""}","https://test12345.live/?participantId=2FF0E9504B6C45D4B0B2646794D10C4A&assignmentId=1f2b29af-2a67-41a2-9276-86dfb84ab7a8&projectId=54f8d589-66fc-4c65-830f-1dcc63bce8cc","","1312","Was there a person in the picture?","0","",""
"","","","","","survey-likert","39","111282","0.0-29.0","2FF0E9504B6C45D4B0B2646794D10C4A","2FF0E9504B6C45D4B0B2646794D10C4A","1f2b29af-2a67-41a2-9276-86dfb84ab7a8","54f8d589-66fc-4c65-830f-1dcc63bce8cc","{""participantId"":""2FF0E9504B6C45D4B0B2646794D10C4A"",""assignmentId"":""1f2b29af-2a67-41a2-9276-86dfb84ab7a8"",""projectId"":""54f8d589-66fc-4c65-830f-1dcc63bce8cc""}","https://test12345.live/?participantId=2FF0E9504B6C45D4B0B2646794D10C4A&assignmentId=1f2b29af-2a67-41a2-9276-86dfb84ab7a8&projectId=54f8d589-66fc-4c65-830f-1dcc63bce8cc","","1948","","{""Q0"":0}","","[0]"
"","","","","","html-button-response","40","112383","0.0-30.0","2FF0E9504B6C45D4B0B2646794D10C4A","2FF0E9504B6C45D4B0B2646794D10C4A","1f2b29af-2a67-41a2-9276-86dfb84ab7a8","54f8d589-66fc-4c65-830f-1dcc63bce8cc","{""participantId"":""2FF0E9504B6C45D4B0B2646794D10C4A"",""assignmentId"":""1f2b29af-2a67-41a2-9276-86dfb84ab7a8"",""projectId"":""54f8d589-66fc-4c65-830f-1dcc63bce8cc""}","https://test12345.live/?participantId=2FF0E9504B6C45D4B0B2646794D10C4A&assignmentId=1f2b29af-2a67-41a2-9276-86dfb84ab7a8&projectId=54f8d589-66fc-4c65-830f-1dcc63bce8cc","","1100","
    <div style=""display: flex; justify-content: center; align-items: center;"">
      <img src=""images/red_deck_2.png"" style=""width: 300px; height: 300px; margin-right: 10px;"" />
      <img src=""images/blue_deck_1.png"" style=""width: 300px; height: 300px;"" />
    </div>","0","0",""
"","","","","","html-keyboard-response","41","115395","0.0-31.0-0.0","2FF0E9504B6C45D4B0B2646794D10C4A","2FF0E9504B6C45D4B0B2646794D10C4A","1f2b29af-2a67-41a2-9276-86dfb84ab7a8","54f8d589-66fc-4c65-830f-1dcc63bce8cc","{""participantId"":""2FF0E9504B6C45D4B0B2646794D10C4A"",""assignmentId"":""1f2b29af-2a67-41a2-9276-86dfb84ab7a8"",""projectId"":""54f8d589-66fc-4c65-830f-1dcc63bce8cc""}","https://test12345.live/?participantId=2FF0E9504B6C45D4B0B2646794D10C4A&assignmentId=1f2b29af-2a67-41a2-9276-86dfb84ab7a8&projectId=54f8d589-66fc-4c65-830f-1dcc63bce8cc","","null","<div style=""display: flex; justify-content: center; align-items: center;"">
                    <img src=""images/causal/causal_series_16/causal_series_16_a.jpg"" style=""width: 300px; height: 300px;"" />
                  </div>","null","",""
"","","","","","html-keyboard-response","42","118409","0.0-31.0-1.0","2FF0E9504B6C45D4B0B2646794D10C4A","2FF0E9504B6C45D4B0B2646794D10C4A","1f2b29af-2a67-41a2-9276-86dfb84ab7a8","54f8d589-66fc-4c65-830f-1dcc63bce8cc","{""participantId"":""2FF0E9504B6C45D4B0B2646794D10C4A"",""assignmentId"":""1f2b29af-2a67-41a2-9276-86dfb84ab7a8"",""projectId"":""54f8d589-66fc-4c65-830f-1dcc63bce8cc""}","https://test12345.live/?participantId=2FF0E9504B6C45D4B0B2646794D10C4A&assignmentId=1f2b29af-2a67-41a2-9276-86dfb84ab7a8&projectId=54f8d589-66fc-4c65-830f-1dcc63bce8cc","","null","<div style=""display: flex; justify-content: center; align-items: center;"">
                    <img src=""images/causal/causal_series_16/causal_series_16_b.jpg"" style=""width: 300px; height: 300px;"" />
                  </div>","null","",""
"","","","","","html-keyboard-response","43","121410","0.0-31.0-2.0","2FF0E9504B6C45D4B0B2646794D10C4A","2FF0E9504B6C45D4B0B2646794D10C4A","1f2b29af-2a67-41a2-9276-86dfb84ab7a8","54f8d589-66fc-4c65-830f-1dcc63bce8cc","{""participantId"":""2FF0E9504B6C45D4B0B2646794D10C4A"",""assignmentId"":""1f2b29af-2a67-41a2-9276-86dfb84ab7a8"",""projectId"":""54f8d589-66fc-4c65-830f-1dcc63bce8cc""}","https://test12345.live/?participantId=2FF0E9504B6C45D4B0B2646794D10C4A&assignmentId=1f2b29af-2a67-41a2-9276-86dfb84ab7a8&projectId=54f8d589-66fc-4c65-830f-1dcc63bce8cc","","null","<div style=""display: flex; justify-content: center; align-items: center;"">
                    <img src=""images/causal/causal_series_16/causal_series_16_c.jpg"" style=""width: 300px; height: 300px;"" />
                  </div>","null","",""
"","","","","","html-keyboard-response","44","124420","0.0-31.0-3.0","2FF0E9504B6C45D4B0B2646794D10C4A","2FF0E9504B6C45D4B0B2646794D10C4A","1f2b29af-2a67-41a2-9276-86dfb84ab7a8","54f8d589-66fc-4c65-830f-1dcc63bce8cc","{""participantId"":""2FF0E9504B6C45D4B0B2646794D10C4A"",""assignmentId"":""1f2b29af-2a67-41a2-9276-86dfb84ab7a8"",""projectId"":""54f8d589-66fc-4c65-830f-1dcc63bce8cc""}","https://test12345.live/?participantId=2FF0E9504B6C45D4B0B2646794D10C4A&assignmentId=1f2b29af-2a67-41a2-9276-86dfb84ab7a8&projectId=54f8d589-66fc-4c65-830f-1dcc63bce8cc","","null","<div style=""display: flex; justify-content: center; align-items: center;"">
                    <img src=""images/causal/causal_series_16/causal_series_16_d.jpg"" style=""width: 300px; height: 300px;"" />
                  </div>","null","",""
"","","","","","html-button-response","45","125776","0.0-33.0","2FF0E9504B6C45D4B0B2646794D10C4A","2FF0E9504B6C45D4B0B2646794D10C4A","1f2b29af-2a67-41a2-9276-86dfb84ab7a8","54f8d589-66fc-4c65-830f-1dcc63bce8cc","{""participantId"":""2FF0E9504B6C45D4B0B2646794D10C4A"",""assignmentId"":""1f2b29af-2a67-41a2-9276-86dfb84ab7a8"",""projectId"":""54f8d589-66fc-4c65-830f-1dcc63bce8cc""}","https://test12345.live/?participantId=2FF0E9504B6C45D4B0B2646794D10C4A&assignmentId=1f2b29af-2a67-41a2-9276-86dfb84ab7a8&projectId=54f8d589-66fc-4c65-830f-1dcc63bce8cc","","1355","Was there a person in the picture?","0","",""
"","","","","","survey-likert","46","127970","0.0-34.0","2FF0E9504B6C45D4B0B2646794D10C4A","2FF0E9504B6C45D4B0B2646794D10C4A","1f2b29af-2a67-41a2-9276-86dfb84ab7a8","54f8d589-66fc-4c65-830f-1dcc63bce8cc","{""participantId"":""2FF0E9504B6C45D4B0B2646794D10C4A"",""assignmentId"":""1f2b29af-2a67-41a2-9276-86dfb84ab7a8"",""projectId"":""54f8d589-66fc-4c65-830f-1dcc63bce8cc""}","https://test12345.live/?participantId=2FF0E9504B6C45D4B0B2646794D10C4A&assignmentId=1f2b29af-2a67-41a2-9276-86dfb84ab7a8&projectId=54f8d589-66fc-4c65-830f-1dcc63bce8cc","","2193","","{""Q0"":1}","","[0]"
"","","","","","html-button-response","47","128883","0.0-35.0","2FF0E9504B6C45D4B0B2646794D10C4A","2FF0E9504B6C45D4B0B2646794D10C4A","1f2b29af-2a67-41a2-9276-86dfb84ab7a8","54f8d589-66fc-4c65-830f-1dcc63bce8cc","{""participantId"":""2FF0E9504B6C45D4B0B2646794D10C4A"",""assignmentId"":""1f2b29af-2a67-41a2-9276-86dfb84ab7a8"",""projectId"":""54f8d589-66fc-4c65-830f-1dcc63bce8cc""}","https://test12345.live/?participantId=2FF0E9504B6C45D4B0B2646794D10C4A&assignmentId=1f2b29af-2a67-41a2-9276-86dfb84ab7a8&projectId=54f8d589-66fc-4c65-830f-1dcc63bce8cc","","912","
    <div style=""display: flex; justify-content: center; align-items: center;"">
      <img src=""images/red_deck_2.png"" style=""width: 300px; height: 300px; margin-right: 10px;"" />
      <img src=""images/blue_deck_1.png"" style=""width: 300px; height: 300px;"" />
    </div>","1","1",""
"","","","","","html-keyboard-response","48","131898","0.0-37.0-0.0","2FF0E9504B6C45D4B0B2646794D10C4A","2FF0E9504B6C45D4B0B2646794D10C4A","1f2b29af-2a67-41a2-9276-86dfb84ab7a8","54f8d589-66fc-4c65-830f-1dcc63bce8cc","{""participantId"":""2FF0E9504B6C45D4B0B2646794D10C4A"",""assignmentId"":""1f2b29af-2a67-41a2-9276-86dfb84ab7a8"",""projectId"":""54f8d589-66fc-4c65-830f-1dcc63bce8cc""}","https://test12345.live/?participantId=2FF0E9504B6C45D4B0B2646794D10C4A&assignmentId=1f2b29af-2a67-41a2-9276-86dfb84ab7a8&projectId=54f8d589-66fc-4c65-830f-1dcc63bce8cc","","null","<div style=""display: flex; justify-content: center; align-items: center;"">
                    <img src=""images/semantic/semantic_series_8/semantic_series_8_a.jpg"" style=""width: 300px; height: 300px;"" />
                  </div>","null","",""
"","","","","","html-keyboard-response","49","134913","0.0-37.0-1.0","2FF0E9504B6C45D4B0B2646794D10C4A","2FF0E9504B6C45D4B0B2646794D10C4A","1f2b29af-2a67-41a2-9276-86dfb84ab7a8","54f8d589-66fc-4c65-830f-1dcc63bce8cc","{""participantId"":""2FF0E9504B6C45D4B0B2646794D10C4A"",""assignmentId"":""1f2b29af-2a67-41a2-9276-86dfb84ab7a8"",""projectId"":""54f8d589-66fc-4c65-830f-1dcc63bce8cc""}","https://test12345.live/?participantId=2FF0E9504B6C45D4B0B2646794D10C4A&assignmentId=1f2b29af-2a67-41a2-9276-86dfb84ab7a8&projectId=54f8d589-66fc-4c65-830f-1dcc63bce8cc","","null","<div style=""display: flex; justify-content: center; align-items: center;"">
                    <img src=""images/semantic/semantic_series_8/semantic_series_8_b.jpg"" style=""width: 300px; height: 300px;"" />
                  </div>","null","",""
"","","","","","html-keyboard-response","50","137925","0.0-37.0-2.0","2FF0E9504B6C45D4B0B2646794D10C4A","2FF0E9504B6C45D4B0B2646794D10C4A","1f2b29af-2a67-41a2-9276-86dfb84ab7a8","54f8d589-66fc-4c65-830f-1dcc63bce8cc","{""participantId"":""2FF0E9504B6C45D4B0B2646794D10C4A"",""assignmentId"":""1f2b29af-2a67-41a2-9276-86dfb84ab7a8"",""projectId"":""54f8d589-66fc-4c65-830f-1dcc63bce8cc""}","https://test12345.live/?participantId=2FF0E9504B6C45D4B0B2646794D10C4A&assignmentId=1f2b29af-2a67-41a2-9276-86dfb84ab7a8&projectId=54f8d589-66fc-4c65-830f-1dcc63bce8cc","","null","<div style=""display: flex; justify-content: center; align-items: center;"">
                    <img src=""images/semantic/semantic_series_8/semantic_series_8_c.jpg"" style=""width: 300px; height: 300px;"" />
                  </div>","null","",""
"","","","","","html-keyboard-response","51","140934","0.0-37.0-3.0","2FF0E9504B6C45D4B0B2646794D10C4A","2FF0E9504B6C45D4B0B2646794D10C4A","1f2b29af-2a67-41a2-9276-86dfb84ab7a8","54f8d589-66fc-4c65-830f-1dcc63bce8cc","{""participantId"":""2FF0E9504B6C45D4B0B2646794D10C4A"",""assignmentId"":""1f2b29af-2a67-41a2-9276-86dfb84ab7a8"",""projectId"":""54f8d589-66fc-4c65-830f-1dcc63bce8cc""}","https://test12345.live/?participantId=2FF0E9504B6C45D4B0B2646794D10C4A&assignmentId=1f2b29af-2a67-41a2-9276-86dfb84ab7a8&projectId=54f8d589-66fc-4c65-830f-1dcc63bce8cc","","null","<div style=""display: flex; justify-content: center; align-items: center;"">
                    <img src=""images/semantic/semantic_series_8/semantic_series_8_d.jpg"" style=""width: 300px; height: 300px;"" />
                  </div>","null","",""
"","","","","","html-button-response","52","141949","0.0-38.0","2FF0E9504B6C45D4B0B2646794D10C4A","2FF0E9504B6C45D4B0B2646794D10C4A","1f2b29af-2a67-41a2-9276-86dfb84ab7a8","54f8d589-66fc-4c65-830f-1dcc63bce8cc","{""participantId"":""2FF0E9504B6C45D4B0B2646794D10C4A"",""assignmentId"":""1f2b29af-2a67-41a2-9276-86dfb84ab7a8"",""projectId"":""54f8d589-66fc-4c65-830f-1dcc63bce8cc""}","https://test12345.live/?participantId=2FF0E9504B6C45D4B0B2646794D10C4A&assignmentId=1f2b29af-2a67-41a2-9276-86dfb84ab7a8&projectId=54f8d589-66fc-4c65-830f-1dcc63bce8cc","","1014","Was there a person in the picture?","1","",""
"","","","","","survey-likert","53","143581","0.0-39.0","2FF0E9504B6C45D4B0B2646794D10C4A","2FF0E9504B6C45D4B0B2646794D10C4A","1f2b29af-2a67-41a2-9276-86dfb84ab7a8","54f8d589-66fc-4c65-830f-1dcc63bce8cc","{""participantId"":""2FF0E9504B6C45D4B0B2646794D10C4A"",""assignmentId"":""1f2b29af-2a67-41a2-9276-86dfb84ab7a8"",""projectId"":""54f8d589-66fc-4c65-830f-1dcc63bce8cc""}","https://test12345.live/?participantId=2FF0E9504B6C45D4B0B2646794D10C4A&assignmentId=1f2b29af-2a67-41a2-9276-86dfb84ab7a8&projectId=54f8d589-66fc-4c65-830f-1dcc63bce8cc","","1632","","{""Q0"":0}","","[0]"
"","","","","","html-button-response","54","144614","0.0-40.0","2FF0E9504B6C45D4B0B2646794D10C4A","2FF0E9504B6C45D4B0B2646794D10C4A","1f2b29af-2a67-41a2-9276-86dfb84ab7a8","54f8d589-66fc-4c65-830f-1dcc63bce8cc","{""participantId"":""2FF0E9504B6C45D4B0B2646794D10C4A"",""assignmentId"":""1f2b29af-2a67-41a2-9276-86dfb84ab7a8"",""projectId"":""54f8d589-66fc-4c65-830f-1dcc63bce8cc""}","https://test12345.live/?participantId=2FF0E9504B6C45D4B0B2646794D10C4A&assignmentId=1f2b29af-2a67-41a2-9276-86dfb84ab7a8&projectId=54f8d589-66fc-4c65-830f-1dcc63bce8cc","","1033","
    <div style=""display: flex; justify-content: center; align-items: center;"">
      <img src=""images/red_deck_2.png"" style=""width: 300px; height: 300px; margin-right: 10px;"" />
      <img src=""images/blue_deck_1.png"" style=""width: 300px; height: 300px;"" />
    </div>","0","0",""
"","","","","","html-keyboard-response","55","147624","0.0-41.0-0.0","2FF0E9504B6C45D4B0B2646794D10C4A","2FF0E9504B6C45D4B0B2646794D10C4A","1f2b29af-2a67-41a2-9276-86dfb84ab7a8","54f8d589-66fc-4c65-830f-1dcc63bce8cc","{""participantId"":""2FF0E9504B6C45D4B0B2646794D10C4A"",""assignmentId"":""1f2b29af-2a67-41a2-9276-86dfb84ab7a8"",""projectId"":""54f8d589-66fc-4c65-830f-1dcc63bce8cc""}","https://test12345.live/?participantId=2FF0E9504B6C45D4B0B2646794D10C4A&assignmentId=1f2b29af-2a67-41a2-9276-86dfb84ab7a8&projectId=54f8d589-66fc-4c65-830f-1dcc63bce8cc","","null","<div style=""display: flex; justify-content: center; align-items: center;"">
                    <img src=""images/causal/causal_series_11/causal_series_11_a.jpg"" style=""width: 300px; height: 300px;"" />
                  </div>","null","",""
"","","","","","html-keyboard-response","56","150631","0.0-41.0-1.0","2FF0E9504B6C45D4B0B2646794D10C4A","2FF0E9504B6C45D4B0B2646794D10C4A","1f2b29af-2a67-41a2-9276-86dfb84ab7a8","54f8d589-66fc-4c65-830f-1dcc63bce8cc","{""participantId"":""2FF0E9504B6C45D4B0B2646794D10C4A"",""assignmentId"":""1f2b29af-2a67-41a2-9276-86dfb84ab7a8"",""projectId"":""54f8d589-66fc-4c65-830f-1dcc63bce8cc""}","https://test12345.live/?participantId=2FF0E9504B6C45D4B0B2646794D10C4A&assignmentId=1f2b29af-2a67-41a2-9276-86dfb84ab7a8&projectId=54f8d589-66fc-4c65-830f-1dcc63bce8cc","","null","<div style=""display: flex; justify-content: center; align-items: center;"">
                    <img src=""images/causal/causal_series_11/causal_series_11_b.jpg"" style=""width: 300px; height: 300px;"" />
                  </div>","null","",""
"","","","","","html-keyboard-response","57","153636","0.0-41.0-2.0","2FF0E9504B6C45D4B0B2646794D10C4A","2FF0E9504B6C45D4B0B2646794D10C4A","1f2b29af-2a67-41a2-9276-86dfb84ab7a8","54f8d589-66fc-4c65-830f-1dcc63bce8cc","{""participantId"":""2FF0E9504B6C45D4B0B2646794D10C4A"",""assignmentId"":""1f2b29af-2a67-41a2-9276-86dfb84ab7a8"",""projectId"":""54f8d589-66fc-4c65-830f-1dcc63bce8cc""}","https://test12345.live/?participantId=2FF0E9504B6C45D4B0B2646794D10C4A&assignmentId=1f2b29af-2a67-41a2-9276-86dfb84ab7a8&projectId=54f8d589-66fc-4c65-830f-1dcc63bce8cc","","null","<div style=""display: flex; justify-content: center; align-items: center;"">
                    <img src=""images/causal/causal_series_11/causal_series_11_c.jpg"" style=""width: 300px; height: 300px;"" />
                  </div>","null","",""
"","","","","","html-keyboard-response","58","156649","0.0-41.0-3.0","2FF0E9504B6C45D4B0B2646794D10C4A","2FF0E9504B6C45D4B0B2646794D10C4A","1f2b29af-2a67-41a2-9276-86dfb84ab7a8","54f8d589-66fc-4c65-830f-1dcc63bce8cc","{""participantId"":""2FF0E9504B6C45D4B0B2646794D10C4A"",""assignmentId"":""1f2b29af-2a67-41a2-9276-86dfb84ab7a8"",""projectId"":""54f8d589-66fc-4c65-830f-1dcc63bce8cc""}","https://test12345.live/?participantId=2FF0E9504B6C45D4B0B2646794D10C4A&assignmentId=1f2b29af-2a67-41a2-9276-86dfb84ab7a8&projectId=54f8d589-66fc-4c65-830f-1dcc63bce8cc","","null","<div style=""display: flex; justify-content: center; align-items: center;"">
                    <img src=""images/causal/causal_series_11/causal_series_11_d.jpg"" style=""width: 300px; height: 300px;"" />
                  </div>","null","",""
"","","","","","html-button-response","59","157797","0.0-43.0","2FF0E9504B6C45D4B0B2646794D10C4A","2FF0E9504B6C45D4B0B2646794D10C4A","1f2b29af-2a67-41a2-9276-86dfb84ab7a8","54f8d589-66fc-4c65-830f-1dcc63bce8cc","{""participantId"":""2FF0E9504B6C45D4B0B2646794D10C4A"",""assignmentId"":""1f2b29af-2a67-41a2-9276-86dfb84ab7a8"",""projectId"":""54f8d589-66fc-4c65-830f-1dcc63bce8cc""}","https://test12345.live/?participantId=2FF0E9504B6C45D4B0B2646794D10C4A&assignmentId=1f2b29af-2a67-41a2-9276-86dfb84ab7a8&projectId=54f8d589-66fc-4c65-830f-1dcc63bce8cc","","1147","Was there a person in the picture?","0","",""
"","","","","","survey-likert","60","160817","0.0-44.0","2FF0E9504B6C45D4B0B2646794D10C4A","2FF0E9504B6C45D4B0B2646794D10C4A","1f2b29af-2a67-41a2-9276-86dfb84ab7a8","54f8d589-66fc-4c65-830f-1dcc63bce8cc","{""participantId"":""2FF0E9504B6C45D4B0B2646794D10C4A"",""assignmentId"":""1f2b29af-2a67-41a2-9276-86dfb84ab7a8"",""projectId"":""54f8d589-66fc-4c65-830f-1dcc63bce8cc""}","https://test12345.live/?participantId=2FF0E9504B6C45D4B0B2646794D10C4A&assignmentId=1f2b29af-2a67-41a2-9276-86dfb84ab7a8&projectId=54f8d589-66fc-4c65-830f-1dcc63bce8cc","","3020","","{""Q0"":2}","","[0]"
"","","","","","html-button-response","61","161638","0.0-45.0","2FF0E9504B6C45D4B0B2646794D10C4A","2FF0E9504B6C45D4B0B2646794D10C4A","1f2b29af-2a67-41a2-9276-86dfb84ab7a8","54f8d589-66fc-4c65-830f-1dcc63bce8cc","{""participantId"":""2FF0E9504B6C45D4B0B2646794D10C4A"",""assignmentId"":""1f2b29af-2a67-41a2-9276-86dfb84ab7a8"",""projectId"":""54f8d589-66fc-4c65-830f-1dcc63bce8cc""}","https://test12345.live/?participantId=2FF0E9504B6C45D4B0B2646794D10C4A&assignmentId=1f2b29af-2a67-41a2-9276-86dfb84ab7a8&projectId=54f8d589-66fc-4c65-830f-1dcc63bce8cc","","821","
    <div style=""display: flex; justify-content: center; align-items: center;"">
      <img src=""images/red_deck_2.png"" style=""width: 300px; height: 300px; margin-right: 10px;"" />
      <img src=""images/blue_deck_1.png"" style=""width: 300px; height: 300px;"" />
    </div>","0","0",""
"","","","","","html-keyboard-response","62","164642","0.0-46.0-0.0","2FF0E9504B6C45D4B0B2646794D10C4A","2FF0E9504B6C45D4B0B2646794D10C4A","1f2b29af-2a67-41a2-9276-86dfb84ab7a8","54f8d589-66fc-4c65-830f-1dcc63bce8cc","{""participantId"":""2FF0E9504B6C45D4B0B2646794D10C4A"",""assignmentId"":""1f2b29af-2a67-41a2-9276-86dfb84ab7a8"",""projectId"":""54f8d589-66fc-4c65-830f-1dcc63bce8cc""}","https://test12345.live/?participantId=2FF0E9504B6C45D4B0B2646794D10C4A&assignmentId=1f2b29af-2a67-41a2-9276-86dfb84ab7a8&projectId=54f8d589-66fc-4c65-830f-1dcc63bce8cc","","null","<div style=""display: flex; justify-content: center; align-items: center;"">
                    <img src=""images/causal/causal_series_8/causal_series_8_a.jpg"" style=""width: 300px; height: 300px;"" />
                  </div>","null","",""
"","","","","","html-keyboard-response","63","167650","0.0-46.0-1.0","2FF0E9504B6C45D4B0B2646794D10C4A","2FF0E9504B6C45D4B0B2646794D10C4A","1f2b29af-2a67-41a2-9276-86dfb84ab7a8","54f8d589-66fc-4c65-830f-1dcc63bce8cc","{""participantId"":""2FF0E9504B6C45D4B0B2646794D10C4A"",""assignmentId"":""1f2b29af-2a67-41a2-9276-86dfb84ab7a8"",""projectId"":""54f8d589-66fc-4c65-830f-1dcc63bce8cc""}","https://test12345.live/?participantId=2FF0E9504B6C45D4B0B2646794D10C4A&assignmentId=1f2b29af-2a67-41a2-9276-86dfb84ab7a8&projectId=54f8d589-66fc-4c65-830f-1dcc63bce8cc","","null","<div style=""display: flex; justify-content: center; align-items: center;"">
                    <img src=""images/causal/causal_series_8/causal_series_8_b.jpg"" style=""width: 300px; height: 300px;"" />
                  </div>","null","",""
"","","","","","html-keyboard-response","64","170655","0.0-46.0-2.0","2FF0E9504B6C45D4B0B2646794D10C4A","2FF0E9504B6C45D4B0B2646794D10C4A","1f2b29af-2a67-41a2-9276-86dfb84ab7a8","54f8d589-66fc-4c65-830f-1dcc63bce8cc","{""participantId"":""2FF0E9504B6C45D4B0B2646794D10C4A"",""assignmentId"":""1f2b29af-2a67-41a2-9276-86dfb84ab7a8"",""projectId"":""54f8d589-66fc-4c65-830f-1dcc63bce8cc""}","https://test12345.live/?participantId=2FF0E9504B6C45D4B0B2646794D10C4A&assignmentId=1f2b29af-2a67-41a2-9276-86dfb84ab7a8&projectId=54f8d589-66fc-4c65-830f-1dcc63bce8cc","","null","<div style=""display: flex; justify-content: center; align-items: center;"">
                    <img src=""images/causal/causal_series_8/causal_series_8_c.jpg"" style=""width: 300px; height: 300px;"" />
                  </div>","null","",""
"","","","","","html-keyboard-response","65","173665","0.0-46.0-3.0","2FF0E9504B6C45D4B0B2646794D10C4A","2FF0E9504B6C45D4B0B2646794D10C4A","1f2b29af-2a67-41a2-9276-86dfb84ab7a8","54f8d589-66fc-4c65-830f-1dcc63bce8cc","{""participantId"":""2FF0E9504B6C45D4B0B2646794D10C4A"",""assignmentId"":""1f2b29af-2a67-41a2-9276-86dfb84ab7a8"",""projectId"":""54f8d589-66fc-4c65-830f-1dcc63bce8cc""}","https://test12345.live/?participantId=2FF0E9504B6C45D4B0B2646794D10C4A&assignmentId=1f2b29af-2a67-41a2-9276-86dfb84ab7a8&projectId=54f8d589-66fc-4c65-830f-1dcc63bce8cc","","null","<div style=""display: flex; justify-content: center; align-items: center;"">
                    <img src=""images/causal/causal_series_8/causal_series_8_d.jpg"" style=""width: 300px; height: 300px;"" />
                  </div>","null","",""
"","","","","","html-button-response","66","175159","0.0-48.0","2FF0E9504B6C45D4B0B2646794D10C4A","2FF0E9504B6C45D4B0B2646794D10C4A","1f2b29af-2a67-41a2-9276-86dfb84ab7a8","54f8d589-66fc-4c65-830f-1dcc63bce8cc","{""participantId"":""2FF0E9504B6C45D4B0B2646794D10C4A"",""assignmentId"":""1f2b29af-2a67-41a2-9276-86dfb84ab7a8"",""projectId"":""54f8d589-66fc-4c65-830f-1dcc63bce8cc""}","https://test12345.live/?participantId=2FF0E9504B6C45D4B0B2646794D10C4A&assignmentId=1f2b29af-2a67-41a2-9276-86dfb84ab7a8&projectId=54f8d589-66fc-4c65-830f-1dcc63bce8cc","","1494","Was there a person in the picture?","0","",""
"","","","","","survey-likert","67","177063","0.0-49.0","2FF0E9504B6C45D4B0B2646794D10C4A","2FF0E9504B6C45D4B0B2646794D10C4A","1f2b29af-2a67-41a2-9276-86dfb84ab7a8","54f8d589-66fc-4c65-830f-1dcc63bce8cc","{""participantId"":""2FF0E9504B6C45D4B0B2646794D10C4A"",""assignmentId"":""1f2b29af-2a67-41a2-9276-86dfb84ab7a8"",""projectId"":""54f8d589-66fc-4c65-830f-1dcc63bce8cc""}","https://test12345.live/?participantId=2FF0E9504B6C45D4B0B2646794D10C4A&assignmentId=1f2b29af-2a67-41a2-9276-86dfb84ab7a8&projectId=54f8d589-66fc-4c65-830f-1dcc63bce8cc","","1903","","{""Q0"":0}","","[0]"
"","","","","","html-button-response","68","177760","0.0-50.0","2FF0E9504B6C45D4B0B2646794D10C4A","2FF0E9504B6C45D4B0B2646794D10C4A","1f2b29af-2a67-41a2-9276-86dfb84ab7a8","54f8d589-66fc-4c65-830f-1dcc63bce8cc","{""participantId"":""2FF0E9504B6C45D4B0B2646794D10C4A"",""assignmentId"":""1f2b29af-2a67-41a2-9276-86dfb84ab7a8"",""projectId"":""54f8d589-66fc-4c65-830f-1dcc63bce8cc""}","https://test12345.live/?participantId=2FF0E9504B6C45D4B0B2646794D10C4A&assignmentId=1f2b29af-2a67-41a2-9276-86dfb84ab7a8&projectId=54f8d589-66fc-4c65-830f-1dcc63bce8cc","","696","
    <div style=""display: flex; justify-content: center; align-items: center;"">
      <img src=""images/red_deck_2.png"" style=""width: 300px; height: 300px; margin-right: 10px;"" />
      <img src=""images/blue_deck_1.png"" style=""width: 300px; height: 300px;"" />
    </div>","0","0",""
"","","","","","html-keyboard-response","69","180764","0.0-51.0-0.0","2FF0E9504B6C45D4B0B2646794D10C4A","2FF0E9504B6C45D4B0B2646794D10C4A","1f2b29af-2a67-41a2-9276-86dfb84ab7a8","54f8d589-66fc-4c65-830f-1dcc63bce8cc","{""participantId"":""2FF0E9504B6C45D4B0B2646794D10C4A"",""assignmentId"":""1f2b29af-2a67-41a2-9276-86dfb84ab7a8"",""projectId"":""54f8d589-66fc-4c65-830f-1dcc63bce8cc""}","https://test12345.live/?participantId=2FF0E9504B6C45D4B0B2646794D10C4A&assignmentId=1f2b29af-2a67-41a2-9276-86dfb84ab7a8&projectId=54f8d589-66fc-4c65-830f-1dcc63bce8cc","","null","<div style=""display: flex; justify-content: center; align-items: center;"">
                    <img src=""images/causal/causal_series_2/causal_series_2_a.jpg"" style=""width: 300px; height: 300px;"" />
                  </div>","null","",""
"","","","","","html-keyboard-response","70","183770","0.0-51.0-1.0","2FF0E9504B6C45D4B0B2646794D10C4A","2FF0E9504B6C45D4B0B2646794D10C4A","1f2b29af-2a67-41a2-9276-86dfb84ab7a8","54f8d589-66fc-4c65-830f-1dcc63bce8cc","{""participantId"":""2FF0E9504B6C45D4B0B2646794D10C4A"",""assignmentId"":""1f2b29af-2a67-41a2-9276-86dfb84ab7a8"",""projectId"":""54f8d589-66fc-4c65-830f-1dcc63bce8cc""}","https://test12345.live/?participantId=2FF0E9504B6C45D4B0B2646794D10C4A&assignmentId=1f2b29af-2a67-41a2-9276-86dfb84ab7a8&projectId=54f8d589-66fc-4c65-830f-1dcc63bce8cc","","null","<div style=""display: flex; justify-content: center; align-items: center;"">
                    <img src=""images/causal/causal_series_2/causal_series_2_b.jpg"" style=""width: 300px; height: 300px;"" />
                  </div>","null","",""
"","","","","","html-keyboard-response","71","186778","0.0-51.0-2.0","2FF0E9504B6C45D4B0B2646794D10C4A","2FF0E9504B6C45D4B0B2646794D10C4A","1f2b29af-2a67-41a2-9276-86dfb84ab7a8","54f8d589-66fc-4c65-830f-1dcc63bce8cc","{""participantId"":""2FF0E9504B6C45D4B0B2646794D10C4A"",""assignmentId"":""1f2b29af-2a67-41a2-9276-86dfb84ab7a8"",""projectId"":""54f8d589-66fc-4c65-830f-1dcc63bce8cc""}","https://test12345.live/?participantId=2FF0E9504B6C45D4B0B2646794D10C4A&assignmentId=1f2b29af-2a67-41a2-9276-86dfb84ab7a8&projectId=54f8d589-66fc-4c65-830f-1dcc63bce8cc","","null","<div style=""display: flex; justify-content: center; align-items: center;"">
                    <img src=""images/causal/causal_series_2/causal_series_2_c.jpg"" style=""width: 300px; height: 300px;"" />
                  </div>","null","",""
"","","","","","html-keyboard-response","72","189779","0.0-51.0-3.0","2FF0E9504B6C45D4B0B2646794D10C4A","2FF0E9504B6C45D4B0B2646794D10C4A","1f2b29af-2a67-41a2-9276-86dfb84ab7a8","54f8d589-66fc-4c65-830f-1dcc63bce8cc","{""participantId"":""2FF0E9504B6C45D4B0B2646794D10C4A"",""assignmentId"":""1f2b29af-2a67-41a2-9276-86dfb84ab7a8"",""projectId"":""54f8d589-66fc-4c65-830f-1dcc63bce8cc""}","https://test12345.live/?participantId=2FF0E9504B6C45D4B0B2646794D10C4A&assignmentId=1f2b29af-2a67-41a2-9276-86dfb84ab7a8&projectId=54f8d589-66fc-4c65-830f-1dcc63bce8cc","","null","<div style=""display: flex; justify-content: center; align-items: center;"">
                    <img src=""images/causal/causal_series_2/causal_series_2_d.jpg"" style=""width: 300px; height: 300px;"" />
                  </div>","null","",""
"","","","","","html-button-response","73","191004","0.0-53.0","2FF0E9504B6C45D4B0B2646794D10C4A","2FF0E9504B6C45D4B0B2646794D10C4A","1f2b29af-2a67-41a2-9276-86dfb84ab7a8","54f8d589-66fc-4c65-830f-1dcc63bce8cc","{""participantId"":""2FF0E9504B6C45D4B0B2646794D10C4A"",""assignmentId"":""1f2b29af-2a67-41a2-9276-86dfb84ab7a8"",""projectId"":""54f8d589-66fc-4c65-830f-1dcc63bce8cc""}","https://test12345.live/?participantId=2FF0E9504B6C45D4B0B2646794D10C4A&assignmentId=1f2b29af-2a67-41a2-9276-86dfb84ab7a8&projectId=54f8d589-66fc-4c65-830f-1dcc63bce8cc","","1225","Was there a person in the picture?","0","",""
"","","","","","survey-likert","74","192497","0.0-54.0","2FF0E9504B6C45D4B0B2646794D10C4A","2FF0E9504B6C45D4B0B2646794D10C4A","1f2b29af-2a67-41a2-9276-86dfb84ab7a8","54f8d589-66fc-4c65-830f-1dcc63bce8cc","{""participantId"":""2FF0E9504B6C45D4B0B2646794D10C4A"",""assignmentId"":""1f2b29af-2a67-41a2-9276-86dfb84ab7a8"",""projectId"":""54f8d589-66fc-4c65-830f-1dcc63bce8cc""}","https://test12345.live/?participantId=2FF0E9504B6C45D4B0B2646794D10C4A&assignmentId=1f2b29af-2a67-41a2-9276-86dfb84ab7a8&projectId=54f8d589-66fc-4c65-830f-1dcc63bce8cc","","1492","","{""Q0"":0}","","[0]"
"","","","","","html-button-response","75","193307","0.0-55.0","2FF0E9504B6C45D4B0B2646794D10C4A","2FF0E9504B6C45D4B0B2646794D10C4A","1f2b29af-2a67-41a2-9276-86dfb84ab7a8","54f8d589-66fc-4c65-830f-1dcc63bce8cc","{""participantId"":""2FF0E9504B6C45D4B0B2646794D10C4A"",""assignmentId"":""1f2b29af-2a67-41a2-9276-86dfb84ab7a8"",""projectId"":""54f8d589-66fc-4c65-830f-1dcc63bce8cc""}","https://test12345.live/?participantId=2FF0E9504B6C45D4B0B2646794D10C4A&assignmentId=1f2b29af-2a67-41a2-9276-86dfb84ab7a8&projectId=54f8d589-66fc-4c65-830f-1dcc63bce8cc","","810","
    <div style=""display: flex; justify-content: center; align-items: center;"">
      <img src=""images/red_deck_2.png"" style=""width: 300px; height: 300px; margin-right: 10px;"" />
      <img src=""images/blue_deck_1.png"" style=""width: 300px; height: 300px;"" />
    </div>","0","0",""
"","","","","","html-keyboard-response","76","196308","0.0-56.0-0.0","2FF0E9504B6C45D4B0B2646794D10C4A","2FF0E9504B6C45D4B0B2646794D10C4A","1f2b29af-2a67-41a2-9276-86dfb84ab7a8","54f8d589-66fc-4c65-830f-1dcc63bce8cc","{""participantId"":""2FF0E9504B6C45D4B0B2646794D10C4A"",""assignmentId"":""1f2b29af-2a67-41a2-9276-86dfb84ab7a8"",""projectId"":""54f8d589-66fc-4c65-830f-1dcc63bce8cc""}","https://test12345.live/?participantId=2FF0E9504B6C45D4B0B2646794D10C4A&assignmentId=1f2b29af-2a67-41a2-9276-86dfb84ab7a8&projectId=54f8d589-66fc-4c65-830f-1dcc63bce8cc","","null","<div style=""display: flex; justify-content: center; align-items: center;"">
                    <img src=""images/causal/causal_series_13/causal_series_13_a.jpg"" style=""width: 300px; height: 300px;"" />
                  </div>","null","",""
"","","","","","html-keyboard-response","77","199315","0.0-56.0-1.0","2FF0E9504B6C45D4B0B2646794D10C4A","2FF0E9504B6C45D4B0B2646794D10C4A","1f2b29af-2a67-41a2-9276-86dfb84ab7a8","54f8d589-66fc-4c65-830f-1dcc63bce8cc","{""participantId"":""2FF0E9504B6C45D4B0B2646794D10C4A"",""assignmentId"":""1f2b29af-2a67-41a2-9276-86dfb84ab7a8"",""projectId"":""54f8d589-66fc-4c65-830f-1dcc63bce8cc""}","https://test12345.live/?participantId=2FF0E9504B6C45D4B0B2646794D10C4A&assignmentId=1f2b29af-2a67-41a2-9276-86dfb84ab7a8&projectId=54f8d589-66fc-4c65-830f-1dcc63bce8cc","","null","<div style=""display: flex; justify-content: center; align-items: center;"">
                    <img src=""images/causal/causal_series_13/causal_series_13_b.jpg"" style=""width: 300px; height: 300px;"" />
                  </div>","null","",""
"","","","","","html-keyboard-response","78","202327","0.0-56.0-2.0","2FF0E9504B6C45D4B0B2646794D10C4A","2FF0E9504B6C45D4B0B2646794D10C4A","1f2b29af-2a67-41a2-9276-86dfb84ab7a8","54f8d589-66fc-4c65-830f-1dcc63bce8cc","{""participantId"":""2FF0E9504B6C45D4B0B2646794D10C4A"",""assignmentId"":""1f2b29af-2a67-41a2-9276-86dfb84ab7a8"",""projectId"":""54f8d589-66fc-4c65-830f-1dcc63bce8cc""}","https://test12345.live/?participantId=2FF0E9504B6C45D4B0B2646794D10C4A&assignmentId=1f2b29af-2a67-41a2-9276-86dfb84ab7a8&projectId=54f8d589-66fc-4c65-830f-1dcc63bce8cc","","null","<div style=""display: flex; justify-content: center; align-items: center;"">
                    <img src=""images/causal/causal_series_13/causal_series_13_c.jpg"" style=""width: 300px; height: 300px;"" />
                  </div>","null","",""
"","","","","","html-keyboard-response","79","205329","0.0-56.0-3.0","2FF0E9504B6C45D4B0B2646794D10C4A","2FF0E9504B6C45D4B0B2646794D10C4A","1f2b29af-2a67-41a2-9276-86dfb84ab7a8","54f8d589-66fc-4c65-830f-1dcc63bce8cc","{""participantId"":""2FF0E9504B6C45D4B0B2646794D10C4A"",""assignmentId"":""1f2b29af-2a67-41a2-9276-86dfb84ab7a8"",""projectId"":""54f8d589-66fc-4c65-830f-1dcc63bce8cc""}","https://test12345.live/?participantId=2FF0E9504B6C45D4B0B2646794D10C4A&assignmentId=1f2b29af-2a67-41a2-9276-86dfb84ab7a8&projectId=54f8d589-66fc-4c65-830f-1dcc63bce8cc","","null","<div style=""display: flex; justify-content: center; align-items: center;"">
                    <img src=""images/causal/causal_series_13/causal_series_13_d.jpg"" style=""width: 300px; height: 300px;"" />
                  </div>","null","",""
"","","","","","html-button-response","80","206939","0.0-58.0","2FF0E9504B6C45D4B0B2646794D10C4A","2FF0E9504B6C45D4B0B2646794D10C4A","1f2b29af-2a67-41a2-9276-86dfb84ab7a8","54f8d589-66fc-4c65-830f-1dcc63bce8cc","{""participantId"":""2FF0E9504B6C45D4B0B2646794D10C4A"",""assignmentId"":""1f2b29af-2a67-41a2-9276-86dfb84ab7a8"",""projectId"":""54f8d589-66fc-4c65-830f-1dcc63bce8cc""}","https://test12345.live/?participantId=2FF0E9504B6C45D4B0B2646794D10C4A&assignmentId=1f2b29af-2a67-41a2-9276-86dfb84ab7a8&projectId=54f8d589-66fc-4c65-830f-1dcc63bce8cc","","1609","Was there a person in the picture?","0","",""
"","","","","","survey-likert","81","208671","0.0-59.0","2FF0E9504B6C45D4B0B2646794D10C4A","2FF0E9504B6C45D4B0B2646794D10C4A","1f2b29af-2a67-41a2-9276-86dfb84ab7a8","54f8d589-66fc-4c65-830f-1dcc63bce8cc","{""participantId"":""2FF0E9504B6C45D4B0B2646794D10C4A"",""assignmentId"":""1f2b29af-2a67-41a2-9276-86dfb84ab7a8"",""projectId"":""54f8d589-66fc-4c65-830f-1dcc63bce8cc""}","https://test12345.live/?participantId=2FF0E9504B6C45D4B0B2646794D10C4A&assignmentId=1f2b29af-2a67-41a2-9276-86dfb84ab7a8&projectId=54f8d589-66fc-4c65-830f-1dcc63bce8cc","","1731","","{""Q0"":0}","","[0]"
"","","","","","html-button-response","82","209518","0.0-60.0","2FF0E9504B6C45D4B0B2646794D10C4A","2FF0E9504B6C45D4B0B2646794D10C4A","1f2b29af-2a67-41a2-9276-86dfb84ab7a8","54f8d589-66fc-4c65-830f-1dcc63bce8cc","{""participantId"":""2FF0E9504B6C45D4B0B2646794D10C4A"",""assignmentId"":""1f2b29af-2a67-41a2-9276-86dfb84ab7a8"",""projectId"":""54f8d589-66fc-4c65-830f-1dcc63bce8cc""}","https://test12345.live/?participantId=2FF0E9504B6C45D4B0B2646794D10C4A&assignmentId=1f2b29af-2a67-41a2-9276-86dfb84ab7a8&projectId=54f8d589-66fc-4c65-830f-1dcc63bce8cc","","847","
    <div style=""display: flex; justify-content: center; align-items: center;"">
      <img src=""images/red_deck_2.png"" style=""width: 300px; height: 300px; margin-right: 10px;"" />
      <img src=""images/blue_deck_1.png"" style=""width: 300px; height: 300px;"" />
    </div>","0","0",""
"","","","","","html-keyboard-response","83","212529","0.0-61.0-0.0","2FF0E9504B6C45D4B0B2646794D10C4A","2FF0E9504B6C45D4B0B2646794D10C4A","1f2b29af-2a67-41a2-9276-86dfb84ab7a8","54f8d589-66fc-4c65-830f-1dcc63bce8cc","{""participantId"":""2FF0E9504B6C45D4B0B2646794D10C4A"",""assignmentId"":""1f2b29af-2a67-41a2-9276-86dfb84ab7a8"",""projectId"":""54f8d589-66fc-4c65-830f-1dcc63bce8cc""}","https://test12345.live/?participantId=2FF0E9504B6C45D4B0B2646794D10C4A&assignmentId=1f2b29af-2a67-41a2-9276-86dfb84ab7a8&projectId=54f8d589-66fc-4c65-830f-1dcc63bce8cc","","null","<div style=""display: flex; justify-content: center; align-items: center;"">
                    <img src=""images/causal/causal_series_9/causal_series_9_a.jpg"" style=""width: 300px; height: 300px;"" />
                  </div>","null","",""
"","","","","","html-keyboard-response","84","215537","0.0-61.0-1.0","2FF0E9504B6C45D4B0B2646794D10C4A","2FF0E9504B6C45D4B0B2646794D10C4A","1f2b29af-2a67-41a2-9276-86dfb84ab7a8","54f8d589-66fc-4c65-830f-1dcc63bce8cc","{""participantId"":""2FF0E9504B6C45D4B0B2646794D10C4A"",""assignmentId"":""1f2b29af-2a67-41a2-9276-86dfb84ab7a8"",""projectId"":""54f8d589-66fc-4c65-830f-1dcc63bce8cc""}","https://test12345.live/?participantId=2FF0E9504B6C45D4B0B2646794D10C4A&assignmentId=1f2b29af-2a67-41a2-9276-86dfb84ab7a8&projectId=54f8d589-66fc-4c65-830f-1dcc63bce8cc","","null","<div style=""display: flex; justify-content: center; align-items: center;"">
                    <img src=""images/causal/causal_series_9/causal_series_9_b.jpg"" style=""width: 300px; height: 300px;"" />
                  </div>","null","",""
"","","","","","html-keyboard-response","85","218551","0.0-61.0-2.0","2FF0E9504B6C45D4B0B2646794D10C4A","2FF0E9504B6C45D4B0B2646794D10C4A","1f2b29af-2a67-41a2-9276-86dfb84ab7a8","54f8d589-66fc-4c65-830f-1dcc63bce8cc","{""participantId"":""2FF0E9504B6C45D4B0B2646794D10C4A"",""assignmentId"":""1f2b29af-2a67-41a2-9276-86dfb84ab7a8"",""projectId"":""54f8d589-66fc-4c65-830f-1dcc63bce8cc""}","https://test12345.live/?participantId=2FF0E9504B6C45D4B0B2646794D10C4A&assignmentId=1f2b29af-2a67-41a2-9276-86dfb84ab7a8&projectId=54f8d589-66fc-4c65-830f-1dcc63bce8cc","","null","<div style=""display: flex; justify-content: center; align-items: center;"">
                    <img src=""images/causal/causal_series_9/causal_series_9_c.jpg"" style=""width: 300px; height: 300px;"" />
                  </div>","null","",""
"","","","","","html-keyboard-response","86","221567","0.0-61.0-3.0","2FF0E9504B6C45D4B0B2646794D10C4A","2FF0E9504B6C45D4B0B2646794D10C4A","1f2b29af-2a67-41a2-9276-86dfb84ab7a8","54f8d589-66fc-4c65-830f-1dcc63bce8cc","{""participantId"":""2FF0E9504B6C45D4B0B2646794D10C4A"",""assignmentId"":""1f2b29af-2a67-41a2-9276-86dfb84ab7a8"",""projectId"":""54f8d589-66fc-4c65-830f-1dcc63bce8cc""}","https://test12345.live/?participantId=2FF0E9504B6C45D4B0B2646794D10C4A&assignmentId=1f2b29af-2a67-41a2-9276-86dfb84ab7a8&projectId=54f8d589-66fc-4c65-830f-1dcc63bce8cc","","null","<div style=""display: flex; justify-content: center; align-items: center;"">
                    <img src=""images/causal/causal_series_9/causal_series_9_d.jpg"" style=""width: 300px; height: 300px;"" />
                  </div>","null","",""
"","","","","","html-button-response","87","223312","0.0-63.0","2FF0E9504B6C45D4B0B2646794D10C4A","2FF0E9504B6C45D4B0B2646794D10C4A","1f2b29af-2a67-41a2-9276-86dfb84ab7a8","54f8d589-66fc-4c65-830f-1dcc63bce8cc","{""participantId"":""2FF0E9504B6C45D4B0B2646794D10C4A"",""assignmentId"":""1f2b29af-2a67-41a2-9276-86dfb84ab7a8"",""projectId"":""54f8d589-66fc-4c65-830f-1dcc63bce8cc""}","https://test12345.live/?participantId=2FF0E9504B6C45D4B0B2646794D10C4A&assignmentId=1f2b29af-2a67-41a2-9276-86dfb84ab7a8&projectId=54f8d589-66fc-4c65-830f-1dcc63bce8cc","","1744","Was there a person in the picture?","1","",""
"","","","","","survey-likert","88","225304","0.0-64.0","2FF0E9504B6C45D4B0B2646794D10C4A","2FF0E9504B6C45D4B0B2646794D10C4A","1f2b29af-2a67-41a2-9276-86dfb84ab7a8","54f8d589-66fc-4c65-830f-1dcc63bce8cc","{""participantId"":""2FF0E9504B6C45D4B0B2646794D10C4A"",""assignmentId"":""1f2b29af-2a67-41a2-9276-86dfb84ab7a8"",""projectId"":""54f8d589-66fc-4c65-830f-1dcc63bce8cc""}","https://test12345.live/?participantId=2FF0E9504B6C45D4B0B2646794D10C4A&assignmentId=1f2b29af-2a67-41a2-9276-86dfb84ab7a8&projectId=54f8d589-66fc-4c65-830f-1dcc63bce8cc","","1992","","{""Q0"":0}","","[0]"
"","","","","","html-button-response","89","227232","0.0-65.0","2FF0E9504B6C45D4B0B2646794D10C4A","2FF0E9504B6C45D4B0B2646794D10C4A","1f2b29af-2a67-41a2-9276-86dfb84ab7a8","54f8d589-66fc-4c65-830f-1dcc63bce8cc","{""participantId"":""2FF0E9504B6C45D4B0B2646794D10C4A"",""assignmentId"":""1f2b29af-2a67-41a2-9276-86dfb84ab7a8"",""projectId"":""54f8d589-66fc-4c65-830f-1dcc63bce8cc""}","https://test12345.live/?participantId=2FF0E9504B6C45D4B0B2646794D10C4A&assignmentId=1f2b29af-2a67-41a2-9276-86dfb84ab7a8&projectId=54f8d589-66fc-4c65-830f-1dcc63bce8cc","","1927","
    <div style=""display: flex; justify-content: center; align-items: center;"">
      <img src=""images/red_deck_2.png"" style=""width: 300px; height: 300px; margin-right: 10px;"" />
      <img src=""images/blue_deck_1.png"" style=""width: 300px; height: 300px;"" />
    </div>","0","0",""
"","","","","","html-keyboard-response","90","230238","0.0-66.0-0.0","2FF0E9504B6C45D4B0B2646794D10C4A","2FF0E9504B6C45D4B0B2646794D10C4A","1f2b29af-2a67-41a2-9276-86dfb84ab7a8","54f8d589-66fc-4c65-830f-1dcc63bce8cc","{""participantId"":""2FF0E9504B6C45D4B0B2646794D10C4A"",""assignmentId"":""1f2b29af-2a67-41a2-9276-86dfb84ab7a8"",""projectId"":""54f8d589-66fc-4c65-830f-1dcc63bce8cc""}","https://test12345.live/?participantId=2FF0E9504B6C45D4B0B2646794D10C4A&assignmentId=1f2b29af-2a67-41a2-9276-86dfb84ab7a8&projectId=54f8d589-66fc-4c65-830f-1dcc63bce8cc","","null","<div style=""display: flex; justify-content: center; align-items: center;"">
                    <img src=""images/causal/causal_series_6/causal_series_6_a.jpg"" style=""width: 300px; height: 300px;"" />
                  </div>","null","",""
"","","","","","html-keyboard-response","91","233254","0.0-66.0-1.0","2FF0E9504B6C45D4B0B2646794D10C4A","2FF0E9504B6C45D4B0B2646794D10C4A","1f2b29af-2a67-41a2-9276-86dfb84ab7a8","54f8d589-66fc-4c65-830f-1dcc63bce8cc","{""participantId"":""2FF0E9504B6C45D4B0B2646794D10C4A"",""assignmentId"":""1f2b29af-2a67-41a2-9276-86dfb84ab7a8"",""projectId"":""54f8d589-66fc-4c65-830f-1dcc63bce8cc""}","https://test12345.live/?participantId=2FF0E9504B6C45D4B0B2646794D10C4A&assignmentId=1f2b29af-2a67-41a2-9276-86dfb84ab7a8&projectId=54f8d589-66fc-4c65-830f-1dcc63bce8cc","","null","<div style=""display: flex; justify-content: center; align-items: center;"">
                    <img src=""images/causal/causal_series_6/causal_series_6_b.jpg"" style=""width: 300px; height: 300px;"" />
                  </div>","null","",""
"","","","","","html-keyboard-response","92","236255","0.0-66.0-2.0","2FF0E9504B6C45D4B0B2646794D10C4A","2FF0E9504B6C45D4B0B2646794D10C4A","1f2b29af-2a67-41a2-9276-86dfb84ab7a8","54f8d589-66fc-4c65-830f-1dcc63bce8cc","{""participantId"":""2FF0E9504B6C45D4B0B2646794D10C4A"",""assignmentId"":""1f2b29af-2a67-41a2-9276-86dfb84ab7a8"",""projectId"":""54f8d589-66fc-4c65-830f-1dcc63bce8cc""}","https://test12345.live/?participantId=2FF0E9504B6C45D4B0B2646794D10C4A&assignmentId=1f2b29af-2a67-41a2-9276-86dfb84ab7a8&projectId=54f8d589-66fc-4c65-830f-1dcc63bce8cc","","null","<div style=""display: flex; justify-content: center; align-items: center;"">
                    <img src=""images/causal/causal_series_6/causal_series_6_c.jpg"" style=""width: 300px; height: 300px;"" />
                  </div>","null","",""
"","","","","","html-keyboard-response","93","239270","0.0-66.0-3.0","2FF0E9504B6C45D4B0B2646794D10C4A","2FF0E9504B6C45D4B0B2646794D10C4A","1f2b29af-2a67-41a2-9276-86dfb84ab7a8","54f8d589-66fc-4c65-830f-1dcc63bce8cc","{""participantId"":""2FF0E9504B6C45D4B0B2646794D10C4A"",""assignmentId"":""1f2b29af-2a67-41a2-9276-86dfb84ab7a8"",""projectId"":""54f8d589-66fc-4c65-830f-1dcc63bce8cc""}","https://test12345.live/?participantId=2FF0E9504B6C45D4B0B2646794D10C4A&assignmentId=1f2b29af-2a67-41a2-9276-86dfb84ab7a8&projectId=54f8d589-66fc-4c65-830f-1dcc63bce8cc","","null","<div style=""display: flex; justify-content: center; align-items: center;"">
                    <img src=""images/causal/causal_series_6/causal_series_6_d.jpg"" style=""width: 300px; height: 300px;"" />
                  </div>","null","",""
"","","","","","html-button-response","94","240993","0.0-68.0","2FF0E9504B6C45D4B0B2646794D10C4A","2FF0E9504B6C45D4B0B2646794D10C4A","1f2b29af-2a67-41a2-9276-86dfb84ab7a8","54f8d589-66fc-4c65-830f-1dcc63bce8cc","{""participantId"":""2FF0E9504B6C45D4B0B2646794D10C4A"",""assignmentId"":""1f2b29af-2a67-41a2-9276-86dfb84ab7a8"",""projectId"":""54f8d589-66fc-4c65-830f-1dcc63bce8cc""}","https://test12345.live/?participantId=2FF0E9504B6C45D4B0B2646794D10C4A&assignmentId=1f2b29af-2a67-41a2-9276-86dfb84ab7a8&projectId=54f8d589-66fc-4c65-830f-1dcc63bce8cc","","1722","Was there a person in the picture?","1","",""
"","","","","","survey-likert","95","243041","0.0-69.0","2FF0E9504B6C45D4B0B2646794D10C4A","2FF0E9504B6C45D4B0B2646794D10C4A","1f2b29af-2a67-41a2-9276-86dfb84ab7a8","54f8d589-66fc-4c65-830f-1dcc63bce8cc","{""participantId"":""2FF0E9504B6C45D4B0B2646794D10C4A"",""assignmentId"":""1f2b29af-2a67-41a2-9276-86dfb84ab7a8"",""projectId"":""54f8d589-66fc-4c65-830f-1dcc63bce8cc""}","https://test12345.live/?participantId=2FF0E9504B6C45D4B0B2646794D10C4A&assignmentId=1f2b29af-2a67-41a2-9276-86dfb84ab7a8&projectId=54f8d589-66fc-4c65-830f-1dcc63bce8cc","","2047","","{""Q0"":0}","","[0]"
"","","","","","html-button-response","96","244052","0.0-70.0","2FF0E9504B6C45D4B0B2646794D10C4A","2FF0E9504B6C45D4B0B2646794D10C4A","1f2b29af-2a67-41a2-9276-86dfb84ab7a8","54f8d589-66fc-4c65-830f-1dcc63bce8cc","{""participantId"":""2FF0E9504B6C45D4B0B2646794D10C4A"",""assignmentId"":""1f2b29af-2a67-41a2-9276-86dfb84ab7a8"",""projectId"":""54f8d589-66fc-4c65-830f-1dcc63bce8cc""}","https://test12345.live/?participantId=2FF0E9504B6C45D4B0B2646794D10C4A&assignmentId=1f2b29af-2a67-41a2-9276-86dfb84ab7a8&projectId=54f8d589-66fc-4c65-830f-1dcc63bce8cc","","1010","
    <div style=""display: flex; justify-content: center; align-items: center;"">
      <img src=""images/red_deck_2.png"" style=""width: 300px; height: 300px; margin-right: 10px;"" />
      <img src=""images/blue_deck_1.png"" style=""width: 300px; height: 300px;"" />
    </div>","1","1",""
"","","","","","html-keyboard-response","97","247066","0.0-72.0-0.0","2FF0E9504B6C45D4B0B2646794D10C4A","2FF0E9504B6C45D4B0B2646794D10C4A","1f2b29af-2a67-41a2-9276-86dfb84ab7a8","54f8d589-66fc-4c65-830f-1dcc63bce8cc","{""participantId"":""2FF0E9504B6C45D4B0B2646794D10C4A"",""assignmentId"":""1f2b29af-2a67-41a2-9276-86dfb84ab7a8"",""projectId"":""54f8d589-66fc-4c65-830f-1dcc63bce8cc""}","https://test12345.live/?participantId=2FF0E9504B6C45D4B0B2646794D10C4A&assignmentId=1f2b29af-2a67-41a2-9276-86dfb84ab7a8&projectId=54f8d589-66fc-4c65-830f-1dcc63bce8cc","","null","<div style=""display: flex; justify-content: center; align-items: center;"">
                    <img src=""images/semantic/semantic_series_18/semantic_series_18_a.jpg"" style=""width: 300px; height: 300px;"" />
                  </div>","null","",""
"","","","","","html-keyboard-response","98","250069","0.0-72.0-1.0","2FF0E9504B6C45D4B0B2646794D10C4A","2FF0E9504B6C45D4B0B2646794D10C4A","1f2b29af-2a67-41a2-9276-86dfb84ab7a8","54f8d589-66fc-4c65-830f-1dcc63bce8cc","{""participantId"":""2FF0E9504B6C45D4B0B2646794D10C4A"",""assignmentId"":""1f2b29af-2a67-41a2-9276-86dfb84ab7a8"",""projectId"":""54f8d589-66fc-4c65-830f-1dcc63bce8cc""}","https://test12345.live/?participantId=2FF0E9504B6C45D4B0B2646794D10C4A&assignmentId=1f2b29af-2a67-41a2-9276-86dfb84ab7a8&projectId=54f8d589-66fc-4c65-830f-1dcc63bce8cc","","null","<div style=""display: flex; justify-content: center; align-items: center;"">
                    <img src=""images/semantic/semantic_series_18/semantic_series_18_b.jpg"" style=""width: 300px; height: 300px;"" />
                  </div>","null","",""
"","","","","","html-keyboard-response","99","253078","0.0-72.0-2.0","2FF0E9504B6C45D4B0B2646794D10C4A","2FF0E9504B6C45D4B0B2646794D10C4A","1f2b29af-2a67-41a2-9276-86dfb84ab7a8","54f8d589-66fc-4c65-830f-1dcc63bce8cc","{""participantId"":""2FF0E9504B6C45D4B0B2646794D10C4A"",""assignmentId"":""1f2b29af-2a67-41a2-9276-86dfb84ab7a8"",""projectId"":""54f8d589-66fc-4c65-830f-1dcc63bce8cc""}","https://test12345.live/?participantId=2FF0E9504B6C45D4B0B2646794D10C4A&assignmentId=1f2b29af-2a67-41a2-9276-86dfb84ab7a8&projectId=54f8d589-66fc-4c65-830f-1dcc63bce8cc","","null","<div style=""display: flex; justify-content: center; align-items: center;"">
                    <img src=""images/semantic/semantic_series_18/semantic_series_18_c.jpg"" style=""width: 300px; height: 300px;"" />
                  </div>","null","",""
"","","","","","html-keyboard-response","100","256087","0.0-72.0-3.0","2FF0E9504B6C45D4B0B2646794D10C4A","2FF0E9504B6C45D4B0B2646794D10C4A","1f2b29af-2a67-41a2-9276-86dfb84ab7a8","54f8d589-66fc-4c65-830f-1dcc63bce8cc","{""participantId"":""2FF0E9504B6C45D4B0B2646794D10C4A"",""assignmentId"":""1f2b29af-2a67-41a2-9276-86dfb84ab7a8"",""projectId"":""54f8d589-66fc-4c65-830f-1dcc63bce8cc""}","https://test12345.live/?participantId=2FF0E9504B6C45D4B0B2646794D10C4A&assignmentId=1f2b29af-2a67-41a2-9276-86dfb84ab7a8&projectId=54f8d589-66fc-4c65-830f-1dcc63bce8cc","","null","<div style=""display: flex; justify-content: center; align-items: center;"">
                    <img src=""images/semantic/semantic_series_18/semantic_series_18_d.jpg"" style=""width: 300px; height: 300px;"" />
                  </div>","null","",""
"","","","","","html-button-response","101","257523","0.0-73.0","2FF0E9504B6C45D4B0B2646794D10C4A","2FF0E9504B6C45D4B0B2646794D10C4A","1f2b29af-2a67-41a2-9276-86dfb84ab7a8","54f8d589-66fc-4c65-830f-1dcc63bce8cc","{""participantId"":""2FF0E9504B6C45D4B0B2646794D10C4A"",""assignmentId"":""1f2b29af-2a67-41a2-9276-86dfb84ab7a8"",""projectId"":""54f8d589-66fc-4c65-830f-1dcc63bce8cc""}","https://test12345.live/?participantId=2FF0E9504B6C45D4B0B2646794D10C4A&assignmentId=1f2b29af-2a67-41a2-9276-86dfb84ab7a8&projectId=54f8d589-66fc-4c65-830f-1dcc63bce8cc","","1435","Was there a person in the picture?","1","",""
"","","","","","survey-likert","102","259114","0.0-74.0","2FF0E9504B6C45D4B0B2646794D10C4A","2FF0E9504B6C45D4B0B2646794D10C4A","1f2b29af-2a67-41a2-9276-86dfb84ab7a8","54f8d589-66fc-4c65-830f-1dcc63bce8cc","{""participantId"":""2FF0E9504B6C45D4B0B2646794D10C4A"",""assignmentId"":""1f2b29af-2a67-41a2-9276-86dfb84ab7a8"",""projectId"":""54f8d589-66fc-4c65-830f-1dcc63bce8cc""}","https://test12345.live/?participantId=2FF0E9504B6C45D4B0B2646794D10C4A&assignmentId=1f2b29af-2a67-41a2-9276-86dfb84ab7a8&projectId=54f8d589-66fc-4c65-830f-1dcc63bce8cc","","1591","","{""Q0"":0}","","[0]"
"","","","","","html-button-response","103","259829","0.0-75.0","2FF0E9504B6C45D4B0B2646794D10C4A","2FF0E9504B6C45D4B0B2646794D10C4A","1f2b29af-2a67-41a2-9276-86dfb84ab7a8","54f8d589-66fc-4c65-830f-1dcc63bce8cc","{""participantId"":""2FF0E9504B6C45D4B0B2646794D10C4A"",""assignmentId"":""1f2b29af-2a67-41a2-9276-86dfb84ab7a8"",""projectId"":""54f8d589-66fc-4c65-830f-1dcc63bce8cc""}","https://test12345.live/?participantId=2FF0E9504B6C45D4B0B2646794D10C4A&assignmentId=1f2b29af-2a67-41a2-9276-86dfb84ab7a8&projectId=54f8d589-66fc-4c65-830f-1dcc63bce8cc","","714","
    <div style=""display: flex; justify-content: center; align-items: center;"">
      <img src=""images/red_deck_2.png"" style=""width: 300px; height: 300px; margin-right: 10px;"" />
      <img src=""images/blue_deck_1.png"" style=""width: 300px; height: 300px;"" />
    </div>","0","0",""
"","","","","","html-keyboard-response","104","262833","0.0-76.0-0.0","2FF0E9504B6C45D4B0B2646794D10C4A","2FF0E9504B6C45D4B0B2646794D10C4A","1f2b29af-2a67-41a2-9276-86dfb84ab7a8","54f8d589-66fc-4c65-830f-1dcc63bce8cc","{""participantId"":""2FF0E9504B6C45D4B0B2646794D10C4A"",""assignmentId"":""1f2b29af-2a67-41a2-9276-86dfb84ab7a8"",""projectId"":""54f8d589-66fc-4c65-830f-1dcc63bce8cc""}","https://test12345.live/?participantId=2FF0E9504B6C45D4B0B2646794D10C4A&assignmentId=1f2b29af-2a67-41a2-9276-86dfb84ab7a8&projectId=54f8d589-66fc-4c65-830f-1dcc63bce8cc","","null","<div style=""display: flex; justify-content: center; align-items: center;"">
                    <img src=""images/causal/causal_series_5/causal_series_5_a.jpg"" style=""width: 300px; height: 300px;"" />
                  </div>","null","",""
"","","","","","html-keyboard-response","105","265836","0.0-76.0-1.0","2FF0E9504B6C45D4B0B2646794D10C4A","2FF0E9504B6C45D4B0B2646794D10C4A","1f2b29af-2a67-41a2-9276-86dfb84ab7a8","54f8d589-66fc-4c65-830f-1dcc63bce8cc","{""participantId"":""2FF0E9504B6C45D4B0B2646794D10C4A"",""assignmentId"":""1f2b29af-2a67-41a2-9276-86dfb84ab7a8"",""projectId"":""54f8d589-66fc-4c65-830f-1dcc63bce8cc""}","https://test12345.live/?participantId=2FF0E9504B6C45D4B0B2646794D10C4A&assignmentId=1f2b29af-2a67-41a2-9276-86dfb84ab7a8&projectId=54f8d589-66fc-4c65-830f-1dcc63bce8cc","","null","<div style=""display: flex; justify-content: center; align-items: center;"">
                    <img src=""images/causal/causal_series_5/causal_series_5_b.jpg"" style=""width: 300px; height: 300px;"" />
                  </div>","null","",""
"","","","","","html-keyboard-response","106","268836","0.0-76.0-2.0","2FF0E9504B6C45D4B0B2646794D10C4A","2FF0E9504B6C45D4B0B2646794D10C4A","1f2b29af-2a67-41a2-9276-86dfb84ab7a8","54f8d589-66fc-4c65-830f-1dcc63bce8cc","{""participantId"":""2FF0E9504B6C45D4B0B2646794D10C4A"",""assignmentId"":""1f2b29af-2a67-41a2-9276-86dfb84ab7a8"",""projectId"":""54f8d589-66fc-4c65-830f-1dcc63bce8cc""}","https://test12345.live/?participantId=2FF0E9504B6C45D4B0B2646794D10C4A&assignmentId=1f2b29af-2a67-41a2-9276-86dfb84ab7a8&projectId=54f8d589-66fc-4c65-830f-1dcc63bce8cc","","null","<div style=""display: flex; justify-content: center; align-items: center;"">
                    <img src=""images/causal/causal_series_5/causal_series_5_c.jpg"" style=""width: 300px; height: 300px;"" />
                  </div>","null","",""
"","","","","","html-keyboard-response","107","271837","0.0-76.0-3.0","2FF0E9504B6C45D4B0B2646794D10C4A","2FF0E9504B6C45D4B0B2646794D10C4A","1f2b29af-2a67-41a2-9276-86dfb84ab7a8","54f8d589-66fc-4c65-830f-1dcc63bce8cc","{""participantId"":""2FF0E9504B6C45D4B0B2646794D10C4A"",""assignmentId"":""1f2b29af-2a67-41a2-9276-86dfb84ab7a8"",""projectId"":""54f8d589-66fc-4c65-830f-1dcc63bce8cc""}","https://test12345.live/?participantId=2FF0E9504B6C45D4B0B2646794D10C4A&assignmentId=1f2b29af-2a67-41a2-9276-86dfb84ab7a8&projectId=54f8d589-66fc-4c65-830f-1dcc63bce8cc","","null","<div style=""display: flex; justify-content: center; align-items: center;"">
                    <img src=""images/causal/causal_series_5/causal_series_5_d.jpg"" style=""width: 300px; height: 300px;"" />
                  </div>","null","",""
"","","","","","html-button-response","108","274266","0.0-78.0","2FF0E9504B6C45D4B0B2646794D10C4A","2FF0E9504B6C45D4B0B2646794D10C4A","1f2b29af-2a67-41a2-9276-86dfb84ab7a8","54f8d589-66fc-4c65-830f-1dcc63bce8cc","{""participantId"":""2FF0E9504B6C45D4B0B2646794D10C4A"",""assignmentId"":""1f2b29af-2a67-41a2-9276-86dfb84ab7a8"",""projectId"":""54f8d589-66fc-4c65-830f-1dcc63bce8cc""}","https://test12345.live/?participantId=2FF0E9504B6C45D4B0B2646794D10C4A&assignmentId=1f2b29af-2a67-41a2-9276-86dfb84ab7a8&projectId=54f8d589-66fc-4c65-830f-1dcc63bce8cc","","2428","Was there a person in the picture?","0","",""
"","","","","","survey-likert","109","276768","0.0-79.0","2FF0E9504B6C45D4B0B2646794D10C4A","2FF0E9504B6C45D4B0B2646794D10C4A","1f2b29af-2a67-41a2-9276-86dfb84ab7a8","54f8d589-66fc-4c65-830f-1dcc63bce8cc","{""participantId"":""2FF0E9504B6C45D4B0B2646794D10C4A"",""assignmentId"":""1f2b29af-2a67-41a2-9276-86dfb84ab7a8"",""projectId"":""54f8d589-66fc-4c65-830f-1dcc63bce8cc""}","https://test12345.live/?participantId=2FF0E9504B6C45D4B0B2646794D10C4A&assignmentId=1f2b29af-2a67-41a2-9276-86dfb84ab7a8&projectId=54f8d589-66fc-4c65-830f-1dcc63bce8cc","","2502","","{""Q0"":0}","","[0]"
"","","","","","html-button-response","110","277807","0.0-80.0","2FF0E9504B6C45D4B0B2646794D10C4A","2FF0E9504B6C45D4B0B2646794D10C4A","1f2b29af-2a67-41a2-9276-86dfb84ab7a8","54f8d589-66fc-4c65-830f-1dcc63bce8cc","{""participantId"":""2FF0E9504B6C45D4B0B2646794D10C4A"",""assignmentId"":""1f2b29af-2a67-41a2-9276-86dfb84ab7a8"",""projectId"":""54f8d589-66fc-4c65-830f-1dcc63bce8cc""}","https://test12345.live/?participantId=2FF0E9504B6C45D4B0B2646794D10C4A&assignmentId=1f2b29af-2a67-41a2-9276-86dfb84ab7a8&projectId=54f8d589-66fc-4c65-830f-1dcc63bce8cc","","1039","
    <div style=""display: flex; justify-content: center; align-items: center;"">
      <img src=""images/red_deck_2.png"" style=""width: 300px; height: 300px; margin-right: 10px;"" />
      <img src=""images/blue_deck_1.png"" style=""width: 300px; height: 300px;"" />
    </div>","1","1",""
"","","","","","html-keyboard-response","111","280815","0.0-82.0-0.0","2FF0E9504B6C45D4B0B2646794D10C4A","2FF0E9504B6C45D4B0B2646794D10C4A","1f2b29af-2a67-41a2-9276-86dfb84ab7a8","54f8d589-66fc-4c65-830f-1dcc63bce8cc","{""participantId"":""2FF0E9504B6C45D4B0B2646794D10C4A"",""assignmentId"":""1f2b29af-2a67-41a2-9276-86dfb84ab7a8"",""projectId"":""54f8d589-66fc-4c65-830f-1dcc63bce8cc""}","https://test12345.live/?participantId=2FF0E9504B6C45D4B0B2646794D10C4A&assignmentId=1f2b29af-2a67-41a2-9276-86dfb84ab7a8&projectId=54f8d589-66fc-4c65-830f-1dcc63bce8cc","","null","<div style=""display: flex; justify-content: center; align-items: center;"">
                    <img src=""images/semantic/semantic_series_17/semantic_series_17_a.jpg"" style=""width: 300px; height: 300px;"" />
                  </div>","null","",""
"","","","","","html-keyboard-response","112","283827","0.0-82.0-1.0","2FF0E9504B6C45D4B0B2646794D10C4A","2FF0E9504B6C45D4B0B2646794D10C4A","1f2b29af-2a67-41a2-9276-86dfb84ab7a8","54f8d589-66fc-4c65-830f-1dcc63bce8cc","{""participantId"":""2FF0E9504B6C45D4B0B2646794D10C4A"",""assignmentId"":""1f2b29af-2a67-41a2-9276-86dfb84ab7a8"",""projectId"":""54f8d589-66fc-4c65-830f-1dcc63bce8cc""}","https://test12345.live/?participantId=2FF0E9504B6C45D4B0B2646794D10C4A&assignmentId=1f2b29af-2a67-41a2-9276-86dfb84ab7a8&projectId=54f8d589-66fc-4c65-830f-1dcc63bce8cc","","null","<div style=""display: flex; justify-content: center; align-items: center;"">
                    <img src=""images/semantic/semantic_series_17/semantic_series_17_b.jpg"" style=""width: 300px; height: 300px;"" />
                  </div>","null","",""
"","","","","","html-keyboard-response","113","286832","0.0-82.0-2.0","2FF0E9504B6C45D4B0B2646794D10C4A","2FF0E9504B6C45D4B0B2646794D10C4A","1f2b29af-2a67-41a2-9276-86dfb84ab7a8","54f8d589-66fc-4c65-830f-1dcc63bce8cc","{""participantId"":""2FF0E9504B6C45D4B0B2646794D10C4A"",""assignmentId"":""1f2b29af-2a67-41a2-9276-86dfb84ab7a8"",""projectId"":""54f8d589-66fc-4c65-830f-1dcc63bce8cc""}","https://test12345.live/?participantId=2FF0E9504B6C45D4B0B2646794D10C4A&assignmentId=1f2b29af-2a67-41a2-9276-86dfb84ab7a8&projectId=54f8d589-66fc-4c65-830f-1dcc63bce8cc","","null","<div style=""display: flex; justify-content: center; align-items: center;"">
                    <img src=""images/semantic/semantic_series_17/semantic_series_17_c.jpg"" style=""width: 300px; height: 300px;"" />
                  </div>","null","",""
"","","","","","html-keyboard-response","114","289836","0.0-82.0-3.0","2FF0E9504B6C45D4B0B2646794D10C4A","2FF0E9504B6C45D4B0B2646794D10C4A","1f2b29af-2a67-41a2-9276-86dfb84ab7a8","54f8d589-66fc-4c65-830f-1dcc63bce8cc","{""participantId"":""2FF0E9504B6C45D4B0B2646794D10C4A"",""assignmentId"":""1f2b29af-2a67-41a2-9276-86dfb84ab7a8"",""projectId"":""54f8d589-66fc-4c65-830f-1dcc63bce8cc""}","https://test12345.live/?participantId=2FF0E9504B6C45D4B0B2646794D10C4A&assignmentId=1f2b29af-2a67-41a2-9276-86dfb84ab7a8&projectId=54f8d589-66fc-4c65-830f-1dcc63bce8cc","","null","<div style=""display: flex; justify-content: center; align-items: center;"">
                    <img src=""images/semantic/semantic_series_17/semantic_series_17_d.jpg"" style=""width: 300px; height: 300px;"" />
                  </div>","null","",""
"","","","","","html-button-response","115","290935","0.0-83.0","2FF0E9504B6C45D4B0B2646794D10C4A","2FF0E9504B6C45D4B0B2646794D10C4A","1f2b29af-2a67-41a2-9276-86dfb84ab7a8","54f8d589-66fc-4c65-830f-1dcc63bce8cc","{""participantId"":""2FF0E9504B6C45D4B0B2646794D10C4A"",""assignmentId"":""1f2b29af-2a67-41a2-9276-86dfb84ab7a8"",""projectId"":""54f8d589-66fc-4c65-830f-1dcc63bce8cc""}","https://test12345.live/?participantId=2FF0E9504B6C45D4B0B2646794D10C4A&assignmentId=1f2b29af-2a67-41a2-9276-86dfb84ab7a8&projectId=54f8d589-66fc-4c65-830f-1dcc63bce8cc","","1098","Was there a person in the picture?","0","",""
"","","","","","survey-likert","116","292525","0.0-84.0","2FF0E9504B6C45D4B0B2646794D10C4A","2FF0E9504B6C45D4B0B2646794D10C4A","1f2b29af-2a67-41a2-9276-86dfb84ab7a8","54f8d589-66fc-4c65-830f-1dcc63bce8cc","{""participantId"":""2FF0E9504B6C45D4B0B2646794D10C4A"",""assignmentId"":""1f2b29af-2a67-41a2-9276-86dfb84ab7a8"",""projectId"":""54f8d589-66fc-4c65-830f-1dcc63bce8cc""}","https://test12345.live/?participantId=2FF0E9504B6C45D4B0B2646794D10C4A&assignmentId=1f2b29af-2a67-41a2-9276-86dfb84ab7a8&projectId=54f8d589-66fc-4c65-830f-1dcc63bce8cc","","1590","","{""Q0"":0}","","[0]"
"","","","","","html-button-response","117","293435","0.0-85.0","2FF0E9504B6C45D4B0B2646794D10C4A","2FF0E9504B6C45D4B0B2646794D10C4A","1f2b29af-2a67-41a2-9276-86dfb84ab7a8","54f8d589-66fc-4c65-830f-1dcc63bce8cc","{""participantId"":""2FF0E9504B6C45D4B0B2646794D10C4A"",""assignmentId"":""1f2b29af-2a67-41a2-9276-86dfb84ab7a8"",""projectId"":""54f8d589-66fc-4c65-830f-1dcc63bce8cc""}","https://test12345.live/?participantId=2FF0E9504B6C45D4B0B2646794D10C4A&assignmentId=1f2b29af-2a67-41a2-9276-86dfb84ab7a8&projectId=54f8d589-66fc-4c65-830f-1dcc63bce8cc","","910","
    <div style=""display: flex; justify-content: center; align-items: center;"">
      <img src=""images/red_deck_2.png"" style=""width: 300px; height: 300px; margin-right: 10px;"" />
      <img src=""images/blue_deck_1.png"" style=""width: 300px; height: 300px;"" />
    </div>","0","0",""
"","","","","","html-keyboard-response","118","296437","0.0-86.0-0.0","2FF0E9504B6C45D4B0B2646794D10C4A","2FF0E9504B6C45D4B0B2646794D10C4A","1f2b29af-2a67-41a2-9276-86dfb84ab7a8","54f8d589-66fc-4c65-830f-1dcc63bce8cc","{""participantId"":""2FF0E9504B6C45D4B0B2646794D10C4A"",""assignmentId"":""1f2b29af-2a67-41a2-9276-86dfb84ab7a8"",""projectId"":""54f8d589-66fc-4c65-830f-1dcc63bce8cc""}","https://test12345.live/?participantId=2FF0E9504B6C45D4B0B2646794D10C4A&assignmentId=1f2b29af-2a67-41a2-9276-86dfb84ab7a8&projectId=54f8d589-66fc-4c65-830f-1dcc63bce8cc","","null","<div style=""display: flex; justify-content: center; align-items: center;"">
                    <img src=""images/causal/causal_series_4/causal_series_4_a.jpg"" style=""width: 300px; height: 300px;"" />
                  </div>","null","",""
"","","","","","html-keyboard-response","119","299439","0.0-86.0-1.0","2FF0E9504B6C45D4B0B2646794D10C4A","2FF0E9504B6C45D4B0B2646794D10C4A","1f2b29af-2a67-41a2-9276-86dfb84ab7a8","54f8d589-66fc-4c65-830f-1dcc63bce8cc","{""participantId"":""2FF0E9504B6C45D4B0B2646794D10C4A"",""assignmentId"":""1f2b29af-2a67-41a2-9276-86dfb84ab7a8"",""projectId"":""54f8d589-66fc-4c65-830f-1dcc63bce8cc""}","https://test12345.live/?participantId=2FF0E9504B6C45D4B0B2646794D10C4A&assignmentId=1f2b29af-2a67-41a2-9276-86dfb84ab7a8&projectId=54f8d589-66fc-4c65-830f-1dcc63bce8cc","","null","<div style=""display: flex; justify-content: center; align-items: center;"">
                    <img src=""images/causal/causal_series_4/causal_series_4_b.jpg"" style=""width: 300px; height: 300px;"" />
                  </div>","null","",""
"","","","","","html-keyboard-response","120","302454","0.0-86.0-2.0","2FF0E9504B6C45D4B0B2646794D10C4A","2FF0E9504B6C45D4B0B2646794D10C4A","1f2b29af-2a67-41a2-9276-86dfb84ab7a8","54f8d589-66fc-4c65-830f-1dcc63bce8cc","{""participantId"":""2FF0E9504B6C45D4B0B2646794D10C4A"",""assignmentId"":""1f2b29af-2a67-41a2-9276-86dfb84ab7a8"",""projectId"":""54f8d589-66fc-4c65-830f-1dcc63bce8cc""}","https://test12345.live/?participantId=2FF0E9504B6C45D4B0B2646794D10C4A&assignmentId=1f2b29af-2a67-41a2-9276-86dfb84ab7a8&projectId=54f8d589-66fc-4c65-830f-1dcc63bce8cc","","null","<div style=""display: flex; justify-content: center; align-items: center;"">
                    <img src=""images/causal/causal_series_4/causal_series_4_c.jpg"" style=""width: 300px; height: 300px;"" />
                  </div>","null","",""
"","","","","","html-keyboard-response","121","305456","0.0-86.0-3.0","2FF0E9504B6C45D4B0B2646794D10C4A","2FF0E9504B6C45D4B0B2646794D10C4A","1f2b29af-2a67-41a2-9276-86dfb84ab7a8","54f8d589-66fc-4c65-830f-1dcc63bce8cc","{""participantId"":""2FF0E9504B6C45D4B0B2646794D10C4A"",""assignmentId"":""1f2b29af-2a67-41a2-9276-86dfb84ab7a8"",""projectId"":""54f8d589-66fc-4c65-830f-1dcc63bce8cc""}","https://test12345.live/?participantId=2FF0E9504B6C45D4B0B2646794D10C4A&assignmentId=1f2b29af-2a67-41a2-9276-86dfb84ab7a8&projectId=54f8d589-66fc-4c65-830f-1dcc63bce8cc","","null","<div style=""display: flex; justify-content: center; align-items: center;"">
                    <img src=""images/causal/causal_series_4/causal_series_4_d.jpg"" style=""width: 300px; height: 300px;"" />
                  </div>","null","",""
"","","","","","html-button-response","122","306557","0.0-88.0","2FF0E9504B6C45D4B0B2646794D10C4A","2FF0E9504B6C45D4B0B2646794D10C4A","1f2b29af-2a67-41a2-9276-86dfb84ab7a8","54f8d589-66fc-4c65-830f-1dcc63bce8cc","{""participantId"":""2FF0E9504B6C45D4B0B2646794D10C4A"",""assignmentId"":""1f2b29af-2a67-41a2-9276-86dfb84ab7a8"",""projectId"":""54f8d589-66fc-4c65-830f-1dcc63bce8cc""}","https://test12345.live/?participantId=2FF0E9504B6C45D4B0B2646794D10C4A&assignmentId=1f2b29af-2a67-41a2-9276-86dfb84ab7a8&projectId=54f8d589-66fc-4c65-830f-1dcc63bce8cc","","1100","Was there a person in the picture?","1","",""
"","","","","","survey-likert","123","308171","0.0-89.0","2FF0E9504B6C45D4B0B2646794D10C4A","2FF0E9504B6C45D4B0B2646794D10C4A","1f2b29af-2a67-41a2-9276-86dfb84ab7a8","54f8d589-66fc-4c65-830f-1dcc63bce8cc","{""participantId"":""2FF0E9504B6C45D4B0B2646794D10C4A"",""assignmentId"":""1f2b29af-2a67-41a2-9276-86dfb84ab7a8"",""projectId"":""54f8d589-66fc-4c65-830f-1dcc63bce8cc""}","https://test12345.live/?participantId=2FF0E9504B6C45D4B0B2646794D10C4A&assignmentId=1f2b29af-2a67-41a2-9276-86dfb84ab7a8&projectId=54f8d589-66fc-4c65-830f-1dcc63bce8cc","","1614","","{""Q0"":0}","","[0]"
"","","","","","html-button-response","124","308940","0.0-90.0","2FF0E9504B6C45D4B0B2646794D10C4A","2FF0E9504B6C45D4B0B2646794D10C4A","1f2b29af-2a67-41a2-9276-86dfb84ab7a8","54f8d589-66fc-4c65-830f-1dcc63bce8cc","{""participantId"":""2FF0E9504B6C45D4B0B2646794D10C4A"",""assignmentId"":""1f2b29af-2a67-41a2-9276-86dfb84ab7a8"",""projectId"":""54f8d589-66fc-4c65-830f-1dcc63bce8cc""}","https://test12345.live/?participantId=2FF0E9504B6C45D4B0B2646794D10C4A&assignmentId=1f2b29af-2a67-41a2-9276-86dfb84ab7a8&projectId=54f8d589-66fc-4c65-830f-1dcc63bce8cc","","768","
    <div style=""display: flex; justify-content: center; align-items: center;"">
      <img src=""images/red_deck_2.png"" style=""width: 300px; height: 300px; margin-right: 10px;"" />
      <img src=""images/blue_deck_1.png"" style=""width: 300px; height: 300px;"" />
    </div>","0","0",""
"","","","","","html-keyboard-response","125","311952","0.0-91.0-0.0","2FF0E9504B6C45D4B0B2646794D10C4A","2FF0E9504B6C45D4B0B2646794D10C4A","1f2b29af-2a67-41a2-9276-86dfb84ab7a8","54f8d589-66fc-4c65-830f-1dcc63bce8cc","{""participantId"":""2FF0E9504B6C45D4B0B2646794D10C4A"",""assignmentId"":""1f2b29af-2a67-41a2-9276-86dfb84ab7a8"",""projectId"":""54f8d589-66fc-4c65-830f-1dcc63bce8cc""}","https://test12345.live/?participantId=2FF0E9504B6C45D4B0B2646794D10C4A&assignmentId=1f2b29af-2a67-41a2-9276-86dfb84ab7a8&projectId=54f8d589-66fc-4c65-830f-1dcc63bce8cc","","null","<div style=""display: flex; justify-content: center; align-items: center;"">
                    <img src=""images/causal/causal_series_12/causal_series_12_a.jpg"" style=""width: 300px; height: 300px;"" />
                  </div>","null","",""
"","","","","","html-keyboard-response","126","314958","0.0-91.0-1.0","2FF0E9504B6C45D4B0B2646794D10C4A","2FF0E9504B6C45D4B0B2646794D10C4A","1f2b29af-2a67-41a2-9276-86dfb84ab7a8","54f8d589-66fc-4c65-830f-1dcc63bce8cc","{""participantId"":""2FF0E9504B6C45D4B0B2646794D10C4A"",""assignmentId"":""1f2b29af-2a67-41a2-9276-86dfb84ab7a8"",""projectId"":""54f8d589-66fc-4c65-830f-1dcc63bce8cc""}","https://test12345.live/?participantId=2FF0E9504B6C45D4B0B2646794D10C4A&assignmentId=1f2b29af-2a67-41a2-9276-86dfb84ab7a8&projectId=54f8d589-66fc-4c65-830f-1dcc63bce8cc","","null","<div style=""display: flex; justify-content: center; align-items: center;"">
                    <img src=""images/causal/causal_series_12/causal_series_12_b.jpg"" style=""width: 300px; height: 300px;"" />
                  </div>","null","",""
"","","","","","html-keyboard-response","127","317962","0.0-91.0-2.0","2FF0E9504B6C45D4B0B2646794D10C4A","2FF0E9504B6C45D4B0B2646794D10C4A","1f2b29af-2a67-41a2-9276-86dfb84ab7a8","54f8d589-66fc-4c65-830f-1dcc63bce8cc","{""participantId"":""2FF0E9504B6C45D4B0B2646794D10C4A"",""assignmentId"":""1f2b29af-2a67-41a2-9276-86dfb84ab7a8"",""projectId"":""54f8d589-66fc-4c65-830f-1dcc63bce8cc""}","https://test12345.live/?participantId=2FF0E9504B6C45D4B0B2646794D10C4A&assignmentId=1f2b29af-2a67-41a2-9276-86dfb84ab7a8&projectId=54f8d589-66fc-4c65-830f-1dcc63bce8cc","","null","<div style=""display: flex; justify-content: center; align-items: center;"">
                    <img src=""images/causal/causal_series_12/causal_series_12_c.jpg"" style=""width: 300px; height: 300px;"" />
                  </div>","null","",""
"","","","","","html-keyboard-response","128","320973","0.0-91.0-3.0","2FF0E9504B6C45D4B0B2646794D10C4A","2FF0E9504B6C45D4B0B2646794D10C4A","1f2b29af-2a67-41a2-9276-86dfb84ab7a8","54f8d589-66fc-4c65-830f-1dcc63bce8cc","{""participantId"":""2FF0E9504B6C45D4B0B2646794D10C4A"",""assignmentId"":""1f2b29af-2a67-41a2-9276-86dfb84ab7a8"",""projectId"":""54f8d589-66fc-4c65-830f-1dcc63bce8cc""}","https://test12345.live/?participantId=2FF0E9504B6C45D4B0B2646794D10C4A&assignmentId=1f2b29af-2a67-41a2-9276-86dfb84ab7a8&projectId=54f8d589-66fc-4c65-830f-1dcc63bce8cc","","null","<div style=""display: flex; justify-content: center; align-items: center;"">
                    <img src=""images/causal/causal_series_12/causal_series_12_d.jpg"" style=""width: 300px; height: 300px;"" />
                  </div>","null","",""
"","","","","","html-button-response","129","323774","0.0-93.0","2FF0E9504B6C45D4B0B2646794D10C4A","2FF0E9504B6C45D4B0B2646794D10C4A","1f2b29af-2a67-41a2-9276-86dfb84ab7a8","54f8d589-66fc-4c65-830f-1dcc63bce8cc","{""participantId"":""2FF0E9504B6C45D4B0B2646794D10C4A"",""assignmentId"":""1f2b29af-2a67-41a2-9276-86dfb84ab7a8"",""projectId"":""54f8d589-66fc-4c65-830f-1dcc63bce8cc""}","https://test12345.live/?participantId=2FF0E9504B6C45D4B0B2646794D10C4A&assignmentId=1f2b29af-2a67-41a2-9276-86dfb84ab7a8&projectId=54f8d589-66fc-4c65-830f-1dcc63bce8cc","","2801","Was there a person in the picture?","0","",""
"","","","","","survey-likert","130","325324","0.0-94.0","2FF0E9504B6C45D4B0B2646794D10C4A","2FF0E9504B6C45D4B0B2646794D10C4A","1f2b29af-2a67-41a2-9276-86dfb84ab7a8","54f8d589-66fc-4c65-830f-1dcc63bce8cc","{""participantId"":""2FF0E9504B6C45D4B0B2646794D10C4A"",""assignmentId"":""1f2b29af-2a67-41a2-9276-86dfb84ab7a8"",""projectId"":""54f8d589-66fc-4c65-830f-1dcc63bce8cc""}","https://test12345.live/?participantId=2FF0E9504B6C45D4B0B2646794D10C4A&assignmentId=1f2b29af-2a67-41a2-9276-86dfb84ab7a8&projectId=54f8d589-66fc-4c65-830f-1dcc63bce8cc","","1550","","{""Q0"":0}","","[0]"
"","","","","","survey-text","131","346985","0.0-95.0","2FF0E9504B6C45D4B0B2646794D10C4A","2FF0E9504B6C45D4B0B2646794D10C4A","1f2b29af-2a67-41a2-9276-86dfb84ab7a8","54f8d589-66fc-4c65-830f-1dcc63bce8cc","{""participantId"":""2FF0E9504B6C45D4B0B2646794D10C4A"",""assignmentId"":""1f2b29af-2a67-41a2-9276-86dfb84ab7a8"",""projectId"":""54f8d589-66fc-4c65-830f-1dcc63bce8cc""}","https://test12345.live/?participantId=2FF0E9504B6C45D4B0B2646794D10C4A&assignmentId=1f2b29af-2a67-41a2-9276-86dfb84ab7a8&projectId=54f8d589-66fc-4c65-830f-1dcc63bce8cc","","21658","","{""Q0"":""One had more pictures of animals, the other AI generated pictures of people.""}","",""
