"success","timeout","failed_images","failed_audio","failed_video","trial_type","trial_index","time_elapsed","internal_node_id","subject","subject_id","study_id","session_id","urlvar","current_url","view_history","rt","stimulus","response","choice","question_order"
"true","false","[]","[]","[]","preload","0","219","0.0-0.0","2A7E2B339E2B4E3C82FA88D0A979CB07","2A7E2B339E2B4E3C82FA88D0A979CB07","d58ce0e6-7fe6-44d0-8d8c-76e091757182","e622c465-ee29-4445-8260-1f3431e06587","{""participantId"":""2A7E2B339E2B4E3C82FA88D0A979CB07"",""assignmentId"":""d58ce0e6-7fe6-44d0-8d8c-76e091757182"",""projectId"":""e622c465-ee29-4445-8260-1f3431e06587""}","https://test12345.live/?participantId=2A7E2B339E2B4E3C82FA88D0A979CB07&assignmentId=d58ce0e6-7fe6-44d0-8d8c-76e091757182&projectId=e622c465-ee29-4445-8260-1f3431e06587","","","","","",""
"","","","","","instructions","1","10538","0.0-1.0","2A7E2B339E2B4E3C82FA88D0A979CB07","2A7E2B339E2B4E3C82FA88D0A979CB07","d58ce0e6-7fe6-44d0-8d8c-76e091757182","e622c465-ee29-4445-8260-1f3431e06587","{""participantId"":""2A7E2B339E2B4E3C82FA88D0A979CB07"",""assignmentId"":""d58ce0e6-7fe6-44d0-8d8c-76e091757182"",""projectId"":""e622c465-ee29-4445-8260-1f3431e06587""}","https://test12345.live/?participantId=2A7E2B339E2B4E3C82FA88D0A979CB07&assignmentId=d58ce0e6-7fe6-44d0-8d8c-76e091757182&projectId=e622c465-ee29-4445-8260-1f3431e06587","[{""page_index"":0,""viewing_time"":10319}]","10319","","","",""
"","","","","","instructions","2","13822","0.0-2.0","2A7E2B339E2B4E3C82FA88D0A979CB07","2A7E2B339E2B4E3C82FA88D0A979CB07","d58ce0e6-7fe6-44d0-8d8c-76e091757182","e622c465-ee29-4445-8260-1f3431e06587","{""participantId"":""2A7E2B339E2B4E3C82FA88D0A979CB07"",""assignmentId"":""d58ce0e6-7fe6-44d0-8d8c-76e091757182"",""projectId"":""e622c465-ee29-4445-8260-1f3431e06587""}","https://test12345.live/?participantId=2A7E2B339E2B4E3C82FA88D0A979CB07&assignmentId=d58ce0e6-7fe6-44d0-8d8c-76e091757182&projectId=e622c465-ee29-4445-8260-1f3431e06587","[{""page_index"":0,""viewing_time"":3283}]","3283","","","",""
"true","","","","","fullscreen","3","15673","0.0-3.0","2A7E2B339E2B4E3C82FA88D0A979CB07","2A7E2B339E2B4E3C82FA88D0A979CB07","d58ce0e6-7fe6-44d0-8d8c-76e091757182","e622c465-ee29-4445-8260-1f3431e06587","{""participantId"":""2A7E2B339E2B4E3C82FA88D0A979CB07"",""assignmentId"":""d58ce0e6-7fe6-44d0-8d8c-76e091757182"",""projectId"":""e622c465-ee29-4445-8260-1f3431e06587""}","https://test12345.live/?participantId=2A7E2B339E2B4E3C82FA88D0A979CB07&assignmentId=d58ce0e6-7fe6-44d0-8d8c-76e091757182&projectId=e622c465-ee29-4445-8260-1f3431e06587","","842","","","",""
"","","","","","instructions","4","18322","0.0-4.0","2A7E2B339E2B4E3C82FA88D0A979CB07","2A7E2B339E2B4E3C82FA88D0A979CB07","d58ce0e6-7fe6-44d0-8d8c-76e091757182","e622c465-ee29-4445-8260-1f3431e06587","{""participantId"":""2A7E2B339E2B4E3C82FA88D0A979CB07"",""assignmentId"":""d58ce0e6-7fe6-44d0-8d8c-76e091757182"",""projectId"":""e622c465-ee29-4445-8260-1f3431e06587""}","https://test12345.live/?participantId=2A7E2B339E2B4E3C82FA88D0A979CB07&assignmentId=d58ce0e6-7fe6-44d0-8d8c-76e091757182&projectId=e622c465-ee29-4445-8260-1f3431e06587","[{""page_index"":0,""viewing_time"":2649}]","2649","","","",""
"","","","","","html-button-response","5","20055","0.0-5.0","2A7E2B339E2B4E3C82FA88D0A979CB07","2A7E2B339E2B4E3C82FA88D0A979CB07","d58ce0e6-7fe6-44d0-8d8c-76e091757182","e622c465-ee29-4445-8260-1f3431e06587","{""participantId"":""2A7E2B339E2B4E3C82FA88D0A979CB07"",""assignmentId"":""d58ce0e6-7fe6-44d0-8d8c-76e091757182"",""projectId"":""e622c465-ee29-4445-8260-1f3431e06587""}","https://test12345.live/?participantId=2A7E2B339E2B4E3C82FA88D0A979CB07&assignmentId=d58ce0e6-7fe6-44d0-8d8c-76e091757182&projectId=e622c465-ee29-4445-8260-1f3431e06587","","1732","
    <div style=""display: flex; justify-content: center; align-items: center;"">
      <img src=""images/blue_deck_1.png"" style=""width: 300px; height: 300px; margin-right: 10px;"" />
      <img src=""images/red_deck_2.png"" style=""width: 300px; height: 300px;"" />
    </div>","1","1",""
"","","","","","html-keyboard-response","6","23056","0.0-7.0-0.0","2A7E2B339E2B4E3C82FA88D0A979CB07","2A7E2B339E2B4E3C82FA88D0A979CB07","d58ce0e6-7fe6-44d0-8d8c-76e091757182","e622c465-ee29-4445-8260-1f3431e06587","{""participantId"":""2A7E2B339E2B4E3C82FA88D0A979CB07"",""assignmentId"":""d58ce0e6-7fe6-44d0-8d8c-76e091757182"",""projectId"":""e622c465-ee29-4445-8260-1f3431e06587""}","https://test12345.live/?participantId=2A7E2B339E2B4E3C82FA88D0A979CB07&assignmentId=d58ce0e6-7fe6-44d0-8d8c-76e091757182&projectId=e622c465-ee29-4445-8260-1f3431e06587","","null","<div style=""display: flex; justify-content: center; align-items: center;"">
                    <img src=""images/semantic/semantic_series_15/semantic_series_15_a.jpg"" style=""width: 300px; height: 300px;"" />
                  </div>","null","",""
"","","","","","html-keyboard-response","7","26060","0.0-7.0-1.0","2A7E2B339E2B4E3C82FA88D0A979CB07","2A7E2B339E2B4E3C82FA88D0A979CB07","d58ce0e6-7fe6-44d0-8d8c-76e091757182","e622c465-ee29-4445-8260-1f3431e06587","{""participantId"":""2A7E2B339E2B4E3C82FA88D0A979CB07"",""assignmentId"":""d58ce0e6-7fe6-44d0-8d8c-76e091757182"",""projectId"":""e622c465-ee29-4445-8260-1f3431e06587""}","https://test12345.live/?participantId=2A7E2B339E2B4E3C82FA88D0A979CB07&assignmentId=d58ce0e6-7fe6-44d0-8d8c-76e091757182&projectId=e622c465-ee29-4445-8260-1f3431e06587","","null","<div style=""display: flex; justify-content: center; align-items: center;"">
                    <img src=""images/semantic/semantic_series_15/semantic_series_15_b.jpg"" style=""width: 300px; height: 300px;"" />
                  </div>","null","",""
"","","","","","html-keyboard-response","8","29071","0.0-7.0-2.0","2A7E2B339E2B4E3C82FA88D0A979CB07","2A7E2B339E2B4E3C82FA88D0A979CB07","d58ce0e6-7fe6-44d0-8d8c-76e091757182","e622c465-ee29-4445-8260-1f3431e06587","{""participantId"":""2A7E2B339E2B4E3C82FA88D0A979CB07"",""assignmentId"":""d58ce0e6-7fe6-44d0-8d8c-76e091757182"",""projectId"":""e622c465-ee29-4445-8260-1f3431e06587""}","https://test12345.live/?participantId=2A7E2B339E2B4E3C82FA88D0A979CB07&assignmentId=d58ce0e6-7fe6-44d0-8d8c-76e091757182&projectId=e622c465-ee29-4445-8260-1f3431e06587","","null","<div style=""display: flex; justify-content: center; align-items: center;"">
                    <img src=""images/semantic/semantic_series_15/semantic_series_15_c.jpg"" style=""width: 300px; height: 300px;"" />
                  </div>","null","",""
"","","","","","html-keyboard-response","9","32083","0.0-7.0-3.0","2A7E2B339E2B4E3C82FA88D0A979CB07","2A7E2B339E2B4E3C82FA88D0A979CB07","d58ce0e6-7fe6-44d0-8d8c-76e091757182","e622c465-ee29-4445-8260-1f3431e06587","{""participantId"":""2A7E2B339E2B4E3C82FA88D0A979CB07"",""assignmentId"":""d58ce0e6-7fe6-44d0-8d8c-76e091757182"",""projectId"":""e622c465-ee29-4445-8260-1f3431e06587""}","https://test12345.live/?participantId=2A7E2B339E2B4E3C82FA88D0A979CB07&assignmentId=d58ce0e6-7fe6-44d0-8d8c-76e091757182&projectId=e622c465-ee29-4445-8260-1f3431e06587","","null","<div style=""display: flex; justify-content: center; align-items: center;"">
                    <img src=""images/semantic/semantic_series_15/semantic_series_15_d.jpg"" style=""width: 300px; height: 300px;"" />
                  </div>","null","",""
"","","","","","html-button-response","10","34240","0.0-8.0","2A7E2B339E2B4E3C82FA88D0A979CB07","2A7E2B339E2B4E3C82FA88D0A979CB07","d58ce0e6-7fe6-44d0-8d8c-76e091757182","e622c465-ee29-4445-8260-1f3431e06587","{""participantId"":""2A7E2B339E2B4E3C82FA88D0A979CB07"",""assignmentId"":""d58ce0e6-7fe6-44d0-8d8c-76e091757182"",""projectId"":""e622c465-ee29-4445-8260-1f3431e06587""}","https://test12345.live/?participantId=2A7E2B339E2B4E3C82FA88D0A979CB07&assignmentId=d58ce0e6-7fe6-44d0-8d8c-76e091757182&projectId=e622c465-ee29-4445-8260-1f3431e06587","","2157","Was there a person in the picture?","1","",""
"","","","","","survey-likert","11","38205","0.0-9.0","2A7E2B339E2B4E3C82FA88D0A979CB07","2A7E2B339E2B4E3C82FA88D0A979CB07","d58ce0e6-7fe6-44d0-8d8c-76e091757182","e622c465-ee29-4445-8260-1f3431e06587","{""participantId"":""2A7E2B339E2B4E3C82FA88D0A979CB07"",""assignmentId"":""d58ce0e6-7fe6-44d0-8d8c-76e091757182"",""projectId"":""e622c465-ee29-4445-8260-1f3431e06587""}","https://test12345.live/?participantId=2A7E2B339E2B4E3C82FA88D0A979CB07&assignmentId=d58ce0e6-7fe6-44d0-8d8c-76e091757182&projectId=e622c465-ee29-4445-8260-1f3431e06587","","3964","","{""Q0"":2}","","[0]"
"","","","","","html-button-response","12","39791","0.0-10.0","2A7E2B339E2B4E3C82FA88D0A979CB07","2A7E2B339E2B4E3C82FA88D0A979CB07","d58ce0e6-7fe6-44d0-8d8c-76e091757182","e622c465-ee29-4445-8260-1f3431e06587","{""participantId"":""2A7E2B339E2B4E3C82FA88D0A979CB07"",""assignmentId"":""d58ce0e6-7fe6-44d0-8d8c-76e091757182"",""projectId"":""e622c465-ee29-4445-8260-1f3431e06587""}","https://test12345.live/?participantId=2A7E2B339E2B4E3C82FA88D0A979CB07&assignmentId=d58ce0e6-7fe6-44d0-8d8c-76e091757182&projectId=e622c465-ee29-4445-8260-1f3431e06587","","1585","
    <div style=""display: flex; justify-content: center; align-items: center;"">
      <img src=""images/blue_deck_1.png"" style=""width: 300px; height: 300px; margin-right: 10px;"" />
      <img src=""images/red_deck_2.png"" style=""width: 300px; height: 300px;"" />
    </div>","0","0",""
"","","","","","html-keyboard-response","13","42800","0.0-11.0-0.0","2A7E2B339E2B4E3C82FA88D0A979CB07","2A7E2B339E2B4E3C82FA88D0A979CB07","d58ce0e6-7fe6-44d0-8d8c-76e091757182","e622c465-ee29-4445-8260-1f3431e06587","{""participantId"":""2A7E2B339E2B4E3C82FA88D0A979CB07"",""assignmentId"":""d58ce0e6-7fe6-44d0-8d8c-76e091757182"",""projectId"":""e622c465-ee29-4445-8260-1f3431e06587""}","https://test12345.live/?participantId=2A7E2B339E2B4E3C82FA88D0A979CB07&assignmentId=d58ce0e6-7fe6-44d0-8d8c-76e091757182&projectId=e622c465-ee29-4445-8260-1f3431e06587","","null","<div style=""display: flex; justify-content: center; align-items: center;"">
                    <img src=""images/causal/causal_series_7/causal_series_7_a.jpg"" style=""width: 300px; height: 300px;"" />
                  </div>","null","",""
"","","","","","html-keyboard-response","14","45813","0.0-11.0-1.0","2A7E2B339E2B4E3C82FA88D0A979CB07","2A7E2B339E2B4E3C82FA88D0A979CB07","d58ce0e6-7fe6-44d0-8d8c-76e091757182","e622c465-ee29-4445-8260-1f3431e06587","{""participantId"":""2A7E2B339E2B4E3C82FA88D0A979CB07"",""assignmentId"":""d58ce0e6-7fe6-44d0-8d8c-76e091757182"",""projectId"":""e622c465-ee29-4445-8260-1f3431e06587""}","https://test12345.live/?participantId=2A7E2B339E2B4E3C82FA88D0A979CB07&assignmentId=d58ce0e6-7fe6-44d0-8d8c-76e091757182&projectId=e622c465-ee29-4445-8260-1f3431e06587","","null","<div style=""display: flex; justify-content: center; align-items: center;"">
                    <img src=""images/causal/causal_series_7/causal_series_7_b.jpg"" style=""width: 300px; height: 300px;"" />
                  </div>","null","",""
"","","","","","html-keyboard-response","15","48823","0.0-11.0-2.0","2A7E2B339E2B4E3C82FA88D0A979CB07","2A7E2B339E2B4E3C82FA88D0A979CB07","d58ce0e6-7fe6-44d0-8d8c-76e091757182","e622c465-ee29-4445-8260-1f3431e06587","{""participantId"":""2A7E2B339E2B4E3C82FA88D0A979CB07"",""assignmentId"":""d58ce0e6-7fe6-44d0-8d8c-76e091757182"",""projectId"":""e622c465-ee29-4445-8260-1f3431e06587""}","https://test12345.live/?participantId=2A7E2B339E2B4E3C82FA88D0A979CB07&assignmentId=d58ce0e6-7fe6-44d0-8d8c-76e091757182&projectId=e622c465-ee29-4445-8260-1f3431e06587","","null","<div style=""display: flex; justify-content: center; align-items: center;"">
                    <img src=""images/causal/causal_series_7/causal_series_7_c.jpg"" style=""width: 300px; height: 300px;"" />
                  </div>","null","",""
"","","","","","html-keyboard-response","16","51836","0.0-11.0-3.0","2A7E2B339E2B4E3C82FA88D0A979CB07","2A7E2B339E2B4E3C82FA88D0A979CB07","d58ce0e6-7fe6-44d0-8d8c-76e091757182","e622c465-ee29-4445-8260-1f3431e06587","{""participantId"":""2A7E2B339E2B4E3C82FA88D0A979CB07"",""assignmentId"":""d58ce0e6-7fe6-44d0-8d8c-76e091757182"",""projectId"":""e622c465-ee29-4445-8260-1f3431e06587""}","https://test12345.live/?participantId=2A7E2B339E2B4E3C82FA88D0A979CB07&assignmentId=d58ce0e6-7fe6-44d0-8d8c-76e091757182&projectId=e622c465-ee29-4445-8260-1f3431e06587","","null","<div style=""display: flex; justify-content: center; align-items: center;"">
                    <img src=""images/causal/causal_series_7/causal_series_7_d.jpg"" style=""width: 300px; height: 300px;"" />
                  </div>","null","",""
"","","","","","html-button-response","17","54388","0.0-13.0","2A7E2B339E2B4E3C82FA88D0A979CB07","2A7E2B339E2B4E3C82FA88D0A979CB07","d58ce0e6-7fe6-44d0-8d8c-76e091757182","e622c465-ee29-4445-8260-1f3431e06587","{""participantId"":""2A7E2B339E2B4E3C82FA88D0A979CB07"",""assignmentId"":""d58ce0e6-7fe6-44d0-8d8c-76e091757182"",""projectId"":""e622c465-ee29-4445-8260-1f3431e06587""}","https://test12345.live/?participantId=2A7E2B339E2B4E3C82FA88D0A979CB07&assignmentId=d58ce0e6-7fe6-44d0-8d8c-76e091757182&projectId=e622c465-ee29-4445-8260-1f3431e06587","","2551","Was there a person in the picture?","1","",""
"","","","","","survey-likert","18","55819","0.0-14.0","2A7E2B339E2B4E3C82FA88D0A979CB07","2A7E2B339E2B4E3C82FA88D0A979CB07","d58ce0e6-7fe6-44d0-8d8c-76e091757182","e622c465-ee29-4445-8260-1f3431e06587","{""participantId"":""2A7E2B339E2B4E3C82FA88D0A979CB07"",""assignmentId"":""d58ce0e6-7fe6-44d0-8d8c-76e091757182"",""projectId"":""e622c465-ee29-4445-8260-1f3431e06587""}","https://test12345.live/?participantId=2A7E2B339E2B4E3C82FA88D0A979CB07&assignmentId=d58ce0e6-7fe6-44d0-8d8c-76e091757182&projectId=e622c465-ee29-4445-8260-1f3431e06587","","1431","","{""Q0"":3}","","[0]"
"","","","","","html-button-response","19","57097","0.0-15.0","2A7E2B339E2B4E3C82FA88D0A979CB07","2A7E2B339E2B4E3C82FA88D0A979CB07","d58ce0e6-7fe6-44d0-8d8c-76e091757182","e622c465-ee29-4445-8260-1f3431e06587","{""participantId"":""2A7E2B339E2B4E3C82FA88D0A979CB07"",""assignmentId"":""d58ce0e6-7fe6-44d0-8d8c-76e091757182"",""projectId"":""e622c465-ee29-4445-8260-1f3431e06587""}","https://test12345.live/?participantId=2A7E2B339E2B4E3C82FA88D0A979CB07&assignmentId=d58ce0e6-7fe6-44d0-8d8c-76e091757182&projectId=e622c465-ee29-4445-8260-1f3431e06587","","1277","
    <div style=""display: flex; justify-content: center; align-items: center;"">
      <img src=""images/blue_deck_1.png"" style=""width: 300px; height: 300px; margin-right: 10px;"" />
      <img src=""images/red_deck_2.png"" style=""width: 300px; height: 300px;"" />
    </div>","1","1",""
"","","","","","html-keyboard-response","20","60098","0.0-17.0-0.0","2A7E2B339E2B4E3C82FA88D0A979CB07","2A7E2B339E2B4E3C82FA88D0A979CB07","d58ce0e6-7fe6-44d0-8d8c-76e091757182","e622c465-ee29-4445-8260-1f3431e06587","{""participantId"":""2A7E2B339E2B4E3C82FA88D0A979CB07"",""assignmentId"":""d58ce0e6-7fe6-44d0-8d8c-76e091757182"",""projectId"":""e622c465-ee29-4445-8260-1f3431e06587""}","https://test12345.live/?participantId=2A7E2B339E2B4E3C82FA88D0A979CB07&assignmentId=d58ce0e6-7fe6-44d0-8d8c-76e091757182&projectId=e622c465-ee29-4445-8260-1f3431e06587","","null","<div style=""display: flex; justify-content: center; align-items: center;"">
                    <img src=""images/semantic/semantic_series_9/semantic_series_9_a.jpg"" style=""width: 300px; height: 300px;"" />
                  </div>","null","",""
"","","","","","html-keyboard-response","21","63108","0.0-17.0-1.0","2A7E2B339E2B4E3C82FA88D0A979CB07","2A7E2B339E2B4E3C82FA88D0A979CB07","d58ce0e6-7fe6-44d0-8d8c-76e091757182","e622c465-ee29-4445-8260-1f3431e06587","{""participantId"":""2A7E2B339E2B4E3C82FA88D0A979CB07"",""assignmentId"":""d58ce0e6-7fe6-44d0-8d8c-76e091757182"",""projectId"":""e622c465-ee29-4445-8260-1f3431e06587""}","https://test12345.live/?participantId=2A7E2B339E2B4E3C82FA88D0A979CB07&assignmentId=d58ce0e6-7fe6-44d0-8d8c-76e091757182&projectId=e622c465-ee29-4445-8260-1f3431e06587","","null","<div style=""display: flex; justify-content: center; align-items: center;"">
                    <img src=""images/semantic/semantic_series_9/semantic_series_9_b.jpg"" style=""width: 300px; height: 300px;"" />
                  </div>","null","",""
"","","","","","html-keyboard-response","22","66114","0.0-17.0-2.0","2A7E2B339E2B4E3C82FA88D0A979CB07","2A7E2B339E2B4E3C82FA88D0A979CB07","d58ce0e6-7fe6-44d0-8d8c-76e091757182","e622c465-ee29-4445-8260-1f3431e06587","{""participantId"":""2A7E2B339E2B4E3C82FA88D0A979CB07"",""assignmentId"":""d58ce0e6-7fe6-44d0-8d8c-76e091757182"",""projectId"":""e622c465-ee29-4445-8260-1f3431e06587""}","https://test12345.live/?participantId=2A7E2B339E2B4E3C82FA88D0A979CB07&assignmentId=d58ce0e6-7fe6-44d0-8d8c-76e091757182&projectId=e622c465-ee29-4445-8260-1f3431e06587","","null","<div style=""display: flex; justify-content: center; align-items: center;"">
                    <img src=""images/semantic/semantic_series_9/semantic_series_9_c.jpg"" style=""width: 300px; height: 300px;"" />
                  </div>","null","",""
"","","","","","html-keyboard-response","23","69116","0.0-17.0-3.0","2A7E2B339E2B4E3C82FA88D0A979CB07","2A7E2B339E2B4E3C82FA88D0A979CB07","d58ce0e6-7fe6-44d0-8d8c-76e091757182","e622c465-ee29-4445-8260-1f3431e06587","{""participantId"":""2A7E2B339E2B4E3C82FA88D0A979CB07"",""assignmentId"":""d58ce0e6-7fe6-44d0-8d8c-76e091757182"",""projectId"":""e622c465-ee29-4445-8260-1f3431e06587""}","https://test12345.live/?participantId=2A7E2B339E2B4E3C82FA88D0A979CB07&assignmentId=d58ce0e6-7fe6-44d0-8d8c-76e091757182&projectId=e622c465-ee29-4445-8260-1f3431e06587","","null","<div style=""display: flex; justify-content: center; align-items: center;"">
                    <img src=""images/semantic/semantic_series_9/semantic_series_9_d.jpg"" style=""width: 300px; height: 300px;"" />
                  </div>","null","",""
"","","","","","html-button-response","24","70110","0.0-18.0","2A7E2B339E2B4E3C82FA88D0A979CB07","2A7E2B339E2B4E3C82FA88D0A979CB07","d58ce0e6-7fe6-44d0-8d8c-76e091757182","e622c465-ee29-4445-8260-1f3431e06587","{""participantId"":""2A7E2B339E2B4E3C82FA88D0A979CB07"",""assignmentId"":""d58ce0e6-7fe6-44d0-8d8c-76e091757182"",""projectId"":""e622c465-ee29-4445-8260-1f3431e06587""}","https://test12345.live/?participantId=2A7E2B339E2B4E3C82FA88D0A979CB07&assignmentId=d58ce0e6-7fe6-44d0-8d8c-76e091757182&projectId=e622c465-ee29-4445-8260-1f3431e06587","","994","Was there a person in the picture?","1","",""
"","","","","","survey-likert","25","72395","0.0-19.0","2A7E2B339E2B4E3C82FA88D0A979CB07","2A7E2B339E2B4E3C82FA88D0A979CB07","d58ce0e6-7fe6-44d0-8d8c-76e091757182","e622c465-ee29-4445-8260-1f3431e06587","{""participantId"":""2A7E2B339E2B4E3C82FA88D0A979CB07"",""assignmentId"":""d58ce0e6-7fe6-44d0-8d8c-76e091757182"",""projectId"":""e622c465-ee29-4445-8260-1f3431e06587""}","https://test12345.live/?participantId=2A7E2B339E2B4E3C82FA88D0A979CB07&assignmentId=d58ce0e6-7fe6-44d0-8d8c-76e091757182&projectId=e622c465-ee29-4445-8260-1f3431e06587","","2285","","{""Q0"":2}","","[0]"
"","","","","","html-button-response","26","73527","0.0-20.0","2A7E2B339E2B4E3C82FA88D0A979CB07","2A7E2B339E2B4E3C82FA88D0A979CB07","d58ce0e6-7fe6-44d0-8d8c-76e091757182","e622c465-ee29-4445-8260-1f3431e06587","{""participantId"":""2A7E2B339E2B4E3C82FA88D0A979CB07"",""assignmentId"":""d58ce0e6-7fe6-44d0-8d8c-76e091757182"",""projectId"":""e622c465-ee29-4445-8260-1f3431e06587""}","https://test12345.live/?participantId=2A7E2B339E2B4E3C82FA88D0A979CB07&assignmentId=d58ce0e6-7fe6-44d0-8d8c-76e091757182&projectId=e622c465-ee29-4445-8260-1f3431e06587","","1131","
    <div style=""display: flex; justify-content: center; align-items: center;"">
      <img src=""images/blue_deck_1.png"" style=""width: 300px; height: 300px; margin-right: 10px;"" />
      <img src=""images/red_deck_2.png"" style=""width: 300px; height: 300px;"" />
    </div>","1","1",""
"","","","","","html-keyboard-response","27","76538","0.0-22.0-0.0","2A7E2B339E2B4E3C82FA88D0A979CB07","2A7E2B339E2B4E3C82FA88D0A979CB07","d58ce0e6-7fe6-44d0-8d8c-76e091757182","e622c465-ee29-4445-8260-1f3431e06587","{""participantId"":""2A7E2B339E2B4E3C82FA88D0A979CB07"",""assignmentId"":""d58ce0e6-7fe6-44d0-8d8c-76e091757182"",""projectId"":""e622c465-ee29-4445-8260-1f3431e06587""}","https://test12345.live/?participantId=2A7E2B339E2B4E3C82FA88D0A979CB07&assignmentId=d58ce0e6-7fe6-44d0-8d8c-76e091757182&projectId=e622c465-ee29-4445-8260-1f3431e06587","","null","<div style=""display: flex; justify-content: center; align-items: center;"">
                    <img src=""images/semantic/semantic_series_1/semantic_series_1_a.jpg"" style=""width: 300px; height: 300px;"" />
                  </div>","null","",""
"","","","","","html-keyboard-response","28","79554","0.0-22.0-1.0","2A7E2B339E2B4E3C82FA88D0A979CB07","2A7E2B339E2B4E3C82FA88D0A979CB07","d58ce0e6-7fe6-44d0-8d8c-76e091757182","e622c465-ee29-4445-8260-1f3431e06587","{""participantId"":""2A7E2B339E2B4E3C82FA88D0A979CB07"",""assignmentId"":""d58ce0e6-7fe6-44d0-8d8c-76e091757182"",""projectId"":""e622c465-ee29-4445-8260-1f3431e06587""}","https://test12345.live/?participantId=2A7E2B339E2B4E3C82FA88D0A979CB07&assignmentId=d58ce0e6-7fe6-44d0-8d8c-76e091757182&projectId=e622c465-ee29-4445-8260-1f3431e06587","","null","<div style=""display: flex; justify-content: center; align-items: center;"">
                    <img src=""images/semantic/semantic_series_1/semantic_series_1_b.jpg"" style=""width: 300px; height: 300px;"" />
                  </div>","null","",""
"","","","","","html-keyboard-response","29","82564","0.0-22.0-2.0","2A7E2B339E2B4E3C82FA88D0A979CB07","2A7E2B339E2B4E3C82FA88D0A979CB07","d58ce0e6-7fe6-44d0-8d8c-76e091757182","e622c465-ee29-4445-8260-1f3431e06587","{""participantId"":""2A7E2B339E2B4E3C82FA88D0A979CB07"",""assignmentId"":""d58ce0e6-7fe6-44d0-8d8c-76e091757182"",""projectId"":""e622c465-ee29-4445-8260-1f3431e06587""}","https://test12345.live/?participantId=2A7E2B339E2B4E3C82FA88D0A979CB07&assignmentId=d58ce0e6-7fe6-44d0-8d8c-76e091757182&projectId=e622c465-ee29-4445-8260-1f3431e06587","","null","<div style=""display: flex; justify-content: center; align-items: center;"">
                    <img src=""images/semantic/semantic_series_1/semantic_series_1_c.jpg"" style=""width: 300px; height: 300px;"" />
                  </div>","null","",""
"","","","","","html-keyboard-response","30","85580","0.0-22.0-3.0","2A7E2B339E2B4E3C82FA88D0A979CB07","2A7E2B339E2B4E3C82FA88D0A979CB07","d58ce0e6-7fe6-44d0-8d8c-76e091757182","e622c465-ee29-4445-8260-1f3431e06587","{""participantId"":""2A7E2B339E2B4E3C82FA88D0A979CB07"",""assignmentId"":""d58ce0e6-7fe6-44d0-8d8c-76e091757182"",""projectId"":""e622c465-ee29-4445-8260-1f3431e06587""}","https://test12345.live/?participantId=2A7E2B339E2B4E3C82FA88D0A979CB07&assignmentId=d58ce0e6-7fe6-44d0-8d8c-76e091757182&projectId=e622c465-ee29-4445-8260-1f3431e06587","","null","<div style=""display: flex; justify-content: center; align-items: center;"">
                    <img src=""images/semantic/semantic_series_1/semantic_series_1_d.jpg"" style=""width: 300px; height: 300px;"" />
                  </div>","null","",""
"","","","","","html-button-response","31","86943","0.0-23.0","2A7E2B339E2B4E3C82FA88D0A979CB07","2A7E2B339E2B4E3C82FA88D0A979CB07","d58ce0e6-7fe6-44d0-8d8c-76e091757182","e622c465-ee29-4445-8260-1f3431e06587","{""participantId"":""2A7E2B339E2B4E3C82FA88D0A979CB07"",""assignmentId"":""d58ce0e6-7fe6-44d0-8d8c-76e091757182"",""projectId"":""e622c465-ee29-4445-8260-1f3431e06587""}","https://test12345.live/?participantId=2A7E2B339E2B4E3C82FA88D0A979CB07&assignmentId=d58ce0e6-7fe6-44d0-8d8c-76e091757182&projectId=e622c465-ee29-4445-8260-1f3431e06587","","1363","Was there a person in the picture?","0","",""
"","","","","","survey-likert","32","88755","0.0-24.0","2A7E2B339E2B4E3C82FA88D0A979CB07","2A7E2B339E2B4E3C82FA88D0A979CB07","d58ce0e6-7fe6-44d0-8d8c-76e091757182","e622c465-ee29-4445-8260-1f3431e06587","{""participantId"":""2A7E2B339E2B4E3C82FA88D0A979CB07"",""assignmentId"":""d58ce0e6-7fe6-44d0-8d8c-76e091757182"",""projectId"":""e622c465-ee29-4445-8260-1f3431e06587""}","https://test12345.live/?participantId=2A7E2B339E2B4E3C82FA88D0A979CB07&assignmentId=d58ce0e6-7fe6-44d0-8d8c-76e091757182&projectId=e622c465-ee29-4445-8260-1f3431e06587","","1812","","{""Q0"":3}","","[0]"
"","","","","","html-button-response","33","89436","0.0-25.0","2A7E2B339E2B4E3C82FA88D0A979CB07","2A7E2B339E2B4E3C82FA88D0A979CB07","d58ce0e6-7fe6-44d0-8d8c-76e091757182","e622c465-ee29-4445-8260-1f3431e06587","{""participantId"":""2A7E2B339E2B4E3C82FA88D0A979CB07"",""assignmentId"":""d58ce0e6-7fe6-44d0-8d8c-76e091757182"",""projectId"":""e622c465-ee29-4445-8260-1f3431e06587""}","https://test12345.live/?participantId=2A7E2B339E2B4E3C82FA88D0A979CB07&assignmentId=d58ce0e6-7fe6-44d0-8d8c-76e091757182&projectId=e622c465-ee29-4445-8260-1f3431e06587","","680","
    <div style=""display: flex; justify-content: center; align-items: center;"">
      <img src=""images/blue_deck_1.png"" style=""width: 300px; height: 300px; margin-right: 10px;"" />
      <img src=""images/red_deck_2.png"" style=""width: 300px; height: 300px;"" />
    </div>","1","1",""
"","","","","","html-keyboard-response","34","92447","0.0-27.0-0.0","2A7E2B339E2B4E3C82FA88D0A979CB07","2A7E2B339E2B4E3C82FA88D0A979CB07","d58ce0e6-7fe6-44d0-8d8c-76e091757182","e622c465-ee29-4445-8260-1f3431e06587","{""participantId"":""2A7E2B339E2B4E3C82FA88D0A979CB07"",""assignmentId"":""d58ce0e6-7fe6-44d0-8d8c-76e091757182"",""projectId"":""e622c465-ee29-4445-8260-1f3431e06587""}","https://test12345.live/?participantId=2A7E2B339E2B4E3C82FA88D0A979CB07&assignmentId=d58ce0e6-7fe6-44d0-8d8c-76e091757182&projectId=e622c465-ee29-4445-8260-1f3431e06587","","null","<div style=""display: flex; justify-content: center; align-items: center;"">
                    <img src=""images/semantic/semantic_series_17/semantic_series_17_a.jpg"" style=""width: 300px; height: 300px;"" />
                  </div>","null","",""
"","","","","","html-keyboard-response","35","95449","0.0-27.0-1.0","2A7E2B339E2B4E3C82FA88D0A979CB07","2A7E2B339E2B4E3C82FA88D0A979CB07","d58ce0e6-7fe6-44d0-8d8c-76e091757182","e622c465-ee29-4445-8260-1f3431e06587","{""participantId"":""2A7E2B339E2B4E3C82FA88D0A979CB07"",""assignmentId"":""d58ce0e6-7fe6-44d0-8d8c-76e091757182"",""projectId"":""e622c465-ee29-4445-8260-1f3431e06587""}","https://test12345.live/?participantId=2A7E2B339E2B4E3C82FA88D0A979CB07&assignmentId=d58ce0e6-7fe6-44d0-8d8c-76e091757182&projectId=e622c465-ee29-4445-8260-1f3431e06587","","null","<div style=""display: flex; justify-content: center; align-items: center;"">
                    <img src=""images/semantic/semantic_series_17/semantic_series_17_b.jpg"" style=""width: 300px; height: 300px;"" />
                  </div>","null","",""
"","","","","","html-keyboard-response","36","98465","0.0-27.0-2.0","2A7E2B339E2B4E3C82FA88D0A979CB07","2A7E2B339E2B4E3C82FA88D0A979CB07","d58ce0e6-7fe6-44d0-8d8c-76e091757182","e622c465-ee29-4445-8260-1f3431e06587","{""participantId"":""2A7E2B339E2B4E3C82FA88D0A979CB07"",""assignmentId"":""d58ce0e6-7fe6-44d0-8d8c-76e091757182"",""projectId"":""e622c465-ee29-4445-8260-1f3431e06587""}","https://test12345.live/?participantId=2A7E2B339E2B4E3C82FA88D0A979CB07&assignmentId=d58ce0e6-7fe6-44d0-8d8c-76e091757182&projectId=e622c465-ee29-4445-8260-1f3431e06587","","null","<div style=""display: flex; justify-content: center; align-items: center;"">
                    <img src=""images/semantic/semantic_series_17/semantic_series_17_c.jpg"" style=""width: 300px; height: 300px;"" />
                  </div>","null","",""
"","","","","","html-keyboard-response","37","101467","0.0-27.0-3.0","2A7E2B339E2B4E3C82FA88D0A979CB07","2A7E2B339E2B4E3C82FA88D0A979CB07","d58ce0e6-7fe6-44d0-8d8c-76e091757182","e622c465-ee29-4445-8260-1f3431e06587","{""participantId"":""2A7E2B339E2B4E3C82FA88D0A979CB07"",""assignmentId"":""d58ce0e6-7fe6-44d0-8d8c-76e091757182"",""projectId"":""e622c465-ee29-4445-8260-1f3431e06587""}","https://test12345.live/?participantId=2A7E2B339E2B4E3C82FA88D0A979CB07&assignmentId=d58ce0e6-7fe6-44d0-8d8c-76e091757182&projectId=e622c465-ee29-4445-8260-1f3431e06587","","null","<div style=""display: flex; justify-content: center; align-items: center;"">
                    <img src=""images/semantic/semantic_series_17/semantic_series_17_d.jpg"" style=""width: 300px; height: 300px;"" />
                  </div>","null","",""
"","","","","","html-button-response","38","102466","0.0-28.0","2A7E2B339E2B4E3C82FA88D0A979CB07","2A7E2B339E2B4E3C82FA88D0A979CB07","d58ce0e6-7fe6-44d0-8d8c-76e091757182","e622c465-ee29-4445-8260-1f3431e06587","{""participantId"":""2A7E2B339E2B4E3C82FA88D0A979CB07"",""assignmentId"":""d58ce0e6-7fe6-44d0-8d8c-76e091757182"",""projectId"":""e622c465-ee29-4445-8260-1f3431e06587""}","https://test12345.live/?participantId=2A7E2B339E2B4E3C82FA88D0A979CB07&assignmentId=d58ce0e6-7fe6-44d0-8d8c-76e091757182&projectId=e622c465-ee29-4445-8260-1f3431e06587","","999","Was there a person in the picture?","0","",""
"","","","","","survey-likert","39","104016","0.0-29.0","2A7E2B339E2B4E3C82FA88D0A979CB07","2A7E2B339E2B4E3C82FA88D0A979CB07","d58ce0e6-7fe6-44d0-8d8c-76e091757182","e622c465-ee29-4445-8260-1f3431e06587","{""participantId"":""2A7E2B339E2B4E3C82FA88D0A979CB07"",""assignmentId"":""d58ce0e6-7fe6-44d0-8d8c-76e091757182"",""projectId"":""e622c465-ee29-4445-8260-1f3431e06587""}","https://test12345.live/?participantId=2A7E2B339E2B4E3C82FA88D0A979CB07&assignmentId=d58ce0e6-7fe6-44d0-8d8c-76e091757182&projectId=e622c465-ee29-4445-8260-1f3431e06587","","1550","","{""Q0"":2}","","[0]"
"","","","","","html-button-response","40","105297","0.0-30.0","2A7E2B339E2B4E3C82FA88D0A979CB07","2A7E2B339E2B4E3C82FA88D0A979CB07","d58ce0e6-7fe6-44d0-8d8c-76e091757182","e622c465-ee29-4445-8260-1f3431e06587","{""participantId"":""2A7E2B339E2B4E3C82FA88D0A979CB07"",""assignmentId"":""d58ce0e6-7fe6-44d0-8d8c-76e091757182"",""projectId"":""e622c465-ee29-4445-8260-1f3431e06587""}","https://test12345.live/?participantId=2A7E2B339E2B4E3C82FA88D0A979CB07&assignmentId=d58ce0e6-7fe6-44d0-8d8c-76e091757182&projectId=e622c465-ee29-4445-8260-1f3431e06587","","1280","
    <div style=""display: flex; justify-content: center; align-items: center;"">
      <img src=""images/blue_deck_1.png"" style=""width: 300px; height: 300px; margin-right: 10px;"" />
      <img src=""images/red_deck_2.png"" style=""width: 300px; height: 300px;"" />
    </div>","0","0",""
"","","","","","html-keyboard-response","41","108302","0.0-31.0-0.0","2A7E2B339E2B4E3C82FA88D0A979CB07","2A7E2B339E2B4E3C82FA88D0A979CB07","d58ce0e6-7fe6-44d0-8d8c-76e091757182","e622c465-ee29-4445-8260-1f3431e06587","{""participantId"":""2A7E2B339E2B4E3C82FA88D0A979CB07"",""assignmentId"":""d58ce0e6-7fe6-44d0-8d8c-76e091757182"",""projectId"":""e622c465-ee29-4445-8260-1f3431e06587""}","https://test12345.live/?participantId=2A7E2B339E2B4E3C82FA88D0A979CB07&assignmentId=d58ce0e6-7fe6-44d0-8d8c-76e091757182&projectId=e622c465-ee29-4445-8260-1f3431e06587","","null","<div style=""display: flex; justify-content: center; align-items: center;"">
                    <img src=""images/causal/causal_series_16/causal_series_16_a.jpg"" style=""width: 300px; height: 300px;"" />
                  </div>","null","",""
"","","","","","html-keyboard-response","42","111303","0.0-31.0-1.0","2A7E2B339E2B4E3C82FA88D0A979CB07","2A7E2B339E2B4E3C82FA88D0A979CB07","d58ce0e6-7fe6-44d0-8d8c-76e091757182","e622c465-ee29-4445-8260-1f3431e06587","{""participantId"":""2A7E2B339E2B4E3C82FA88D0A979CB07"",""assignmentId"":""d58ce0e6-7fe6-44d0-8d8c-76e091757182"",""projectId"":""e622c465-ee29-4445-8260-1f3431e06587""}","https://test12345.live/?participantId=2A7E2B339E2B4E3C82FA88D0A979CB07&assignmentId=d58ce0e6-7fe6-44d0-8d8c-76e091757182&projectId=e622c465-ee29-4445-8260-1f3431e06587","","null","<div style=""display: flex; justify-content: center; align-items: center;"">
                    <img src=""images/causal/causal_series_16/causal_series_16_b.jpg"" style=""width: 300px; height: 300px;"" />
                  </div>","null","",""
"","","","","","html-keyboard-response","43","114307","0.0-31.0-2.0","2A7E2B339E2B4E3C82FA88D0A979CB07","2A7E2B339E2B4E3C82FA88D0A979CB07","d58ce0e6-7fe6-44d0-8d8c-76e091757182","e622c465-ee29-4445-8260-1f3431e06587","{""participantId"":""2A7E2B339E2B4E3C82FA88D0A979CB07"",""assignmentId"":""d58ce0e6-7fe6-44d0-8d8c-76e091757182"",""projectId"":""e622c465-ee29-4445-8260-1f3431e06587""}","https://test12345.live/?participantId=2A7E2B339E2B4E3C82FA88D0A979CB07&assignmentId=d58ce0e6-7fe6-44d0-8d8c-76e091757182&projectId=e622c465-ee29-4445-8260-1f3431e06587","","null","<div style=""display: flex; justify-content: center; align-items: center;"">
                    <img src=""images/causal/causal_series_16/causal_series_16_c.jpg"" style=""width: 300px; height: 300px;"" />
                  </div>","null","",""
"","","","","","html-keyboard-response","44","117323","0.0-31.0-3.0","2A7E2B339E2B4E3C82FA88D0A979CB07","2A7E2B339E2B4E3C82FA88D0A979CB07","d58ce0e6-7fe6-44d0-8d8c-76e091757182","e622c465-ee29-4445-8260-1f3431e06587","{""participantId"":""2A7E2B339E2B4E3C82FA88D0A979CB07"",""assignmentId"":""d58ce0e6-7fe6-44d0-8d8c-76e091757182"",""projectId"":""e622c465-ee29-4445-8260-1f3431e06587""}","https://test12345.live/?participantId=2A7E2B339E2B4E3C82FA88D0A979CB07&assignmentId=d58ce0e6-7fe6-44d0-8d8c-76e091757182&projectId=e622c465-ee29-4445-8260-1f3431e06587","","null","<div style=""display: flex; justify-content: center; align-items: center;"">
                    <img src=""images/causal/causal_series_16/causal_series_16_d.jpg"" style=""width: 300px; height: 300px;"" />
                  </div>","null","",""
"","","","","","html-button-response","45","118273","0.0-33.0","2A7E2B339E2B4E3C82FA88D0A979CB07","2A7E2B339E2B4E3C82FA88D0A979CB07","d58ce0e6-7fe6-44d0-8d8c-76e091757182","e622c465-ee29-4445-8260-1f3431e06587","{""participantId"":""2A7E2B339E2B4E3C82FA88D0A979CB07"",""assignmentId"":""d58ce0e6-7fe6-44d0-8d8c-76e091757182"",""projectId"":""e622c465-ee29-4445-8260-1f3431e06587""}","https://test12345.live/?participantId=2A7E2B339E2B4E3C82FA88D0A979CB07&assignmentId=d58ce0e6-7fe6-44d0-8d8c-76e091757182&projectId=e622c465-ee29-4445-8260-1f3431e06587","","949","Was there a person in the picture?","0","",""
"","","","","","survey-likert","46","119652","0.0-34.0","2A7E2B339E2B4E3C82FA88D0A979CB07","2A7E2B339E2B4E3C82FA88D0A979CB07","d58ce0e6-7fe6-44d0-8d8c-76e091757182","e622c465-ee29-4445-8260-1f3431e06587","{""participantId"":""2A7E2B339E2B4E3C82FA88D0A979CB07"",""assignmentId"":""d58ce0e6-7fe6-44d0-8d8c-76e091757182"",""projectId"":""e622c465-ee29-4445-8260-1f3431e06587""}","https://test12345.live/?participantId=2A7E2B339E2B4E3C82FA88D0A979CB07&assignmentId=d58ce0e6-7fe6-44d0-8d8c-76e091757182&projectId=e622c465-ee29-4445-8260-1f3431e06587","","1379","","{""Q0"":3}","","[0]"
"","","","","","html-button-response","47","120475","0.0-35.0","2A7E2B339E2B4E3C82FA88D0A979CB07","2A7E2B339E2B4E3C82FA88D0A979CB07","d58ce0e6-7fe6-44d0-8d8c-76e091757182","e622c465-ee29-4445-8260-1f3431e06587","{""participantId"":""2A7E2B339E2B4E3C82FA88D0A979CB07"",""assignmentId"":""d58ce0e6-7fe6-44d0-8d8c-76e091757182"",""projectId"":""e622c465-ee29-4445-8260-1f3431e06587""}","https://test12345.live/?participantId=2A7E2B339E2B4E3C82FA88D0A979CB07&assignmentId=d58ce0e6-7fe6-44d0-8d8c-76e091757182&projectId=e622c465-ee29-4445-8260-1f3431e06587","","822","
    <div style=""display: flex; justify-content: center; align-items: center;"">
      <img src=""images/blue_deck_1.png"" style=""width: 300px; height: 300px; margin-right: 10px;"" />
      <img src=""images/red_deck_2.png"" style=""width: 300px; height: 300px;"" />
    </div>","1","1",""
"","","","","","html-keyboard-response","48","123480","0.0-37.0-0.0","2A7E2B339E2B4E3C82FA88D0A979CB07","2A7E2B339E2B4E3C82FA88D0A979CB07","d58ce0e6-7fe6-44d0-8d8c-76e091757182","e622c465-ee29-4445-8260-1f3431e06587","{""participantId"":""2A7E2B339E2B4E3C82FA88D0A979CB07"",""assignmentId"":""d58ce0e6-7fe6-44d0-8d8c-76e091757182"",""projectId"":""e622c465-ee29-4445-8260-1f3431e06587""}","https://test12345.live/?participantId=2A7E2B339E2B4E3C82FA88D0A979CB07&assignmentId=d58ce0e6-7fe6-44d0-8d8c-76e091757182&projectId=e622c465-ee29-4445-8260-1f3431e06587","","null","<div style=""display: flex; justify-content: center; align-items: center;"">
                    <img src=""images/semantic/semantic_series_12/semantic_series_12_a.jpg"" style=""width: 300px; height: 300px;"" />
                  </div>","null","",""
"","","","","","html-keyboard-response","49","126496","0.0-37.0-1.0","2A7E2B339E2B4E3C82FA88D0A979CB07","2A7E2B339E2B4E3C82FA88D0A979CB07","d58ce0e6-7fe6-44d0-8d8c-76e091757182","e622c465-ee29-4445-8260-1f3431e06587","{""participantId"":""2A7E2B339E2B4E3C82FA88D0A979CB07"",""assignmentId"":""d58ce0e6-7fe6-44d0-8d8c-76e091757182"",""projectId"":""e622c465-ee29-4445-8260-1f3431e06587""}","https://test12345.live/?participantId=2A7E2B339E2B4E3C82FA88D0A979CB07&assignmentId=d58ce0e6-7fe6-44d0-8d8c-76e091757182&projectId=e622c465-ee29-4445-8260-1f3431e06587","","null","<div style=""display: flex; justify-content: center; align-items: center;"">
                    <img src=""images/semantic/semantic_series_12/semantic_series_12_b.jpg"" style=""width: 300px; height: 300px;"" />
                  </div>","null","",""
"","","","","","html-keyboard-response","50","129512","0.0-37.0-2.0","2A7E2B339E2B4E3C82FA88D0A979CB07","2A7E2B339E2B4E3C82FA88D0A979CB07","d58ce0e6-7fe6-44d0-8d8c-76e091757182","e622c465-ee29-4445-8260-1f3431e06587","{""participantId"":""2A7E2B339E2B4E3C82FA88D0A979CB07"",""assignmentId"":""d58ce0e6-7fe6-44d0-8d8c-76e091757182"",""projectId"":""e622c465-ee29-4445-8260-1f3431e06587""}","https://test12345.live/?participantId=2A7E2B339E2B4E3C82FA88D0A979CB07&assignmentId=d58ce0e6-7fe6-44d0-8d8c-76e091757182&projectId=e622c465-ee29-4445-8260-1f3431e06587","","null","<div style=""display: flex; justify-content: center; align-items: center;"">
                    <img src=""images/semantic/semantic_series_12/semantic_series_12_c.jpg"" style=""width: 300px; height: 300px;"" />
                  </div>","null","",""
"","","","","","html-keyboard-response","51","132513","0.0-37.0-3.0","2A7E2B339E2B4E3C82FA88D0A979CB07","2A7E2B339E2B4E3C82FA88D0A979CB07","d58ce0e6-7fe6-44d0-8d8c-76e091757182","e622c465-ee29-4445-8260-1f3431e06587","{""participantId"":""2A7E2B339E2B4E3C82FA88D0A979CB07"",""assignmentId"":""d58ce0e6-7fe6-44d0-8d8c-76e091757182"",""projectId"":""e622c465-ee29-4445-8260-1f3431e06587""}","https://test12345.live/?participantId=2A7E2B339E2B4E3C82FA88D0A979CB07&assignmentId=d58ce0e6-7fe6-44d0-8d8c-76e091757182&projectId=e622c465-ee29-4445-8260-1f3431e06587","","null","<div style=""display: flex; justify-content: center; align-items: center;"">
                    <img src=""images/semantic/semantic_series_12/semantic_series_12_d.jpg"" style=""width: 300px; height: 300px;"" />
                  </div>","null","",""
"","","","","","html-button-response","52","133821","0.0-38.0","2A7E2B339E2B4E3C82FA88D0A979CB07","2A7E2B339E2B4E3C82FA88D0A979CB07","d58ce0e6-7fe6-44d0-8d8c-76e091757182","e622c465-ee29-4445-8260-1f3431e06587","{""participantId"":""2A7E2B339E2B4E3C82FA88D0A979CB07"",""assignmentId"":""d58ce0e6-7fe6-44d0-8d8c-76e091757182"",""projectId"":""e622c465-ee29-4445-8260-1f3431e06587""}","https://test12345.live/?participantId=2A7E2B339E2B4E3C82FA88D0A979CB07&assignmentId=d58ce0e6-7fe6-44d0-8d8c-76e091757182&projectId=e622c465-ee29-4445-8260-1f3431e06587","","1307","Was there a person in the picture?","1","",""
"","","","","","survey-likert","53","135552","0.0-39.0","2A7E2B339E2B4E3C82FA88D0A979CB07","2A7E2B339E2B4E3C82FA88D0A979CB07","d58ce0e6-7fe6-44d0-8d8c-76e091757182","e622c465-ee29-4445-8260-1f3431e06587","{""participantId"":""2A7E2B339E2B4E3C82FA88D0A979CB07"",""assignmentId"":""d58ce0e6-7fe6-44d0-8d8c-76e091757182"",""projectId"":""e622c465-ee29-4445-8260-1f3431e06587""}","https://test12345.live/?participantId=2A7E2B339E2B4E3C82FA88D0A979CB07&assignmentId=d58ce0e6-7fe6-44d0-8d8c-76e091757182&projectId=e622c465-ee29-4445-8260-1f3431e06587","","1731","","{""Q0"":2}","","[0]"
"","","","","","html-button-response","54","136441","0.0-40.0","2A7E2B339E2B4E3C82FA88D0A979CB07","2A7E2B339E2B4E3C82FA88D0A979CB07","d58ce0e6-7fe6-44d0-8d8c-76e091757182","e622c465-ee29-4445-8260-1f3431e06587","{""participantId"":""2A7E2B339E2B4E3C82FA88D0A979CB07"",""assignmentId"":""d58ce0e6-7fe6-44d0-8d8c-76e091757182"",""projectId"":""e622c465-ee29-4445-8260-1f3431e06587""}","https://test12345.live/?participantId=2A7E2B339E2B4E3C82FA88D0A979CB07&assignmentId=d58ce0e6-7fe6-44d0-8d8c-76e091757182&projectId=e622c465-ee29-4445-8260-1f3431e06587","","888","
    <div style=""display: flex; justify-content: center; align-items: center;"">
      <img src=""images/blue_deck_1.png"" style=""width: 300px; height: 300px; margin-right: 10px;"" />
      <img src=""images/red_deck_2.png"" style=""width: 300px; height: 300px;"" />
    </div>","0","0",""
"","","","","","html-keyboard-response","55","139454","0.0-41.0-0.0","2A7E2B339E2B4E3C82FA88D0A979CB07","2A7E2B339E2B4E3C82FA88D0A979CB07","d58ce0e6-7fe6-44d0-8d8c-76e091757182","e622c465-ee29-4445-8260-1f3431e06587","{""participantId"":""2A7E2B339E2B4E3C82FA88D0A979CB07"",""assignmentId"":""d58ce0e6-7fe6-44d0-8d8c-76e091757182"",""projectId"":""e622c465-ee29-4445-8260-1f3431e06587""}","https://test12345.live/?participantId=2A7E2B339E2B4E3C82FA88D0A979CB07&assignmentId=d58ce0e6-7fe6-44d0-8d8c-76e091757182&projectId=e622c465-ee29-4445-8260-1f3431e06587","","null","<div style=""display: flex; justify-content: center; align-items: center;"">
                    <img src=""images/causal/causal_series_4/causal_series_4_a.jpg"" style=""width: 300px; height: 300px;"" />
                  </div>","null","",""
"","","","","","html-keyboard-response","56","142463","0.0-41.0-1.0","2A7E2B339E2B4E3C82FA88D0A979CB07","2A7E2B339E2B4E3C82FA88D0A979CB07","d58ce0e6-7fe6-44d0-8d8c-76e091757182","e622c465-ee29-4445-8260-1f3431e06587","{""participantId"":""2A7E2B339E2B4E3C82FA88D0A979CB07"",""assignmentId"":""d58ce0e6-7fe6-44d0-8d8c-76e091757182"",""projectId"":""e622c465-ee29-4445-8260-1f3431e06587""}","https://test12345.live/?participantId=2A7E2B339E2B4E3C82FA88D0A979CB07&assignmentId=d58ce0e6-7fe6-44d0-8d8c-76e091757182&projectId=e622c465-ee29-4445-8260-1f3431e06587","","null","<div style=""display: flex; justify-content: center; align-items: center;"">
                    <img src=""images/causal/causal_series_4/causal_series_4_b.jpg"" style=""width: 300px; height: 300px;"" />
                  </div>","null","",""
"","","","","","html-keyboard-response","57","145479","0.0-41.0-2.0","2A7E2B339E2B4E3C82FA88D0A979CB07","2A7E2B339E2B4E3C82FA88D0A979CB07","d58ce0e6-7fe6-44d0-8d8c-76e091757182","e622c465-ee29-4445-8260-1f3431e06587","{""participantId"":""2A7E2B339E2B4E3C82FA88D0A979CB07"",""assignmentId"":""d58ce0e6-7fe6-44d0-8d8c-76e091757182"",""projectId"":""e622c465-ee29-4445-8260-1f3431e06587""}","https://test12345.live/?participantId=2A7E2B339E2B4E3C82FA88D0A979CB07&assignmentId=d58ce0e6-7fe6-44d0-8d8c-76e091757182&projectId=e622c465-ee29-4445-8260-1f3431e06587","","null","<div style=""display: flex; justify-content: center; align-items: center;"">
                    <img src=""images/causal/causal_series_4/causal_series_4_c.jpg"" style=""width: 300px; height: 300px;"" />
                  </div>","null","",""
"","","","","","html-keyboard-response","58","148483","0.0-41.0-3.0","2A7E2B339E2B4E3C82FA88D0A979CB07","2A7E2B339E2B4E3C82FA88D0A979CB07","d58ce0e6-7fe6-44d0-8d8c-76e091757182","e622c465-ee29-4445-8260-1f3431e06587","{""participantId"":""2A7E2B339E2B4E3C82FA88D0A979CB07"",""assignmentId"":""d58ce0e6-7fe6-44d0-8d8c-76e091757182"",""projectId"":""e622c465-ee29-4445-8260-1f3431e06587""}","https://test12345.live/?participantId=2A7E2B339E2B4E3C82FA88D0A979CB07&assignmentId=d58ce0e6-7fe6-44d0-8d8c-76e091757182&projectId=e622c465-ee29-4445-8260-1f3431e06587","","null","<div style=""display: flex; justify-content: center; align-items: center;"">
                    <img src=""images/causal/causal_series_4/causal_series_4_d.jpg"" style=""width: 300px; height: 300px;"" />
                  </div>","null","",""
"","","","","","html-button-response","59","149724","0.0-43.0","2A7E2B339E2B4E3C82FA88D0A979CB07","2A7E2B339E2B4E3C82FA88D0A979CB07","d58ce0e6-7fe6-44d0-8d8c-76e091757182","e622c465-ee29-4445-8260-1f3431e06587","{""participantId"":""2A7E2B339E2B4E3C82FA88D0A979CB07"",""assignmentId"":""d58ce0e6-7fe6-44d0-8d8c-76e091757182"",""projectId"":""e622c465-ee29-4445-8260-1f3431e06587""}","https://test12345.live/?participantId=2A7E2B339E2B4E3C82FA88D0A979CB07&assignmentId=d58ce0e6-7fe6-44d0-8d8c-76e091757182&projectId=e622c465-ee29-4445-8260-1f3431e06587","","1241","Was there a person in the picture?","1","",""
"","","","","","survey-likert","60","151166","0.0-44.0","2A7E2B339E2B4E3C82FA88D0A979CB07","2A7E2B339E2B4E3C82FA88D0A979CB07","d58ce0e6-7fe6-44d0-8d8c-76e091757182","e622c465-ee29-4445-8260-1f3431e06587","{""participantId"":""2A7E2B339E2B4E3C82FA88D0A979CB07"",""assignmentId"":""d58ce0e6-7fe6-44d0-8d8c-76e091757182"",""projectId"":""e622c465-ee29-4445-8260-1f3431e06587""}","https://test12345.live/?participantId=2A7E2B339E2B4E3C82FA88D0A979CB07&assignmentId=d58ce0e6-7fe6-44d0-8d8c-76e091757182&projectId=e622c465-ee29-4445-8260-1f3431e06587","","1441","","{""Q0"":2}","","[0]"
"","","","","","html-button-response","61","151818","0.0-45.0","2A7E2B339E2B4E3C82FA88D0A979CB07","2A7E2B339E2B4E3C82FA88D0A979CB07","d58ce0e6-7fe6-44d0-8d8c-76e091757182","e622c465-ee29-4445-8260-1f3431e06587","{""participantId"":""2A7E2B339E2B4E3C82FA88D0A979CB07"",""assignmentId"":""d58ce0e6-7fe6-44d0-8d8c-76e091757182"",""projectId"":""e622c465-ee29-4445-8260-1f3431e06587""}","https://test12345.live/?participantId=2A7E2B339E2B4E3C82FA88D0A979CB07&assignmentId=d58ce0e6-7fe6-44d0-8d8c-76e091757182&projectId=e622c465-ee29-4445-8260-1f3431e06587","","651","
    <div style=""display: flex; justify-content: center; align-items: center;"">
      <img src=""images/blue_deck_1.png"" style=""width: 300px; height: 300px; margin-right: 10px;"" />
      <img src=""images/red_deck_2.png"" style=""width: 300px; height: 300px;"" />
    </div>","0","0",""
"","","","","","html-keyboard-response","62","154828","0.0-46.0-0.0","2A7E2B339E2B4E3C82FA88D0A979CB07","2A7E2B339E2B4E3C82FA88D0A979CB07","d58ce0e6-7fe6-44d0-8d8c-76e091757182","e622c465-ee29-4445-8260-1f3431e06587","{""participantId"":""2A7E2B339E2B4E3C82FA88D0A979CB07"",""assignmentId"":""d58ce0e6-7fe6-44d0-8d8c-76e091757182"",""projectId"":""e622c465-ee29-4445-8260-1f3431e06587""}","https://test12345.live/?participantId=2A7E2B339E2B4E3C82FA88D0A979CB07&assignmentId=d58ce0e6-7fe6-44d0-8d8c-76e091757182&projectId=e622c465-ee29-4445-8260-1f3431e06587","","null","<div style=""display: flex; justify-content: center; align-items: center;"">
                    <img src=""images/causal/causal_series_8/causal_series_8_a.jpg"" style=""width: 300px; height: 300px;"" />
                  </div>","null","",""
"","","","","","html-keyboard-response","63","157830","0.0-46.0-1.0","2A7E2B339E2B4E3C82FA88D0A979CB07","2A7E2B339E2B4E3C82FA88D0A979CB07","d58ce0e6-7fe6-44d0-8d8c-76e091757182","e622c465-ee29-4445-8260-1f3431e06587","{""participantId"":""2A7E2B339E2B4E3C82FA88D0A979CB07"",""assignmentId"":""d58ce0e6-7fe6-44d0-8d8c-76e091757182"",""projectId"":""e622c465-ee29-4445-8260-1f3431e06587""}","https://test12345.live/?participantId=2A7E2B339E2B4E3C82FA88D0A979CB07&assignmentId=d58ce0e6-7fe6-44d0-8d8c-76e091757182&projectId=e622c465-ee29-4445-8260-1f3431e06587","","null","<div style=""display: flex; justify-content: center; align-items: center;"">
                    <img src=""images/causal/causal_series_8/causal_series_8_b.jpg"" style=""width: 300px; height: 300px;"" />
                  </div>","null","",""
"","","","","","html-keyboard-response","64","160844","0.0-46.0-2.0","2A7E2B339E2B4E3C82FA88D0A979CB07","2A7E2B339E2B4E3C82FA88D0A979CB07","d58ce0e6-7fe6-44d0-8d8c-76e091757182","e622c465-ee29-4445-8260-1f3431e06587","{""participantId"":""2A7E2B339E2B4E3C82FA88D0A979CB07"",""assignmentId"":""d58ce0e6-7fe6-44d0-8d8c-76e091757182"",""projectId"":""e622c465-ee29-4445-8260-1f3431e06587""}","https://test12345.live/?participantId=2A7E2B339E2B4E3C82FA88D0A979CB07&assignmentId=d58ce0e6-7fe6-44d0-8d8c-76e091757182&projectId=e622c465-ee29-4445-8260-1f3431e06587","","null","<div style=""display: flex; justify-content: center; align-items: center;"">
                    <img src=""images/causal/causal_series_8/causal_series_8_c.jpg"" style=""width: 300px; height: 300px;"" />
                  </div>","null","",""
"","","","","","html-keyboard-response","65","163846","0.0-46.0-3.0","2A7E2B339E2B4E3C82FA88D0A979CB07","2A7E2B339E2B4E3C82FA88D0A979CB07","d58ce0e6-7fe6-44d0-8d8c-76e091757182","e622c465-ee29-4445-8260-1f3431e06587","{""participantId"":""2A7E2B339E2B4E3C82FA88D0A979CB07"",""assignmentId"":""d58ce0e6-7fe6-44d0-8d8c-76e091757182"",""projectId"":""e622c465-ee29-4445-8260-1f3431e06587""}","https://test12345.live/?participantId=2A7E2B339E2B4E3C82FA88D0A979CB07&assignmentId=d58ce0e6-7fe6-44d0-8d8c-76e091757182&projectId=e622c465-ee29-4445-8260-1f3431e06587","","null","<div style=""display: flex; justify-content: center; align-items: center;"">
                    <img src=""images/causal/causal_series_8/causal_series_8_d.jpg"" style=""width: 300px; height: 300px;"" />
                  </div>","null","",""
"","","","","","html-button-response","66","165239","0.0-48.0","2A7E2B339E2B4E3C82FA88D0A979CB07","2A7E2B339E2B4E3C82FA88D0A979CB07","d58ce0e6-7fe6-44d0-8d8c-76e091757182","e622c465-ee29-4445-8260-1f3431e06587","{""participantId"":""2A7E2B339E2B4E3C82FA88D0A979CB07"",""assignmentId"":""d58ce0e6-7fe6-44d0-8d8c-76e091757182"",""projectId"":""e622c465-ee29-4445-8260-1f3431e06587""}","https://test12345.live/?participantId=2A7E2B339E2B4E3C82FA88D0A979CB07&assignmentId=d58ce0e6-7fe6-44d0-8d8c-76e091757182&projectId=e622c465-ee29-4445-8260-1f3431e06587","","1392","Was there a person in the picture?","0","",""
"","","","","","survey-likert","67","169509","0.0-49.0","2A7E2B339E2B4E3C82FA88D0A979CB07","2A7E2B339E2B4E3C82FA88D0A979CB07","d58ce0e6-7fe6-44d0-8d8c-76e091757182","e622c465-ee29-4445-8260-1f3431e06587","{""participantId"":""2A7E2B339E2B4E3C82FA88D0A979CB07"",""assignmentId"":""d58ce0e6-7fe6-44d0-8d8c-76e091757182"",""projectId"":""e622c465-ee29-4445-8260-1f3431e06587""}","https://test12345.live/?participantId=2A7E2B339E2B4E3C82FA88D0A979CB07&assignmentId=d58ce0e6-7fe6-44d0-8d8c-76e091757182&projectId=e622c465-ee29-4445-8260-1f3431e06587","","4270","","{""Q0"":4}","","[0]"
"","","","","","html-button-response","68","170501","0.0-50.0","2A7E2B339E2B4E3C82FA88D0A979CB07","2A7E2B339E2B4E3C82FA88D0A979CB07","d58ce0e6-7fe6-44d0-8d8c-76e091757182","e622c465-ee29-4445-8260-1f3431e06587","{""participantId"":""2A7E2B339E2B4E3C82FA88D0A979CB07"",""assignmentId"":""d58ce0e6-7fe6-44d0-8d8c-76e091757182"",""projectId"":""e622c465-ee29-4445-8260-1f3431e06587""}","https://test12345.live/?participantId=2A7E2B339E2B4E3C82FA88D0A979CB07&assignmentId=d58ce0e6-7fe6-44d0-8d8c-76e091757182&projectId=e622c465-ee29-4445-8260-1f3431e06587","","991","
    <div style=""display: flex; justify-content: center; align-items: center;"">
      <img src=""images/blue_deck_1.png"" style=""width: 300px; height: 300px; margin-right: 10px;"" />
      <img src=""images/red_deck_2.png"" style=""width: 300px; height: 300px;"" />
    </div>","1","1",""
"","","","","","html-keyboard-response","69","173508","0.0-52.0-0.0","2A7E2B339E2B4E3C82FA88D0A979CB07","2A7E2B339E2B4E3C82FA88D0A979CB07","d58ce0e6-7fe6-44d0-8d8c-76e091757182","e622c465-ee29-4445-8260-1f3431e06587","{""participantId"":""2A7E2B339E2B4E3C82FA88D0A979CB07"",""assignmentId"":""d58ce0e6-7fe6-44d0-8d8c-76e091757182"",""projectId"":""e622c465-ee29-4445-8260-1f3431e06587""}","https://test12345.live/?participantId=2A7E2B339E2B4E3C82FA88D0A979CB07&assignmentId=d58ce0e6-7fe6-44d0-8d8c-76e091757182&projectId=e622c465-ee29-4445-8260-1f3431e06587","","null","<div style=""display: flex; justify-content: center; align-items: center;"">
                    <img src=""images/semantic/semantic_series_10/semantic_series_10_a.jpg"" style=""width: 300px; height: 300px;"" />
                  </div>","null","",""
"","","","","","html-keyboard-response","70","176523","0.0-52.0-1.0","2A7E2B339E2B4E3C82FA88D0A979CB07","2A7E2B339E2B4E3C82FA88D0A979CB07","d58ce0e6-7fe6-44d0-8d8c-76e091757182","e622c465-ee29-4445-8260-1f3431e06587","{""participantId"":""2A7E2B339E2B4E3C82FA88D0A979CB07"",""assignmentId"":""d58ce0e6-7fe6-44d0-8d8c-76e091757182"",""projectId"":""e622c465-ee29-4445-8260-1f3431e06587""}","https://test12345.live/?participantId=2A7E2B339E2B4E3C82FA88D0A979CB07&assignmentId=d58ce0e6-7fe6-44d0-8d8c-76e091757182&projectId=e622c465-ee29-4445-8260-1f3431e06587","","null","<div style=""display: flex; justify-content: center; align-items: center;"">
                    <img src=""images/semantic/semantic_series_10/semantic_series_10_b.jpg"" style=""width: 300px; height: 300px;"" />
                  </div>","null","",""
"","","","","","html-keyboard-response","71","179534","0.0-52.0-2.0","2A7E2B339E2B4E3C82FA88D0A979CB07","2A7E2B339E2B4E3C82FA88D0A979CB07","d58ce0e6-7fe6-44d0-8d8c-76e091757182","e622c465-ee29-4445-8260-1f3431e06587","{""participantId"":""2A7E2B339E2B4E3C82FA88D0A979CB07"",""assignmentId"":""d58ce0e6-7fe6-44d0-8d8c-76e091757182"",""projectId"":""e622c465-ee29-4445-8260-1f3431e06587""}","https://test12345.live/?participantId=2A7E2B339E2B4E3C82FA88D0A979CB07&assignmentId=d58ce0e6-7fe6-44d0-8d8c-76e091757182&projectId=e622c465-ee29-4445-8260-1f3431e06587","","null","<div style=""display: flex; justify-content: center; align-items: center;"">
                    <img src=""images/semantic/semantic_series_10/semantic_series_10_c.jpg"" style=""width: 300px; height: 300px;"" />
                  </div>","null","",""
"","","","","","html-keyboard-response","72","182536","0.0-52.0-3.0","2A7E2B339E2B4E3C82FA88D0A979CB07","2A7E2B339E2B4E3C82FA88D0A979CB07","d58ce0e6-7fe6-44d0-8d8c-76e091757182","e622c465-ee29-4445-8260-1f3431e06587","{""participantId"":""2A7E2B339E2B4E3C82FA88D0A979CB07"",""assignmentId"":""d58ce0e6-7fe6-44d0-8d8c-76e091757182"",""projectId"":""e622c465-ee29-4445-8260-1f3431e06587""}","https://test12345.live/?participantId=2A7E2B339E2B4E3C82FA88D0A979CB07&assignmentId=d58ce0e6-7fe6-44d0-8d8c-76e091757182&projectId=e622c465-ee29-4445-8260-1f3431e06587","","null","<div style=""display: flex; justify-content: center; align-items: center;"">
                    <img src=""images/semantic/semantic_series_10/semantic_series_10_d.jpg"" style=""width: 300px; height: 300px;"" />
                  </div>","null","",""
"","","","","","html-button-response","73","183752","0.0-53.0","2A7E2B339E2B4E3C82FA88D0A979CB07","2A7E2B339E2B4E3C82FA88D0A979CB07","d58ce0e6-7fe6-44d0-8d8c-76e091757182","e622c465-ee29-4445-8260-1f3431e06587","{""participantId"":""2A7E2B339E2B4E3C82FA88D0A979CB07"",""assignmentId"":""d58ce0e6-7fe6-44d0-8d8c-76e091757182"",""projectId"":""e622c465-ee29-4445-8260-1f3431e06587""}","https://test12345.live/?participantId=2A7E2B339E2B4E3C82FA88D0A979CB07&assignmentId=d58ce0e6-7fe6-44d0-8d8c-76e091757182&projectId=e622c465-ee29-4445-8260-1f3431e06587","","1216","Was there a person in the picture?","1","",""
"","","","","","survey-likert","74","185488","0.0-54.0","2A7E2B339E2B4E3C82FA88D0A979CB07","2A7E2B339E2B4E3C82FA88D0A979CB07","d58ce0e6-7fe6-44d0-8d8c-76e091757182","e622c465-ee29-4445-8260-1f3431e06587","{""participantId"":""2A7E2B339E2B4E3C82FA88D0A979CB07"",""assignmentId"":""d58ce0e6-7fe6-44d0-8d8c-76e091757182"",""projectId"":""e622c465-ee29-4445-8260-1f3431e06587""}","https://test12345.live/?participantId=2A7E2B339E2B4E3C82FA88D0A979CB07&assignmentId=d58ce0e6-7fe6-44d0-8d8c-76e091757182&projectId=e622c465-ee29-4445-8260-1f3431e06587","","1736","","{""Q0"":2}","","[0]"
"","","","","","html-button-response","75","186203","0.0-55.0","2A7E2B339E2B4E3C82FA88D0A979CB07","2A7E2B339E2B4E3C82FA88D0A979CB07","d58ce0e6-7fe6-44d0-8d8c-76e091757182","e622c465-ee29-4445-8260-1f3431e06587","{""participantId"":""2A7E2B339E2B4E3C82FA88D0A979CB07"",""assignmentId"":""d58ce0e6-7fe6-44d0-8d8c-76e091757182"",""projectId"":""e622c465-ee29-4445-8260-1f3431e06587""}","https://test12345.live/?participantId=2A7E2B339E2B4E3C82FA88D0A979CB07&assignmentId=d58ce0e6-7fe6-44d0-8d8c-76e091757182&projectId=e622c465-ee29-4445-8260-1f3431e06587","","714","
    <div style=""display: flex; justify-content: center; align-items: center;"">
      <img src=""images/blue_deck_1.png"" style=""width: 300px; height: 300px; margin-right: 10px;"" />
      <img src=""images/red_deck_2.png"" style=""width: 300px; height: 300px;"" />
    </div>","0","0",""
"","","","","","html-keyboard-response","76","189212","0.0-56.0-0.0","2A7E2B339E2B4E3C82FA88D0A979CB07","2A7E2B339E2B4E3C82FA88D0A979CB07","d58ce0e6-7fe6-44d0-8d8c-76e091757182","e622c465-ee29-4445-8260-1f3431e06587","{""participantId"":""2A7E2B339E2B4E3C82FA88D0A979CB07"",""assignmentId"":""d58ce0e6-7fe6-44d0-8d8c-76e091757182"",""projectId"":""e622c465-ee29-4445-8260-1f3431e06587""}","https://test12345.live/?participantId=2A7E2B339E2B4E3C82FA88D0A979CB07&assignmentId=d58ce0e6-7fe6-44d0-8d8c-76e091757182&projectId=e622c465-ee29-4445-8260-1f3431e06587","","null","<div style=""display: flex; justify-content: center; align-items: center;"">
                    <img src=""images/causal/causal_series_5/causal_series_5_a.jpg"" style=""width: 300px; height: 300px;"" />
                  </div>","null","",""
"","","","","","html-keyboard-response","77","192228","0.0-56.0-1.0","2A7E2B339E2B4E3C82FA88D0A979CB07","2A7E2B339E2B4E3C82FA88D0A979CB07","d58ce0e6-7fe6-44d0-8d8c-76e091757182","e622c465-ee29-4445-8260-1f3431e06587","{""participantId"":""2A7E2B339E2B4E3C82FA88D0A979CB07"",""assignmentId"":""d58ce0e6-7fe6-44d0-8d8c-76e091757182"",""projectId"":""e622c465-ee29-4445-8260-1f3431e06587""}","https://test12345.live/?participantId=2A7E2B339E2B4E3C82FA88D0A979CB07&assignmentId=d58ce0e6-7fe6-44d0-8d8c-76e091757182&projectId=e622c465-ee29-4445-8260-1f3431e06587","","null","<div style=""display: flex; justify-content: center; align-items: center;"">
                    <img src=""images/causal/causal_series_5/causal_series_5_b.jpg"" style=""width: 300px; height: 300px;"" />
                  </div>","null","",""
"","","","","","html-keyboard-response","78","195232","0.0-56.0-2.0","2A7E2B339E2B4E3C82FA88D0A979CB07","2A7E2B339E2B4E3C82FA88D0A979CB07","d58ce0e6-7fe6-44d0-8d8c-76e091757182","e622c465-ee29-4445-8260-1f3431e06587","{""participantId"":""2A7E2B339E2B4E3C82FA88D0A979CB07"",""assignmentId"":""d58ce0e6-7fe6-44d0-8d8c-76e091757182"",""projectId"":""e622c465-ee29-4445-8260-1f3431e06587""}","https://test12345.live/?participantId=2A7E2B339E2B4E3C82FA88D0A979CB07&assignmentId=d58ce0e6-7fe6-44d0-8d8c-76e091757182&projectId=e622c465-ee29-4445-8260-1f3431e06587","","null","<div style=""display: flex; justify-content: center; align-items: center;"">
                    <img src=""images/causal/causal_series_5/causal_series_5_c.jpg"" style=""width: 300px; height: 300px;"" />
                  </div>","null","",""
"","","","","","html-keyboard-response","79","198240","0.0-56.0-3.0","2A7E2B339E2B4E3C82FA88D0A979CB07","2A7E2B339E2B4E3C82FA88D0A979CB07","d58ce0e6-7fe6-44d0-8d8c-76e091757182","e622c465-ee29-4445-8260-1f3431e06587","{""participantId"":""2A7E2B339E2B4E3C82FA88D0A979CB07"",""assignmentId"":""d58ce0e6-7fe6-44d0-8d8c-76e091757182"",""projectId"":""e622c465-ee29-4445-8260-1f3431e06587""}","https://test12345.live/?participantId=2A7E2B339E2B4E3C82FA88D0A979CB07&assignmentId=d58ce0e6-7fe6-44d0-8d8c-76e091757182&projectId=e622c465-ee29-4445-8260-1f3431e06587","","null","<div style=""display: flex; justify-content: center; align-items: center;"">
                    <img src=""images/causal/causal_series_5/causal_series_5_d.jpg"" style=""width: 300px; height: 300px;"" />
                  </div>","null","",""
"","","","","","html-button-response","80","199134","0.0-58.0","2A7E2B339E2B4E3C82FA88D0A979CB07","2A7E2B339E2B4E3C82FA88D0A979CB07","d58ce0e6-7fe6-44d0-8d8c-76e091757182","e622c465-ee29-4445-8260-1f3431e06587","{""participantId"":""2A7E2B339E2B4E3C82FA88D0A979CB07"",""assignmentId"":""d58ce0e6-7fe6-44d0-8d8c-76e091757182"",""projectId"":""e622c465-ee29-4445-8260-1f3431e06587""}","https://test12345.live/?participantId=2A7E2B339E2B4E3C82FA88D0A979CB07&assignmentId=d58ce0e6-7fe6-44d0-8d8c-76e091757182&projectId=e622c465-ee29-4445-8260-1f3431e06587","","893","Was there a person in the picture?","0","",""
"","","","","","survey-likert","81","201617","0.0-59.0","2A7E2B339E2B4E3C82FA88D0A979CB07","2A7E2B339E2B4E3C82FA88D0A979CB07","d58ce0e6-7fe6-44d0-8d8c-76e091757182","e622c465-ee29-4445-8260-1f3431e06587","{""participantId"":""2A7E2B339E2B4E3C82FA88D0A979CB07"",""assignmentId"":""d58ce0e6-7fe6-44d0-8d8c-76e091757182"",""projectId"":""e622c465-ee29-4445-8260-1f3431e06587""}","https://test12345.live/?participantId=2A7E2B339E2B4E3C82FA88D0A979CB07&assignmentId=d58ce0e6-7fe6-44d0-8d8c-76e091757182&projectId=e622c465-ee29-4445-8260-1f3431e06587","","2483","","{""Q0"":1}","","[0]"
"","","","","","html-button-response","82","202365","0.0-60.0","2A7E2B339E2B4E3C82FA88D0A979CB07","2A7E2B339E2B4E3C82FA88D0A979CB07","d58ce0e6-7fe6-44d0-8d8c-76e091757182","e622c465-ee29-4445-8260-1f3431e06587","{""participantId"":""2A7E2B339E2B4E3C82FA88D0A979CB07"",""assignmentId"":""d58ce0e6-7fe6-44d0-8d8c-76e091757182"",""projectId"":""e622c465-ee29-4445-8260-1f3431e06587""}","https://test12345.live/?participantId=2A7E2B339E2B4E3C82FA88D0A979CB07&assignmentId=d58ce0e6-7fe6-44d0-8d8c-76e091757182&projectId=e622c465-ee29-4445-8260-1f3431e06587","","747","
    <div style=""display: flex; justify-content: center; align-items: center;"">
      <img src=""images/blue_deck_1.png"" style=""width: 300px; height: 300px; margin-right: 10px;"" />
      <img src=""images/red_deck_2.png"" style=""width: 300px; height: 300px;"" />
    </div>","0","0",""
"","","","","","html-keyboard-response","83","205381","0.0-61.0-0.0","2A7E2B339E2B4E3C82FA88D0A979CB07","2A7E2B339E2B4E3C82FA88D0A979CB07","d58ce0e6-7fe6-44d0-8d8c-76e091757182","e622c465-ee29-4445-8260-1f3431e06587","{""participantId"":""2A7E2B339E2B4E3C82FA88D0A979CB07"",""assignmentId"":""d58ce0e6-7fe6-44d0-8d8c-76e091757182"",""projectId"":""e622c465-ee29-4445-8260-1f3431e06587""}","https://test12345.live/?participantId=2A7E2B339E2B4E3C82FA88D0A979CB07&assignmentId=d58ce0e6-7fe6-44d0-8d8c-76e091757182&projectId=e622c465-ee29-4445-8260-1f3431e06587","","null","<div style=""display: flex; justify-content: center; align-items: center;"">
                    <img src=""images/causal/causal_series_18/causal_series_18_a.jpg"" style=""width: 300px; height: 300px;"" />
                  </div>","null","",""
"","","","","","html-keyboard-response","84","208395","0.0-61.0-1.0","2A7E2B339E2B4E3C82FA88D0A979CB07","2A7E2B339E2B4E3C82FA88D0A979CB07","d58ce0e6-7fe6-44d0-8d8c-76e091757182","e622c465-ee29-4445-8260-1f3431e06587","{""participantId"":""2A7E2B339E2B4E3C82FA88D0A979CB07"",""assignmentId"":""d58ce0e6-7fe6-44d0-8d8c-76e091757182"",""projectId"":""e622c465-ee29-4445-8260-1f3431e06587""}","https://test12345.live/?participantId=2A7E2B339E2B4E3C82FA88D0A979CB07&assignmentId=d58ce0e6-7fe6-44d0-8d8c-76e091757182&projectId=e622c465-ee29-4445-8260-1f3431e06587","","null","<div style=""display: flex; justify-content: center; align-items: center;"">
                    <img src=""images/causal/causal_series_18/causal_series_18_b.jpg"" style=""width: 300px; height: 300px;"" />
                  </div>","null","",""
"","","","","","html-keyboard-response","85","211396","0.0-61.0-2.0","2A7E2B339E2B4E3C82FA88D0A979CB07","2A7E2B339E2B4E3C82FA88D0A979CB07","d58ce0e6-7fe6-44d0-8d8c-76e091757182","e622c465-ee29-4445-8260-1f3431e06587","{""participantId"":""2A7E2B339E2B4E3C82FA88D0A979CB07"",""assignmentId"":""d58ce0e6-7fe6-44d0-8d8c-76e091757182"",""projectId"":""e622c465-ee29-4445-8260-1f3431e06587""}","https://test12345.live/?participantId=2A7E2B339E2B4E3C82FA88D0A979CB07&assignmentId=d58ce0e6-7fe6-44d0-8d8c-76e091757182&projectId=e622c465-ee29-4445-8260-1f3431e06587","","null","<div style=""display: flex; justify-content: center; align-items: center;"">
                    <img src=""images/causal/causal_series_18/causal_series_18_c.jpg"" style=""width: 300px; height: 300px;"" />
                  </div>","null","",""
"","","","","","html-keyboard-response","86","214398","0.0-61.0-3.0","2A7E2B339E2B4E3C82FA88D0A979CB07","2A7E2B339E2B4E3C82FA88D0A979CB07","d58ce0e6-7fe6-44d0-8d8c-76e091757182","e622c465-ee29-4445-8260-1f3431e06587","{""participantId"":""2A7E2B339E2B4E3C82FA88D0A979CB07"",""assignmentId"":""d58ce0e6-7fe6-44d0-8d8c-76e091757182"",""projectId"":""e622c465-ee29-4445-8260-1f3431e06587""}","https://test12345.live/?participantId=2A7E2B339E2B4E3C82FA88D0A979CB07&assignmentId=d58ce0e6-7fe6-44d0-8d8c-76e091757182&projectId=e622c465-ee29-4445-8260-1f3431e06587","","null","<div style=""display: flex; justify-content: center; align-items: center;"">
                    <img src=""images/causal/causal_series_18/causal_series_18_d.jpg"" style=""width: 300px; height: 300px;"" />
                  </div>","null","",""
"","","","","","html-button-response","87","215177","0.0-63.0","2A7E2B339E2B4E3C82FA88D0A979CB07","2A7E2B339E2B4E3C82FA88D0A979CB07","d58ce0e6-7fe6-44d0-8d8c-76e091757182","e622c465-ee29-4445-8260-1f3431e06587","{""participantId"":""2A7E2B339E2B4E3C82FA88D0A979CB07"",""assignmentId"":""d58ce0e6-7fe6-44d0-8d8c-76e091757182"",""projectId"":""e622c465-ee29-4445-8260-1f3431e06587""}","https://test12345.live/?participantId=2A7E2B339E2B4E3C82FA88D0A979CB07&assignmentId=d58ce0e6-7fe6-44d0-8d8c-76e091757182&projectId=e622c465-ee29-4445-8260-1f3431e06587","","778","Was there a person in the picture?","1","",""
"","","","","","survey-likert","88","216646","0.0-64.0","2A7E2B339E2B4E3C82FA88D0A979CB07","2A7E2B339E2B4E3C82FA88D0A979CB07","d58ce0e6-7fe6-44d0-8d8c-76e091757182","e622c465-ee29-4445-8260-1f3431e06587","{""participantId"":""2A7E2B339E2B4E3C82FA88D0A979CB07"",""assignmentId"":""d58ce0e6-7fe6-44d0-8d8c-76e091757182"",""projectId"":""e622c465-ee29-4445-8260-1f3431e06587""}","https://test12345.live/?participantId=2A7E2B339E2B4E3C82FA88D0A979CB07&assignmentId=d58ce0e6-7fe6-44d0-8d8c-76e091757182&projectId=e622c465-ee29-4445-8260-1f3431e06587","","1469","","{""Q0"":1}","","[0]"
"","","","","","html-button-response","89","217361","0.0-65.0","2A7E2B339E2B4E3C82FA88D0A979CB07","2A7E2B339E2B4E3C82FA88D0A979CB07","d58ce0e6-7fe6-44d0-8d8c-76e091757182","e622c465-ee29-4445-8260-1f3431e06587","{""participantId"":""2A7E2B339E2B4E3C82FA88D0A979CB07"",""assignmentId"":""d58ce0e6-7fe6-44d0-8d8c-76e091757182"",""projectId"":""e622c465-ee29-4445-8260-1f3431e06587""}","https://test12345.live/?participantId=2A7E2B339E2B4E3C82FA88D0A979CB07&assignmentId=d58ce0e6-7fe6-44d0-8d8c-76e091757182&projectId=e622c465-ee29-4445-8260-1f3431e06587","","714","
    <div style=""display: flex; justify-content: center; align-items: center;"">
      <img src=""images/blue_deck_1.png"" style=""width: 300px; height: 300px; margin-right: 10px;"" />
      <img src=""images/red_deck_2.png"" style=""width: 300px; height: 300px;"" />
    </div>","0","0",""
"","","","","","html-keyboard-response","90","220365","0.0-66.0-0.0","2A7E2B339E2B4E3C82FA88D0A979CB07","2A7E2B339E2B4E3C82FA88D0A979CB07","d58ce0e6-7fe6-44d0-8d8c-76e091757182","e622c465-ee29-4445-8260-1f3431e06587","{""participantId"":""2A7E2B339E2B4E3C82FA88D0A979CB07"",""assignmentId"":""d58ce0e6-7fe6-44d0-8d8c-76e091757182"",""projectId"":""e622c465-ee29-4445-8260-1f3431e06587""}","https://test12345.live/?participantId=2A7E2B339E2B4E3C82FA88D0A979CB07&assignmentId=d58ce0e6-7fe6-44d0-8d8c-76e091757182&projectId=e622c465-ee29-4445-8260-1f3431e06587","","null","<div style=""display: flex; justify-content: center; align-items: center;"">
                    <img src=""images/causal/causal_series_17/causal_series_17_a.jpg"" style=""width: 300px; height: 300px;"" />
                  </div>","null","",""
"","","","","","html-keyboard-response","91","223380","0.0-66.0-1.0","2A7E2B339E2B4E3C82FA88D0A979CB07","2A7E2B339E2B4E3C82FA88D0A979CB07","d58ce0e6-7fe6-44d0-8d8c-76e091757182","e622c465-ee29-4445-8260-1f3431e06587","{""participantId"":""2A7E2B339E2B4E3C82FA88D0A979CB07"",""assignmentId"":""d58ce0e6-7fe6-44d0-8d8c-76e091757182"",""projectId"":""e622c465-ee29-4445-8260-1f3431e06587""}","https://test12345.live/?participantId=2A7E2B339E2B4E3C82FA88D0A979CB07&assignmentId=d58ce0e6-7fe6-44d0-8d8c-76e091757182&projectId=e622c465-ee29-4445-8260-1f3431e06587","","null","<div style=""display: flex; justify-content: center; align-items: center;"">
                    <img src=""images/causal/causal_series_17/causal_series_17_b.jpg"" style=""width: 300px; height: 300px;"" />
                  </div>","null","",""
"","","","","","html-keyboard-response","92","226393","0.0-66.0-2.0","2A7E2B339E2B4E3C82FA88D0A979CB07","2A7E2B339E2B4E3C82FA88D0A979CB07","d58ce0e6-7fe6-44d0-8d8c-76e091757182","e622c465-ee29-4445-8260-1f3431e06587","{""participantId"":""2A7E2B339E2B4E3C82FA88D0A979CB07"",""assignmentId"":""d58ce0e6-7fe6-44d0-8d8c-76e091757182"",""projectId"":""e622c465-ee29-4445-8260-1f3431e06587""}","https://test12345.live/?participantId=2A7E2B339E2B4E3C82FA88D0A979CB07&assignmentId=d58ce0e6-7fe6-44d0-8d8c-76e091757182&projectId=e622c465-ee29-4445-8260-1f3431e06587","","null","<div style=""display: flex; justify-content: center; align-items: center;"">
                    <img src=""images/causal/causal_series_17/causal_series_17_c.jpg"" style=""width: 300px; height: 300px;"" />
                  </div>","null","",""
"","","","","","html-keyboard-response","93","229398","0.0-66.0-3.0","2A7E2B339E2B4E3C82FA88D0A979CB07","2A7E2B339E2B4E3C82FA88D0A979CB07","d58ce0e6-7fe6-44d0-8d8c-76e091757182","e622c465-ee29-4445-8260-1f3431e06587","{""participantId"":""2A7E2B339E2B4E3C82FA88D0A979CB07"",""assignmentId"":""d58ce0e6-7fe6-44d0-8d8c-76e091757182"",""projectId"":""e622c465-ee29-4445-8260-1f3431e06587""}","https://test12345.live/?participantId=2A7E2B339E2B4E3C82FA88D0A979CB07&assignmentId=d58ce0e6-7fe6-44d0-8d8c-76e091757182&projectId=e622c465-ee29-4445-8260-1f3431e06587","","null","<div style=""display: flex; justify-content: center; align-items: center;"">
                    <img src=""images/causal/causal_series_17/causal_series_17_d.jpg"" style=""width: 300px; height: 300px;"" />
                  </div>","null","",""
"","","","","","html-button-response","94","230323","0.0-68.0","2A7E2B339E2B4E3C82FA88D0A979CB07","2A7E2B339E2B4E3C82FA88D0A979CB07","d58ce0e6-7fe6-44d0-8d8c-76e091757182","e622c465-ee29-4445-8260-1f3431e06587","{""participantId"":""2A7E2B339E2B4E3C82FA88D0A979CB07"",""assignmentId"":""d58ce0e6-7fe6-44d0-8d8c-76e091757182"",""projectId"":""e622c465-ee29-4445-8260-1f3431e06587""}","https://test12345.live/?participantId=2A7E2B339E2B4E3C82FA88D0A979CB07&assignmentId=d58ce0e6-7fe6-44d0-8d8c-76e091757182&projectId=e622c465-ee29-4445-8260-1f3431e06587","","924","Was there a person in the picture?","0","",""
"","","","","","survey-likert","95","231902","0.0-69.0","2A7E2B339E2B4E3C82FA88D0A979CB07","2A7E2B339E2B4E3C82FA88D0A979CB07","d58ce0e6-7fe6-44d0-8d8c-76e091757182","e622c465-ee29-4445-8260-1f3431e06587","{""participantId"":""2A7E2B339E2B4E3C82FA88D0A979CB07"",""assignmentId"":""d58ce0e6-7fe6-44d0-8d8c-76e091757182"",""projectId"":""e622c465-ee29-4445-8260-1f3431e06587""}","https://test12345.live/?participantId=2A7E2B339E2B4E3C82FA88D0A979CB07&assignmentId=d58ce0e6-7fe6-44d0-8d8c-76e091757182&projectId=e622c465-ee29-4445-8260-1f3431e06587","","1579","","{""Q0"":3}","","[0]"
"","","","","","html-button-response","96","232590","0.0-70.0","2A7E2B339E2B4E3C82FA88D0A979CB07","2A7E2B339E2B4E3C82FA88D0A979CB07","d58ce0e6-7fe6-44d0-8d8c-76e091757182","e622c465-ee29-4445-8260-1f3431e06587","{""participantId"":""2A7E2B339E2B4E3C82FA88D0A979CB07"",""assignmentId"":""d58ce0e6-7fe6-44d0-8d8c-76e091757182"",""projectId"":""e622c465-ee29-4445-8260-1f3431e06587""}","https://test12345.live/?participantId=2A7E2B339E2B4E3C82FA88D0A979CB07&assignmentId=d58ce0e6-7fe6-44d0-8d8c-76e091757182&projectId=e622c465-ee29-4445-8260-1f3431e06587","","687","
    <div style=""display: flex; justify-content: center; align-items: center;"">
      <img src=""images/blue_deck_1.png"" style=""width: 300px; height: 300px; margin-right: 10px;"" />
      <img src=""images/red_deck_2.png"" style=""width: 300px; height: 300px;"" />
    </div>","1","1",""
"","","","","","html-keyboard-response","97","235601","0.0-72.0-0.0","2A7E2B339E2B4E3C82FA88D0A979CB07","2A7E2B339E2B4E3C82FA88D0A979CB07","d58ce0e6-7fe6-44d0-8d8c-76e091757182","e622c465-ee29-4445-8260-1f3431e06587","{""participantId"":""2A7E2B339E2B4E3C82FA88D0A979CB07"",""assignmentId"":""d58ce0e6-7fe6-44d0-8d8c-76e091757182"",""projectId"":""e622c465-ee29-4445-8260-1f3431e06587""}","https://test12345.live/?participantId=2A7E2B339E2B4E3C82FA88D0A979CB07&assignmentId=d58ce0e6-7fe6-44d0-8d8c-76e091757182&projectId=e622c465-ee29-4445-8260-1f3431e06587","","null","<div style=""display: flex; justify-content: center; align-items: center;"">
                    <img src=""images/semantic/semantic_series_13/semantic_series_13_a.jpg"" style=""width: 300px; height: 300px;"" />
                  </div>","null","",""
"","","","","","html-keyboard-response","98","238617","0.0-72.0-1.0","2A7E2B339E2B4E3C82FA88D0A979CB07","2A7E2B339E2B4E3C82FA88D0A979CB07","d58ce0e6-7fe6-44d0-8d8c-76e091757182","e622c465-ee29-4445-8260-1f3431e06587","{""participantId"":""2A7E2B339E2B4E3C82FA88D0A979CB07"",""assignmentId"":""d58ce0e6-7fe6-44d0-8d8c-76e091757182"",""projectId"":""e622c465-ee29-4445-8260-1f3431e06587""}","https://test12345.live/?participantId=2A7E2B339E2B4E3C82FA88D0A979CB07&assignmentId=d58ce0e6-7fe6-44d0-8d8c-76e091757182&projectId=e622c465-ee29-4445-8260-1f3431e06587","","null","<div style=""display: flex; justify-content: center; align-items: center;"">
                    <img src=""images/semantic/semantic_series_13/semantic_series_13_b.jpg"" style=""width: 300px; height: 300px;"" />
                  </div>","null","",""
"","","","","","html-keyboard-response","99","241629","0.0-72.0-2.0","2A7E2B339E2B4E3C82FA88D0A979CB07","2A7E2B339E2B4E3C82FA88D0A979CB07","d58ce0e6-7fe6-44d0-8d8c-76e091757182","e622c465-ee29-4445-8260-1f3431e06587","{""participantId"":""2A7E2B339E2B4E3C82FA88D0A979CB07"",""assignmentId"":""d58ce0e6-7fe6-44d0-8d8c-76e091757182"",""projectId"":""e622c465-ee29-4445-8260-1f3431e06587""}","https://test12345.live/?participantId=2A7E2B339E2B4E3C82FA88D0A979CB07&assignmentId=d58ce0e6-7fe6-44d0-8d8c-76e091757182&projectId=e622c465-ee29-4445-8260-1f3431e06587","","null","<div style=""display: flex; justify-content: center; align-items: center;"">
                    <img src=""images/semantic/semantic_series_13/semantic_series_13_c.jpg"" style=""width: 300px; height: 300px;"" />
                  </div>","null","",""
"","","","","","html-keyboard-response","100","244644","0.0-72.0-3.0","2A7E2B339E2B4E3C82FA88D0A979CB07","2A7E2B339E2B4E3C82FA88D0A979CB07","d58ce0e6-7fe6-44d0-8d8c-76e091757182","e622c465-ee29-4445-8260-1f3431e06587","{""participantId"":""2A7E2B339E2B4E3C82FA88D0A979CB07"",""assignmentId"":""d58ce0e6-7fe6-44d0-8d8c-76e091757182"",""projectId"":""e622c465-ee29-4445-8260-1f3431e06587""}","https://test12345.live/?participantId=2A7E2B339E2B4E3C82FA88D0A979CB07&assignmentId=d58ce0e6-7fe6-44d0-8d8c-76e091757182&projectId=e622c465-ee29-4445-8260-1f3431e06587","","null","<div style=""display: flex; justify-content: center; align-items: center;"">
                    <img src=""images/semantic/semantic_series_13/semantic_series_13_d.jpg"" style=""width: 300px; height: 300px;"" />
                  </div>","null","",""
"","","","","","html-button-response","101","245455","0.0-73.0","2A7E2B339E2B4E3C82FA88D0A979CB07","2A7E2B339E2B4E3C82FA88D0A979CB07","d58ce0e6-7fe6-44d0-8d8c-76e091757182","e622c465-ee29-4445-8260-1f3431e06587","{""participantId"":""2A7E2B339E2B4E3C82FA88D0A979CB07"",""assignmentId"":""d58ce0e6-7fe6-44d0-8d8c-76e091757182"",""projectId"":""e622c465-ee29-4445-8260-1f3431e06587""}","https://test12345.live/?participantId=2A7E2B339E2B4E3C82FA88D0A979CB07&assignmentId=d58ce0e6-7fe6-44d0-8d8c-76e091757182&projectId=e622c465-ee29-4445-8260-1f3431e06587","","811","Was there a person in the picture?","0","",""
"","","","","","survey-likert","102","246916","0.0-74.0","2A7E2B339E2B4E3C82FA88D0A979CB07","2A7E2B339E2B4E3C82FA88D0A979CB07","d58ce0e6-7fe6-44d0-8d8c-76e091757182","e622c465-ee29-4445-8260-1f3431e06587","{""participantId"":""2A7E2B339E2B4E3C82FA88D0A979CB07"",""assignmentId"":""d58ce0e6-7fe6-44d0-8d8c-76e091757182"",""projectId"":""e622c465-ee29-4445-8260-1f3431e06587""}","https://test12345.live/?participantId=2A7E2B339E2B4E3C82FA88D0A979CB07&assignmentId=d58ce0e6-7fe6-44d0-8d8c-76e091757182&projectId=e622c465-ee29-4445-8260-1f3431e06587","","1461","","{""Q0"":2}","","[0]"
"","","","","","html-button-response","103","247951","0.0-75.0","2A7E2B339E2B4E3C82FA88D0A979CB07","2A7E2B339E2B4E3C82FA88D0A979CB07","d58ce0e6-7fe6-44d0-8d8c-76e091757182","e622c465-ee29-4445-8260-1f3431e06587","{""participantId"":""2A7E2B339E2B4E3C82FA88D0A979CB07"",""assignmentId"":""d58ce0e6-7fe6-44d0-8d8c-76e091757182"",""projectId"":""e622c465-ee29-4445-8260-1f3431e06587""}","https://test12345.live/?participantId=2A7E2B339E2B4E3C82FA88D0A979CB07&assignmentId=d58ce0e6-7fe6-44d0-8d8c-76e091757182&projectId=e622c465-ee29-4445-8260-1f3431e06587","","1034","
    <div style=""display: flex; justify-content: center; align-items: center;"">
      <img src=""images/blue_deck_1.png"" style=""width: 300px; height: 300px; margin-right: 10px;"" />
      <img src=""images/red_deck_2.png"" style=""width: 300px; height: 300px;"" />
    </div>","0","0",""
"","","","","","html-keyboard-response","104","250957","0.0-76.0-0.0","2A7E2B339E2B4E3C82FA88D0A979CB07","2A7E2B339E2B4E3C82FA88D0A979CB07","d58ce0e6-7fe6-44d0-8d8c-76e091757182","e622c465-ee29-4445-8260-1f3431e06587","{""participantId"":""2A7E2B339E2B4E3C82FA88D0A979CB07"",""assignmentId"":""d58ce0e6-7fe6-44d0-8d8c-76e091757182"",""projectId"":""e622c465-ee29-4445-8260-1f3431e06587""}","https://test12345.live/?participantId=2A7E2B339E2B4E3C82FA88D0A979CB07&assignmentId=d58ce0e6-7fe6-44d0-8d8c-76e091757182&projectId=e622c465-ee29-4445-8260-1f3431e06587","","null","<div style=""display: flex; justify-content: center; align-items: center;"">
                    <img src=""images/causal/causal_series_1/causal_series_1_a.jpg"" style=""width: 300px; height: 300px;"" />
                  </div>","null","",""
"","","","","","html-keyboard-response","105","253961","0.0-76.0-1.0","2A7E2B339E2B4E3C82FA88D0A979CB07","2A7E2B339E2B4E3C82FA88D0A979CB07","d58ce0e6-7fe6-44d0-8d8c-76e091757182","e622c465-ee29-4445-8260-1f3431e06587","{""participantId"":""2A7E2B339E2B4E3C82FA88D0A979CB07"",""assignmentId"":""d58ce0e6-7fe6-44d0-8d8c-76e091757182"",""projectId"":""e622c465-ee29-4445-8260-1f3431e06587""}","https://test12345.live/?participantId=2A7E2B339E2B4E3C82FA88D0A979CB07&assignmentId=d58ce0e6-7fe6-44d0-8d8c-76e091757182&projectId=e622c465-ee29-4445-8260-1f3431e06587","","null","<div style=""display: flex; justify-content: center; align-items: center;"">
                    <img src=""images/causal/causal_series_1/causal_series_1_b.jpg"" style=""width: 300px; height: 300px;"" />
                  </div>","null","",""
"","","","","","html-keyboard-response","106","256969","0.0-76.0-2.0","2A7E2B339E2B4E3C82FA88D0A979CB07","2A7E2B339E2B4E3C82FA88D0A979CB07","d58ce0e6-7fe6-44d0-8d8c-76e091757182","e622c465-ee29-4445-8260-1f3431e06587","{""participantId"":""2A7E2B339E2B4E3C82FA88D0A979CB07"",""assignmentId"":""d58ce0e6-7fe6-44d0-8d8c-76e091757182"",""projectId"":""e622c465-ee29-4445-8260-1f3431e06587""}","https://test12345.live/?participantId=2A7E2B339E2B4E3C82FA88D0A979CB07&assignmentId=d58ce0e6-7fe6-44d0-8d8c-76e091757182&projectId=e622c465-ee29-4445-8260-1f3431e06587","","null","<div style=""display: flex; justify-content: center; align-items: center;"">
                    <img src=""images/causal/causal_series_1/causal_series_1_c.jpg"" style=""width: 300px; height: 300px;"" />
                  </div>","null","",""
"","","","","","html-keyboard-response","107","259977","0.0-76.0-3.0","2A7E2B339E2B4E3C82FA88D0A979CB07","2A7E2B339E2B4E3C82FA88D0A979CB07","d58ce0e6-7fe6-44d0-8d8c-76e091757182","e622c465-ee29-4445-8260-1f3431e06587","{""participantId"":""2A7E2B339E2B4E3C82FA88D0A979CB07"",""assignmentId"":""d58ce0e6-7fe6-44d0-8d8c-76e091757182"",""projectId"":""e622c465-ee29-4445-8260-1f3431e06587""}","https://test12345.live/?participantId=2A7E2B339E2B4E3C82FA88D0A979CB07&assignmentId=d58ce0e6-7fe6-44d0-8d8c-76e091757182&projectId=e622c465-ee29-4445-8260-1f3431e06587","","null","<div style=""display: flex; justify-content: center; align-items: center;"">
                    <img src=""images/causal/causal_series_1/causal_series_1_d.jpg"" style=""width: 300px; height: 300px;"" />
                  </div>","null","",""
"","","","","","html-button-response","108","260930","0.0-78.0","2A7E2B339E2B4E3C82FA88D0A979CB07","2A7E2B339E2B4E3C82FA88D0A979CB07","d58ce0e6-7fe6-44d0-8d8c-76e091757182","e622c465-ee29-4445-8260-1f3431e06587","{""participantId"":""2A7E2B339E2B4E3C82FA88D0A979CB07"",""assignmentId"":""d58ce0e6-7fe6-44d0-8d8c-76e091757182"",""projectId"":""e622c465-ee29-4445-8260-1f3431e06587""}","https://test12345.live/?participantId=2A7E2B339E2B4E3C82FA88D0A979CB07&assignmentId=d58ce0e6-7fe6-44d0-8d8c-76e091757182&projectId=e622c465-ee29-4445-8260-1f3431e06587","","952","Was there a person in the picture?","0","",""
"","","","","","survey-likert","109","264267","0.0-79.0","2A7E2B339E2B4E3C82FA88D0A979CB07","2A7E2B339E2B4E3C82FA88D0A979CB07","d58ce0e6-7fe6-44d0-8d8c-76e091757182","e622c465-ee29-4445-8260-1f3431e06587","{""participantId"":""2A7E2B339E2B4E3C82FA88D0A979CB07"",""assignmentId"":""d58ce0e6-7fe6-44d0-8d8c-76e091757182"",""projectId"":""e622c465-ee29-4445-8260-1f3431e06587""}","https://test12345.live/?participantId=2A7E2B339E2B4E3C82FA88D0A979CB07&assignmentId=d58ce0e6-7fe6-44d0-8d8c-76e091757182&projectId=e622c465-ee29-4445-8260-1f3431e06587","","3337","","{""Q0"":0}","","[0]"
"","","","","","html-button-response","110","265010","0.0-80.0","2A7E2B339E2B4E3C82FA88D0A979CB07","2A7E2B339E2B4E3C82FA88D0A979CB07","d58ce0e6-7fe6-44d0-8d8c-76e091757182","e622c465-ee29-4445-8260-1f3431e06587","{""participantId"":""2A7E2B339E2B4E3C82FA88D0A979CB07"",""assignmentId"":""d58ce0e6-7fe6-44d0-8d8c-76e091757182"",""projectId"":""e622c465-ee29-4445-8260-1f3431e06587""}","https://test12345.live/?participantId=2A7E2B339E2B4E3C82FA88D0A979CB07&assignmentId=d58ce0e6-7fe6-44d0-8d8c-76e091757182&projectId=e622c465-ee29-4445-8260-1f3431e06587","","742","
    <div style=""display: flex; justify-content: center; align-items: center;"">
      <img src=""images/blue_deck_1.png"" style=""width: 300px; height: 300px; margin-right: 10px;"" />
      <img src=""images/red_deck_2.png"" style=""width: 300px; height: 300px;"" />
    </div>","0","0",""
"","","","","","html-keyboard-response","111","268020","0.0-81.0-0.0","2A7E2B339E2B4E3C82FA88D0A979CB07","2A7E2B339E2B4E3C82FA88D0A979CB07","d58ce0e6-7fe6-44d0-8d8c-76e091757182","e622c465-ee29-4445-8260-1f3431e06587","{""participantId"":""2A7E2B339E2B4E3C82FA88D0A979CB07"",""assignmentId"":""d58ce0e6-7fe6-44d0-8d8c-76e091757182"",""projectId"":""e622c465-ee29-4445-8260-1f3431e06587""}","https://test12345.live/?participantId=2A7E2B339E2B4E3C82FA88D0A979CB07&assignmentId=d58ce0e6-7fe6-44d0-8d8c-76e091757182&projectId=e622c465-ee29-4445-8260-1f3431e06587","","null","<div style=""display: flex; justify-content: center; align-items: center;"">
                    <img src=""images/causal/causal_series_9/causal_series_9_a.jpg"" style=""width: 300px; height: 300px;"" />
                  </div>","null","",""
"","","","","","html-keyboard-response","112","271029","0.0-81.0-1.0","2A7E2B339E2B4E3C82FA88D0A979CB07","2A7E2B339E2B4E3C82FA88D0A979CB07","d58ce0e6-7fe6-44d0-8d8c-76e091757182","e622c465-ee29-4445-8260-1f3431e06587","{""participantId"":""2A7E2B339E2B4E3C82FA88D0A979CB07"",""assignmentId"":""d58ce0e6-7fe6-44d0-8d8c-76e091757182"",""projectId"":""e622c465-ee29-4445-8260-1f3431e06587""}","https://test12345.live/?participantId=2A7E2B339E2B4E3C82FA88D0A979CB07&assignmentId=d58ce0e6-7fe6-44d0-8d8c-76e091757182&projectId=e622c465-ee29-4445-8260-1f3431e06587","","null","<div style=""display: flex; justify-content: center; align-items: center;"">
                    <img src=""images/causal/causal_series_9/causal_series_9_b.jpg"" style=""width: 300px; height: 300px;"" />
                  </div>","null","",""
"","","","","","html-keyboard-response","113","274044","0.0-81.0-2.0","2A7E2B339E2B4E3C82FA88D0A979CB07","2A7E2B339E2B4E3C82FA88D0A979CB07","d58ce0e6-7fe6-44d0-8d8c-76e091757182","e622c465-ee29-4445-8260-1f3431e06587","{""participantId"":""2A7E2B339E2B4E3C82FA88D0A979CB07"",""assignmentId"":""d58ce0e6-7fe6-44d0-8d8c-76e091757182"",""projectId"":""e622c465-ee29-4445-8260-1f3431e06587""}","https://test12345.live/?participantId=2A7E2B339E2B4E3C82FA88D0A979CB07&assignmentId=d58ce0e6-7fe6-44d0-8d8c-76e091757182&projectId=e622c465-ee29-4445-8260-1f3431e06587","","null","<div style=""display: flex; justify-content: center; align-items: center;"">
                    <img src=""images/causal/causal_series_9/causal_series_9_c.jpg"" style=""width: 300px; height: 300px;"" />
                  </div>","null","",""
"","","","","","html-keyboard-response","114","277045","0.0-81.0-3.0","2A7E2B339E2B4E3C82FA88D0A979CB07","2A7E2B339E2B4E3C82FA88D0A979CB07","d58ce0e6-7fe6-44d0-8d8c-76e091757182","e622c465-ee29-4445-8260-1f3431e06587","{""participantId"":""2A7E2B339E2B4E3C82FA88D0A979CB07"",""assignmentId"":""d58ce0e6-7fe6-44d0-8d8c-76e091757182"",""projectId"":""e622c465-ee29-4445-8260-1f3431e06587""}","https://test12345.live/?participantId=2A7E2B339E2B4E3C82FA88D0A979CB07&assignmentId=d58ce0e6-7fe6-44d0-8d8c-76e091757182&projectId=e622c465-ee29-4445-8260-1f3431e06587","","null","<div style=""display: flex; justify-content: center; align-items: center;"">
                    <img src=""images/causal/causal_series_9/causal_series_9_d.jpg"" style=""width: 300px; height: 300px;"" />
                  </div>","null","",""
"","","","","","html-button-response","115","277965","0.0-83.0","2A7E2B339E2B4E3C82FA88D0A979CB07","2A7E2B339E2B4E3C82FA88D0A979CB07","d58ce0e6-7fe6-44d0-8d8c-76e091757182","e622c465-ee29-4445-8260-1f3431e06587","{""participantId"":""2A7E2B339E2B4E3C82FA88D0A979CB07"",""assignmentId"":""d58ce0e6-7fe6-44d0-8d8c-76e091757182"",""projectId"":""e622c465-ee29-4445-8260-1f3431e06587""}","https://test12345.live/?participantId=2A7E2B339E2B4E3C82FA88D0A979CB07&assignmentId=d58ce0e6-7fe6-44d0-8d8c-76e091757182&projectId=e622c465-ee29-4445-8260-1f3431e06587","","920","Was there a person in the picture?","1","",""
"","","","","","survey-likert","116","279229","0.0-84.0","2A7E2B339E2B4E3C82FA88D0A979CB07","2A7E2B339E2B4E3C82FA88D0A979CB07","d58ce0e6-7fe6-44d0-8d8c-76e091757182","e622c465-ee29-4445-8260-1f3431e06587","{""participantId"":""2A7E2B339E2B4E3C82FA88D0A979CB07"",""assignmentId"":""d58ce0e6-7fe6-44d0-8d8c-76e091757182"",""projectId"":""e622c465-ee29-4445-8260-1f3431e06587""}","https://test12345.live/?participantId=2A7E2B339E2B4E3C82FA88D0A979CB07&assignmentId=d58ce0e6-7fe6-44d0-8d8c-76e091757182&projectId=e622c465-ee29-4445-8260-1f3431e06587","","1264","","{""Q0"":0}","","[0]"
"","","","","","html-button-response","117","280693","0.0-85.0","2A7E2B339E2B4E3C82FA88D0A979CB07","2A7E2B339E2B4E3C82FA88D0A979CB07","d58ce0e6-7fe6-44d0-8d8c-76e091757182","e622c465-ee29-4445-8260-1f3431e06587","{""participantId"":""2A7E2B339E2B4E3C82FA88D0A979CB07"",""assignmentId"":""d58ce0e6-7fe6-44d0-8d8c-76e091757182"",""projectId"":""e622c465-ee29-4445-8260-1f3431e06587""}","https://test12345.live/?participantId=2A7E2B339E2B4E3C82FA88D0A979CB07&assignmentId=d58ce0e6-7fe6-44d0-8d8c-76e091757182&projectId=e622c465-ee29-4445-8260-1f3431e06587","","1463","
    <div style=""display: flex; justify-content: center; align-items: center;"">
      <img src=""images/blue_deck_1.png"" style=""width: 300px; height: 300px; margin-right: 10px;"" />
      <img src=""images/red_deck_2.png"" style=""width: 300px; height: 300px;"" />
    </div>","0","0",""
"","","","","","html-keyboard-response","118","283715","0.0-86.0-0.0","2A7E2B339E2B4E3C82FA88D0A979CB07","2A7E2B339E2B4E3C82FA88D0A979CB07","d58ce0e6-7fe6-44d0-8d8c-76e091757182","e622c465-ee29-4445-8260-1f3431e06587","{""participantId"":""2A7E2B339E2B4E3C82FA88D0A979CB07"",""assignmentId"":""d58ce0e6-7fe6-44d0-8d8c-76e091757182"",""projectId"":""e622c465-ee29-4445-8260-1f3431e06587""}","https://test12345.live/?participantId=2A7E2B339E2B4E3C82FA88D0A979CB07&assignmentId=d58ce0e6-7fe6-44d0-8d8c-76e091757182&projectId=e622c465-ee29-4445-8260-1f3431e06587","","null","<div style=""display: flex; justify-content: center; align-items: center;"">
                    <img src=""images/causal/causal_series_2/causal_series_2_a.jpg"" style=""width: 300px; height: 300px;"" />
                  </div>","null","",""
"","","","","","html-keyboard-response","119","286716","0.0-86.0-1.0","2A7E2B339E2B4E3C82FA88D0A979CB07","2A7E2B339E2B4E3C82FA88D0A979CB07","d58ce0e6-7fe6-44d0-8d8c-76e091757182","e622c465-ee29-4445-8260-1f3431e06587","{""participantId"":""2A7E2B339E2B4E3C82FA88D0A979CB07"",""assignmentId"":""d58ce0e6-7fe6-44d0-8d8c-76e091757182"",""projectId"":""e622c465-ee29-4445-8260-1f3431e06587""}","https://test12345.live/?participantId=2A7E2B339E2B4E3C82FA88D0A979CB07&assignmentId=d58ce0e6-7fe6-44d0-8d8c-76e091757182&projectId=e622c465-ee29-4445-8260-1f3431e06587","","null","<div style=""display: flex; justify-content: center; align-items: center;"">
                    <img src=""images/causal/causal_series_2/causal_series_2_b.jpg"" style=""width: 300px; height: 300px;"" />
                  </div>","null","",""
"","","","","","html-keyboard-response","120","289724","0.0-86.0-2.0","2A7E2B339E2B4E3C82FA88D0A979CB07","2A7E2B339E2B4E3C82FA88D0A979CB07","d58ce0e6-7fe6-44d0-8d8c-76e091757182","e622c465-ee29-4445-8260-1f3431e06587","{""participantId"":""2A7E2B339E2B4E3C82FA88D0A979CB07"",""assignmentId"":""d58ce0e6-7fe6-44d0-8d8c-76e091757182"",""projectId"":""e622c465-ee29-4445-8260-1f3431e06587""}","https://test12345.live/?participantId=2A7E2B339E2B4E3C82FA88D0A979CB07&assignmentId=d58ce0e6-7fe6-44d0-8d8c-76e091757182&projectId=e622c465-ee29-4445-8260-1f3431e06587","","null","<div style=""display: flex; justify-content: center; align-items: center;"">
                    <img src=""images/causal/causal_series_2/causal_series_2_c.jpg"" style=""width: 300px; height: 300px;"" />
                  </div>","null","",""
"","","","","","html-keyboard-response","121","292728","0.0-86.0-3.0","2A7E2B339E2B4E3C82FA88D0A979CB07","2A7E2B339E2B4E3C82FA88D0A979CB07","d58ce0e6-7fe6-44d0-8d8c-76e091757182","e622c465-ee29-4445-8260-1f3431e06587","{""participantId"":""2A7E2B339E2B4E3C82FA88D0A979CB07"",""assignmentId"":""d58ce0e6-7fe6-44d0-8d8c-76e091757182"",""projectId"":""e622c465-ee29-4445-8260-1f3431e06587""}","https://test12345.live/?participantId=2A7E2B339E2B4E3C82FA88D0A979CB07&assignmentId=d58ce0e6-7fe6-44d0-8d8c-76e091757182&projectId=e622c465-ee29-4445-8260-1f3431e06587","","null","<div style=""display: flex; justify-content: center; align-items: center;"">
                    <img src=""images/causal/causal_series_2/causal_series_2_d.jpg"" style=""width: 300px; height: 300px;"" />
                  </div>","null","",""
"","","","","","html-button-response","122","293464","0.0-88.0","2A7E2B339E2B4E3C82FA88D0A979CB07","2A7E2B339E2B4E3C82FA88D0A979CB07","d58ce0e6-7fe6-44d0-8d8c-76e091757182","e622c465-ee29-4445-8260-1f3431e06587","{""participantId"":""2A7E2B339E2B4E3C82FA88D0A979CB07"",""assignmentId"":""d58ce0e6-7fe6-44d0-8d8c-76e091757182"",""projectId"":""e622c465-ee29-4445-8260-1f3431e06587""}","https://test12345.live/?participantId=2A7E2B339E2B4E3C82FA88D0A979CB07&assignmentId=d58ce0e6-7fe6-44d0-8d8c-76e091757182&projectId=e622c465-ee29-4445-8260-1f3431e06587","","735","Was there a person in the picture?","0","",""
"","","","","","survey-likert","123","295151","0.0-89.0","2A7E2B339E2B4E3C82FA88D0A979CB07","2A7E2B339E2B4E3C82FA88D0A979CB07","d58ce0e6-7fe6-44d0-8d8c-76e091757182","e622c465-ee29-4445-8260-1f3431e06587","{""participantId"":""2A7E2B339E2B4E3C82FA88D0A979CB07"",""assignmentId"":""d58ce0e6-7fe6-44d0-8d8c-76e091757182"",""projectId"":""e622c465-ee29-4445-8260-1f3431e06587""}","https://test12345.live/?participantId=2A7E2B339E2B4E3C82FA88D0A979CB07&assignmentId=d58ce0e6-7fe6-44d0-8d8c-76e091757182&projectId=e622c465-ee29-4445-8260-1f3431e06587","","1687","","{""Q0"":2}","","[0]"
"","","","","","html-button-response","124","295880","0.0-90.0","2A7E2B339E2B4E3C82FA88D0A979CB07","2A7E2B339E2B4E3C82FA88D0A979CB07","d58ce0e6-7fe6-44d0-8d8c-76e091757182","e622c465-ee29-4445-8260-1f3431e06587","{""participantId"":""2A7E2B339E2B4E3C82FA88D0A979CB07"",""assignmentId"":""d58ce0e6-7fe6-44d0-8d8c-76e091757182"",""projectId"":""e622c465-ee29-4445-8260-1f3431e06587""}","https://test12345.live/?participantId=2A7E2B339E2B4E3C82FA88D0A979CB07&assignmentId=d58ce0e6-7fe6-44d0-8d8c-76e091757182&projectId=e622c465-ee29-4445-8260-1f3431e06587","","728","
    <div style=""display: flex; justify-content: center; align-items: center;"">
      <img src=""images/blue_deck_1.png"" style=""width: 300px; height: 300px; margin-right: 10px;"" />
      <img src=""images/red_deck_2.png"" style=""width: 300px; height: 300px;"" />
    </div>","1","1",""
"","","","","","html-keyboard-response","125","298883","0.0-92.0-0.0","2A7E2B339E2B4E3C82FA88D0A979CB07","2A7E2B339E2B4E3C82FA88D0A979CB07","d58ce0e6-7fe6-44d0-8d8c-76e091757182","e622c465-ee29-4445-8260-1f3431e06587","{""participantId"":""2A7E2B339E2B4E3C82FA88D0A979CB07"",""assignmentId"":""d58ce0e6-7fe6-44d0-8d8c-76e091757182"",""projectId"":""e622c465-ee29-4445-8260-1f3431e06587""}","https://test12345.live/?participantId=2A7E2B339E2B4E3C82FA88D0A979CB07&assignmentId=d58ce0e6-7fe6-44d0-8d8c-76e091757182&projectId=e622c465-ee29-4445-8260-1f3431e06587","","null","<div style=""display: flex; justify-content: center; align-items: center;"">
                    <img src=""images/semantic/semantic_series_8/semantic_series_8_a.jpg"" style=""width: 300px; height: 300px;"" />
                  </div>","null","",""
"","","","","","html-keyboard-response","126","301898","0.0-92.0-1.0","2A7E2B339E2B4E3C82FA88D0A979CB07","2A7E2B339E2B4E3C82FA88D0A979CB07","d58ce0e6-7fe6-44d0-8d8c-76e091757182","e622c465-ee29-4445-8260-1f3431e06587","{""participantId"":""2A7E2B339E2B4E3C82FA88D0A979CB07"",""assignmentId"":""d58ce0e6-7fe6-44d0-8d8c-76e091757182"",""projectId"":""e622c465-ee29-4445-8260-1f3431e06587""}","https://test12345.live/?participantId=2A7E2B339E2B4E3C82FA88D0A979CB07&assignmentId=d58ce0e6-7fe6-44d0-8d8c-76e091757182&projectId=e622c465-ee29-4445-8260-1f3431e06587","","null","<div style=""display: flex; justify-content: center; align-items: center;"">
                    <img src=""images/semantic/semantic_series_8/semantic_series_8_b.jpg"" style=""width: 300px; height: 300px;"" />
                  </div>","null","",""
"","","","","","html-keyboard-response","127","304912","0.0-92.0-2.0","2A7E2B339E2B4E3C82FA88D0A979CB07","2A7E2B339E2B4E3C82FA88D0A979CB07","d58ce0e6-7fe6-44d0-8d8c-76e091757182","e622c465-ee29-4445-8260-1f3431e06587","{""participantId"":""2A7E2B339E2B4E3C82FA88D0A979CB07"",""assignmentId"":""d58ce0e6-7fe6-44d0-8d8c-76e091757182"",""projectId"":""e622c465-ee29-4445-8260-1f3431e06587""}","https://test12345.live/?participantId=2A7E2B339E2B4E3C82FA88D0A979CB07&assignmentId=d58ce0e6-7fe6-44d0-8d8c-76e091757182&projectId=e622c465-ee29-4445-8260-1f3431e06587","","null","<div style=""display: flex; justify-content: center; align-items: center;"">
                    <img src=""images/semantic/semantic_series_8/semantic_series_8_c.jpg"" style=""width: 300px; height: 300px;"" />
                  </div>","null","",""
"","","","","","html-keyboard-response","128","307925","0.0-92.0-3.0","2A7E2B339E2B4E3C82FA88D0A979CB07","2A7E2B339E2B4E3C82FA88D0A979CB07","d58ce0e6-7fe6-44d0-8d8c-76e091757182","e622c465-ee29-4445-8260-1f3431e06587","{""participantId"":""2A7E2B339E2B4E3C82FA88D0A979CB07"",""assignmentId"":""d58ce0e6-7fe6-44d0-8d8c-76e091757182"",""projectId"":""e622c465-ee29-4445-8260-1f3431e06587""}","https://test12345.live/?participantId=2A7E2B339E2B4E3C82FA88D0A979CB07&assignmentId=d58ce0e6-7fe6-44d0-8d8c-76e091757182&projectId=e622c465-ee29-4445-8260-1f3431e06587","","null","<div style=""display: flex; justify-content: center; align-items: center;"">
                    <img src=""images/semantic/semantic_series_8/semantic_series_8_d.jpg"" style=""width: 300px; height: 300px;"" />
                  </div>","null","",""
"","","","","","html-button-response","129","313607","0.0-93.0","2A7E2B339E2B4E3C82FA88D0A979CB07","2A7E2B339E2B4E3C82FA88D0A979CB07","d58ce0e6-7fe6-44d0-8d8c-76e091757182","e622c465-ee29-4445-8260-1f3431e06587","{""participantId"":""2A7E2B339E2B4E3C82FA88D0A979CB07"",""assignmentId"":""d58ce0e6-7fe6-44d0-8d8c-76e091757182"",""projectId"":""e622c465-ee29-4445-8260-1f3431e06587""}","https://test12345.live/?participantId=2A7E2B339E2B4E3C82FA88D0A979CB07&assignmentId=d58ce0e6-7fe6-44d0-8d8c-76e091757182&projectId=e622c465-ee29-4445-8260-1f3431e06587","","5681","Was there a person in the picture?","1","",""
"","","","","","survey-likert","130","315668","0.0-94.0","2A7E2B339E2B4E3C82FA88D0A979CB07","2A7E2B339E2B4E3C82FA88D0A979CB07","d58ce0e6-7fe6-44d0-8d8c-76e091757182","e622c465-ee29-4445-8260-1f3431e06587","{""participantId"":""2A7E2B339E2B4E3C82FA88D0A979CB07"",""assignmentId"":""d58ce0e6-7fe6-44d0-8d8c-76e091757182"",""projectId"":""e622c465-ee29-4445-8260-1f3431e06587""}","https://test12345.live/?participantId=2A7E2B339E2B4E3C82FA88D0A979CB07&assignmentId=d58ce0e6-7fe6-44d0-8d8c-76e091757182&projectId=e622c465-ee29-4445-8260-1f3431e06587","","2061","","{""Q0"":2}","","[0]"
"","","","","","survey-text","131","345934","0.0-95.0","2A7E2B339E2B4E3C82FA88D0A979CB07","2A7E2B339E2B4E3C82FA88D0A979CB07","d58ce0e6-7fe6-44d0-8d8c-76e091757182","e622c465-ee29-4445-8260-1f3431e06587","{""participantId"":""2A7E2B339E2B4E3C82FA88D0A979CB07"",""assignmentId"":""d58ce0e6-7fe6-44d0-8d8c-76e091757182"",""projectId"":""e622c465-ee29-4445-8260-1f3431e06587""}","https://test12345.live/?participantId=2A7E2B339E2B4E3C82FA88D0A979CB07&assignmentId=d58ce0e6-7fe6-44d0-8d8c-76e091757182&projectId=e622c465-ee29-4445-8260-1f3431e06587","","30264","","{""Q0"":""one was more cartoon like and one involved more realistic tasks""}","",""
