"success","timeout","failed_images","failed_audio","failed_video","trial_type","trial_index","time_elapsed","internal_node_id","subject","subject_id","study_id","session_id","urlvar","current_url","view_history","rt","stimulus","response","choice","question_order"
"true","false","[]","[]","[]","preload","0","312","0.0-0.0","A91B0F9930994607B4569F97F2E09FC1","A91B0F9930994607B4569F97F2E09FC1","482b5218-3edc-472b-9b88-fcc5c22569a4","54f8d589-66fc-4c65-830f-1dcc63bce8cc","{""participantId"":""A91B0F9930994607B4569F97F2E09FC1"",""assignmentId"":""482b5218-3edc-472b-9b88-fcc5c22569a4"",""projectId"":""54f8d589-66fc-4c65-830f-1dcc63bce8cc""}","https://test12345.live/?participantId=A91B0F9930994607B4569F97F2E09FC1&assignmentId=482b5218-3edc-472b-9b88-fcc5c22569a4&projectId=54f8d589-66fc-4c65-830f-1dcc63bce8cc","","","","","",""
"","","","","","instructions","1","12281","0.0-1.0","A91B0F9930994607B4569F97F2E09FC1","A91B0F9930994607B4569F97F2E09FC1","482b5218-3edc-472b-9b88-fcc5c22569a4","54f8d589-66fc-4c65-830f-1dcc63bce8cc","{""participantId"":""A91B0F9930994607B4569F97F2E09FC1"",""assignmentId"":""482b5218-3edc-472b-9b88-fcc5c22569a4"",""projectId"":""54f8d589-66fc-4c65-830f-1dcc63bce8cc""}","https://test12345.live/?participantId=A91B0F9930994607B4569F97F2E09FC1&assignmentId=482b5218-3edc-472b-9b88-fcc5c22569a4&projectId=54f8d589-66fc-4c65-830f-1dcc63bce8cc","[{""page_index"":0,""viewing_time"":11968}]","11969","","","",""
"","","","","","instructions","2","33414","0.0-2.0","A91B0F9930994607B4569F97F2E09FC1","A91B0F9930994607B4569F97F2E09FC1","482b5218-3edc-472b-9b88-fcc5c22569a4","54f8d589-66fc-4c65-830f-1dcc63bce8cc","{""participantId"":""A91B0F9930994607B4569F97F2E09FC1"",""assignmentId"":""482b5218-3edc-472b-9b88-fcc5c22569a4"",""projectId"":""54f8d589-66fc-4c65-830f-1dcc63bce8cc""}","https://test12345.live/?participantId=A91B0F9930994607B4569F97F2E09FC1&assignmentId=482b5218-3edc-472b-9b88-fcc5c22569a4&projectId=54f8d589-66fc-4c65-830f-1dcc63bce8cc","[{""page_index"":0,""viewing_time"":21130}]","21131","","","",""
"true","","","","","fullscreen","3","41405","0.0-3.0","A91B0F9930994607B4569F97F2E09FC1","A91B0F9930994607B4569F97F2E09FC1","482b5218-3edc-472b-9b88-fcc5c22569a4","54f8d589-66fc-4c65-830f-1dcc63bce8cc","{""participantId"":""A91B0F9930994607B4569F97F2E09FC1"",""assignmentId"":""482b5218-3edc-472b-9b88-fcc5c22569a4"",""projectId"":""54f8d589-66fc-4c65-830f-1dcc63bce8cc""}","https://test12345.live/?participantId=A91B0F9930994607B4569F97F2E09FC1&assignmentId=482b5218-3edc-472b-9b88-fcc5c22569a4&projectId=54f8d589-66fc-4c65-830f-1dcc63bce8cc","","6981","","","",""
"","","","","","instructions","4","51950","0.0-4.0","A91B0F9930994607B4569F97F2E09FC1","A91B0F9930994607B4569F97F2E09FC1","482b5218-3edc-472b-9b88-fcc5c22569a4","54f8d589-66fc-4c65-830f-1dcc63bce8cc","{""participantId"":""A91B0F9930994607B4569F97F2E09FC1"",""assignmentId"":""482b5218-3edc-472b-9b88-fcc5c22569a4"",""projectId"":""54f8d589-66fc-4c65-830f-1dcc63bce8cc""}","https://test12345.live/?participantId=A91B0F9930994607B4569F97F2E09FC1&assignmentId=482b5218-3edc-472b-9b88-fcc5c22569a4&projectId=54f8d589-66fc-4c65-830f-1dcc63bce8cc","[{""page_index"":0,""viewing_time"":10544}]","10544","","","",""
"","","","","","html-button-response","5","54956","0.0-5.0","A91B0F9930994607B4569F97F2E09FC1","A91B0F9930994607B4569F97F2E09FC1","482b5218-3edc-472b-9b88-fcc5c22569a4","54f8d589-66fc-4c65-830f-1dcc63bce8cc","{""participantId"":""A91B0F9930994607B4569F97F2E09FC1"",""assignmentId"":""482b5218-3edc-472b-9b88-fcc5c22569a4"",""projectId"":""54f8d589-66fc-4c65-830f-1dcc63bce8cc""}","https://test12345.live/?participantId=A91B0F9930994607B4569F97F2E09FC1&assignmentId=482b5218-3edc-472b-9b88-fcc5c22569a4&projectId=54f8d589-66fc-4c65-830f-1dcc63bce8cc","","3001","
    <div style=""display: flex; justify-content: center; align-items: center;"">
      <img src=""images/red_deck_2.png"" style=""width: 300px; height: 300px; margin-right: 10px;"" />
      <img src=""images/blue_deck_1.png"" style=""width: 300px; height: 300px;"" />
    </div>","1","1",""
"","","","","","html-keyboard-response","6","57976","0.0-7.0-0.0","A91B0F9930994607B4569F97F2E09FC1","A91B0F9930994607B4569F97F2E09FC1","482b5218-3edc-472b-9b88-fcc5c22569a4","54f8d589-66fc-4c65-830f-1dcc63bce8cc","{""participantId"":""A91B0F9930994607B4569F97F2E09FC1"",""assignmentId"":""482b5218-3edc-472b-9b88-fcc5c22569a4"",""projectId"":""54f8d589-66fc-4c65-830f-1dcc63bce8cc""}","https://test12345.live/?participantId=A91B0F9930994607B4569F97F2E09FC1&assignmentId=482b5218-3edc-472b-9b88-fcc5c22569a4&projectId=54f8d589-66fc-4c65-830f-1dcc63bce8cc","","null","<div style=""display: flex; justify-content: center; align-items: center;"">
                    <img src=""images/semantic/semantic_series_11/semantic_series_11_a.jpg"" style=""width: 300px; height: 300px;"" />
                  </div>","null","",""
"","","","","","html-keyboard-response","7","60982","0.0-7.0-1.0","A91B0F9930994607B4569F97F2E09FC1","A91B0F9930994607B4569F97F2E09FC1","482b5218-3edc-472b-9b88-fcc5c22569a4","54f8d589-66fc-4c65-830f-1dcc63bce8cc","{""participantId"":""A91B0F9930994607B4569F97F2E09FC1"",""assignmentId"":""482b5218-3edc-472b-9b88-fcc5c22569a4"",""projectId"":""54f8d589-66fc-4c65-830f-1dcc63bce8cc""}","https://test12345.live/?participantId=A91B0F9930994607B4569F97F2E09FC1&assignmentId=482b5218-3edc-472b-9b88-fcc5c22569a4&projectId=54f8d589-66fc-4c65-830f-1dcc63bce8cc","","null","<div style=""display: flex; justify-content: center; align-items: center;"">
                    <img src=""images/semantic/semantic_series_11/semantic_series_11_b.jpg"" style=""width: 300px; height: 300px;"" />
                  </div>","null","",""
"","","","","","html-keyboard-response","8","63993","0.0-7.0-2.0","A91B0F9930994607B4569F97F2E09FC1","A91B0F9930994607B4569F97F2E09FC1","482b5218-3edc-472b-9b88-fcc5c22569a4","54f8d589-66fc-4c65-830f-1dcc63bce8cc","{""participantId"":""A91B0F9930994607B4569F97F2E09FC1"",""assignmentId"":""482b5218-3edc-472b-9b88-fcc5c22569a4"",""projectId"":""54f8d589-66fc-4c65-830f-1dcc63bce8cc""}","https://test12345.live/?participantId=A91B0F9930994607B4569F97F2E09FC1&assignmentId=482b5218-3edc-472b-9b88-fcc5c22569a4&projectId=54f8d589-66fc-4c65-830f-1dcc63bce8cc","","null","<div style=""display: flex; justify-content: center; align-items: center;"">
                    <img src=""images/semantic/semantic_series_11/semantic_series_11_c.jpg"" style=""width: 300px; height: 300px;"" />
                  </div>","null","",""
"","","","","","html-keyboard-response","9","67008","0.0-7.0-3.0","A91B0F9930994607B4569F97F2E09FC1","A91B0F9930994607B4569F97F2E09FC1","482b5218-3edc-472b-9b88-fcc5c22569a4","54f8d589-66fc-4c65-830f-1dcc63bce8cc","{""participantId"":""A91B0F9930994607B4569F97F2E09FC1"",""assignmentId"":""482b5218-3edc-472b-9b88-fcc5c22569a4"",""projectId"":""54f8d589-66fc-4c65-830f-1dcc63bce8cc""}","https://test12345.live/?participantId=A91B0F9930994607B4569F97F2E09FC1&assignmentId=482b5218-3edc-472b-9b88-fcc5c22569a4&projectId=54f8d589-66fc-4c65-830f-1dcc63bce8cc","","null","<div style=""display: flex; justify-content: center; align-items: center;"">
                    <img src=""images/semantic/semantic_series_11/semantic_series_11_d.jpg"" style=""width: 300px; height: 300px;"" />
                  </div>","null","",""
"","","","","","html-button-response","10","68999","0.0-8.0","A91B0F9930994607B4569F97F2E09FC1","A91B0F9930994607B4569F97F2E09FC1","482b5218-3edc-472b-9b88-fcc5c22569a4","54f8d589-66fc-4c65-830f-1dcc63bce8cc","{""participantId"":""A91B0F9930994607B4569F97F2E09FC1"",""assignmentId"":""482b5218-3edc-472b-9b88-fcc5c22569a4"",""projectId"":""54f8d589-66fc-4c65-830f-1dcc63bce8cc""}","https://test12345.live/?participantId=A91B0F9930994607B4569F97F2E09FC1&assignmentId=482b5218-3edc-472b-9b88-fcc5c22569a4&projectId=54f8d589-66fc-4c65-830f-1dcc63bce8cc","","1988","Was there a person in the picture?","0","",""
"","","","","","survey-likert","11","73470","0.0-9.0","A91B0F9930994607B4569F97F2E09FC1","A91B0F9930994607B4569F97F2E09FC1","482b5218-3edc-472b-9b88-fcc5c22569a4","54f8d589-66fc-4c65-830f-1dcc63bce8cc","{""participantId"":""A91B0F9930994607B4569F97F2E09FC1"",""assignmentId"":""482b5218-3edc-472b-9b88-fcc5c22569a4"",""projectId"":""54f8d589-66fc-4c65-830f-1dcc63bce8cc""}","https://test12345.live/?participantId=A91B0F9930994607B4569F97F2E09FC1&assignmentId=482b5218-3edc-472b-9b88-fcc5c22569a4&projectId=54f8d589-66fc-4c65-830f-1dcc63bce8cc","","4464","","{""Q0"":2}","","[0]"
"","","","","","html-button-response","12","76147","0.0-10.0","A91B0F9930994607B4569F97F2E09FC1","A91B0F9930994607B4569F97F2E09FC1","482b5218-3edc-472b-9b88-fcc5c22569a4","54f8d589-66fc-4c65-830f-1dcc63bce8cc","{""participantId"":""A91B0F9930994607B4569F97F2E09FC1"",""assignmentId"":""482b5218-3edc-472b-9b88-fcc5c22569a4"",""projectId"":""54f8d589-66fc-4c65-830f-1dcc63bce8cc""}","https://test12345.live/?participantId=A91B0F9930994607B4569F97F2E09FC1&assignmentId=482b5218-3edc-472b-9b88-fcc5c22569a4&projectId=54f8d589-66fc-4c65-830f-1dcc63bce8cc","","2673","
    <div style=""display: flex; justify-content: center; align-items: center;"">
      <img src=""images/red_deck_2.png"" style=""width: 300px; height: 300px; margin-right: 10px;"" />
      <img src=""images/blue_deck_1.png"" style=""width: 300px; height: 300px;"" />
    </div>","1","1",""
"","","","","","html-keyboard-response","13","79153","0.0-12.0-0.0","A91B0F9930994607B4569F97F2E09FC1","A91B0F9930994607B4569F97F2E09FC1","482b5218-3edc-472b-9b88-fcc5c22569a4","54f8d589-66fc-4c65-830f-1dcc63bce8cc","{""participantId"":""A91B0F9930994607B4569F97F2E09FC1"",""assignmentId"":""482b5218-3edc-472b-9b88-fcc5c22569a4"",""projectId"":""54f8d589-66fc-4c65-830f-1dcc63bce8cc""}","https://test12345.live/?participantId=A91B0F9930994607B4569F97F2E09FC1&assignmentId=482b5218-3edc-472b-9b88-fcc5c22569a4&projectId=54f8d589-66fc-4c65-830f-1dcc63bce8cc","","null","<div style=""display: flex; justify-content: center; align-items: center;"">
                    <img src=""images/semantic/semantic_series_14/semantic_series_14_a.jpg"" style=""width: 300px; height: 300px;"" />
                  </div>","null","",""
"","","","","","html-keyboard-response","14","82170","0.0-12.0-1.0","A91B0F9930994607B4569F97F2E09FC1","A91B0F9930994607B4569F97F2E09FC1","482b5218-3edc-472b-9b88-fcc5c22569a4","54f8d589-66fc-4c65-830f-1dcc63bce8cc","{""participantId"":""A91B0F9930994607B4569F97F2E09FC1"",""assignmentId"":""482b5218-3edc-472b-9b88-fcc5c22569a4"",""projectId"":""54f8d589-66fc-4c65-830f-1dcc63bce8cc""}","https://test12345.live/?participantId=A91B0F9930994607B4569F97F2E09FC1&assignmentId=482b5218-3edc-472b-9b88-fcc5c22569a4&projectId=54f8d589-66fc-4c65-830f-1dcc63bce8cc","","null","<div style=""display: flex; justify-content: center; align-items: center;"">
                    <img src=""images/semantic/semantic_series_14/semantic_series_14_b.jpg"" style=""width: 300px; height: 300px;"" />
                  </div>","null","",""
"","","","","","html-keyboard-response","15","85184","0.0-12.0-2.0","A91B0F9930994607B4569F97F2E09FC1","A91B0F9930994607B4569F97F2E09FC1","482b5218-3edc-472b-9b88-fcc5c22569a4","54f8d589-66fc-4c65-830f-1dcc63bce8cc","{""participantId"":""A91B0F9930994607B4569F97F2E09FC1"",""assignmentId"":""482b5218-3edc-472b-9b88-fcc5c22569a4"",""projectId"":""54f8d589-66fc-4c65-830f-1dcc63bce8cc""}","https://test12345.live/?participantId=A91B0F9930994607B4569F97F2E09FC1&assignmentId=482b5218-3edc-472b-9b88-fcc5c22569a4&projectId=54f8d589-66fc-4c65-830f-1dcc63bce8cc","","null","<div style=""display: flex; justify-content: center; align-items: center;"">
                    <img src=""images/semantic/semantic_series_14/semantic_series_14_c.jpg"" style=""width: 300px; height: 300px;"" />
                  </div>","null","",""
"","","","","","html-keyboard-response","16","88187","0.0-12.0-3.0","A91B0F9930994607B4569F97F2E09FC1","A91B0F9930994607B4569F97F2E09FC1","482b5218-3edc-472b-9b88-fcc5c22569a4","54f8d589-66fc-4c65-830f-1dcc63bce8cc","{""participantId"":""A91B0F9930994607B4569F97F2E09FC1"",""assignmentId"":""482b5218-3edc-472b-9b88-fcc5c22569a4"",""projectId"":""54f8d589-66fc-4c65-830f-1dcc63bce8cc""}","https://test12345.live/?participantId=A91B0F9930994607B4569F97F2E09FC1&assignmentId=482b5218-3edc-472b-9b88-fcc5c22569a4&projectId=54f8d589-66fc-4c65-830f-1dcc63bce8cc","","null","<div style=""display: flex; justify-content: center; align-items: center;"">
                    <img src=""images/semantic/semantic_series_14/semantic_series_14_d.jpg"" style=""width: 300px; height: 300px;"" />
                  </div>","null","",""
"","","","","","html-button-response","17","90204","0.0-13.0","A91B0F9930994607B4569F97F2E09FC1","A91B0F9930994607B4569F97F2E09FC1","482b5218-3edc-472b-9b88-fcc5c22569a4","54f8d589-66fc-4c65-830f-1dcc63bce8cc","{""participantId"":""A91B0F9930994607B4569F97F2E09FC1"",""assignmentId"":""482b5218-3edc-472b-9b88-fcc5c22569a4"",""projectId"":""54f8d589-66fc-4c65-830f-1dcc63bce8cc""}","https://test12345.live/?participantId=A91B0F9930994607B4569F97F2E09FC1&assignmentId=482b5218-3edc-472b-9b88-fcc5c22569a4&projectId=54f8d589-66fc-4c65-830f-1dcc63bce8cc","","2016","Was there a person in the picture?","0","",""
"","","","","","survey-likert","18","94557","0.0-14.0","A91B0F9930994607B4569F97F2E09FC1","A91B0F9930994607B4569F97F2E09FC1","482b5218-3edc-472b-9b88-fcc5c22569a4","54f8d589-66fc-4c65-830f-1dcc63bce8cc","{""participantId"":""A91B0F9930994607B4569F97F2E09FC1"",""assignmentId"":""482b5218-3edc-472b-9b88-fcc5c22569a4"",""projectId"":""54f8d589-66fc-4c65-830f-1dcc63bce8cc""}","https://test12345.live/?participantId=A91B0F9930994607B4569F97F2E09FC1&assignmentId=482b5218-3edc-472b-9b88-fcc5c22569a4&projectId=54f8d589-66fc-4c65-830f-1dcc63bce8cc","","4351","","{""Q0"":2}","","[0]"
"","","","","","html-button-response","19","96282","0.0-15.0","A91B0F9930994607B4569F97F2E09FC1","A91B0F9930994607B4569F97F2E09FC1","482b5218-3edc-472b-9b88-fcc5c22569a4","54f8d589-66fc-4c65-830f-1dcc63bce8cc","{""participantId"":""A91B0F9930994607B4569F97F2E09FC1"",""assignmentId"":""482b5218-3edc-472b-9b88-fcc5c22569a4"",""projectId"":""54f8d589-66fc-4c65-830f-1dcc63bce8cc""}","https://test12345.live/?participantId=A91B0F9930994607B4569F97F2E09FC1&assignmentId=482b5218-3edc-472b-9b88-fcc5c22569a4&projectId=54f8d589-66fc-4c65-830f-1dcc63bce8cc","","1722","
    <div style=""display: flex; justify-content: center; align-items: center;"">
      <img src=""images/red_deck_2.png"" style=""width: 300px; height: 300px; margin-right: 10px;"" />
      <img src=""images/blue_deck_1.png"" style=""width: 300px; height: 300px;"" />
    </div>","1","1",""
"","","","","","html-keyboard-response","20","99296","0.0-17.0-0.0","A91B0F9930994607B4569F97F2E09FC1","A91B0F9930994607B4569F97F2E09FC1","482b5218-3edc-472b-9b88-fcc5c22569a4","54f8d589-66fc-4c65-830f-1dcc63bce8cc","{""participantId"":""A91B0F9930994607B4569F97F2E09FC1"",""assignmentId"":""482b5218-3edc-472b-9b88-fcc5c22569a4"",""projectId"":""54f8d589-66fc-4c65-830f-1dcc63bce8cc""}","https://test12345.live/?participantId=A91B0F9930994607B4569F97F2E09FC1&assignmentId=482b5218-3edc-472b-9b88-fcc5c22569a4&projectId=54f8d589-66fc-4c65-830f-1dcc63bce8cc","","null","<div style=""display: flex; justify-content: center; align-items: center;"">
                    <img src=""images/semantic/semantic_series_9/semantic_series_9_a.jpg"" style=""width: 300px; height: 300px;"" />
                  </div>","null","",""
"","","","","","html-keyboard-response","21","102302","0.0-17.0-1.0","A91B0F9930994607B4569F97F2E09FC1","A91B0F9930994607B4569F97F2E09FC1","482b5218-3edc-472b-9b88-fcc5c22569a4","54f8d589-66fc-4c65-830f-1dcc63bce8cc","{""participantId"":""A91B0F9930994607B4569F97F2E09FC1"",""assignmentId"":""482b5218-3edc-472b-9b88-fcc5c22569a4"",""projectId"":""54f8d589-66fc-4c65-830f-1dcc63bce8cc""}","https://test12345.live/?participantId=A91B0F9930994607B4569F97F2E09FC1&assignmentId=482b5218-3edc-472b-9b88-fcc5c22569a4&projectId=54f8d589-66fc-4c65-830f-1dcc63bce8cc","","null","<div style=""display: flex; justify-content: center; align-items: center;"">
                    <img src=""images/semantic/semantic_series_9/semantic_series_9_b.jpg"" style=""width: 300px; height: 300px;"" />
                  </div>","null","",""
"","","","","","html-keyboard-response","22","105311","0.0-17.0-2.0","A91B0F9930994607B4569F97F2E09FC1","A91B0F9930994607B4569F97F2E09FC1","482b5218-3edc-472b-9b88-fcc5c22569a4","54f8d589-66fc-4c65-830f-1dcc63bce8cc","{""participantId"":""A91B0F9930994607B4569F97F2E09FC1"",""assignmentId"":""482b5218-3edc-472b-9b88-fcc5c22569a4"",""projectId"":""54f8d589-66fc-4c65-830f-1dcc63bce8cc""}","https://test12345.live/?participantId=A91B0F9930994607B4569F97F2E09FC1&assignmentId=482b5218-3edc-472b-9b88-fcc5c22569a4&projectId=54f8d589-66fc-4c65-830f-1dcc63bce8cc","","null","<div style=""display: flex; justify-content: center; align-items: center;"">
                    <img src=""images/semantic/semantic_series_9/semantic_series_9_c.jpg"" style=""width: 300px; height: 300px;"" />
                  </div>","null","",""
"","","","","","html-keyboard-response","23","108323","0.0-17.0-3.0","A91B0F9930994607B4569F97F2E09FC1","A91B0F9930994607B4569F97F2E09FC1","482b5218-3edc-472b-9b88-fcc5c22569a4","54f8d589-66fc-4c65-830f-1dcc63bce8cc","{""participantId"":""A91B0F9930994607B4569F97F2E09FC1"",""assignmentId"":""482b5218-3edc-472b-9b88-fcc5c22569a4"",""projectId"":""54f8d589-66fc-4c65-830f-1dcc63bce8cc""}","https://test12345.live/?participantId=A91B0F9930994607B4569F97F2E09FC1&assignmentId=482b5218-3edc-472b-9b88-fcc5c22569a4&projectId=54f8d589-66fc-4c65-830f-1dcc63bce8cc","","null","<div style=""display: flex; justify-content: center; align-items: center;"">
                    <img src=""images/semantic/semantic_series_9/semantic_series_9_d.jpg"" style=""width: 300px; height: 300px;"" />
                  </div>","null","",""
"","","","","","html-button-response","24","110621","0.0-18.0","A91B0F9930994607B4569F97F2E09FC1","A91B0F9930994607B4569F97F2E09FC1","482b5218-3edc-472b-9b88-fcc5c22569a4","54f8d589-66fc-4c65-830f-1dcc63bce8cc","{""participantId"":""A91B0F9930994607B4569F97F2E09FC1"",""assignmentId"":""482b5218-3edc-472b-9b88-fcc5c22569a4"",""projectId"":""54f8d589-66fc-4c65-830f-1dcc63bce8cc""}","https://test12345.live/?participantId=A91B0F9930994607B4569F97F2E09FC1&assignmentId=482b5218-3edc-472b-9b88-fcc5c22569a4&projectId=54f8d589-66fc-4c65-830f-1dcc63bce8cc","","2297","Was there a person in the picture?","1","",""
"","","","","","survey-likert","25","121355","0.0-19.0","A91B0F9930994607B4569F97F2E09FC1","A91B0F9930994607B4569F97F2E09FC1","482b5218-3edc-472b-9b88-fcc5c22569a4","54f8d589-66fc-4c65-830f-1dcc63bce8cc","{""participantId"":""A91B0F9930994607B4569F97F2E09FC1"",""assignmentId"":""482b5218-3edc-472b-9b88-fcc5c22569a4"",""projectId"":""54f8d589-66fc-4c65-830f-1dcc63bce8cc""}","https://test12345.live/?participantId=A91B0F9930994607B4569F97F2E09FC1&assignmentId=482b5218-3edc-472b-9b88-fcc5c22569a4&projectId=54f8d589-66fc-4c65-830f-1dcc63bce8cc","","10731","","{""Q0"":2}","","[0]"
"","","","","","html-button-response","26","123025","0.0-20.0","A91B0F9930994607B4569F97F2E09FC1","A91B0F9930994607B4569F97F2E09FC1","482b5218-3edc-472b-9b88-fcc5c22569a4","54f8d589-66fc-4c65-830f-1dcc63bce8cc","{""participantId"":""A91B0F9930994607B4569F97F2E09FC1"",""assignmentId"":""482b5218-3edc-472b-9b88-fcc5c22569a4"",""projectId"":""54f8d589-66fc-4c65-830f-1dcc63bce8cc""}","https://test12345.live/?participantId=A91B0F9930994607B4569F97F2E09FC1&assignmentId=482b5218-3edc-472b-9b88-fcc5c22569a4&projectId=54f8d589-66fc-4c65-830f-1dcc63bce8cc","","1666","
    <div style=""display: flex; justify-content: center; align-items: center;"">
      <img src=""images/red_deck_2.png"" style=""width: 300px; height: 300px; margin-right: 10px;"" />
      <img src=""images/blue_deck_1.png"" style=""width: 300px; height: 300px;"" />
    </div>","1","1",""
"","","","","","html-keyboard-response","27","126031","0.0-22.0-0.0","A91B0F9930994607B4569F97F2E09FC1","A91B0F9930994607B4569F97F2E09FC1","482b5218-3edc-472b-9b88-fcc5c22569a4","54f8d589-66fc-4c65-830f-1dcc63bce8cc","{""participantId"":""A91B0F9930994607B4569F97F2E09FC1"",""assignmentId"":""482b5218-3edc-472b-9b88-fcc5c22569a4"",""projectId"":""54f8d589-66fc-4c65-830f-1dcc63bce8cc""}","https://test12345.live/?participantId=A91B0F9930994607B4569F97F2E09FC1&assignmentId=482b5218-3edc-472b-9b88-fcc5c22569a4&projectId=54f8d589-66fc-4c65-830f-1dcc63bce8cc","","null","<div style=""display: flex; justify-content: center; align-items: center;"">
                    <img src=""images/semantic/semantic_series_7/semantic_series_7_a.jpg"" style=""width: 300px; height: 300px;"" />
                  </div>","null","",""
"","","","","","html-keyboard-response","28","129033","0.0-22.0-1.0","A91B0F9930994607B4569F97F2E09FC1","A91B0F9930994607B4569F97F2E09FC1","482b5218-3edc-472b-9b88-fcc5c22569a4","54f8d589-66fc-4c65-830f-1dcc63bce8cc","{""participantId"":""A91B0F9930994607B4569F97F2E09FC1"",""assignmentId"":""482b5218-3edc-472b-9b88-fcc5c22569a4"",""projectId"":""54f8d589-66fc-4c65-830f-1dcc63bce8cc""}","https://test12345.live/?participantId=A91B0F9930994607B4569F97F2E09FC1&assignmentId=482b5218-3edc-472b-9b88-fcc5c22569a4&projectId=54f8d589-66fc-4c65-830f-1dcc63bce8cc","","null","<div style=""display: flex; justify-content: center; align-items: center;"">
                    <img src=""images/semantic/semantic_series_7/semantic_series_7_b.jpg"" style=""width: 300px; height: 300px;"" />
                  </div>","null","",""
"","","","","","html-keyboard-response","29","132050","0.0-22.0-2.0","A91B0F9930994607B4569F97F2E09FC1","A91B0F9930994607B4569F97F2E09FC1","482b5218-3edc-472b-9b88-fcc5c22569a4","54f8d589-66fc-4c65-830f-1dcc63bce8cc","{""participantId"":""A91B0F9930994607B4569F97F2E09FC1"",""assignmentId"":""482b5218-3edc-472b-9b88-fcc5c22569a4"",""projectId"":""54f8d589-66fc-4c65-830f-1dcc63bce8cc""}","https://test12345.live/?participantId=A91B0F9930994607B4569F97F2E09FC1&assignmentId=482b5218-3edc-472b-9b88-fcc5c22569a4&projectId=54f8d589-66fc-4c65-830f-1dcc63bce8cc","","null","<div style=""display: flex; justify-content: center; align-items: center;"">
                    <img src=""images/semantic/semantic_series_7/semantic_series_7_c.jpg"" style=""width: 300px; height: 300px;"" />
                  </div>","null","",""
"","","","","","html-keyboard-response","30","135067","0.0-22.0-3.0","A91B0F9930994607B4569F97F2E09FC1","A91B0F9930994607B4569F97F2E09FC1","482b5218-3edc-472b-9b88-fcc5c22569a4","54f8d589-66fc-4c65-830f-1dcc63bce8cc","{""participantId"":""A91B0F9930994607B4569F97F2E09FC1"",""assignmentId"":""482b5218-3edc-472b-9b88-fcc5c22569a4"",""projectId"":""54f8d589-66fc-4c65-830f-1dcc63bce8cc""}","https://test12345.live/?participantId=A91B0F9930994607B4569F97F2E09FC1&assignmentId=482b5218-3edc-472b-9b88-fcc5c22569a4&projectId=54f8d589-66fc-4c65-830f-1dcc63bce8cc","","null","<div style=""display: flex; justify-content: center; align-items: center;"">
                    <img src=""images/semantic/semantic_series_7/semantic_series_7_d.jpg"" style=""width: 300px; height: 300px;"" />
                  </div>","null","",""
"","","","","","html-button-response","31","136981","0.0-23.0","A91B0F9930994607B4569F97F2E09FC1","A91B0F9930994607B4569F97F2E09FC1","482b5218-3edc-472b-9b88-fcc5c22569a4","54f8d589-66fc-4c65-830f-1dcc63bce8cc","{""participantId"":""A91B0F9930994607B4569F97F2E09FC1"",""assignmentId"":""482b5218-3edc-472b-9b88-fcc5c22569a4"",""projectId"":""54f8d589-66fc-4c65-830f-1dcc63bce8cc""}","https://test12345.live/?participantId=A91B0F9930994607B4569F97F2E09FC1&assignmentId=482b5218-3edc-472b-9b88-fcc5c22569a4&projectId=54f8d589-66fc-4c65-830f-1dcc63bce8cc","","1912","Was there a person in the picture?","1","",""
"","","","","","survey-likert","32","141663","0.0-24.0","A91B0F9930994607B4569F97F2E09FC1","A91B0F9930994607B4569F97F2E09FC1","482b5218-3edc-472b-9b88-fcc5c22569a4","54f8d589-66fc-4c65-830f-1dcc63bce8cc","{""participantId"":""A91B0F9930994607B4569F97F2E09FC1"",""assignmentId"":""482b5218-3edc-472b-9b88-fcc5c22569a4"",""projectId"":""54f8d589-66fc-4c65-830f-1dcc63bce8cc""}","https://test12345.live/?participantId=A91B0F9930994607B4569F97F2E09FC1&assignmentId=482b5218-3edc-472b-9b88-fcc5c22569a4&projectId=54f8d589-66fc-4c65-830f-1dcc63bce8cc","","4679","","{""Q0"":1}","","[0]"
"","","","","","html-button-response","33","144528","0.0-25.0","A91B0F9930994607B4569F97F2E09FC1","A91B0F9930994607B4569F97F2E09FC1","482b5218-3edc-472b-9b88-fcc5c22569a4","54f8d589-66fc-4c65-830f-1dcc63bce8cc","{""participantId"":""A91B0F9930994607B4569F97F2E09FC1"",""assignmentId"":""482b5218-3edc-472b-9b88-fcc5c22569a4"",""projectId"":""54f8d589-66fc-4c65-830f-1dcc63bce8cc""}","https://test12345.live/?participantId=A91B0F9930994607B4569F97F2E09FC1&assignmentId=482b5218-3edc-472b-9b88-fcc5c22569a4&projectId=54f8d589-66fc-4c65-830f-1dcc63bce8cc","","2862","
    <div style=""display: flex; justify-content: center; align-items: center;"">
      <img src=""images/red_deck_2.png"" style=""width: 300px; height: 300px; margin-right: 10px;"" />
      <img src=""images/blue_deck_1.png"" style=""width: 300px; height: 300px;"" />
    </div>","1","1",""
"","","","","","html-keyboard-response","34","147540","0.0-27.0-0.0","A91B0F9930994607B4569F97F2E09FC1","A91B0F9930994607B4569F97F2E09FC1","482b5218-3edc-472b-9b88-fcc5c22569a4","54f8d589-66fc-4c65-830f-1dcc63bce8cc","{""participantId"":""A91B0F9930994607B4569F97F2E09FC1"",""assignmentId"":""482b5218-3edc-472b-9b88-fcc5c22569a4"",""projectId"":""54f8d589-66fc-4c65-830f-1dcc63bce8cc""}","https://test12345.live/?participantId=A91B0F9930994607B4569F97F2E09FC1&assignmentId=482b5218-3edc-472b-9b88-fcc5c22569a4&projectId=54f8d589-66fc-4c65-830f-1dcc63bce8cc","","null","<div style=""display: flex; justify-content: center; align-items: center;"">
                    <img src=""images/semantic/semantic_series_4/semantic_series_4_a.jpg"" style=""width: 300px; height: 300px;"" />
                  </div>","null","",""
"","","","","","html-keyboard-response","35","150547","0.0-27.0-1.0","A91B0F9930994607B4569F97F2E09FC1","A91B0F9930994607B4569F97F2E09FC1","482b5218-3edc-472b-9b88-fcc5c22569a4","54f8d589-66fc-4c65-830f-1dcc63bce8cc","{""participantId"":""A91B0F9930994607B4569F97F2E09FC1"",""assignmentId"":""482b5218-3edc-472b-9b88-fcc5c22569a4"",""projectId"":""54f8d589-66fc-4c65-830f-1dcc63bce8cc""}","https://test12345.live/?participantId=A91B0F9930994607B4569F97F2E09FC1&assignmentId=482b5218-3edc-472b-9b88-fcc5c22569a4&projectId=54f8d589-66fc-4c65-830f-1dcc63bce8cc","","null","<div style=""display: flex; justify-content: center; align-items: center;"">
                    <img src=""images/semantic/semantic_series_4/semantic_series_4_b.jpg"" style=""width: 300px; height: 300px;"" />
                  </div>","null","",""
"","","","","","html-keyboard-response","36","153554","0.0-27.0-2.0","A91B0F9930994607B4569F97F2E09FC1","A91B0F9930994607B4569F97F2E09FC1","482b5218-3edc-472b-9b88-fcc5c22569a4","54f8d589-66fc-4c65-830f-1dcc63bce8cc","{""participantId"":""A91B0F9930994607B4569F97F2E09FC1"",""assignmentId"":""482b5218-3edc-472b-9b88-fcc5c22569a4"",""projectId"":""54f8d589-66fc-4c65-830f-1dcc63bce8cc""}","https://test12345.live/?participantId=A91B0F9930994607B4569F97F2E09FC1&assignmentId=482b5218-3edc-472b-9b88-fcc5c22569a4&projectId=54f8d589-66fc-4c65-830f-1dcc63bce8cc","","null","<div style=""display: flex; justify-content: center; align-items: center;"">
                    <img src=""images/semantic/semantic_series_4/semantic_series_4_c.jpg"" style=""width: 300px; height: 300px;"" />
                  </div>","null","",""
"","","","","","html-keyboard-response","37","156571","0.0-27.0-3.0","A91B0F9930994607B4569F97F2E09FC1","A91B0F9930994607B4569F97F2E09FC1","482b5218-3edc-472b-9b88-fcc5c22569a4","54f8d589-66fc-4c65-830f-1dcc63bce8cc","{""participantId"":""A91B0F9930994607B4569F97F2E09FC1"",""assignmentId"":""482b5218-3edc-472b-9b88-fcc5c22569a4"",""projectId"":""54f8d589-66fc-4c65-830f-1dcc63bce8cc""}","https://test12345.live/?participantId=A91B0F9930994607B4569F97F2E09FC1&assignmentId=482b5218-3edc-472b-9b88-fcc5c22569a4&projectId=54f8d589-66fc-4c65-830f-1dcc63bce8cc","","null","<div style=""display: flex; justify-content: center; align-items: center;"">
                    <img src=""images/semantic/semantic_series_4/semantic_series_4_d.jpg"" style=""width: 300px; height: 300px;"" />
                  </div>","null","",""
"","","","","","html-button-response","38","158065","0.0-28.0","A91B0F9930994607B4569F97F2E09FC1","A91B0F9930994607B4569F97F2E09FC1","482b5218-3edc-472b-9b88-fcc5c22569a4","54f8d589-66fc-4c65-830f-1dcc63bce8cc","{""participantId"":""A91B0F9930994607B4569F97F2E09FC1"",""assignmentId"":""482b5218-3edc-472b-9b88-fcc5c22569a4"",""projectId"":""54f8d589-66fc-4c65-830f-1dcc63bce8cc""}","https://test12345.live/?participantId=A91B0F9930994607B4569F97F2E09FC1&assignmentId=482b5218-3edc-472b-9b88-fcc5c22569a4&projectId=54f8d589-66fc-4c65-830f-1dcc63bce8cc","","1493","Was there a person in the picture?","1","",""
"","","","","","survey-likert","39","162642","0.0-29.0","A91B0F9930994607B4569F97F2E09FC1","A91B0F9930994607B4569F97F2E09FC1","482b5218-3edc-472b-9b88-fcc5c22569a4","54f8d589-66fc-4c65-830f-1dcc63bce8cc","{""participantId"":""A91B0F9930994607B4569F97F2E09FC1"",""assignmentId"":""482b5218-3edc-472b-9b88-fcc5c22569a4"",""projectId"":""54f8d589-66fc-4c65-830f-1dcc63bce8cc""}","https://test12345.live/?participantId=A91B0F9930994607B4569F97F2E09FC1&assignmentId=482b5218-3edc-472b-9b88-fcc5c22569a4&projectId=54f8d589-66fc-4c65-830f-1dcc63bce8cc","","4574","","{""Q0"":1}","","[0]"
"","","","","","html-button-response","40","164014","0.0-30.0","A91B0F9930994607B4569F97F2E09FC1","A91B0F9930994607B4569F97F2E09FC1","482b5218-3edc-472b-9b88-fcc5c22569a4","54f8d589-66fc-4c65-830f-1dcc63bce8cc","{""participantId"":""A91B0F9930994607B4569F97F2E09FC1"",""assignmentId"":""482b5218-3edc-472b-9b88-fcc5c22569a4"",""projectId"":""54f8d589-66fc-4c65-830f-1dcc63bce8cc""}","https://test12345.live/?participantId=A91B0F9930994607B4569F97F2E09FC1&assignmentId=482b5218-3edc-472b-9b88-fcc5c22569a4&projectId=54f8d589-66fc-4c65-830f-1dcc63bce8cc","","1369","
    <div style=""display: flex; justify-content: center; align-items: center;"">
      <img src=""images/red_deck_2.png"" style=""width: 300px; height: 300px; margin-right: 10px;"" />
      <img src=""images/blue_deck_1.png"" style=""width: 300px; height: 300px;"" />
    </div>","1","1",""
"","","","","","html-keyboard-response","41","167029","0.0-32.0-0.0","A91B0F9930994607B4569F97F2E09FC1","A91B0F9930994607B4569F97F2E09FC1","482b5218-3edc-472b-9b88-fcc5c22569a4","54f8d589-66fc-4c65-830f-1dcc63bce8cc","{""participantId"":""A91B0F9930994607B4569F97F2E09FC1"",""assignmentId"":""482b5218-3edc-472b-9b88-fcc5c22569a4"",""projectId"":""54f8d589-66fc-4c65-830f-1dcc63bce8cc""}","https://test12345.live/?participantId=A91B0F9930994607B4569F97F2E09FC1&assignmentId=482b5218-3edc-472b-9b88-fcc5c22569a4&projectId=54f8d589-66fc-4c65-830f-1dcc63bce8cc","","null","<div style=""display: flex; justify-content: center; align-items: center;"">
                    <img src=""images/semantic/semantic_series_1/semantic_series_1_a.jpg"" style=""width: 300px; height: 300px;"" />
                  </div>","null","",""
"","","","","","html-keyboard-response","42","170036","0.0-32.0-1.0","A91B0F9930994607B4569F97F2E09FC1","A91B0F9930994607B4569F97F2E09FC1","482b5218-3edc-472b-9b88-fcc5c22569a4","54f8d589-66fc-4c65-830f-1dcc63bce8cc","{""participantId"":""A91B0F9930994607B4569F97F2E09FC1"",""assignmentId"":""482b5218-3edc-472b-9b88-fcc5c22569a4"",""projectId"":""54f8d589-66fc-4c65-830f-1dcc63bce8cc""}","https://test12345.live/?participantId=A91B0F9930994607B4569F97F2E09FC1&assignmentId=482b5218-3edc-472b-9b88-fcc5c22569a4&projectId=54f8d589-66fc-4c65-830f-1dcc63bce8cc","","null","<div style=""display: flex; justify-content: center; align-items: center;"">
                    <img src=""images/semantic/semantic_series_1/semantic_series_1_b.jpg"" style=""width: 300px; height: 300px;"" />
                  </div>","null","",""
"","","","","","html-keyboard-response","43","173052","0.0-32.0-2.0","A91B0F9930994607B4569F97F2E09FC1","A91B0F9930994607B4569F97F2E09FC1","482b5218-3edc-472b-9b88-fcc5c22569a4","54f8d589-66fc-4c65-830f-1dcc63bce8cc","{""participantId"":""A91B0F9930994607B4569F97F2E09FC1"",""assignmentId"":""482b5218-3edc-472b-9b88-fcc5c22569a4"",""projectId"":""54f8d589-66fc-4c65-830f-1dcc63bce8cc""}","https://test12345.live/?participantId=A91B0F9930994607B4569F97F2E09FC1&assignmentId=482b5218-3edc-472b-9b88-fcc5c22569a4&projectId=54f8d589-66fc-4c65-830f-1dcc63bce8cc","","null","<div style=""display: flex; justify-content: center; align-items: center;"">
                    <img src=""images/semantic/semantic_series_1/semantic_series_1_c.jpg"" style=""width: 300px; height: 300px;"" />
                  </div>","null","",""
"","","","","","html-keyboard-response","44","176060","0.0-32.0-3.0","A91B0F9930994607B4569F97F2E09FC1","A91B0F9930994607B4569F97F2E09FC1","482b5218-3edc-472b-9b88-fcc5c22569a4","54f8d589-66fc-4c65-830f-1dcc63bce8cc","{""participantId"":""A91B0F9930994607B4569F97F2E09FC1"",""assignmentId"":""482b5218-3edc-472b-9b88-fcc5c22569a4"",""projectId"":""54f8d589-66fc-4c65-830f-1dcc63bce8cc""}","https://test12345.live/?participantId=A91B0F9930994607B4569F97F2E09FC1&assignmentId=482b5218-3edc-472b-9b88-fcc5c22569a4&projectId=54f8d589-66fc-4c65-830f-1dcc63bce8cc","","null","<div style=""display: flex; justify-content: center; align-items: center;"">
                    <img src=""images/semantic/semantic_series_1/semantic_series_1_d.jpg"" style=""width: 300px; height: 300px;"" />
                  </div>","null","",""
"","","","","","html-button-response","45","177781","0.0-33.0","A91B0F9930994607B4569F97F2E09FC1","A91B0F9930994607B4569F97F2E09FC1","482b5218-3edc-472b-9b88-fcc5c22569a4","54f8d589-66fc-4c65-830f-1dcc63bce8cc","{""participantId"":""A91B0F9930994607B4569F97F2E09FC1"",""assignmentId"":""482b5218-3edc-472b-9b88-fcc5c22569a4"",""projectId"":""54f8d589-66fc-4c65-830f-1dcc63bce8cc""}","https://test12345.live/?participantId=A91B0F9930994607B4569F97F2E09FC1&assignmentId=482b5218-3edc-472b-9b88-fcc5c22569a4&projectId=54f8d589-66fc-4c65-830f-1dcc63bce8cc","","1719","Was there a person in the picture?","0","",""
"","","","","","survey-likert","46","181529","0.0-34.0","A91B0F9930994607B4569F97F2E09FC1","A91B0F9930994607B4569F97F2E09FC1","482b5218-3edc-472b-9b88-fcc5c22569a4","54f8d589-66fc-4c65-830f-1dcc63bce8cc","{""participantId"":""A91B0F9930994607B4569F97F2E09FC1"",""assignmentId"":""482b5218-3edc-472b-9b88-fcc5c22569a4"",""projectId"":""54f8d589-66fc-4c65-830f-1dcc63bce8cc""}","https://test12345.live/?participantId=A91B0F9930994607B4569F97F2E09FC1&assignmentId=482b5218-3edc-472b-9b88-fcc5c22569a4&projectId=54f8d589-66fc-4c65-830f-1dcc63bce8cc","","3746","","{""Q0"":1}","","[0]"
"","","","","","html-button-response","47","189117","0.0-35.0","A91B0F9930994607B4569F97F2E09FC1","A91B0F9930994607B4569F97F2E09FC1","482b5218-3edc-472b-9b88-fcc5c22569a4","54f8d589-66fc-4c65-830f-1dcc63bce8cc","{""participantId"":""A91B0F9930994607B4569F97F2E09FC1"",""assignmentId"":""482b5218-3edc-472b-9b88-fcc5c22569a4"",""projectId"":""54f8d589-66fc-4c65-830f-1dcc63bce8cc""}","https://test12345.live/?participantId=A91B0F9930994607B4569F97F2E09FC1&assignmentId=482b5218-3edc-472b-9b88-fcc5c22569a4&projectId=54f8d589-66fc-4c65-830f-1dcc63bce8cc","","7585","
    <div style=""display: flex; justify-content: center; align-items: center;"">
      <img src=""images/red_deck_2.png"" style=""width: 300px; height: 300px; margin-right: 10px;"" />
      <img src=""images/blue_deck_1.png"" style=""width: 300px; height: 300px;"" />
    </div>","1","1",""
"","","","","","html-keyboard-response","48","192124","0.0-37.0-0.0","A91B0F9930994607B4569F97F2E09FC1","A91B0F9930994607B4569F97F2E09FC1","482b5218-3edc-472b-9b88-fcc5c22569a4","54f8d589-66fc-4c65-830f-1dcc63bce8cc","{""participantId"":""A91B0F9930994607B4569F97F2E09FC1"",""assignmentId"":""482b5218-3edc-472b-9b88-fcc5c22569a4"",""projectId"":""54f8d589-66fc-4c65-830f-1dcc63bce8cc""}","https://test12345.live/?participantId=A91B0F9930994607B4569F97F2E09FC1&assignmentId=482b5218-3edc-472b-9b88-fcc5c22569a4&projectId=54f8d589-66fc-4c65-830f-1dcc63bce8cc","","null","<div style=""display: flex; justify-content: center; align-items: center;"">
                    <img src=""images/semantic/semantic_series_10/semantic_series_10_a.jpg"" style=""width: 300px; height: 300px;"" />
                  </div>","null","",""
"","","","","","html-keyboard-response","49","195133","0.0-37.0-1.0","A91B0F9930994607B4569F97F2E09FC1","A91B0F9930994607B4569F97F2E09FC1","482b5218-3edc-472b-9b88-fcc5c22569a4","54f8d589-66fc-4c65-830f-1dcc63bce8cc","{""participantId"":""A91B0F9930994607B4569F97F2E09FC1"",""assignmentId"":""482b5218-3edc-472b-9b88-fcc5c22569a4"",""projectId"":""54f8d589-66fc-4c65-830f-1dcc63bce8cc""}","https://test12345.live/?participantId=A91B0F9930994607B4569F97F2E09FC1&assignmentId=482b5218-3edc-472b-9b88-fcc5c22569a4&projectId=54f8d589-66fc-4c65-830f-1dcc63bce8cc","","null","<div style=""display: flex; justify-content: center; align-items: center;"">
                    <img src=""images/semantic/semantic_series_10/semantic_series_10_b.jpg"" style=""width: 300px; height: 300px;"" />
                  </div>","null","",""
"","","","","","html-keyboard-response","50","198138","0.0-37.0-2.0","A91B0F9930994607B4569F97F2E09FC1","A91B0F9930994607B4569F97F2E09FC1","482b5218-3edc-472b-9b88-fcc5c22569a4","54f8d589-66fc-4c65-830f-1dcc63bce8cc","{""participantId"":""A91B0F9930994607B4569F97F2E09FC1"",""assignmentId"":""482b5218-3edc-472b-9b88-fcc5c22569a4"",""projectId"":""54f8d589-66fc-4c65-830f-1dcc63bce8cc""}","https://test12345.live/?participantId=A91B0F9930994607B4569F97F2E09FC1&assignmentId=482b5218-3edc-472b-9b88-fcc5c22569a4&projectId=54f8d589-66fc-4c65-830f-1dcc63bce8cc","","null","<div style=""display: flex; justify-content: center; align-items: center;"">
                    <img src=""images/semantic/semantic_series_10/semantic_series_10_c.jpg"" style=""width: 300px; height: 300px;"" />
                  </div>","null","",""
"","","","","","html-keyboard-response","51","201147","0.0-37.0-3.0","A91B0F9930994607B4569F97F2E09FC1","A91B0F9930994607B4569F97F2E09FC1","482b5218-3edc-472b-9b88-fcc5c22569a4","54f8d589-66fc-4c65-830f-1dcc63bce8cc","{""participantId"":""A91B0F9930994607B4569F97F2E09FC1"",""assignmentId"":""482b5218-3edc-472b-9b88-fcc5c22569a4"",""projectId"":""54f8d589-66fc-4c65-830f-1dcc63bce8cc""}","https://test12345.live/?participantId=A91B0F9930994607B4569F97F2E09FC1&assignmentId=482b5218-3edc-472b-9b88-fcc5c22569a4&projectId=54f8d589-66fc-4c65-830f-1dcc63bce8cc","","null","<div style=""display: flex; justify-content: center; align-items: center;"">
                    <img src=""images/semantic/semantic_series_10/semantic_series_10_d.jpg"" style=""width: 300px; height: 300px;"" />
                  </div>","null","",""
"","","","","","html-button-response","52","202705","0.0-38.0","A91B0F9930994607B4569F97F2E09FC1","A91B0F9930994607B4569F97F2E09FC1","482b5218-3edc-472b-9b88-fcc5c22569a4","54f8d589-66fc-4c65-830f-1dcc63bce8cc","{""participantId"":""A91B0F9930994607B4569F97F2E09FC1"",""assignmentId"":""482b5218-3edc-472b-9b88-fcc5c22569a4"",""projectId"":""54f8d589-66fc-4c65-830f-1dcc63bce8cc""}","https://test12345.live/?participantId=A91B0F9930994607B4569F97F2E09FC1&assignmentId=482b5218-3edc-472b-9b88-fcc5c22569a4&projectId=54f8d589-66fc-4c65-830f-1dcc63bce8cc","","1556","Was there a person in the picture?","1","",""
"","","","","","survey-likert","53","206212","0.0-39.0","A91B0F9930994607B4569F97F2E09FC1","A91B0F9930994607B4569F97F2E09FC1","482b5218-3edc-472b-9b88-fcc5c22569a4","54f8d589-66fc-4c65-830f-1dcc63bce8cc","{""participantId"":""A91B0F9930994607B4569F97F2E09FC1"",""assignmentId"":""482b5218-3edc-472b-9b88-fcc5c22569a4"",""projectId"":""54f8d589-66fc-4c65-830f-1dcc63bce8cc""}","https://test12345.live/?participantId=A91B0F9930994607B4569F97F2E09FC1&assignmentId=482b5218-3edc-472b-9b88-fcc5c22569a4&projectId=54f8d589-66fc-4c65-830f-1dcc63bce8cc","","3505","","{""Q0"":2}","","[0]"
"","","","","","html-button-response","54","207691","0.0-40.0","A91B0F9930994607B4569F97F2E09FC1","A91B0F9930994607B4569F97F2E09FC1","482b5218-3edc-472b-9b88-fcc5c22569a4","54f8d589-66fc-4c65-830f-1dcc63bce8cc","{""participantId"":""A91B0F9930994607B4569F97F2E09FC1"",""assignmentId"":""482b5218-3edc-472b-9b88-fcc5c22569a4"",""projectId"":""54f8d589-66fc-4c65-830f-1dcc63bce8cc""}","https://test12345.live/?participantId=A91B0F9930994607B4569F97F2E09FC1&assignmentId=482b5218-3edc-472b-9b88-fcc5c22569a4&projectId=54f8d589-66fc-4c65-830f-1dcc63bce8cc","","1475","
    <div style=""display: flex; justify-content: center; align-items: center;"">
      <img src=""images/red_deck_2.png"" style=""width: 300px; height: 300px; margin-right: 10px;"" />
      <img src=""images/blue_deck_1.png"" style=""width: 300px; height: 300px;"" />
    </div>","1","1",""
"","","","","","html-keyboard-response","55","210707","0.0-42.0-0.0","A91B0F9930994607B4569F97F2E09FC1","A91B0F9930994607B4569F97F2E09FC1","482b5218-3edc-472b-9b88-fcc5c22569a4","54f8d589-66fc-4c65-830f-1dcc63bce8cc","{""participantId"":""A91B0F9930994607B4569F97F2E09FC1"",""assignmentId"":""482b5218-3edc-472b-9b88-fcc5c22569a4"",""projectId"":""54f8d589-66fc-4c65-830f-1dcc63bce8cc""}","https://test12345.live/?participantId=A91B0F9930994607B4569F97F2E09FC1&assignmentId=482b5218-3edc-472b-9b88-fcc5c22569a4&projectId=54f8d589-66fc-4c65-830f-1dcc63bce8cc","","null","<div style=""display: flex; justify-content: center; align-items: center;"">
                    <img src=""images/semantic/semantic_series_16/semantic_series_16_a.jpg"" style=""width: 300px; height: 300px;"" />
                  </div>","null","",""
"","","","","","html-keyboard-response","56","213723","0.0-42.0-1.0","A91B0F9930994607B4569F97F2E09FC1","A91B0F9930994607B4569F97F2E09FC1","482b5218-3edc-472b-9b88-fcc5c22569a4","54f8d589-66fc-4c65-830f-1dcc63bce8cc","{""participantId"":""A91B0F9930994607B4569F97F2E09FC1"",""assignmentId"":""482b5218-3edc-472b-9b88-fcc5c22569a4"",""projectId"":""54f8d589-66fc-4c65-830f-1dcc63bce8cc""}","https://test12345.live/?participantId=A91B0F9930994607B4569F97F2E09FC1&assignmentId=482b5218-3edc-472b-9b88-fcc5c22569a4&projectId=54f8d589-66fc-4c65-830f-1dcc63bce8cc","","null","<div style=""display: flex; justify-content: center; align-items: center;"">
                    <img src=""images/semantic/semantic_series_16/semantic_series_16_b.jpg"" style=""width: 300px; height: 300px;"" />
                  </div>","null","",""
"","","","","","html-keyboard-response","57","216735","0.0-42.0-2.0","A91B0F9930994607B4569F97F2E09FC1","A91B0F9930994607B4569F97F2E09FC1","482b5218-3edc-472b-9b88-fcc5c22569a4","54f8d589-66fc-4c65-830f-1dcc63bce8cc","{""participantId"":""A91B0F9930994607B4569F97F2E09FC1"",""assignmentId"":""482b5218-3edc-472b-9b88-fcc5c22569a4"",""projectId"":""54f8d589-66fc-4c65-830f-1dcc63bce8cc""}","https://test12345.live/?participantId=A91B0F9930994607B4569F97F2E09FC1&assignmentId=482b5218-3edc-472b-9b88-fcc5c22569a4&projectId=54f8d589-66fc-4c65-830f-1dcc63bce8cc","","null","<div style=""display: flex; justify-content: center; align-items: center;"">
                    <img src=""images/semantic/semantic_series_16/semantic_series_16_c.jpg"" style=""width: 300px; height: 300px;"" />
                  </div>","null","",""
"","","","","","html-keyboard-response","58","219744","0.0-42.0-3.0","A91B0F9930994607B4569F97F2E09FC1","A91B0F9930994607B4569F97F2E09FC1","482b5218-3edc-472b-9b88-fcc5c22569a4","54f8d589-66fc-4c65-830f-1dcc63bce8cc","{""participantId"":""A91B0F9930994607B4569F97F2E09FC1"",""assignmentId"":""482b5218-3edc-472b-9b88-fcc5c22569a4"",""projectId"":""54f8d589-66fc-4c65-830f-1dcc63bce8cc""}","https://test12345.live/?participantId=A91B0F9930994607B4569F97F2E09FC1&assignmentId=482b5218-3edc-472b-9b88-fcc5c22569a4&projectId=54f8d589-66fc-4c65-830f-1dcc63bce8cc","","null","<div style=""display: flex; justify-content: center; align-items: center;"">
                    <img src=""images/semantic/semantic_series_16/semantic_series_16_d.jpg"" style=""width: 300px; height: 300px;"" />
                  </div>","null","",""
"","","","","","html-button-response","59","223022","0.0-43.0","A91B0F9930994607B4569F97F2E09FC1","A91B0F9930994607B4569F97F2E09FC1","482b5218-3edc-472b-9b88-fcc5c22569a4","54f8d589-66fc-4c65-830f-1dcc63bce8cc","{""participantId"":""A91B0F9930994607B4569F97F2E09FC1"",""assignmentId"":""482b5218-3edc-472b-9b88-fcc5c22569a4"",""projectId"":""54f8d589-66fc-4c65-830f-1dcc63bce8cc""}","https://test12345.live/?participantId=A91B0F9930994607B4569F97F2E09FC1&assignmentId=482b5218-3edc-472b-9b88-fcc5c22569a4&projectId=54f8d589-66fc-4c65-830f-1dcc63bce8cc","","3276","Was there a person in the picture?","0","",""
"","","","","","survey-likert","60","225822","0.0-44.0","A91B0F9930994607B4569F97F2E09FC1","A91B0F9930994607B4569F97F2E09FC1","482b5218-3edc-472b-9b88-fcc5c22569a4","54f8d589-66fc-4c65-830f-1dcc63bce8cc","{""participantId"":""A91B0F9930994607B4569F97F2E09FC1"",""assignmentId"":""482b5218-3edc-472b-9b88-fcc5c22569a4"",""projectId"":""54f8d589-66fc-4c65-830f-1dcc63bce8cc""}","https://test12345.live/?participantId=A91B0F9930994607B4569F97F2E09FC1&assignmentId=482b5218-3edc-472b-9b88-fcc5c22569a4&projectId=54f8d589-66fc-4c65-830f-1dcc63bce8cc","","2797","","{""Q0"":1}","","[0]"
"","","","","","html-button-response","61","227475","0.0-45.0","A91B0F9930994607B4569F97F2E09FC1","A91B0F9930994607B4569F97F2E09FC1","482b5218-3edc-472b-9b88-fcc5c22569a4","54f8d589-66fc-4c65-830f-1dcc63bce8cc","{""participantId"":""A91B0F9930994607B4569F97F2E09FC1"",""assignmentId"":""482b5218-3edc-472b-9b88-fcc5c22569a4"",""projectId"":""54f8d589-66fc-4c65-830f-1dcc63bce8cc""}","https://test12345.live/?participantId=A91B0F9930994607B4569F97F2E09FC1&assignmentId=482b5218-3edc-472b-9b88-fcc5c22569a4&projectId=54f8d589-66fc-4c65-830f-1dcc63bce8cc","","1651","
    <div style=""display: flex; justify-content: center; align-items: center;"">
      <img src=""images/red_deck_2.png"" style=""width: 300px; height: 300px; margin-right: 10px;"" />
      <img src=""images/blue_deck_1.png"" style=""width: 300px; height: 300px;"" />
    </div>","1","1",""
"","","","","","html-keyboard-response","62","230483","0.0-47.0-0.0","A91B0F9930994607B4569F97F2E09FC1","A91B0F9930994607B4569F97F2E09FC1","482b5218-3edc-472b-9b88-fcc5c22569a4","54f8d589-66fc-4c65-830f-1dcc63bce8cc","{""participantId"":""A91B0F9930994607B4569F97F2E09FC1"",""assignmentId"":""482b5218-3edc-472b-9b88-fcc5c22569a4"",""projectId"":""54f8d589-66fc-4c65-830f-1dcc63bce8cc""}","https://test12345.live/?participantId=A91B0F9930994607B4569F97F2E09FC1&assignmentId=482b5218-3edc-472b-9b88-fcc5c22569a4&projectId=54f8d589-66fc-4c65-830f-1dcc63bce8cc","","null","<div style=""display: flex; justify-content: center; align-items: center;"">
                    <img src=""images/semantic/semantic_series_2/semantic_series_2_a.jpg"" style=""width: 300px; height: 300px;"" />
                  </div>","null","",""
"","","","","","html-keyboard-response","63","233492","0.0-47.0-1.0","A91B0F9930994607B4569F97F2E09FC1","A91B0F9930994607B4569F97F2E09FC1","482b5218-3edc-472b-9b88-fcc5c22569a4","54f8d589-66fc-4c65-830f-1dcc63bce8cc","{""participantId"":""A91B0F9930994607B4569F97F2E09FC1"",""assignmentId"":""482b5218-3edc-472b-9b88-fcc5c22569a4"",""projectId"":""54f8d589-66fc-4c65-830f-1dcc63bce8cc""}","https://test12345.live/?participantId=A91B0F9930994607B4569F97F2E09FC1&assignmentId=482b5218-3edc-472b-9b88-fcc5c22569a4&projectId=54f8d589-66fc-4c65-830f-1dcc63bce8cc","","null","<div style=""display: flex; justify-content: center; align-items: center;"">
                    <img src=""images/semantic/semantic_series_2/semantic_series_2_b.jpg"" style=""width: 300px; height: 300px;"" />
                  </div>","null","",""
"","","","","","html-keyboard-response","64","236504","0.0-47.0-2.0","A91B0F9930994607B4569F97F2E09FC1","A91B0F9930994607B4569F97F2E09FC1","482b5218-3edc-472b-9b88-fcc5c22569a4","54f8d589-66fc-4c65-830f-1dcc63bce8cc","{""participantId"":""A91B0F9930994607B4569F97F2E09FC1"",""assignmentId"":""482b5218-3edc-472b-9b88-fcc5c22569a4"",""projectId"":""54f8d589-66fc-4c65-830f-1dcc63bce8cc""}","https://test12345.live/?participantId=A91B0F9930994607B4569F97F2E09FC1&assignmentId=482b5218-3edc-472b-9b88-fcc5c22569a4&projectId=54f8d589-66fc-4c65-830f-1dcc63bce8cc","","null","<div style=""display: flex; justify-content: center; align-items: center;"">
                    <img src=""images/semantic/semantic_series_2/semantic_series_2_c.jpg"" style=""width: 300px; height: 300px;"" />
                  </div>","null","",""
"","","","","","html-keyboard-response","65","239519","0.0-47.0-3.0","A91B0F9930994607B4569F97F2E09FC1","A91B0F9930994607B4569F97F2E09FC1","482b5218-3edc-472b-9b88-fcc5c22569a4","54f8d589-66fc-4c65-830f-1dcc63bce8cc","{""participantId"":""A91B0F9930994607B4569F97F2E09FC1"",""assignmentId"":""482b5218-3edc-472b-9b88-fcc5c22569a4"",""projectId"":""54f8d589-66fc-4c65-830f-1dcc63bce8cc""}","https://test12345.live/?participantId=A91B0F9930994607B4569F97F2E09FC1&assignmentId=482b5218-3edc-472b-9b88-fcc5c22569a4&projectId=54f8d589-66fc-4c65-830f-1dcc63bce8cc","","null","<div style=""display: flex; justify-content: center; align-items: center;"">
                    <img src=""images/semantic/semantic_series_2/semantic_series_2_d.jpg"" style=""width: 300px; height: 300px;"" />
                  </div>","null","",""
"","","","","","html-button-response","66","241989","0.0-48.0","A91B0F9930994607B4569F97F2E09FC1","A91B0F9930994607B4569F97F2E09FC1","482b5218-3edc-472b-9b88-fcc5c22569a4","54f8d589-66fc-4c65-830f-1dcc63bce8cc","{""participantId"":""A91B0F9930994607B4569F97F2E09FC1"",""assignmentId"":""482b5218-3edc-472b-9b88-fcc5c22569a4"",""projectId"":""54f8d589-66fc-4c65-830f-1dcc63bce8cc""}","https://test12345.live/?participantId=A91B0F9930994607B4569F97F2E09FC1&assignmentId=482b5218-3edc-472b-9b88-fcc5c22569a4&projectId=54f8d589-66fc-4c65-830f-1dcc63bce8cc","","2469","Was there a person in the picture?","1","",""
"","","","","","survey-likert","67","245032","0.0-49.0","A91B0F9930994607B4569F97F2E09FC1","A91B0F9930994607B4569F97F2E09FC1","482b5218-3edc-472b-9b88-fcc5c22569a4","54f8d589-66fc-4c65-830f-1dcc63bce8cc","{""participantId"":""A91B0F9930994607B4569F97F2E09FC1"",""assignmentId"":""482b5218-3edc-472b-9b88-fcc5c22569a4"",""projectId"":""54f8d589-66fc-4c65-830f-1dcc63bce8cc""}","https://test12345.live/?participantId=A91B0F9930994607B4569F97F2E09FC1&assignmentId=482b5218-3edc-472b-9b88-fcc5c22569a4&projectId=54f8d589-66fc-4c65-830f-1dcc63bce8cc","","3042","","{""Q0"":2}","","[0]"
"","","","","","html-button-response","68","246487","0.0-50.0","A91B0F9930994607B4569F97F2E09FC1","A91B0F9930994607B4569F97F2E09FC1","482b5218-3edc-472b-9b88-fcc5c22569a4","54f8d589-66fc-4c65-830f-1dcc63bce8cc","{""participantId"":""A91B0F9930994607B4569F97F2E09FC1"",""assignmentId"":""482b5218-3edc-472b-9b88-fcc5c22569a4"",""projectId"":""54f8d589-66fc-4c65-830f-1dcc63bce8cc""}","https://test12345.live/?participantId=A91B0F9930994607B4569F97F2E09FC1&assignmentId=482b5218-3edc-472b-9b88-fcc5c22569a4&projectId=54f8d589-66fc-4c65-830f-1dcc63bce8cc","","1453","
    <div style=""display: flex; justify-content: center; align-items: center;"">
      <img src=""images/red_deck_2.png"" style=""width: 300px; height: 300px; margin-right: 10px;"" />
      <img src=""images/blue_deck_1.png"" style=""width: 300px; height: 300px;"" />
    </div>","1","1",""
"","","","","","html-keyboard-response","69","249498","0.0-52.0-0.0","A91B0F9930994607B4569F97F2E09FC1","A91B0F9930994607B4569F97F2E09FC1","482b5218-3edc-472b-9b88-fcc5c22569a4","54f8d589-66fc-4c65-830f-1dcc63bce8cc","{""participantId"":""A91B0F9930994607B4569F97F2E09FC1"",""assignmentId"":""482b5218-3edc-472b-9b88-fcc5c22569a4"",""projectId"":""54f8d589-66fc-4c65-830f-1dcc63bce8cc""}","https://test12345.live/?participantId=A91B0F9930994607B4569F97F2E09FC1&assignmentId=482b5218-3edc-472b-9b88-fcc5c22569a4&projectId=54f8d589-66fc-4c65-830f-1dcc63bce8cc","","null","<div style=""display: flex; justify-content: center; align-items: center;"">
                    <img src=""images/semantic/semantic_series_6/semantic_series_6_a.jpg"" style=""width: 300px; height: 300px;"" />
                  </div>","null","",""
"","","","","","html-keyboard-response","70","252505","0.0-52.0-1.0","A91B0F9930994607B4569F97F2E09FC1","A91B0F9930994607B4569F97F2E09FC1","482b5218-3edc-472b-9b88-fcc5c22569a4","54f8d589-66fc-4c65-830f-1dcc63bce8cc","{""participantId"":""A91B0F9930994607B4569F97F2E09FC1"",""assignmentId"":""482b5218-3edc-472b-9b88-fcc5c22569a4"",""projectId"":""54f8d589-66fc-4c65-830f-1dcc63bce8cc""}","https://test12345.live/?participantId=A91B0F9930994607B4569F97F2E09FC1&assignmentId=482b5218-3edc-472b-9b88-fcc5c22569a4&projectId=54f8d589-66fc-4c65-830f-1dcc63bce8cc","","null","<div style=""display: flex; justify-content: center; align-items: center;"">
                    <img src=""images/semantic/semantic_series_6/semantic_series_6_b.jpg"" style=""width: 300px; height: 300px;"" />
                  </div>","null","",""
"","","","","","html-keyboard-response","71","255516","0.0-52.0-2.0","A91B0F9930994607B4569F97F2E09FC1","A91B0F9930994607B4569F97F2E09FC1","482b5218-3edc-472b-9b88-fcc5c22569a4","54f8d589-66fc-4c65-830f-1dcc63bce8cc","{""participantId"":""A91B0F9930994607B4569F97F2E09FC1"",""assignmentId"":""482b5218-3edc-472b-9b88-fcc5c22569a4"",""projectId"":""54f8d589-66fc-4c65-830f-1dcc63bce8cc""}","https://test12345.live/?participantId=A91B0F9930994607B4569F97F2E09FC1&assignmentId=482b5218-3edc-472b-9b88-fcc5c22569a4&projectId=54f8d589-66fc-4c65-830f-1dcc63bce8cc","","null","<div style=""display: flex; justify-content: center; align-items: center;"">
                    <img src=""images/semantic/semantic_series_6/semantic_series_6_c.jpg"" style=""width: 300px; height: 300px;"" />
                  </div>","null","",""
"","","","","","html-keyboard-response","72","258530","0.0-52.0-3.0","A91B0F9930994607B4569F97F2E09FC1","A91B0F9930994607B4569F97F2E09FC1","482b5218-3edc-472b-9b88-fcc5c22569a4","54f8d589-66fc-4c65-830f-1dcc63bce8cc","{""participantId"":""A91B0F9930994607B4569F97F2E09FC1"",""assignmentId"":""482b5218-3edc-472b-9b88-fcc5c22569a4"",""projectId"":""54f8d589-66fc-4c65-830f-1dcc63bce8cc""}","https://test12345.live/?participantId=A91B0F9930994607B4569F97F2E09FC1&assignmentId=482b5218-3edc-472b-9b88-fcc5c22569a4&projectId=54f8d589-66fc-4c65-830f-1dcc63bce8cc","","null","<div style=""display: flex; justify-content: center; align-items: center;"">
                    <img src=""images/semantic/semantic_series_6/semantic_series_6_d.jpg"" style=""width: 300px; height: 300px;"" />
                  </div>","null","",""
"","","","","","html-button-response","73","263904","0.0-53.0","A91B0F9930994607B4569F97F2E09FC1","A91B0F9930994607B4569F97F2E09FC1","482b5218-3edc-472b-9b88-fcc5c22569a4","54f8d589-66fc-4c65-830f-1dcc63bce8cc","{""participantId"":""A91B0F9930994607B4569F97F2E09FC1"",""assignmentId"":""482b5218-3edc-472b-9b88-fcc5c22569a4"",""projectId"":""54f8d589-66fc-4c65-830f-1dcc63bce8cc""}","https://test12345.live/?participantId=A91B0F9930994607B4569F97F2E09FC1&assignmentId=482b5218-3edc-472b-9b88-fcc5c22569a4&projectId=54f8d589-66fc-4c65-830f-1dcc63bce8cc","","5373","Was there a person in the picture?","1","",""
"","","","","","survey-likert","74","267053","0.0-54.0","A91B0F9930994607B4569F97F2E09FC1","A91B0F9930994607B4569F97F2E09FC1","482b5218-3edc-472b-9b88-fcc5c22569a4","54f8d589-66fc-4c65-830f-1dcc63bce8cc","{""participantId"":""A91B0F9930994607B4569F97F2E09FC1"",""assignmentId"":""482b5218-3edc-472b-9b88-fcc5c22569a4"",""projectId"":""54f8d589-66fc-4c65-830f-1dcc63bce8cc""}","https://test12345.live/?participantId=A91B0F9930994607B4569F97F2E09FC1&assignmentId=482b5218-3edc-472b-9b88-fcc5c22569a4&projectId=54f8d589-66fc-4c65-830f-1dcc63bce8cc","","3146","","{""Q0"":2}","","[0]"
"","","","","","html-button-response","75","272049","0.0-55.0","A91B0F9930994607B4569F97F2E09FC1","A91B0F9930994607B4569F97F2E09FC1","482b5218-3edc-472b-9b88-fcc5c22569a4","54f8d589-66fc-4c65-830f-1dcc63bce8cc","{""participantId"":""A91B0F9930994607B4569F97F2E09FC1"",""assignmentId"":""482b5218-3edc-472b-9b88-fcc5c22569a4"",""projectId"":""54f8d589-66fc-4c65-830f-1dcc63bce8cc""}","https://test12345.live/?participantId=A91B0F9930994607B4569F97F2E09FC1&assignmentId=482b5218-3edc-472b-9b88-fcc5c22569a4&projectId=54f8d589-66fc-4c65-830f-1dcc63bce8cc","","4994","
    <div style=""display: flex; justify-content: center; align-items: center;"">
      <img src=""images/red_deck_2.png"" style=""width: 300px; height: 300px; margin-right: 10px;"" />
      <img src=""images/blue_deck_1.png"" style=""width: 300px; height: 300px;"" />
    </div>","1","1",""
"","","","","","html-keyboard-response","76","275056","0.0-57.0-0.0","A91B0F9930994607B4569F97F2E09FC1","A91B0F9930994607B4569F97F2E09FC1","482b5218-3edc-472b-9b88-fcc5c22569a4","54f8d589-66fc-4c65-830f-1dcc63bce8cc","{""participantId"":""A91B0F9930994607B4569F97F2E09FC1"",""assignmentId"":""482b5218-3edc-472b-9b88-fcc5c22569a4"",""projectId"":""54f8d589-66fc-4c65-830f-1dcc63bce8cc""}","https://test12345.live/?participantId=A91B0F9930994607B4569F97F2E09FC1&assignmentId=482b5218-3edc-472b-9b88-fcc5c22569a4&projectId=54f8d589-66fc-4c65-830f-1dcc63bce8cc","","null","<div style=""display: flex; justify-content: center; align-items: center;"">
                    <img src=""images/semantic/semantic_series_15/semantic_series_15_a.jpg"" style=""width: 300px; height: 300px;"" />
                  </div>","null","",""
"","","","","","html-keyboard-response","77","278059","0.0-57.0-1.0","A91B0F9930994607B4569F97F2E09FC1","A91B0F9930994607B4569F97F2E09FC1","482b5218-3edc-472b-9b88-fcc5c22569a4","54f8d589-66fc-4c65-830f-1dcc63bce8cc","{""participantId"":""A91B0F9930994607B4569F97F2E09FC1"",""assignmentId"":""482b5218-3edc-472b-9b88-fcc5c22569a4"",""projectId"":""54f8d589-66fc-4c65-830f-1dcc63bce8cc""}","https://test12345.live/?participantId=A91B0F9930994607B4569F97F2E09FC1&assignmentId=482b5218-3edc-472b-9b88-fcc5c22569a4&projectId=54f8d589-66fc-4c65-830f-1dcc63bce8cc","","null","<div style=""display: flex; justify-content: center; align-items: center;"">
                    <img src=""images/semantic/semantic_series_15/semantic_series_15_b.jpg"" style=""width: 300px; height: 300px;"" />
                  </div>","null","",""
"","","","","","html-keyboard-response","78","281075","0.0-57.0-2.0","A91B0F9930994607B4569F97F2E09FC1","A91B0F9930994607B4569F97F2E09FC1","482b5218-3edc-472b-9b88-fcc5c22569a4","54f8d589-66fc-4c65-830f-1dcc63bce8cc","{""participantId"":""A91B0F9930994607B4569F97F2E09FC1"",""assignmentId"":""482b5218-3edc-472b-9b88-fcc5c22569a4"",""projectId"":""54f8d589-66fc-4c65-830f-1dcc63bce8cc""}","https://test12345.live/?participantId=A91B0F9930994607B4569F97F2E09FC1&assignmentId=482b5218-3edc-472b-9b88-fcc5c22569a4&projectId=54f8d589-66fc-4c65-830f-1dcc63bce8cc","","null","<div style=""display: flex; justify-content: center; align-items: center;"">
                    <img src=""images/semantic/semantic_series_15/semantic_series_15_c.jpg"" style=""width: 300px; height: 300px;"" />
                  </div>","null","",""
"","","","","","html-keyboard-response","79","284083","0.0-57.0-3.0","A91B0F9930994607B4569F97F2E09FC1","A91B0F9930994607B4569F97F2E09FC1","482b5218-3edc-472b-9b88-fcc5c22569a4","54f8d589-66fc-4c65-830f-1dcc63bce8cc","{""participantId"":""A91B0F9930994607B4569F97F2E09FC1"",""assignmentId"":""482b5218-3edc-472b-9b88-fcc5c22569a4"",""projectId"":""54f8d589-66fc-4c65-830f-1dcc63bce8cc""}","https://test12345.live/?participantId=A91B0F9930994607B4569F97F2E09FC1&assignmentId=482b5218-3edc-472b-9b88-fcc5c22569a4&projectId=54f8d589-66fc-4c65-830f-1dcc63bce8cc","","null","<div style=""display: flex; justify-content: center; align-items: center;"">
                    <img src=""images/semantic/semantic_series_15/semantic_series_15_d.jpg"" style=""width: 300px; height: 300px;"" />
                  </div>","null","",""
"","","","","","html-button-response","80","285759","0.0-58.0","A91B0F9930994607B4569F97F2E09FC1","A91B0F9930994607B4569F97F2E09FC1","482b5218-3edc-472b-9b88-fcc5c22569a4","54f8d589-66fc-4c65-830f-1dcc63bce8cc","{""participantId"":""A91B0F9930994607B4569F97F2E09FC1"",""assignmentId"":""482b5218-3edc-472b-9b88-fcc5c22569a4"",""projectId"":""54f8d589-66fc-4c65-830f-1dcc63bce8cc""}","https://test12345.live/?participantId=A91B0F9930994607B4569F97F2E09FC1&assignmentId=482b5218-3edc-472b-9b88-fcc5c22569a4&projectId=54f8d589-66fc-4c65-830f-1dcc63bce8cc","","1675","Was there a person in the picture?","1","",""
"","","","","","survey-likert","81","288796","0.0-59.0","A91B0F9930994607B4569F97F2E09FC1","A91B0F9930994607B4569F97F2E09FC1","482b5218-3edc-472b-9b88-fcc5c22569a4","54f8d589-66fc-4c65-830f-1dcc63bce8cc","{""participantId"":""A91B0F9930994607B4569F97F2E09FC1"",""assignmentId"":""482b5218-3edc-472b-9b88-fcc5c22569a4"",""projectId"":""54f8d589-66fc-4c65-830f-1dcc63bce8cc""}","https://test12345.live/?participantId=A91B0F9930994607B4569F97F2E09FC1&assignmentId=482b5218-3edc-472b-9b88-fcc5c22569a4&projectId=54f8d589-66fc-4c65-830f-1dcc63bce8cc","","3034","","{""Q0"":1}","","[0]"
"","","","","","html-button-response","82","290542","0.0-60.0","A91B0F9930994607B4569F97F2E09FC1","A91B0F9930994607B4569F97F2E09FC1","482b5218-3edc-472b-9b88-fcc5c22569a4","54f8d589-66fc-4c65-830f-1dcc63bce8cc","{""participantId"":""A91B0F9930994607B4569F97F2E09FC1"",""assignmentId"":""482b5218-3edc-472b-9b88-fcc5c22569a4"",""projectId"":""54f8d589-66fc-4c65-830f-1dcc63bce8cc""}","https://test12345.live/?participantId=A91B0F9930994607B4569F97F2E09FC1&assignmentId=482b5218-3edc-472b-9b88-fcc5c22569a4&projectId=54f8d589-66fc-4c65-830f-1dcc63bce8cc","","1743","
    <div style=""display: flex; justify-content: center; align-items: center;"">
      <img src=""images/red_deck_2.png"" style=""width: 300px; height: 300px; margin-right: 10px;"" />
      <img src=""images/blue_deck_1.png"" style=""width: 300px; height: 300px;"" />
    </div>","1","1",""
"","","","","","html-keyboard-response","83","293555","0.0-62.0-0.0","A91B0F9930994607B4569F97F2E09FC1","A91B0F9930994607B4569F97F2E09FC1","482b5218-3edc-472b-9b88-fcc5c22569a4","54f8d589-66fc-4c65-830f-1dcc63bce8cc","{""participantId"":""A91B0F9930994607B4569F97F2E09FC1"",""assignmentId"":""482b5218-3edc-472b-9b88-fcc5c22569a4"",""projectId"":""54f8d589-66fc-4c65-830f-1dcc63bce8cc""}","https://test12345.live/?participantId=A91B0F9930994607B4569F97F2E09FC1&assignmentId=482b5218-3edc-472b-9b88-fcc5c22569a4&projectId=54f8d589-66fc-4c65-830f-1dcc63bce8cc","","null","<div style=""display: flex; justify-content: center; align-items: center;"">
                    <img src=""images/semantic/semantic_series_8/semantic_series_8_a.jpg"" style=""width: 300px; height: 300px;"" />
                  </div>","null","",""
"","","","","","html-keyboard-response","84","296568","0.0-62.0-1.0","A91B0F9930994607B4569F97F2E09FC1","A91B0F9930994607B4569F97F2E09FC1","482b5218-3edc-472b-9b88-fcc5c22569a4","54f8d589-66fc-4c65-830f-1dcc63bce8cc","{""participantId"":""A91B0F9930994607B4569F97F2E09FC1"",""assignmentId"":""482b5218-3edc-472b-9b88-fcc5c22569a4"",""projectId"":""54f8d589-66fc-4c65-830f-1dcc63bce8cc""}","https://test12345.live/?participantId=A91B0F9930994607B4569F97F2E09FC1&assignmentId=482b5218-3edc-472b-9b88-fcc5c22569a4&projectId=54f8d589-66fc-4c65-830f-1dcc63bce8cc","","null","<div style=""display: flex; justify-content: center; align-items: center;"">
                    <img src=""images/semantic/semantic_series_8/semantic_series_8_b.jpg"" style=""width: 300px; height: 300px;"" />
                  </div>","null","",""
"","","","","","html-keyboard-response","85","299579","0.0-62.0-2.0","A91B0F9930994607B4569F97F2E09FC1","A91B0F9930994607B4569F97F2E09FC1","482b5218-3edc-472b-9b88-fcc5c22569a4","54f8d589-66fc-4c65-830f-1dcc63bce8cc","{""participantId"":""A91B0F9930994607B4569F97F2E09FC1"",""assignmentId"":""482b5218-3edc-472b-9b88-fcc5c22569a4"",""projectId"":""54f8d589-66fc-4c65-830f-1dcc63bce8cc""}","https://test12345.live/?participantId=A91B0F9930994607B4569F97F2E09FC1&assignmentId=482b5218-3edc-472b-9b88-fcc5c22569a4&projectId=54f8d589-66fc-4c65-830f-1dcc63bce8cc","","null","<div style=""display: flex; justify-content: center; align-items: center;"">
                    <img src=""images/semantic/semantic_series_8/semantic_series_8_c.jpg"" style=""width: 300px; height: 300px;"" />
                  </div>","null","",""
"","","","","","html-keyboard-response","86","302589","0.0-62.0-3.0","A91B0F9930994607B4569F97F2E09FC1","A91B0F9930994607B4569F97F2E09FC1","482b5218-3edc-472b-9b88-fcc5c22569a4","54f8d589-66fc-4c65-830f-1dcc63bce8cc","{""participantId"":""A91B0F9930994607B4569F97F2E09FC1"",""assignmentId"":""482b5218-3edc-472b-9b88-fcc5c22569a4"",""projectId"":""54f8d589-66fc-4c65-830f-1dcc63bce8cc""}","https://test12345.live/?participantId=A91B0F9930994607B4569F97F2E09FC1&assignmentId=482b5218-3edc-472b-9b88-fcc5c22569a4&projectId=54f8d589-66fc-4c65-830f-1dcc63bce8cc","","null","<div style=""display: flex; justify-content: center; align-items: center;"">
                    <img src=""images/semantic/semantic_series_8/semantic_series_8_d.jpg"" style=""width: 300px; height: 300px;"" />
                  </div>","null","",""
"","","","","","html-button-response","87","304605","0.0-63.0","A91B0F9930994607B4569F97F2E09FC1","A91B0F9930994607B4569F97F2E09FC1","482b5218-3edc-472b-9b88-fcc5c22569a4","54f8d589-66fc-4c65-830f-1dcc63bce8cc","{""participantId"":""A91B0F9930994607B4569F97F2E09FC1"",""assignmentId"":""482b5218-3edc-472b-9b88-fcc5c22569a4"",""projectId"":""54f8d589-66fc-4c65-830f-1dcc63bce8cc""}","https://test12345.live/?participantId=A91B0F9930994607B4569F97F2E09FC1&assignmentId=482b5218-3edc-472b-9b88-fcc5c22569a4&projectId=54f8d589-66fc-4c65-830f-1dcc63bce8cc","","2014","Was there a person in the picture?","1","",""
"","","","","","survey-likert","88","307510","0.0-64.0","A91B0F9930994607B4569F97F2E09FC1","A91B0F9930994607B4569F97F2E09FC1","482b5218-3edc-472b-9b88-fcc5c22569a4","54f8d589-66fc-4c65-830f-1dcc63bce8cc","{""participantId"":""A91B0F9930994607B4569F97F2E09FC1"",""assignmentId"":""482b5218-3edc-472b-9b88-fcc5c22569a4"",""projectId"":""54f8d589-66fc-4c65-830f-1dcc63bce8cc""}","https://test12345.live/?participantId=A91B0F9930994607B4569F97F2E09FC1&assignmentId=482b5218-3edc-472b-9b88-fcc5c22569a4&projectId=54f8d589-66fc-4c65-830f-1dcc63bce8cc","","2903","","{""Q0"":2}","","[0]"
"","","","","","html-button-response","89","308998","0.0-65.0","A91B0F9930994607B4569F97F2E09FC1","A91B0F9930994607B4569F97F2E09FC1","482b5218-3edc-472b-9b88-fcc5c22569a4","54f8d589-66fc-4c65-830f-1dcc63bce8cc","{""participantId"":""A91B0F9930994607B4569F97F2E09FC1"",""assignmentId"":""482b5218-3edc-472b-9b88-fcc5c22569a4"",""projectId"":""54f8d589-66fc-4c65-830f-1dcc63bce8cc""}","https://test12345.live/?participantId=A91B0F9930994607B4569F97F2E09FC1&assignmentId=482b5218-3edc-472b-9b88-fcc5c22569a4&projectId=54f8d589-66fc-4c65-830f-1dcc63bce8cc","","1484","
    <div style=""display: flex; justify-content: center; align-items: center;"">
      <img src=""images/red_deck_2.png"" style=""width: 300px; height: 300px; margin-right: 10px;"" />
      <img src=""images/blue_deck_1.png"" style=""width: 300px; height: 300px;"" />
    </div>","1","1",""
"","","","","","html-keyboard-response","90","312013","0.0-67.0-0.0","A91B0F9930994607B4569F97F2E09FC1","A91B0F9930994607B4569F97F2E09FC1","482b5218-3edc-472b-9b88-fcc5c22569a4","54f8d589-66fc-4c65-830f-1dcc63bce8cc","{""participantId"":""A91B0F9930994607B4569F97F2E09FC1"",""assignmentId"":""482b5218-3edc-472b-9b88-fcc5c22569a4"",""projectId"":""54f8d589-66fc-4c65-830f-1dcc63bce8cc""}","https://test12345.live/?participantId=A91B0F9930994607B4569F97F2E09FC1&assignmentId=482b5218-3edc-472b-9b88-fcc5c22569a4&projectId=54f8d589-66fc-4c65-830f-1dcc63bce8cc","","null","<div style=""display: flex; justify-content: center; align-items: center;"">
                    <img src=""images/semantic/semantic_series_13/semantic_series_13_a.jpg"" style=""width: 300px; height: 300px;"" />
                  </div>","null","",""
"","","","","","html-keyboard-response","91","315016","0.0-67.0-1.0","A91B0F9930994607B4569F97F2E09FC1","A91B0F9930994607B4569F97F2E09FC1","482b5218-3edc-472b-9b88-fcc5c22569a4","54f8d589-66fc-4c65-830f-1dcc63bce8cc","{""participantId"":""A91B0F9930994607B4569F97F2E09FC1"",""assignmentId"":""482b5218-3edc-472b-9b88-fcc5c22569a4"",""projectId"":""54f8d589-66fc-4c65-830f-1dcc63bce8cc""}","https://test12345.live/?participantId=A91B0F9930994607B4569F97F2E09FC1&assignmentId=482b5218-3edc-472b-9b88-fcc5c22569a4&projectId=54f8d589-66fc-4c65-830f-1dcc63bce8cc","","null","<div style=""display: flex; justify-content: center; align-items: center;"">
                    <img src=""images/semantic/semantic_series_13/semantic_series_13_b.jpg"" style=""width: 300px; height: 300px;"" />
                  </div>","null","",""
"","","","","","html-keyboard-response","92","318028","0.0-67.0-2.0","A91B0F9930994607B4569F97F2E09FC1","A91B0F9930994607B4569F97F2E09FC1","482b5218-3edc-472b-9b88-fcc5c22569a4","54f8d589-66fc-4c65-830f-1dcc63bce8cc","{""participantId"":""A91B0F9930994607B4569F97F2E09FC1"",""assignmentId"":""482b5218-3edc-472b-9b88-fcc5c22569a4"",""projectId"":""54f8d589-66fc-4c65-830f-1dcc63bce8cc""}","https://test12345.live/?participantId=A91B0F9930994607B4569F97F2E09FC1&assignmentId=482b5218-3edc-472b-9b88-fcc5c22569a4&projectId=54f8d589-66fc-4c65-830f-1dcc63bce8cc","","null","<div style=""display: flex; justify-content: center; align-items: center;"">
                    <img src=""images/semantic/semantic_series_13/semantic_series_13_c.jpg"" style=""width: 300px; height: 300px;"" />
                  </div>","null","",""
"","","","","","html-keyboard-response","93","321041","0.0-67.0-3.0","A91B0F9930994607B4569F97F2E09FC1","A91B0F9930994607B4569F97F2E09FC1","482b5218-3edc-472b-9b88-fcc5c22569a4","54f8d589-66fc-4c65-830f-1dcc63bce8cc","{""participantId"":""A91B0F9930994607B4569F97F2E09FC1"",""assignmentId"":""482b5218-3edc-472b-9b88-fcc5c22569a4"",""projectId"":""54f8d589-66fc-4c65-830f-1dcc63bce8cc""}","https://test12345.live/?participantId=A91B0F9930994607B4569F97F2E09FC1&assignmentId=482b5218-3edc-472b-9b88-fcc5c22569a4&projectId=54f8d589-66fc-4c65-830f-1dcc63bce8cc","","null","<div style=""display: flex; justify-content: center; align-items: center;"">
                    <img src=""images/semantic/semantic_series_13/semantic_series_13_d.jpg"" style=""width: 300px; height: 300px;"" />
                  </div>","null","",""
"","","","","","html-button-response","94","322697","0.0-68.0","A91B0F9930994607B4569F97F2E09FC1","A91B0F9930994607B4569F97F2E09FC1","482b5218-3edc-472b-9b88-fcc5c22569a4","54f8d589-66fc-4c65-830f-1dcc63bce8cc","{""participantId"":""A91B0F9930994607B4569F97F2E09FC1"",""assignmentId"":""482b5218-3edc-472b-9b88-fcc5c22569a4"",""projectId"":""54f8d589-66fc-4c65-830f-1dcc63bce8cc""}","https://test12345.live/?participantId=A91B0F9930994607B4569F97F2E09FC1&assignmentId=482b5218-3edc-472b-9b88-fcc5c22569a4&projectId=54f8d589-66fc-4c65-830f-1dcc63bce8cc","","1655","Was there a person in the picture?","0","",""
"","","","","","survey-likert","95","325706","0.0-69.0","A91B0F9930994607B4569F97F2E09FC1","A91B0F9930994607B4569F97F2E09FC1","482b5218-3edc-472b-9b88-fcc5c22569a4","54f8d589-66fc-4c65-830f-1dcc63bce8cc","{""participantId"":""A91B0F9930994607B4569F97F2E09FC1"",""assignmentId"":""482b5218-3edc-472b-9b88-fcc5c22569a4"",""projectId"":""54f8d589-66fc-4c65-830f-1dcc63bce8cc""}","https://test12345.live/?participantId=A91B0F9930994607B4569F97F2E09FC1&assignmentId=482b5218-3edc-472b-9b88-fcc5c22569a4&projectId=54f8d589-66fc-4c65-830f-1dcc63bce8cc","","3007","","{""Q0"":1}","","[0]"
"","","","","","html-button-response","96","327242","0.0-70.0","A91B0F9930994607B4569F97F2E09FC1","A91B0F9930994607B4569F97F2E09FC1","482b5218-3edc-472b-9b88-fcc5c22569a4","54f8d589-66fc-4c65-830f-1dcc63bce8cc","{""participantId"":""A91B0F9930994607B4569F97F2E09FC1"",""assignmentId"":""482b5218-3edc-472b-9b88-fcc5c22569a4"",""projectId"":""54f8d589-66fc-4c65-830f-1dcc63bce8cc""}","https://test12345.live/?participantId=A91B0F9930994607B4569F97F2E09FC1&assignmentId=482b5218-3edc-472b-9b88-fcc5c22569a4&projectId=54f8d589-66fc-4c65-830f-1dcc63bce8cc","","1532","
    <div style=""display: flex; justify-content: center; align-items: center;"">
      <img src=""images/red_deck_2.png"" style=""width: 300px; height: 300px; margin-right: 10px;"" />
      <img src=""images/blue_deck_1.png"" style=""width: 300px; height: 300px;"" />
    </div>","1","1",""
"","","","","","html-keyboard-response","97","330247","0.0-72.0-0.0","A91B0F9930994607B4569F97F2E09FC1","A91B0F9930994607B4569F97F2E09FC1","482b5218-3edc-472b-9b88-fcc5c22569a4","54f8d589-66fc-4c65-830f-1dcc63bce8cc","{""participantId"":""A91B0F9930994607B4569F97F2E09FC1"",""assignmentId"":""482b5218-3edc-472b-9b88-fcc5c22569a4"",""projectId"":""54f8d589-66fc-4c65-830f-1dcc63bce8cc""}","https://test12345.live/?participantId=A91B0F9930994607B4569F97F2E09FC1&assignmentId=482b5218-3edc-472b-9b88-fcc5c22569a4&projectId=54f8d589-66fc-4c65-830f-1dcc63bce8cc","","null","<div style=""display: flex; justify-content: center; align-items: center;"">
                    <img src=""images/semantic/semantic_series_5/semantic_series_5_a.jpg"" style=""width: 300px; height: 300px;"" />
                  </div>","null","",""
"","","","","","html-keyboard-response","98","333250","0.0-72.0-1.0","A91B0F9930994607B4569F97F2E09FC1","A91B0F9930994607B4569F97F2E09FC1","482b5218-3edc-472b-9b88-fcc5c22569a4","54f8d589-66fc-4c65-830f-1dcc63bce8cc","{""participantId"":""A91B0F9930994607B4569F97F2E09FC1"",""assignmentId"":""482b5218-3edc-472b-9b88-fcc5c22569a4"",""projectId"":""54f8d589-66fc-4c65-830f-1dcc63bce8cc""}","https://test12345.live/?participantId=A91B0F9930994607B4569F97F2E09FC1&assignmentId=482b5218-3edc-472b-9b88-fcc5c22569a4&projectId=54f8d589-66fc-4c65-830f-1dcc63bce8cc","","null","<div style=""display: flex; justify-content: center; align-items: center;"">
                    <img src=""images/semantic/semantic_series_5/semantic_series_5_b.jpg"" style=""width: 300px; height: 300px;"" />
                  </div>","null","",""
"","","","","","html-keyboard-response","99","336266","0.0-72.0-2.0","A91B0F9930994607B4569F97F2E09FC1","A91B0F9930994607B4569F97F2E09FC1","482b5218-3edc-472b-9b88-fcc5c22569a4","54f8d589-66fc-4c65-830f-1dcc63bce8cc","{""participantId"":""A91B0F9930994607B4569F97F2E09FC1"",""assignmentId"":""482b5218-3edc-472b-9b88-fcc5c22569a4"",""projectId"":""54f8d589-66fc-4c65-830f-1dcc63bce8cc""}","https://test12345.live/?participantId=A91B0F9930994607B4569F97F2E09FC1&assignmentId=482b5218-3edc-472b-9b88-fcc5c22569a4&projectId=54f8d589-66fc-4c65-830f-1dcc63bce8cc","","null","<div style=""display: flex; justify-content: center; align-items: center;"">
                    <img src=""images/semantic/semantic_series_5/semantic_series_5_c.jpg"" style=""width: 300px; height: 300px;"" />
                  </div>","null","",""
"","","","","","html-keyboard-response","100","339270","0.0-72.0-3.0","A91B0F9930994607B4569F97F2E09FC1","A91B0F9930994607B4569F97F2E09FC1","482b5218-3edc-472b-9b88-fcc5c22569a4","54f8d589-66fc-4c65-830f-1dcc63bce8cc","{""participantId"":""A91B0F9930994607B4569F97F2E09FC1"",""assignmentId"":""482b5218-3edc-472b-9b88-fcc5c22569a4"",""projectId"":""54f8d589-66fc-4c65-830f-1dcc63bce8cc""}","https://test12345.live/?participantId=A91B0F9930994607B4569F97F2E09FC1&assignmentId=482b5218-3edc-472b-9b88-fcc5c22569a4&projectId=54f8d589-66fc-4c65-830f-1dcc63bce8cc","","null","<div style=""display: flex; justify-content: center; align-items: center;"">
                    <img src=""images/semantic/semantic_series_5/semantic_series_5_d.jpg"" style=""width: 300px; height: 300px;"" />
                  </div>","null","",""
"","","","","","html-button-response","101","340991","0.0-73.0","A91B0F9930994607B4569F97F2E09FC1","A91B0F9930994607B4569F97F2E09FC1","482b5218-3edc-472b-9b88-fcc5c22569a4","54f8d589-66fc-4c65-830f-1dcc63bce8cc","{""participantId"":""A91B0F9930994607B4569F97F2E09FC1"",""assignmentId"":""482b5218-3edc-472b-9b88-fcc5c22569a4"",""projectId"":""54f8d589-66fc-4c65-830f-1dcc63bce8cc""}","https://test12345.live/?participantId=A91B0F9930994607B4569F97F2E09FC1&assignmentId=482b5218-3edc-472b-9b88-fcc5c22569a4&projectId=54f8d589-66fc-4c65-830f-1dcc63bce8cc","","1720","Was there a person in the picture?","0","",""
"","","","","","survey-likert","102","344825","0.0-74.0","A91B0F9930994607B4569F97F2E09FC1","A91B0F9930994607B4569F97F2E09FC1","482b5218-3edc-472b-9b88-fcc5c22569a4","54f8d589-66fc-4c65-830f-1dcc63bce8cc","{""participantId"":""A91B0F9930994607B4569F97F2E09FC1"",""assignmentId"":""482b5218-3edc-472b-9b88-fcc5c22569a4"",""projectId"":""54f8d589-66fc-4c65-830f-1dcc63bce8cc""}","https://test12345.live/?participantId=A91B0F9930994607B4569F97F2E09FC1&assignmentId=482b5218-3edc-472b-9b88-fcc5c22569a4&projectId=54f8d589-66fc-4c65-830f-1dcc63bce8cc","","3832","","{""Q0"":1}","","[0]"
"","","","","","html-button-response","103","346746","0.0-75.0","A91B0F9930994607B4569F97F2E09FC1","A91B0F9930994607B4569F97F2E09FC1","482b5218-3edc-472b-9b88-fcc5c22569a4","54f8d589-66fc-4c65-830f-1dcc63bce8cc","{""participantId"":""A91B0F9930994607B4569F97F2E09FC1"",""assignmentId"":""482b5218-3edc-472b-9b88-fcc5c22569a4"",""projectId"":""54f8d589-66fc-4c65-830f-1dcc63bce8cc""}","https://test12345.live/?participantId=A91B0F9930994607B4569F97F2E09FC1&assignmentId=482b5218-3edc-472b-9b88-fcc5c22569a4&projectId=54f8d589-66fc-4c65-830f-1dcc63bce8cc","","1918","
    <div style=""display: flex; justify-content: center; align-items: center;"">
      <img src=""images/red_deck_2.png"" style=""width: 300px; height: 300px; margin-right: 10px;"" />
      <img src=""images/blue_deck_1.png"" style=""width: 300px; height: 300px;"" />
    </div>","1","1",""
"","","","","","html-keyboard-response","104","349756","0.0-77.0-0.0","A91B0F9930994607B4569F97F2E09FC1","A91B0F9930994607B4569F97F2E09FC1","482b5218-3edc-472b-9b88-fcc5c22569a4","54f8d589-66fc-4c65-830f-1dcc63bce8cc","{""participantId"":""A91B0F9930994607B4569F97F2E09FC1"",""assignmentId"":""482b5218-3edc-472b-9b88-fcc5c22569a4"",""projectId"":""54f8d589-66fc-4c65-830f-1dcc63bce8cc""}","https://test12345.live/?participantId=A91B0F9930994607B4569F97F2E09FC1&assignmentId=482b5218-3edc-472b-9b88-fcc5c22569a4&projectId=54f8d589-66fc-4c65-830f-1dcc63bce8cc","","null","<div style=""display: flex; justify-content: center; align-items: center;"">
                    <img src=""images/semantic/semantic_series_3/semantic_series_3_a.jpg"" style=""width: 300px; height: 300px;"" />
                  </div>","null","",""
"","","","","","html-keyboard-response","105","352760","0.0-77.0-1.0","A91B0F9930994607B4569F97F2E09FC1","A91B0F9930994607B4569F97F2E09FC1","482b5218-3edc-472b-9b88-fcc5c22569a4","54f8d589-66fc-4c65-830f-1dcc63bce8cc","{""participantId"":""A91B0F9930994607B4569F97F2E09FC1"",""assignmentId"":""482b5218-3edc-472b-9b88-fcc5c22569a4"",""projectId"":""54f8d589-66fc-4c65-830f-1dcc63bce8cc""}","https://test12345.live/?participantId=A91B0F9930994607B4569F97F2E09FC1&assignmentId=482b5218-3edc-472b-9b88-fcc5c22569a4&projectId=54f8d589-66fc-4c65-830f-1dcc63bce8cc","","null","<div style=""display: flex; justify-content: center; align-items: center;"">
                    <img src=""images/semantic/semantic_series_3/semantic_series_3_b.jpg"" style=""width: 300px; height: 300px;"" />
                  </div>","null","",""
"","","","","","html-keyboard-response","106","355764","0.0-77.0-2.0","A91B0F9930994607B4569F97F2E09FC1","A91B0F9930994607B4569F97F2E09FC1","482b5218-3edc-472b-9b88-fcc5c22569a4","54f8d589-66fc-4c65-830f-1dcc63bce8cc","{""participantId"":""A91B0F9930994607B4569F97F2E09FC1"",""assignmentId"":""482b5218-3edc-472b-9b88-fcc5c22569a4"",""projectId"":""54f8d589-66fc-4c65-830f-1dcc63bce8cc""}","https://test12345.live/?participantId=A91B0F9930994607B4569F97F2E09FC1&assignmentId=482b5218-3edc-472b-9b88-fcc5c22569a4&projectId=54f8d589-66fc-4c65-830f-1dcc63bce8cc","","null","<div style=""display: flex; justify-content: center; align-items: center;"">
                    <img src=""images/semantic/semantic_series_3/semantic_series_3_c.jpg"" style=""width: 300px; height: 300px;"" />
                  </div>","null","",""
"","","","","","html-keyboard-response","107","358774","0.0-77.0-3.0","A91B0F9930994607B4569F97F2E09FC1","A91B0F9930994607B4569F97F2E09FC1","482b5218-3edc-472b-9b88-fcc5c22569a4","54f8d589-66fc-4c65-830f-1dcc63bce8cc","{""participantId"":""A91B0F9930994607B4569F97F2E09FC1"",""assignmentId"":""482b5218-3edc-472b-9b88-fcc5c22569a4"",""projectId"":""54f8d589-66fc-4c65-830f-1dcc63bce8cc""}","https://test12345.live/?participantId=A91B0F9930994607B4569F97F2E09FC1&assignmentId=482b5218-3edc-472b-9b88-fcc5c22569a4&projectId=54f8d589-66fc-4c65-830f-1dcc63bce8cc","","null","<div style=""display: flex; justify-content: center; align-items: center;"">
                    <img src=""images/semantic/semantic_series_3/semantic_series_3_d.jpg"" style=""width: 300px; height: 300px;"" />
                  </div>","null","",""
"","","","","","html-button-response","108","360555","0.0-78.0","A91B0F9930994607B4569F97F2E09FC1","A91B0F9930994607B4569F97F2E09FC1","482b5218-3edc-472b-9b88-fcc5c22569a4","54f8d589-66fc-4c65-830f-1dcc63bce8cc","{""participantId"":""A91B0F9930994607B4569F97F2E09FC1"",""assignmentId"":""482b5218-3edc-472b-9b88-fcc5c22569a4"",""projectId"":""54f8d589-66fc-4c65-830f-1dcc63bce8cc""}","https://test12345.live/?participantId=A91B0F9930994607B4569F97F2E09FC1&assignmentId=482b5218-3edc-472b-9b88-fcc5c22569a4&projectId=54f8d589-66fc-4c65-830f-1dcc63bce8cc","","1779","Was there a person in the picture?","0","",""
"","","","","","survey-likert","109","365588","0.0-79.0","A91B0F9930994607B4569F97F2E09FC1","A91B0F9930994607B4569F97F2E09FC1","482b5218-3edc-472b-9b88-fcc5c22569a4","54f8d589-66fc-4c65-830f-1dcc63bce8cc","{""participantId"":""A91B0F9930994607B4569F97F2E09FC1"",""assignmentId"":""482b5218-3edc-472b-9b88-fcc5c22569a4"",""projectId"":""54f8d589-66fc-4c65-830f-1dcc63bce8cc""}","https://test12345.live/?participantId=A91B0F9930994607B4569F97F2E09FC1&assignmentId=482b5218-3edc-472b-9b88-fcc5c22569a4&projectId=54f8d589-66fc-4c65-830f-1dcc63bce8cc","","5030","","{""Q0"":1}","","[0]"
"","","","","","html-button-response","110","367449","0.0-80.0","A91B0F9930994607B4569F97F2E09FC1","A91B0F9930994607B4569F97F2E09FC1","482b5218-3edc-472b-9b88-fcc5c22569a4","54f8d589-66fc-4c65-830f-1dcc63bce8cc","{""participantId"":""A91B0F9930994607B4569F97F2E09FC1"",""assignmentId"":""482b5218-3edc-472b-9b88-fcc5c22569a4"",""projectId"":""54f8d589-66fc-4c65-830f-1dcc63bce8cc""}","https://test12345.live/?participantId=A91B0F9930994607B4569F97F2E09FC1&assignmentId=482b5218-3edc-472b-9b88-fcc5c22569a4&projectId=54f8d589-66fc-4c65-830f-1dcc63bce8cc","","1858","
    <div style=""display: flex; justify-content: center; align-items: center;"">
      <img src=""images/red_deck_2.png"" style=""width: 300px; height: 300px; margin-right: 10px;"" />
      <img src=""images/blue_deck_1.png"" style=""width: 300px; height: 300px;"" />
    </div>","1","1",""
"","","","","","html-keyboard-response","111","370459","0.0-82.0-0.0","A91B0F9930994607B4569F97F2E09FC1","A91B0F9930994607B4569F97F2E09FC1","482b5218-3edc-472b-9b88-fcc5c22569a4","54f8d589-66fc-4c65-830f-1dcc63bce8cc","{""participantId"":""A91B0F9930994607B4569F97F2E09FC1"",""assignmentId"":""482b5218-3edc-472b-9b88-fcc5c22569a4"",""projectId"":""54f8d589-66fc-4c65-830f-1dcc63bce8cc""}","https://test12345.live/?participantId=A91B0F9930994607B4569F97F2E09FC1&assignmentId=482b5218-3edc-472b-9b88-fcc5c22569a4&projectId=54f8d589-66fc-4c65-830f-1dcc63bce8cc","","null","<div style=""display: flex; justify-content: center; align-items: center;"">
                    <img src=""images/semantic/semantic_series_18/semantic_series_18_a.jpg"" style=""width: 300px; height: 300px;"" />
                  </div>","null","",""
"","","","","","html-keyboard-response","112","373462","0.0-82.0-1.0","A91B0F9930994607B4569F97F2E09FC1","A91B0F9930994607B4569F97F2E09FC1","482b5218-3edc-472b-9b88-fcc5c22569a4","54f8d589-66fc-4c65-830f-1dcc63bce8cc","{""participantId"":""A91B0F9930994607B4569F97F2E09FC1"",""assignmentId"":""482b5218-3edc-472b-9b88-fcc5c22569a4"",""projectId"":""54f8d589-66fc-4c65-830f-1dcc63bce8cc""}","https://test12345.live/?participantId=A91B0F9930994607B4569F97F2E09FC1&assignmentId=482b5218-3edc-472b-9b88-fcc5c22569a4&projectId=54f8d589-66fc-4c65-830f-1dcc63bce8cc","","null","<div style=""display: flex; justify-content: center; align-items: center;"">
                    <img src=""images/semantic/semantic_series_18/semantic_series_18_b.jpg"" style=""width: 300px; height: 300px;"" />
                  </div>","null","",""
"","","","","","html-keyboard-response","113","376472","0.0-82.0-2.0","A91B0F9930994607B4569F97F2E09FC1","A91B0F9930994607B4569F97F2E09FC1","482b5218-3edc-472b-9b88-fcc5c22569a4","54f8d589-66fc-4c65-830f-1dcc63bce8cc","{""participantId"":""A91B0F9930994607B4569F97F2E09FC1"",""assignmentId"":""482b5218-3edc-472b-9b88-fcc5c22569a4"",""projectId"":""54f8d589-66fc-4c65-830f-1dcc63bce8cc""}","https://test12345.live/?participantId=A91B0F9930994607B4569F97F2E09FC1&assignmentId=482b5218-3edc-472b-9b88-fcc5c22569a4&projectId=54f8d589-66fc-4c65-830f-1dcc63bce8cc","","null","<div style=""display: flex; justify-content: center; align-items: center;"">
                    <img src=""images/semantic/semantic_series_18/semantic_series_18_c.jpg"" style=""width: 300px; height: 300px;"" />
                  </div>","null","",""
"","","","","","html-keyboard-response","114","379486","0.0-82.0-3.0","A91B0F9930994607B4569F97F2E09FC1","A91B0F9930994607B4569F97F2E09FC1","482b5218-3edc-472b-9b88-fcc5c22569a4","54f8d589-66fc-4c65-830f-1dcc63bce8cc","{""participantId"":""A91B0F9930994607B4569F97F2E09FC1"",""assignmentId"":""482b5218-3edc-472b-9b88-fcc5c22569a4"",""projectId"":""54f8d589-66fc-4c65-830f-1dcc63bce8cc""}","https://test12345.live/?participantId=A91B0F9930994607B4569F97F2E09FC1&assignmentId=482b5218-3edc-472b-9b88-fcc5c22569a4&projectId=54f8d589-66fc-4c65-830f-1dcc63bce8cc","","null","<div style=""display: flex; justify-content: center; align-items: center;"">
                    <img src=""images/semantic/semantic_series_18/semantic_series_18_d.jpg"" style=""width: 300px; height: 300px;"" />
                  </div>","null","",""
"","","","","","html-button-response","115","381795","0.0-83.0","A91B0F9930994607B4569F97F2E09FC1","A91B0F9930994607B4569F97F2E09FC1","482b5218-3edc-472b-9b88-fcc5c22569a4","54f8d589-66fc-4c65-830f-1dcc63bce8cc","{""participantId"":""A91B0F9930994607B4569F97F2E09FC1"",""assignmentId"":""482b5218-3edc-472b-9b88-fcc5c22569a4"",""projectId"":""54f8d589-66fc-4c65-830f-1dcc63bce8cc""}","https://test12345.live/?participantId=A91B0F9930994607B4569F97F2E09FC1&assignmentId=482b5218-3edc-472b-9b88-fcc5c22569a4&projectId=54f8d589-66fc-4c65-830f-1dcc63bce8cc","","2307","Was there a person in the picture?","1","",""
"","","","","","survey-likert","116","385976","0.0-84.0","A91B0F9930994607B4569F97F2E09FC1","A91B0F9930994607B4569F97F2E09FC1","482b5218-3edc-472b-9b88-fcc5c22569a4","54f8d589-66fc-4c65-830f-1dcc63bce8cc","{""participantId"":""A91B0F9930994607B4569F97F2E09FC1"",""assignmentId"":""482b5218-3edc-472b-9b88-fcc5c22569a4"",""projectId"":""54f8d589-66fc-4c65-830f-1dcc63bce8cc""}","https://test12345.live/?participantId=A91B0F9930994607B4569F97F2E09FC1&assignmentId=482b5218-3edc-472b-9b88-fcc5c22569a4&projectId=54f8d589-66fc-4c65-830f-1dcc63bce8cc","","4179","","{""Q0"":2}","","[0]"
"","","","","","html-button-response","117","392643","0.0-85.0","A91B0F9930994607B4569F97F2E09FC1","A91B0F9930994607B4569F97F2E09FC1","482b5218-3edc-472b-9b88-fcc5c22569a4","54f8d589-66fc-4c65-830f-1dcc63bce8cc","{""participantId"":""A91B0F9930994607B4569F97F2E09FC1"",""assignmentId"":""482b5218-3edc-472b-9b88-fcc5c22569a4"",""projectId"":""54f8d589-66fc-4c65-830f-1dcc63bce8cc""}","https://test12345.live/?participantId=A91B0F9930994607B4569F97F2E09FC1&assignmentId=482b5218-3edc-472b-9b88-fcc5c22569a4&projectId=54f8d589-66fc-4c65-830f-1dcc63bce8cc","","6664","
    <div style=""display: flex; justify-content: center; align-items: center;"">
      <img src=""images/red_deck_2.png"" style=""width: 300px; height: 300px; margin-right: 10px;"" />
      <img src=""images/blue_deck_1.png"" style=""width: 300px; height: 300px;"" />
    </div>","1","1",""
"","","","","","html-keyboard-response","118","395659","0.0-87.0-0.0","A91B0F9930994607B4569F97F2E09FC1","A91B0F9930994607B4569F97F2E09FC1","482b5218-3edc-472b-9b88-fcc5c22569a4","54f8d589-66fc-4c65-830f-1dcc63bce8cc","{""participantId"":""A91B0F9930994607B4569F97F2E09FC1"",""assignmentId"":""482b5218-3edc-472b-9b88-fcc5c22569a4"",""projectId"":""54f8d589-66fc-4c65-830f-1dcc63bce8cc""}","https://test12345.live/?participantId=A91B0F9930994607B4569F97F2E09FC1&assignmentId=482b5218-3edc-472b-9b88-fcc5c22569a4&projectId=54f8d589-66fc-4c65-830f-1dcc63bce8cc","","null","<div style=""display: flex; justify-content: center; align-items: center;"">
                    <img src=""images/semantic/semantic_series_12/semantic_series_12_a.jpg"" style=""width: 300px; height: 300px;"" />
                  </div>","null","",""
"","","","","","html-keyboard-response","119","398663","0.0-87.0-1.0","A91B0F9930994607B4569F97F2E09FC1","A91B0F9930994607B4569F97F2E09FC1","482b5218-3edc-472b-9b88-fcc5c22569a4","54f8d589-66fc-4c65-830f-1dcc63bce8cc","{""participantId"":""A91B0F9930994607B4569F97F2E09FC1"",""assignmentId"":""482b5218-3edc-472b-9b88-fcc5c22569a4"",""projectId"":""54f8d589-66fc-4c65-830f-1dcc63bce8cc""}","https://test12345.live/?participantId=A91B0F9930994607B4569F97F2E09FC1&assignmentId=482b5218-3edc-472b-9b88-fcc5c22569a4&projectId=54f8d589-66fc-4c65-830f-1dcc63bce8cc","","null","<div style=""display: flex; justify-content: center; align-items: center;"">
                    <img src=""images/semantic/semantic_series_12/semantic_series_12_b.jpg"" style=""width: 300px; height: 300px;"" />
                  </div>","null","",""
"","","","","","html-keyboard-response","120","401680","0.0-87.0-2.0","A91B0F9930994607B4569F97F2E09FC1","A91B0F9930994607B4569F97F2E09FC1","482b5218-3edc-472b-9b88-fcc5c22569a4","54f8d589-66fc-4c65-830f-1dcc63bce8cc","{""participantId"":""A91B0F9930994607B4569F97F2E09FC1"",""assignmentId"":""482b5218-3edc-472b-9b88-fcc5c22569a4"",""projectId"":""54f8d589-66fc-4c65-830f-1dcc63bce8cc""}","https://test12345.live/?participantId=A91B0F9930994607B4569F97F2E09FC1&assignmentId=482b5218-3edc-472b-9b88-fcc5c22569a4&projectId=54f8d589-66fc-4c65-830f-1dcc63bce8cc","","null","<div style=""display: flex; justify-content: center; align-items: center;"">
                    <img src=""images/semantic/semantic_series_12/semantic_series_12_c.jpg"" style=""width: 300px; height: 300px;"" />
                  </div>","null","",""
"","","","","","html-keyboard-response","121","404691","0.0-87.0-3.0","A91B0F9930994607B4569F97F2E09FC1","A91B0F9930994607B4569F97F2E09FC1","482b5218-3edc-472b-9b88-fcc5c22569a4","54f8d589-66fc-4c65-830f-1dcc63bce8cc","{""participantId"":""A91B0F9930994607B4569F97F2E09FC1"",""assignmentId"":""482b5218-3edc-472b-9b88-fcc5c22569a4"",""projectId"":""54f8d589-66fc-4c65-830f-1dcc63bce8cc""}","https://test12345.live/?participantId=A91B0F9930994607B4569F97F2E09FC1&assignmentId=482b5218-3edc-472b-9b88-fcc5c22569a4&projectId=54f8d589-66fc-4c65-830f-1dcc63bce8cc","","null","<div style=""display: flex; justify-content: center; align-items: center;"">
                    <img src=""images/semantic/semantic_series_12/semantic_series_12_d.jpg"" style=""width: 300px; height: 300px;"" />
                  </div>","null","",""
"","","","","","html-button-response","122","410442","0.0-88.0","A91B0F9930994607B4569F97F2E09FC1","A91B0F9930994607B4569F97F2E09FC1","482b5218-3edc-472b-9b88-fcc5c22569a4","54f8d589-66fc-4c65-830f-1dcc63bce8cc","{""participantId"":""A91B0F9930994607B4569F97F2E09FC1"",""assignmentId"":""482b5218-3edc-472b-9b88-fcc5c22569a4"",""projectId"":""54f8d589-66fc-4c65-830f-1dcc63bce8cc""}","https://test12345.live/?participantId=A91B0F9930994607B4569F97F2E09FC1&assignmentId=482b5218-3edc-472b-9b88-fcc5c22569a4&projectId=54f8d589-66fc-4c65-830f-1dcc63bce8cc","","5750","Was there a person in the picture?","1","",""
"","","","","","survey-likert","123","413154","0.0-89.0","A91B0F9930994607B4569F97F2E09FC1","A91B0F9930994607B4569F97F2E09FC1","482b5218-3edc-472b-9b88-fcc5c22569a4","54f8d589-66fc-4c65-830f-1dcc63bce8cc","{""participantId"":""A91B0F9930994607B4569F97F2E09FC1"",""assignmentId"":""482b5218-3edc-472b-9b88-fcc5c22569a4"",""projectId"":""54f8d589-66fc-4c65-830f-1dcc63bce8cc""}","https://test12345.live/?participantId=A91B0F9930994607B4569F97F2E09FC1&assignmentId=482b5218-3edc-472b-9b88-fcc5c22569a4&projectId=54f8d589-66fc-4c65-830f-1dcc63bce8cc","","2710","","{""Q0"":1}","","[0]"
"","","","","","html-button-response","124","414605","0.0-90.0","A91B0F9930994607B4569F97F2E09FC1","A91B0F9930994607B4569F97F2E09FC1","482b5218-3edc-472b-9b88-fcc5c22569a4","54f8d589-66fc-4c65-830f-1dcc63bce8cc","{""participantId"":""A91B0F9930994607B4569F97F2E09FC1"",""assignmentId"":""482b5218-3edc-472b-9b88-fcc5c22569a4"",""projectId"":""54f8d589-66fc-4c65-830f-1dcc63bce8cc""}","https://test12345.live/?participantId=A91B0F9930994607B4569F97F2E09FC1&assignmentId=482b5218-3edc-472b-9b88-fcc5c22569a4&projectId=54f8d589-66fc-4c65-830f-1dcc63bce8cc","","1448","
    <div style=""display: flex; justify-content: center; align-items: center;"">
      <img src=""images/red_deck_2.png"" style=""width: 300px; height: 300px; margin-right: 10px;"" />
      <img src=""images/blue_deck_1.png"" style=""width: 300px; height: 300px;"" />
    </div>","1","1",""
"","","","","","html-keyboard-response","125","417615","0.0-92.0-0.0","A91B0F9930994607B4569F97F2E09FC1","A91B0F9930994607B4569F97F2E09FC1","482b5218-3edc-472b-9b88-fcc5c22569a4","54f8d589-66fc-4c65-830f-1dcc63bce8cc","{""participantId"":""A91B0F9930994607B4569F97F2E09FC1"",""assignmentId"":""482b5218-3edc-472b-9b88-fcc5c22569a4"",""projectId"":""54f8d589-66fc-4c65-830f-1dcc63bce8cc""}","https://test12345.live/?participantId=A91B0F9930994607B4569F97F2E09FC1&assignmentId=482b5218-3edc-472b-9b88-fcc5c22569a4&projectId=54f8d589-66fc-4c65-830f-1dcc63bce8cc","","null","<div style=""display: flex; justify-content: center; align-items: center;"">
                    <img src=""images/semantic/semantic_series_17/semantic_series_17_a.jpg"" style=""width: 300px; height: 300px;"" />
                  </div>","null","",""
"","","","","","html-keyboard-response","126","420617","0.0-92.0-1.0","A91B0F9930994607B4569F97F2E09FC1","A91B0F9930994607B4569F97F2E09FC1","482b5218-3edc-472b-9b88-fcc5c22569a4","54f8d589-66fc-4c65-830f-1dcc63bce8cc","{""participantId"":""A91B0F9930994607B4569F97F2E09FC1"",""assignmentId"":""482b5218-3edc-472b-9b88-fcc5c22569a4"",""projectId"":""54f8d589-66fc-4c65-830f-1dcc63bce8cc""}","https://test12345.live/?participantId=A91B0F9930994607B4569F97F2E09FC1&assignmentId=482b5218-3edc-472b-9b88-fcc5c22569a4&projectId=54f8d589-66fc-4c65-830f-1dcc63bce8cc","","null","<div style=""display: flex; justify-content: center; align-items: center;"">
                    <img src=""images/semantic/semantic_series_17/semantic_series_17_b.jpg"" style=""width: 300px; height: 300px;"" />
                  </div>","null","",""
"","","","","","html-keyboard-response","127","423631","0.0-92.0-2.0","A91B0F9930994607B4569F97F2E09FC1","A91B0F9930994607B4569F97F2E09FC1","482b5218-3edc-472b-9b88-fcc5c22569a4","54f8d589-66fc-4c65-830f-1dcc63bce8cc","{""participantId"":""A91B0F9930994607B4569F97F2E09FC1"",""assignmentId"":""482b5218-3edc-472b-9b88-fcc5c22569a4"",""projectId"":""54f8d589-66fc-4c65-830f-1dcc63bce8cc""}","https://test12345.live/?participantId=A91B0F9930994607B4569F97F2E09FC1&assignmentId=482b5218-3edc-472b-9b88-fcc5c22569a4&projectId=54f8d589-66fc-4c65-830f-1dcc63bce8cc","","null","<div style=""display: flex; justify-content: center; align-items: center;"">
                    <img src=""images/semantic/semantic_series_17/semantic_series_17_c.jpg"" style=""width: 300px; height: 300px;"" />
                  </div>","null","",""
"","","","","","html-keyboard-response","128","426643","0.0-92.0-3.0","A91B0F9930994607B4569F97F2E09FC1","A91B0F9930994607B4569F97F2E09FC1","482b5218-3edc-472b-9b88-fcc5c22569a4","54f8d589-66fc-4c65-830f-1dcc63bce8cc","{""participantId"":""A91B0F9930994607B4569F97F2E09FC1"",""assignmentId"":""482b5218-3edc-472b-9b88-fcc5c22569a4"",""projectId"":""54f8d589-66fc-4c65-830f-1dcc63bce8cc""}","https://test12345.live/?participantId=A91B0F9930994607B4569F97F2E09FC1&assignmentId=482b5218-3edc-472b-9b88-fcc5c22569a4&projectId=54f8d589-66fc-4c65-830f-1dcc63bce8cc","","null","<div style=""display: flex; justify-content: center; align-items: center;"">
                    <img src=""images/semantic/semantic_series_17/semantic_series_17_d.jpg"" style=""width: 300px; height: 300px;"" />
                  </div>","null","",""
"","","","","","html-button-response","129","428313","0.0-93.0","A91B0F9930994607B4569F97F2E09FC1","A91B0F9930994607B4569F97F2E09FC1","482b5218-3edc-472b-9b88-fcc5c22569a4","54f8d589-66fc-4c65-830f-1dcc63bce8cc","{""participantId"":""A91B0F9930994607B4569F97F2E09FC1"",""assignmentId"":""482b5218-3edc-472b-9b88-fcc5c22569a4"",""projectId"":""54f8d589-66fc-4c65-830f-1dcc63bce8cc""}","https://test12345.live/?participantId=A91B0F9930994607B4569F97F2E09FC1&assignmentId=482b5218-3edc-472b-9b88-fcc5c22569a4&projectId=54f8d589-66fc-4c65-830f-1dcc63bce8cc","","1669","Was there a person in the picture?","0","",""
"","","","","","survey-likert","130","431239","0.0-94.0","A91B0F9930994607B4569F97F2E09FC1","A91B0F9930994607B4569F97F2E09FC1","482b5218-3edc-472b-9b88-fcc5c22569a4","54f8d589-66fc-4c65-830f-1dcc63bce8cc","{""participantId"":""A91B0F9930994607B4569F97F2E09FC1"",""assignmentId"":""482b5218-3edc-472b-9b88-fcc5c22569a4"",""projectId"":""54f8d589-66fc-4c65-830f-1dcc63bce8cc""}","https://test12345.live/?participantId=A91B0F9930994607B4569F97F2E09FC1&assignmentId=482b5218-3edc-472b-9b88-fcc5c22569a4&projectId=54f8d589-66fc-4c65-830f-1dcc63bce8cc","","2923","","{""Q0"":1}","","[0]"
"","","","","","survey-text","131","443884","0.0-95.0","A91B0F9930994607B4569F97F2E09FC1","A91B0F9930994607B4569F97F2E09FC1","482b5218-3edc-472b-9b88-fcc5c22569a4","54f8d589-66fc-4c65-830f-1dcc63bce8cc","{""participantId"":""A91B0F9930994607B4569F97F2E09FC1"",""assignmentId"":""482b5218-3edc-472b-9b88-fcc5c22569a4"",""projectId"":""54f8d589-66fc-4c65-830f-1dcc63bce8cc""}","https://test12345.live/?participantId=A91B0F9930994607B4569F97F2E09FC1&assignmentId=482b5218-3edc-472b-9b88-fcc5c22569a4&projectId=54f8d589-66fc-4c65-830f-1dcc63bce8cc","","12635","","{""Q0"":""I only drew from the blue deck""}","",""
