"success","timeout","failed_images","failed_audio","failed_video","trial_type","trial_index","time_elapsed","internal_node_id","subject","subject_id","study_id","session_id","urlvar","current_url","view_history","rt","stimulus","response","choice","question_order"
"true","false","[]","[]","[]","preload","0","607","0.0-0.0","54C623ACD50642A191E4537D31300E03","54C623ACD50642A191E4537D31300E03","00202051-9ab9-48b0-8cbe-2998d713deaa","54f8d589-66fc-4c65-830f-1dcc63bce8cc","{""participantId"":""54C623ACD50642A191E4537D31300E03"",""assignmentId"":""00202051-9ab9-48b0-8cbe-2998d713deaa"",""projectId"":""54f8d589-66fc-4c65-830f-1dcc63bce8cc""}","https://test12345.live/?participantId=54C623ACD50642A191E4537D31300E03&assignmentId=00202051-9ab9-48b0-8cbe-2998d713deaa&projectId=54f8d589-66fc-4c65-830f-1dcc63bce8cc","","","","","",""
"","","","","","instructions","1","19136","0.0-1.0","54C623ACD50642A191E4537D31300E03","54C623ACD50642A191E4537D31300E03","00202051-9ab9-48b0-8cbe-2998d713deaa","54f8d589-66fc-4c65-830f-1dcc63bce8cc","{""participantId"":""54C623ACD50642A191E4537D31300E03"",""assignmentId"":""00202051-9ab9-48b0-8cbe-2998d713deaa"",""projectId"":""54f8d589-66fc-4c65-830f-1dcc63bce8cc""}","https://test12345.live/?participantId=54C623ACD50642A191E4537D31300E03&assignmentId=00202051-9ab9-48b0-8cbe-2998d713deaa&projectId=54f8d589-66fc-4c65-830f-1dcc63bce8cc","[{""page_index"":0,""viewing_time"":18528}]","18528","","","",""
"","","","","","instructions","2","47180","0.0-2.0","54C623ACD50642A191E4537D31300E03","54C623ACD50642A191E4537D31300E03","00202051-9ab9-48b0-8cbe-2998d713deaa","54f8d589-66fc-4c65-830f-1dcc63bce8cc","{""participantId"":""54C623ACD50642A191E4537D31300E03"",""assignmentId"":""00202051-9ab9-48b0-8cbe-2998d713deaa"",""projectId"":""54f8d589-66fc-4c65-830f-1dcc63bce8cc""}","https://test12345.live/?participantId=54C623ACD50642A191E4537D31300E03&assignmentId=00202051-9ab9-48b0-8cbe-2998d713deaa&projectId=54f8d589-66fc-4c65-830f-1dcc63bce8cc","[{""page_index"":0,""viewing_time"":28043}]","28043","","","",""
"true","","","","","fullscreen","3","52349","0.0-3.0","54C623ACD50642A191E4537D31300E03","54C623ACD50642A191E4537D31300E03","00202051-9ab9-48b0-8cbe-2998d713deaa","54f8d589-66fc-4c65-830f-1dcc63bce8cc","{""participantId"":""54C623ACD50642A191E4537D31300E03"",""assignmentId"":""00202051-9ab9-48b0-8cbe-2998d713deaa"",""projectId"":""54f8d589-66fc-4c65-830f-1dcc63bce8cc""}","https://test12345.live/?participantId=54C623ACD50642A191E4537D31300E03&assignmentId=00202051-9ab9-48b0-8cbe-2998d713deaa&projectId=54f8d589-66fc-4c65-830f-1dcc63bce8cc","","4156","","","",""
"","","","","","instructions","4","69550","0.0-4.0","54C623ACD50642A191E4537D31300E03","54C623ACD50642A191E4537D31300E03","00202051-9ab9-48b0-8cbe-2998d713deaa","54f8d589-66fc-4c65-830f-1dcc63bce8cc","{""participantId"":""54C623ACD50642A191E4537D31300E03"",""assignmentId"":""00202051-9ab9-48b0-8cbe-2998d713deaa"",""projectId"":""54f8d589-66fc-4c65-830f-1dcc63bce8cc""}","https://test12345.live/?participantId=54C623ACD50642A191E4537D31300E03&assignmentId=00202051-9ab9-48b0-8cbe-2998d713deaa&projectId=54f8d589-66fc-4c65-830f-1dcc63bce8cc","[{""page_index"":0,""viewing_time"":17200}]","17200","","","",""
"","","","","","html-button-response","5","78152","0.0-5.0","54C623ACD50642A191E4537D31300E03","54C623ACD50642A191E4537D31300E03","00202051-9ab9-48b0-8cbe-2998d713deaa","54f8d589-66fc-4c65-830f-1dcc63bce8cc","{""participantId"":""54C623ACD50642A191E4537D31300E03"",""assignmentId"":""00202051-9ab9-48b0-8cbe-2998d713deaa"",""projectId"":""54f8d589-66fc-4c65-830f-1dcc63bce8cc""}","https://test12345.live/?participantId=54C623ACD50642A191E4537D31300E03&assignmentId=00202051-9ab9-48b0-8cbe-2998d713deaa&projectId=54f8d589-66fc-4c65-830f-1dcc63bce8cc","","8601","
    <div style=""display: flex; justify-content: center; align-items: center;"">
      <img src=""images/red_deck_2.png"" style=""width: 300px; height: 300px; margin-right: 10px;"" />
      <img src=""images/blue_deck_1.png"" style=""width: 300px; height: 300px;"" />
    </div>","1","1",""
"","","","","","html-keyboard-response","6","81161","0.0-7.0-0.0","54C623ACD50642A191E4537D31300E03","54C623ACD50642A191E4537D31300E03","00202051-9ab9-48b0-8cbe-2998d713deaa","54f8d589-66fc-4c65-830f-1dcc63bce8cc","{""participantId"":""54C623ACD50642A191E4537D31300E03"",""assignmentId"":""00202051-9ab9-48b0-8cbe-2998d713deaa"",""projectId"":""54f8d589-66fc-4c65-830f-1dcc63bce8cc""}","https://test12345.live/?participantId=54C623ACD50642A191E4537D31300E03&assignmentId=00202051-9ab9-48b0-8cbe-2998d713deaa&projectId=54f8d589-66fc-4c65-830f-1dcc63bce8cc","","null","<div style=""display: flex; justify-content: center; align-items: center;"">
                    <img src=""images/semantic/semantic_series_15/semantic_series_15_a.jpg"" style=""width: 300px; height: 300px;"" />
                  </div>","null","",""
"","","","","","html-keyboard-response","7","84177","0.0-7.0-1.0","54C623ACD50642A191E4537D31300E03","54C623ACD50642A191E4537D31300E03","00202051-9ab9-48b0-8cbe-2998d713deaa","54f8d589-66fc-4c65-830f-1dcc63bce8cc","{""participantId"":""54C623ACD50642A191E4537D31300E03"",""assignmentId"":""00202051-9ab9-48b0-8cbe-2998d713deaa"",""projectId"":""54f8d589-66fc-4c65-830f-1dcc63bce8cc""}","https://test12345.live/?participantId=54C623ACD50642A191E4537D31300E03&assignmentId=00202051-9ab9-48b0-8cbe-2998d713deaa&projectId=54f8d589-66fc-4c65-830f-1dcc63bce8cc","","null","<div style=""display: flex; justify-content: center; align-items: center;"">
                    <img src=""images/semantic/semantic_series_15/semantic_series_15_b.jpg"" style=""width: 300px; height: 300px;"" />
                  </div>","null","",""
"","","","","","html-keyboard-response","8","87190","0.0-7.0-2.0","54C623ACD50642A191E4537D31300E03","54C623ACD50642A191E4537D31300E03","00202051-9ab9-48b0-8cbe-2998d713deaa","54f8d589-66fc-4c65-830f-1dcc63bce8cc","{""participantId"":""54C623ACD50642A191E4537D31300E03"",""assignmentId"":""00202051-9ab9-48b0-8cbe-2998d713deaa"",""projectId"":""54f8d589-66fc-4c65-830f-1dcc63bce8cc""}","https://test12345.live/?participantId=54C623ACD50642A191E4537D31300E03&assignmentId=00202051-9ab9-48b0-8cbe-2998d713deaa&projectId=54f8d589-66fc-4c65-830f-1dcc63bce8cc","","null","<div style=""display: flex; justify-content: center; align-items: center;"">
                    <img src=""images/semantic/semantic_series_15/semantic_series_15_c.jpg"" style=""width: 300px; height: 300px;"" />
                  </div>","null","",""
"","","","","","html-keyboard-response","9","90203","0.0-7.0-3.0","54C623ACD50642A191E4537D31300E03","54C623ACD50642A191E4537D31300E03","00202051-9ab9-48b0-8cbe-2998d713deaa","54f8d589-66fc-4c65-830f-1dcc63bce8cc","{""participantId"":""54C623ACD50642A191E4537D31300E03"",""assignmentId"":""00202051-9ab9-48b0-8cbe-2998d713deaa"",""projectId"":""54f8d589-66fc-4c65-830f-1dcc63bce8cc""}","https://test12345.live/?participantId=54C623ACD50642A191E4537D31300E03&assignmentId=00202051-9ab9-48b0-8cbe-2998d713deaa&projectId=54f8d589-66fc-4c65-830f-1dcc63bce8cc","","null","<div style=""display: flex; justify-content: center; align-items: center;"">
                    <img src=""images/semantic/semantic_series_15/semantic_series_15_d.jpg"" style=""width: 300px; height: 300px;"" />
                  </div>","null","",""
"","","","","","html-button-response","10","92126","0.0-8.0","54C623ACD50642A191E4537D31300E03","54C623ACD50642A191E4537D31300E03","00202051-9ab9-48b0-8cbe-2998d713deaa","54f8d589-66fc-4c65-830f-1dcc63bce8cc","{""participantId"":""54C623ACD50642A191E4537D31300E03"",""assignmentId"":""00202051-9ab9-48b0-8cbe-2998d713deaa"",""projectId"":""54f8d589-66fc-4c65-830f-1dcc63bce8cc""}","https://test12345.live/?participantId=54C623ACD50642A191E4537D31300E03&assignmentId=00202051-9ab9-48b0-8cbe-2998d713deaa&projectId=54f8d589-66fc-4c65-830f-1dcc63bce8cc","","1923","Was there a person in the picture?","1","",""
"","","","","","survey-likert","11","100804","0.0-9.0","54C623ACD50642A191E4537D31300E03","54C623ACD50642A191E4537D31300E03","00202051-9ab9-48b0-8cbe-2998d713deaa","54f8d589-66fc-4c65-830f-1dcc63bce8cc","{""participantId"":""54C623ACD50642A191E4537D31300E03"",""assignmentId"":""00202051-9ab9-48b0-8cbe-2998d713deaa"",""projectId"":""54f8d589-66fc-4c65-830f-1dcc63bce8cc""}","https://test12345.live/?participantId=54C623ACD50642A191E4537D31300E03&assignmentId=00202051-9ab9-48b0-8cbe-2998d713deaa&projectId=54f8d589-66fc-4c65-830f-1dcc63bce8cc","","8677","","{""Q0"":2}","","[0]"
"","","","","","html-button-response","12","107422","0.0-10.0","54C623ACD50642A191E4537D31300E03","54C623ACD50642A191E4537D31300E03","00202051-9ab9-48b0-8cbe-2998d713deaa","54f8d589-66fc-4c65-830f-1dcc63bce8cc","{""participantId"":""54C623ACD50642A191E4537D31300E03"",""assignmentId"":""00202051-9ab9-48b0-8cbe-2998d713deaa"",""projectId"":""54f8d589-66fc-4c65-830f-1dcc63bce8cc""}","https://test12345.live/?participantId=54C623ACD50642A191E4537D31300E03&assignmentId=00202051-9ab9-48b0-8cbe-2998d713deaa&projectId=54f8d589-66fc-4c65-830f-1dcc63bce8cc","","6616","
    <div style=""display: flex; justify-content: center; align-items: center;"">
      <img src=""images/red_deck_2.png"" style=""width: 300px; height: 300px; margin-right: 10px;"" />
      <img src=""images/blue_deck_1.png"" style=""width: 300px; height: 300px;"" />
    </div>","0","0",""
"","","","","","html-keyboard-response","13","110435","0.0-11.0-0.0","54C623ACD50642A191E4537D31300E03","54C623ACD50642A191E4537D31300E03","00202051-9ab9-48b0-8cbe-2998d713deaa","54f8d589-66fc-4c65-830f-1dcc63bce8cc","{""participantId"":""54C623ACD50642A191E4537D31300E03"",""assignmentId"":""00202051-9ab9-48b0-8cbe-2998d713deaa"",""projectId"":""54f8d589-66fc-4c65-830f-1dcc63bce8cc""}","https://test12345.live/?participantId=54C623ACD50642A191E4537D31300E03&assignmentId=00202051-9ab9-48b0-8cbe-2998d713deaa&projectId=54f8d589-66fc-4c65-830f-1dcc63bce8cc","","null","<div style=""display: flex; justify-content: center; align-items: center;"">
                    <img src=""images/causal/causal_series_14/causal_series_14_a.jpg"" style=""width: 300px; height: 300px;"" />
                  </div>","null","",""
"","","","","","html-keyboard-response","14","113437","0.0-11.0-1.0","54C623ACD50642A191E4537D31300E03","54C623ACD50642A191E4537D31300E03","00202051-9ab9-48b0-8cbe-2998d713deaa","54f8d589-66fc-4c65-830f-1dcc63bce8cc","{""participantId"":""54C623ACD50642A191E4537D31300E03"",""assignmentId"":""00202051-9ab9-48b0-8cbe-2998d713deaa"",""projectId"":""54f8d589-66fc-4c65-830f-1dcc63bce8cc""}","https://test12345.live/?participantId=54C623ACD50642A191E4537D31300E03&assignmentId=00202051-9ab9-48b0-8cbe-2998d713deaa&projectId=54f8d589-66fc-4c65-830f-1dcc63bce8cc","","null","<div style=""display: flex; justify-content: center; align-items: center;"">
                    <img src=""images/causal/causal_series_14/causal_series_14_b.jpg"" style=""width: 300px; height: 300px;"" />
                  </div>","null","",""
"","","","","","html-keyboard-response","15","116443","0.0-11.0-2.0","54C623ACD50642A191E4537D31300E03","54C623ACD50642A191E4537D31300E03","00202051-9ab9-48b0-8cbe-2998d713deaa","54f8d589-66fc-4c65-830f-1dcc63bce8cc","{""participantId"":""54C623ACD50642A191E4537D31300E03"",""assignmentId"":""00202051-9ab9-48b0-8cbe-2998d713deaa"",""projectId"":""54f8d589-66fc-4c65-830f-1dcc63bce8cc""}","https://test12345.live/?participantId=54C623ACD50642A191E4537D31300E03&assignmentId=00202051-9ab9-48b0-8cbe-2998d713deaa&projectId=54f8d589-66fc-4c65-830f-1dcc63bce8cc","","null","<div style=""display: flex; justify-content: center; align-items: center;"">
                    <img src=""images/causal/causal_series_14/causal_series_14_c.jpg"" style=""width: 300px; height: 300px;"" />
                  </div>","null","",""
"","","","","","html-keyboard-response","16","119456","0.0-11.0-3.0","54C623ACD50642A191E4537D31300E03","54C623ACD50642A191E4537D31300E03","00202051-9ab9-48b0-8cbe-2998d713deaa","54f8d589-66fc-4c65-830f-1dcc63bce8cc","{""participantId"":""54C623ACD50642A191E4537D31300E03"",""assignmentId"":""00202051-9ab9-48b0-8cbe-2998d713deaa"",""projectId"":""54f8d589-66fc-4c65-830f-1dcc63bce8cc""}","https://test12345.live/?participantId=54C623ACD50642A191E4537D31300E03&assignmentId=00202051-9ab9-48b0-8cbe-2998d713deaa&projectId=54f8d589-66fc-4c65-830f-1dcc63bce8cc","","null","<div style=""display: flex; justify-content: center; align-items: center;"">
                    <img src=""images/causal/causal_series_14/causal_series_14_d.jpg"" style=""width: 300px; height: 300px;"" />
                  </div>","null","",""
"","","","","","html-button-response","17","121157","0.0-13.0","54C623ACD50642A191E4537D31300E03","54C623ACD50642A191E4537D31300E03","00202051-9ab9-48b0-8cbe-2998d713deaa","54f8d589-66fc-4c65-830f-1dcc63bce8cc","{""participantId"":""54C623ACD50642A191E4537D31300E03"",""assignmentId"":""00202051-9ab9-48b0-8cbe-2998d713deaa"",""projectId"":""54f8d589-66fc-4c65-830f-1dcc63bce8cc""}","https://test12345.live/?participantId=54C623ACD50642A191E4537D31300E03&assignmentId=00202051-9ab9-48b0-8cbe-2998d713deaa&projectId=54f8d589-66fc-4c65-830f-1dcc63bce8cc","","1700","Was there a person in the picture?","0","",""
"","","","","","survey-likert","18","129488","0.0-14.0","54C623ACD50642A191E4537D31300E03","54C623ACD50642A191E4537D31300E03","00202051-9ab9-48b0-8cbe-2998d713deaa","54f8d589-66fc-4c65-830f-1dcc63bce8cc","{""participantId"":""54C623ACD50642A191E4537D31300E03"",""assignmentId"":""00202051-9ab9-48b0-8cbe-2998d713deaa"",""projectId"":""54f8d589-66fc-4c65-830f-1dcc63bce8cc""}","https://test12345.live/?participantId=54C623ACD50642A191E4537D31300E03&assignmentId=00202051-9ab9-48b0-8cbe-2998d713deaa&projectId=54f8d589-66fc-4c65-830f-1dcc63bce8cc","","8331","","{""Q0"":3}","","[0]"
"","","","","","html-button-response","19","131346","0.0-15.0","54C623ACD50642A191E4537D31300E03","54C623ACD50642A191E4537D31300E03","00202051-9ab9-48b0-8cbe-2998d713deaa","54f8d589-66fc-4c65-830f-1dcc63bce8cc","{""participantId"":""54C623ACD50642A191E4537D31300E03"",""assignmentId"":""00202051-9ab9-48b0-8cbe-2998d713deaa"",""projectId"":""54f8d589-66fc-4c65-830f-1dcc63bce8cc""}","https://test12345.live/?participantId=54C623ACD50642A191E4537D31300E03&assignmentId=00202051-9ab9-48b0-8cbe-2998d713deaa&projectId=54f8d589-66fc-4c65-830f-1dcc63bce8cc","","1856","
    <div style=""display: flex; justify-content: center; align-items: center;"">
      <img src=""images/red_deck_2.png"" style=""width: 300px; height: 300px; margin-right: 10px;"" />
      <img src=""images/blue_deck_1.png"" style=""width: 300px; height: 300px;"" />
    </div>","1","1",""
"","","","","","html-keyboard-response","20","134347","0.0-17.0-0.0","54C623ACD50642A191E4537D31300E03","54C623ACD50642A191E4537D31300E03","00202051-9ab9-48b0-8cbe-2998d713deaa","54f8d589-66fc-4c65-830f-1dcc63bce8cc","{""participantId"":""54C623ACD50642A191E4537D31300E03"",""assignmentId"":""00202051-9ab9-48b0-8cbe-2998d713deaa"",""projectId"":""54f8d589-66fc-4c65-830f-1dcc63bce8cc""}","https://test12345.live/?participantId=54C623ACD50642A191E4537D31300E03&assignmentId=00202051-9ab9-48b0-8cbe-2998d713deaa&projectId=54f8d589-66fc-4c65-830f-1dcc63bce8cc","","null","<div style=""display: flex; justify-content: center; align-items: center;"">
                    <img src=""images/semantic/semantic_series_3/semantic_series_3_a.jpg"" style=""width: 300px; height: 300px;"" />
                  </div>","null","",""
"","","","","","html-keyboard-response","21","137351","0.0-17.0-1.0","54C623ACD50642A191E4537D31300E03","54C623ACD50642A191E4537D31300E03","00202051-9ab9-48b0-8cbe-2998d713deaa","54f8d589-66fc-4c65-830f-1dcc63bce8cc","{""participantId"":""54C623ACD50642A191E4537D31300E03"",""assignmentId"":""00202051-9ab9-48b0-8cbe-2998d713deaa"",""projectId"":""54f8d589-66fc-4c65-830f-1dcc63bce8cc""}","https://test12345.live/?participantId=54C623ACD50642A191E4537D31300E03&assignmentId=00202051-9ab9-48b0-8cbe-2998d713deaa&projectId=54f8d589-66fc-4c65-830f-1dcc63bce8cc","","null","<div style=""display: flex; justify-content: center; align-items: center;"">
                    <img src=""images/semantic/semantic_series_3/semantic_series_3_b.jpg"" style=""width: 300px; height: 300px;"" />
                  </div>","null","",""
"","","","","","html-keyboard-response","22","140363","0.0-17.0-2.0","54C623ACD50642A191E4537D31300E03","54C623ACD50642A191E4537D31300E03","00202051-9ab9-48b0-8cbe-2998d713deaa","54f8d589-66fc-4c65-830f-1dcc63bce8cc","{""participantId"":""54C623ACD50642A191E4537D31300E03"",""assignmentId"":""00202051-9ab9-48b0-8cbe-2998d713deaa"",""projectId"":""54f8d589-66fc-4c65-830f-1dcc63bce8cc""}","https://test12345.live/?participantId=54C623ACD50642A191E4537D31300E03&assignmentId=00202051-9ab9-48b0-8cbe-2998d713deaa&projectId=54f8d589-66fc-4c65-830f-1dcc63bce8cc","","null","<div style=""display: flex; justify-content: center; align-items: center;"">
                    <img src=""images/semantic/semantic_series_3/semantic_series_3_c.jpg"" style=""width: 300px; height: 300px;"" />
                  </div>","null","",""
"","","","","","html-keyboard-response","23","143369","0.0-17.0-3.0","54C623ACD50642A191E4537D31300E03","54C623ACD50642A191E4537D31300E03","00202051-9ab9-48b0-8cbe-2998d713deaa","54f8d589-66fc-4c65-830f-1dcc63bce8cc","{""participantId"":""54C623ACD50642A191E4537D31300E03"",""assignmentId"":""00202051-9ab9-48b0-8cbe-2998d713deaa"",""projectId"":""54f8d589-66fc-4c65-830f-1dcc63bce8cc""}","https://test12345.live/?participantId=54C623ACD50642A191E4537D31300E03&assignmentId=00202051-9ab9-48b0-8cbe-2998d713deaa&projectId=54f8d589-66fc-4c65-830f-1dcc63bce8cc","","null","<div style=""display: flex; justify-content: center; align-items: center;"">
                    <img src=""images/semantic/semantic_series_3/semantic_series_3_d.jpg"" style=""width: 300px; height: 300px;"" />
                  </div>","null","",""
"","","","","","html-button-response","24","144442","0.0-18.0","54C623ACD50642A191E4537D31300E03","54C623ACD50642A191E4537D31300E03","00202051-9ab9-48b0-8cbe-2998d713deaa","54f8d589-66fc-4c65-830f-1dcc63bce8cc","{""participantId"":""54C623ACD50642A191E4537D31300E03"",""assignmentId"":""00202051-9ab9-48b0-8cbe-2998d713deaa"",""projectId"":""54f8d589-66fc-4c65-830f-1dcc63bce8cc""}","https://test12345.live/?participantId=54C623ACD50642A191E4537D31300E03&assignmentId=00202051-9ab9-48b0-8cbe-2998d713deaa&projectId=54f8d589-66fc-4c65-830f-1dcc63bce8cc","","1073","Was there a person in the picture?","0","",""
"","","","","","survey-likert","25","148536","0.0-19.0","54C623ACD50642A191E4537D31300E03","54C623ACD50642A191E4537D31300E03","00202051-9ab9-48b0-8cbe-2998d713deaa","54f8d589-66fc-4c65-830f-1dcc63bce8cc","{""participantId"":""54C623ACD50642A191E4537D31300E03"",""assignmentId"":""00202051-9ab9-48b0-8cbe-2998d713deaa"",""projectId"":""54f8d589-66fc-4c65-830f-1dcc63bce8cc""}","https://test12345.live/?participantId=54C623ACD50642A191E4537D31300E03&assignmentId=00202051-9ab9-48b0-8cbe-2998d713deaa&projectId=54f8d589-66fc-4c65-830f-1dcc63bce8cc","","4092","","{""Q0"":0}","","[0]"
"","","","","","html-button-response","26","151235","0.0-20.0","54C623ACD50642A191E4537D31300E03","54C623ACD50642A191E4537D31300E03","00202051-9ab9-48b0-8cbe-2998d713deaa","54f8d589-66fc-4c65-830f-1dcc63bce8cc","{""participantId"":""54C623ACD50642A191E4537D31300E03"",""assignmentId"":""00202051-9ab9-48b0-8cbe-2998d713deaa"",""projectId"":""54f8d589-66fc-4c65-830f-1dcc63bce8cc""}","https://test12345.live/?participantId=54C623ACD50642A191E4537D31300E03&assignmentId=00202051-9ab9-48b0-8cbe-2998d713deaa&projectId=54f8d589-66fc-4c65-830f-1dcc63bce8cc","","2699","
    <div style=""display: flex; justify-content: center; align-items: center;"">
      <img src=""images/red_deck_2.png"" style=""width: 300px; height: 300px; margin-right: 10px;"" />
      <img src=""images/blue_deck_1.png"" style=""width: 300px; height: 300px;"" />
    </div>","1","1",""
"","","","","","html-keyboard-response","27","154250","0.0-22.0-0.0","54C623ACD50642A191E4537D31300E03","54C623ACD50642A191E4537D31300E03","00202051-9ab9-48b0-8cbe-2998d713deaa","54f8d589-66fc-4c65-830f-1dcc63bce8cc","{""participantId"":""54C623ACD50642A191E4537D31300E03"",""assignmentId"":""00202051-9ab9-48b0-8cbe-2998d713deaa"",""projectId"":""54f8d589-66fc-4c65-830f-1dcc63bce8cc""}","https://test12345.live/?participantId=54C623ACD50642A191E4537D31300E03&assignmentId=00202051-9ab9-48b0-8cbe-2998d713deaa&projectId=54f8d589-66fc-4c65-830f-1dcc63bce8cc","","null","<div style=""display: flex; justify-content: center; align-items: center;"">
                    <img src=""images/semantic/semantic_series_12/semantic_series_12_a.jpg"" style=""width: 300px; height: 300px;"" />
                  </div>","null","",""
"","","","","","html-keyboard-response","28","157256","0.0-22.0-1.0","54C623ACD50642A191E4537D31300E03","54C623ACD50642A191E4537D31300E03","00202051-9ab9-48b0-8cbe-2998d713deaa","54f8d589-66fc-4c65-830f-1dcc63bce8cc","{""participantId"":""54C623ACD50642A191E4537D31300E03"",""assignmentId"":""00202051-9ab9-48b0-8cbe-2998d713deaa"",""projectId"":""54f8d589-66fc-4c65-830f-1dcc63bce8cc""}","https://test12345.live/?participantId=54C623ACD50642A191E4537D31300E03&assignmentId=00202051-9ab9-48b0-8cbe-2998d713deaa&projectId=54f8d589-66fc-4c65-830f-1dcc63bce8cc","","null","<div style=""display: flex; justify-content: center; align-items: center;"">
                    <img src=""images/semantic/semantic_series_12/semantic_series_12_b.jpg"" style=""width: 300px; height: 300px;"" />
                  </div>","null","",""
"","","","","","html-keyboard-response","29","160264","0.0-22.0-2.0","54C623ACD50642A191E4537D31300E03","54C623ACD50642A191E4537D31300E03","00202051-9ab9-48b0-8cbe-2998d713deaa","54f8d589-66fc-4c65-830f-1dcc63bce8cc","{""participantId"":""54C623ACD50642A191E4537D31300E03"",""assignmentId"":""00202051-9ab9-48b0-8cbe-2998d713deaa"",""projectId"":""54f8d589-66fc-4c65-830f-1dcc63bce8cc""}","https://test12345.live/?participantId=54C623ACD50642A191E4537D31300E03&assignmentId=00202051-9ab9-48b0-8cbe-2998d713deaa&projectId=54f8d589-66fc-4c65-830f-1dcc63bce8cc","","null","<div style=""display: flex; justify-content: center; align-items: center;"">
                    <img src=""images/semantic/semantic_series_12/semantic_series_12_c.jpg"" style=""width: 300px; height: 300px;"" />
                  </div>","null","",""
"","","","","","html-keyboard-response","30","163272","0.0-22.0-3.0","54C623ACD50642A191E4537D31300E03","54C623ACD50642A191E4537D31300E03","00202051-9ab9-48b0-8cbe-2998d713deaa","54f8d589-66fc-4c65-830f-1dcc63bce8cc","{""participantId"":""54C623ACD50642A191E4537D31300E03"",""assignmentId"":""00202051-9ab9-48b0-8cbe-2998d713deaa"",""projectId"":""54f8d589-66fc-4c65-830f-1dcc63bce8cc""}","https://test12345.live/?participantId=54C623ACD50642A191E4537D31300E03&assignmentId=00202051-9ab9-48b0-8cbe-2998d713deaa&projectId=54f8d589-66fc-4c65-830f-1dcc63bce8cc","","null","<div style=""display: flex; justify-content: center; align-items: center;"">
                    <img src=""images/semantic/semantic_series_12/semantic_series_12_d.jpg"" style=""width: 300px; height: 300px;"" />
                  </div>","null","",""
"","","","","","html-button-response","31","164704","0.0-23.0","54C623ACD50642A191E4537D31300E03","54C623ACD50642A191E4537D31300E03","00202051-9ab9-48b0-8cbe-2998d713deaa","54f8d589-66fc-4c65-830f-1dcc63bce8cc","{""participantId"":""54C623ACD50642A191E4537D31300E03"",""assignmentId"":""00202051-9ab9-48b0-8cbe-2998d713deaa"",""projectId"":""54f8d589-66fc-4c65-830f-1dcc63bce8cc""}","https://test12345.live/?participantId=54C623ACD50642A191E4537D31300E03&assignmentId=00202051-9ab9-48b0-8cbe-2998d713deaa&projectId=54f8d589-66fc-4c65-830f-1dcc63bce8cc","","1431","Was there a person in the picture?","1","",""
"","","","","","survey-likert","32","168680","0.0-24.0","54C623ACD50642A191E4537D31300E03","54C623ACD50642A191E4537D31300E03","00202051-9ab9-48b0-8cbe-2998d713deaa","54f8d589-66fc-4c65-830f-1dcc63bce8cc","{""participantId"":""54C623ACD50642A191E4537D31300E03"",""assignmentId"":""00202051-9ab9-48b0-8cbe-2998d713deaa"",""projectId"":""54f8d589-66fc-4c65-830f-1dcc63bce8cc""}","https://test12345.live/?participantId=54C623ACD50642A191E4537D31300E03&assignmentId=00202051-9ab9-48b0-8cbe-2998d713deaa&projectId=54f8d589-66fc-4c65-830f-1dcc63bce8cc","","3975","","{""Q0"":3}","","[0]"
"","","","","","html-button-response","33","170568","0.0-25.0","54C623ACD50642A191E4537D31300E03","54C623ACD50642A191E4537D31300E03","00202051-9ab9-48b0-8cbe-2998d713deaa","54f8d589-66fc-4c65-830f-1dcc63bce8cc","{""participantId"":""54C623ACD50642A191E4537D31300E03"",""assignmentId"":""00202051-9ab9-48b0-8cbe-2998d713deaa"",""projectId"":""54f8d589-66fc-4c65-830f-1dcc63bce8cc""}","https://test12345.live/?participantId=54C623ACD50642A191E4537D31300E03&assignmentId=00202051-9ab9-48b0-8cbe-2998d713deaa&projectId=54f8d589-66fc-4c65-830f-1dcc63bce8cc","","1887","
    <div style=""display: flex; justify-content: center; align-items: center;"">
      <img src=""images/red_deck_2.png"" style=""width: 300px; height: 300px; margin-right: 10px;"" />
      <img src=""images/blue_deck_1.png"" style=""width: 300px; height: 300px;"" />
    </div>","1","1",""
"","","","","","html-keyboard-response","34","173570","0.0-27.0-0.0","54C623ACD50642A191E4537D31300E03","54C623ACD50642A191E4537D31300E03","00202051-9ab9-48b0-8cbe-2998d713deaa","54f8d589-66fc-4c65-830f-1dcc63bce8cc","{""participantId"":""54C623ACD50642A191E4537D31300E03"",""assignmentId"":""00202051-9ab9-48b0-8cbe-2998d713deaa"",""projectId"":""54f8d589-66fc-4c65-830f-1dcc63bce8cc""}","https://test12345.live/?participantId=54C623ACD50642A191E4537D31300E03&assignmentId=00202051-9ab9-48b0-8cbe-2998d713deaa&projectId=54f8d589-66fc-4c65-830f-1dcc63bce8cc","","null","<div style=""display: flex; justify-content: center; align-items: center;"">
                    <img src=""images/semantic/semantic_series_18/semantic_series_18_a.jpg"" style=""width: 300px; height: 300px;"" />
                  </div>","null","",""
"","","","","","html-keyboard-response","35","176573","0.0-27.0-1.0","54C623ACD50642A191E4537D31300E03","54C623ACD50642A191E4537D31300E03","00202051-9ab9-48b0-8cbe-2998d713deaa","54f8d589-66fc-4c65-830f-1dcc63bce8cc","{""participantId"":""54C623ACD50642A191E4537D31300E03"",""assignmentId"":""00202051-9ab9-48b0-8cbe-2998d713deaa"",""projectId"":""54f8d589-66fc-4c65-830f-1dcc63bce8cc""}","https://test12345.live/?participantId=54C623ACD50642A191E4537D31300E03&assignmentId=00202051-9ab9-48b0-8cbe-2998d713deaa&projectId=54f8d589-66fc-4c65-830f-1dcc63bce8cc","","null","<div style=""display: flex; justify-content: center; align-items: center;"">
                    <img src=""images/semantic/semantic_series_18/semantic_series_18_b.jpg"" style=""width: 300px; height: 300px;"" />
                  </div>","null","",""
"","","","","","html-keyboard-response","36","179579","0.0-27.0-2.0","54C623ACD50642A191E4537D31300E03","54C623ACD50642A191E4537D31300E03","00202051-9ab9-48b0-8cbe-2998d713deaa","54f8d589-66fc-4c65-830f-1dcc63bce8cc","{""participantId"":""54C623ACD50642A191E4537D31300E03"",""assignmentId"":""00202051-9ab9-48b0-8cbe-2998d713deaa"",""projectId"":""54f8d589-66fc-4c65-830f-1dcc63bce8cc""}","https://test12345.live/?participantId=54C623ACD50642A191E4537D31300E03&assignmentId=00202051-9ab9-48b0-8cbe-2998d713deaa&projectId=54f8d589-66fc-4c65-830f-1dcc63bce8cc","","null","<div style=""display: flex; justify-content: center; align-items: center;"">
                    <img src=""images/semantic/semantic_series_18/semantic_series_18_c.jpg"" style=""width: 300px; height: 300px;"" />
                  </div>","null","",""
"","","","","","html-keyboard-response","37","182584","0.0-27.0-3.0","54C623ACD50642A191E4537D31300E03","54C623ACD50642A191E4537D31300E03","00202051-9ab9-48b0-8cbe-2998d713deaa","54f8d589-66fc-4c65-830f-1dcc63bce8cc","{""participantId"":""54C623ACD50642A191E4537D31300E03"",""assignmentId"":""00202051-9ab9-48b0-8cbe-2998d713deaa"",""projectId"":""54f8d589-66fc-4c65-830f-1dcc63bce8cc""}","https://test12345.live/?participantId=54C623ACD50642A191E4537D31300E03&assignmentId=00202051-9ab9-48b0-8cbe-2998d713deaa&projectId=54f8d589-66fc-4c65-830f-1dcc63bce8cc","","null","<div style=""display: flex; justify-content: center; align-items: center;"">
                    <img src=""images/semantic/semantic_series_18/semantic_series_18_d.jpg"" style=""width: 300px; height: 300px;"" />
                  </div>","null","",""
"","","","","","html-button-response","38","183899","0.0-28.0","54C623ACD50642A191E4537D31300E03","54C623ACD50642A191E4537D31300E03","00202051-9ab9-48b0-8cbe-2998d713deaa","54f8d589-66fc-4c65-830f-1dcc63bce8cc","{""participantId"":""54C623ACD50642A191E4537D31300E03"",""assignmentId"":""00202051-9ab9-48b0-8cbe-2998d713deaa"",""projectId"":""54f8d589-66fc-4c65-830f-1dcc63bce8cc""}","https://test12345.live/?participantId=54C623ACD50642A191E4537D31300E03&assignmentId=00202051-9ab9-48b0-8cbe-2998d713deaa&projectId=54f8d589-66fc-4c65-830f-1dcc63bce8cc","","1316","Was there a person in the picture?","1","",""
"","","","","","survey-likert","39","188398","0.0-29.0","54C623ACD50642A191E4537D31300E03","54C623ACD50642A191E4537D31300E03","00202051-9ab9-48b0-8cbe-2998d713deaa","54f8d589-66fc-4c65-830f-1dcc63bce8cc","{""participantId"":""54C623ACD50642A191E4537D31300E03"",""assignmentId"":""00202051-9ab9-48b0-8cbe-2998d713deaa"",""projectId"":""54f8d589-66fc-4c65-830f-1dcc63bce8cc""}","https://test12345.live/?participantId=54C623ACD50642A191E4537D31300E03&assignmentId=00202051-9ab9-48b0-8cbe-2998d713deaa&projectId=54f8d589-66fc-4c65-830f-1dcc63bce8cc","","4498","","{""Q0"":2}","","[0]"
"","","","","","html-button-response","40","189563","0.0-30.0","54C623ACD50642A191E4537D31300E03","54C623ACD50642A191E4537D31300E03","00202051-9ab9-48b0-8cbe-2998d713deaa","54f8d589-66fc-4c65-830f-1dcc63bce8cc","{""participantId"":""54C623ACD50642A191E4537D31300E03"",""assignmentId"":""00202051-9ab9-48b0-8cbe-2998d713deaa"",""projectId"":""54f8d589-66fc-4c65-830f-1dcc63bce8cc""}","https://test12345.live/?participantId=54C623ACD50642A191E4537D31300E03&assignmentId=00202051-9ab9-48b0-8cbe-2998d713deaa&projectId=54f8d589-66fc-4c65-830f-1dcc63bce8cc","","1164","
    <div style=""display: flex; justify-content: center; align-items: center;"">
      <img src=""images/red_deck_2.png"" style=""width: 300px; height: 300px; margin-right: 10px;"" />
      <img src=""images/blue_deck_1.png"" style=""width: 300px; height: 300px;"" />
    </div>","1","1",""
"","","","","","html-keyboard-response","41","192569","0.0-32.0-0.0","54C623ACD50642A191E4537D31300E03","54C623ACD50642A191E4537D31300E03","00202051-9ab9-48b0-8cbe-2998d713deaa","54f8d589-66fc-4c65-830f-1dcc63bce8cc","{""participantId"":""54C623ACD50642A191E4537D31300E03"",""assignmentId"":""00202051-9ab9-48b0-8cbe-2998d713deaa"",""projectId"":""54f8d589-66fc-4c65-830f-1dcc63bce8cc""}","https://test12345.live/?participantId=54C623ACD50642A191E4537D31300E03&assignmentId=00202051-9ab9-48b0-8cbe-2998d713deaa&projectId=54f8d589-66fc-4c65-830f-1dcc63bce8cc","","null","<div style=""display: flex; justify-content: center; align-items: center;"">
                    <img src=""images/semantic/semantic_series_16/semantic_series_16_a.jpg"" style=""width: 300px; height: 300px;"" />
                  </div>","null","",""
"","","","","","html-keyboard-response","42","195572","0.0-32.0-1.0","54C623ACD50642A191E4537D31300E03","54C623ACD50642A191E4537D31300E03","00202051-9ab9-48b0-8cbe-2998d713deaa","54f8d589-66fc-4c65-830f-1dcc63bce8cc","{""participantId"":""54C623ACD50642A191E4537D31300E03"",""assignmentId"":""00202051-9ab9-48b0-8cbe-2998d713deaa"",""projectId"":""54f8d589-66fc-4c65-830f-1dcc63bce8cc""}","https://test12345.live/?participantId=54C623ACD50642A191E4537D31300E03&assignmentId=00202051-9ab9-48b0-8cbe-2998d713deaa&projectId=54f8d589-66fc-4c65-830f-1dcc63bce8cc","","null","<div style=""display: flex; justify-content: center; align-items: center;"">
                    <img src=""images/semantic/semantic_series_16/semantic_series_16_b.jpg"" style=""width: 300px; height: 300px;"" />
                  </div>","null","",""
"","","","","","html-keyboard-response","43","198581","0.0-32.0-2.0","54C623ACD50642A191E4537D31300E03","54C623ACD50642A191E4537D31300E03","00202051-9ab9-48b0-8cbe-2998d713deaa","54f8d589-66fc-4c65-830f-1dcc63bce8cc","{""participantId"":""54C623ACD50642A191E4537D31300E03"",""assignmentId"":""00202051-9ab9-48b0-8cbe-2998d713deaa"",""projectId"":""54f8d589-66fc-4c65-830f-1dcc63bce8cc""}","https://test12345.live/?participantId=54C623ACD50642A191E4537D31300E03&assignmentId=00202051-9ab9-48b0-8cbe-2998d713deaa&projectId=54f8d589-66fc-4c65-830f-1dcc63bce8cc","","null","<div style=""display: flex; justify-content: center; align-items: center;"">
                    <img src=""images/semantic/semantic_series_16/semantic_series_16_c.jpg"" style=""width: 300px; height: 300px;"" />
                  </div>","null","",""
"","","","","","html-keyboard-response","44","201586","0.0-32.0-3.0","54C623ACD50642A191E4537D31300E03","54C623ACD50642A191E4537D31300E03","00202051-9ab9-48b0-8cbe-2998d713deaa","54f8d589-66fc-4c65-830f-1dcc63bce8cc","{""participantId"":""54C623ACD50642A191E4537D31300E03"",""assignmentId"":""00202051-9ab9-48b0-8cbe-2998d713deaa"",""projectId"":""54f8d589-66fc-4c65-830f-1dcc63bce8cc""}","https://test12345.live/?participantId=54C623ACD50642A191E4537D31300E03&assignmentId=00202051-9ab9-48b0-8cbe-2998d713deaa&projectId=54f8d589-66fc-4c65-830f-1dcc63bce8cc","","null","<div style=""display: flex; justify-content: center; align-items: center;"">
                    <img src=""images/semantic/semantic_series_16/semantic_series_16_d.jpg"" style=""width: 300px; height: 300px;"" />
                  </div>","null","",""
"","","","","","html-button-response","45","202731","0.0-33.0","54C623ACD50642A191E4537D31300E03","54C623ACD50642A191E4537D31300E03","00202051-9ab9-48b0-8cbe-2998d713deaa","54f8d589-66fc-4c65-830f-1dcc63bce8cc","{""participantId"":""54C623ACD50642A191E4537D31300E03"",""assignmentId"":""00202051-9ab9-48b0-8cbe-2998d713deaa"",""projectId"":""54f8d589-66fc-4c65-830f-1dcc63bce8cc""}","https://test12345.live/?participantId=54C623ACD50642A191E4537D31300E03&assignmentId=00202051-9ab9-48b0-8cbe-2998d713deaa&projectId=54f8d589-66fc-4c65-830f-1dcc63bce8cc","","1145","Was there a person in the picture?","0","",""
"","","","","","survey-likert","46","205414","0.0-34.0","54C623ACD50642A191E4537D31300E03","54C623ACD50642A191E4537D31300E03","00202051-9ab9-48b0-8cbe-2998d713deaa","54f8d589-66fc-4c65-830f-1dcc63bce8cc","{""participantId"":""54C623ACD50642A191E4537D31300E03"",""assignmentId"":""00202051-9ab9-48b0-8cbe-2998d713deaa"",""projectId"":""54f8d589-66fc-4c65-830f-1dcc63bce8cc""}","https://test12345.live/?participantId=54C623ACD50642A191E4537D31300E03&assignmentId=00202051-9ab9-48b0-8cbe-2998d713deaa&projectId=54f8d589-66fc-4c65-830f-1dcc63bce8cc","","2682","","{""Q0"":0}","","[0]"
"","","","","","html-button-response","47","206560","0.0-35.0","54C623ACD50642A191E4537D31300E03","54C623ACD50642A191E4537D31300E03","00202051-9ab9-48b0-8cbe-2998d713deaa","54f8d589-66fc-4c65-830f-1dcc63bce8cc","{""participantId"":""54C623ACD50642A191E4537D31300E03"",""assignmentId"":""00202051-9ab9-48b0-8cbe-2998d713deaa"",""projectId"":""54f8d589-66fc-4c65-830f-1dcc63bce8cc""}","https://test12345.live/?participantId=54C623ACD50642A191E4537D31300E03&assignmentId=00202051-9ab9-48b0-8cbe-2998d713deaa&projectId=54f8d589-66fc-4c65-830f-1dcc63bce8cc","","1145","
    <div style=""display: flex; justify-content: center; align-items: center;"">
      <img src=""images/red_deck_2.png"" style=""width: 300px; height: 300px; margin-right: 10px;"" />
      <img src=""images/blue_deck_1.png"" style=""width: 300px; height: 300px;"" />
    </div>","0","0",""
"","","","","","html-keyboard-response","48","209575","0.0-36.0-0.0","54C623ACD50642A191E4537D31300E03","54C623ACD50642A191E4537D31300E03","00202051-9ab9-48b0-8cbe-2998d713deaa","54f8d589-66fc-4c65-830f-1dcc63bce8cc","{""participantId"":""54C623ACD50642A191E4537D31300E03"",""assignmentId"":""00202051-9ab9-48b0-8cbe-2998d713deaa"",""projectId"":""54f8d589-66fc-4c65-830f-1dcc63bce8cc""}","https://test12345.live/?participantId=54C623ACD50642A191E4537D31300E03&assignmentId=00202051-9ab9-48b0-8cbe-2998d713deaa&projectId=54f8d589-66fc-4c65-830f-1dcc63bce8cc","","null","<div style=""display: flex; justify-content: center; align-items: center;"">
                    <img src=""images/causal/causal_series_7/causal_series_7_a.jpg"" style=""width: 300px; height: 300px;"" />
                  </div>","null","",""
"","","","","","html-keyboard-response","49","212585","0.0-36.0-1.0","54C623ACD50642A191E4537D31300E03","54C623ACD50642A191E4537D31300E03","00202051-9ab9-48b0-8cbe-2998d713deaa","54f8d589-66fc-4c65-830f-1dcc63bce8cc","{""participantId"":""54C623ACD50642A191E4537D31300E03"",""assignmentId"":""00202051-9ab9-48b0-8cbe-2998d713deaa"",""projectId"":""54f8d589-66fc-4c65-830f-1dcc63bce8cc""}","https://test12345.live/?participantId=54C623ACD50642A191E4537D31300E03&assignmentId=00202051-9ab9-48b0-8cbe-2998d713deaa&projectId=54f8d589-66fc-4c65-830f-1dcc63bce8cc","","null","<div style=""display: flex; justify-content: center; align-items: center;"">
                    <img src=""images/causal/causal_series_7/causal_series_7_b.jpg"" style=""width: 300px; height: 300px;"" />
                  </div>","null","",""
"","","","","","html-keyboard-response","50","215593","0.0-36.0-2.0","54C623ACD50642A191E4537D31300E03","54C623ACD50642A191E4537D31300E03","00202051-9ab9-48b0-8cbe-2998d713deaa","54f8d589-66fc-4c65-830f-1dcc63bce8cc","{""participantId"":""54C623ACD50642A191E4537D31300E03"",""assignmentId"":""00202051-9ab9-48b0-8cbe-2998d713deaa"",""projectId"":""54f8d589-66fc-4c65-830f-1dcc63bce8cc""}","https://test12345.live/?participantId=54C623ACD50642A191E4537D31300E03&assignmentId=00202051-9ab9-48b0-8cbe-2998d713deaa&projectId=54f8d589-66fc-4c65-830f-1dcc63bce8cc","","null","<div style=""display: flex; justify-content: center; align-items: center;"">
                    <img src=""images/causal/causal_series_7/causal_series_7_c.jpg"" style=""width: 300px; height: 300px;"" />
                  </div>","null","",""
"","","","","","html-keyboard-response","51","218600","0.0-36.0-3.0","54C623ACD50642A191E4537D31300E03","54C623ACD50642A191E4537D31300E03","00202051-9ab9-48b0-8cbe-2998d713deaa","54f8d589-66fc-4c65-830f-1dcc63bce8cc","{""participantId"":""54C623ACD50642A191E4537D31300E03"",""assignmentId"":""00202051-9ab9-48b0-8cbe-2998d713deaa"",""projectId"":""54f8d589-66fc-4c65-830f-1dcc63bce8cc""}","https://test12345.live/?participantId=54C623ACD50642A191E4537D31300E03&assignmentId=00202051-9ab9-48b0-8cbe-2998d713deaa&projectId=54f8d589-66fc-4c65-830f-1dcc63bce8cc","","null","<div style=""display: flex; justify-content: center; align-items: center;"">
                    <img src=""images/causal/causal_series_7/causal_series_7_d.jpg"" style=""width: 300px; height: 300px;"" />
                  </div>","null","",""
"","","","","","html-button-response","52","220491","0.0-38.0","54C623ACD50642A191E4537D31300E03","54C623ACD50642A191E4537D31300E03","00202051-9ab9-48b0-8cbe-2998d713deaa","54f8d589-66fc-4c65-830f-1dcc63bce8cc","{""participantId"":""54C623ACD50642A191E4537D31300E03"",""assignmentId"":""00202051-9ab9-48b0-8cbe-2998d713deaa"",""projectId"":""54f8d589-66fc-4c65-830f-1dcc63bce8cc""}","https://test12345.live/?participantId=54C623ACD50642A191E4537D31300E03&assignmentId=00202051-9ab9-48b0-8cbe-2998d713deaa&projectId=54f8d589-66fc-4c65-830f-1dcc63bce8cc","","1890","Was there a person in the picture?","1","",""
"","","","","","survey-likert","53","222808","0.0-39.0","54C623ACD50642A191E4537D31300E03","54C623ACD50642A191E4537D31300E03","00202051-9ab9-48b0-8cbe-2998d713deaa","54f8d589-66fc-4c65-830f-1dcc63bce8cc","{""participantId"":""54C623ACD50642A191E4537D31300E03"",""assignmentId"":""00202051-9ab9-48b0-8cbe-2998d713deaa"",""projectId"":""54f8d589-66fc-4c65-830f-1dcc63bce8cc""}","https://test12345.live/?participantId=54C623ACD50642A191E4537D31300E03&assignmentId=00202051-9ab9-48b0-8cbe-2998d713deaa&projectId=54f8d589-66fc-4c65-830f-1dcc63bce8cc","","2316","","{""Q0"":1}","","[0]"
"","","","","","html-button-response","54","224310","0.0-40.0","54C623ACD50642A191E4537D31300E03","54C623ACD50642A191E4537D31300E03","00202051-9ab9-48b0-8cbe-2998d713deaa","54f8d589-66fc-4c65-830f-1dcc63bce8cc","{""participantId"":""54C623ACD50642A191E4537D31300E03"",""assignmentId"":""00202051-9ab9-48b0-8cbe-2998d713deaa"",""projectId"":""54f8d589-66fc-4c65-830f-1dcc63bce8cc""}","https://test12345.live/?participantId=54C623ACD50642A191E4537D31300E03&assignmentId=00202051-9ab9-48b0-8cbe-2998d713deaa&projectId=54f8d589-66fc-4c65-830f-1dcc63bce8cc","","1502","
    <div style=""display: flex; justify-content: center; align-items: center;"">
      <img src=""images/red_deck_2.png"" style=""width: 300px; height: 300px; margin-right: 10px;"" />
      <img src=""images/blue_deck_1.png"" style=""width: 300px; height: 300px;"" />
    </div>","0","0",""
"","","","","","html-keyboard-response","55","227318","0.0-41.0-0.0","54C623ACD50642A191E4537D31300E03","54C623ACD50642A191E4537D31300E03","00202051-9ab9-48b0-8cbe-2998d713deaa","54f8d589-66fc-4c65-830f-1dcc63bce8cc","{""participantId"":""54C623ACD50642A191E4537D31300E03"",""assignmentId"":""00202051-9ab9-48b0-8cbe-2998d713deaa"",""projectId"":""54f8d589-66fc-4c65-830f-1dcc63bce8cc""}","https://test12345.live/?participantId=54C623ACD50642A191E4537D31300E03&assignmentId=00202051-9ab9-48b0-8cbe-2998d713deaa&projectId=54f8d589-66fc-4c65-830f-1dcc63bce8cc","","null","<div style=""display: flex; justify-content: center; align-items: center;"">
                    <img src=""images/causal/causal_series_1/causal_series_1_a.jpg"" style=""width: 300px; height: 300px;"" />
                  </div>","null","",""
"","","","","","html-keyboard-response","56","230320","0.0-41.0-1.0","54C623ACD50642A191E4537D31300E03","54C623ACD50642A191E4537D31300E03","00202051-9ab9-48b0-8cbe-2998d713deaa","54f8d589-66fc-4c65-830f-1dcc63bce8cc","{""participantId"":""54C623ACD50642A191E4537D31300E03"",""assignmentId"":""00202051-9ab9-48b0-8cbe-2998d713deaa"",""projectId"":""54f8d589-66fc-4c65-830f-1dcc63bce8cc""}","https://test12345.live/?participantId=54C623ACD50642A191E4537D31300E03&assignmentId=00202051-9ab9-48b0-8cbe-2998d713deaa&projectId=54f8d589-66fc-4c65-830f-1dcc63bce8cc","","null","<div style=""display: flex; justify-content: center; align-items: center;"">
                    <img src=""images/causal/causal_series_1/causal_series_1_b.jpg"" style=""width: 300px; height: 300px;"" />
                  </div>","null","",""
"","","","","","html-keyboard-response","57","233320","0.0-41.0-2.0","54C623ACD50642A191E4537D31300E03","54C623ACD50642A191E4537D31300E03","00202051-9ab9-48b0-8cbe-2998d713deaa","54f8d589-66fc-4c65-830f-1dcc63bce8cc","{""participantId"":""54C623ACD50642A191E4537D31300E03"",""assignmentId"":""00202051-9ab9-48b0-8cbe-2998d713deaa"",""projectId"":""54f8d589-66fc-4c65-830f-1dcc63bce8cc""}","https://test12345.live/?participantId=54C623ACD50642A191E4537D31300E03&assignmentId=00202051-9ab9-48b0-8cbe-2998d713deaa&projectId=54f8d589-66fc-4c65-830f-1dcc63bce8cc","","null","<div style=""display: flex; justify-content: center; align-items: center;"">
                    <img src=""images/causal/causal_series_1/causal_series_1_c.jpg"" style=""width: 300px; height: 300px;"" />
                  </div>","null","",""
"","","","","","html-keyboard-response","58","236328","0.0-41.0-3.0","54C623ACD50642A191E4537D31300E03","54C623ACD50642A191E4537D31300E03","00202051-9ab9-48b0-8cbe-2998d713deaa","54f8d589-66fc-4c65-830f-1dcc63bce8cc","{""participantId"":""54C623ACD50642A191E4537D31300E03"",""assignmentId"":""00202051-9ab9-48b0-8cbe-2998d713deaa"",""projectId"":""54f8d589-66fc-4c65-830f-1dcc63bce8cc""}","https://test12345.live/?participantId=54C623ACD50642A191E4537D31300E03&assignmentId=00202051-9ab9-48b0-8cbe-2998d713deaa&projectId=54f8d589-66fc-4c65-830f-1dcc63bce8cc","","null","<div style=""display: flex; justify-content: center; align-items: center;"">
                    <img src=""images/causal/causal_series_1/causal_series_1_d.jpg"" style=""width: 300px; height: 300px;"" />
                  </div>","null","",""
"","","","","","html-button-response","59","238258","0.0-43.0","54C623ACD50642A191E4537D31300E03","54C623ACD50642A191E4537D31300E03","00202051-9ab9-48b0-8cbe-2998d713deaa","54f8d589-66fc-4c65-830f-1dcc63bce8cc","{""participantId"":""54C623ACD50642A191E4537D31300E03"",""assignmentId"":""00202051-9ab9-48b0-8cbe-2998d713deaa"",""projectId"":""54f8d589-66fc-4c65-830f-1dcc63bce8cc""}","https://test12345.live/?participantId=54C623ACD50642A191E4537D31300E03&assignmentId=00202051-9ab9-48b0-8cbe-2998d713deaa&projectId=54f8d589-66fc-4c65-830f-1dcc63bce8cc","","1929","Was there a person in the picture?","0","",""
"","","","","","survey-likert","60","243706","0.0-44.0","54C623ACD50642A191E4537D31300E03","54C623ACD50642A191E4537D31300E03","00202051-9ab9-48b0-8cbe-2998d713deaa","54f8d589-66fc-4c65-830f-1dcc63bce8cc","{""participantId"":""54C623ACD50642A191E4537D31300E03"",""assignmentId"":""00202051-9ab9-48b0-8cbe-2998d713deaa"",""projectId"":""54f8d589-66fc-4c65-830f-1dcc63bce8cc""}","https://test12345.live/?participantId=54C623ACD50642A191E4537D31300E03&assignmentId=00202051-9ab9-48b0-8cbe-2998d713deaa&projectId=54f8d589-66fc-4c65-830f-1dcc63bce8cc","","5448","","{""Q0"":1}","","[0]"
"","","","","","html-button-response","61","244994","0.0-45.0","54C623ACD50642A191E4537D31300E03","54C623ACD50642A191E4537D31300E03","00202051-9ab9-48b0-8cbe-2998d713deaa","54f8d589-66fc-4c65-830f-1dcc63bce8cc","{""participantId"":""54C623ACD50642A191E4537D31300E03"",""assignmentId"":""00202051-9ab9-48b0-8cbe-2998d713deaa"",""projectId"":""54f8d589-66fc-4c65-830f-1dcc63bce8cc""}","https://test12345.live/?participantId=54C623ACD50642A191E4537D31300E03&assignmentId=00202051-9ab9-48b0-8cbe-2998d713deaa&projectId=54f8d589-66fc-4c65-830f-1dcc63bce8cc","","1287","
    <div style=""display: flex; justify-content: center; align-items: center;"">
      <img src=""images/red_deck_2.png"" style=""width: 300px; height: 300px; margin-right: 10px;"" />
      <img src=""images/blue_deck_1.png"" style=""width: 300px; height: 300px;"" />
    </div>","1","1",""
"","","","","","html-keyboard-response","62","248009","0.0-47.0-0.0","54C623ACD50642A191E4537D31300E03","54C623ACD50642A191E4537D31300E03","00202051-9ab9-48b0-8cbe-2998d713deaa","54f8d589-66fc-4c65-830f-1dcc63bce8cc","{""participantId"":""54C623ACD50642A191E4537D31300E03"",""assignmentId"":""00202051-9ab9-48b0-8cbe-2998d713deaa"",""projectId"":""54f8d589-66fc-4c65-830f-1dcc63bce8cc""}","https://test12345.live/?participantId=54C623ACD50642A191E4537D31300E03&assignmentId=00202051-9ab9-48b0-8cbe-2998d713deaa&projectId=54f8d589-66fc-4c65-830f-1dcc63bce8cc","","null","<div style=""display: flex; justify-content: center; align-items: center;"">
                    <img src=""images/semantic/semantic_series_1/semantic_series_1_a.jpg"" style=""width: 300px; height: 300px;"" />
                  </div>","null","",""
"","","","","","html-keyboard-response","63","251016","0.0-47.0-1.0","54C623ACD50642A191E4537D31300E03","54C623ACD50642A191E4537D31300E03","00202051-9ab9-48b0-8cbe-2998d713deaa","54f8d589-66fc-4c65-830f-1dcc63bce8cc","{""participantId"":""54C623ACD50642A191E4537D31300E03"",""assignmentId"":""00202051-9ab9-48b0-8cbe-2998d713deaa"",""projectId"":""54f8d589-66fc-4c65-830f-1dcc63bce8cc""}","https://test12345.live/?participantId=54C623ACD50642A191E4537D31300E03&assignmentId=00202051-9ab9-48b0-8cbe-2998d713deaa&projectId=54f8d589-66fc-4c65-830f-1dcc63bce8cc","","null","<div style=""display: flex; justify-content: center; align-items: center;"">
                    <img src=""images/semantic/semantic_series_1/semantic_series_1_b.jpg"" style=""width: 300px; height: 300px;"" />
                  </div>","null","",""
"","","","","","html-keyboard-response","64","254020","0.0-47.0-2.0","54C623ACD50642A191E4537D31300E03","54C623ACD50642A191E4537D31300E03","00202051-9ab9-48b0-8cbe-2998d713deaa","54f8d589-66fc-4c65-830f-1dcc63bce8cc","{""participantId"":""54C623ACD50642A191E4537D31300E03"",""assignmentId"":""00202051-9ab9-48b0-8cbe-2998d713deaa"",""projectId"":""54f8d589-66fc-4c65-830f-1dcc63bce8cc""}","https://test12345.live/?participantId=54C623ACD50642A191E4537D31300E03&assignmentId=00202051-9ab9-48b0-8cbe-2998d713deaa&projectId=54f8d589-66fc-4c65-830f-1dcc63bce8cc","","null","<div style=""display: flex; justify-content: center; align-items: center;"">
                    <img src=""images/semantic/semantic_series_1/semantic_series_1_c.jpg"" style=""width: 300px; height: 300px;"" />
                  </div>","null","",""
"","","","","","html-keyboard-response","65","257021","0.0-47.0-3.0","54C623ACD50642A191E4537D31300E03","54C623ACD50642A191E4537D31300E03","00202051-9ab9-48b0-8cbe-2998d713deaa","54f8d589-66fc-4c65-830f-1dcc63bce8cc","{""participantId"":""54C623ACD50642A191E4537D31300E03"",""assignmentId"":""00202051-9ab9-48b0-8cbe-2998d713deaa"",""projectId"":""54f8d589-66fc-4c65-830f-1dcc63bce8cc""}","https://test12345.live/?participantId=54C623ACD50642A191E4537D31300E03&assignmentId=00202051-9ab9-48b0-8cbe-2998d713deaa&projectId=54f8d589-66fc-4c65-830f-1dcc63bce8cc","","null","<div style=""display: flex; justify-content: center; align-items: center;"">
                    <img src=""images/semantic/semantic_series_1/semantic_series_1_d.jpg"" style=""width: 300px; height: 300px;"" />
                  </div>","null","",""
"","","","","","html-button-response","66","258341","0.0-48.0","54C623ACD50642A191E4537D31300E03","54C623ACD50642A191E4537D31300E03","00202051-9ab9-48b0-8cbe-2998d713deaa","54f8d589-66fc-4c65-830f-1dcc63bce8cc","{""participantId"":""54C623ACD50642A191E4537D31300E03"",""assignmentId"":""00202051-9ab9-48b0-8cbe-2998d713deaa"",""projectId"":""54f8d589-66fc-4c65-830f-1dcc63bce8cc""}","https://test12345.live/?participantId=54C623ACD50642A191E4537D31300E03&assignmentId=00202051-9ab9-48b0-8cbe-2998d713deaa&projectId=54f8d589-66fc-4c65-830f-1dcc63bce8cc","","1319","Was there a person in the picture?","0","",""
"","","","","","survey-likert","67","260884","0.0-49.0","54C623ACD50642A191E4537D31300E03","54C623ACD50642A191E4537D31300E03","00202051-9ab9-48b0-8cbe-2998d713deaa","54f8d589-66fc-4c65-830f-1dcc63bce8cc","{""participantId"":""54C623ACD50642A191E4537D31300E03"",""assignmentId"":""00202051-9ab9-48b0-8cbe-2998d713deaa"",""projectId"":""54f8d589-66fc-4c65-830f-1dcc63bce8cc""}","https://test12345.live/?participantId=54C623ACD50642A191E4537D31300E03&assignmentId=00202051-9ab9-48b0-8cbe-2998d713deaa&projectId=54f8d589-66fc-4c65-830f-1dcc63bce8cc","","2542","","{""Q0"":2}","","[0]"
"","","","","","html-button-response","68","262506","0.0-50.0","54C623ACD50642A191E4537D31300E03","54C623ACD50642A191E4537D31300E03","00202051-9ab9-48b0-8cbe-2998d713deaa","54f8d589-66fc-4c65-830f-1dcc63bce8cc","{""participantId"":""54C623ACD50642A191E4537D31300E03"",""assignmentId"":""00202051-9ab9-48b0-8cbe-2998d713deaa"",""projectId"":""54f8d589-66fc-4c65-830f-1dcc63bce8cc""}","https://test12345.live/?participantId=54C623ACD50642A191E4537D31300E03&assignmentId=00202051-9ab9-48b0-8cbe-2998d713deaa&projectId=54f8d589-66fc-4c65-830f-1dcc63bce8cc","","1621","
    <div style=""display: flex; justify-content: center; align-items: center;"">
      <img src=""images/red_deck_2.png"" style=""width: 300px; height: 300px; margin-right: 10px;"" />
      <img src=""images/blue_deck_1.png"" style=""width: 300px; height: 300px;"" />
    </div>","0","0",""
"","","","","","html-keyboard-response","69","265509","0.0-51.0-0.0","54C623ACD50642A191E4537D31300E03","54C623ACD50642A191E4537D31300E03","00202051-9ab9-48b0-8cbe-2998d713deaa","54f8d589-66fc-4c65-830f-1dcc63bce8cc","{""participantId"":""54C623ACD50642A191E4537D31300E03"",""assignmentId"":""00202051-9ab9-48b0-8cbe-2998d713deaa"",""projectId"":""54f8d589-66fc-4c65-830f-1dcc63bce8cc""}","https://test12345.live/?participantId=54C623ACD50642A191E4537D31300E03&assignmentId=00202051-9ab9-48b0-8cbe-2998d713deaa&projectId=54f8d589-66fc-4c65-830f-1dcc63bce8cc","","null","<div style=""display: flex; justify-content: center; align-items: center;"">
                    <img src=""images/causal/causal_series_13/causal_series_13_a.jpg"" style=""width: 300px; height: 300px;"" />
                  </div>","null","",""
"","","","","","html-keyboard-response","70","268518","0.0-51.0-1.0","54C623ACD50642A191E4537D31300E03","54C623ACD50642A191E4537D31300E03","00202051-9ab9-48b0-8cbe-2998d713deaa","54f8d589-66fc-4c65-830f-1dcc63bce8cc","{""participantId"":""54C623ACD50642A191E4537D31300E03"",""assignmentId"":""00202051-9ab9-48b0-8cbe-2998d713deaa"",""projectId"":""54f8d589-66fc-4c65-830f-1dcc63bce8cc""}","https://test12345.live/?participantId=54C623ACD50642A191E4537D31300E03&assignmentId=00202051-9ab9-48b0-8cbe-2998d713deaa&projectId=54f8d589-66fc-4c65-830f-1dcc63bce8cc","","null","<div style=""display: flex; justify-content: center; align-items: center;"">
                    <img src=""images/causal/causal_series_13/causal_series_13_b.jpg"" style=""width: 300px; height: 300px;"" />
                  </div>","null","",""
"","","","","","html-keyboard-response","71","271527","0.0-51.0-2.0","54C623ACD50642A191E4537D31300E03","54C623ACD50642A191E4537D31300E03","00202051-9ab9-48b0-8cbe-2998d713deaa","54f8d589-66fc-4c65-830f-1dcc63bce8cc","{""participantId"":""54C623ACD50642A191E4537D31300E03"",""assignmentId"":""00202051-9ab9-48b0-8cbe-2998d713deaa"",""projectId"":""54f8d589-66fc-4c65-830f-1dcc63bce8cc""}","https://test12345.live/?participantId=54C623ACD50642A191E4537D31300E03&assignmentId=00202051-9ab9-48b0-8cbe-2998d713deaa&projectId=54f8d589-66fc-4c65-830f-1dcc63bce8cc","","null","<div style=""display: flex; justify-content: center; align-items: center;"">
                    <img src=""images/causal/causal_series_13/causal_series_13_c.jpg"" style=""width: 300px; height: 300px;"" />
                  </div>","null","",""
"","","","","","html-keyboard-response","72","274541","0.0-51.0-3.0","54C623ACD50642A191E4537D31300E03","54C623ACD50642A191E4537D31300E03","00202051-9ab9-48b0-8cbe-2998d713deaa","54f8d589-66fc-4c65-830f-1dcc63bce8cc","{""participantId"":""54C623ACD50642A191E4537D31300E03"",""assignmentId"":""00202051-9ab9-48b0-8cbe-2998d713deaa"",""projectId"":""54f8d589-66fc-4c65-830f-1dcc63bce8cc""}","https://test12345.live/?participantId=54C623ACD50642A191E4537D31300E03&assignmentId=00202051-9ab9-48b0-8cbe-2998d713deaa&projectId=54f8d589-66fc-4c65-830f-1dcc63bce8cc","","null","<div style=""display: flex; justify-content: center; align-items: center;"">
                    <img src=""images/causal/causal_series_13/causal_series_13_d.jpg"" style=""width: 300px; height: 300px;"" />
                  </div>","null","",""
"","","","","","html-button-response","73","275846","0.0-53.0","54C623ACD50642A191E4537D31300E03","54C623ACD50642A191E4537D31300E03","00202051-9ab9-48b0-8cbe-2998d713deaa","54f8d589-66fc-4c65-830f-1dcc63bce8cc","{""participantId"":""54C623ACD50642A191E4537D31300E03"",""assignmentId"":""00202051-9ab9-48b0-8cbe-2998d713deaa"",""projectId"":""54f8d589-66fc-4c65-830f-1dcc63bce8cc""}","https://test12345.live/?participantId=54C623ACD50642A191E4537D31300E03&assignmentId=00202051-9ab9-48b0-8cbe-2998d713deaa&projectId=54f8d589-66fc-4c65-830f-1dcc63bce8cc","","1304","Was there a person in the picture?","0","",""
"","","","","","survey-likert","74","277994","0.0-54.0","54C623ACD50642A191E4537D31300E03","54C623ACD50642A191E4537D31300E03","00202051-9ab9-48b0-8cbe-2998d713deaa","54f8d589-66fc-4c65-830f-1dcc63bce8cc","{""participantId"":""54C623ACD50642A191E4537D31300E03"",""assignmentId"":""00202051-9ab9-48b0-8cbe-2998d713deaa"",""projectId"":""54f8d589-66fc-4c65-830f-1dcc63bce8cc""}","https://test12345.live/?participantId=54C623ACD50642A191E4537D31300E03&assignmentId=00202051-9ab9-48b0-8cbe-2998d713deaa&projectId=54f8d589-66fc-4c65-830f-1dcc63bce8cc","","2147","","{""Q0"":2}","","[0]"
"","","","","","html-button-response","75","279517","0.0-55.0","54C623ACD50642A191E4537D31300E03","54C623ACD50642A191E4537D31300E03","00202051-9ab9-48b0-8cbe-2998d713deaa","54f8d589-66fc-4c65-830f-1dcc63bce8cc","{""participantId"":""54C623ACD50642A191E4537D31300E03"",""assignmentId"":""00202051-9ab9-48b0-8cbe-2998d713deaa"",""projectId"":""54f8d589-66fc-4c65-830f-1dcc63bce8cc""}","https://test12345.live/?participantId=54C623ACD50642A191E4537D31300E03&assignmentId=00202051-9ab9-48b0-8cbe-2998d713deaa&projectId=54f8d589-66fc-4c65-830f-1dcc63bce8cc","","1522","
    <div style=""display: flex; justify-content: center; align-items: center;"">
      <img src=""images/red_deck_2.png"" style=""width: 300px; height: 300px; margin-right: 10px;"" />
      <img src=""images/blue_deck_1.png"" style=""width: 300px; height: 300px;"" />
    </div>","1","1",""
"","","","","","html-keyboard-response","76","282528","0.0-57.0-0.0","54C623ACD50642A191E4537D31300E03","54C623ACD50642A191E4537D31300E03","00202051-9ab9-48b0-8cbe-2998d713deaa","54f8d589-66fc-4c65-830f-1dcc63bce8cc","{""participantId"":""54C623ACD50642A191E4537D31300E03"",""assignmentId"":""00202051-9ab9-48b0-8cbe-2998d713deaa"",""projectId"":""54f8d589-66fc-4c65-830f-1dcc63bce8cc""}","https://test12345.live/?participantId=54C623ACD50642A191E4537D31300E03&assignmentId=00202051-9ab9-48b0-8cbe-2998d713deaa&projectId=54f8d589-66fc-4c65-830f-1dcc63bce8cc","","null","<div style=""display: flex; justify-content: center; align-items: center;"">
                    <img src=""images/semantic/semantic_series_4/semantic_series_4_a.jpg"" style=""width: 300px; height: 300px;"" />
                  </div>","null","",""
"","","","","","html-keyboard-response","77","285532","0.0-57.0-1.0","54C623ACD50642A191E4537D31300E03","54C623ACD50642A191E4537D31300E03","00202051-9ab9-48b0-8cbe-2998d713deaa","54f8d589-66fc-4c65-830f-1dcc63bce8cc","{""participantId"":""54C623ACD50642A191E4537D31300E03"",""assignmentId"":""00202051-9ab9-48b0-8cbe-2998d713deaa"",""projectId"":""54f8d589-66fc-4c65-830f-1dcc63bce8cc""}","https://test12345.live/?participantId=54C623ACD50642A191E4537D31300E03&assignmentId=00202051-9ab9-48b0-8cbe-2998d713deaa&projectId=54f8d589-66fc-4c65-830f-1dcc63bce8cc","","null","<div style=""display: flex; justify-content: center; align-items: center;"">
                    <img src=""images/semantic/semantic_series_4/semantic_series_4_b.jpg"" style=""width: 300px; height: 300px;"" />
                  </div>","null","",""
"","","","","","html-keyboard-response","78","288534","0.0-57.0-2.0","54C623ACD50642A191E4537D31300E03","54C623ACD50642A191E4537D31300E03","00202051-9ab9-48b0-8cbe-2998d713deaa","54f8d589-66fc-4c65-830f-1dcc63bce8cc","{""participantId"":""54C623ACD50642A191E4537D31300E03"",""assignmentId"":""00202051-9ab9-48b0-8cbe-2998d713deaa"",""projectId"":""54f8d589-66fc-4c65-830f-1dcc63bce8cc""}","https://test12345.live/?participantId=54C623ACD50642A191E4537D31300E03&assignmentId=00202051-9ab9-48b0-8cbe-2998d713deaa&projectId=54f8d589-66fc-4c65-830f-1dcc63bce8cc","","null","<div style=""display: flex; justify-content: center; align-items: center;"">
                    <img src=""images/semantic/semantic_series_4/semantic_series_4_c.jpg"" style=""width: 300px; height: 300px;"" />
                  </div>","null","",""
"","","","","","html-keyboard-response","79","291536","0.0-57.0-3.0","54C623ACD50642A191E4537D31300E03","54C623ACD50642A191E4537D31300E03","00202051-9ab9-48b0-8cbe-2998d713deaa","54f8d589-66fc-4c65-830f-1dcc63bce8cc","{""participantId"":""54C623ACD50642A191E4537D31300E03"",""assignmentId"":""00202051-9ab9-48b0-8cbe-2998d713deaa"",""projectId"":""54f8d589-66fc-4c65-830f-1dcc63bce8cc""}","https://test12345.live/?participantId=54C623ACD50642A191E4537D31300E03&assignmentId=00202051-9ab9-48b0-8cbe-2998d713deaa&projectId=54f8d589-66fc-4c65-830f-1dcc63bce8cc","","null","<div style=""display: flex; justify-content: center; align-items: center;"">
                    <img src=""images/semantic/semantic_series_4/semantic_series_4_d.jpg"" style=""width: 300px; height: 300px;"" />
                  </div>","null","",""
"","","","","","html-button-response","80","292655","0.0-58.0","54C623ACD50642A191E4537D31300E03","54C623ACD50642A191E4537D31300E03","00202051-9ab9-48b0-8cbe-2998d713deaa","54f8d589-66fc-4c65-830f-1dcc63bce8cc","{""participantId"":""54C623ACD50642A191E4537D31300E03"",""assignmentId"":""00202051-9ab9-48b0-8cbe-2998d713deaa"",""projectId"":""54f8d589-66fc-4c65-830f-1dcc63bce8cc""}","https://test12345.live/?participantId=54C623ACD50642A191E4537D31300E03&assignmentId=00202051-9ab9-48b0-8cbe-2998d713deaa&projectId=54f8d589-66fc-4c65-830f-1dcc63bce8cc","","1120","Was there a person in the picture?","1","",""
"","","","","","survey-likert","81","296730","0.0-59.0","54C623ACD50642A191E4537D31300E03","54C623ACD50642A191E4537D31300E03","00202051-9ab9-48b0-8cbe-2998d713deaa","54f8d589-66fc-4c65-830f-1dcc63bce8cc","{""participantId"":""54C623ACD50642A191E4537D31300E03"",""assignmentId"":""00202051-9ab9-48b0-8cbe-2998d713deaa"",""projectId"":""54f8d589-66fc-4c65-830f-1dcc63bce8cc""}","https://test12345.live/?participantId=54C623ACD50642A191E4537D31300E03&assignmentId=00202051-9ab9-48b0-8cbe-2998d713deaa&projectId=54f8d589-66fc-4c65-830f-1dcc63bce8cc","","4073","","{""Q0"":1}","","[0]"
"","","","","","html-button-response","82","298368","0.0-60.0","54C623ACD50642A191E4537D31300E03","54C623ACD50642A191E4537D31300E03","00202051-9ab9-48b0-8cbe-2998d713deaa","54f8d589-66fc-4c65-830f-1dcc63bce8cc","{""participantId"":""54C623ACD50642A191E4537D31300E03"",""assignmentId"":""00202051-9ab9-48b0-8cbe-2998d713deaa"",""projectId"":""54f8d589-66fc-4c65-830f-1dcc63bce8cc""}","https://test12345.live/?participantId=54C623ACD50642A191E4537D31300E03&assignmentId=00202051-9ab9-48b0-8cbe-2998d713deaa&projectId=54f8d589-66fc-4c65-830f-1dcc63bce8cc","","1637","
    <div style=""display: flex; justify-content: center; align-items: center;"">
      <img src=""images/red_deck_2.png"" style=""width: 300px; height: 300px; margin-right: 10px;"" />
      <img src=""images/blue_deck_1.png"" style=""width: 300px; height: 300px;"" />
    </div>","1","1",""
"","","","","","html-keyboard-response","83","301372","0.0-62.0-0.0","54C623ACD50642A191E4537D31300E03","54C623ACD50642A191E4537D31300E03","00202051-9ab9-48b0-8cbe-2998d713deaa","54f8d589-66fc-4c65-830f-1dcc63bce8cc","{""participantId"":""54C623ACD50642A191E4537D31300E03"",""assignmentId"":""00202051-9ab9-48b0-8cbe-2998d713deaa"",""projectId"":""54f8d589-66fc-4c65-830f-1dcc63bce8cc""}","https://test12345.live/?participantId=54C623ACD50642A191E4537D31300E03&assignmentId=00202051-9ab9-48b0-8cbe-2998d713deaa&projectId=54f8d589-66fc-4c65-830f-1dcc63bce8cc","","null","<div style=""display: flex; justify-content: center; align-items: center;"">
                    <img src=""images/semantic/semantic_series_17/semantic_series_17_a.jpg"" style=""width: 300px; height: 300px;"" />
                  </div>","null","",""
"","","","","","html-keyboard-response","84","304377","0.0-62.0-1.0","54C623ACD50642A191E4537D31300E03","54C623ACD50642A191E4537D31300E03","00202051-9ab9-48b0-8cbe-2998d713deaa","54f8d589-66fc-4c65-830f-1dcc63bce8cc","{""participantId"":""54C623ACD50642A191E4537D31300E03"",""assignmentId"":""00202051-9ab9-48b0-8cbe-2998d713deaa"",""projectId"":""54f8d589-66fc-4c65-830f-1dcc63bce8cc""}","https://test12345.live/?participantId=54C623ACD50642A191E4537D31300E03&assignmentId=00202051-9ab9-48b0-8cbe-2998d713deaa&projectId=54f8d589-66fc-4c65-830f-1dcc63bce8cc","","null","<div style=""display: flex; justify-content: center; align-items: center;"">
                    <img src=""images/semantic/semantic_series_17/semantic_series_17_b.jpg"" style=""width: 300px; height: 300px;"" />
                  </div>","null","",""
"","","","","","html-keyboard-response","85","307391","0.0-62.0-2.0","54C623ACD50642A191E4537D31300E03","54C623ACD50642A191E4537D31300E03","00202051-9ab9-48b0-8cbe-2998d713deaa","54f8d589-66fc-4c65-830f-1dcc63bce8cc","{""participantId"":""54C623ACD50642A191E4537D31300E03"",""assignmentId"":""00202051-9ab9-48b0-8cbe-2998d713deaa"",""projectId"":""54f8d589-66fc-4c65-830f-1dcc63bce8cc""}","https://test12345.live/?participantId=54C623ACD50642A191E4537D31300E03&assignmentId=00202051-9ab9-48b0-8cbe-2998d713deaa&projectId=54f8d589-66fc-4c65-830f-1dcc63bce8cc","","null","<div style=""display: flex; justify-content: center; align-items: center;"">
                    <img src=""images/semantic/semantic_series_17/semantic_series_17_c.jpg"" style=""width: 300px; height: 300px;"" />
                  </div>","null","",""
"","","","","","html-keyboard-response","86","310406","0.0-62.0-3.0","54C623ACD50642A191E4537D31300E03","54C623ACD50642A191E4537D31300E03","00202051-9ab9-48b0-8cbe-2998d713deaa","54f8d589-66fc-4c65-830f-1dcc63bce8cc","{""participantId"":""54C623ACD50642A191E4537D31300E03"",""assignmentId"":""00202051-9ab9-48b0-8cbe-2998d713deaa"",""projectId"":""54f8d589-66fc-4c65-830f-1dcc63bce8cc""}","https://test12345.live/?participantId=54C623ACD50642A191E4537D31300E03&assignmentId=00202051-9ab9-48b0-8cbe-2998d713deaa&projectId=54f8d589-66fc-4c65-830f-1dcc63bce8cc","","null","<div style=""display: flex; justify-content: center; align-items: center;"">
                    <img src=""images/semantic/semantic_series_17/semantic_series_17_d.jpg"" style=""width: 300px; height: 300px;"" />
                  </div>","null","",""
"","","","","","html-button-response","87","311431","0.0-63.0","54C623ACD50642A191E4537D31300E03","54C623ACD50642A191E4537D31300E03","00202051-9ab9-48b0-8cbe-2998d713deaa","54f8d589-66fc-4c65-830f-1dcc63bce8cc","{""participantId"":""54C623ACD50642A191E4537D31300E03"",""assignmentId"":""00202051-9ab9-48b0-8cbe-2998d713deaa"",""projectId"":""54f8d589-66fc-4c65-830f-1dcc63bce8cc""}","https://test12345.live/?participantId=54C623ACD50642A191E4537D31300E03&assignmentId=00202051-9ab9-48b0-8cbe-2998d713deaa&projectId=54f8d589-66fc-4c65-830f-1dcc63bce8cc","","1023","Was there a person in the picture?","0","",""
"","","","","","survey-likert","88","313930","0.0-64.0","54C623ACD50642A191E4537D31300E03","54C623ACD50642A191E4537D31300E03","00202051-9ab9-48b0-8cbe-2998d713deaa","54f8d589-66fc-4c65-830f-1dcc63bce8cc","{""participantId"":""54C623ACD50642A191E4537D31300E03"",""assignmentId"":""00202051-9ab9-48b0-8cbe-2998d713deaa"",""projectId"":""54f8d589-66fc-4c65-830f-1dcc63bce8cc""}","https://test12345.live/?participantId=54C623ACD50642A191E4537D31300E03&assignmentId=00202051-9ab9-48b0-8cbe-2998d713deaa&projectId=54f8d589-66fc-4c65-830f-1dcc63bce8cc","","2499","","{""Q0"":2}","","[0]"
"","","","","","html-button-response","89","315591","0.0-65.0","54C623ACD50642A191E4537D31300E03","54C623ACD50642A191E4537D31300E03","00202051-9ab9-48b0-8cbe-2998d713deaa","54f8d589-66fc-4c65-830f-1dcc63bce8cc","{""participantId"":""54C623ACD50642A191E4537D31300E03"",""assignmentId"":""00202051-9ab9-48b0-8cbe-2998d713deaa"",""projectId"":""54f8d589-66fc-4c65-830f-1dcc63bce8cc""}","https://test12345.live/?participantId=54C623ACD50642A191E4537D31300E03&assignmentId=00202051-9ab9-48b0-8cbe-2998d713deaa&projectId=54f8d589-66fc-4c65-830f-1dcc63bce8cc","","1658","
    <div style=""display: flex; justify-content: center; align-items: center;"">
      <img src=""images/red_deck_2.png"" style=""width: 300px; height: 300px; margin-right: 10px;"" />
      <img src=""images/blue_deck_1.png"" style=""width: 300px; height: 300px;"" />
    </div>","1","1",""
"","","","","","html-keyboard-response","90","318592","0.0-67.0-0.0","54C623ACD50642A191E4537D31300E03","54C623ACD50642A191E4537D31300E03","00202051-9ab9-48b0-8cbe-2998d713deaa","54f8d589-66fc-4c65-830f-1dcc63bce8cc","{""participantId"":""54C623ACD50642A191E4537D31300E03"",""assignmentId"":""00202051-9ab9-48b0-8cbe-2998d713deaa"",""projectId"":""54f8d589-66fc-4c65-830f-1dcc63bce8cc""}","https://test12345.live/?participantId=54C623ACD50642A191E4537D31300E03&assignmentId=00202051-9ab9-48b0-8cbe-2998d713deaa&projectId=54f8d589-66fc-4c65-830f-1dcc63bce8cc","","null","<div style=""display: flex; justify-content: center; align-items: center;"">
                    <img src=""images/semantic/semantic_series_11/semantic_series_11_a.jpg"" style=""width: 300px; height: 300px;"" />
                  </div>","null","",""
"","","","","","html-keyboard-response","91","321596","0.0-67.0-1.0","54C623ACD50642A191E4537D31300E03","54C623ACD50642A191E4537D31300E03","00202051-9ab9-48b0-8cbe-2998d713deaa","54f8d589-66fc-4c65-830f-1dcc63bce8cc","{""participantId"":""54C623ACD50642A191E4537D31300E03"",""assignmentId"":""00202051-9ab9-48b0-8cbe-2998d713deaa"",""projectId"":""54f8d589-66fc-4c65-830f-1dcc63bce8cc""}","https://test12345.live/?participantId=54C623ACD50642A191E4537D31300E03&assignmentId=00202051-9ab9-48b0-8cbe-2998d713deaa&projectId=54f8d589-66fc-4c65-830f-1dcc63bce8cc","","null","<div style=""display: flex; justify-content: center; align-items: center;"">
                    <img src=""images/semantic/semantic_series_11/semantic_series_11_b.jpg"" style=""width: 300px; height: 300px;"" />
                  </div>","null","",""
"","","","","","html-keyboard-response","92","324596","0.0-67.0-2.0","54C623ACD50642A191E4537D31300E03","54C623ACD50642A191E4537D31300E03","00202051-9ab9-48b0-8cbe-2998d713deaa","54f8d589-66fc-4c65-830f-1dcc63bce8cc","{""participantId"":""54C623ACD50642A191E4537D31300E03"",""assignmentId"":""00202051-9ab9-48b0-8cbe-2998d713deaa"",""projectId"":""54f8d589-66fc-4c65-830f-1dcc63bce8cc""}","https://test12345.live/?participantId=54C623ACD50642A191E4537D31300E03&assignmentId=00202051-9ab9-48b0-8cbe-2998d713deaa&projectId=54f8d589-66fc-4c65-830f-1dcc63bce8cc","","null","<div style=""display: flex; justify-content: center; align-items: center;"">
                    <img src=""images/semantic/semantic_series_11/semantic_series_11_c.jpg"" style=""width: 300px; height: 300px;"" />
                  </div>","null","",""
"","","","","","html-keyboard-response","93","327598","0.0-67.0-3.0","54C623ACD50642A191E4537D31300E03","54C623ACD50642A191E4537D31300E03","00202051-9ab9-48b0-8cbe-2998d713deaa","54f8d589-66fc-4c65-830f-1dcc63bce8cc","{""participantId"":""54C623ACD50642A191E4537D31300E03"",""assignmentId"":""00202051-9ab9-48b0-8cbe-2998d713deaa"",""projectId"":""54f8d589-66fc-4c65-830f-1dcc63bce8cc""}","https://test12345.live/?participantId=54C623ACD50642A191E4537D31300E03&assignmentId=00202051-9ab9-48b0-8cbe-2998d713deaa&projectId=54f8d589-66fc-4c65-830f-1dcc63bce8cc","","null","<div style=""display: flex; justify-content: center; align-items: center;"">
                    <img src=""images/semantic/semantic_series_11/semantic_series_11_d.jpg"" style=""width: 300px; height: 300px;"" />
                  </div>","null","",""
"","","","","","html-button-response","94","328590","0.0-68.0","54C623ACD50642A191E4537D31300E03","54C623ACD50642A191E4537D31300E03","00202051-9ab9-48b0-8cbe-2998d713deaa","54f8d589-66fc-4c65-830f-1dcc63bce8cc","{""participantId"":""54C623ACD50642A191E4537D31300E03"",""assignmentId"":""00202051-9ab9-48b0-8cbe-2998d713deaa"",""projectId"":""54f8d589-66fc-4c65-830f-1dcc63bce8cc""}","https://test12345.live/?participantId=54C623ACD50642A191E4537D31300E03&assignmentId=00202051-9ab9-48b0-8cbe-2998d713deaa&projectId=54f8d589-66fc-4c65-830f-1dcc63bce8cc","","991","Was there a person in the picture?","0","",""
"","","","","","survey-likert","95","330364","0.0-69.0","54C623ACD50642A191E4537D31300E03","54C623ACD50642A191E4537D31300E03","00202051-9ab9-48b0-8cbe-2998d713deaa","54f8d589-66fc-4c65-830f-1dcc63bce8cc","{""participantId"":""54C623ACD50642A191E4537D31300E03"",""assignmentId"":""00202051-9ab9-48b0-8cbe-2998d713deaa"",""projectId"":""54f8d589-66fc-4c65-830f-1dcc63bce8cc""}","https://test12345.live/?participantId=54C623ACD50642A191E4537D31300E03&assignmentId=00202051-9ab9-48b0-8cbe-2998d713deaa&projectId=54f8d589-66fc-4c65-830f-1dcc63bce8cc","","1773","","{""Q0"":0}","","[0]"
"","","","","","html-button-response","96","331675","0.0-70.0","54C623ACD50642A191E4537D31300E03","54C623ACD50642A191E4537D31300E03","00202051-9ab9-48b0-8cbe-2998d713deaa","54f8d589-66fc-4c65-830f-1dcc63bce8cc","{""participantId"":""54C623ACD50642A191E4537D31300E03"",""assignmentId"":""00202051-9ab9-48b0-8cbe-2998d713deaa"",""projectId"":""54f8d589-66fc-4c65-830f-1dcc63bce8cc""}","https://test12345.live/?participantId=54C623ACD50642A191E4537D31300E03&assignmentId=00202051-9ab9-48b0-8cbe-2998d713deaa&projectId=54f8d589-66fc-4c65-830f-1dcc63bce8cc","","1309","
    <div style=""display: flex; justify-content: center; align-items: center;"">
      <img src=""images/red_deck_2.png"" style=""width: 300px; height: 300px; margin-right: 10px;"" />
      <img src=""images/blue_deck_1.png"" style=""width: 300px; height: 300px;"" />
    </div>","1","1",""
"","","","","","html-keyboard-response","97","334677","0.0-72.0-0.0","54C623ACD50642A191E4537D31300E03","54C623ACD50642A191E4537D31300E03","00202051-9ab9-48b0-8cbe-2998d713deaa","54f8d589-66fc-4c65-830f-1dcc63bce8cc","{""participantId"":""54C623ACD50642A191E4537D31300E03"",""assignmentId"":""00202051-9ab9-48b0-8cbe-2998d713deaa"",""projectId"":""54f8d589-66fc-4c65-830f-1dcc63bce8cc""}","https://test12345.live/?participantId=54C623ACD50642A191E4537D31300E03&assignmentId=00202051-9ab9-48b0-8cbe-2998d713deaa&projectId=54f8d589-66fc-4c65-830f-1dcc63bce8cc","","null","<div style=""display: flex; justify-content: center; align-items: center;"">
                    <img src=""images/semantic/semantic_series_8/semantic_series_8_a.jpg"" style=""width: 300px; height: 300px;"" />
                  </div>","null","",""
"","","","","","html-keyboard-response","98","337687","0.0-72.0-1.0","54C623ACD50642A191E4537D31300E03","54C623ACD50642A191E4537D31300E03","00202051-9ab9-48b0-8cbe-2998d713deaa","54f8d589-66fc-4c65-830f-1dcc63bce8cc","{""participantId"":""54C623ACD50642A191E4537D31300E03"",""assignmentId"":""00202051-9ab9-48b0-8cbe-2998d713deaa"",""projectId"":""54f8d589-66fc-4c65-830f-1dcc63bce8cc""}","https://test12345.live/?participantId=54C623ACD50642A191E4537D31300E03&assignmentId=00202051-9ab9-48b0-8cbe-2998d713deaa&projectId=54f8d589-66fc-4c65-830f-1dcc63bce8cc","","null","<div style=""display: flex; justify-content: center; align-items: center;"">
                    <img src=""images/semantic/semantic_series_8/semantic_series_8_b.jpg"" style=""width: 300px; height: 300px;"" />
                  </div>","null","",""
"","","","","","html-keyboard-response","99","340695","0.0-72.0-2.0","54C623ACD50642A191E4537D31300E03","54C623ACD50642A191E4537D31300E03","00202051-9ab9-48b0-8cbe-2998d713deaa","54f8d589-66fc-4c65-830f-1dcc63bce8cc","{""participantId"":""54C623ACD50642A191E4537D31300E03"",""assignmentId"":""00202051-9ab9-48b0-8cbe-2998d713deaa"",""projectId"":""54f8d589-66fc-4c65-830f-1dcc63bce8cc""}","https://test12345.live/?participantId=54C623ACD50642A191E4537D31300E03&assignmentId=00202051-9ab9-48b0-8cbe-2998d713deaa&projectId=54f8d589-66fc-4c65-830f-1dcc63bce8cc","","null","<div style=""display: flex; justify-content: center; align-items: center;"">
                    <img src=""images/semantic/semantic_series_8/semantic_series_8_c.jpg"" style=""width: 300px; height: 300px;"" />
                  </div>","null","",""
"","","","","","html-keyboard-response","100","343697","0.0-72.0-3.0","54C623ACD50642A191E4537D31300E03","54C623ACD50642A191E4537D31300E03","00202051-9ab9-48b0-8cbe-2998d713deaa","54f8d589-66fc-4c65-830f-1dcc63bce8cc","{""participantId"":""54C623ACD50642A191E4537D31300E03"",""assignmentId"":""00202051-9ab9-48b0-8cbe-2998d713deaa"",""projectId"":""54f8d589-66fc-4c65-830f-1dcc63bce8cc""}","https://test12345.live/?participantId=54C623ACD50642A191E4537D31300E03&assignmentId=00202051-9ab9-48b0-8cbe-2998d713deaa&projectId=54f8d589-66fc-4c65-830f-1dcc63bce8cc","","null","<div style=""display: flex; justify-content: center; align-items: center;"">
                    <img src=""images/semantic/semantic_series_8/semantic_series_8_d.jpg"" style=""width: 300px; height: 300px;"" />
                  </div>","null","",""
"","","","","","html-button-response","101","345161","0.0-73.0","54C623ACD50642A191E4537D31300E03","54C623ACD50642A191E4537D31300E03","00202051-9ab9-48b0-8cbe-2998d713deaa","54f8d589-66fc-4c65-830f-1dcc63bce8cc","{""participantId"":""54C623ACD50642A191E4537D31300E03"",""assignmentId"":""00202051-9ab9-48b0-8cbe-2998d713deaa"",""projectId"":""54f8d589-66fc-4c65-830f-1dcc63bce8cc""}","https://test12345.live/?participantId=54C623ACD50642A191E4537D31300E03&assignmentId=00202051-9ab9-48b0-8cbe-2998d713deaa&projectId=54f8d589-66fc-4c65-830f-1dcc63bce8cc","","1463","Was there a person in the picture?","1","",""
"","","","","","survey-likert","102","348709","0.0-74.0","54C623ACD50642A191E4537D31300E03","54C623ACD50642A191E4537D31300E03","00202051-9ab9-48b0-8cbe-2998d713deaa","54f8d589-66fc-4c65-830f-1dcc63bce8cc","{""participantId"":""54C623ACD50642A191E4537D31300E03"",""assignmentId"":""00202051-9ab9-48b0-8cbe-2998d713deaa"",""projectId"":""54f8d589-66fc-4c65-830f-1dcc63bce8cc""}","https://test12345.live/?participantId=54C623ACD50642A191E4537D31300E03&assignmentId=00202051-9ab9-48b0-8cbe-2998d713deaa&projectId=54f8d589-66fc-4c65-830f-1dcc63bce8cc","","3548","","{""Q0"":3}","","[0]"
"","","","","","html-button-response","103","349882","0.0-75.0","54C623ACD50642A191E4537D31300E03","54C623ACD50642A191E4537D31300E03","00202051-9ab9-48b0-8cbe-2998d713deaa","54f8d589-66fc-4c65-830f-1dcc63bce8cc","{""participantId"":""54C623ACD50642A191E4537D31300E03"",""assignmentId"":""00202051-9ab9-48b0-8cbe-2998d713deaa"",""projectId"":""54f8d589-66fc-4c65-830f-1dcc63bce8cc""}","https://test12345.live/?participantId=54C623ACD50642A191E4537D31300E03&assignmentId=00202051-9ab9-48b0-8cbe-2998d713deaa&projectId=54f8d589-66fc-4c65-830f-1dcc63bce8cc","","1173","
    <div style=""display: flex; justify-content: center; align-items: center;"">
      <img src=""images/red_deck_2.png"" style=""width: 300px; height: 300px; margin-right: 10px;"" />
      <img src=""images/blue_deck_1.png"" style=""width: 300px; height: 300px;"" />
    </div>","1","1",""
"","","","","","html-keyboard-response","104","352883","0.0-77.0-0.0","54C623ACD50642A191E4537D31300E03","54C623ACD50642A191E4537D31300E03","00202051-9ab9-48b0-8cbe-2998d713deaa","54f8d589-66fc-4c65-830f-1dcc63bce8cc","{""participantId"":""54C623ACD50642A191E4537D31300E03"",""assignmentId"":""00202051-9ab9-48b0-8cbe-2998d713deaa"",""projectId"":""54f8d589-66fc-4c65-830f-1dcc63bce8cc""}","https://test12345.live/?participantId=54C623ACD50642A191E4537D31300E03&assignmentId=00202051-9ab9-48b0-8cbe-2998d713deaa&projectId=54f8d589-66fc-4c65-830f-1dcc63bce8cc","","null","<div style=""display: flex; justify-content: center; align-items: center;"">
                    <img src=""images/semantic/semantic_series_6/semantic_series_6_a.jpg"" style=""width: 300px; height: 300px;"" />
                  </div>","null","",""
"","","","","","html-keyboard-response","105","355886","0.0-77.0-1.0","54C623ACD50642A191E4537D31300E03","54C623ACD50642A191E4537D31300E03","00202051-9ab9-48b0-8cbe-2998d713deaa","54f8d589-66fc-4c65-830f-1dcc63bce8cc","{""participantId"":""54C623ACD50642A191E4537D31300E03"",""assignmentId"":""00202051-9ab9-48b0-8cbe-2998d713deaa"",""projectId"":""54f8d589-66fc-4c65-830f-1dcc63bce8cc""}","https://test12345.live/?participantId=54C623ACD50642A191E4537D31300E03&assignmentId=00202051-9ab9-48b0-8cbe-2998d713deaa&projectId=54f8d589-66fc-4c65-830f-1dcc63bce8cc","","null","<div style=""display: flex; justify-content: center; align-items: center;"">
                    <img src=""images/semantic/semantic_series_6/semantic_series_6_b.jpg"" style=""width: 300px; height: 300px;"" />
                  </div>","null","",""
"","","","","","html-keyboard-response","106","358893","0.0-77.0-2.0","54C623ACD50642A191E4537D31300E03","54C623ACD50642A191E4537D31300E03","00202051-9ab9-48b0-8cbe-2998d713deaa","54f8d589-66fc-4c65-830f-1dcc63bce8cc","{""participantId"":""54C623ACD50642A191E4537D31300E03"",""assignmentId"":""00202051-9ab9-48b0-8cbe-2998d713deaa"",""projectId"":""54f8d589-66fc-4c65-830f-1dcc63bce8cc""}","https://test12345.live/?participantId=54C623ACD50642A191E4537D31300E03&assignmentId=00202051-9ab9-48b0-8cbe-2998d713deaa&projectId=54f8d589-66fc-4c65-830f-1dcc63bce8cc","","null","<div style=""display: flex; justify-content: center; align-items: center;"">
                    <img src=""images/semantic/semantic_series_6/semantic_series_6_c.jpg"" style=""width: 300px; height: 300px;"" />
                  </div>","null","",""
"","","","","","html-keyboard-response","107","361897","0.0-77.0-3.0","54C623ACD50642A191E4537D31300E03","54C623ACD50642A191E4537D31300E03","00202051-9ab9-48b0-8cbe-2998d713deaa","54f8d589-66fc-4c65-830f-1dcc63bce8cc","{""participantId"":""54C623ACD50642A191E4537D31300E03"",""assignmentId"":""00202051-9ab9-48b0-8cbe-2998d713deaa"",""projectId"":""54f8d589-66fc-4c65-830f-1dcc63bce8cc""}","https://test12345.live/?participantId=54C623ACD50642A191E4537D31300E03&assignmentId=00202051-9ab9-48b0-8cbe-2998d713deaa&projectId=54f8d589-66fc-4c65-830f-1dcc63bce8cc","","null","<div style=""display: flex; justify-content: center; align-items: center;"">
                    <img src=""images/semantic/semantic_series_6/semantic_series_6_d.jpg"" style=""width: 300px; height: 300px;"" />
                  </div>","null","",""
"","","","","","html-button-response","108","363085","0.0-78.0","54C623ACD50642A191E4537D31300E03","54C623ACD50642A191E4537D31300E03","00202051-9ab9-48b0-8cbe-2998d713deaa","54f8d589-66fc-4c65-830f-1dcc63bce8cc","{""participantId"":""54C623ACD50642A191E4537D31300E03"",""assignmentId"":""00202051-9ab9-48b0-8cbe-2998d713deaa"",""projectId"":""54f8d589-66fc-4c65-830f-1dcc63bce8cc""}","https://test12345.live/?participantId=54C623ACD50642A191E4537D31300E03&assignmentId=00202051-9ab9-48b0-8cbe-2998d713deaa&projectId=54f8d589-66fc-4c65-830f-1dcc63bce8cc","","1187","Was there a person in the picture?","1","",""
"","","","","","survey-likert","109","366919","0.0-79.0","54C623ACD50642A191E4537D31300E03","54C623ACD50642A191E4537D31300E03","00202051-9ab9-48b0-8cbe-2998d713deaa","54f8d589-66fc-4c65-830f-1dcc63bce8cc","{""participantId"":""54C623ACD50642A191E4537D31300E03"",""assignmentId"":""00202051-9ab9-48b0-8cbe-2998d713deaa"",""projectId"":""54f8d589-66fc-4c65-830f-1dcc63bce8cc""}","https://test12345.live/?participantId=54C623ACD50642A191E4537D31300E03&assignmentId=00202051-9ab9-48b0-8cbe-2998d713deaa&projectId=54f8d589-66fc-4c65-830f-1dcc63bce8cc","","3833","","{""Q0"":3}","","[0]"
"","","","","","html-button-response","110","367800","0.0-80.0","54C623ACD50642A191E4537D31300E03","54C623ACD50642A191E4537D31300E03","00202051-9ab9-48b0-8cbe-2998d713deaa","54f8d589-66fc-4c65-830f-1dcc63bce8cc","{""participantId"":""54C623ACD50642A191E4537D31300E03"",""assignmentId"":""00202051-9ab9-48b0-8cbe-2998d713deaa"",""projectId"":""54f8d589-66fc-4c65-830f-1dcc63bce8cc""}","https://test12345.live/?participantId=54C623ACD50642A191E4537D31300E03&assignmentId=00202051-9ab9-48b0-8cbe-2998d713deaa&projectId=54f8d589-66fc-4c65-830f-1dcc63bce8cc","","881","
    <div style=""display: flex; justify-content: center; align-items: center;"">
      <img src=""images/red_deck_2.png"" style=""width: 300px; height: 300px; margin-right: 10px;"" />
      <img src=""images/blue_deck_1.png"" style=""width: 300px; height: 300px;"" />
    </div>","1","1",""
"","","","","","html-keyboard-response","111","370803","0.0-82.0-0.0","54C623ACD50642A191E4537D31300E03","54C623ACD50642A191E4537D31300E03","00202051-9ab9-48b0-8cbe-2998d713deaa","54f8d589-66fc-4c65-830f-1dcc63bce8cc","{""participantId"":""54C623ACD50642A191E4537D31300E03"",""assignmentId"":""00202051-9ab9-48b0-8cbe-2998d713deaa"",""projectId"":""54f8d589-66fc-4c65-830f-1dcc63bce8cc""}","https://test12345.live/?participantId=54C623ACD50642A191E4537D31300E03&assignmentId=00202051-9ab9-48b0-8cbe-2998d713deaa&projectId=54f8d589-66fc-4c65-830f-1dcc63bce8cc","","null","<div style=""display: flex; justify-content: center; align-items: center;"">
                    <img src=""images/semantic/semantic_series_10/semantic_series_10_a.jpg"" style=""width: 300px; height: 300px;"" />
                  </div>","null","",""
"","","","","","html-keyboard-response","112","373805","0.0-82.0-1.0","54C623ACD50642A191E4537D31300E03","54C623ACD50642A191E4537D31300E03","00202051-9ab9-48b0-8cbe-2998d713deaa","54f8d589-66fc-4c65-830f-1dcc63bce8cc","{""participantId"":""54C623ACD50642A191E4537D31300E03"",""assignmentId"":""00202051-9ab9-48b0-8cbe-2998d713deaa"",""projectId"":""54f8d589-66fc-4c65-830f-1dcc63bce8cc""}","https://test12345.live/?participantId=54C623ACD50642A191E4537D31300E03&assignmentId=00202051-9ab9-48b0-8cbe-2998d713deaa&projectId=54f8d589-66fc-4c65-830f-1dcc63bce8cc","","null","<div style=""display: flex; justify-content: center; align-items: center;"">
                    <img src=""images/semantic/semantic_series_10/semantic_series_10_b.jpg"" style=""width: 300px; height: 300px;"" />
                  </div>","null","",""
"","","","","","html-keyboard-response","113","376806","0.0-82.0-2.0","54C623ACD50642A191E4537D31300E03","54C623ACD50642A191E4537D31300E03","00202051-9ab9-48b0-8cbe-2998d713deaa","54f8d589-66fc-4c65-830f-1dcc63bce8cc","{""participantId"":""54C623ACD50642A191E4537D31300E03"",""assignmentId"":""00202051-9ab9-48b0-8cbe-2998d713deaa"",""projectId"":""54f8d589-66fc-4c65-830f-1dcc63bce8cc""}","https://test12345.live/?participantId=54C623ACD50642A191E4537D31300E03&assignmentId=00202051-9ab9-48b0-8cbe-2998d713deaa&projectId=54f8d589-66fc-4c65-830f-1dcc63bce8cc","","null","<div style=""display: flex; justify-content: center; align-items: center;"">
                    <img src=""images/semantic/semantic_series_10/semantic_series_10_c.jpg"" style=""width: 300px; height: 300px;"" />
                  </div>","null","",""
"","","","","","html-keyboard-response","114","379811","0.0-82.0-3.0","54C623ACD50642A191E4537D31300E03","54C623ACD50642A191E4537D31300E03","00202051-9ab9-48b0-8cbe-2998d713deaa","54f8d589-66fc-4c65-830f-1dcc63bce8cc","{""participantId"":""54C623ACD50642A191E4537D31300E03"",""assignmentId"":""00202051-9ab9-48b0-8cbe-2998d713deaa"",""projectId"":""54f8d589-66fc-4c65-830f-1dcc63bce8cc""}","https://test12345.live/?participantId=54C623ACD50642A191E4537D31300E03&assignmentId=00202051-9ab9-48b0-8cbe-2998d713deaa&projectId=54f8d589-66fc-4c65-830f-1dcc63bce8cc","","null","<div style=""display: flex; justify-content: center; align-items: center;"">
                    <img src=""images/semantic/semantic_series_10/semantic_series_10_d.jpg"" style=""width: 300px; height: 300px;"" />
                  </div>","null","",""
"","","","","","html-button-response","115","382798","0.0-83.0","54C623ACD50642A191E4537D31300E03","54C623ACD50642A191E4537D31300E03","00202051-9ab9-48b0-8cbe-2998d713deaa","54f8d589-66fc-4c65-830f-1dcc63bce8cc","{""participantId"":""54C623ACD50642A191E4537D31300E03"",""assignmentId"":""00202051-9ab9-48b0-8cbe-2998d713deaa"",""projectId"":""54f8d589-66fc-4c65-830f-1dcc63bce8cc""}","https://test12345.live/?participantId=54C623ACD50642A191E4537D31300E03&assignmentId=00202051-9ab9-48b0-8cbe-2998d713deaa&projectId=54f8d589-66fc-4c65-830f-1dcc63bce8cc","","2986","Was there a person in the picture?","1","",""
"","","","","","survey-likert","116","385544","0.0-84.0","54C623ACD50642A191E4537D31300E03","54C623ACD50642A191E4537D31300E03","00202051-9ab9-48b0-8cbe-2998d713deaa","54f8d589-66fc-4c65-830f-1dcc63bce8cc","{""participantId"":""54C623ACD50642A191E4537D31300E03"",""assignmentId"":""00202051-9ab9-48b0-8cbe-2998d713deaa"",""projectId"":""54f8d589-66fc-4c65-830f-1dcc63bce8cc""}","https://test12345.live/?participantId=54C623ACD50642A191E4537D31300E03&assignmentId=00202051-9ab9-48b0-8cbe-2998d713deaa&projectId=54f8d589-66fc-4c65-830f-1dcc63bce8cc","","2746","","{""Q0"":3}","","[0]"
"","","","","","html-button-response","117","386496","0.0-85.0","54C623ACD50642A191E4537D31300E03","54C623ACD50642A191E4537D31300E03","00202051-9ab9-48b0-8cbe-2998d713deaa","54f8d589-66fc-4c65-830f-1dcc63bce8cc","{""participantId"":""54C623ACD50642A191E4537D31300E03"",""assignmentId"":""00202051-9ab9-48b0-8cbe-2998d713deaa"",""projectId"":""54f8d589-66fc-4c65-830f-1dcc63bce8cc""}","https://test12345.live/?participantId=54C623ACD50642A191E4537D31300E03&assignmentId=00202051-9ab9-48b0-8cbe-2998d713deaa&projectId=54f8d589-66fc-4c65-830f-1dcc63bce8cc","","950","
    <div style=""display: flex; justify-content: center; align-items: center;"">
      <img src=""images/red_deck_2.png"" style=""width: 300px; height: 300px; margin-right: 10px;"" />
      <img src=""images/blue_deck_1.png"" style=""width: 300px; height: 300px;"" />
    </div>","1","1",""
"","","","","","html-keyboard-response","118","389501","0.0-87.0-0.0","54C623ACD50642A191E4537D31300E03","54C623ACD50642A191E4537D31300E03","00202051-9ab9-48b0-8cbe-2998d713deaa","54f8d589-66fc-4c65-830f-1dcc63bce8cc","{""participantId"":""54C623ACD50642A191E4537D31300E03"",""assignmentId"":""00202051-9ab9-48b0-8cbe-2998d713deaa"",""projectId"":""54f8d589-66fc-4c65-830f-1dcc63bce8cc""}","https://test12345.live/?participantId=54C623ACD50642A191E4537D31300E03&assignmentId=00202051-9ab9-48b0-8cbe-2998d713deaa&projectId=54f8d589-66fc-4c65-830f-1dcc63bce8cc","","null","<div style=""display: flex; justify-content: center; align-items: center;"">
                    <img src=""images/semantic/semantic_series_2/semantic_series_2_a.jpg"" style=""width: 300px; height: 300px;"" />
                  </div>","null","",""
"","","","","","html-keyboard-response","119","392504","0.0-87.0-1.0","54C623ACD50642A191E4537D31300E03","54C623ACD50642A191E4537D31300E03","00202051-9ab9-48b0-8cbe-2998d713deaa","54f8d589-66fc-4c65-830f-1dcc63bce8cc","{""participantId"":""54C623ACD50642A191E4537D31300E03"",""assignmentId"":""00202051-9ab9-48b0-8cbe-2998d713deaa"",""projectId"":""54f8d589-66fc-4c65-830f-1dcc63bce8cc""}","https://test12345.live/?participantId=54C623ACD50642A191E4537D31300E03&assignmentId=00202051-9ab9-48b0-8cbe-2998d713deaa&projectId=54f8d589-66fc-4c65-830f-1dcc63bce8cc","","null","<div style=""display: flex; justify-content: center; align-items: center;"">
                    <img src=""images/semantic/semantic_series_2/semantic_series_2_b.jpg"" style=""width: 300px; height: 300px;"" />
                  </div>","null","",""
"","","","","","html-keyboard-response","120","395506","0.0-87.0-2.0","54C623ACD50642A191E4537D31300E03","54C623ACD50642A191E4537D31300E03","00202051-9ab9-48b0-8cbe-2998d713deaa","54f8d589-66fc-4c65-830f-1dcc63bce8cc","{""participantId"":""54C623ACD50642A191E4537D31300E03"",""assignmentId"":""00202051-9ab9-48b0-8cbe-2998d713deaa"",""projectId"":""54f8d589-66fc-4c65-830f-1dcc63bce8cc""}","https://test12345.live/?participantId=54C623ACD50642A191E4537D31300E03&assignmentId=00202051-9ab9-48b0-8cbe-2998d713deaa&projectId=54f8d589-66fc-4c65-830f-1dcc63bce8cc","","null","<div style=""display: flex; justify-content: center; align-items: center;"">
                    <img src=""images/semantic/semantic_series_2/semantic_series_2_c.jpg"" style=""width: 300px; height: 300px;"" />
                  </div>","null","",""
"","","","","","html-keyboard-response","121","398508","0.0-87.0-3.0","54C623ACD50642A191E4537D31300E03","54C623ACD50642A191E4537D31300E03","00202051-9ab9-48b0-8cbe-2998d713deaa","54f8d589-66fc-4c65-830f-1dcc63bce8cc","{""participantId"":""54C623ACD50642A191E4537D31300E03"",""assignmentId"":""00202051-9ab9-48b0-8cbe-2998d713deaa"",""projectId"":""54f8d589-66fc-4c65-830f-1dcc63bce8cc""}","https://test12345.live/?participantId=54C623ACD50642A191E4537D31300E03&assignmentId=00202051-9ab9-48b0-8cbe-2998d713deaa&projectId=54f8d589-66fc-4c65-830f-1dcc63bce8cc","","null","<div style=""display: flex; justify-content: center; align-items: center;"">
                    <img src=""images/semantic/semantic_series_2/semantic_series_2_d.jpg"" style=""width: 300px; height: 300px;"" />
                  </div>","null","",""
"","","","","","html-button-response","122","399850","0.0-88.0","54C623ACD50642A191E4537D31300E03","54C623ACD50642A191E4537D31300E03","00202051-9ab9-48b0-8cbe-2998d713deaa","54f8d589-66fc-4c65-830f-1dcc63bce8cc","{""participantId"":""54C623ACD50642A191E4537D31300E03"",""assignmentId"":""00202051-9ab9-48b0-8cbe-2998d713deaa"",""projectId"":""54f8d589-66fc-4c65-830f-1dcc63bce8cc""}","https://test12345.live/?participantId=54C623ACD50642A191E4537D31300E03&assignmentId=00202051-9ab9-48b0-8cbe-2998d713deaa&projectId=54f8d589-66fc-4c65-830f-1dcc63bce8cc","","1342","Was there a person in the picture?","0","",""
"","","","","","survey-likert","123","402258","0.0-89.0","54C623ACD50642A191E4537D31300E03","54C623ACD50642A191E4537D31300E03","00202051-9ab9-48b0-8cbe-2998d713deaa","54f8d589-66fc-4c65-830f-1dcc63bce8cc","{""participantId"":""54C623ACD50642A191E4537D31300E03"",""assignmentId"":""00202051-9ab9-48b0-8cbe-2998d713deaa"",""projectId"":""54f8d589-66fc-4c65-830f-1dcc63bce8cc""}","https://test12345.live/?participantId=54C623ACD50642A191E4537D31300E03&assignmentId=00202051-9ab9-48b0-8cbe-2998d713deaa&projectId=54f8d589-66fc-4c65-830f-1dcc63bce8cc","","2408","","{""Q0"":2}","","[0]"
"","","","","","html-button-response","124","403522","0.0-90.0","54C623ACD50642A191E4537D31300E03","54C623ACD50642A191E4537D31300E03","00202051-9ab9-48b0-8cbe-2998d713deaa","54f8d589-66fc-4c65-830f-1dcc63bce8cc","{""participantId"":""54C623ACD50642A191E4537D31300E03"",""assignmentId"":""00202051-9ab9-48b0-8cbe-2998d713deaa"",""projectId"":""54f8d589-66fc-4c65-830f-1dcc63bce8cc""}","https://test12345.live/?participantId=54C623ACD50642A191E4537D31300E03&assignmentId=00202051-9ab9-48b0-8cbe-2998d713deaa&projectId=54f8d589-66fc-4c65-830f-1dcc63bce8cc","","1264","
    <div style=""display: flex; justify-content: center; align-items: center;"">
      <img src=""images/red_deck_2.png"" style=""width: 300px; height: 300px; margin-right: 10px;"" />
      <img src=""images/blue_deck_1.png"" style=""width: 300px; height: 300px;"" />
    </div>","1","1",""
"","","","","","html-keyboard-response","125","406532","0.0-92.0-0.0","54C623ACD50642A191E4537D31300E03","54C623ACD50642A191E4537D31300E03","00202051-9ab9-48b0-8cbe-2998d713deaa","54f8d589-66fc-4c65-830f-1dcc63bce8cc","{""participantId"":""54C623ACD50642A191E4537D31300E03"",""assignmentId"":""00202051-9ab9-48b0-8cbe-2998d713deaa"",""projectId"":""54f8d589-66fc-4c65-830f-1dcc63bce8cc""}","https://test12345.live/?participantId=54C623ACD50642A191E4537D31300E03&assignmentId=00202051-9ab9-48b0-8cbe-2998d713deaa&projectId=54f8d589-66fc-4c65-830f-1dcc63bce8cc","","null","<div style=""display: flex; justify-content: center; align-items: center;"">
                    <img src=""images/semantic/semantic_series_14/semantic_series_14_a.jpg"" style=""width: 300px; height: 300px;"" />
                  </div>","null","",""
"","","","","","html-keyboard-response","126","409534","0.0-92.0-1.0","54C623ACD50642A191E4537D31300E03","54C623ACD50642A191E4537D31300E03","00202051-9ab9-48b0-8cbe-2998d713deaa","54f8d589-66fc-4c65-830f-1dcc63bce8cc","{""participantId"":""54C623ACD50642A191E4537D31300E03"",""assignmentId"":""00202051-9ab9-48b0-8cbe-2998d713deaa"",""projectId"":""54f8d589-66fc-4c65-830f-1dcc63bce8cc""}","https://test12345.live/?participantId=54C623ACD50642A191E4537D31300E03&assignmentId=00202051-9ab9-48b0-8cbe-2998d713deaa&projectId=54f8d589-66fc-4c65-830f-1dcc63bce8cc","","null","<div style=""display: flex; justify-content: center; align-items: center;"">
                    <img src=""images/semantic/semantic_series_14/semantic_series_14_b.jpg"" style=""width: 300px; height: 300px;"" />
                  </div>","null","",""
"","","","","","html-keyboard-response","127","412537","0.0-92.0-2.0","54C623ACD50642A191E4537D31300E03","54C623ACD50642A191E4537D31300E03","00202051-9ab9-48b0-8cbe-2998d713deaa","54f8d589-66fc-4c65-830f-1dcc63bce8cc","{""participantId"":""54C623ACD50642A191E4537D31300E03"",""assignmentId"":""00202051-9ab9-48b0-8cbe-2998d713deaa"",""projectId"":""54f8d589-66fc-4c65-830f-1dcc63bce8cc""}","https://test12345.live/?participantId=54C623ACD50642A191E4537D31300E03&assignmentId=00202051-9ab9-48b0-8cbe-2998d713deaa&projectId=54f8d589-66fc-4c65-830f-1dcc63bce8cc","","null","<div style=""display: flex; justify-content: center; align-items: center;"">
                    <img src=""images/semantic/semantic_series_14/semantic_series_14_c.jpg"" style=""width: 300px; height: 300px;"" />
                  </div>","null","",""
"","","","","","html-keyboard-response","128","415549","0.0-92.0-3.0","54C623ACD50642A191E4537D31300E03","54C623ACD50642A191E4537D31300E03","00202051-9ab9-48b0-8cbe-2998d713deaa","54f8d589-66fc-4c65-830f-1dcc63bce8cc","{""participantId"":""54C623ACD50642A191E4537D31300E03"",""assignmentId"":""00202051-9ab9-48b0-8cbe-2998d713deaa"",""projectId"":""54f8d589-66fc-4c65-830f-1dcc63bce8cc""}","https://test12345.live/?participantId=54C623ACD50642A191E4537D31300E03&assignmentId=00202051-9ab9-48b0-8cbe-2998d713deaa&projectId=54f8d589-66fc-4c65-830f-1dcc63bce8cc","","null","<div style=""display: flex; justify-content: center; align-items: center;"">
                    <img src=""images/semantic/semantic_series_14/semantic_series_14_d.jpg"" style=""width: 300px; height: 300px;"" />
                  </div>","null","",""
"","","","","","html-button-response","129","416607","0.0-93.0","54C623ACD50642A191E4537D31300E03","54C623ACD50642A191E4537D31300E03","00202051-9ab9-48b0-8cbe-2998d713deaa","54f8d589-66fc-4c65-830f-1dcc63bce8cc","{""participantId"":""54C623ACD50642A191E4537D31300E03"",""assignmentId"":""00202051-9ab9-48b0-8cbe-2998d713deaa"",""projectId"":""54f8d589-66fc-4c65-830f-1dcc63bce8cc""}","https://test12345.live/?participantId=54C623ACD50642A191E4537D31300E03&assignmentId=00202051-9ab9-48b0-8cbe-2998d713deaa&projectId=54f8d589-66fc-4c65-830f-1dcc63bce8cc","","1057","Was there a person in the picture?","0","",""
"","","","","","survey-likert","130","418476","0.0-94.0","54C623ACD50642A191E4537D31300E03","54C623ACD50642A191E4537D31300E03","00202051-9ab9-48b0-8cbe-2998d713deaa","54f8d589-66fc-4c65-830f-1dcc63bce8cc","{""participantId"":""54C623ACD50642A191E4537D31300E03"",""assignmentId"":""00202051-9ab9-48b0-8cbe-2998d713deaa"",""projectId"":""54f8d589-66fc-4c65-830f-1dcc63bce8cc""}","https://test12345.live/?participantId=54C623ACD50642A191E4537D31300E03&assignmentId=00202051-9ab9-48b0-8cbe-2998d713deaa&projectId=54f8d589-66fc-4c65-830f-1dcc63bce8cc","","1869","","{""Q0"":4}","","[0]"
"","","","","","survey-text","131","499162","0.0-95.0","54C623ACD50642A191E4537D31300E03","54C623ACD50642A191E4537D31300E03","00202051-9ab9-48b0-8cbe-2998d713deaa","54f8d589-66fc-4c65-830f-1dcc63bce8cc","{""participantId"":""54C623ACD50642A191E4537D31300E03"",""assignmentId"":""00202051-9ab9-48b0-8cbe-2998d713deaa"",""projectId"":""54f8d589-66fc-4c65-830f-1dcc63bce8cc""}","https://test12345.live/?participantId=54C623ACD50642A191E4537D31300E03&assignmentId=00202051-9ab9-48b0-8cbe-2998d713deaa&projectId=54f8d589-66fc-4c65-830f-1dcc63bce8cc","","80683","","{""Q0"":""The blue deck had more cartoon pictures than the red.""}","",""
