"success","timeout","failed_images","failed_audio","failed_video","trial_type","trial_index","time_elapsed","internal_node_id","subject","subject_id","study_id","session_id","urlvar","current_url","view_history","rt","stimulus","response","choice","question_order"
"true","false","[]","[]","[]","preload","0","4559","0.0-0.0","B800FD43B253490EB3D17437920DEEF6","B800FD43B253490EB3D17437920DEEF6","dc6c872c-ba74-4c7d-9ae4-b70e2630d79f","54f8d589-66fc-4c65-830f-1dcc63bce8cc","{""participantId"":""B800FD43B253490EB3D17437920DEEF6"",""assignmentId"":""dc6c872c-ba74-4c7d-9ae4-b70e2630d79f"",""projectId"":""54f8d589-66fc-4c65-830f-1dcc63bce8cc""}","https://test12345.live/?participantId=B800FD43B253490EB3D17437920DEEF6&assignmentId=dc6c872c-ba74-4c7d-9ae4-b70e2630d79f&projectId=54f8d589-66fc-4c65-830f-1dcc63bce8cc","","","","","",""
"","","","","","instructions","1","115663","0.0-1.0","B800FD43B253490EB3D17437920DEEF6","B800FD43B253490EB3D17437920DEEF6","dc6c872c-ba74-4c7d-9ae4-b70e2630d79f","54f8d589-66fc-4c65-830f-1dcc63bce8cc","{""participantId"":""B800FD43B253490EB3D17437920DEEF6"",""assignmentId"":""dc6c872c-ba74-4c7d-9ae4-b70e2630d79f"",""projectId"":""54f8d589-66fc-4c65-830f-1dcc63bce8cc""}","https://test12345.live/?participantId=B800FD43B253490EB3D17437920DEEF6&assignmentId=dc6c872c-ba74-4c7d-9ae4-b70e2630d79f&projectId=54f8d589-66fc-4c65-830f-1dcc63bce8cc","[{""page_index"":0,""viewing_time"":111103}]","111103","","","",""
"","","","","","instructions","2","329125","0.0-2.0","B800FD43B253490EB3D17437920DEEF6","B800FD43B253490EB3D17437920DEEF6","dc6c872c-ba74-4c7d-9ae4-b70e2630d79f","54f8d589-66fc-4c65-830f-1dcc63bce8cc","{""participantId"":""B800FD43B253490EB3D17437920DEEF6"",""assignmentId"":""dc6c872c-ba74-4c7d-9ae4-b70e2630d79f"",""projectId"":""54f8d589-66fc-4c65-830f-1dcc63bce8cc""}","https://test12345.live/?participantId=B800FD43B253490EB3D17437920DEEF6&assignmentId=dc6c872c-ba74-4c7d-9ae4-b70e2630d79f&projectId=54f8d589-66fc-4c65-830f-1dcc63bce8cc","[{""page_index"":0,""viewing_time"":213461}]","213461","","","",""
"true","","","","","fullscreen","3","349898","0.0-3.0","B800FD43B253490EB3D17437920DEEF6","B800FD43B253490EB3D17437920DEEF6","dc6c872c-ba74-4c7d-9ae4-b70e2630d79f","54f8d589-66fc-4c65-830f-1dcc63bce8cc","{""participantId"":""B800FD43B253490EB3D17437920DEEF6"",""assignmentId"":""dc6c872c-ba74-4c7d-9ae4-b70e2630d79f"",""projectId"":""54f8d589-66fc-4c65-830f-1dcc63bce8cc""}","https://test12345.live/?participantId=B800FD43B253490EB3D17437920DEEF6&assignmentId=dc6c872c-ba74-4c7d-9ae4-b70e2630d79f&projectId=54f8d589-66fc-4c65-830f-1dcc63bce8cc","","19770","","","",""
"","","","","","instructions","4","364127","0.0-4.0","B800FD43B253490EB3D17437920DEEF6","B800FD43B253490EB3D17437920DEEF6","dc6c872c-ba74-4c7d-9ae4-b70e2630d79f","54f8d589-66fc-4c65-830f-1dcc63bce8cc","{""participantId"":""B800FD43B253490EB3D17437920DEEF6"",""assignmentId"":""dc6c872c-ba74-4c7d-9ae4-b70e2630d79f"",""projectId"":""54f8d589-66fc-4c65-830f-1dcc63bce8cc""}","https://test12345.live/?participantId=B800FD43B253490EB3D17437920DEEF6&assignmentId=dc6c872c-ba74-4c7d-9ae4-b70e2630d79f&projectId=54f8d589-66fc-4c65-830f-1dcc63bce8cc","[{""page_index"":0,""viewing_time"":14228}]","14228","","","",""
"","","","","","html-button-response","5","368517","0.0-5.0","B800FD43B253490EB3D17437920DEEF6","B800FD43B253490EB3D17437920DEEF6","dc6c872c-ba74-4c7d-9ae4-b70e2630d79f","54f8d589-66fc-4c65-830f-1dcc63bce8cc","{""participantId"":""B800FD43B253490EB3D17437920DEEF6"",""assignmentId"":""dc6c872c-ba74-4c7d-9ae4-b70e2630d79f"",""projectId"":""54f8d589-66fc-4c65-830f-1dcc63bce8cc""}","https://test12345.live/?participantId=B800FD43B253490EB3D17437920DEEF6&assignmentId=dc6c872c-ba74-4c7d-9ae4-b70e2630d79f&projectId=54f8d589-66fc-4c65-830f-1dcc63bce8cc","","4387","
    <div style=""display: flex; justify-content: center; align-items: center;"">
      <img src=""images/red_deck_2.png"" style=""width: 300px; height: 300px; margin-right: 10px;"" />
      <img src=""images/blue_deck_1.png"" style=""width: 300px; height: 300px;"" />
    </div>","1","1",""
"","","","","","html-keyboard-response","6","371529","0.0-7.0-0.0","B800FD43B253490EB3D17437920DEEF6","B800FD43B253490EB3D17437920DEEF6","dc6c872c-ba74-4c7d-9ae4-b70e2630d79f","54f8d589-66fc-4c65-830f-1dcc63bce8cc","{""participantId"":""B800FD43B253490EB3D17437920DEEF6"",""assignmentId"":""dc6c872c-ba74-4c7d-9ae4-b70e2630d79f"",""projectId"":""54f8d589-66fc-4c65-830f-1dcc63bce8cc""}","https://test12345.live/?participantId=B800FD43B253490EB3D17437920DEEF6&assignmentId=dc6c872c-ba74-4c7d-9ae4-b70e2630d79f&projectId=54f8d589-66fc-4c65-830f-1dcc63bce8cc","","null","<div style=""display: flex; justify-content: center; align-items: center;"">
                    <img src=""images/semantic/semantic_series_11/semantic_series_11_a.jpg"" style=""width: 300px; height: 300px;"" />
                  </div>","null","",""
"","","","","","html-keyboard-response","7","374533","0.0-7.0-1.0","B800FD43B253490EB3D17437920DEEF6","B800FD43B253490EB3D17437920DEEF6","dc6c872c-ba74-4c7d-9ae4-b70e2630d79f","54f8d589-66fc-4c65-830f-1dcc63bce8cc","{""participantId"":""B800FD43B253490EB3D17437920DEEF6"",""assignmentId"":""dc6c872c-ba74-4c7d-9ae4-b70e2630d79f"",""projectId"":""54f8d589-66fc-4c65-830f-1dcc63bce8cc""}","https://test12345.live/?participantId=B800FD43B253490EB3D17437920DEEF6&assignmentId=dc6c872c-ba74-4c7d-9ae4-b70e2630d79f&projectId=54f8d589-66fc-4c65-830f-1dcc63bce8cc","","null","<div style=""display: flex; justify-content: center; align-items: center;"">
                    <img src=""images/semantic/semantic_series_11/semantic_series_11_b.jpg"" style=""width: 300px; height: 300px;"" />
                  </div>","null","",""
"","","","","","html-keyboard-response","8","377543","0.0-7.0-2.0","B800FD43B253490EB3D17437920DEEF6","B800FD43B253490EB3D17437920DEEF6","dc6c872c-ba74-4c7d-9ae4-b70e2630d79f","54f8d589-66fc-4c65-830f-1dcc63bce8cc","{""participantId"":""B800FD43B253490EB3D17437920DEEF6"",""assignmentId"":""dc6c872c-ba74-4c7d-9ae4-b70e2630d79f"",""projectId"":""54f8d589-66fc-4c65-830f-1dcc63bce8cc""}","https://test12345.live/?participantId=B800FD43B253490EB3D17437920DEEF6&assignmentId=dc6c872c-ba74-4c7d-9ae4-b70e2630d79f&projectId=54f8d589-66fc-4c65-830f-1dcc63bce8cc","","null","<div style=""display: flex; justify-content: center; align-items: center;"">
                    <img src=""images/semantic/semantic_series_11/semantic_series_11_c.jpg"" style=""width: 300px; height: 300px;"" />
                  </div>","null","",""
"","","","","","html-keyboard-response","9","380550","0.0-7.0-3.0","B800FD43B253490EB3D17437920DEEF6","B800FD43B253490EB3D17437920DEEF6","dc6c872c-ba74-4c7d-9ae4-b70e2630d79f","54f8d589-66fc-4c65-830f-1dcc63bce8cc","{""participantId"":""B800FD43B253490EB3D17437920DEEF6"",""assignmentId"":""dc6c872c-ba74-4c7d-9ae4-b70e2630d79f"",""projectId"":""54f8d589-66fc-4c65-830f-1dcc63bce8cc""}","https://test12345.live/?participantId=B800FD43B253490EB3D17437920DEEF6&assignmentId=dc6c872c-ba74-4c7d-9ae4-b70e2630d79f&projectId=54f8d589-66fc-4c65-830f-1dcc63bce8cc","","null","<div style=""display: flex; justify-content: center; align-items: center;"">
                    <img src=""images/semantic/semantic_series_11/semantic_series_11_d.jpg"" style=""width: 300px; height: 300px;"" />
                  </div>","null","",""
"","","","","","html-button-response","10","382709","0.0-8.0","B800FD43B253490EB3D17437920DEEF6","B800FD43B253490EB3D17437920DEEF6","dc6c872c-ba74-4c7d-9ae4-b70e2630d79f","54f8d589-66fc-4c65-830f-1dcc63bce8cc","{""participantId"":""B800FD43B253490EB3D17437920DEEF6"",""assignmentId"":""dc6c872c-ba74-4c7d-9ae4-b70e2630d79f"",""projectId"":""54f8d589-66fc-4c65-830f-1dcc63bce8cc""}","https://test12345.live/?participantId=B800FD43B253490EB3D17437920DEEF6&assignmentId=dc6c872c-ba74-4c7d-9ae4-b70e2630d79f&projectId=54f8d589-66fc-4c65-830f-1dcc63bce8cc","","2158","Was there a person in the picture?","0","",""
"","","","","","survey-likert","11","385924","0.0-9.0","B800FD43B253490EB3D17437920DEEF6","B800FD43B253490EB3D17437920DEEF6","dc6c872c-ba74-4c7d-9ae4-b70e2630d79f","54f8d589-66fc-4c65-830f-1dcc63bce8cc","{""participantId"":""B800FD43B253490EB3D17437920DEEF6"",""assignmentId"":""dc6c872c-ba74-4c7d-9ae4-b70e2630d79f"",""projectId"":""54f8d589-66fc-4c65-830f-1dcc63bce8cc""}","https://test12345.live/?participantId=B800FD43B253490EB3D17437920DEEF6&assignmentId=dc6c872c-ba74-4c7d-9ae4-b70e2630d79f&projectId=54f8d589-66fc-4c65-830f-1dcc63bce8cc","","3210","","{""Q0"":3}","","[0]"
"","","","","","html-button-response","12","387329","0.0-10.0","B800FD43B253490EB3D17437920DEEF6","B800FD43B253490EB3D17437920DEEF6","dc6c872c-ba74-4c7d-9ae4-b70e2630d79f","54f8d589-66fc-4c65-830f-1dcc63bce8cc","{""participantId"":""B800FD43B253490EB3D17437920DEEF6"",""assignmentId"":""dc6c872c-ba74-4c7d-9ae4-b70e2630d79f"",""projectId"":""54f8d589-66fc-4c65-830f-1dcc63bce8cc""}","https://test12345.live/?participantId=B800FD43B253490EB3D17437920DEEF6&assignmentId=dc6c872c-ba74-4c7d-9ae4-b70e2630d79f&projectId=54f8d589-66fc-4c65-830f-1dcc63bce8cc","","1403","
    <div style=""display: flex; justify-content: center; align-items: center;"">
      <img src=""images/red_deck_2.png"" style=""width: 300px; height: 300px; margin-right: 10px;"" />
      <img src=""images/blue_deck_1.png"" style=""width: 300px; height: 300px;"" />
    </div>","0","0",""
"","","","","","html-keyboard-response","13","390341","0.0-11.0-0.0","B800FD43B253490EB3D17437920DEEF6","B800FD43B253490EB3D17437920DEEF6","dc6c872c-ba74-4c7d-9ae4-b70e2630d79f","54f8d589-66fc-4c65-830f-1dcc63bce8cc","{""participantId"":""B800FD43B253490EB3D17437920DEEF6"",""assignmentId"":""dc6c872c-ba74-4c7d-9ae4-b70e2630d79f"",""projectId"":""54f8d589-66fc-4c65-830f-1dcc63bce8cc""}","https://test12345.live/?participantId=B800FD43B253490EB3D17437920DEEF6&assignmentId=dc6c872c-ba74-4c7d-9ae4-b70e2630d79f&projectId=54f8d589-66fc-4c65-830f-1dcc63bce8cc","","null","<div style=""display: flex; justify-content: center; align-items: center;"">
                    <img src=""images/causal/causal_series_6/causal_series_6_a.jpg"" style=""width: 300px; height: 300px;"" />
                  </div>","null","",""
"","","","","","html-keyboard-response","14","393345","0.0-11.0-1.0","B800FD43B253490EB3D17437920DEEF6","B800FD43B253490EB3D17437920DEEF6","dc6c872c-ba74-4c7d-9ae4-b70e2630d79f","54f8d589-66fc-4c65-830f-1dcc63bce8cc","{""participantId"":""B800FD43B253490EB3D17437920DEEF6"",""assignmentId"":""dc6c872c-ba74-4c7d-9ae4-b70e2630d79f"",""projectId"":""54f8d589-66fc-4c65-830f-1dcc63bce8cc""}","https://test12345.live/?participantId=B800FD43B253490EB3D17437920DEEF6&assignmentId=dc6c872c-ba74-4c7d-9ae4-b70e2630d79f&projectId=54f8d589-66fc-4c65-830f-1dcc63bce8cc","","null","<div style=""display: flex; justify-content: center; align-items: center;"">
                    <img src=""images/causal/causal_series_6/causal_series_6_b.jpg"" style=""width: 300px; height: 300px;"" />
                  </div>","null","",""
"","","","","","html-keyboard-response","15","396355","0.0-11.0-2.0","B800FD43B253490EB3D17437920DEEF6","B800FD43B253490EB3D17437920DEEF6","dc6c872c-ba74-4c7d-9ae4-b70e2630d79f","54f8d589-66fc-4c65-830f-1dcc63bce8cc","{""participantId"":""B800FD43B253490EB3D17437920DEEF6"",""assignmentId"":""dc6c872c-ba74-4c7d-9ae4-b70e2630d79f"",""projectId"":""54f8d589-66fc-4c65-830f-1dcc63bce8cc""}","https://test12345.live/?participantId=B800FD43B253490EB3D17437920DEEF6&assignmentId=dc6c872c-ba74-4c7d-9ae4-b70e2630d79f&projectId=54f8d589-66fc-4c65-830f-1dcc63bce8cc","","null","<div style=""display: flex; justify-content: center; align-items: center;"">
                    <img src=""images/causal/causal_series_6/causal_series_6_c.jpg"" style=""width: 300px; height: 300px;"" />
                  </div>","null","",""
"","","","","","html-keyboard-response","16","399368","0.0-11.0-3.0","B800FD43B253490EB3D17437920DEEF6","B800FD43B253490EB3D17437920DEEF6","dc6c872c-ba74-4c7d-9ae4-b70e2630d79f","54f8d589-66fc-4c65-830f-1dcc63bce8cc","{""participantId"":""B800FD43B253490EB3D17437920DEEF6"",""assignmentId"":""dc6c872c-ba74-4c7d-9ae4-b70e2630d79f"",""projectId"":""54f8d589-66fc-4c65-830f-1dcc63bce8cc""}","https://test12345.live/?participantId=B800FD43B253490EB3D17437920DEEF6&assignmentId=dc6c872c-ba74-4c7d-9ae4-b70e2630d79f&projectId=54f8d589-66fc-4c65-830f-1dcc63bce8cc","","null","<div style=""display: flex; justify-content: center; align-items: center;"">
                    <img src=""images/causal/causal_series_6/causal_series_6_d.jpg"" style=""width: 300px; height: 300px;"" />
                  </div>","null","",""
"","","","","","html-button-response","17","400732","0.0-13.0","B800FD43B253490EB3D17437920DEEF6","B800FD43B253490EB3D17437920DEEF6","dc6c872c-ba74-4c7d-9ae4-b70e2630d79f","54f8d589-66fc-4c65-830f-1dcc63bce8cc","{""participantId"":""B800FD43B253490EB3D17437920DEEF6"",""assignmentId"":""dc6c872c-ba74-4c7d-9ae4-b70e2630d79f"",""projectId"":""54f8d589-66fc-4c65-830f-1dcc63bce8cc""}","https://test12345.live/?participantId=B800FD43B253490EB3D17437920DEEF6&assignmentId=dc6c872c-ba74-4c7d-9ae4-b70e2630d79f&projectId=54f8d589-66fc-4c65-830f-1dcc63bce8cc","","1363","Was there a person in the picture?","1","",""
"","","","","","survey-likert","18","402523","0.0-14.0","B800FD43B253490EB3D17437920DEEF6","B800FD43B253490EB3D17437920DEEF6","dc6c872c-ba74-4c7d-9ae4-b70e2630d79f","54f8d589-66fc-4c65-830f-1dcc63bce8cc","{""participantId"":""B800FD43B253490EB3D17437920DEEF6"",""assignmentId"":""dc6c872c-ba74-4c7d-9ae4-b70e2630d79f"",""projectId"":""54f8d589-66fc-4c65-830f-1dcc63bce8cc""}","https://test12345.live/?participantId=B800FD43B253490EB3D17437920DEEF6&assignmentId=dc6c872c-ba74-4c7d-9ae4-b70e2630d79f&projectId=54f8d589-66fc-4c65-830f-1dcc63bce8cc","","1790","","{""Q0"":4}","","[0]"
"","","","","","html-button-response","19","405718","0.0-15.0","B800FD43B253490EB3D17437920DEEF6","B800FD43B253490EB3D17437920DEEF6","dc6c872c-ba74-4c7d-9ae4-b70e2630d79f","54f8d589-66fc-4c65-830f-1dcc63bce8cc","{""participantId"":""B800FD43B253490EB3D17437920DEEF6"",""assignmentId"":""dc6c872c-ba74-4c7d-9ae4-b70e2630d79f"",""projectId"":""54f8d589-66fc-4c65-830f-1dcc63bce8cc""}","https://test12345.live/?participantId=B800FD43B253490EB3D17437920DEEF6&assignmentId=dc6c872c-ba74-4c7d-9ae4-b70e2630d79f&projectId=54f8d589-66fc-4c65-830f-1dcc63bce8cc","","3193","
    <div style=""display: flex; justify-content: center; align-items: center;"">
      <img src=""images/red_deck_2.png"" style=""width: 300px; height: 300px; margin-right: 10px;"" />
      <img src=""images/blue_deck_1.png"" style=""width: 300px; height: 300px;"" />
    </div>","0","0",""
"","","","","","html-keyboard-response","20","408729","0.0-16.0-0.0","B800FD43B253490EB3D17437920DEEF6","B800FD43B253490EB3D17437920DEEF6","dc6c872c-ba74-4c7d-9ae4-b70e2630d79f","54f8d589-66fc-4c65-830f-1dcc63bce8cc","{""participantId"":""B800FD43B253490EB3D17437920DEEF6"",""assignmentId"":""dc6c872c-ba74-4c7d-9ae4-b70e2630d79f"",""projectId"":""54f8d589-66fc-4c65-830f-1dcc63bce8cc""}","https://test12345.live/?participantId=B800FD43B253490EB3D17437920DEEF6&assignmentId=dc6c872c-ba74-4c7d-9ae4-b70e2630d79f&projectId=54f8d589-66fc-4c65-830f-1dcc63bce8cc","","null","<div style=""display: flex; justify-content: center; align-items: center;"">
                    <img src=""images/causal/causal_series_15/causal_series_15_a.jpg"" style=""width: 300px; height: 300px;"" />
                  </div>","null","",""
"","","","","","html-keyboard-response","21","411736","0.0-16.0-1.0","B800FD43B253490EB3D17437920DEEF6","B800FD43B253490EB3D17437920DEEF6","dc6c872c-ba74-4c7d-9ae4-b70e2630d79f","54f8d589-66fc-4c65-830f-1dcc63bce8cc","{""participantId"":""B800FD43B253490EB3D17437920DEEF6"",""assignmentId"":""dc6c872c-ba74-4c7d-9ae4-b70e2630d79f"",""projectId"":""54f8d589-66fc-4c65-830f-1dcc63bce8cc""}","https://test12345.live/?participantId=B800FD43B253490EB3D17437920DEEF6&assignmentId=dc6c872c-ba74-4c7d-9ae4-b70e2630d79f&projectId=54f8d589-66fc-4c65-830f-1dcc63bce8cc","","null","<div style=""display: flex; justify-content: center; align-items: center;"">
                    <img src=""images/causal/causal_series_15/causal_series_15_b.jpg"" style=""width: 300px; height: 300px;"" />
                  </div>","null","",""
"","","","","","html-keyboard-response","22","414750","0.0-16.0-2.0","B800FD43B253490EB3D17437920DEEF6","B800FD43B253490EB3D17437920DEEF6","dc6c872c-ba74-4c7d-9ae4-b70e2630d79f","54f8d589-66fc-4c65-830f-1dcc63bce8cc","{""participantId"":""B800FD43B253490EB3D17437920DEEF6"",""assignmentId"":""dc6c872c-ba74-4c7d-9ae4-b70e2630d79f"",""projectId"":""54f8d589-66fc-4c65-830f-1dcc63bce8cc""}","https://test12345.live/?participantId=B800FD43B253490EB3D17437920DEEF6&assignmentId=dc6c872c-ba74-4c7d-9ae4-b70e2630d79f&projectId=54f8d589-66fc-4c65-830f-1dcc63bce8cc","","null","<div style=""display: flex; justify-content: center; align-items: center;"">
                    <img src=""images/causal/causal_series_15/causal_series_15_c.jpg"" style=""width: 300px; height: 300px;"" />
                  </div>","null","",""
"","","","","","html-keyboard-response","23","417766","0.0-16.0-3.0","B800FD43B253490EB3D17437920DEEF6","B800FD43B253490EB3D17437920DEEF6","dc6c872c-ba74-4c7d-9ae4-b70e2630d79f","54f8d589-66fc-4c65-830f-1dcc63bce8cc","{""participantId"":""B800FD43B253490EB3D17437920DEEF6"",""assignmentId"":""dc6c872c-ba74-4c7d-9ae4-b70e2630d79f"",""projectId"":""54f8d589-66fc-4c65-830f-1dcc63bce8cc""}","https://test12345.live/?participantId=B800FD43B253490EB3D17437920DEEF6&assignmentId=dc6c872c-ba74-4c7d-9ae4-b70e2630d79f&projectId=54f8d589-66fc-4c65-830f-1dcc63bce8cc","","null","<div style=""display: flex; justify-content: center; align-items: center;"">
                    <img src=""images/causal/causal_series_15/causal_series_15_d.jpg"" style=""width: 300px; height: 300px;"" />
                  </div>","null","",""
"","","","","","html-button-response","24","419264","0.0-18.0","B800FD43B253490EB3D17437920DEEF6","B800FD43B253490EB3D17437920DEEF6","dc6c872c-ba74-4c7d-9ae4-b70e2630d79f","54f8d589-66fc-4c65-830f-1dcc63bce8cc","{""participantId"":""B800FD43B253490EB3D17437920DEEF6"",""assignmentId"":""dc6c872c-ba74-4c7d-9ae4-b70e2630d79f"",""projectId"":""54f8d589-66fc-4c65-830f-1dcc63bce8cc""}","https://test12345.live/?participantId=B800FD43B253490EB3D17437920DEEF6&assignmentId=dc6c872c-ba74-4c7d-9ae4-b70e2630d79f&projectId=54f8d589-66fc-4c65-830f-1dcc63bce8cc","","1497","Was there a person in the picture?","0","",""
"","","","","","survey-likert","25","421312","0.0-19.0","B800FD43B253490EB3D17437920DEEF6","B800FD43B253490EB3D17437920DEEF6","dc6c872c-ba74-4c7d-9ae4-b70e2630d79f","54f8d589-66fc-4c65-830f-1dcc63bce8cc","{""participantId"":""B800FD43B253490EB3D17437920DEEF6"",""assignmentId"":""dc6c872c-ba74-4c7d-9ae4-b70e2630d79f"",""projectId"":""54f8d589-66fc-4c65-830f-1dcc63bce8cc""}","https://test12345.live/?participantId=B800FD43B253490EB3D17437920DEEF6&assignmentId=dc6c872c-ba74-4c7d-9ae4-b70e2630d79f&projectId=54f8d589-66fc-4c65-830f-1dcc63bce8cc","","2045","","{""Q0"":4}","","[0]"
"","","","","","html-button-response","26","422743","0.0-20.0","B800FD43B253490EB3D17437920DEEF6","B800FD43B253490EB3D17437920DEEF6","dc6c872c-ba74-4c7d-9ae4-b70e2630d79f","54f8d589-66fc-4c65-830f-1dcc63bce8cc","{""participantId"":""B800FD43B253490EB3D17437920DEEF6"",""assignmentId"":""dc6c872c-ba74-4c7d-9ae4-b70e2630d79f"",""projectId"":""54f8d589-66fc-4c65-830f-1dcc63bce8cc""}","https://test12345.live/?participantId=B800FD43B253490EB3D17437920DEEF6&assignmentId=dc6c872c-ba74-4c7d-9ae4-b70e2630d79f&projectId=54f8d589-66fc-4c65-830f-1dcc63bce8cc","","1429","
    <div style=""display: flex; justify-content: center; align-items: center;"">
      <img src=""images/red_deck_2.png"" style=""width: 300px; height: 300px; margin-right: 10px;"" />
      <img src=""images/blue_deck_1.png"" style=""width: 300px; height: 300px;"" />
    </div>","1","1",""
"","","","","","html-keyboard-response","27","425757","0.0-22.0-0.0","B800FD43B253490EB3D17437920DEEF6","B800FD43B253490EB3D17437920DEEF6","dc6c872c-ba74-4c7d-9ae4-b70e2630d79f","54f8d589-66fc-4c65-830f-1dcc63bce8cc","{""participantId"":""B800FD43B253490EB3D17437920DEEF6"",""assignmentId"":""dc6c872c-ba74-4c7d-9ae4-b70e2630d79f"",""projectId"":""54f8d589-66fc-4c65-830f-1dcc63bce8cc""}","https://test12345.live/?participantId=B800FD43B253490EB3D17437920DEEF6&assignmentId=dc6c872c-ba74-4c7d-9ae4-b70e2630d79f&projectId=54f8d589-66fc-4c65-830f-1dcc63bce8cc","","null","<div style=""display: flex; justify-content: center; align-items: center;"">
                    <img src=""images/semantic/semantic_series_17/semantic_series_17_a.jpg"" style=""width: 300px; height: 300px;"" />
                  </div>","null","",""
"","","","","","html-keyboard-response","28","428760","0.0-22.0-1.0","B800FD43B253490EB3D17437920DEEF6","B800FD43B253490EB3D17437920DEEF6","dc6c872c-ba74-4c7d-9ae4-b70e2630d79f","54f8d589-66fc-4c65-830f-1dcc63bce8cc","{""participantId"":""B800FD43B253490EB3D17437920DEEF6"",""assignmentId"":""dc6c872c-ba74-4c7d-9ae4-b70e2630d79f"",""projectId"":""54f8d589-66fc-4c65-830f-1dcc63bce8cc""}","https://test12345.live/?participantId=B800FD43B253490EB3D17437920DEEF6&assignmentId=dc6c872c-ba74-4c7d-9ae4-b70e2630d79f&projectId=54f8d589-66fc-4c65-830f-1dcc63bce8cc","","null","<div style=""display: flex; justify-content: center; align-items: center;"">
                    <img src=""images/semantic/semantic_series_17/semantic_series_17_b.jpg"" style=""width: 300px; height: 300px;"" />
                  </div>","null","",""
"","","","","","html-keyboard-response","29","431767","0.0-22.0-2.0","B800FD43B253490EB3D17437920DEEF6","B800FD43B253490EB3D17437920DEEF6","dc6c872c-ba74-4c7d-9ae4-b70e2630d79f","54f8d589-66fc-4c65-830f-1dcc63bce8cc","{""participantId"":""B800FD43B253490EB3D17437920DEEF6"",""assignmentId"":""dc6c872c-ba74-4c7d-9ae4-b70e2630d79f"",""projectId"":""54f8d589-66fc-4c65-830f-1dcc63bce8cc""}","https://test12345.live/?participantId=B800FD43B253490EB3D17437920DEEF6&assignmentId=dc6c872c-ba74-4c7d-9ae4-b70e2630d79f&projectId=54f8d589-66fc-4c65-830f-1dcc63bce8cc","","null","<div style=""display: flex; justify-content: center; align-items: center;"">
                    <img src=""images/semantic/semantic_series_17/semantic_series_17_c.jpg"" style=""width: 300px; height: 300px;"" />
                  </div>","null","",""
"","","","","","html-keyboard-response","30","434783","0.0-22.0-3.0","B800FD43B253490EB3D17437920DEEF6","B800FD43B253490EB3D17437920DEEF6","dc6c872c-ba74-4c7d-9ae4-b70e2630d79f","54f8d589-66fc-4c65-830f-1dcc63bce8cc","{""participantId"":""B800FD43B253490EB3D17437920DEEF6"",""assignmentId"":""dc6c872c-ba74-4c7d-9ae4-b70e2630d79f"",""projectId"":""54f8d589-66fc-4c65-830f-1dcc63bce8cc""}","https://test12345.live/?participantId=B800FD43B253490EB3D17437920DEEF6&assignmentId=dc6c872c-ba74-4c7d-9ae4-b70e2630d79f&projectId=54f8d589-66fc-4c65-830f-1dcc63bce8cc","","null","<div style=""display: flex; justify-content: center; align-items: center;"">
                    <img src=""images/semantic/semantic_series_17/semantic_series_17_d.jpg"" style=""width: 300px; height: 300px;"" />
                  </div>","null","",""
"","","","","","html-button-response","31","436547","0.0-23.0","B800FD43B253490EB3D17437920DEEF6","B800FD43B253490EB3D17437920DEEF6","dc6c872c-ba74-4c7d-9ae4-b70e2630d79f","54f8d589-66fc-4c65-830f-1dcc63bce8cc","{""participantId"":""B800FD43B253490EB3D17437920DEEF6"",""assignmentId"":""dc6c872c-ba74-4c7d-9ae4-b70e2630d79f"",""projectId"":""54f8d589-66fc-4c65-830f-1dcc63bce8cc""}","https://test12345.live/?participantId=B800FD43B253490EB3D17437920DEEF6&assignmentId=dc6c872c-ba74-4c7d-9ae4-b70e2630d79f&projectId=54f8d589-66fc-4c65-830f-1dcc63bce8cc","","1763","Was there a person in the picture?","0","",""
"","","","","","survey-likert","32","438937","0.0-24.0","B800FD43B253490EB3D17437920DEEF6","B800FD43B253490EB3D17437920DEEF6","dc6c872c-ba74-4c7d-9ae4-b70e2630d79f","54f8d589-66fc-4c65-830f-1dcc63bce8cc","{""participantId"":""B800FD43B253490EB3D17437920DEEF6"",""assignmentId"":""dc6c872c-ba74-4c7d-9ae4-b70e2630d79f"",""projectId"":""54f8d589-66fc-4c65-830f-1dcc63bce8cc""}","https://test12345.live/?participantId=B800FD43B253490EB3D17437920DEEF6&assignmentId=dc6c872c-ba74-4c7d-9ae4-b70e2630d79f&projectId=54f8d589-66fc-4c65-830f-1dcc63bce8cc","","2389","","{""Q0"":4}","","[0]"
"","","","","","html-button-response","33","439836","0.0-25.0","B800FD43B253490EB3D17437920DEEF6","B800FD43B253490EB3D17437920DEEF6","dc6c872c-ba74-4c7d-9ae4-b70e2630d79f","54f8d589-66fc-4c65-830f-1dcc63bce8cc","{""participantId"":""B800FD43B253490EB3D17437920DEEF6"",""assignmentId"":""dc6c872c-ba74-4c7d-9ae4-b70e2630d79f"",""projectId"":""54f8d589-66fc-4c65-830f-1dcc63bce8cc""}","https://test12345.live/?participantId=B800FD43B253490EB3D17437920DEEF6&assignmentId=dc6c872c-ba74-4c7d-9ae4-b70e2630d79f&projectId=54f8d589-66fc-4c65-830f-1dcc63bce8cc","","897","
    <div style=""display: flex; justify-content: center; align-items: center;"">
      <img src=""images/red_deck_2.png"" style=""width: 300px; height: 300px; margin-right: 10px;"" />
      <img src=""images/blue_deck_1.png"" style=""width: 300px; height: 300px;"" />
    </div>","1","1",""
"","","","","","html-keyboard-response","34","442847","0.0-27.0-0.0","B800FD43B253490EB3D17437920DEEF6","B800FD43B253490EB3D17437920DEEF6","dc6c872c-ba74-4c7d-9ae4-b70e2630d79f","54f8d589-66fc-4c65-830f-1dcc63bce8cc","{""participantId"":""B800FD43B253490EB3D17437920DEEF6"",""assignmentId"":""dc6c872c-ba74-4c7d-9ae4-b70e2630d79f"",""projectId"":""54f8d589-66fc-4c65-830f-1dcc63bce8cc""}","https://test12345.live/?participantId=B800FD43B253490EB3D17437920DEEF6&assignmentId=dc6c872c-ba74-4c7d-9ae4-b70e2630d79f&projectId=54f8d589-66fc-4c65-830f-1dcc63bce8cc","","null","<div style=""display: flex; justify-content: center; align-items: center;"">
                    <img src=""images/semantic/semantic_series_2/semantic_series_2_a.jpg"" style=""width: 300px; height: 300px;"" />
                  </div>","null","",""
"","","","","","html-keyboard-response","35","445860","0.0-27.0-1.0","B800FD43B253490EB3D17437920DEEF6","B800FD43B253490EB3D17437920DEEF6","dc6c872c-ba74-4c7d-9ae4-b70e2630d79f","54f8d589-66fc-4c65-830f-1dcc63bce8cc","{""participantId"":""B800FD43B253490EB3D17437920DEEF6"",""assignmentId"":""dc6c872c-ba74-4c7d-9ae4-b70e2630d79f"",""projectId"":""54f8d589-66fc-4c65-830f-1dcc63bce8cc""}","https://test12345.live/?participantId=B800FD43B253490EB3D17437920DEEF6&assignmentId=dc6c872c-ba74-4c7d-9ae4-b70e2630d79f&projectId=54f8d589-66fc-4c65-830f-1dcc63bce8cc","","null","<div style=""display: flex; justify-content: center; align-items: center;"">
                    <img src=""images/semantic/semantic_series_2/semantic_series_2_b.jpg"" style=""width: 300px; height: 300px;"" />
                  </div>","null","",""
"","","","","","html-keyboard-response","36","448872","0.0-27.0-2.0","B800FD43B253490EB3D17437920DEEF6","B800FD43B253490EB3D17437920DEEF6","dc6c872c-ba74-4c7d-9ae4-b70e2630d79f","54f8d589-66fc-4c65-830f-1dcc63bce8cc","{""participantId"":""B800FD43B253490EB3D17437920DEEF6"",""assignmentId"":""dc6c872c-ba74-4c7d-9ae4-b70e2630d79f"",""projectId"":""54f8d589-66fc-4c65-830f-1dcc63bce8cc""}","https://test12345.live/?participantId=B800FD43B253490EB3D17437920DEEF6&assignmentId=dc6c872c-ba74-4c7d-9ae4-b70e2630d79f&projectId=54f8d589-66fc-4c65-830f-1dcc63bce8cc","","null","<div style=""display: flex; justify-content: center; align-items: center;"">
                    <img src=""images/semantic/semantic_series_2/semantic_series_2_c.jpg"" style=""width: 300px; height: 300px;"" />
                  </div>","null","",""
"","","","","","html-keyboard-response","37","451885","0.0-27.0-3.0","B800FD43B253490EB3D17437920DEEF6","B800FD43B253490EB3D17437920DEEF6","dc6c872c-ba74-4c7d-9ae4-b70e2630d79f","54f8d589-66fc-4c65-830f-1dcc63bce8cc","{""participantId"":""B800FD43B253490EB3D17437920DEEF6"",""assignmentId"":""dc6c872c-ba74-4c7d-9ae4-b70e2630d79f"",""projectId"":""54f8d589-66fc-4c65-830f-1dcc63bce8cc""}","https://test12345.live/?participantId=B800FD43B253490EB3D17437920DEEF6&assignmentId=dc6c872c-ba74-4c7d-9ae4-b70e2630d79f&projectId=54f8d589-66fc-4c65-830f-1dcc63bce8cc","","null","<div style=""display: flex; justify-content: center; align-items: center;"">
                    <img src=""images/semantic/semantic_series_2/semantic_series_2_d.jpg"" style=""width: 300px; height: 300px;"" />
                  </div>","null","",""
"","","","","","html-button-response","38","457257","0.0-28.0","B800FD43B253490EB3D17437920DEEF6","B800FD43B253490EB3D17437920DEEF6","dc6c872c-ba74-4c7d-9ae4-b70e2630d79f","54f8d589-66fc-4c65-830f-1dcc63bce8cc","{""participantId"":""B800FD43B253490EB3D17437920DEEF6"",""assignmentId"":""dc6c872c-ba74-4c7d-9ae4-b70e2630d79f"",""projectId"":""54f8d589-66fc-4c65-830f-1dcc63bce8cc""}","https://test12345.live/?participantId=B800FD43B253490EB3D17437920DEEF6&assignmentId=dc6c872c-ba74-4c7d-9ae4-b70e2630d79f&projectId=54f8d589-66fc-4c65-830f-1dcc63bce8cc","","5372","Was there a person in the picture?","0","",""
"","","","","","survey-likert","39","459325","0.0-29.0","B800FD43B253490EB3D17437920DEEF6","B800FD43B253490EB3D17437920DEEF6","dc6c872c-ba74-4c7d-9ae4-b70e2630d79f","54f8d589-66fc-4c65-830f-1dcc63bce8cc","{""participantId"":""B800FD43B253490EB3D17437920DEEF6"",""assignmentId"":""dc6c872c-ba74-4c7d-9ae4-b70e2630d79f"",""projectId"":""54f8d589-66fc-4c65-830f-1dcc63bce8cc""}","https://test12345.live/?participantId=B800FD43B253490EB3D17437920DEEF6&assignmentId=dc6c872c-ba74-4c7d-9ae4-b70e2630d79f&projectId=54f8d589-66fc-4c65-830f-1dcc63bce8cc","","2068","","{""Q0"":4}","","[0]"
"","","","","","html-button-response","40","460648","0.0-30.0","B800FD43B253490EB3D17437920DEEF6","B800FD43B253490EB3D17437920DEEF6","dc6c872c-ba74-4c7d-9ae4-b70e2630d79f","54f8d589-66fc-4c65-830f-1dcc63bce8cc","{""participantId"":""B800FD43B253490EB3D17437920DEEF6"",""assignmentId"":""dc6c872c-ba74-4c7d-9ae4-b70e2630d79f"",""projectId"":""54f8d589-66fc-4c65-830f-1dcc63bce8cc""}","https://test12345.live/?participantId=B800FD43B253490EB3D17437920DEEF6&assignmentId=dc6c872c-ba74-4c7d-9ae4-b70e2630d79f&projectId=54f8d589-66fc-4c65-830f-1dcc63bce8cc","","1321","
    <div style=""display: flex; justify-content: center; align-items: center;"">
      <img src=""images/red_deck_2.png"" style=""width: 300px; height: 300px; margin-right: 10px;"" />
      <img src=""images/blue_deck_1.png"" style=""width: 300px; height: 300px;"" />
    </div>","0","0",""
"","","","","","html-keyboard-response","41","463650","0.0-31.0-0.0","B800FD43B253490EB3D17437920DEEF6","B800FD43B253490EB3D17437920DEEF6","dc6c872c-ba74-4c7d-9ae4-b70e2630d79f","54f8d589-66fc-4c65-830f-1dcc63bce8cc","{""participantId"":""B800FD43B253490EB3D17437920DEEF6"",""assignmentId"":""dc6c872c-ba74-4c7d-9ae4-b70e2630d79f"",""projectId"":""54f8d589-66fc-4c65-830f-1dcc63bce8cc""}","https://test12345.live/?participantId=B800FD43B253490EB3D17437920DEEF6&assignmentId=dc6c872c-ba74-4c7d-9ae4-b70e2630d79f&projectId=54f8d589-66fc-4c65-830f-1dcc63bce8cc","","null","<div style=""display: flex; justify-content: center; align-items: center;"">
                    <img src=""images/causal/causal_series_17/causal_series_17_a.jpg"" style=""width: 300px; height: 300px;"" />
                  </div>","null","",""
"","","","","","html-keyboard-response","42","466657","0.0-31.0-1.0","B800FD43B253490EB3D17437920DEEF6","B800FD43B253490EB3D17437920DEEF6","dc6c872c-ba74-4c7d-9ae4-b70e2630d79f","54f8d589-66fc-4c65-830f-1dcc63bce8cc","{""participantId"":""B800FD43B253490EB3D17437920DEEF6"",""assignmentId"":""dc6c872c-ba74-4c7d-9ae4-b70e2630d79f"",""projectId"":""54f8d589-66fc-4c65-830f-1dcc63bce8cc""}","https://test12345.live/?participantId=B800FD43B253490EB3D17437920DEEF6&assignmentId=dc6c872c-ba74-4c7d-9ae4-b70e2630d79f&projectId=54f8d589-66fc-4c65-830f-1dcc63bce8cc","","null","<div style=""display: flex; justify-content: center; align-items: center;"">
                    <img src=""images/causal/causal_series_17/causal_series_17_b.jpg"" style=""width: 300px; height: 300px;"" />
                  </div>","null","",""
"","","","","","html-keyboard-response","43","469661","0.0-31.0-2.0","B800FD43B253490EB3D17437920DEEF6","B800FD43B253490EB3D17437920DEEF6","dc6c872c-ba74-4c7d-9ae4-b70e2630d79f","54f8d589-66fc-4c65-830f-1dcc63bce8cc","{""participantId"":""B800FD43B253490EB3D17437920DEEF6"",""assignmentId"":""dc6c872c-ba74-4c7d-9ae4-b70e2630d79f"",""projectId"":""54f8d589-66fc-4c65-830f-1dcc63bce8cc""}","https://test12345.live/?participantId=B800FD43B253490EB3D17437920DEEF6&assignmentId=dc6c872c-ba74-4c7d-9ae4-b70e2630d79f&projectId=54f8d589-66fc-4c65-830f-1dcc63bce8cc","","null","<div style=""display: flex; justify-content: center; align-items: center;"">
                    <img src=""images/causal/causal_series_17/causal_series_17_c.jpg"" style=""width: 300px; height: 300px;"" />
                  </div>","null","",""
"","","","","","html-keyboard-response","44","472668","0.0-31.0-3.0","B800FD43B253490EB3D17437920DEEF6","B800FD43B253490EB3D17437920DEEF6","dc6c872c-ba74-4c7d-9ae4-b70e2630d79f","54f8d589-66fc-4c65-830f-1dcc63bce8cc","{""participantId"":""B800FD43B253490EB3D17437920DEEF6"",""assignmentId"":""dc6c872c-ba74-4c7d-9ae4-b70e2630d79f"",""projectId"":""54f8d589-66fc-4c65-830f-1dcc63bce8cc""}","https://test12345.live/?participantId=B800FD43B253490EB3D17437920DEEF6&assignmentId=dc6c872c-ba74-4c7d-9ae4-b70e2630d79f&projectId=54f8d589-66fc-4c65-830f-1dcc63bce8cc","","null","<div style=""display: flex; justify-content: center; align-items: center;"">
                    <img src=""images/causal/causal_series_17/causal_series_17_d.jpg"" style=""width: 300px; height: 300px;"" />
                  </div>","null","",""
"","","","","","html-button-response","45","474429","0.0-33.0","B800FD43B253490EB3D17437920DEEF6","B800FD43B253490EB3D17437920DEEF6","dc6c872c-ba74-4c7d-9ae4-b70e2630d79f","54f8d589-66fc-4c65-830f-1dcc63bce8cc","{""participantId"":""B800FD43B253490EB3D17437920DEEF6"",""assignmentId"":""dc6c872c-ba74-4c7d-9ae4-b70e2630d79f"",""projectId"":""54f8d589-66fc-4c65-830f-1dcc63bce8cc""}","https://test12345.live/?participantId=B800FD43B253490EB3D17437920DEEF6&assignmentId=dc6c872c-ba74-4c7d-9ae4-b70e2630d79f&projectId=54f8d589-66fc-4c65-830f-1dcc63bce8cc","","1759","Was there a person in the picture?","0","",""
"","","","","","survey-likert","46","476576","0.0-34.0","B800FD43B253490EB3D17437920DEEF6","B800FD43B253490EB3D17437920DEEF6","dc6c872c-ba74-4c7d-9ae4-b70e2630d79f","54f8d589-66fc-4c65-830f-1dcc63bce8cc","{""participantId"":""B800FD43B253490EB3D17437920DEEF6"",""assignmentId"":""dc6c872c-ba74-4c7d-9ae4-b70e2630d79f"",""projectId"":""54f8d589-66fc-4c65-830f-1dcc63bce8cc""}","https://test12345.live/?participantId=B800FD43B253490EB3D17437920DEEF6&assignmentId=dc6c872c-ba74-4c7d-9ae4-b70e2630d79f&projectId=54f8d589-66fc-4c65-830f-1dcc63bce8cc","","2145","","{""Q0"":4}","","[0]"
"","","","","","html-button-response","47","477495","0.0-35.0","B800FD43B253490EB3D17437920DEEF6","B800FD43B253490EB3D17437920DEEF6","dc6c872c-ba74-4c7d-9ae4-b70e2630d79f","54f8d589-66fc-4c65-830f-1dcc63bce8cc","{""participantId"":""B800FD43B253490EB3D17437920DEEF6"",""assignmentId"":""dc6c872c-ba74-4c7d-9ae4-b70e2630d79f"",""projectId"":""54f8d589-66fc-4c65-830f-1dcc63bce8cc""}","https://test12345.live/?participantId=B800FD43B253490EB3D17437920DEEF6&assignmentId=dc6c872c-ba74-4c7d-9ae4-b70e2630d79f&projectId=54f8d589-66fc-4c65-830f-1dcc63bce8cc","","916","
    <div style=""display: flex; justify-content: center; align-items: center;"">
      <img src=""images/red_deck_2.png"" style=""width: 300px; height: 300px; margin-right: 10px;"" />
      <img src=""images/blue_deck_1.png"" style=""width: 300px; height: 300px;"" />
    </div>","1","1",""
"","","","","","html-keyboard-response","48","480501","0.0-37.0-0.0","B800FD43B253490EB3D17437920DEEF6","B800FD43B253490EB3D17437920DEEF6","dc6c872c-ba74-4c7d-9ae4-b70e2630d79f","54f8d589-66fc-4c65-830f-1dcc63bce8cc","{""participantId"":""B800FD43B253490EB3D17437920DEEF6"",""assignmentId"":""dc6c872c-ba74-4c7d-9ae4-b70e2630d79f"",""projectId"":""54f8d589-66fc-4c65-830f-1dcc63bce8cc""}","https://test12345.live/?participantId=B800FD43B253490EB3D17437920DEEF6&assignmentId=dc6c872c-ba74-4c7d-9ae4-b70e2630d79f&projectId=54f8d589-66fc-4c65-830f-1dcc63bce8cc","","null","<div style=""display: flex; justify-content: center; align-items: center;"">
                    <img src=""images/semantic/semantic_series_14/semantic_series_14_a.jpg"" style=""width: 300px; height: 300px;"" />
                  </div>","null","",""
"","","","","","html-keyboard-response","49","483507","0.0-37.0-1.0","B800FD43B253490EB3D17437920DEEF6","B800FD43B253490EB3D17437920DEEF6","dc6c872c-ba74-4c7d-9ae4-b70e2630d79f","54f8d589-66fc-4c65-830f-1dcc63bce8cc","{""participantId"":""B800FD43B253490EB3D17437920DEEF6"",""assignmentId"":""dc6c872c-ba74-4c7d-9ae4-b70e2630d79f"",""projectId"":""54f8d589-66fc-4c65-830f-1dcc63bce8cc""}","https://test12345.live/?participantId=B800FD43B253490EB3D17437920DEEF6&assignmentId=dc6c872c-ba74-4c7d-9ae4-b70e2630d79f&projectId=54f8d589-66fc-4c65-830f-1dcc63bce8cc","","null","<div style=""display: flex; justify-content: center; align-items: center;"">
                    <img src=""images/semantic/semantic_series_14/semantic_series_14_b.jpg"" style=""width: 300px; height: 300px;"" />
                  </div>","null","",""
"","","","","","html-keyboard-response","50","486517","0.0-37.0-2.0","B800FD43B253490EB3D17437920DEEF6","B800FD43B253490EB3D17437920DEEF6","dc6c872c-ba74-4c7d-9ae4-b70e2630d79f","54f8d589-66fc-4c65-830f-1dcc63bce8cc","{""participantId"":""B800FD43B253490EB3D17437920DEEF6"",""assignmentId"":""dc6c872c-ba74-4c7d-9ae4-b70e2630d79f"",""projectId"":""54f8d589-66fc-4c65-830f-1dcc63bce8cc""}","https://test12345.live/?participantId=B800FD43B253490EB3D17437920DEEF6&assignmentId=dc6c872c-ba74-4c7d-9ae4-b70e2630d79f&projectId=54f8d589-66fc-4c65-830f-1dcc63bce8cc","","null","<div style=""display: flex; justify-content: center; align-items: center;"">
                    <img src=""images/semantic/semantic_series_14/semantic_series_14_c.jpg"" style=""width: 300px; height: 300px;"" />
                  </div>","null","",""
"","","","","","html-keyboard-response","51","489518","0.0-37.0-3.0","B800FD43B253490EB3D17437920DEEF6","B800FD43B253490EB3D17437920DEEF6","dc6c872c-ba74-4c7d-9ae4-b70e2630d79f","54f8d589-66fc-4c65-830f-1dcc63bce8cc","{""participantId"":""B800FD43B253490EB3D17437920DEEF6"",""assignmentId"":""dc6c872c-ba74-4c7d-9ae4-b70e2630d79f"",""projectId"":""54f8d589-66fc-4c65-830f-1dcc63bce8cc""}","https://test12345.live/?participantId=B800FD43B253490EB3D17437920DEEF6&assignmentId=dc6c872c-ba74-4c7d-9ae4-b70e2630d79f&projectId=54f8d589-66fc-4c65-830f-1dcc63bce8cc","","null","<div style=""display: flex; justify-content: center; align-items: center;"">
                    <img src=""images/semantic/semantic_series_14/semantic_series_14_d.jpg"" style=""width: 300px; height: 300px;"" />
                  </div>","null","",""
"","","","","","html-button-response","52","491830","0.0-38.0","B800FD43B253490EB3D17437920DEEF6","B800FD43B253490EB3D17437920DEEF6","dc6c872c-ba74-4c7d-9ae4-b70e2630d79f","54f8d589-66fc-4c65-830f-1dcc63bce8cc","{""participantId"":""B800FD43B253490EB3D17437920DEEF6"",""assignmentId"":""dc6c872c-ba74-4c7d-9ae4-b70e2630d79f"",""projectId"":""54f8d589-66fc-4c65-830f-1dcc63bce8cc""}","https://test12345.live/?participantId=B800FD43B253490EB3D17437920DEEF6&assignmentId=dc6c872c-ba74-4c7d-9ae4-b70e2630d79f&projectId=54f8d589-66fc-4c65-830f-1dcc63bce8cc","","2310","Was there a person in the picture?","0","",""
"","","","","","survey-likert","53","494620","0.0-39.0","B800FD43B253490EB3D17437920DEEF6","B800FD43B253490EB3D17437920DEEF6","dc6c872c-ba74-4c7d-9ae4-b70e2630d79f","54f8d589-66fc-4c65-830f-1dcc63bce8cc","{""participantId"":""B800FD43B253490EB3D17437920DEEF6"",""assignmentId"":""dc6c872c-ba74-4c7d-9ae4-b70e2630d79f"",""projectId"":""54f8d589-66fc-4c65-830f-1dcc63bce8cc""}","https://test12345.live/?participantId=B800FD43B253490EB3D17437920DEEF6&assignmentId=dc6c872c-ba74-4c7d-9ae4-b70e2630d79f&projectId=54f8d589-66fc-4c65-830f-1dcc63bce8cc","","2789","","{""Q0"":4}","","[0]"
"","","","","","html-button-response","54","495545","0.0-40.0","B800FD43B253490EB3D17437920DEEF6","B800FD43B253490EB3D17437920DEEF6","dc6c872c-ba74-4c7d-9ae4-b70e2630d79f","54f8d589-66fc-4c65-830f-1dcc63bce8cc","{""participantId"":""B800FD43B253490EB3D17437920DEEF6"",""assignmentId"":""dc6c872c-ba74-4c7d-9ae4-b70e2630d79f"",""projectId"":""54f8d589-66fc-4c65-830f-1dcc63bce8cc""}","https://test12345.live/?participantId=B800FD43B253490EB3D17437920DEEF6&assignmentId=dc6c872c-ba74-4c7d-9ae4-b70e2630d79f&projectId=54f8d589-66fc-4c65-830f-1dcc63bce8cc","","923","
    <div style=""display: flex; justify-content: center; align-items: center;"">
      <img src=""images/red_deck_2.png"" style=""width: 300px; height: 300px; margin-right: 10px;"" />
      <img src=""images/blue_deck_1.png"" style=""width: 300px; height: 300px;"" />
    </div>","1","1",""
"","","","","","html-keyboard-response","55","498548","0.0-42.0-0.0","B800FD43B253490EB3D17437920DEEF6","B800FD43B253490EB3D17437920DEEF6","dc6c872c-ba74-4c7d-9ae4-b70e2630d79f","54f8d589-66fc-4c65-830f-1dcc63bce8cc","{""participantId"":""B800FD43B253490EB3D17437920DEEF6"",""assignmentId"":""dc6c872c-ba74-4c7d-9ae4-b70e2630d79f"",""projectId"":""54f8d589-66fc-4c65-830f-1dcc63bce8cc""}","https://test12345.live/?participantId=B800FD43B253490EB3D17437920DEEF6&assignmentId=dc6c872c-ba74-4c7d-9ae4-b70e2630d79f&projectId=54f8d589-66fc-4c65-830f-1dcc63bce8cc","","null","<div style=""display: flex; justify-content: center; align-items: center;"">
                    <img src=""images/semantic/semantic_series_6/semantic_series_6_a.jpg"" style=""width: 300px; height: 300px;"" />
                  </div>","null","",""
"","","","","","html-keyboard-response","56","501561","0.0-42.0-1.0","B800FD43B253490EB3D17437920DEEF6","B800FD43B253490EB3D17437920DEEF6","dc6c872c-ba74-4c7d-9ae4-b70e2630d79f","54f8d589-66fc-4c65-830f-1dcc63bce8cc","{""participantId"":""B800FD43B253490EB3D17437920DEEF6"",""assignmentId"":""dc6c872c-ba74-4c7d-9ae4-b70e2630d79f"",""projectId"":""54f8d589-66fc-4c65-830f-1dcc63bce8cc""}","https://test12345.live/?participantId=B800FD43B253490EB3D17437920DEEF6&assignmentId=dc6c872c-ba74-4c7d-9ae4-b70e2630d79f&projectId=54f8d589-66fc-4c65-830f-1dcc63bce8cc","","null","<div style=""display: flex; justify-content: center; align-items: center;"">
                    <img src=""images/semantic/semantic_series_6/semantic_series_6_b.jpg"" style=""width: 300px; height: 300px;"" />
                  </div>","null","",""
"","","","","","html-keyboard-response","57","504575","0.0-42.0-2.0","B800FD43B253490EB3D17437920DEEF6","B800FD43B253490EB3D17437920DEEF6","dc6c872c-ba74-4c7d-9ae4-b70e2630d79f","54f8d589-66fc-4c65-830f-1dcc63bce8cc","{""participantId"":""B800FD43B253490EB3D17437920DEEF6"",""assignmentId"":""dc6c872c-ba74-4c7d-9ae4-b70e2630d79f"",""projectId"":""54f8d589-66fc-4c65-830f-1dcc63bce8cc""}","https://test12345.live/?participantId=B800FD43B253490EB3D17437920DEEF6&assignmentId=dc6c872c-ba74-4c7d-9ae4-b70e2630d79f&projectId=54f8d589-66fc-4c65-830f-1dcc63bce8cc","","null","<div style=""display: flex; justify-content: center; align-items: center;"">
                    <img src=""images/semantic/semantic_series_6/semantic_series_6_c.jpg"" style=""width: 300px; height: 300px;"" />
                  </div>","null","",""
"","","","","","html-keyboard-response","58","507578","0.0-42.0-3.0","B800FD43B253490EB3D17437920DEEF6","B800FD43B253490EB3D17437920DEEF6","dc6c872c-ba74-4c7d-9ae4-b70e2630d79f","54f8d589-66fc-4c65-830f-1dcc63bce8cc","{""participantId"":""B800FD43B253490EB3D17437920DEEF6"",""assignmentId"":""dc6c872c-ba74-4c7d-9ae4-b70e2630d79f"",""projectId"":""54f8d589-66fc-4c65-830f-1dcc63bce8cc""}","https://test12345.live/?participantId=B800FD43B253490EB3D17437920DEEF6&assignmentId=dc6c872c-ba74-4c7d-9ae4-b70e2630d79f&projectId=54f8d589-66fc-4c65-830f-1dcc63bce8cc","","null","<div style=""display: flex; justify-content: center; align-items: center;"">
                    <img src=""images/semantic/semantic_series_6/semantic_series_6_d.jpg"" style=""width: 300px; height: 300px;"" />
                  </div>","null","",""
"","","","","","html-button-response","59","509067","0.0-43.0","B800FD43B253490EB3D17437920DEEF6","B800FD43B253490EB3D17437920DEEF6","dc6c872c-ba74-4c7d-9ae4-b70e2630d79f","54f8d589-66fc-4c65-830f-1dcc63bce8cc","{""participantId"":""B800FD43B253490EB3D17437920DEEF6"",""assignmentId"":""dc6c872c-ba74-4c7d-9ae4-b70e2630d79f"",""projectId"":""54f8d589-66fc-4c65-830f-1dcc63bce8cc""}","https://test12345.live/?participantId=B800FD43B253490EB3D17437920DEEF6&assignmentId=dc6c872c-ba74-4c7d-9ae4-b70e2630d79f&projectId=54f8d589-66fc-4c65-830f-1dcc63bce8cc","","1488","Was there a person in the picture?","1","",""
"","","","","","survey-likert","60","510751","0.0-44.0","B800FD43B253490EB3D17437920DEEF6","B800FD43B253490EB3D17437920DEEF6","dc6c872c-ba74-4c7d-9ae4-b70e2630d79f","54f8d589-66fc-4c65-830f-1dcc63bce8cc","{""participantId"":""B800FD43B253490EB3D17437920DEEF6"",""assignmentId"":""dc6c872c-ba74-4c7d-9ae4-b70e2630d79f"",""projectId"":""54f8d589-66fc-4c65-830f-1dcc63bce8cc""}","https://test12345.live/?participantId=B800FD43B253490EB3D17437920DEEF6&assignmentId=dc6c872c-ba74-4c7d-9ae4-b70e2630d79f&projectId=54f8d589-66fc-4c65-830f-1dcc63bce8cc","","1684","","{""Q0"":4}","","[0]"
"","","","","","html-button-response","61","511940","0.0-45.0","B800FD43B253490EB3D17437920DEEF6","B800FD43B253490EB3D17437920DEEF6","dc6c872c-ba74-4c7d-9ae4-b70e2630d79f","54f8d589-66fc-4c65-830f-1dcc63bce8cc","{""participantId"":""B800FD43B253490EB3D17437920DEEF6"",""assignmentId"":""dc6c872c-ba74-4c7d-9ae4-b70e2630d79f"",""projectId"":""54f8d589-66fc-4c65-830f-1dcc63bce8cc""}","https://test12345.live/?participantId=B800FD43B253490EB3D17437920DEEF6&assignmentId=dc6c872c-ba74-4c7d-9ae4-b70e2630d79f&projectId=54f8d589-66fc-4c65-830f-1dcc63bce8cc","","1186","
    <div style=""display: flex; justify-content: center; align-items: center;"">
      <img src=""images/red_deck_2.png"" style=""width: 300px; height: 300px; margin-right: 10px;"" />
      <img src=""images/blue_deck_1.png"" style=""width: 300px; height: 300px;"" />
    </div>","1","1",""
"","","","","","html-keyboard-response","62","514953","0.0-47.0-0.0","B800FD43B253490EB3D17437920DEEF6","B800FD43B253490EB3D17437920DEEF6","dc6c872c-ba74-4c7d-9ae4-b70e2630d79f","54f8d589-66fc-4c65-830f-1dcc63bce8cc","{""participantId"":""B800FD43B253490EB3D17437920DEEF6"",""assignmentId"":""dc6c872c-ba74-4c7d-9ae4-b70e2630d79f"",""projectId"":""54f8d589-66fc-4c65-830f-1dcc63bce8cc""}","https://test12345.live/?participantId=B800FD43B253490EB3D17437920DEEF6&assignmentId=dc6c872c-ba74-4c7d-9ae4-b70e2630d79f&projectId=54f8d589-66fc-4c65-830f-1dcc63bce8cc","","null","<div style=""display: flex; justify-content: center; align-items: center;"">
                    <img src=""images/semantic/semantic_series_15/semantic_series_15_a.jpg"" style=""width: 300px; height: 300px;"" />
                  </div>","null","",""
"","","","","","html-keyboard-response","63","517961","0.0-47.0-1.0","B800FD43B253490EB3D17437920DEEF6","B800FD43B253490EB3D17437920DEEF6","dc6c872c-ba74-4c7d-9ae4-b70e2630d79f","54f8d589-66fc-4c65-830f-1dcc63bce8cc","{""participantId"":""B800FD43B253490EB3D17437920DEEF6"",""assignmentId"":""dc6c872c-ba74-4c7d-9ae4-b70e2630d79f"",""projectId"":""54f8d589-66fc-4c65-830f-1dcc63bce8cc""}","https://test12345.live/?participantId=B800FD43B253490EB3D17437920DEEF6&assignmentId=dc6c872c-ba74-4c7d-9ae4-b70e2630d79f&projectId=54f8d589-66fc-4c65-830f-1dcc63bce8cc","","null","<div style=""display: flex; justify-content: center; align-items: center;"">
                    <img src=""images/semantic/semantic_series_15/semantic_series_15_b.jpg"" style=""width: 300px; height: 300px;"" />
                  </div>","null","",""
"","","","","","html-keyboard-response","64","520966","0.0-47.0-2.0","B800FD43B253490EB3D17437920DEEF6","B800FD43B253490EB3D17437920DEEF6","dc6c872c-ba74-4c7d-9ae4-b70e2630d79f","54f8d589-66fc-4c65-830f-1dcc63bce8cc","{""participantId"":""B800FD43B253490EB3D17437920DEEF6"",""assignmentId"":""dc6c872c-ba74-4c7d-9ae4-b70e2630d79f"",""projectId"":""54f8d589-66fc-4c65-830f-1dcc63bce8cc""}","https://test12345.live/?participantId=B800FD43B253490EB3D17437920DEEF6&assignmentId=dc6c872c-ba74-4c7d-9ae4-b70e2630d79f&projectId=54f8d589-66fc-4c65-830f-1dcc63bce8cc","","null","<div style=""display: flex; justify-content: center; align-items: center;"">
                    <img src=""images/semantic/semantic_series_15/semantic_series_15_c.jpg"" style=""width: 300px; height: 300px;"" />
                  </div>","null","",""
"","","","","","html-keyboard-response","65","523977","0.0-47.0-3.0","B800FD43B253490EB3D17437920DEEF6","B800FD43B253490EB3D17437920DEEF6","dc6c872c-ba74-4c7d-9ae4-b70e2630d79f","54f8d589-66fc-4c65-830f-1dcc63bce8cc","{""participantId"":""B800FD43B253490EB3D17437920DEEF6"",""assignmentId"":""dc6c872c-ba74-4c7d-9ae4-b70e2630d79f"",""projectId"":""54f8d589-66fc-4c65-830f-1dcc63bce8cc""}","https://test12345.live/?participantId=B800FD43B253490EB3D17437920DEEF6&assignmentId=dc6c872c-ba74-4c7d-9ae4-b70e2630d79f&projectId=54f8d589-66fc-4c65-830f-1dcc63bce8cc","","null","<div style=""display: flex; justify-content: center; align-items: center;"">
                    <img src=""images/semantic/semantic_series_15/semantic_series_15_d.jpg"" style=""width: 300px; height: 300px;"" />
                  </div>","null","",""
"","","","","","html-button-response","66","526957","0.0-48.0","B800FD43B253490EB3D17437920DEEF6","B800FD43B253490EB3D17437920DEEF6","dc6c872c-ba74-4c7d-9ae4-b70e2630d79f","54f8d589-66fc-4c65-830f-1dcc63bce8cc","{""participantId"":""B800FD43B253490EB3D17437920DEEF6"",""assignmentId"":""dc6c872c-ba74-4c7d-9ae4-b70e2630d79f"",""projectId"":""54f8d589-66fc-4c65-830f-1dcc63bce8cc""}","https://test12345.live/?participantId=B800FD43B253490EB3D17437920DEEF6&assignmentId=dc6c872c-ba74-4c7d-9ae4-b70e2630d79f&projectId=54f8d589-66fc-4c65-830f-1dcc63bce8cc","","2980","Was there a person in the picture?","1","",""
"","","","","","survey-likert","67","529856","0.0-49.0","B800FD43B253490EB3D17437920DEEF6","B800FD43B253490EB3D17437920DEEF6","dc6c872c-ba74-4c7d-9ae4-b70e2630d79f","54f8d589-66fc-4c65-830f-1dcc63bce8cc","{""participantId"":""B800FD43B253490EB3D17437920DEEF6"",""assignmentId"":""dc6c872c-ba74-4c7d-9ae4-b70e2630d79f"",""projectId"":""54f8d589-66fc-4c65-830f-1dcc63bce8cc""}","https://test12345.live/?participantId=B800FD43B253490EB3D17437920DEEF6&assignmentId=dc6c872c-ba74-4c7d-9ae4-b70e2630d79f&projectId=54f8d589-66fc-4c65-830f-1dcc63bce8cc","","2898","","{""Q0"":4}","","[0]"
"","","","","","html-button-response","68","530916","0.0-50.0","B800FD43B253490EB3D17437920DEEF6","B800FD43B253490EB3D17437920DEEF6","dc6c872c-ba74-4c7d-9ae4-b70e2630d79f","54f8d589-66fc-4c65-830f-1dcc63bce8cc","{""participantId"":""B800FD43B253490EB3D17437920DEEF6"",""assignmentId"":""dc6c872c-ba74-4c7d-9ae4-b70e2630d79f"",""projectId"":""54f8d589-66fc-4c65-830f-1dcc63bce8cc""}","https://test12345.live/?participantId=B800FD43B253490EB3D17437920DEEF6&assignmentId=dc6c872c-ba74-4c7d-9ae4-b70e2630d79f&projectId=54f8d589-66fc-4c65-830f-1dcc63bce8cc","","1058","
    <div style=""display: flex; justify-content: center; align-items: center;"">
      <img src=""images/red_deck_2.png"" style=""width: 300px; height: 300px; margin-right: 10px;"" />
      <img src=""images/blue_deck_1.png"" style=""width: 300px; height: 300px;"" />
    </div>","0","0",""
"","","","","","html-keyboard-response","69","533930","0.0-51.0-0.0","B800FD43B253490EB3D17437920DEEF6","B800FD43B253490EB3D17437920DEEF6","dc6c872c-ba74-4c7d-9ae4-b70e2630d79f","54f8d589-66fc-4c65-830f-1dcc63bce8cc","{""participantId"":""B800FD43B253490EB3D17437920DEEF6"",""assignmentId"":""dc6c872c-ba74-4c7d-9ae4-b70e2630d79f"",""projectId"":""54f8d589-66fc-4c65-830f-1dcc63bce8cc""}","https://test12345.live/?participantId=B800FD43B253490EB3D17437920DEEF6&assignmentId=dc6c872c-ba74-4c7d-9ae4-b70e2630d79f&projectId=54f8d589-66fc-4c65-830f-1dcc63bce8cc","","null","<div style=""display: flex; justify-content: center; align-items: center;"">
                    <img src=""images/causal/causal_series_2/causal_series_2_a.jpg"" style=""width: 300px; height: 300px;"" />
                  </div>","null","",""
"","","","","","html-keyboard-response","70","536941","0.0-51.0-1.0","B800FD43B253490EB3D17437920DEEF6","B800FD43B253490EB3D17437920DEEF6","dc6c872c-ba74-4c7d-9ae4-b70e2630d79f","54f8d589-66fc-4c65-830f-1dcc63bce8cc","{""participantId"":""B800FD43B253490EB3D17437920DEEF6"",""assignmentId"":""dc6c872c-ba74-4c7d-9ae4-b70e2630d79f"",""projectId"":""54f8d589-66fc-4c65-830f-1dcc63bce8cc""}","https://test12345.live/?participantId=B800FD43B253490EB3D17437920DEEF6&assignmentId=dc6c872c-ba74-4c7d-9ae4-b70e2630d79f&projectId=54f8d589-66fc-4c65-830f-1dcc63bce8cc","","null","<div style=""display: flex; justify-content: center; align-items: center;"">
                    <img src=""images/causal/causal_series_2/causal_series_2_b.jpg"" style=""width: 300px; height: 300px;"" />
                  </div>","null","",""
"","","","","","html-keyboard-response","71","539945","0.0-51.0-2.0","B800FD43B253490EB3D17437920DEEF6","B800FD43B253490EB3D17437920DEEF6","dc6c872c-ba74-4c7d-9ae4-b70e2630d79f","54f8d589-66fc-4c65-830f-1dcc63bce8cc","{""participantId"":""B800FD43B253490EB3D17437920DEEF6"",""assignmentId"":""dc6c872c-ba74-4c7d-9ae4-b70e2630d79f"",""projectId"":""54f8d589-66fc-4c65-830f-1dcc63bce8cc""}","https://test12345.live/?participantId=B800FD43B253490EB3D17437920DEEF6&assignmentId=dc6c872c-ba74-4c7d-9ae4-b70e2630d79f&projectId=54f8d589-66fc-4c65-830f-1dcc63bce8cc","","null","<div style=""display: flex; justify-content: center; align-items: center;"">
                    <img src=""images/causal/causal_series_2/causal_series_2_c.jpg"" style=""width: 300px; height: 300px;"" />
                  </div>","null","",""
"","","","","","html-keyboard-response","72","542953","0.0-51.0-3.0","B800FD43B253490EB3D17437920DEEF6","B800FD43B253490EB3D17437920DEEF6","dc6c872c-ba74-4c7d-9ae4-b70e2630d79f","54f8d589-66fc-4c65-830f-1dcc63bce8cc","{""participantId"":""B800FD43B253490EB3D17437920DEEF6"",""assignmentId"":""dc6c872c-ba74-4c7d-9ae4-b70e2630d79f"",""projectId"":""54f8d589-66fc-4c65-830f-1dcc63bce8cc""}","https://test12345.live/?participantId=B800FD43B253490EB3D17437920DEEF6&assignmentId=dc6c872c-ba74-4c7d-9ae4-b70e2630d79f&projectId=54f8d589-66fc-4c65-830f-1dcc63bce8cc","","null","<div style=""display: flex; justify-content: center; align-items: center;"">
                    <img src=""images/causal/causal_series_2/causal_series_2_d.jpg"" style=""width: 300px; height: 300px;"" />
                  </div>","null","",""
"","","","","","html-button-response","73","544604","0.0-53.0","B800FD43B253490EB3D17437920DEEF6","B800FD43B253490EB3D17437920DEEF6","dc6c872c-ba74-4c7d-9ae4-b70e2630d79f","54f8d589-66fc-4c65-830f-1dcc63bce8cc","{""participantId"":""B800FD43B253490EB3D17437920DEEF6"",""assignmentId"":""dc6c872c-ba74-4c7d-9ae4-b70e2630d79f"",""projectId"":""54f8d589-66fc-4c65-830f-1dcc63bce8cc""}","https://test12345.live/?participantId=B800FD43B253490EB3D17437920DEEF6&assignmentId=dc6c872c-ba74-4c7d-9ae4-b70e2630d79f&projectId=54f8d589-66fc-4c65-830f-1dcc63bce8cc","","1648","Was there a person in the picture?","1","",""
"","","","","","survey-likert","74","548138","0.0-54.0","B800FD43B253490EB3D17437920DEEF6","B800FD43B253490EB3D17437920DEEF6","dc6c872c-ba74-4c7d-9ae4-b70e2630d79f","54f8d589-66fc-4c65-830f-1dcc63bce8cc","{""participantId"":""B800FD43B253490EB3D17437920DEEF6"",""assignmentId"":""dc6c872c-ba74-4c7d-9ae4-b70e2630d79f"",""projectId"":""54f8d589-66fc-4c65-830f-1dcc63bce8cc""}","https://test12345.live/?participantId=B800FD43B253490EB3D17437920DEEF6&assignmentId=dc6c872c-ba74-4c7d-9ae4-b70e2630d79f&projectId=54f8d589-66fc-4c65-830f-1dcc63bce8cc","","3532","","{""Q0"":4}","","[0]"
"","","","","","html-button-response","75","549077","0.0-55.0","B800FD43B253490EB3D17437920DEEF6","B800FD43B253490EB3D17437920DEEF6","dc6c872c-ba74-4c7d-9ae4-b70e2630d79f","54f8d589-66fc-4c65-830f-1dcc63bce8cc","{""participantId"":""B800FD43B253490EB3D17437920DEEF6"",""assignmentId"":""dc6c872c-ba74-4c7d-9ae4-b70e2630d79f"",""projectId"":""54f8d589-66fc-4c65-830f-1dcc63bce8cc""}","https://test12345.live/?participantId=B800FD43B253490EB3D17437920DEEF6&assignmentId=dc6c872c-ba74-4c7d-9ae4-b70e2630d79f&projectId=54f8d589-66fc-4c65-830f-1dcc63bce8cc","","939","
    <div style=""display: flex; justify-content: center; align-items: center;"">
      <img src=""images/red_deck_2.png"" style=""width: 300px; height: 300px; margin-right: 10px;"" />
      <img src=""images/blue_deck_1.png"" style=""width: 300px; height: 300px;"" />
    </div>","0","0",""
"","","","","","html-keyboard-response","76","552089","0.0-56.0-0.0","B800FD43B253490EB3D17437920DEEF6","B800FD43B253490EB3D17437920DEEF6","dc6c872c-ba74-4c7d-9ae4-b70e2630d79f","54f8d589-66fc-4c65-830f-1dcc63bce8cc","{""participantId"":""B800FD43B253490EB3D17437920DEEF6"",""assignmentId"":""dc6c872c-ba74-4c7d-9ae4-b70e2630d79f"",""projectId"":""54f8d589-66fc-4c65-830f-1dcc63bce8cc""}","https://test12345.live/?participantId=B800FD43B253490EB3D17437920DEEF6&assignmentId=dc6c872c-ba74-4c7d-9ae4-b70e2630d79f&projectId=54f8d589-66fc-4c65-830f-1dcc63bce8cc","","null","<div style=""display: flex; justify-content: center; align-items: center;"">
                    <img src=""images/causal/causal_series_12/causal_series_12_a.jpg"" style=""width: 300px; height: 300px;"" />
                  </div>","null","",""
"","","","","","html-keyboard-response","77","555090","0.0-56.0-1.0","B800FD43B253490EB3D17437920DEEF6","B800FD43B253490EB3D17437920DEEF6","dc6c872c-ba74-4c7d-9ae4-b70e2630d79f","54f8d589-66fc-4c65-830f-1dcc63bce8cc","{""participantId"":""B800FD43B253490EB3D17437920DEEF6"",""assignmentId"":""dc6c872c-ba74-4c7d-9ae4-b70e2630d79f"",""projectId"":""54f8d589-66fc-4c65-830f-1dcc63bce8cc""}","https://test12345.live/?participantId=B800FD43B253490EB3D17437920DEEF6&assignmentId=dc6c872c-ba74-4c7d-9ae4-b70e2630d79f&projectId=54f8d589-66fc-4c65-830f-1dcc63bce8cc","","null","<div style=""display: flex; justify-content: center; align-items: center;"">
                    <img src=""images/causal/causal_series_12/causal_series_12_b.jpg"" style=""width: 300px; height: 300px;"" />
                  </div>","null","",""
"","","","","","html-keyboard-response","78","558103","0.0-56.0-2.0","B800FD43B253490EB3D17437920DEEF6","B800FD43B253490EB3D17437920DEEF6","dc6c872c-ba74-4c7d-9ae4-b70e2630d79f","54f8d589-66fc-4c65-830f-1dcc63bce8cc","{""participantId"":""B800FD43B253490EB3D17437920DEEF6"",""assignmentId"":""dc6c872c-ba74-4c7d-9ae4-b70e2630d79f"",""projectId"":""54f8d589-66fc-4c65-830f-1dcc63bce8cc""}","https://test12345.live/?participantId=B800FD43B253490EB3D17437920DEEF6&assignmentId=dc6c872c-ba74-4c7d-9ae4-b70e2630d79f&projectId=54f8d589-66fc-4c65-830f-1dcc63bce8cc","","null","<div style=""display: flex; justify-content: center; align-items: center;"">
                    <img src=""images/causal/causal_series_12/causal_series_12_c.jpg"" style=""width: 300px; height: 300px;"" />
                  </div>","null","",""
"","","","","","html-keyboard-response","79","561115","0.0-56.0-3.0","B800FD43B253490EB3D17437920DEEF6","B800FD43B253490EB3D17437920DEEF6","dc6c872c-ba74-4c7d-9ae4-b70e2630d79f","54f8d589-66fc-4c65-830f-1dcc63bce8cc","{""participantId"":""B800FD43B253490EB3D17437920DEEF6"",""assignmentId"":""dc6c872c-ba74-4c7d-9ae4-b70e2630d79f"",""projectId"":""54f8d589-66fc-4c65-830f-1dcc63bce8cc""}","https://test12345.live/?participantId=B800FD43B253490EB3D17437920DEEF6&assignmentId=dc6c872c-ba74-4c7d-9ae4-b70e2630d79f&projectId=54f8d589-66fc-4c65-830f-1dcc63bce8cc","","null","<div style=""display: flex; justify-content: center; align-items: center;"">
                    <img src=""images/causal/causal_series_12/causal_series_12_d.jpg"" style=""width: 300px; height: 300px;"" />
                  </div>","null","",""
"","","","","","html-button-response","80","562459","0.0-58.0","B800FD43B253490EB3D17437920DEEF6","B800FD43B253490EB3D17437920DEEF6","dc6c872c-ba74-4c7d-9ae4-b70e2630d79f","54f8d589-66fc-4c65-830f-1dcc63bce8cc","{""participantId"":""B800FD43B253490EB3D17437920DEEF6"",""assignmentId"":""dc6c872c-ba74-4c7d-9ae4-b70e2630d79f"",""projectId"":""54f8d589-66fc-4c65-830f-1dcc63bce8cc""}","https://test12345.live/?participantId=B800FD43B253490EB3D17437920DEEF6&assignmentId=dc6c872c-ba74-4c7d-9ae4-b70e2630d79f&projectId=54f8d589-66fc-4c65-830f-1dcc63bce8cc","","1343","Was there a person in the picture?","1","",""
"","","","","","survey-likert","81","563879","0.0-59.0","B800FD43B253490EB3D17437920DEEF6","B800FD43B253490EB3D17437920DEEF6","dc6c872c-ba74-4c7d-9ae4-b70e2630d79f","54f8d589-66fc-4c65-830f-1dcc63bce8cc","{""participantId"":""B800FD43B253490EB3D17437920DEEF6"",""assignmentId"":""dc6c872c-ba74-4c7d-9ae4-b70e2630d79f"",""projectId"":""54f8d589-66fc-4c65-830f-1dcc63bce8cc""}","https://test12345.live/?participantId=B800FD43B253490EB3D17437920DEEF6&assignmentId=dc6c872c-ba74-4c7d-9ae4-b70e2630d79f&projectId=54f8d589-66fc-4c65-830f-1dcc63bce8cc","","1419","","{""Q0"":4}","","[0]"
"","","","","","html-button-response","82","564774","0.0-60.0","B800FD43B253490EB3D17437920DEEF6","B800FD43B253490EB3D17437920DEEF6","dc6c872c-ba74-4c7d-9ae4-b70e2630d79f","54f8d589-66fc-4c65-830f-1dcc63bce8cc","{""participantId"":""B800FD43B253490EB3D17437920DEEF6"",""assignmentId"":""dc6c872c-ba74-4c7d-9ae4-b70e2630d79f"",""projectId"":""54f8d589-66fc-4c65-830f-1dcc63bce8cc""}","https://test12345.live/?participantId=B800FD43B253490EB3D17437920DEEF6&assignmentId=dc6c872c-ba74-4c7d-9ae4-b70e2630d79f&projectId=54f8d589-66fc-4c65-830f-1dcc63bce8cc","","894","
    <div style=""display: flex; justify-content: center; align-items: center;"">
      <img src=""images/red_deck_2.png"" style=""width: 300px; height: 300px; margin-right: 10px;"" />
      <img src=""images/blue_deck_1.png"" style=""width: 300px; height: 300px;"" />
    </div>","0","0",""
"","","","","","html-keyboard-response","83","567781","0.0-61.0-0.0","B800FD43B253490EB3D17437920DEEF6","B800FD43B253490EB3D17437920DEEF6","dc6c872c-ba74-4c7d-9ae4-b70e2630d79f","54f8d589-66fc-4c65-830f-1dcc63bce8cc","{""participantId"":""B800FD43B253490EB3D17437920DEEF6"",""assignmentId"":""dc6c872c-ba74-4c7d-9ae4-b70e2630d79f"",""projectId"":""54f8d589-66fc-4c65-830f-1dcc63bce8cc""}","https://test12345.live/?participantId=B800FD43B253490EB3D17437920DEEF6&assignmentId=dc6c872c-ba74-4c7d-9ae4-b70e2630d79f&projectId=54f8d589-66fc-4c65-830f-1dcc63bce8cc","","null","<div style=""display: flex; justify-content: center; align-items: center;"">
                    <img src=""images/causal/causal_series_18/causal_series_18_a.jpg"" style=""width: 300px; height: 300px;"" />
                  </div>","null","",""
"","","","","","html-keyboard-response","84","570783","0.0-61.0-1.0","B800FD43B253490EB3D17437920DEEF6","B800FD43B253490EB3D17437920DEEF6","dc6c872c-ba74-4c7d-9ae4-b70e2630d79f","54f8d589-66fc-4c65-830f-1dcc63bce8cc","{""participantId"":""B800FD43B253490EB3D17437920DEEF6"",""assignmentId"":""dc6c872c-ba74-4c7d-9ae4-b70e2630d79f"",""projectId"":""54f8d589-66fc-4c65-830f-1dcc63bce8cc""}","https://test12345.live/?participantId=B800FD43B253490EB3D17437920DEEF6&assignmentId=dc6c872c-ba74-4c7d-9ae4-b70e2630d79f&projectId=54f8d589-66fc-4c65-830f-1dcc63bce8cc","","null","<div style=""display: flex; justify-content: center; align-items: center;"">
                    <img src=""images/causal/causal_series_18/causal_series_18_b.jpg"" style=""width: 300px; height: 300px;"" />
                  </div>","null","",""
"","","","","","html-keyboard-response","85","573798","0.0-61.0-2.0","B800FD43B253490EB3D17437920DEEF6","B800FD43B253490EB3D17437920DEEF6","dc6c872c-ba74-4c7d-9ae4-b70e2630d79f","54f8d589-66fc-4c65-830f-1dcc63bce8cc","{""participantId"":""B800FD43B253490EB3D17437920DEEF6"",""assignmentId"":""dc6c872c-ba74-4c7d-9ae4-b70e2630d79f"",""projectId"":""54f8d589-66fc-4c65-830f-1dcc63bce8cc""}","https://test12345.live/?participantId=B800FD43B253490EB3D17437920DEEF6&assignmentId=dc6c872c-ba74-4c7d-9ae4-b70e2630d79f&projectId=54f8d589-66fc-4c65-830f-1dcc63bce8cc","","null","<div style=""display: flex; justify-content: center; align-items: center;"">
                    <img src=""images/causal/causal_series_18/causal_series_18_c.jpg"" style=""width: 300px; height: 300px;"" />
                  </div>","null","",""
"","","","","","html-keyboard-response","86","576814","0.0-61.0-3.0","B800FD43B253490EB3D17437920DEEF6","B800FD43B253490EB3D17437920DEEF6","dc6c872c-ba74-4c7d-9ae4-b70e2630d79f","54f8d589-66fc-4c65-830f-1dcc63bce8cc","{""participantId"":""B800FD43B253490EB3D17437920DEEF6"",""assignmentId"":""dc6c872c-ba74-4c7d-9ae4-b70e2630d79f"",""projectId"":""54f8d589-66fc-4c65-830f-1dcc63bce8cc""}","https://test12345.live/?participantId=B800FD43B253490EB3D17437920DEEF6&assignmentId=dc6c872c-ba74-4c7d-9ae4-b70e2630d79f&projectId=54f8d589-66fc-4c65-830f-1dcc63bce8cc","","null","<div style=""display: flex; justify-content: center; align-items: center;"">
                    <img src=""images/causal/causal_series_18/causal_series_18_d.jpg"" style=""width: 300px; height: 300px;"" />
                  </div>","null","",""
"","","","","","html-button-response","87","578005","0.0-63.0","B800FD43B253490EB3D17437920DEEF6","B800FD43B253490EB3D17437920DEEF6","dc6c872c-ba74-4c7d-9ae4-b70e2630d79f","54f8d589-66fc-4c65-830f-1dcc63bce8cc","{""participantId"":""B800FD43B253490EB3D17437920DEEF6"",""assignmentId"":""dc6c872c-ba74-4c7d-9ae4-b70e2630d79f"",""projectId"":""54f8d589-66fc-4c65-830f-1dcc63bce8cc""}","https://test12345.live/?participantId=B800FD43B253490EB3D17437920DEEF6&assignmentId=dc6c872c-ba74-4c7d-9ae4-b70e2630d79f&projectId=54f8d589-66fc-4c65-830f-1dcc63bce8cc","","1189","Was there a person in the picture?","1","",""
"","","","","","survey-likert","88","579148","0.0-64.0","B800FD43B253490EB3D17437920DEEF6","B800FD43B253490EB3D17437920DEEF6","dc6c872c-ba74-4c7d-9ae4-b70e2630d79f","54f8d589-66fc-4c65-830f-1dcc63bce8cc","{""participantId"":""B800FD43B253490EB3D17437920DEEF6"",""assignmentId"":""dc6c872c-ba74-4c7d-9ae4-b70e2630d79f"",""projectId"":""54f8d589-66fc-4c65-830f-1dcc63bce8cc""}","https://test12345.live/?participantId=B800FD43B253490EB3D17437920DEEF6&assignmentId=dc6c872c-ba74-4c7d-9ae4-b70e2630d79f&projectId=54f8d589-66fc-4c65-830f-1dcc63bce8cc","","1142","","{""Q0"":4}","","[0]"
"","","","","","html-button-response","89","580214","0.0-65.0","B800FD43B253490EB3D17437920DEEF6","B800FD43B253490EB3D17437920DEEF6","dc6c872c-ba74-4c7d-9ae4-b70e2630d79f","54f8d589-66fc-4c65-830f-1dcc63bce8cc","{""participantId"":""B800FD43B253490EB3D17437920DEEF6"",""assignmentId"":""dc6c872c-ba74-4c7d-9ae4-b70e2630d79f"",""projectId"":""54f8d589-66fc-4c65-830f-1dcc63bce8cc""}","https://test12345.live/?participantId=B800FD43B253490EB3D17437920DEEF6&assignmentId=dc6c872c-ba74-4c7d-9ae4-b70e2630d79f&projectId=54f8d589-66fc-4c65-830f-1dcc63bce8cc","","1064","
    <div style=""display: flex; justify-content: center; align-items: center;"">
      <img src=""images/red_deck_2.png"" style=""width: 300px; height: 300px; margin-right: 10px;"" />
      <img src=""images/blue_deck_1.png"" style=""width: 300px; height: 300px;"" />
    </div>","1","1",""
"","","","","","html-keyboard-response","90","583219","0.0-67.0-0.0","B800FD43B253490EB3D17437920DEEF6","B800FD43B253490EB3D17437920DEEF6","dc6c872c-ba74-4c7d-9ae4-b70e2630d79f","54f8d589-66fc-4c65-830f-1dcc63bce8cc","{""participantId"":""B800FD43B253490EB3D17437920DEEF6"",""assignmentId"":""dc6c872c-ba74-4c7d-9ae4-b70e2630d79f"",""projectId"":""54f8d589-66fc-4c65-830f-1dcc63bce8cc""}","https://test12345.live/?participantId=B800FD43B253490EB3D17437920DEEF6&assignmentId=dc6c872c-ba74-4c7d-9ae4-b70e2630d79f&projectId=54f8d589-66fc-4c65-830f-1dcc63bce8cc","","null","<div style=""display: flex; justify-content: center; align-items: center;"">
                    <img src=""images/semantic/semantic_series_7/semantic_series_7_a.jpg"" style=""width: 300px; height: 300px;"" />
                  </div>","null","",""
"","","","","","html-keyboard-response","91","586223","0.0-67.0-1.0","B800FD43B253490EB3D17437920DEEF6","B800FD43B253490EB3D17437920DEEF6","dc6c872c-ba74-4c7d-9ae4-b70e2630d79f","54f8d589-66fc-4c65-830f-1dcc63bce8cc","{""participantId"":""B800FD43B253490EB3D17437920DEEF6"",""assignmentId"":""dc6c872c-ba74-4c7d-9ae4-b70e2630d79f"",""projectId"":""54f8d589-66fc-4c65-830f-1dcc63bce8cc""}","https://test12345.live/?participantId=B800FD43B253490EB3D17437920DEEF6&assignmentId=dc6c872c-ba74-4c7d-9ae4-b70e2630d79f&projectId=54f8d589-66fc-4c65-830f-1dcc63bce8cc","","null","<div style=""display: flex; justify-content: center; align-items: center;"">
                    <img src=""images/semantic/semantic_series_7/semantic_series_7_b.jpg"" style=""width: 300px; height: 300px;"" />
                  </div>","null","",""
"","","","","","html-keyboard-response","92","589237","0.0-67.0-2.0","B800FD43B253490EB3D17437920DEEF6","B800FD43B253490EB3D17437920DEEF6","dc6c872c-ba74-4c7d-9ae4-b70e2630d79f","54f8d589-66fc-4c65-830f-1dcc63bce8cc","{""participantId"":""B800FD43B253490EB3D17437920DEEF6"",""assignmentId"":""dc6c872c-ba74-4c7d-9ae4-b70e2630d79f"",""projectId"":""54f8d589-66fc-4c65-830f-1dcc63bce8cc""}","https://test12345.live/?participantId=B800FD43B253490EB3D17437920DEEF6&assignmentId=dc6c872c-ba74-4c7d-9ae4-b70e2630d79f&projectId=54f8d589-66fc-4c65-830f-1dcc63bce8cc","","null","<div style=""display: flex; justify-content: center; align-items: center;"">
                    <img src=""images/semantic/semantic_series_7/semantic_series_7_c.jpg"" style=""width: 300px; height: 300px;"" />
                  </div>","null","",""
"","","","","","html-keyboard-response","93","592248","0.0-67.0-3.0","B800FD43B253490EB3D17437920DEEF6","B800FD43B253490EB3D17437920DEEF6","dc6c872c-ba74-4c7d-9ae4-b70e2630d79f","54f8d589-66fc-4c65-830f-1dcc63bce8cc","{""participantId"":""B800FD43B253490EB3D17437920DEEF6"",""assignmentId"":""dc6c872c-ba74-4c7d-9ae4-b70e2630d79f"",""projectId"":""54f8d589-66fc-4c65-830f-1dcc63bce8cc""}","https://test12345.live/?participantId=B800FD43B253490EB3D17437920DEEF6&assignmentId=dc6c872c-ba74-4c7d-9ae4-b70e2630d79f&projectId=54f8d589-66fc-4c65-830f-1dcc63bce8cc","","null","<div style=""display: flex; justify-content: center; align-items: center;"">
                    <img src=""images/semantic/semantic_series_7/semantic_series_7_d.jpg"" style=""width: 300px; height: 300px;"" />
                  </div>","null","",""
"","","","","","html-button-response","94","593634","0.0-68.0","B800FD43B253490EB3D17437920DEEF6","B800FD43B253490EB3D17437920DEEF6","dc6c872c-ba74-4c7d-9ae4-b70e2630d79f","54f8d589-66fc-4c65-830f-1dcc63bce8cc","{""participantId"":""B800FD43B253490EB3D17437920DEEF6"",""assignmentId"":""dc6c872c-ba74-4c7d-9ae4-b70e2630d79f"",""projectId"":""54f8d589-66fc-4c65-830f-1dcc63bce8cc""}","https://test12345.live/?participantId=B800FD43B253490EB3D17437920DEEF6&assignmentId=dc6c872c-ba74-4c7d-9ae4-b70e2630d79f&projectId=54f8d589-66fc-4c65-830f-1dcc63bce8cc","","1384","Was there a person in the picture?","1","",""
"","","","","","survey-likert","95","595033","0.0-69.0","B800FD43B253490EB3D17437920DEEF6","B800FD43B253490EB3D17437920DEEF6","dc6c872c-ba74-4c7d-9ae4-b70e2630d79f","54f8d589-66fc-4c65-830f-1dcc63bce8cc","{""participantId"":""B800FD43B253490EB3D17437920DEEF6"",""assignmentId"":""dc6c872c-ba74-4c7d-9ae4-b70e2630d79f"",""projectId"":""54f8d589-66fc-4c65-830f-1dcc63bce8cc""}","https://test12345.live/?participantId=B800FD43B253490EB3D17437920DEEF6&assignmentId=dc6c872c-ba74-4c7d-9ae4-b70e2630d79f&projectId=54f8d589-66fc-4c65-830f-1dcc63bce8cc","","1397","","{""Q0"":4}","","[0]"
"","","","","","html-button-response","96","596063","0.0-70.0","B800FD43B253490EB3D17437920DEEF6","B800FD43B253490EB3D17437920DEEF6","dc6c872c-ba74-4c7d-9ae4-b70e2630d79f","54f8d589-66fc-4c65-830f-1dcc63bce8cc","{""participantId"":""B800FD43B253490EB3D17437920DEEF6"",""assignmentId"":""dc6c872c-ba74-4c7d-9ae4-b70e2630d79f"",""projectId"":""54f8d589-66fc-4c65-830f-1dcc63bce8cc""}","https://test12345.live/?participantId=B800FD43B253490EB3D17437920DEEF6&assignmentId=dc6c872c-ba74-4c7d-9ae4-b70e2630d79f&projectId=54f8d589-66fc-4c65-830f-1dcc63bce8cc","","1028","
    <div style=""display: flex; justify-content: center; align-items: center;"">
      <img src=""images/red_deck_2.png"" style=""width: 300px; height: 300px; margin-right: 10px;"" />
      <img src=""images/blue_deck_1.png"" style=""width: 300px; height: 300px;"" />
    </div>","0","0",""
"","","","","","html-keyboard-response","97","599079","0.0-71.0-0.0","B800FD43B253490EB3D17437920DEEF6","B800FD43B253490EB3D17437920DEEF6","dc6c872c-ba74-4c7d-9ae4-b70e2630d79f","54f8d589-66fc-4c65-830f-1dcc63bce8cc","{""participantId"":""B800FD43B253490EB3D17437920DEEF6"",""assignmentId"":""dc6c872c-ba74-4c7d-9ae4-b70e2630d79f"",""projectId"":""54f8d589-66fc-4c65-830f-1dcc63bce8cc""}","https://test12345.live/?participantId=B800FD43B253490EB3D17437920DEEF6&assignmentId=dc6c872c-ba74-4c7d-9ae4-b70e2630d79f&projectId=54f8d589-66fc-4c65-830f-1dcc63bce8cc","","null","<div style=""display: flex; justify-content: center; align-items: center;"">
                    <img src=""images/causal/causal_series_4/causal_series_4_a.jpg"" style=""width: 300px; height: 300px;"" />
                  </div>","null","",""
"","","","","","html-keyboard-response","98","602095","0.0-71.0-1.0","B800FD43B253490EB3D17437920DEEF6","B800FD43B253490EB3D17437920DEEF6","dc6c872c-ba74-4c7d-9ae4-b70e2630d79f","54f8d589-66fc-4c65-830f-1dcc63bce8cc","{""participantId"":""B800FD43B253490EB3D17437920DEEF6"",""assignmentId"":""dc6c872c-ba74-4c7d-9ae4-b70e2630d79f"",""projectId"":""54f8d589-66fc-4c65-830f-1dcc63bce8cc""}","https://test12345.live/?participantId=B800FD43B253490EB3D17437920DEEF6&assignmentId=dc6c872c-ba74-4c7d-9ae4-b70e2630d79f&projectId=54f8d589-66fc-4c65-830f-1dcc63bce8cc","","null","<div style=""display: flex; justify-content: center; align-items: center;"">
                    <img src=""images/causal/causal_series_4/causal_series_4_b.jpg"" style=""width: 300px; height: 300px;"" />
                  </div>","null","",""
"","","","","","html-keyboard-response","99","605112","0.0-71.0-2.0","B800FD43B253490EB3D17437920DEEF6","B800FD43B253490EB3D17437920DEEF6","dc6c872c-ba74-4c7d-9ae4-b70e2630d79f","54f8d589-66fc-4c65-830f-1dcc63bce8cc","{""participantId"":""B800FD43B253490EB3D17437920DEEF6"",""assignmentId"":""dc6c872c-ba74-4c7d-9ae4-b70e2630d79f"",""projectId"":""54f8d589-66fc-4c65-830f-1dcc63bce8cc""}","https://test12345.live/?participantId=B800FD43B253490EB3D17437920DEEF6&assignmentId=dc6c872c-ba74-4c7d-9ae4-b70e2630d79f&projectId=54f8d589-66fc-4c65-830f-1dcc63bce8cc","","null","<div style=""display: flex; justify-content: center; align-items: center;"">
                    <img src=""images/causal/causal_series_4/causal_series_4_c.jpg"" style=""width: 300px; height: 300px;"" />
                  </div>","null","",""
"","","","","","html-keyboard-response","100","608128","0.0-71.0-3.0","B800FD43B253490EB3D17437920DEEF6","B800FD43B253490EB3D17437920DEEF6","dc6c872c-ba74-4c7d-9ae4-b70e2630d79f","54f8d589-66fc-4c65-830f-1dcc63bce8cc","{""participantId"":""B800FD43B253490EB3D17437920DEEF6"",""assignmentId"":""dc6c872c-ba74-4c7d-9ae4-b70e2630d79f"",""projectId"":""54f8d589-66fc-4c65-830f-1dcc63bce8cc""}","https://test12345.live/?participantId=B800FD43B253490EB3D17437920DEEF6&assignmentId=dc6c872c-ba74-4c7d-9ae4-b70e2630d79f&projectId=54f8d589-66fc-4c65-830f-1dcc63bce8cc","","null","<div style=""display: flex; justify-content: center; align-items: center;"">
                    <img src=""images/causal/causal_series_4/causal_series_4_d.jpg"" style=""width: 300px; height: 300px;"" />
                  </div>","null","",""
"","","","","","html-button-response","101","609684","0.0-73.0","B800FD43B253490EB3D17437920DEEF6","B800FD43B253490EB3D17437920DEEF6","dc6c872c-ba74-4c7d-9ae4-b70e2630d79f","54f8d589-66fc-4c65-830f-1dcc63bce8cc","{""participantId"":""B800FD43B253490EB3D17437920DEEF6"",""assignmentId"":""dc6c872c-ba74-4c7d-9ae4-b70e2630d79f"",""projectId"":""54f8d589-66fc-4c65-830f-1dcc63bce8cc""}","https://test12345.live/?participantId=B800FD43B253490EB3D17437920DEEF6&assignmentId=dc6c872c-ba74-4c7d-9ae4-b70e2630d79f&projectId=54f8d589-66fc-4c65-830f-1dcc63bce8cc","","1555","Was there a person in the picture?","1","",""
"","","","","","survey-likert","102","610754","0.0-74.0","B800FD43B253490EB3D17437920DEEF6","B800FD43B253490EB3D17437920DEEF6","dc6c872c-ba74-4c7d-9ae4-b70e2630d79f","54f8d589-66fc-4c65-830f-1dcc63bce8cc","{""participantId"":""B800FD43B253490EB3D17437920DEEF6"",""assignmentId"":""dc6c872c-ba74-4c7d-9ae4-b70e2630d79f"",""projectId"":""54f8d589-66fc-4c65-830f-1dcc63bce8cc""}","https://test12345.live/?participantId=B800FD43B253490EB3D17437920DEEF6&assignmentId=dc6c872c-ba74-4c7d-9ae4-b70e2630d79f&projectId=54f8d589-66fc-4c65-830f-1dcc63bce8cc","","1069","","{""Q0"":3}","","[0]"
"","","","","","html-button-response","103","611706","0.0-75.0","B800FD43B253490EB3D17437920DEEF6","B800FD43B253490EB3D17437920DEEF6","dc6c872c-ba74-4c7d-9ae4-b70e2630d79f","54f8d589-66fc-4c65-830f-1dcc63bce8cc","{""participantId"":""B800FD43B253490EB3D17437920DEEF6"",""assignmentId"":""dc6c872c-ba74-4c7d-9ae4-b70e2630d79f"",""projectId"":""54f8d589-66fc-4c65-830f-1dcc63bce8cc""}","https://test12345.live/?participantId=B800FD43B253490EB3D17437920DEEF6&assignmentId=dc6c872c-ba74-4c7d-9ae4-b70e2630d79f&projectId=54f8d589-66fc-4c65-830f-1dcc63bce8cc","","952","
    <div style=""display: flex; justify-content: center; align-items: center;"">
      <img src=""images/red_deck_2.png"" style=""width: 300px; height: 300px; margin-right: 10px;"" />
      <img src=""images/blue_deck_1.png"" style=""width: 300px; height: 300px;"" />
    </div>","0","0",""
"","","","","","html-keyboard-response","104","614718","0.0-76.0-0.0","B800FD43B253490EB3D17437920DEEF6","B800FD43B253490EB3D17437920DEEF6","dc6c872c-ba74-4c7d-9ae4-b70e2630d79f","54f8d589-66fc-4c65-830f-1dcc63bce8cc","{""participantId"":""B800FD43B253490EB3D17437920DEEF6"",""assignmentId"":""dc6c872c-ba74-4c7d-9ae4-b70e2630d79f"",""projectId"":""54f8d589-66fc-4c65-830f-1dcc63bce8cc""}","https://test12345.live/?participantId=B800FD43B253490EB3D17437920DEEF6&assignmentId=dc6c872c-ba74-4c7d-9ae4-b70e2630d79f&projectId=54f8d589-66fc-4c65-830f-1dcc63bce8cc","","null","<div style=""display: flex; justify-content: center; align-items: center;"">
                    <img src=""images/causal/causal_series_5/causal_series_5_a.jpg"" style=""width: 300px; height: 300px;"" />
                  </div>","null","",""
"","","","","","html-keyboard-response","105","617728","0.0-76.0-1.0","B800FD43B253490EB3D17437920DEEF6","B800FD43B253490EB3D17437920DEEF6","dc6c872c-ba74-4c7d-9ae4-b70e2630d79f","54f8d589-66fc-4c65-830f-1dcc63bce8cc","{""participantId"":""B800FD43B253490EB3D17437920DEEF6"",""assignmentId"":""dc6c872c-ba74-4c7d-9ae4-b70e2630d79f"",""projectId"":""54f8d589-66fc-4c65-830f-1dcc63bce8cc""}","https://test12345.live/?participantId=B800FD43B253490EB3D17437920DEEF6&assignmentId=dc6c872c-ba74-4c7d-9ae4-b70e2630d79f&projectId=54f8d589-66fc-4c65-830f-1dcc63bce8cc","","null","<div style=""display: flex; justify-content: center; align-items: center;"">
                    <img src=""images/causal/causal_series_5/causal_series_5_b.jpg"" style=""width: 300px; height: 300px;"" />
                  </div>","null","",""
"","","","","","html-keyboard-response","106","620733","0.0-76.0-2.0","B800FD43B253490EB3D17437920DEEF6","B800FD43B253490EB3D17437920DEEF6","dc6c872c-ba74-4c7d-9ae4-b70e2630d79f","54f8d589-66fc-4c65-830f-1dcc63bce8cc","{""participantId"":""B800FD43B253490EB3D17437920DEEF6"",""assignmentId"":""dc6c872c-ba74-4c7d-9ae4-b70e2630d79f"",""projectId"":""54f8d589-66fc-4c65-830f-1dcc63bce8cc""}","https://test12345.live/?participantId=B800FD43B253490EB3D17437920DEEF6&assignmentId=dc6c872c-ba74-4c7d-9ae4-b70e2630d79f&projectId=54f8d589-66fc-4c65-830f-1dcc63bce8cc","","null","<div style=""display: flex; justify-content: center; align-items: center;"">
                    <img src=""images/causal/causal_series_5/causal_series_5_c.jpg"" style=""width: 300px; height: 300px;"" />
                  </div>","null","",""
"","","","","","html-keyboard-response","107","623738","0.0-76.0-3.0","B800FD43B253490EB3D17437920DEEF6","B800FD43B253490EB3D17437920DEEF6","dc6c872c-ba74-4c7d-9ae4-b70e2630d79f","54f8d589-66fc-4c65-830f-1dcc63bce8cc","{""participantId"":""B800FD43B253490EB3D17437920DEEF6"",""assignmentId"":""dc6c872c-ba74-4c7d-9ae4-b70e2630d79f"",""projectId"":""54f8d589-66fc-4c65-830f-1dcc63bce8cc""}","https://test12345.live/?participantId=B800FD43B253490EB3D17437920DEEF6&assignmentId=dc6c872c-ba74-4c7d-9ae4-b70e2630d79f&projectId=54f8d589-66fc-4c65-830f-1dcc63bce8cc","","null","<div style=""display: flex; justify-content: center; align-items: center;"">
                    <img src=""images/causal/causal_series_5/causal_series_5_d.jpg"" style=""width: 300px; height: 300px;"" />
                  </div>","null","",""
"","","","","","html-button-response","108","625418","0.0-78.0","B800FD43B253490EB3D17437920DEEF6","B800FD43B253490EB3D17437920DEEF6","dc6c872c-ba74-4c7d-9ae4-b70e2630d79f","54f8d589-66fc-4c65-830f-1dcc63bce8cc","{""participantId"":""B800FD43B253490EB3D17437920DEEF6"",""assignmentId"":""dc6c872c-ba74-4c7d-9ae4-b70e2630d79f"",""projectId"":""54f8d589-66fc-4c65-830f-1dcc63bce8cc""}","https://test12345.live/?participantId=B800FD43B253490EB3D17437920DEEF6&assignmentId=dc6c872c-ba74-4c7d-9ae4-b70e2630d79f&projectId=54f8d589-66fc-4c65-830f-1dcc63bce8cc","","1678","Was there a person in the picture?","0","",""
"","","","","","survey-likert","109","626983","0.0-79.0","B800FD43B253490EB3D17437920DEEF6","B800FD43B253490EB3D17437920DEEF6","dc6c872c-ba74-4c7d-9ae4-b70e2630d79f","54f8d589-66fc-4c65-830f-1dcc63bce8cc","{""participantId"":""B800FD43B253490EB3D17437920DEEF6"",""assignmentId"":""dc6c872c-ba74-4c7d-9ae4-b70e2630d79f"",""projectId"":""54f8d589-66fc-4c65-830f-1dcc63bce8cc""}","https://test12345.live/?participantId=B800FD43B253490EB3D17437920DEEF6&assignmentId=dc6c872c-ba74-4c7d-9ae4-b70e2630d79f&projectId=54f8d589-66fc-4c65-830f-1dcc63bce8cc","","1565","","{""Q0"":4}","","[0]"
"","","","","","html-button-response","110","628057","0.0-80.0","B800FD43B253490EB3D17437920DEEF6","B800FD43B253490EB3D17437920DEEF6","dc6c872c-ba74-4c7d-9ae4-b70e2630d79f","54f8d589-66fc-4c65-830f-1dcc63bce8cc","{""participantId"":""B800FD43B253490EB3D17437920DEEF6"",""assignmentId"":""dc6c872c-ba74-4c7d-9ae4-b70e2630d79f"",""projectId"":""54f8d589-66fc-4c65-830f-1dcc63bce8cc""}","https://test12345.live/?participantId=B800FD43B253490EB3D17437920DEEF6&assignmentId=dc6c872c-ba74-4c7d-9ae4-b70e2630d79f&projectId=54f8d589-66fc-4c65-830f-1dcc63bce8cc","","1072","
    <div style=""display: flex; justify-content: center; align-items: center;"">
      <img src=""images/red_deck_2.png"" style=""width: 300px; height: 300px; margin-right: 10px;"" />
      <img src=""images/blue_deck_1.png"" style=""width: 300px; height: 300px;"" />
    </div>","1","1",""
"","","","","","html-keyboard-response","111","631062","0.0-82.0-0.0","B800FD43B253490EB3D17437920DEEF6","B800FD43B253490EB3D17437920DEEF6","dc6c872c-ba74-4c7d-9ae4-b70e2630d79f","54f8d589-66fc-4c65-830f-1dcc63bce8cc","{""participantId"":""B800FD43B253490EB3D17437920DEEF6"",""assignmentId"":""dc6c872c-ba74-4c7d-9ae4-b70e2630d79f"",""projectId"":""54f8d589-66fc-4c65-830f-1dcc63bce8cc""}","https://test12345.live/?participantId=B800FD43B253490EB3D17437920DEEF6&assignmentId=dc6c872c-ba74-4c7d-9ae4-b70e2630d79f&projectId=54f8d589-66fc-4c65-830f-1dcc63bce8cc","","null","<div style=""display: flex; justify-content: center; align-items: center;"">
                    <img src=""images/semantic/semantic_series_18/semantic_series_18_a.jpg"" style=""width: 300px; height: 300px;"" />
                  </div>","null","",""
"","","","","","html-keyboard-response","112","634067","0.0-82.0-1.0","B800FD43B253490EB3D17437920DEEF6","B800FD43B253490EB3D17437920DEEF6","dc6c872c-ba74-4c7d-9ae4-b70e2630d79f","54f8d589-66fc-4c65-830f-1dcc63bce8cc","{""participantId"":""B800FD43B253490EB3D17437920DEEF6"",""assignmentId"":""dc6c872c-ba74-4c7d-9ae4-b70e2630d79f"",""projectId"":""54f8d589-66fc-4c65-830f-1dcc63bce8cc""}","https://test12345.live/?participantId=B800FD43B253490EB3D17437920DEEF6&assignmentId=dc6c872c-ba74-4c7d-9ae4-b70e2630d79f&projectId=54f8d589-66fc-4c65-830f-1dcc63bce8cc","","null","<div style=""display: flex; justify-content: center; align-items: center;"">
                    <img src=""images/semantic/semantic_series_18/semantic_series_18_b.jpg"" style=""width: 300px; height: 300px;"" />
                  </div>","null","",""
"","","","","","html-keyboard-response","113","637081","0.0-82.0-2.0","B800FD43B253490EB3D17437920DEEF6","B800FD43B253490EB3D17437920DEEF6","dc6c872c-ba74-4c7d-9ae4-b70e2630d79f","54f8d589-66fc-4c65-830f-1dcc63bce8cc","{""participantId"":""B800FD43B253490EB3D17437920DEEF6"",""assignmentId"":""dc6c872c-ba74-4c7d-9ae4-b70e2630d79f"",""projectId"":""54f8d589-66fc-4c65-830f-1dcc63bce8cc""}","https://test12345.live/?participantId=B800FD43B253490EB3D17437920DEEF6&assignmentId=dc6c872c-ba74-4c7d-9ae4-b70e2630d79f&projectId=54f8d589-66fc-4c65-830f-1dcc63bce8cc","","null","<div style=""display: flex; justify-content: center; align-items: center;"">
                    <img src=""images/semantic/semantic_series_18/semantic_series_18_c.jpg"" style=""width: 300px; height: 300px;"" />
                  </div>","null","",""
"","","","","","html-keyboard-response","114","640095","0.0-82.0-3.0","B800FD43B253490EB3D17437920DEEF6","B800FD43B253490EB3D17437920DEEF6","dc6c872c-ba74-4c7d-9ae4-b70e2630d79f","54f8d589-66fc-4c65-830f-1dcc63bce8cc","{""participantId"":""B800FD43B253490EB3D17437920DEEF6"",""assignmentId"":""dc6c872c-ba74-4c7d-9ae4-b70e2630d79f"",""projectId"":""54f8d589-66fc-4c65-830f-1dcc63bce8cc""}","https://test12345.live/?participantId=B800FD43B253490EB3D17437920DEEF6&assignmentId=dc6c872c-ba74-4c7d-9ae4-b70e2630d79f&projectId=54f8d589-66fc-4c65-830f-1dcc63bce8cc","","null","<div style=""display: flex; justify-content: center; align-items: center;"">
                    <img src=""images/semantic/semantic_series_18/semantic_series_18_d.jpg"" style=""width: 300px; height: 300px;"" />
                  </div>","null","",""
"","","","","","html-button-response","115","643396","0.0-83.0","B800FD43B253490EB3D17437920DEEF6","B800FD43B253490EB3D17437920DEEF6","dc6c872c-ba74-4c7d-9ae4-b70e2630d79f","54f8d589-66fc-4c65-830f-1dcc63bce8cc","{""participantId"":""B800FD43B253490EB3D17437920DEEF6"",""assignmentId"":""dc6c872c-ba74-4c7d-9ae4-b70e2630d79f"",""projectId"":""54f8d589-66fc-4c65-830f-1dcc63bce8cc""}","https://test12345.live/?participantId=B800FD43B253490EB3D17437920DEEF6&assignmentId=dc6c872c-ba74-4c7d-9ae4-b70e2630d79f&projectId=54f8d589-66fc-4c65-830f-1dcc63bce8cc","","3299","Was there a person in the picture?","1","",""
"","","","","","survey-likert","116","645026","0.0-84.0","B800FD43B253490EB3D17437920DEEF6","B800FD43B253490EB3D17437920DEEF6","dc6c872c-ba74-4c7d-9ae4-b70e2630d79f","54f8d589-66fc-4c65-830f-1dcc63bce8cc","{""participantId"":""B800FD43B253490EB3D17437920DEEF6"",""assignmentId"":""dc6c872c-ba74-4c7d-9ae4-b70e2630d79f"",""projectId"":""54f8d589-66fc-4c65-830f-1dcc63bce8cc""}","https://test12345.live/?participantId=B800FD43B253490EB3D17437920DEEF6&assignmentId=dc6c872c-ba74-4c7d-9ae4-b70e2630d79f&projectId=54f8d589-66fc-4c65-830f-1dcc63bce8cc","","1629","","{""Q0"":4}","","[0]"
"","","","","","html-button-response","117","704854","0.0-85.0","B800FD43B253490EB3D17437920DEEF6","B800FD43B253490EB3D17437920DEEF6","dc6c872c-ba74-4c7d-9ae4-b70e2630d79f","54f8d589-66fc-4c65-830f-1dcc63bce8cc","{""participantId"":""B800FD43B253490EB3D17437920DEEF6"",""assignmentId"":""dc6c872c-ba74-4c7d-9ae4-b70e2630d79f"",""projectId"":""54f8d589-66fc-4c65-830f-1dcc63bce8cc""}","https://test12345.live/?participantId=B800FD43B253490EB3D17437920DEEF6&assignmentId=dc6c872c-ba74-4c7d-9ae4-b70e2630d79f&projectId=54f8d589-66fc-4c65-830f-1dcc63bce8cc","","59827","
    <div style=""display: flex; justify-content: center; align-items: center;"">
      <img src=""images/red_deck_2.png"" style=""width: 300px; height: 300px; margin-right: 10px;"" />
      <img src=""images/blue_deck_1.png"" style=""width: 300px; height: 300px;"" />
    </div>","1","1",""
"","","","","","html-keyboard-response","118","707858","0.0-87.0-0.0","B800FD43B253490EB3D17437920DEEF6","B800FD43B253490EB3D17437920DEEF6","dc6c872c-ba74-4c7d-9ae4-b70e2630d79f","54f8d589-66fc-4c65-830f-1dcc63bce8cc","{""participantId"":""B800FD43B253490EB3D17437920DEEF6"",""assignmentId"":""dc6c872c-ba74-4c7d-9ae4-b70e2630d79f"",""projectId"":""54f8d589-66fc-4c65-830f-1dcc63bce8cc""}","https://test12345.live/?participantId=B800FD43B253490EB3D17437920DEEF6&assignmentId=dc6c872c-ba74-4c7d-9ae4-b70e2630d79f&projectId=54f8d589-66fc-4c65-830f-1dcc63bce8cc","","null","<div style=""display: flex; justify-content: center; align-items: center;"">
                    <img src=""images/semantic/semantic_series_16/semantic_series_16_a.jpg"" style=""width: 300px; height: 300px;"" />
                  </div>","null","",""
"","","","","","html-keyboard-response","119","710860","0.0-87.0-1.0","B800FD43B253490EB3D17437920DEEF6","B800FD43B253490EB3D17437920DEEF6","dc6c872c-ba74-4c7d-9ae4-b70e2630d79f","54f8d589-66fc-4c65-830f-1dcc63bce8cc","{""participantId"":""B800FD43B253490EB3D17437920DEEF6"",""assignmentId"":""dc6c872c-ba74-4c7d-9ae4-b70e2630d79f"",""projectId"":""54f8d589-66fc-4c65-830f-1dcc63bce8cc""}","https://test12345.live/?participantId=B800FD43B253490EB3D17437920DEEF6&assignmentId=dc6c872c-ba74-4c7d-9ae4-b70e2630d79f&projectId=54f8d589-66fc-4c65-830f-1dcc63bce8cc","","null","<div style=""display: flex; justify-content: center; align-items: center;"">
                    <img src=""images/semantic/semantic_series_16/semantic_series_16_b.jpg"" style=""width: 300px; height: 300px;"" />
                  </div>","null","",""
"","","","","","html-keyboard-response","120","713863","0.0-87.0-2.0","B800FD43B253490EB3D17437920DEEF6","B800FD43B253490EB3D17437920DEEF6","dc6c872c-ba74-4c7d-9ae4-b70e2630d79f","54f8d589-66fc-4c65-830f-1dcc63bce8cc","{""participantId"":""B800FD43B253490EB3D17437920DEEF6"",""assignmentId"":""dc6c872c-ba74-4c7d-9ae4-b70e2630d79f"",""projectId"":""54f8d589-66fc-4c65-830f-1dcc63bce8cc""}","https://test12345.live/?participantId=B800FD43B253490EB3D17437920DEEF6&assignmentId=dc6c872c-ba74-4c7d-9ae4-b70e2630d79f&projectId=54f8d589-66fc-4c65-830f-1dcc63bce8cc","","null","<div style=""display: flex; justify-content: center; align-items: center;"">
                    <img src=""images/semantic/semantic_series_16/semantic_series_16_c.jpg"" style=""width: 300px; height: 300px;"" />
                  </div>","null","",""
"","","","","","html-keyboard-response","121","716873","0.0-87.0-3.0","B800FD43B253490EB3D17437920DEEF6","B800FD43B253490EB3D17437920DEEF6","dc6c872c-ba74-4c7d-9ae4-b70e2630d79f","54f8d589-66fc-4c65-830f-1dcc63bce8cc","{""participantId"":""B800FD43B253490EB3D17437920DEEF6"",""assignmentId"":""dc6c872c-ba74-4c7d-9ae4-b70e2630d79f"",""projectId"":""54f8d589-66fc-4c65-830f-1dcc63bce8cc""}","https://test12345.live/?participantId=B800FD43B253490EB3D17437920DEEF6&assignmentId=dc6c872c-ba74-4c7d-9ae4-b70e2630d79f&projectId=54f8d589-66fc-4c65-830f-1dcc63bce8cc","","null","<div style=""display: flex; justify-content: center; align-items: center;"">
                    <img src=""images/semantic/semantic_series_16/semantic_series_16_d.jpg"" style=""width: 300px; height: 300px;"" />
                  </div>","null","",""
"","","","","","html-button-response","122","718840","0.0-88.0","B800FD43B253490EB3D17437920DEEF6","B800FD43B253490EB3D17437920DEEF6","dc6c872c-ba74-4c7d-9ae4-b70e2630d79f","54f8d589-66fc-4c65-830f-1dcc63bce8cc","{""participantId"":""B800FD43B253490EB3D17437920DEEF6"",""assignmentId"":""dc6c872c-ba74-4c7d-9ae4-b70e2630d79f"",""projectId"":""54f8d589-66fc-4c65-830f-1dcc63bce8cc""}","https://test12345.live/?participantId=B800FD43B253490EB3D17437920DEEF6&assignmentId=dc6c872c-ba74-4c7d-9ae4-b70e2630d79f&projectId=54f8d589-66fc-4c65-830f-1dcc63bce8cc","","1966","Was there a person in the picture?","0","",""
"","","","","","survey-likert","123","723727","0.0-89.0","B800FD43B253490EB3D17437920DEEF6","B800FD43B253490EB3D17437920DEEF6","dc6c872c-ba74-4c7d-9ae4-b70e2630d79f","54f8d589-66fc-4c65-830f-1dcc63bce8cc","{""participantId"":""B800FD43B253490EB3D17437920DEEF6"",""assignmentId"":""dc6c872c-ba74-4c7d-9ae4-b70e2630d79f"",""projectId"":""54f8d589-66fc-4c65-830f-1dcc63bce8cc""}","https://test12345.live/?participantId=B800FD43B253490EB3D17437920DEEF6&assignmentId=dc6c872c-ba74-4c7d-9ae4-b70e2630d79f&projectId=54f8d589-66fc-4c65-830f-1dcc63bce8cc","","4885","","{""Q0"":4}","","[0]"
"","","","","","html-button-response","124","724813","0.0-90.0","B800FD43B253490EB3D17437920DEEF6","B800FD43B253490EB3D17437920DEEF6","dc6c872c-ba74-4c7d-9ae4-b70e2630d79f","54f8d589-66fc-4c65-830f-1dcc63bce8cc","{""participantId"":""B800FD43B253490EB3D17437920DEEF6"",""assignmentId"":""dc6c872c-ba74-4c7d-9ae4-b70e2630d79f"",""projectId"":""54f8d589-66fc-4c65-830f-1dcc63bce8cc""}","https://test12345.live/?participantId=B800FD43B253490EB3D17437920DEEF6&assignmentId=dc6c872c-ba74-4c7d-9ae4-b70e2630d79f&projectId=54f8d589-66fc-4c65-830f-1dcc63bce8cc","","1084","
    <div style=""display: flex; justify-content: center; align-items: center;"">
      <img src=""images/red_deck_2.png"" style=""width: 300px; height: 300px; margin-right: 10px;"" />
      <img src=""images/blue_deck_1.png"" style=""width: 300px; height: 300px;"" />
    </div>","1","1",""
"","","","","","html-keyboard-response","125","727822","0.0-92.0-0.0","B800FD43B253490EB3D17437920DEEF6","B800FD43B253490EB3D17437920DEEF6","dc6c872c-ba74-4c7d-9ae4-b70e2630d79f","54f8d589-66fc-4c65-830f-1dcc63bce8cc","{""participantId"":""B800FD43B253490EB3D17437920DEEF6"",""assignmentId"":""dc6c872c-ba74-4c7d-9ae4-b70e2630d79f"",""projectId"":""54f8d589-66fc-4c65-830f-1dcc63bce8cc""}","https://test12345.live/?participantId=B800FD43B253490EB3D17437920DEEF6&assignmentId=dc6c872c-ba74-4c7d-9ae4-b70e2630d79f&projectId=54f8d589-66fc-4c65-830f-1dcc63bce8cc","","null","<div style=""display: flex; justify-content: center; align-items: center;"">
                    <img src=""images/semantic/semantic_series_5/semantic_series_5_a.jpg"" style=""width: 300px; height: 300px;"" />
                  </div>","null","",""
"","","","","","html-keyboard-response","126","730833","0.0-92.0-1.0","B800FD43B253490EB3D17437920DEEF6","B800FD43B253490EB3D17437920DEEF6","dc6c872c-ba74-4c7d-9ae4-b70e2630d79f","54f8d589-66fc-4c65-830f-1dcc63bce8cc","{""participantId"":""B800FD43B253490EB3D17437920DEEF6"",""assignmentId"":""dc6c872c-ba74-4c7d-9ae4-b70e2630d79f"",""projectId"":""54f8d589-66fc-4c65-830f-1dcc63bce8cc""}","https://test12345.live/?participantId=B800FD43B253490EB3D17437920DEEF6&assignmentId=dc6c872c-ba74-4c7d-9ae4-b70e2630d79f&projectId=54f8d589-66fc-4c65-830f-1dcc63bce8cc","","null","<div style=""display: flex; justify-content: center; align-items: center;"">
                    <img src=""images/semantic/semantic_series_5/semantic_series_5_b.jpg"" style=""width: 300px; height: 300px;"" />
                  </div>","null","",""
"","","","","","html-keyboard-response","127","733845","0.0-92.0-2.0","B800FD43B253490EB3D17437920DEEF6","B800FD43B253490EB3D17437920DEEF6","dc6c872c-ba74-4c7d-9ae4-b70e2630d79f","54f8d589-66fc-4c65-830f-1dcc63bce8cc","{""participantId"":""B800FD43B253490EB3D17437920DEEF6"",""assignmentId"":""dc6c872c-ba74-4c7d-9ae4-b70e2630d79f"",""projectId"":""54f8d589-66fc-4c65-830f-1dcc63bce8cc""}","https://test12345.live/?participantId=B800FD43B253490EB3D17437920DEEF6&assignmentId=dc6c872c-ba74-4c7d-9ae4-b70e2630d79f&projectId=54f8d589-66fc-4c65-830f-1dcc63bce8cc","","null","<div style=""display: flex; justify-content: center; align-items: center;"">
                    <img src=""images/semantic/semantic_series_5/semantic_series_5_c.jpg"" style=""width: 300px; height: 300px;"" />
                  </div>","null","",""
"","","","","","html-keyboard-response","128","736862","0.0-92.0-3.0","B800FD43B253490EB3D17437920DEEF6","B800FD43B253490EB3D17437920DEEF6","dc6c872c-ba74-4c7d-9ae4-b70e2630d79f","54f8d589-66fc-4c65-830f-1dcc63bce8cc","{""participantId"":""B800FD43B253490EB3D17437920DEEF6"",""assignmentId"":""dc6c872c-ba74-4c7d-9ae4-b70e2630d79f"",""projectId"":""54f8d589-66fc-4c65-830f-1dcc63bce8cc""}","https://test12345.live/?participantId=B800FD43B253490EB3D17437920DEEF6&assignmentId=dc6c872c-ba74-4c7d-9ae4-b70e2630d79f&projectId=54f8d589-66fc-4c65-830f-1dcc63bce8cc","","null","<div style=""display: flex; justify-content: center; align-items: center;"">
                    <img src=""images/semantic/semantic_series_5/semantic_series_5_d.jpg"" style=""width: 300px; height: 300px;"" />
                  </div>","null","",""
"","","","","","html-button-response","129","740010","0.0-93.0","B800FD43B253490EB3D17437920DEEF6","B800FD43B253490EB3D17437920DEEF6","dc6c872c-ba74-4c7d-9ae4-b70e2630d79f","54f8d589-66fc-4c65-830f-1dcc63bce8cc","{""participantId"":""B800FD43B253490EB3D17437920DEEF6"",""assignmentId"":""dc6c872c-ba74-4c7d-9ae4-b70e2630d79f"",""projectId"":""54f8d589-66fc-4c65-830f-1dcc63bce8cc""}","https://test12345.live/?participantId=B800FD43B253490EB3D17437920DEEF6&assignmentId=dc6c872c-ba74-4c7d-9ae4-b70e2630d79f&projectId=54f8d589-66fc-4c65-830f-1dcc63bce8cc","","3148","Was there a person in the picture?","0","",""
"","","","","","survey-likert","130","742127","0.0-94.0","B800FD43B253490EB3D17437920DEEF6","B800FD43B253490EB3D17437920DEEF6","dc6c872c-ba74-4c7d-9ae4-b70e2630d79f","54f8d589-66fc-4c65-830f-1dcc63bce8cc","{""participantId"":""B800FD43B253490EB3D17437920DEEF6"",""assignmentId"":""dc6c872c-ba74-4c7d-9ae4-b70e2630d79f"",""projectId"":""54f8d589-66fc-4c65-830f-1dcc63bce8cc""}","https://test12345.live/?participantId=B800FD43B253490EB3D17437920DEEF6&assignmentId=dc6c872c-ba74-4c7d-9ae4-b70e2630d79f&projectId=54f8d589-66fc-4c65-830f-1dcc63bce8cc","","2116","","{""Q0"":4}","","[0]"
"","","","","","survey-text","131","807475","0.0-95.0","B800FD43B253490EB3D17437920DEEF6","B800FD43B253490EB3D17437920DEEF6","dc6c872c-ba74-4c7d-9ae4-b70e2630d79f","54f8d589-66fc-4c65-830f-1dcc63bce8cc","{""participantId"":""B800FD43B253490EB3D17437920DEEF6"",""assignmentId"":""dc6c872c-ba74-4c7d-9ae4-b70e2630d79f"",""projectId"":""54f8d589-66fc-4c65-830f-1dcc63bce8cc""}","https://test12345.live/?participantId=B800FD43B253490EB3D17437920DEEF6&assignmentId=dc6c872c-ba74-4c7d-9ae4-b70e2630d79f&projectId=54f8d589-66fc-4c65-830f-1dcc63bce8cc","","65343","","{""Q0"":""one has clear generated images while the other had illustrations""}","",""
