"success","timeout","failed_images","failed_audio","failed_video","trial_type","trial_index","time_elapsed","internal_node_id","subject","subject_id","study_id","session_id","urlvar","current_url","view_history","rt","stimulus","response","choice","question_order"
"true","false","[]","[]","[]","preload","0","968","0.0-0.0","8EBBDD729C594D63B4147919248FBB9A","8EBBDD729C594D63B4147919248FBB9A","8485a6d7-6fbb-42fd-99ad-9a1fb318ff5a","54f8d589-66fc-4c65-830f-1dcc63bce8cc","{""participantId"":""8EBBDD729C594D63B4147919248FBB9A"",""assignmentId"":""8485a6d7-6fbb-42fd-99ad-9a1fb318ff5a"",""projectId"":""54f8d589-66fc-4c65-830f-1dcc63bce8cc""}","https://test12345.live/?participantId=8EBBDD729C594D63B4147919248FBB9A&assignmentId=8485a6d7-6fbb-42fd-99ad-9a1fb318ff5a&projectId=54f8d589-66fc-4c65-830f-1dcc63bce8cc","","","","","",""
"","","","","","instructions","1","16572","0.0-1.0","8EBBDD729C594D63B4147919248FBB9A","8EBBDD729C594D63B4147919248FBB9A","8485a6d7-6fbb-42fd-99ad-9a1fb318ff5a","54f8d589-66fc-4c65-830f-1dcc63bce8cc","{""participantId"":""8EBBDD729C594D63B4147919248FBB9A"",""assignmentId"":""8485a6d7-6fbb-42fd-99ad-9a1fb318ff5a"",""projectId"":""54f8d589-66fc-4c65-830f-1dcc63bce8cc""}","https://test12345.live/?participantId=8EBBDD729C594D63B4147919248FBB9A&assignmentId=8485a6d7-6fbb-42fd-99ad-9a1fb318ff5a&projectId=54f8d589-66fc-4c65-830f-1dcc63bce8cc","[{""page_index"":0,""viewing_time"":15603}]","15603","","","",""
"","","","","","instructions","2","22356","0.0-2.0","8EBBDD729C594D63B4147919248FBB9A","8EBBDD729C594D63B4147919248FBB9A","8485a6d7-6fbb-42fd-99ad-9a1fb318ff5a","54f8d589-66fc-4c65-830f-1dcc63bce8cc","{""participantId"":""8EBBDD729C594D63B4147919248FBB9A"",""assignmentId"":""8485a6d7-6fbb-42fd-99ad-9a1fb318ff5a"",""projectId"":""54f8d589-66fc-4c65-830f-1dcc63bce8cc""}","https://test12345.live/?participantId=8EBBDD729C594D63B4147919248FBB9A&assignmentId=8485a6d7-6fbb-42fd-99ad-9a1fb318ff5a&projectId=54f8d589-66fc-4c65-830f-1dcc63bce8cc","[{""page_index"":0,""viewing_time"":5783}]","5784","","","",""
"true","","","","","fullscreen","3","24704","0.0-3.0","8EBBDD729C594D63B4147919248FBB9A","8EBBDD729C594D63B4147919248FBB9A","8485a6d7-6fbb-42fd-99ad-9a1fb318ff5a","54f8d589-66fc-4c65-830f-1dcc63bce8cc","{""participantId"":""8EBBDD729C594D63B4147919248FBB9A"",""assignmentId"":""8485a6d7-6fbb-42fd-99ad-9a1fb318ff5a"",""projectId"":""54f8d589-66fc-4c65-830f-1dcc63bce8cc""}","https://test12345.live/?participantId=8EBBDD729C594D63B4147919248FBB9A&assignmentId=8485a6d7-6fbb-42fd-99ad-9a1fb318ff5a&projectId=54f8d589-66fc-4c65-830f-1dcc63bce8cc","","1336","","","",""
"","","","","","instructions","4","31249","0.0-4.0","8EBBDD729C594D63B4147919248FBB9A","8EBBDD729C594D63B4147919248FBB9A","8485a6d7-6fbb-42fd-99ad-9a1fb318ff5a","54f8d589-66fc-4c65-830f-1dcc63bce8cc","{""participantId"":""8EBBDD729C594D63B4147919248FBB9A"",""assignmentId"":""8485a6d7-6fbb-42fd-99ad-9a1fb318ff5a"",""projectId"":""54f8d589-66fc-4c65-830f-1dcc63bce8cc""}","https://test12345.live/?participantId=8EBBDD729C594D63B4147919248FBB9A&assignmentId=8485a6d7-6fbb-42fd-99ad-9a1fb318ff5a&projectId=54f8d589-66fc-4c65-830f-1dcc63bce8cc","[{""page_index"":0,""viewing_time"":6545}]","6545","","","",""
"","","","","","html-button-response","5","33710","0.0-5.0","8EBBDD729C594D63B4147919248FBB9A","8EBBDD729C594D63B4147919248FBB9A","8485a6d7-6fbb-42fd-99ad-9a1fb318ff5a","54f8d589-66fc-4c65-830f-1dcc63bce8cc","{""participantId"":""8EBBDD729C594D63B4147919248FBB9A"",""assignmentId"":""8485a6d7-6fbb-42fd-99ad-9a1fb318ff5a"",""projectId"":""54f8d589-66fc-4c65-830f-1dcc63bce8cc""}","https://test12345.live/?participantId=8EBBDD729C594D63B4147919248FBB9A&assignmentId=8485a6d7-6fbb-42fd-99ad-9a1fb318ff5a&projectId=54f8d589-66fc-4c65-830f-1dcc63bce8cc","","2460","
    <div style=""display: flex; justify-content: center; align-items: center;"">
      <img src=""images/red_deck_2.png"" style=""width: 300px; height: 300px; margin-right: 10px;"" />
      <img src=""images/blue_deck_1.png"" style=""width: 300px; height: 300px;"" />
    </div>","0","0",""
"","","","","","html-keyboard-response","6","36711","0.0-6.0-0.0","8EBBDD729C594D63B4147919248FBB9A","8EBBDD729C594D63B4147919248FBB9A","8485a6d7-6fbb-42fd-99ad-9a1fb318ff5a","54f8d589-66fc-4c65-830f-1dcc63bce8cc","{""participantId"":""8EBBDD729C594D63B4147919248FBB9A"",""assignmentId"":""8485a6d7-6fbb-42fd-99ad-9a1fb318ff5a"",""projectId"":""54f8d589-66fc-4c65-830f-1dcc63bce8cc""}","https://test12345.live/?participantId=8EBBDD729C594D63B4147919248FBB9A&assignmentId=8485a6d7-6fbb-42fd-99ad-9a1fb318ff5a&projectId=54f8d589-66fc-4c65-830f-1dcc63bce8cc","","null","<div style=""display: flex; justify-content: center; align-items: center;"">
                    <img src=""images/causal/causal_series_8/causal_series_8_a.jpg"" style=""width: 300px; height: 300px;"" />
                  </div>","null","",""
"","","","","","html-keyboard-response","7","39720","0.0-6.0-1.0","8EBBDD729C594D63B4147919248FBB9A","8EBBDD729C594D63B4147919248FBB9A","8485a6d7-6fbb-42fd-99ad-9a1fb318ff5a","54f8d589-66fc-4c65-830f-1dcc63bce8cc","{""participantId"":""8EBBDD729C594D63B4147919248FBB9A"",""assignmentId"":""8485a6d7-6fbb-42fd-99ad-9a1fb318ff5a"",""projectId"":""54f8d589-66fc-4c65-830f-1dcc63bce8cc""}","https://test12345.live/?participantId=8EBBDD729C594D63B4147919248FBB9A&assignmentId=8485a6d7-6fbb-42fd-99ad-9a1fb318ff5a&projectId=54f8d589-66fc-4c65-830f-1dcc63bce8cc","","null","<div style=""display: flex; justify-content: center; align-items: center;"">
                    <img src=""images/causal/causal_series_8/causal_series_8_b.jpg"" style=""width: 300px; height: 300px;"" />
                  </div>","null","",""
"","","","","","html-keyboard-response","8","42732","0.0-6.0-2.0","8EBBDD729C594D63B4147919248FBB9A","8EBBDD729C594D63B4147919248FBB9A","8485a6d7-6fbb-42fd-99ad-9a1fb318ff5a","54f8d589-66fc-4c65-830f-1dcc63bce8cc","{""participantId"":""8EBBDD729C594D63B4147919248FBB9A"",""assignmentId"":""8485a6d7-6fbb-42fd-99ad-9a1fb318ff5a"",""projectId"":""54f8d589-66fc-4c65-830f-1dcc63bce8cc""}","https://test12345.live/?participantId=8EBBDD729C594D63B4147919248FBB9A&assignmentId=8485a6d7-6fbb-42fd-99ad-9a1fb318ff5a&projectId=54f8d589-66fc-4c65-830f-1dcc63bce8cc","","null","<div style=""display: flex; justify-content: center; align-items: center;"">
                    <img src=""images/causal/causal_series_8/causal_series_8_c.jpg"" style=""width: 300px; height: 300px;"" />
                  </div>","null","",""
"","","","","","html-keyboard-response","9","45739","0.0-6.0-3.0","8EBBDD729C594D63B4147919248FBB9A","8EBBDD729C594D63B4147919248FBB9A","8485a6d7-6fbb-42fd-99ad-9a1fb318ff5a","54f8d589-66fc-4c65-830f-1dcc63bce8cc","{""participantId"":""8EBBDD729C594D63B4147919248FBB9A"",""assignmentId"":""8485a6d7-6fbb-42fd-99ad-9a1fb318ff5a"",""projectId"":""54f8d589-66fc-4c65-830f-1dcc63bce8cc""}","https://test12345.live/?participantId=8EBBDD729C594D63B4147919248FBB9A&assignmentId=8485a6d7-6fbb-42fd-99ad-9a1fb318ff5a&projectId=54f8d589-66fc-4c65-830f-1dcc63bce8cc","","null","<div style=""display: flex; justify-content: center; align-items: center;"">
                    <img src=""images/causal/causal_series_8/causal_series_8_d.jpg"" style=""width: 300px; height: 300px;"" />
                  </div>","null","",""
"","","","","","html-button-response","10","48340","0.0-8.0","8EBBDD729C594D63B4147919248FBB9A","8EBBDD729C594D63B4147919248FBB9A","8485a6d7-6fbb-42fd-99ad-9a1fb318ff5a","54f8d589-66fc-4c65-830f-1dcc63bce8cc","{""participantId"":""8EBBDD729C594D63B4147919248FBB9A"",""assignmentId"":""8485a6d7-6fbb-42fd-99ad-9a1fb318ff5a"",""projectId"":""54f8d589-66fc-4c65-830f-1dcc63bce8cc""}","https://test12345.live/?participantId=8EBBDD729C594D63B4147919248FBB9A&assignmentId=8485a6d7-6fbb-42fd-99ad-9a1fb318ff5a&projectId=54f8d589-66fc-4c65-830f-1dcc63bce8cc","","2601","Was there a person in the picture?","0","",""
"","","","","","survey-likert","11","51445","0.0-9.0","8EBBDD729C594D63B4147919248FBB9A","8EBBDD729C594D63B4147919248FBB9A","8485a6d7-6fbb-42fd-99ad-9a1fb318ff5a","54f8d589-66fc-4c65-830f-1dcc63bce8cc","{""participantId"":""8EBBDD729C594D63B4147919248FBB9A"",""assignmentId"":""8485a6d7-6fbb-42fd-99ad-9a1fb318ff5a"",""projectId"":""54f8d589-66fc-4c65-830f-1dcc63bce8cc""}","https://test12345.live/?participantId=8EBBDD729C594D63B4147919248FBB9A&assignmentId=8485a6d7-6fbb-42fd-99ad-9a1fb318ff5a&projectId=54f8d589-66fc-4c65-830f-1dcc63bce8cc","","3103","","{""Q0"":2}","","[0]"
"","","","","","html-button-response","12","52703","0.0-10.0","8EBBDD729C594D63B4147919248FBB9A","8EBBDD729C594D63B4147919248FBB9A","8485a6d7-6fbb-42fd-99ad-9a1fb318ff5a","54f8d589-66fc-4c65-830f-1dcc63bce8cc","{""participantId"":""8EBBDD729C594D63B4147919248FBB9A"",""assignmentId"":""8485a6d7-6fbb-42fd-99ad-9a1fb318ff5a"",""projectId"":""54f8d589-66fc-4c65-830f-1dcc63bce8cc""}","https://test12345.live/?participantId=8EBBDD729C594D63B4147919248FBB9A&assignmentId=8485a6d7-6fbb-42fd-99ad-9a1fb318ff5a&projectId=54f8d589-66fc-4c65-830f-1dcc63bce8cc","","1258","
    <div style=""display: flex; justify-content: center; align-items: center;"">
      <img src=""images/red_deck_2.png"" style=""width: 300px; height: 300px; margin-right: 10px;"" />
      <img src=""images/blue_deck_1.png"" style=""width: 300px; height: 300px;"" />
    </div>","1","1",""
"","","","","","html-keyboard-response","13","55718","0.0-12.0-0.0","8EBBDD729C594D63B4147919248FBB9A","8EBBDD729C594D63B4147919248FBB9A","8485a6d7-6fbb-42fd-99ad-9a1fb318ff5a","54f8d589-66fc-4c65-830f-1dcc63bce8cc","{""participantId"":""8EBBDD729C594D63B4147919248FBB9A"",""assignmentId"":""8485a6d7-6fbb-42fd-99ad-9a1fb318ff5a"",""projectId"":""54f8d589-66fc-4c65-830f-1dcc63bce8cc""}","https://test12345.live/?participantId=8EBBDD729C594D63B4147919248FBB9A&assignmentId=8485a6d7-6fbb-42fd-99ad-9a1fb318ff5a&projectId=54f8d589-66fc-4c65-830f-1dcc63bce8cc","","null","<div style=""display: flex; justify-content: center; align-items: center;"">
                    <img src=""images/semantic/semantic_series_3/semantic_series_3_a.jpg"" style=""width: 300px; height: 300px;"" />
                  </div>","null","",""
"","","","","","html-keyboard-response","14","58721","0.0-12.0-1.0","8EBBDD729C594D63B4147919248FBB9A","8EBBDD729C594D63B4147919248FBB9A","8485a6d7-6fbb-42fd-99ad-9a1fb318ff5a","54f8d589-66fc-4c65-830f-1dcc63bce8cc","{""participantId"":""8EBBDD729C594D63B4147919248FBB9A"",""assignmentId"":""8485a6d7-6fbb-42fd-99ad-9a1fb318ff5a"",""projectId"":""54f8d589-66fc-4c65-830f-1dcc63bce8cc""}","https://test12345.live/?participantId=8EBBDD729C594D63B4147919248FBB9A&assignmentId=8485a6d7-6fbb-42fd-99ad-9a1fb318ff5a&projectId=54f8d589-66fc-4c65-830f-1dcc63bce8cc","","null","<div style=""display: flex; justify-content: center; align-items: center;"">
                    <img src=""images/semantic/semantic_series_3/semantic_series_3_b.jpg"" style=""width: 300px; height: 300px;"" />
                  </div>","null","",""
"","","","","","html-keyboard-response","15","61735","0.0-12.0-2.0","8EBBDD729C594D63B4147919248FBB9A","8EBBDD729C594D63B4147919248FBB9A","8485a6d7-6fbb-42fd-99ad-9a1fb318ff5a","54f8d589-66fc-4c65-830f-1dcc63bce8cc","{""participantId"":""8EBBDD729C594D63B4147919248FBB9A"",""assignmentId"":""8485a6d7-6fbb-42fd-99ad-9a1fb318ff5a"",""projectId"":""54f8d589-66fc-4c65-830f-1dcc63bce8cc""}","https://test12345.live/?participantId=8EBBDD729C594D63B4147919248FBB9A&assignmentId=8485a6d7-6fbb-42fd-99ad-9a1fb318ff5a&projectId=54f8d589-66fc-4c65-830f-1dcc63bce8cc","","null","<div style=""display: flex; justify-content: center; align-items: center;"">
                    <img src=""images/semantic/semantic_series_3/semantic_series_3_c.jpg"" style=""width: 300px; height: 300px;"" />
                  </div>","null","",""
"","","","","","html-keyboard-response","16","64742","0.0-12.0-3.0","8EBBDD729C594D63B4147919248FBB9A","8EBBDD729C594D63B4147919248FBB9A","8485a6d7-6fbb-42fd-99ad-9a1fb318ff5a","54f8d589-66fc-4c65-830f-1dcc63bce8cc","{""participantId"":""8EBBDD729C594D63B4147919248FBB9A"",""assignmentId"":""8485a6d7-6fbb-42fd-99ad-9a1fb318ff5a"",""projectId"":""54f8d589-66fc-4c65-830f-1dcc63bce8cc""}","https://test12345.live/?participantId=8EBBDD729C594D63B4147919248FBB9A&assignmentId=8485a6d7-6fbb-42fd-99ad-9a1fb318ff5a&projectId=54f8d589-66fc-4c65-830f-1dcc63bce8cc","","null","<div style=""display: flex; justify-content: center; align-items: center;"">
                    <img src=""images/semantic/semantic_series_3/semantic_series_3_d.jpg"" style=""width: 300px; height: 300px;"" />
                  </div>","null","",""
"","","","","","html-button-response","17","65803","0.0-13.0","8EBBDD729C594D63B4147919248FBB9A","8EBBDD729C594D63B4147919248FBB9A","8485a6d7-6fbb-42fd-99ad-9a1fb318ff5a","54f8d589-66fc-4c65-830f-1dcc63bce8cc","{""participantId"":""8EBBDD729C594D63B4147919248FBB9A"",""assignmentId"":""8485a6d7-6fbb-42fd-99ad-9a1fb318ff5a"",""projectId"":""54f8d589-66fc-4c65-830f-1dcc63bce8cc""}","https://test12345.live/?participantId=8EBBDD729C594D63B4147919248FBB9A&assignmentId=8485a6d7-6fbb-42fd-99ad-9a1fb318ff5a&projectId=54f8d589-66fc-4c65-830f-1dcc63bce8cc","","1061","Was there a person in the picture?","0","",""
"","","","","","survey-likert","18","67632","0.0-14.0","8EBBDD729C594D63B4147919248FBB9A","8EBBDD729C594D63B4147919248FBB9A","8485a6d7-6fbb-42fd-99ad-9a1fb318ff5a","54f8d589-66fc-4c65-830f-1dcc63bce8cc","{""participantId"":""8EBBDD729C594D63B4147919248FBB9A"",""assignmentId"":""8485a6d7-6fbb-42fd-99ad-9a1fb318ff5a"",""projectId"":""54f8d589-66fc-4c65-830f-1dcc63bce8cc""}","https://test12345.live/?participantId=8EBBDD729C594D63B4147919248FBB9A&assignmentId=8485a6d7-6fbb-42fd-99ad-9a1fb318ff5a&projectId=54f8d589-66fc-4c65-830f-1dcc63bce8cc","","1829","","{""Q0"":3}","","[0]"
"","","","","","html-button-response","19","69193","0.0-15.0","8EBBDD729C594D63B4147919248FBB9A","8EBBDD729C594D63B4147919248FBB9A","8485a6d7-6fbb-42fd-99ad-9a1fb318ff5a","54f8d589-66fc-4c65-830f-1dcc63bce8cc","{""participantId"":""8EBBDD729C594D63B4147919248FBB9A"",""assignmentId"":""8485a6d7-6fbb-42fd-99ad-9a1fb318ff5a"",""projectId"":""54f8d589-66fc-4c65-830f-1dcc63bce8cc""}","https://test12345.live/?participantId=8EBBDD729C594D63B4147919248FBB9A&assignmentId=8485a6d7-6fbb-42fd-99ad-9a1fb318ff5a&projectId=54f8d589-66fc-4c65-830f-1dcc63bce8cc","","1560","
    <div style=""display: flex; justify-content: center; align-items: center;"">
      <img src=""images/red_deck_2.png"" style=""width: 300px; height: 300px; margin-right: 10px;"" />
      <img src=""images/blue_deck_1.png"" style=""width: 300px; height: 300px;"" />
    </div>","1","1",""
"","","","","","html-keyboard-response","20","72200","0.0-17.0-0.0","8EBBDD729C594D63B4147919248FBB9A","8EBBDD729C594D63B4147919248FBB9A","8485a6d7-6fbb-42fd-99ad-9a1fb318ff5a","54f8d589-66fc-4c65-830f-1dcc63bce8cc","{""participantId"":""8EBBDD729C594D63B4147919248FBB9A"",""assignmentId"":""8485a6d7-6fbb-42fd-99ad-9a1fb318ff5a"",""projectId"":""54f8d589-66fc-4c65-830f-1dcc63bce8cc""}","https://test12345.live/?participantId=8EBBDD729C594D63B4147919248FBB9A&assignmentId=8485a6d7-6fbb-42fd-99ad-9a1fb318ff5a&projectId=54f8d589-66fc-4c65-830f-1dcc63bce8cc","","null","<div style=""display: flex; justify-content: center; align-items: center;"">
                    <img src=""images/semantic/semantic_series_9/semantic_series_9_a.jpg"" style=""width: 300px; height: 300px;"" />
                  </div>","null","",""
"","","","","","html-keyboard-response","21","75211","0.0-17.0-1.0","8EBBDD729C594D63B4147919248FBB9A","8EBBDD729C594D63B4147919248FBB9A","8485a6d7-6fbb-42fd-99ad-9a1fb318ff5a","54f8d589-66fc-4c65-830f-1dcc63bce8cc","{""participantId"":""8EBBDD729C594D63B4147919248FBB9A"",""assignmentId"":""8485a6d7-6fbb-42fd-99ad-9a1fb318ff5a"",""projectId"":""54f8d589-66fc-4c65-830f-1dcc63bce8cc""}","https://test12345.live/?participantId=8EBBDD729C594D63B4147919248FBB9A&assignmentId=8485a6d7-6fbb-42fd-99ad-9a1fb318ff5a&projectId=54f8d589-66fc-4c65-830f-1dcc63bce8cc","","null","<div style=""display: flex; justify-content: center; align-items: center;"">
                    <img src=""images/semantic/semantic_series_9/semantic_series_9_b.jpg"" style=""width: 300px; height: 300px;"" />
                  </div>","null","",""
"","","","","","html-keyboard-response","22","78224","0.0-17.0-2.0","8EBBDD729C594D63B4147919248FBB9A","8EBBDD729C594D63B4147919248FBB9A","8485a6d7-6fbb-42fd-99ad-9a1fb318ff5a","54f8d589-66fc-4c65-830f-1dcc63bce8cc","{""participantId"":""8EBBDD729C594D63B4147919248FBB9A"",""assignmentId"":""8485a6d7-6fbb-42fd-99ad-9a1fb318ff5a"",""projectId"":""54f8d589-66fc-4c65-830f-1dcc63bce8cc""}","https://test12345.live/?participantId=8EBBDD729C594D63B4147919248FBB9A&assignmentId=8485a6d7-6fbb-42fd-99ad-9a1fb318ff5a&projectId=54f8d589-66fc-4c65-830f-1dcc63bce8cc","","null","<div style=""display: flex; justify-content: center; align-items: center;"">
                    <img src=""images/semantic/semantic_series_9/semantic_series_9_c.jpg"" style=""width: 300px; height: 300px;"" />
                  </div>","null","",""
"","","","","","html-keyboard-response","23","81231","0.0-17.0-3.0","8EBBDD729C594D63B4147919248FBB9A","8EBBDD729C594D63B4147919248FBB9A","8485a6d7-6fbb-42fd-99ad-9a1fb318ff5a","54f8d589-66fc-4c65-830f-1dcc63bce8cc","{""participantId"":""8EBBDD729C594D63B4147919248FBB9A"",""assignmentId"":""8485a6d7-6fbb-42fd-99ad-9a1fb318ff5a"",""projectId"":""54f8d589-66fc-4c65-830f-1dcc63bce8cc""}","https://test12345.live/?participantId=8EBBDD729C594D63B4147919248FBB9A&assignmentId=8485a6d7-6fbb-42fd-99ad-9a1fb318ff5a&projectId=54f8d589-66fc-4c65-830f-1dcc63bce8cc","","null","<div style=""display: flex; justify-content: center; align-items: center;"">
                    <img src=""images/semantic/semantic_series_9/semantic_series_9_d.jpg"" style=""width: 300px; height: 300px;"" />
                  </div>","null","",""
"","","","","","html-button-response","24","82298","0.0-18.0","8EBBDD729C594D63B4147919248FBB9A","8EBBDD729C594D63B4147919248FBB9A","8485a6d7-6fbb-42fd-99ad-9a1fb318ff5a","54f8d589-66fc-4c65-830f-1dcc63bce8cc","{""participantId"":""8EBBDD729C594D63B4147919248FBB9A"",""assignmentId"":""8485a6d7-6fbb-42fd-99ad-9a1fb318ff5a"",""projectId"":""54f8d589-66fc-4c65-830f-1dcc63bce8cc""}","https://test12345.live/?participantId=8EBBDD729C594D63B4147919248FBB9A&assignmentId=8485a6d7-6fbb-42fd-99ad-9a1fb318ff5a&projectId=54f8d589-66fc-4c65-830f-1dcc63bce8cc","","1067","Was there a person in the picture?","1","",""
"","","","","","survey-likert","25","83796","0.0-19.0","8EBBDD729C594D63B4147919248FBB9A","8EBBDD729C594D63B4147919248FBB9A","8485a6d7-6fbb-42fd-99ad-9a1fb318ff5a","54f8d589-66fc-4c65-830f-1dcc63bce8cc","{""participantId"":""8EBBDD729C594D63B4147919248FBB9A"",""assignmentId"":""8485a6d7-6fbb-42fd-99ad-9a1fb318ff5a"",""projectId"":""54f8d589-66fc-4c65-830f-1dcc63bce8cc""}","https://test12345.live/?participantId=8EBBDD729C594D63B4147919248FBB9A&assignmentId=8485a6d7-6fbb-42fd-99ad-9a1fb318ff5a&projectId=54f8d589-66fc-4c65-830f-1dcc63bce8cc","","1498","","{""Q0"":1}","","[0]"
"","","","","","html-button-response","26","84794","0.0-20.0","8EBBDD729C594D63B4147919248FBB9A","8EBBDD729C594D63B4147919248FBB9A","8485a6d7-6fbb-42fd-99ad-9a1fb318ff5a","54f8d589-66fc-4c65-830f-1dcc63bce8cc","{""participantId"":""8EBBDD729C594D63B4147919248FBB9A"",""assignmentId"":""8485a6d7-6fbb-42fd-99ad-9a1fb318ff5a"",""projectId"":""54f8d589-66fc-4c65-830f-1dcc63bce8cc""}","https://test12345.live/?participantId=8EBBDD729C594D63B4147919248FBB9A&assignmentId=8485a6d7-6fbb-42fd-99ad-9a1fb318ff5a&projectId=54f8d589-66fc-4c65-830f-1dcc63bce8cc","","997","
    <div style=""display: flex; justify-content: center; align-items: center;"">
      <img src=""images/red_deck_2.png"" style=""width: 300px; height: 300px; margin-right: 10px;"" />
      <img src=""images/blue_deck_1.png"" style=""width: 300px; height: 300px;"" />
    </div>","0","0",""
"","","","","","html-keyboard-response","27","87802","0.0-21.0-0.0","8EBBDD729C594D63B4147919248FBB9A","8EBBDD729C594D63B4147919248FBB9A","8485a6d7-6fbb-42fd-99ad-9a1fb318ff5a","54f8d589-66fc-4c65-830f-1dcc63bce8cc","{""participantId"":""8EBBDD729C594D63B4147919248FBB9A"",""assignmentId"":""8485a6d7-6fbb-42fd-99ad-9a1fb318ff5a"",""projectId"":""54f8d589-66fc-4c65-830f-1dcc63bce8cc""}","https://test12345.live/?participantId=8EBBDD729C594D63B4147919248FBB9A&assignmentId=8485a6d7-6fbb-42fd-99ad-9a1fb318ff5a&projectId=54f8d589-66fc-4c65-830f-1dcc63bce8cc","","null","<div style=""display: flex; justify-content: center; align-items: center;"">
                    <img src=""images/causal/causal_series_10/causal_series_10_a.jpg"" style=""width: 300px; height: 300px;"" />
                  </div>","null","",""
"","","","","","html-keyboard-response","28","90812","0.0-21.0-1.0","8EBBDD729C594D63B4147919248FBB9A","8EBBDD729C594D63B4147919248FBB9A","8485a6d7-6fbb-42fd-99ad-9a1fb318ff5a","54f8d589-66fc-4c65-830f-1dcc63bce8cc","{""participantId"":""8EBBDD729C594D63B4147919248FBB9A"",""assignmentId"":""8485a6d7-6fbb-42fd-99ad-9a1fb318ff5a"",""projectId"":""54f8d589-66fc-4c65-830f-1dcc63bce8cc""}","https://test12345.live/?participantId=8EBBDD729C594D63B4147919248FBB9A&assignmentId=8485a6d7-6fbb-42fd-99ad-9a1fb318ff5a&projectId=54f8d589-66fc-4c65-830f-1dcc63bce8cc","","null","<div style=""display: flex; justify-content: center; align-items: center;"">
                    <img src=""images/causal/causal_series_10/causal_series_10_b.jpg"" style=""width: 300px; height: 300px;"" />
                  </div>","null","",""
"","","","","","html-keyboard-response","29","93824","0.0-21.0-2.0","8EBBDD729C594D63B4147919248FBB9A","8EBBDD729C594D63B4147919248FBB9A","8485a6d7-6fbb-42fd-99ad-9a1fb318ff5a","54f8d589-66fc-4c65-830f-1dcc63bce8cc","{""participantId"":""8EBBDD729C594D63B4147919248FBB9A"",""assignmentId"":""8485a6d7-6fbb-42fd-99ad-9a1fb318ff5a"",""projectId"":""54f8d589-66fc-4c65-830f-1dcc63bce8cc""}","https://test12345.live/?participantId=8EBBDD729C594D63B4147919248FBB9A&assignmentId=8485a6d7-6fbb-42fd-99ad-9a1fb318ff5a&projectId=54f8d589-66fc-4c65-830f-1dcc63bce8cc","","null","<div style=""display: flex; justify-content: center; align-items: center;"">
                    <img src=""images/causal/causal_series_10/causal_series_10_c.jpg"" style=""width: 300px; height: 300px;"" />
                  </div>","null","",""
"","","","","","html-keyboard-response","30","96833","0.0-21.0-3.0","8EBBDD729C594D63B4147919248FBB9A","8EBBDD729C594D63B4147919248FBB9A","8485a6d7-6fbb-42fd-99ad-9a1fb318ff5a","54f8d589-66fc-4c65-830f-1dcc63bce8cc","{""participantId"":""8EBBDD729C594D63B4147919248FBB9A"",""assignmentId"":""8485a6d7-6fbb-42fd-99ad-9a1fb318ff5a"",""projectId"":""54f8d589-66fc-4c65-830f-1dcc63bce8cc""}","https://test12345.live/?participantId=8EBBDD729C594D63B4147919248FBB9A&assignmentId=8485a6d7-6fbb-42fd-99ad-9a1fb318ff5a&projectId=54f8d589-66fc-4c65-830f-1dcc63bce8cc","","null","<div style=""display: flex; justify-content: center; align-items: center;"">
                    <img src=""images/causal/causal_series_10/causal_series_10_d.jpg"" style=""width: 300px; height: 300px;"" />
                  </div>","null","",""
"","","","","","html-button-response","31","97747","0.0-23.0","8EBBDD729C594D63B4147919248FBB9A","8EBBDD729C594D63B4147919248FBB9A","8485a6d7-6fbb-42fd-99ad-9a1fb318ff5a","54f8d589-66fc-4c65-830f-1dcc63bce8cc","{""participantId"":""8EBBDD729C594D63B4147919248FBB9A"",""assignmentId"":""8485a6d7-6fbb-42fd-99ad-9a1fb318ff5a"",""projectId"":""54f8d589-66fc-4c65-830f-1dcc63bce8cc""}","https://test12345.live/?participantId=8EBBDD729C594D63B4147919248FBB9A&assignmentId=8485a6d7-6fbb-42fd-99ad-9a1fb318ff5a&projectId=54f8d589-66fc-4c65-830f-1dcc63bce8cc","","913","Was there a person in the picture?","1","",""
"","","","","","survey-likert","32","99692","0.0-24.0","8EBBDD729C594D63B4147919248FBB9A","8EBBDD729C594D63B4147919248FBB9A","8485a6d7-6fbb-42fd-99ad-9a1fb318ff5a","54f8d589-66fc-4c65-830f-1dcc63bce8cc","{""participantId"":""8EBBDD729C594D63B4147919248FBB9A"",""assignmentId"":""8485a6d7-6fbb-42fd-99ad-9a1fb318ff5a"",""projectId"":""54f8d589-66fc-4c65-830f-1dcc63bce8cc""}","https://test12345.live/?participantId=8EBBDD729C594D63B4147919248FBB9A&assignmentId=8485a6d7-6fbb-42fd-99ad-9a1fb318ff5a&projectId=54f8d589-66fc-4c65-830f-1dcc63bce8cc","","1945","","{""Q0"":3}","","[0]"
"","","","","","html-button-response","33","100459","0.0-25.0","8EBBDD729C594D63B4147919248FBB9A","8EBBDD729C594D63B4147919248FBB9A","8485a6d7-6fbb-42fd-99ad-9a1fb318ff5a","54f8d589-66fc-4c65-830f-1dcc63bce8cc","{""participantId"":""8EBBDD729C594D63B4147919248FBB9A"",""assignmentId"":""8485a6d7-6fbb-42fd-99ad-9a1fb318ff5a"",""projectId"":""54f8d589-66fc-4c65-830f-1dcc63bce8cc""}","https://test12345.live/?participantId=8EBBDD729C594D63B4147919248FBB9A&assignmentId=8485a6d7-6fbb-42fd-99ad-9a1fb318ff5a&projectId=54f8d589-66fc-4c65-830f-1dcc63bce8cc","","766","
    <div style=""display: flex; justify-content: center; align-items: center;"">
      <img src=""images/red_deck_2.png"" style=""width: 300px; height: 300px; margin-right: 10px;"" />
      <img src=""images/blue_deck_1.png"" style=""width: 300px; height: 300px;"" />
    </div>","1","1",""
"","","","","","html-keyboard-response","34","103464","0.0-27.0-0.0","8EBBDD729C594D63B4147919248FBB9A","8EBBDD729C594D63B4147919248FBB9A","8485a6d7-6fbb-42fd-99ad-9a1fb318ff5a","54f8d589-66fc-4c65-830f-1dcc63bce8cc","{""participantId"":""8EBBDD729C594D63B4147919248FBB9A"",""assignmentId"":""8485a6d7-6fbb-42fd-99ad-9a1fb318ff5a"",""projectId"":""54f8d589-66fc-4c65-830f-1dcc63bce8cc""}","https://test12345.live/?participantId=8EBBDD729C594D63B4147919248FBB9A&assignmentId=8485a6d7-6fbb-42fd-99ad-9a1fb318ff5a&projectId=54f8d589-66fc-4c65-830f-1dcc63bce8cc","","null","<div style=""display: flex; justify-content: center; align-items: center;"">
                    <img src=""images/semantic/semantic_series_1/semantic_series_1_a.jpg"" style=""width: 300px; height: 300px;"" />
                  </div>","null","",""
"","","","","","html-keyboard-response","35","106467","0.0-27.0-1.0","8EBBDD729C594D63B4147919248FBB9A","8EBBDD729C594D63B4147919248FBB9A","8485a6d7-6fbb-42fd-99ad-9a1fb318ff5a","54f8d589-66fc-4c65-830f-1dcc63bce8cc","{""participantId"":""8EBBDD729C594D63B4147919248FBB9A"",""assignmentId"":""8485a6d7-6fbb-42fd-99ad-9a1fb318ff5a"",""projectId"":""54f8d589-66fc-4c65-830f-1dcc63bce8cc""}","https://test12345.live/?participantId=8EBBDD729C594D63B4147919248FBB9A&assignmentId=8485a6d7-6fbb-42fd-99ad-9a1fb318ff5a&projectId=54f8d589-66fc-4c65-830f-1dcc63bce8cc","","null","<div style=""display: flex; justify-content: center; align-items: center;"">
                    <img src=""images/semantic/semantic_series_1/semantic_series_1_b.jpg"" style=""width: 300px; height: 300px;"" />
                  </div>","null","",""
"","","","","","html-keyboard-response","36","109473","0.0-27.0-2.0","8EBBDD729C594D63B4147919248FBB9A","8EBBDD729C594D63B4147919248FBB9A","8485a6d7-6fbb-42fd-99ad-9a1fb318ff5a","54f8d589-66fc-4c65-830f-1dcc63bce8cc","{""participantId"":""8EBBDD729C594D63B4147919248FBB9A"",""assignmentId"":""8485a6d7-6fbb-42fd-99ad-9a1fb318ff5a"",""projectId"":""54f8d589-66fc-4c65-830f-1dcc63bce8cc""}","https://test12345.live/?participantId=8EBBDD729C594D63B4147919248FBB9A&assignmentId=8485a6d7-6fbb-42fd-99ad-9a1fb318ff5a&projectId=54f8d589-66fc-4c65-830f-1dcc63bce8cc","","null","<div style=""display: flex; justify-content: center; align-items: center;"">
                    <img src=""images/semantic/semantic_series_1/semantic_series_1_c.jpg"" style=""width: 300px; height: 300px;"" />
                  </div>","null","",""
"","","","","","html-keyboard-response","37","112474","0.0-27.0-3.0","8EBBDD729C594D63B4147919248FBB9A","8EBBDD729C594D63B4147919248FBB9A","8485a6d7-6fbb-42fd-99ad-9a1fb318ff5a","54f8d589-66fc-4c65-830f-1dcc63bce8cc","{""participantId"":""8EBBDD729C594D63B4147919248FBB9A"",""assignmentId"":""8485a6d7-6fbb-42fd-99ad-9a1fb318ff5a"",""projectId"":""54f8d589-66fc-4c65-830f-1dcc63bce8cc""}","https://test12345.live/?participantId=8EBBDD729C594D63B4147919248FBB9A&assignmentId=8485a6d7-6fbb-42fd-99ad-9a1fb318ff5a&projectId=54f8d589-66fc-4c65-830f-1dcc63bce8cc","","null","<div style=""display: flex; justify-content: center; align-items: center;"">
                    <img src=""images/semantic/semantic_series_1/semantic_series_1_d.jpg"" style=""width: 300px; height: 300px;"" />
                  </div>","null","",""
"","","","","","html-button-response","38","113243","0.0-28.0","8EBBDD729C594D63B4147919248FBB9A","8EBBDD729C594D63B4147919248FBB9A","8485a6d7-6fbb-42fd-99ad-9a1fb318ff5a","54f8d589-66fc-4c65-830f-1dcc63bce8cc","{""participantId"":""8EBBDD729C594D63B4147919248FBB9A"",""assignmentId"":""8485a6d7-6fbb-42fd-99ad-9a1fb318ff5a"",""projectId"":""54f8d589-66fc-4c65-830f-1dcc63bce8cc""}","https://test12345.live/?participantId=8EBBDD729C594D63B4147919248FBB9A&assignmentId=8485a6d7-6fbb-42fd-99ad-9a1fb318ff5a&projectId=54f8d589-66fc-4c65-830f-1dcc63bce8cc","","769","Was there a person in the picture?","0","",""
"","","","","","survey-likert","39","114634","0.0-29.0","8EBBDD729C594D63B4147919248FBB9A","8EBBDD729C594D63B4147919248FBB9A","8485a6d7-6fbb-42fd-99ad-9a1fb318ff5a","54f8d589-66fc-4c65-830f-1dcc63bce8cc","{""participantId"":""8EBBDD729C594D63B4147919248FBB9A"",""assignmentId"":""8485a6d7-6fbb-42fd-99ad-9a1fb318ff5a"",""projectId"":""54f8d589-66fc-4c65-830f-1dcc63bce8cc""}","https://test12345.live/?participantId=8EBBDD729C594D63B4147919248FBB9A&assignmentId=8485a6d7-6fbb-42fd-99ad-9a1fb318ff5a&projectId=54f8d589-66fc-4c65-830f-1dcc63bce8cc","","1391","","{""Q0"":3}","","[0]"
"","","","","","html-button-response","40","115347","0.0-30.0","8EBBDD729C594D63B4147919248FBB9A","8EBBDD729C594D63B4147919248FBB9A","8485a6d7-6fbb-42fd-99ad-9a1fb318ff5a","54f8d589-66fc-4c65-830f-1dcc63bce8cc","{""participantId"":""8EBBDD729C594D63B4147919248FBB9A"",""assignmentId"":""8485a6d7-6fbb-42fd-99ad-9a1fb318ff5a"",""projectId"":""54f8d589-66fc-4c65-830f-1dcc63bce8cc""}","https://test12345.live/?participantId=8EBBDD729C594D63B4147919248FBB9A&assignmentId=8485a6d7-6fbb-42fd-99ad-9a1fb318ff5a&projectId=54f8d589-66fc-4c65-830f-1dcc63bce8cc","","712","
    <div style=""display: flex; justify-content: center; align-items: center;"">
      <img src=""images/red_deck_2.png"" style=""width: 300px; height: 300px; margin-right: 10px;"" />
      <img src=""images/blue_deck_1.png"" style=""width: 300px; height: 300px;"" />
    </div>","1","1",""
"","","","","","html-keyboard-response","41","118355","0.0-32.0-0.0","8EBBDD729C594D63B4147919248FBB9A","8EBBDD729C594D63B4147919248FBB9A","8485a6d7-6fbb-42fd-99ad-9a1fb318ff5a","54f8d589-66fc-4c65-830f-1dcc63bce8cc","{""participantId"":""8EBBDD729C594D63B4147919248FBB9A"",""assignmentId"":""8485a6d7-6fbb-42fd-99ad-9a1fb318ff5a"",""projectId"":""54f8d589-66fc-4c65-830f-1dcc63bce8cc""}","https://test12345.live/?participantId=8EBBDD729C594D63B4147919248FBB9A&assignmentId=8485a6d7-6fbb-42fd-99ad-9a1fb318ff5a&projectId=54f8d589-66fc-4c65-830f-1dcc63bce8cc","","null","<div style=""display: flex; justify-content: center; align-items: center;"">
                    <img src=""images/semantic/semantic_series_18/semantic_series_18_a.jpg"" style=""width: 300px; height: 300px;"" />
                  </div>","null","",""
"","","","","","html-keyboard-response","42","121358","0.0-32.0-1.0","8EBBDD729C594D63B4147919248FBB9A","8EBBDD729C594D63B4147919248FBB9A","8485a6d7-6fbb-42fd-99ad-9a1fb318ff5a","54f8d589-66fc-4c65-830f-1dcc63bce8cc","{""participantId"":""8EBBDD729C594D63B4147919248FBB9A"",""assignmentId"":""8485a6d7-6fbb-42fd-99ad-9a1fb318ff5a"",""projectId"":""54f8d589-66fc-4c65-830f-1dcc63bce8cc""}","https://test12345.live/?participantId=8EBBDD729C594D63B4147919248FBB9A&assignmentId=8485a6d7-6fbb-42fd-99ad-9a1fb318ff5a&projectId=54f8d589-66fc-4c65-830f-1dcc63bce8cc","","null","<div style=""display: flex; justify-content: center; align-items: center;"">
                    <img src=""images/semantic/semantic_series_18/semantic_series_18_b.jpg"" style=""width: 300px; height: 300px;"" />
                  </div>","null","",""
"","","","","","html-keyboard-response","43","124365","0.0-32.0-2.0","8EBBDD729C594D63B4147919248FBB9A","8EBBDD729C594D63B4147919248FBB9A","8485a6d7-6fbb-42fd-99ad-9a1fb318ff5a","54f8d589-66fc-4c65-830f-1dcc63bce8cc","{""participantId"":""8EBBDD729C594D63B4147919248FBB9A"",""assignmentId"":""8485a6d7-6fbb-42fd-99ad-9a1fb318ff5a"",""projectId"":""54f8d589-66fc-4c65-830f-1dcc63bce8cc""}","https://test12345.live/?participantId=8EBBDD729C594D63B4147919248FBB9A&assignmentId=8485a6d7-6fbb-42fd-99ad-9a1fb318ff5a&projectId=54f8d589-66fc-4c65-830f-1dcc63bce8cc","","null","<div style=""display: flex; justify-content: center; align-items: center;"">
                    <img src=""images/semantic/semantic_series_18/semantic_series_18_c.jpg"" style=""width: 300px; height: 300px;"" />
                  </div>","null","",""
"","","","","","html-keyboard-response","44","127376","0.0-32.0-3.0","8EBBDD729C594D63B4147919248FBB9A","8EBBDD729C594D63B4147919248FBB9A","8485a6d7-6fbb-42fd-99ad-9a1fb318ff5a","54f8d589-66fc-4c65-830f-1dcc63bce8cc","{""participantId"":""8EBBDD729C594D63B4147919248FBB9A"",""assignmentId"":""8485a6d7-6fbb-42fd-99ad-9a1fb318ff5a"",""projectId"":""54f8d589-66fc-4c65-830f-1dcc63bce8cc""}","https://test12345.live/?participantId=8EBBDD729C594D63B4147919248FBB9A&assignmentId=8485a6d7-6fbb-42fd-99ad-9a1fb318ff5a&projectId=54f8d589-66fc-4c65-830f-1dcc63bce8cc","","null","<div style=""display: flex; justify-content: center; align-items: center;"">
                    <img src=""images/semantic/semantic_series_18/semantic_series_18_d.jpg"" style=""width: 300px; height: 300px;"" />
                  </div>","null","",""
"","","","","","html-button-response","45","128097","0.0-33.0","8EBBDD729C594D63B4147919248FBB9A","8EBBDD729C594D63B4147919248FBB9A","8485a6d7-6fbb-42fd-99ad-9a1fb318ff5a","54f8d589-66fc-4c65-830f-1dcc63bce8cc","{""participantId"":""8EBBDD729C594D63B4147919248FBB9A"",""assignmentId"":""8485a6d7-6fbb-42fd-99ad-9a1fb318ff5a"",""projectId"":""54f8d589-66fc-4c65-830f-1dcc63bce8cc""}","https://test12345.live/?participantId=8EBBDD729C594D63B4147919248FBB9A&assignmentId=8485a6d7-6fbb-42fd-99ad-9a1fb318ff5a&projectId=54f8d589-66fc-4c65-830f-1dcc63bce8cc","","721","Was there a person in the picture?","1","",""
"","","","","","survey-likert","46","129687","0.0-34.0","8EBBDD729C594D63B4147919248FBB9A","8EBBDD729C594D63B4147919248FBB9A","8485a6d7-6fbb-42fd-99ad-9a1fb318ff5a","54f8d589-66fc-4c65-830f-1dcc63bce8cc","{""participantId"":""8EBBDD729C594D63B4147919248FBB9A"",""assignmentId"":""8485a6d7-6fbb-42fd-99ad-9a1fb318ff5a"",""projectId"":""54f8d589-66fc-4c65-830f-1dcc63bce8cc""}","https://test12345.live/?participantId=8EBBDD729C594D63B4147919248FBB9A&assignmentId=8485a6d7-6fbb-42fd-99ad-9a1fb318ff5a&projectId=54f8d589-66fc-4c65-830f-1dcc63bce8cc","","1589","","{""Q0"":2}","","[0]"
"","","","","","html-button-response","47","130424","0.0-35.0","8EBBDD729C594D63B4147919248FBB9A","8EBBDD729C594D63B4147919248FBB9A","8485a6d7-6fbb-42fd-99ad-9a1fb318ff5a","54f8d589-66fc-4c65-830f-1dcc63bce8cc","{""participantId"":""8EBBDD729C594D63B4147919248FBB9A"",""assignmentId"":""8485a6d7-6fbb-42fd-99ad-9a1fb318ff5a"",""projectId"":""54f8d589-66fc-4c65-830f-1dcc63bce8cc""}","https://test12345.live/?participantId=8EBBDD729C594D63B4147919248FBB9A&assignmentId=8485a6d7-6fbb-42fd-99ad-9a1fb318ff5a&projectId=54f8d589-66fc-4c65-830f-1dcc63bce8cc","","737","
    <div style=""display: flex; justify-content: center; align-items: center;"">
      <img src=""images/red_deck_2.png"" style=""width: 300px; height: 300px; margin-right: 10px;"" />
      <img src=""images/blue_deck_1.png"" style=""width: 300px; height: 300px;"" />
    </div>","1","1",""
"","","","","","html-keyboard-response","48","133427","0.0-37.0-0.0","8EBBDD729C594D63B4147919248FBB9A","8EBBDD729C594D63B4147919248FBB9A","8485a6d7-6fbb-42fd-99ad-9a1fb318ff5a","54f8d589-66fc-4c65-830f-1dcc63bce8cc","{""participantId"":""8EBBDD729C594D63B4147919248FBB9A"",""assignmentId"":""8485a6d7-6fbb-42fd-99ad-9a1fb318ff5a"",""projectId"":""54f8d589-66fc-4c65-830f-1dcc63bce8cc""}","https://test12345.live/?participantId=8EBBDD729C594D63B4147919248FBB9A&assignmentId=8485a6d7-6fbb-42fd-99ad-9a1fb318ff5a&projectId=54f8d589-66fc-4c65-830f-1dcc63bce8cc","","null","<div style=""display: flex; justify-content: center; align-items: center;"">
                    <img src=""images/semantic/semantic_series_17/semantic_series_17_a.jpg"" style=""width: 300px; height: 300px;"" />
                  </div>","null","",""
"","","","","","html-keyboard-response","49","136437","0.0-37.0-1.0","8EBBDD729C594D63B4147919248FBB9A","8EBBDD729C594D63B4147919248FBB9A","8485a6d7-6fbb-42fd-99ad-9a1fb318ff5a","54f8d589-66fc-4c65-830f-1dcc63bce8cc","{""participantId"":""8EBBDD729C594D63B4147919248FBB9A"",""assignmentId"":""8485a6d7-6fbb-42fd-99ad-9a1fb318ff5a"",""projectId"":""54f8d589-66fc-4c65-830f-1dcc63bce8cc""}","https://test12345.live/?participantId=8EBBDD729C594D63B4147919248FBB9A&assignmentId=8485a6d7-6fbb-42fd-99ad-9a1fb318ff5a&projectId=54f8d589-66fc-4c65-830f-1dcc63bce8cc","","null","<div style=""display: flex; justify-content: center; align-items: center;"">
                    <img src=""images/semantic/semantic_series_17/semantic_series_17_b.jpg"" style=""width: 300px; height: 300px;"" />
                  </div>","null","",""
"","","","","","html-keyboard-response","50","139443","0.0-37.0-2.0","8EBBDD729C594D63B4147919248FBB9A","8EBBDD729C594D63B4147919248FBB9A","8485a6d7-6fbb-42fd-99ad-9a1fb318ff5a","54f8d589-66fc-4c65-830f-1dcc63bce8cc","{""participantId"":""8EBBDD729C594D63B4147919248FBB9A"",""assignmentId"":""8485a6d7-6fbb-42fd-99ad-9a1fb318ff5a"",""projectId"":""54f8d589-66fc-4c65-830f-1dcc63bce8cc""}","https://test12345.live/?participantId=8EBBDD729C594D63B4147919248FBB9A&assignmentId=8485a6d7-6fbb-42fd-99ad-9a1fb318ff5a&projectId=54f8d589-66fc-4c65-830f-1dcc63bce8cc","","null","<div style=""display: flex; justify-content: center; align-items: center;"">
                    <img src=""images/semantic/semantic_series_17/semantic_series_17_c.jpg"" style=""width: 300px; height: 300px;"" />
                  </div>","null","",""
"","","","","","html-keyboard-response","51","142449","0.0-37.0-3.0","8EBBDD729C594D63B4147919248FBB9A","8EBBDD729C594D63B4147919248FBB9A","8485a6d7-6fbb-42fd-99ad-9a1fb318ff5a","54f8d589-66fc-4c65-830f-1dcc63bce8cc","{""participantId"":""8EBBDD729C594D63B4147919248FBB9A"",""assignmentId"":""8485a6d7-6fbb-42fd-99ad-9a1fb318ff5a"",""projectId"":""54f8d589-66fc-4c65-830f-1dcc63bce8cc""}","https://test12345.live/?participantId=8EBBDD729C594D63B4147919248FBB9A&assignmentId=8485a6d7-6fbb-42fd-99ad-9a1fb318ff5a&projectId=54f8d589-66fc-4c65-830f-1dcc63bce8cc","","null","<div style=""display: flex; justify-content: center; align-items: center;"">
                    <img src=""images/semantic/semantic_series_17/semantic_series_17_d.jpg"" style=""width: 300px; height: 300px;"" />
                  </div>","null","",""
"","","","","","html-button-response","52","143133","0.0-38.0","8EBBDD729C594D63B4147919248FBB9A","8EBBDD729C594D63B4147919248FBB9A","8485a6d7-6fbb-42fd-99ad-9a1fb318ff5a","54f8d589-66fc-4c65-830f-1dcc63bce8cc","{""participantId"":""8EBBDD729C594D63B4147919248FBB9A"",""assignmentId"":""8485a6d7-6fbb-42fd-99ad-9a1fb318ff5a"",""projectId"":""54f8d589-66fc-4c65-830f-1dcc63bce8cc""}","https://test12345.live/?participantId=8EBBDD729C594D63B4147919248FBB9A&assignmentId=8485a6d7-6fbb-42fd-99ad-9a1fb318ff5a&projectId=54f8d589-66fc-4c65-830f-1dcc63bce8cc","","683","Was there a person in the picture?","0","",""
"","","","","","survey-likert","53","145031","0.0-39.0","8EBBDD729C594D63B4147919248FBB9A","8EBBDD729C594D63B4147919248FBB9A","8485a6d7-6fbb-42fd-99ad-9a1fb318ff5a","54f8d589-66fc-4c65-830f-1dcc63bce8cc","{""participantId"":""8EBBDD729C594D63B4147919248FBB9A"",""assignmentId"":""8485a6d7-6fbb-42fd-99ad-9a1fb318ff5a"",""projectId"":""54f8d589-66fc-4c65-830f-1dcc63bce8cc""}","https://test12345.live/?participantId=8EBBDD729C594D63B4147919248FBB9A&assignmentId=8485a6d7-6fbb-42fd-99ad-9a1fb318ff5a&projectId=54f8d589-66fc-4c65-830f-1dcc63bce8cc","","1898","","{""Q0"":3}","","[0]"
"","","","","","html-button-response","54","145878","0.0-40.0","8EBBDD729C594D63B4147919248FBB9A","8EBBDD729C594D63B4147919248FBB9A","8485a6d7-6fbb-42fd-99ad-9a1fb318ff5a","54f8d589-66fc-4c65-830f-1dcc63bce8cc","{""participantId"":""8EBBDD729C594D63B4147919248FBB9A"",""assignmentId"":""8485a6d7-6fbb-42fd-99ad-9a1fb318ff5a"",""projectId"":""54f8d589-66fc-4c65-830f-1dcc63bce8cc""}","https://test12345.live/?participantId=8EBBDD729C594D63B4147919248FBB9A&assignmentId=8485a6d7-6fbb-42fd-99ad-9a1fb318ff5a&projectId=54f8d589-66fc-4c65-830f-1dcc63bce8cc","","847","
    <div style=""display: flex; justify-content: center; align-items: center;"">
      <img src=""images/red_deck_2.png"" style=""width: 300px; height: 300px; margin-right: 10px;"" />
      <img src=""images/blue_deck_1.png"" style=""width: 300px; height: 300px;"" />
    </div>","1","1",""
"","","","","","html-keyboard-response","55","148887","0.0-42.0-0.0","8EBBDD729C594D63B4147919248FBB9A","8EBBDD729C594D63B4147919248FBB9A","8485a6d7-6fbb-42fd-99ad-9a1fb318ff5a","54f8d589-66fc-4c65-830f-1dcc63bce8cc","{""participantId"":""8EBBDD729C594D63B4147919248FBB9A"",""assignmentId"":""8485a6d7-6fbb-42fd-99ad-9a1fb318ff5a"",""projectId"":""54f8d589-66fc-4c65-830f-1dcc63bce8cc""}","https://test12345.live/?participantId=8EBBDD729C594D63B4147919248FBB9A&assignmentId=8485a6d7-6fbb-42fd-99ad-9a1fb318ff5a&projectId=54f8d589-66fc-4c65-830f-1dcc63bce8cc","","null","<div style=""display: flex; justify-content: center; align-items: center;"">
                    <img src=""images/semantic/semantic_series_7/semantic_series_7_a.jpg"" style=""width: 300px; height: 300px;"" />
                  </div>","null","",""
"","","","","","html-keyboard-response","56","151899","0.0-42.0-1.0","8EBBDD729C594D63B4147919248FBB9A","8EBBDD729C594D63B4147919248FBB9A","8485a6d7-6fbb-42fd-99ad-9a1fb318ff5a","54f8d589-66fc-4c65-830f-1dcc63bce8cc","{""participantId"":""8EBBDD729C594D63B4147919248FBB9A"",""assignmentId"":""8485a6d7-6fbb-42fd-99ad-9a1fb318ff5a"",""projectId"":""54f8d589-66fc-4c65-830f-1dcc63bce8cc""}","https://test12345.live/?participantId=8EBBDD729C594D63B4147919248FBB9A&assignmentId=8485a6d7-6fbb-42fd-99ad-9a1fb318ff5a&projectId=54f8d589-66fc-4c65-830f-1dcc63bce8cc","","null","<div style=""display: flex; justify-content: center; align-items: center;"">
                    <img src=""images/semantic/semantic_series_7/semantic_series_7_b.jpg"" style=""width: 300px; height: 300px;"" />
                  </div>","null","",""
"","","","","","html-keyboard-response","57","154909","0.0-42.0-2.0","8EBBDD729C594D63B4147919248FBB9A","8EBBDD729C594D63B4147919248FBB9A","8485a6d7-6fbb-42fd-99ad-9a1fb318ff5a","54f8d589-66fc-4c65-830f-1dcc63bce8cc","{""participantId"":""8EBBDD729C594D63B4147919248FBB9A"",""assignmentId"":""8485a6d7-6fbb-42fd-99ad-9a1fb318ff5a"",""projectId"":""54f8d589-66fc-4c65-830f-1dcc63bce8cc""}","https://test12345.live/?participantId=8EBBDD729C594D63B4147919248FBB9A&assignmentId=8485a6d7-6fbb-42fd-99ad-9a1fb318ff5a&projectId=54f8d589-66fc-4c65-830f-1dcc63bce8cc","","null","<div style=""display: flex; justify-content: center; align-items: center;"">
                    <img src=""images/semantic/semantic_series_7/semantic_series_7_c.jpg"" style=""width: 300px; height: 300px;"" />
                  </div>","null","",""
"","","","","","html-keyboard-response","58","157910","0.0-42.0-3.0","8EBBDD729C594D63B4147919248FBB9A","8EBBDD729C594D63B4147919248FBB9A","8485a6d7-6fbb-42fd-99ad-9a1fb318ff5a","54f8d589-66fc-4c65-830f-1dcc63bce8cc","{""participantId"":""8EBBDD729C594D63B4147919248FBB9A"",""assignmentId"":""8485a6d7-6fbb-42fd-99ad-9a1fb318ff5a"",""projectId"":""54f8d589-66fc-4c65-830f-1dcc63bce8cc""}","https://test12345.live/?participantId=8EBBDD729C594D63B4147919248FBB9A&assignmentId=8485a6d7-6fbb-42fd-99ad-9a1fb318ff5a&projectId=54f8d589-66fc-4c65-830f-1dcc63bce8cc","","null","<div style=""display: flex; justify-content: center; align-items: center;"">
                    <img src=""images/semantic/semantic_series_7/semantic_series_7_d.jpg"" style=""width: 300px; height: 300px;"" />
                  </div>","null","",""
"","","","","","html-button-response","59","159247","0.0-43.0","8EBBDD729C594D63B4147919248FBB9A","8EBBDD729C594D63B4147919248FBB9A","8485a6d7-6fbb-42fd-99ad-9a1fb318ff5a","54f8d589-66fc-4c65-830f-1dcc63bce8cc","{""participantId"":""8EBBDD729C594D63B4147919248FBB9A"",""assignmentId"":""8485a6d7-6fbb-42fd-99ad-9a1fb318ff5a"",""projectId"":""54f8d589-66fc-4c65-830f-1dcc63bce8cc""}","https://test12345.live/?participantId=8EBBDD729C594D63B4147919248FBB9A&assignmentId=8485a6d7-6fbb-42fd-99ad-9a1fb318ff5a&projectId=54f8d589-66fc-4c65-830f-1dcc63bce8cc","","1337","Was there a person in the picture?","1","",""
"","","","","","survey-likert","60","161141","0.0-44.0","8EBBDD729C594D63B4147919248FBB9A","8EBBDD729C594D63B4147919248FBB9A","8485a6d7-6fbb-42fd-99ad-9a1fb318ff5a","54f8d589-66fc-4c65-830f-1dcc63bce8cc","{""participantId"":""8EBBDD729C594D63B4147919248FBB9A"",""assignmentId"":""8485a6d7-6fbb-42fd-99ad-9a1fb318ff5a"",""projectId"":""54f8d589-66fc-4c65-830f-1dcc63bce8cc""}","https://test12345.live/?participantId=8EBBDD729C594D63B4147919248FBB9A&assignmentId=8485a6d7-6fbb-42fd-99ad-9a1fb318ff5a&projectId=54f8d589-66fc-4c65-830f-1dcc63bce8cc","","1893","","{""Q0"":2}","","[0]"
"","","","","","html-button-response","61","161948","0.0-45.0","8EBBDD729C594D63B4147919248FBB9A","8EBBDD729C594D63B4147919248FBB9A","8485a6d7-6fbb-42fd-99ad-9a1fb318ff5a","54f8d589-66fc-4c65-830f-1dcc63bce8cc","{""participantId"":""8EBBDD729C594D63B4147919248FBB9A"",""assignmentId"":""8485a6d7-6fbb-42fd-99ad-9a1fb318ff5a"",""projectId"":""54f8d589-66fc-4c65-830f-1dcc63bce8cc""}","https://test12345.live/?participantId=8EBBDD729C594D63B4147919248FBB9A&assignmentId=8485a6d7-6fbb-42fd-99ad-9a1fb318ff5a&projectId=54f8d589-66fc-4c65-830f-1dcc63bce8cc","","807","
    <div style=""display: flex; justify-content: center; align-items: center;"">
      <img src=""images/red_deck_2.png"" style=""width: 300px; height: 300px; margin-right: 10px;"" />
      <img src=""images/blue_deck_1.png"" style=""width: 300px; height: 300px;"" />
    </div>","0","0",""
"","","","","","html-keyboard-response","62","164952","0.0-46.0-0.0","8EBBDD729C594D63B4147919248FBB9A","8EBBDD729C594D63B4147919248FBB9A","8485a6d7-6fbb-42fd-99ad-9a1fb318ff5a","54f8d589-66fc-4c65-830f-1dcc63bce8cc","{""participantId"":""8EBBDD729C594D63B4147919248FBB9A"",""assignmentId"":""8485a6d7-6fbb-42fd-99ad-9a1fb318ff5a"",""projectId"":""54f8d589-66fc-4c65-830f-1dcc63bce8cc""}","https://test12345.live/?participantId=8EBBDD729C594D63B4147919248FBB9A&assignmentId=8485a6d7-6fbb-42fd-99ad-9a1fb318ff5a&projectId=54f8d589-66fc-4c65-830f-1dcc63bce8cc","","null","<div style=""display: flex; justify-content: center; align-items: center;"">
                    <img src=""images/causal/causal_series_18/causal_series_18_a.jpg"" style=""width: 300px; height: 300px;"" />
                  </div>","null","",""
"","","","","","html-keyboard-response","63","167958","0.0-46.0-1.0","8EBBDD729C594D63B4147919248FBB9A","8EBBDD729C594D63B4147919248FBB9A","8485a6d7-6fbb-42fd-99ad-9a1fb318ff5a","54f8d589-66fc-4c65-830f-1dcc63bce8cc","{""participantId"":""8EBBDD729C594D63B4147919248FBB9A"",""assignmentId"":""8485a6d7-6fbb-42fd-99ad-9a1fb318ff5a"",""projectId"":""54f8d589-66fc-4c65-830f-1dcc63bce8cc""}","https://test12345.live/?participantId=8EBBDD729C594D63B4147919248FBB9A&assignmentId=8485a6d7-6fbb-42fd-99ad-9a1fb318ff5a&projectId=54f8d589-66fc-4c65-830f-1dcc63bce8cc","","null","<div style=""display: flex; justify-content: center; align-items: center;"">
                    <img src=""images/causal/causal_series_18/causal_series_18_b.jpg"" style=""width: 300px; height: 300px;"" />
                  </div>","null","",""
"","","","","","html-keyboard-response","64","170963","0.0-46.0-2.0","8EBBDD729C594D63B4147919248FBB9A","8EBBDD729C594D63B4147919248FBB9A","8485a6d7-6fbb-42fd-99ad-9a1fb318ff5a","54f8d589-66fc-4c65-830f-1dcc63bce8cc","{""participantId"":""8EBBDD729C594D63B4147919248FBB9A"",""assignmentId"":""8485a6d7-6fbb-42fd-99ad-9a1fb318ff5a"",""projectId"":""54f8d589-66fc-4c65-830f-1dcc63bce8cc""}","https://test12345.live/?participantId=8EBBDD729C594D63B4147919248FBB9A&assignmentId=8485a6d7-6fbb-42fd-99ad-9a1fb318ff5a&projectId=54f8d589-66fc-4c65-830f-1dcc63bce8cc","","null","<div style=""display: flex; justify-content: center; align-items: center;"">
                    <img src=""images/causal/causal_series_18/causal_series_18_c.jpg"" style=""width: 300px; height: 300px;"" />
                  </div>","null","",""
"","","","","","html-keyboard-response","65","173977","0.0-46.0-3.0","8EBBDD729C594D63B4147919248FBB9A","8EBBDD729C594D63B4147919248FBB9A","8485a6d7-6fbb-42fd-99ad-9a1fb318ff5a","54f8d589-66fc-4c65-830f-1dcc63bce8cc","{""participantId"":""8EBBDD729C594D63B4147919248FBB9A"",""assignmentId"":""8485a6d7-6fbb-42fd-99ad-9a1fb318ff5a"",""projectId"":""54f8d589-66fc-4c65-830f-1dcc63bce8cc""}","https://test12345.live/?participantId=8EBBDD729C594D63B4147919248FBB9A&assignmentId=8485a6d7-6fbb-42fd-99ad-9a1fb318ff5a&projectId=54f8d589-66fc-4c65-830f-1dcc63bce8cc","","null","<div style=""display: flex; justify-content: center; align-items: center;"">
                    <img src=""images/causal/causal_series_18/causal_series_18_d.jpg"" style=""width: 300px; height: 300px;"" />
                  </div>","null","",""
"","","","","","html-button-response","66","174509","0.0-48.0","8EBBDD729C594D63B4147919248FBB9A","8EBBDD729C594D63B4147919248FBB9A","8485a6d7-6fbb-42fd-99ad-9a1fb318ff5a","54f8d589-66fc-4c65-830f-1dcc63bce8cc","{""participantId"":""8EBBDD729C594D63B4147919248FBB9A"",""assignmentId"":""8485a6d7-6fbb-42fd-99ad-9a1fb318ff5a"",""projectId"":""54f8d589-66fc-4c65-830f-1dcc63bce8cc""}","https://test12345.live/?participantId=8EBBDD729C594D63B4147919248FBB9A&assignmentId=8485a6d7-6fbb-42fd-99ad-9a1fb318ff5a&projectId=54f8d589-66fc-4c65-830f-1dcc63bce8cc","","530","Was there a person in the picture?","1","",""
"","","","","","survey-likert","67","175739","0.0-49.0","8EBBDD729C594D63B4147919248FBB9A","8EBBDD729C594D63B4147919248FBB9A","8485a6d7-6fbb-42fd-99ad-9a1fb318ff5a","54f8d589-66fc-4c65-830f-1dcc63bce8cc","{""participantId"":""8EBBDD729C594D63B4147919248FBB9A"",""assignmentId"":""8485a6d7-6fbb-42fd-99ad-9a1fb318ff5a"",""projectId"":""54f8d589-66fc-4c65-830f-1dcc63bce8cc""}","https://test12345.live/?participantId=8EBBDD729C594D63B4147919248FBB9A&assignmentId=8485a6d7-6fbb-42fd-99ad-9a1fb318ff5a&projectId=54f8d589-66fc-4c65-830f-1dcc63bce8cc","","1229","","{""Q0"":3}","","[0]"
"","","","","","html-button-response","68","176480","0.0-50.0","8EBBDD729C594D63B4147919248FBB9A","8EBBDD729C594D63B4147919248FBB9A","8485a6d7-6fbb-42fd-99ad-9a1fb318ff5a","54f8d589-66fc-4c65-830f-1dcc63bce8cc","{""participantId"":""8EBBDD729C594D63B4147919248FBB9A"",""assignmentId"":""8485a6d7-6fbb-42fd-99ad-9a1fb318ff5a"",""projectId"":""54f8d589-66fc-4c65-830f-1dcc63bce8cc""}","https://test12345.live/?participantId=8EBBDD729C594D63B4147919248FBB9A&assignmentId=8485a6d7-6fbb-42fd-99ad-9a1fb318ff5a&projectId=54f8d589-66fc-4c65-830f-1dcc63bce8cc","","741","
    <div style=""display: flex; justify-content: center; align-items: center;"">
      <img src=""images/red_deck_2.png"" style=""width: 300px; height: 300px; margin-right: 10px;"" />
      <img src=""images/blue_deck_1.png"" style=""width: 300px; height: 300px;"" />
    </div>","1","1",""
"","","","","","html-keyboard-response","69","179486","0.0-52.0-0.0","8EBBDD729C594D63B4147919248FBB9A","8EBBDD729C594D63B4147919248FBB9A","8485a6d7-6fbb-42fd-99ad-9a1fb318ff5a","54f8d589-66fc-4c65-830f-1dcc63bce8cc","{""participantId"":""8EBBDD729C594D63B4147919248FBB9A"",""assignmentId"":""8485a6d7-6fbb-42fd-99ad-9a1fb318ff5a"",""projectId"":""54f8d589-66fc-4c65-830f-1dcc63bce8cc""}","https://test12345.live/?participantId=8EBBDD729C594D63B4147919248FBB9A&assignmentId=8485a6d7-6fbb-42fd-99ad-9a1fb318ff5a&projectId=54f8d589-66fc-4c65-830f-1dcc63bce8cc","","null","<div style=""display: flex; justify-content: center; align-items: center;"">
                    <img src=""images/semantic/semantic_series_15/semantic_series_15_a.jpg"" style=""width: 300px; height: 300px;"" />
                  </div>","null","",""
"","","","","","html-keyboard-response","70","182496","0.0-52.0-1.0","8EBBDD729C594D63B4147919248FBB9A","8EBBDD729C594D63B4147919248FBB9A","8485a6d7-6fbb-42fd-99ad-9a1fb318ff5a","54f8d589-66fc-4c65-830f-1dcc63bce8cc","{""participantId"":""8EBBDD729C594D63B4147919248FBB9A"",""assignmentId"":""8485a6d7-6fbb-42fd-99ad-9a1fb318ff5a"",""projectId"":""54f8d589-66fc-4c65-830f-1dcc63bce8cc""}","https://test12345.live/?participantId=8EBBDD729C594D63B4147919248FBB9A&assignmentId=8485a6d7-6fbb-42fd-99ad-9a1fb318ff5a&projectId=54f8d589-66fc-4c65-830f-1dcc63bce8cc","","null","<div style=""display: flex; justify-content: center; align-items: center;"">
                    <img src=""images/semantic/semantic_series_15/semantic_series_15_b.jpg"" style=""width: 300px; height: 300px;"" />
                  </div>","null","",""
"","","","","","html-keyboard-response","71","185505","0.0-52.0-2.0","8EBBDD729C594D63B4147919248FBB9A","8EBBDD729C594D63B4147919248FBB9A","8485a6d7-6fbb-42fd-99ad-9a1fb318ff5a","54f8d589-66fc-4c65-830f-1dcc63bce8cc","{""participantId"":""8EBBDD729C594D63B4147919248FBB9A"",""assignmentId"":""8485a6d7-6fbb-42fd-99ad-9a1fb318ff5a"",""projectId"":""54f8d589-66fc-4c65-830f-1dcc63bce8cc""}","https://test12345.live/?participantId=8EBBDD729C594D63B4147919248FBB9A&assignmentId=8485a6d7-6fbb-42fd-99ad-9a1fb318ff5a&projectId=54f8d589-66fc-4c65-830f-1dcc63bce8cc","","null","<div style=""display: flex; justify-content: center; align-items: center;"">
                    <img src=""images/semantic/semantic_series_15/semantic_series_15_c.jpg"" style=""width: 300px; height: 300px;"" />
                  </div>","null","",""
"","","","","","html-keyboard-response","72","188506","0.0-52.0-3.0","8EBBDD729C594D63B4147919248FBB9A","8EBBDD729C594D63B4147919248FBB9A","8485a6d7-6fbb-42fd-99ad-9a1fb318ff5a","54f8d589-66fc-4c65-830f-1dcc63bce8cc","{""participantId"":""8EBBDD729C594D63B4147919248FBB9A"",""assignmentId"":""8485a6d7-6fbb-42fd-99ad-9a1fb318ff5a"",""projectId"":""54f8d589-66fc-4c65-830f-1dcc63bce8cc""}","https://test12345.live/?participantId=8EBBDD729C594D63B4147919248FBB9A&assignmentId=8485a6d7-6fbb-42fd-99ad-9a1fb318ff5a&projectId=54f8d589-66fc-4c65-830f-1dcc63bce8cc","","null","<div style=""display: flex; justify-content: center; align-items: center;"">
                    <img src=""images/semantic/semantic_series_15/semantic_series_15_d.jpg"" style=""width: 300px; height: 300px;"" />
                  </div>","null","",""
"","","","","","html-button-response","73","189066","0.0-53.0","8EBBDD729C594D63B4147919248FBB9A","8EBBDD729C594D63B4147919248FBB9A","8485a6d7-6fbb-42fd-99ad-9a1fb318ff5a","54f8d589-66fc-4c65-830f-1dcc63bce8cc","{""participantId"":""8EBBDD729C594D63B4147919248FBB9A"",""assignmentId"":""8485a6d7-6fbb-42fd-99ad-9a1fb318ff5a"",""projectId"":""54f8d589-66fc-4c65-830f-1dcc63bce8cc""}","https://test12345.live/?participantId=8EBBDD729C594D63B4147919248FBB9A&assignmentId=8485a6d7-6fbb-42fd-99ad-9a1fb318ff5a&projectId=54f8d589-66fc-4c65-830f-1dcc63bce8cc","","560","Was there a person in the picture?","1","",""
"","","","","","survey-likert","74","190977","0.0-54.0","8EBBDD729C594D63B4147919248FBB9A","8EBBDD729C594D63B4147919248FBB9A","8485a6d7-6fbb-42fd-99ad-9a1fb318ff5a","54f8d589-66fc-4c65-830f-1dcc63bce8cc","{""participantId"":""8EBBDD729C594D63B4147919248FBB9A"",""assignmentId"":""8485a6d7-6fbb-42fd-99ad-9a1fb318ff5a"",""projectId"":""54f8d589-66fc-4c65-830f-1dcc63bce8cc""}","https://test12345.live/?participantId=8EBBDD729C594D63B4147919248FBB9A&assignmentId=8485a6d7-6fbb-42fd-99ad-9a1fb318ff5a&projectId=54f8d589-66fc-4c65-830f-1dcc63bce8cc","","1910","","{""Q0"":2}","","[0]"
"","","","","","html-button-response","75","192202","0.0-55.0","8EBBDD729C594D63B4147919248FBB9A","8EBBDD729C594D63B4147919248FBB9A","8485a6d7-6fbb-42fd-99ad-9a1fb318ff5a","54f8d589-66fc-4c65-830f-1dcc63bce8cc","{""participantId"":""8EBBDD729C594D63B4147919248FBB9A"",""assignmentId"":""8485a6d7-6fbb-42fd-99ad-9a1fb318ff5a"",""projectId"":""54f8d589-66fc-4c65-830f-1dcc63bce8cc""}","https://test12345.live/?participantId=8EBBDD729C594D63B4147919248FBB9A&assignmentId=8485a6d7-6fbb-42fd-99ad-9a1fb318ff5a&projectId=54f8d589-66fc-4c65-830f-1dcc63bce8cc","","1225","
    <div style=""display: flex; justify-content: center; align-items: center;"">
      <img src=""images/red_deck_2.png"" style=""width: 300px; height: 300px; margin-right: 10px;"" />
      <img src=""images/blue_deck_1.png"" style=""width: 300px; height: 300px;"" />
    </div>","0","0",""
"","","","","","html-keyboard-response","76","195207","0.0-56.0-0.0","8EBBDD729C594D63B4147919248FBB9A","8EBBDD729C594D63B4147919248FBB9A","8485a6d7-6fbb-42fd-99ad-9a1fb318ff5a","54f8d589-66fc-4c65-830f-1dcc63bce8cc","{""participantId"":""8EBBDD729C594D63B4147919248FBB9A"",""assignmentId"":""8485a6d7-6fbb-42fd-99ad-9a1fb318ff5a"",""projectId"":""54f8d589-66fc-4c65-830f-1dcc63bce8cc""}","https://test12345.live/?participantId=8EBBDD729C594D63B4147919248FBB9A&assignmentId=8485a6d7-6fbb-42fd-99ad-9a1fb318ff5a&projectId=54f8d589-66fc-4c65-830f-1dcc63bce8cc","","null","<div style=""display: flex; justify-content: center; align-items: center;"">
                    <img src=""images/causal/causal_series_3/causal_series_3_a.jpg"" style=""width: 300px; height: 300px;"" />
                  </div>","null","",""
"","","","","","html-keyboard-response","77","198216","0.0-56.0-1.0","8EBBDD729C594D63B4147919248FBB9A","8EBBDD729C594D63B4147919248FBB9A","8485a6d7-6fbb-42fd-99ad-9a1fb318ff5a","54f8d589-66fc-4c65-830f-1dcc63bce8cc","{""participantId"":""8EBBDD729C594D63B4147919248FBB9A"",""assignmentId"":""8485a6d7-6fbb-42fd-99ad-9a1fb318ff5a"",""projectId"":""54f8d589-66fc-4c65-830f-1dcc63bce8cc""}","https://test12345.live/?participantId=8EBBDD729C594D63B4147919248FBB9A&assignmentId=8485a6d7-6fbb-42fd-99ad-9a1fb318ff5a&projectId=54f8d589-66fc-4c65-830f-1dcc63bce8cc","","null","<div style=""display: flex; justify-content: center; align-items: center;"">
                    <img src=""images/causal/causal_series_3/causal_series_3_b.jpg"" style=""width: 300px; height: 300px;"" />
                  </div>","null","",""
"","","","","","html-keyboard-response","78","201225","0.0-56.0-2.0","8EBBDD729C594D63B4147919248FBB9A","8EBBDD729C594D63B4147919248FBB9A","8485a6d7-6fbb-42fd-99ad-9a1fb318ff5a","54f8d589-66fc-4c65-830f-1dcc63bce8cc","{""participantId"":""8EBBDD729C594D63B4147919248FBB9A"",""assignmentId"":""8485a6d7-6fbb-42fd-99ad-9a1fb318ff5a"",""projectId"":""54f8d589-66fc-4c65-830f-1dcc63bce8cc""}","https://test12345.live/?participantId=8EBBDD729C594D63B4147919248FBB9A&assignmentId=8485a6d7-6fbb-42fd-99ad-9a1fb318ff5a&projectId=54f8d589-66fc-4c65-830f-1dcc63bce8cc","","null","<div style=""display: flex; justify-content: center; align-items: center;"">
                    <img src=""images/causal/causal_series_3/causal_series_3_c.jpg"" style=""width: 300px; height: 300px;"" />
                  </div>","null","",""
"","","","","","html-keyboard-response","79","204230","0.0-56.0-3.0","8EBBDD729C594D63B4147919248FBB9A","8EBBDD729C594D63B4147919248FBB9A","8485a6d7-6fbb-42fd-99ad-9a1fb318ff5a","54f8d589-66fc-4c65-830f-1dcc63bce8cc","{""participantId"":""8EBBDD729C594D63B4147919248FBB9A"",""assignmentId"":""8485a6d7-6fbb-42fd-99ad-9a1fb318ff5a"",""projectId"":""54f8d589-66fc-4c65-830f-1dcc63bce8cc""}","https://test12345.live/?participantId=8EBBDD729C594D63B4147919248FBB9A&assignmentId=8485a6d7-6fbb-42fd-99ad-9a1fb318ff5a&projectId=54f8d589-66fc-4c65-830f-1dcc63bce8cc","","null","<div style=""display: flex; justify-content: center; align-items: center;"">
                    <img src=""images/causal/causal_series_3/causal_series_3_d.jpg"" style=""width: 300px; height: 300px;"" />
                  </div>","null","",""
"","","","","","html-button-response","80","204966","0.0-58.0","8EBBDD729C594D63B4147919248FBB9A","8EBBDD729C594D63B4147919248FBB9A","8485a6d7-6fbb-42fd-99ad-9a1fb318ff5a","54f8d589-66fc-4c65-830f-1dcc63bce8cc","{""participantId"":""8EBBDD729C594D63B4147919248FBB9A"",""assignmentId"":""8485a6d7-6fbb-42fd-99ad-9a1fb318ff5a"",""projectId"":""54f8d589-66fc-4c65-830f-1dcc63bce8cc""}","https://test12345.live/?participantId=8EBBDD729C594D63B4147919248FBB9A&assignmentId=8485a6d7-6fbb-42fd-99ad-9a1fb318ff5a&projectId=54f8d589-66fc-4c65-830f-1dcc63bce8cc","","735","Was there a person in the picture?","0","",""
"","","","","","survey-likert","81","206440","0.0-59.0","8EBBDD729C594D63B4147919248FBB9A","8EBBDD729C594D63B4147919248FBB9A","8485a6d7-6fbb-42fd-99ad-9a1fb318ff5a","54f8d589-66fc-4c65-830f-1dcc63bce8cc","{""participantId"":""8EBBDD729C594D63B4147919248FBB9A"",""assignmentId"":""8485a6d7-6fbb-42fd-99ad-9a1fb318ff5a"",""projectId"":""54f8d589-66fc-4c65-830f-1dcc63bce8cc""}","https://test12345.live/?participantId=8EBBDD729C594D63B4147919248FBB9A&assignmentId=8485a6d7-6fbb-42fd-99ad-9a1fb318ff5a&projectId=54f8d589-66fc-4c65-830f-1dcc63bce8cc","","1473","","{""Q0"":3}","","[0]"
"","","","","","html-button-response","82","207182","0.0-60.0","8EBBDD729C594D63B4147919248FBB9A","8EBBDD729C594D63B4147919248FBB9A","8485a6d7-6fbb-42fd-99ad-9a1fb318ff5a","54f8d589-66fc-4c65-830f-1dcc63bce8cc","{""participantId"":""8EBBDD729C594D63B4147919248FBB9A"",""assignmentId"":""8485a6d7-6fbb-42fd-99ad-9a1fb318ff5a"",""projectId"":""54f8d589-66fc-4c65-830f-1dcc63bce8cc""}","https://test12345.live/?participantId=8EBBDD729C594D63B4147919248FBB9A&assignmentId=8485a6d7-6fbb-42fd-99ad-9a1fb318ff5a&projectId=54f8d589-66fc-4c65-830f-1dcc63bce8cc","","742","
    <div style=""display: flex; justify-content: center; align-items: center;"">
      <img src=""images/red_deck_2.png"" style=""width: 300px; height: 300px; margin-right: 10px;"" />
      <img src=""images/blue_deck_1.png"" style=""width: 300px; height: 300px;"" />
    </div>","1","1",""
"","","","","","html-keyboard-response","83","210190","0.0-62.0-0.0","8EBBDD729C594D63B4147919248FBB9A","8EBBDD729C594D63B4147919248FBB9A","8485a6d7-6fbb-42fd-99ad-9a1fb318ff5a","54f8d589-66fc-4c65-830f-1dcc63bce8cc","{""participantId"":""8EBBDD729C594D63B4147919248FBB9A"",""assignmentId"":""8485a6d7-6fbb-42fd-99ad-9a1fb318ff5a"",""projectId"":""54f8d589-66fc-4c65-830f-1dcc63bce8cc""}","https://test12345.live/?participantId=8EBBDD729C594D63B4147919248FBB9A&assignmentId=8485a6d7-6fbb-42fd-99ad-9a1fb318ff5a&projectId=54f8d589-66fc-4c65-830f-1dcc63bce8cc","","null","<div style=""display: flex; justify-content: center; align-items: center;"">
                    <img src=""images/semantic/semantic_series_13/semantic_series_13_a.jpg"" style=""width: 300px; height: 300px;"" />
                  </div>","null","",""
"","","","","","html-keyboard-response","84","213206","0.0-62.0-1.0","8EBBDD729C594D63B4147919248FBB9A","8EBBDD729C594D63B4147919248FBB9A","8485a6d7-6fbb-42fd-99ad-9a1fb318ff5a","54f8d589-66fc-4c65-830f-1dcc63bce8cc","{""participantId"":""8EBBDD729C594D63B4147919248FBB9A"",""assignmentId"":""8485a6d7-6fbb-42fd-99ad-9a1fb318ff5a"",""projectId"":""54f8d589-66fc-4c65-830f-1dcc63bce8cc""}","https://test12345.live/?participantId=8EBBDD729C594D63B4147919248FBB9A&assignmentId=8485a6d7-6fbb-42fd-99ad-9a1fb318ff5a&projectId=54f8d589-66fc-4c65-830f-1dcc63bce8cc","","null","<div style=""display: flex; justify-content: center; align-items: center;"">
                    <img src=""images/semantic/semantic_series_13/semantic_series_13_b.jpg"" style=""width: 300px; height: 300px;"" />
                  </div>","null","",""
"","","","","","html-keyboard-response","85","216219","0.0-62.0-2.0","8EBBDD729C594D63B4147919248FBB9A","8EBBDD729C594D63B4147919248FBB9A","8485a6d7-6fbb-42fd-99ad-9a1fb318ff5a","54f8d589-66fc-4c65-830f-1dcc63bce8cc","{""participantId"":""8EBBDD729C594D63B4147919248FBB9A"",""assignmentId"":""8485a6d7-6fbb-42fd-99ad-9a1fb318ff5a"",""projectId"":""54f8d589-66fc-4c65-830f-1dcc63bce8cc""}","https://test12345.live/?participantId=8EBBDD729C594D63B4147919248FBB9A&assignmentId=8485a6d7-6fbb-42fd-99ad-9a1fb318ff5a&projectId=54f8d589-66fc-4c65-830f-1dcc63bce8cc","","null","<div style=""display: flex; justify-content: center; align-items: center;"">
                    <img src=""images/semantic/semantic_series_13/semantic_series_13_c.jpg"" style=""width: 300px; height: 300px;"" />
                  </div>","null","",""
"","","","","","html-keyboard-response","86","219226","0.0-62.0-3.0","8EBBDD729C594D63B4147919248FBB9A","8EBBDD729C594D63B4147919248FBB9A","8485a6d7-6fbb-42fd-99ad-9a1fb318ff5a","54f8d589-66fc-4c65-830f-1dcc63bce8cc","{""participantId"":""8EBBDD729C594D63B4147919248FBB9A"",""assignmentId"":""8485a6d7-6fbb-42fd-99ad-9a1fb318ff5a"",""projectId"":""54f8d589-66fc-4c65-830f-1dcc63bce8cc""}","https://test12345.live/?participantId=8EBBDD729C594D63B4147919248FBB9A&assignmentId=8485a6d7-6fbb-42fd-99ad-9a1fb318ff5a&projectId=54f8d589-66fc-4c65-830f-1dcc63bce8cc","","null","<div style=""display: flex; justify-content: center; align-items: center;"">
                    <img src=""images/semantic/semantic_series_13/semantic_series_13_d.jpg"" style=""width: 300px; height: 300px;"" />
                  </div>","null","",""
"","","","","","html-button-response","87","220750","0.0-63.0","8EBBDD729C594D63B4147919248FBB9A","8EBBDD729C594D63B4147919248FBB9A","8485a6d7-6fbb-42fd-99ad-9a1fb318ff5a","54f8d589-66fc-4c65-830f-1dcc63bce8cc","{""participantId"":""8EBBDD729C594D63B4147919248FBB9A"",""assignmentId"":""8485a6d7-6fbb-42fd-99ad-9a1fb318ff5a"",""projectId"":""54f8d589-66fc-4c65-830f-1dcc63bce8cc""}","https://test12345.live/?participantId=8EBBDD729C594D63B4147919248FBB9A&assignmentId=8485a6d7-6fbb-42fd-99ad-9a1fb318ff5a&projectId=54f8d589-66fc-4c65-830f-1dcc63bce8cc","","1523","Was there a person in the picture?","0","",""
"","","","","","survey-likert","88","223076","0.0-64.0","8EBBDD729C594D63B4147919248FBB9A","8EBBDD729C594D63B4147919248FBB9A","8485a6d7-6fbb-42fd-99ad-9a1fb318ff5a","54f8d589-66fc-4c65-830f-1dcc63bce8cc","{""participantId"":""8EBBDD729C594D63B4147919248FBB9A"",""assignmentId"":""8485a6d7-6fbb-42fd-99ad-9a1fb318ff5a"",""projectId"":""54f8d589-66fc-4c65-830f-1dcc63bce8cc""}","https://test12345.live/?participantId=8EBBDD729C594D63B4147919248FBB9A&assignmentId=8485a6d7-6fbb-42fd-99ad-9a1fb318ff5a&projectId=54f8d589-66fc-4c65-830f-1dcc63bce8cc","","2326","","{""Q0"":2}","","[0]"
"","","","","","html-button-response","89","223741","0.0-65.0","8EBBDD729C594D63B4147919248FBB9A","8EBBDD729C594D63B4147919248FBB9A","8485a6d7-6fbb-42fd-99ad-9a1fb318ff5a","54f8d589-66fc-4c65-830f-1dcc63bce8cc","{""participantId"":""8EBBDD729C594D63B4147919248FBB9A"",""assignmentId"":""8485a6d7-6fbb-42fd-99ad-9a1fb318ff5a"",""projectId"":""54f8d589-66fc-4c65-830f-1dcc63bce8cc""}","https://test12345.live/?participantId=8EBBDD729C594D63B4147919248FBB9A&assignmentId=8485a6d7-6fbb-42fd-99ad-9a1fb318ff5a&projectId=54f8d589-66fc-4c65-830f-1dcc63bce8cc","","664","
    <div style=""display: flex; justify-content: center; align-items: center;"">
      <img src=""images/red_deck_2.png"" style=""width: 300px; height: 300px; margin-right: 10px;"" />
      <img src=""images/blue_deck_1.png"" style=""width: 300px; height: 300px;"" />
    </div>","1","1",""
"","","","","","html-keyboard-response","90","226756","0.0-67.0-0.0","8EBBDD729C594D63B4147919248FBB9A","8EBBDD729C594D63B4147919248FBB9A","8485a6d7-6fbb-42fd-99ad-9a1fb318ff5a","54f8d589-66fc-4c65-830f-1dcc63bce8cc","{""participantId"":""8EBBDD729C594D63B4147919248FBB9A"",""assignmentId"":""8485a6d7-6fbb-42fd-99ad-9a1fb318ff5a"",""projectId"":""54f8d589-66fc-4c65-830f-1dcc63bce8cc""}","https://test12345.live/?participantId=8EBBDD729C594D63B4147919248FBB9A&assignmentId=8485a6d7-6fbb-42fd-99ad-9a1fb318ff5a&projectId=54f8d589-66fc-4c65-830f-1dcc63bce8cc","","null","<div style=""display: flex; justify-content: center; align-items: center;"">
                    <img src=""images/semantic/semantic_series_11/semantic_series_11_a.jpg"" style=""width: 300px; height: 300px;"" />
                  </div>","null","",""
"","","","","","html-keyboard-response","91","229757","0.0-67.0-1.0","8EBBDD729C594D63B4147919248FBB9A","8EBBDD729C594D63B4147919248FBB9A","8485a6d7-6fbb-42fd-99ad-9a1fb318ff5a","54f8d589-66fc-4c65-830f-1dcc63bce8cc","{""participantId"":""8EBBDD729C594D63B4147919248FBB9A"",""assignmentId"":""8485a6d7-6fbb-42fd-99ad-9a1fb318ff5a"",""projectId"":""54f8d589-66fc-4c65-830f-1dcc63bce8cc""}","https://test12345.live/?participantId=8EBBDD729C594D63B4147919248FBB9A&assignmentId=8485a6d7-6fbb-42fd-99ad-9a1fb318ff5a&projectId=54f8d589-66fc-4c65-830f-1dcc63bce8cc","","null","<div style=""display: flex; justify-content: center; align-items: center;"">
                    <img src=""images/semantic/semantic_series_11/semantic_series_11_b.jpg"" style=""width: 300px; height: 300px;"" />
                  </div>","null","",""
"","","","","","html-keyboard-response","92","232761","0.0-67.0-2.0","8EBBDD729C594D63B4147919248FBB9A","8EBBDD729C594D63B4147919248FBB9A","8485a6d7-6fbb-42fd-99ad-9a1fb318ff5a","54f8d589-66fc-4c65-830f-1dcc63bce8cc","{""participantId"":""8EBBDD729C594D63B4147919248FBB9A"",""assignmentId"":""8485a6d7-6fbb-42fd-99ad-9a1fb318ff5a"",""projectId"":""54f8d589-66fc-4c65-830f-1dcc63bce8cc""}","https://test12345.live/?participantId=8EBBDD729C594D63B4147919248FBB9A&assignmentId=8485a6d7-6fbb-42fd-99ad-9a1fb318ff5a&projectId=54f8d589-66fc-4c65-830f-1dcc63bce8cc","","null","<div style=""display: flex; justify-content: center; align-items: center;"">
                    <img src=""images/semantic/semantic_series_11/semantic_series_11_c.jpg"" style=""width: 300px; height: 300px;"" />
                  </div>","null","",""
"","","","","","html-keyboard-response","93","235762","0.0-67.0-3.0","8EBBDD729C594D63B4147919248FBB9A","8EBBDD729C594D63B4147919248FBB9A","8485a6d7-6fbb-42fd-99ad-9a1fb318ff5a","54f8d589-66fc-4c65-830f-1dcc63bce8cc","{""participantId"":""8EBBDD729C594D63B4147919248FBB9A"",""assignmentId"":""8485a6d7-6fbb-42fd-99ad-9a1fb318ff5a"",""projectId"":""54f8d589-66fc-4c65-830f-1dcc63bce8cc""}","https://test12345.live/?participantId=8EBBDD729C594D63B4147919248FBB9A&assignmentId=8485a6d7-6fbb-42fd-99ad-9a1fb318ff5a&projectId=54f8d589-66fc-4c65-830f-1dcc63bce8cc","","null","<div style=""display: flex; justify-content: center; align-items: center;"">
                    <img src=""images/semantic/semantic_series_11/semantic_series_11_d.jpg"" style=""width: 300px; height: 300px;"" />
                  </div>","null","",""
"","","","","","html-button-response","94","236315","0.0-68.0","8EBBDD729C594D63B4147919248FBB9A","8EBBDD729C594D63B4147919248FBB9A","8485a6d7-6fbb-42fd-99ad-9a1fb318ff5a","54f8d589-66fc-4c65-830f-1dcc63bce8cc","{""participantId"":""8EBBDD729C594D63B4147919248FBB9A"",""assignmentId"":""8485a6d7-6fbb-42fd-99ad-9a1fb318ff5a"",""projectId"":""54f8d589-66fc-4c65-830f-1dcc63bce8cc""}","https://test12345.live/?participantId=8EBBDD729C594D63B4147919248FBB9A&assignmentId=8485a6d7-6fbb-42fd-99ad-9a1fb318ff5a&projectId=54f8d589-66fc-4c65-830f-1dcc63bce8cc","","553","Was there a person in the picture?","0","",""
"","","","","","survey-likert","95","237345","0.0-69.0","8EBBDD729C594D63B4147919248FBB9A","8EBBDD729C594D63B4147919248FBB9A","8485a6d7-6fbb-42fd-99ad-9a1fb318ff5a","54f8d589-66fc-4c65-830f-1dcc63bce8cc","{""participantId"":""8EBBDD729C594D63B4147919248FBB9A"",""assignmentId"":""8485a6d7-6fbb-42fd-99ad-9a1fb318ff5a"",""projectId"":""54f8d589-66fc-4c65-830f-1dcc63bce8cc""}","https://test12345.live/?participantId=8EBBDD729C594D63B4147919248FBB9A&assignmentId=8485a6d7-6fbb-42fd-99ad-9a1fb318ff5a&projectId=54f8d589-66fc-4c65-830f-1dcc63bce8cc","","1030","","{""Q0"":3}","","[0]"
"","","","","","html-button-response","96","238380","0.0-70.0","8EBBDD729C594D63B4147919248FBB9A","8EBBDD729C594D63B4147919248FBB9A","8485a6d7-6fbb-42fd-99ad-9a1fb318ff5a","54f8d589-66fc-4c65-830f-1dcc63bce8cc","{""participantId"":""8EBBDD729C594D63B4147919248FBB9A"",""assignmentId"":""8485a6d7-6fbb-42fd-99ad-9a1fb318ff5a"",""projectId"":""54f8d589-66fc-4c65-830f-1dcc63bce8cc""}","https://test12345.live/?participantId=8EBBDD729C594D63B4147919248FBB9A&assignmentId=8485a6d7-6fbb-42fd-99ad-9a1fb318ff5a&projectId=54f8d589-66fc-4c65-830f-1dcc63bce8cc","","1034","
    <div style=""display: flex; justify-content: center; align-items: center;"">
      <img src=""images/red_deck_2.png"" style=""width: 300px; height: 300px; margin-right: 10px;"" />
      <img src=""images/blue_deck_1.png"" style=""width: 300px; height: 300px;"" />
    </div>","0","0",""
"","","","","","html-keyboard-response","97","241386","0.0-71.0-0.0","8EBBDD729C594D63B4147919248FBB9A","8EBBDD729C594D63B4147919248FBB9A","8485a6d7-6fbb-42fd-99ad-9a1fb318ff5a","54f8d589-66fc-4c65-830f-1dcc63bce8cc","{""participantId"":""8EBBDD729C594D63B4147919248FBB9A"",""assignmentId"":""8485a6d7-6fbb-42fd-99ad-9a1fb318ff5a"",""projectId"":""54f8d589-66fc-4c65-830f-1dcc63bce8cc""}","https://test12345.live/?participantId=8EBBDD729C594D63B4147919248FBB9A&assignmentId=8485a6d7-6fbb-42fd-99ad-9a1fb318ff5a&projectId=54f8d589-66fc-4c65-830f-1dcc63bce8cc","","null","<div style=""display: flex; justify-content: center; align-items: center;"">
                    <img src=""images/causal/causal_series_12/causal_series_12_a.jpg"" style=""width: 300px; height: 300px;"" />
                  </div>","null","",""
"","","","","","html-keyboard-response","98","244400","0.0-71.0-1.0","8EBBDD729C594D63B4147919248FBB9A","8EBBDD729C594D63B4147919248FBB9A","8485a6d7-6fbb-42fd-99ad-9a1fb318ff5a","54f8d589-66fc-4c65-830f-1dcc63bce8cc","{""participantId"":""8EBBDD729C594D63B4147919248FBB9A"",""assignmentId"":""8485a6d7-6fbb-42fd-99ad-9a1fb318ff5a"",""projectId"":""54f8d589-66fc-4c65-830f-1dcc63bce8cc""}","https://test12345.live/?participantId=8EBBDD729C594D63B4147919248FBB9A&assignmentId=8485a6d7-6fbb-42fd-99ad-9a1fb318ff5a&projectId=54f8d589-66fc-4c65-830f-1dcc63bce8cc","","null","<div style=""display: flex; justify-content: center; align-items: center;"">
                    <img src=""images/causal/causal_series_12/causal_series_12_b.jpg"" style=""width: 300px; height: 300px;"" />
                  </div>","null","",""
"","","","","","html-keyboard-response","99","247414","0.0-71.0-2.0","8EBBDD729C594D63B4147919248FBB9A","8EBBDD729C594D63B4147919248FBB9A","8485a6d7-6fbb-42fd-99ad-9a1fb318ff5a","54f8d589-66fc-4c65-830f-1dcc63bce8cc","{""participantId"":""8EBBDD729C594D63B4147919248FBB9A"",""assignmentId"":""8485a6d7-6fbb-42fd-99ad-9a1fb318ff5a"",""projectId"":""54f8d589-66fc-4c65-830f-1dcc63bce8cc""}","https://test12345.live/?participantId=8EBBDD729C594D63B4147919248FBB9A&assignmentId=8485a6d7-6fbb-42fd-99ad-9a1fb318ff5a&projectId=54f8d589-66fc-4c65-830f-1dcc63bce8cc","","null","<div style=""display: flex; justify-content: center; align-items: center;"">
                    <img src=""images/causal/causal_series_12/causal_series_12_c.jpg"" style=""width: 300px; height: 300px;"" />
                  </div>","null","",""
"","","","","","html-keyboard-response","100","250428","0.0-71.0-3.0","8EBBDD729C594D63B4147919248FBB9A","8EBBDD729C594D63B4147919248FBB9A","8485a6d7-6fbb-42fd-99ad-9a1fb318ff5a","54f8d589-66fc-4c65-830f-1dcc63bce8cc","{""participantId"":""8EBBDD729C594D63B4147919248FBB9A"",""assignmentId"":""8485a6d7-6fbb-42fd-99ad-9a1fb318ff5a"",""projectId"":""54f8d589-66fc-4c65-830f-1dcc63bce8cc""}","https://test12345.live/?participantId=8EBBDD729C594D63B4147919248FBB9A&assignmentId=8485a6d7-6fbb-42fd-99ad-9a1fb318ff5a&projectId=54f8d589-66fc-4c65-830f-1dcc63bce8cc","","null","<div style=""display: flex; justify-content: center; align-items: center;"">
                    <img src=""images/causal/causal_series_12/causal_series_12_d.jpg"" style=""width: 300px; height: 300px;"" />
                  </div>","null","",""
"","","","","","html-button-response","101","251247","0.0-73.0","8EBBDD729C594D63B4147919248FBB9A","8EBBDD729C594D63B4147919248FBB9A","8485a6d7-6fbb-42fd-99ad-9a1fb318ff5a","54f8d589-66fc-4c65-830f-1dcc63bce8cc","{""participantId"":""8EBBDD729C594D63B4147919248FBB9A"",""assignmentId"":""8485a6d7-6fbb-42fd-99ad-9a1fb318ff5a"",""projectId"":""54f8d589-66fc-4c65-830f-1dcc63bce8cc""}","https://test12345.live/?participantId=8EBBDD729C594D63B4147919248FBB9A&assignmentId=8485a6d7-6fbb-42fd-99ad-9a1fb318ff5a&projectId=54f8d589-66fc-4c65-830f-1dcc63bce8cc","","818","Was there a person in the picture?","1","",""
"","","","","","survey-likert","102","252910","0.0-74.0","8EBBDD729C594D63B4147919248FBB9A","8EBBDD729C594D63B4147919248FBB9A","8485a6d7-6fbb-42fd-99ad-9a1fb318ff5a","54f8d589-66fc-4c65-830f-1dcc63bce8cc","{""participantId"":""8EBBDD729C594D63B4147919248FBB9A"",""assignmentId"":""8485a6d7-6fbb-42fd-99ad-9a1fb318ff5a"",""projectId"":""54f8d589-66fc-4c65-830f-1dcc63bce8cc""}","https://test12345.live/?participantId=8EBBDD729C594D63B4147919248FBB9A&assignmentId=8485a6d7-6fbb-42fd-99ad-9a1fb318ff5a&projectId=54f8d589-66fc-4c65-830f-1dcc63bce8cc","","1662","","{""Q0"":3}","","[0]"
"","","","","","html-button-response","103","253556","0.0-75.0","8EBBDD729C594D63B4147919248FBB9A","8EBBDD729C594D63B4147919248FBB9A","8485a6d7-6fbb-42fd-99ad-9a1fb318ff5a","54f8d589-66fc-4c65-830f-1dcc63bce8cc","{""participantId"":""8EBBDD729C594D63B4147919248FBB9A"",""assignmentId"":""8485a6d7-6fbb-42fd-99ad-9a1fb318ff5a"",""projectId"":""54f8d589-66fc-4c65-830f-1dcc63bce8cc""}","https://test12345.live/?participantId=8EBBDD729C594D63B4147919248FBB9A&assignmentId=8485a6d7-6fbb-42fd-99ad-9a1fb318ff5a&projectId=54f8d589-66fc-4c65-830f-1dcc63bce8cc","","645","
    <div style=""display: flex; justify-content: center; align-items: center;"">
      <img src=""images/red_deck_2.png"" style=""width: 300px; height: 300px; margin-right: 10px;"" />
      <img src=""images/blue_deck_1.png"" style=""width: 300px; height: 300px;"" />
    </div>","1","1",""
"","","","","","html-keyboard-response","104","256571","0.0-77.0-0.0","8EBBDD729C594D63B4147919248FBB9A","8EBBDD729C594D63B4147919248FBB9A","8485a6d7-6fbb-42fd-99ad-9a1fb318ff5a","54f8d589-66fc-4c65-830f-1dcc63bce8cc","{""participantId"":""8EBBDD729C594D63B4147919248FBB9A"",""assignmentId"":""8485a6d7-6fbb-42fd-99ad-9a1fb318ff5a"",""projectId"":""54f8d589-66fc-4c65-830f-1dcc63bce8cc""}","https://test12345.live/?participantId=8EBBDD729C594D63B4147919248FBB9A&assignmentId=8485a6d7-6fbb-42fd-99ad-9a1fb318ff5a&projectId=54f8d589-66fc-4c65-830f-1dcc63bce8cc","","null","<div style=""display: flex; justify-content: center; align-items: center;"">
                    <img src=""images/semantic/semantic_series_6/semantic_series_6_a.jpg"" style=""width: 300px; height: 300px;"" />
                  </div>","null","",""
"","","","","","html-keyboard-response","105","259584","0.0-77.0-1.0","8EBBDD729C594D63B4147919248FBB9A","8EBBDD729C594D63B4147919248FBB9A","8485a6d7-6fbb-42fd-99ad-9a1fb318ff5a","54f8d589-66fc-4c65-830f-1dcc63bce8cc","{""participantId"":""8EBBDD729C594D63B4147919248FBB9A"",""assignmentId"":""8485a6d7-6fbb-42fd-99ad-9a1fb318ff5a"",""projectId"":""54f8d589-66fc-4c65-830f-1dcc63bce8cc""}","https://test12345.live/?participantId=8EBBDD729C594D63B4147919248FBB9A&assignmentId=8485a6d7-6fbb-42fd-99ad-9a1fb318ff5a&projectId=54f8d589-66fc-4c65-830f-1dcc63bce8cc","","null","<div style=""display: flex; justify-content: center; align-items: center;"">
                    <img src=""images/semantic/semantic_series_6/semantic_series_6_b.jpg"" style=""width: 300px; height: 300px;"" />
                  </div>","null","",""
"","","","","","html-keyboard-response","106","262598","0.0-77.0-2.0","8EBBDD729C594D63B4147919248FBB9A","8EBBDD729C594D63B4147919248FBB9A","8485a6d7-6fbb-42fd-99ad-9a1fb318ff5a","54f8d589-66fc-4c65-830f-1dcc63bce8cc","{""participantId"":""8EBBDD729C594D63B4147919248FBB9A"",""assignmentId"":""8485a6d7-6fbb-42fd-99ad-9a1fb318ff5a"",""projectId"":""54f8d589-66fc-4c65-830f-1dcc63bce8cc""}","https://test12345.live/?participantId=8EBBDD729C594D63B4147919248FBB9A&assignmentId=8485a6d7-6fbb-42fd-99ad-9a1fb318ff5a&projectId=54f8d589-66fc-4c65-830f-1dcc63bce8cc","","null","<div style=""display: flex; justify-content: center; align-items: center;"">
                    <img src=""images/semantic/semantic_series_6/semantic_series_6_c.jpg"" style=""width: 300px; height: 300px;"" />
                  </div>","null","",""
"","","","","","html-keyboard-response","107","265599","0.0-77.0-3.0","8EBBDD729C594D63B4147919248FBB9A","8EBBDD729C594D63B4147919248FBB9A","8485a6d7-6fbb-42fd-99ad-9a1fb318ff5a","54f8d589-66fc-4c65-830f-1dcc63bce8cc","{""participantId"":""8EBBDD729C594D63B4147919248FBB9A"",""assignmentId"":""8485a6d7-6fbb-42fd-99ad-9a1fb318ff5a"",""projectId"":""54f8d589-66fc-4c65-830f-1dcc63bce8cc""}","https://test12345.live/?participantId=8EBBDD729C594D63B4147919248FBB9A&assignmentId=8485a6d7-6fbb-42fd-99ad-9a1fb318ff5a&projectId=54f8d589-66fc-4c65-830f-1dcc63bce8cc","","null","<div style=""display: flex; justify-content: center; align-items: center;"">
                    <img src=""images/semantic/semantic_series_6/semantic_series_6_d.jpg"" style=""width: 300px; height: 300px;"" />
                  </div>","null","",""
"","","","","","html-button-response","108","266890","0.0-78.0","8EBBDD729C594D63B4147919248FBB9A","8EBBDD729C594D63B4147919248FBB9A","8485a6d7-6fbb-42fd-99ad-9a1fb318ff5a","54f8d589-66fc-4c65-830f-1dcc63bce8cc","{""participantId"":""8EBBDD729C594D63B4147919248FBB9A"",""assignmentId"":""8485a6d7-6fbb-42fd-99ad-9a1fb318ff5a"",""projectId"":""54f8d589-66fc-4c65-830f-1dcc63bce8cc""}","https://test12345.live/?participantId=8EBBDD729C594D63B4147919248FBB9A&assignmentId=8485a6d7-6fbb-42fd-99ad-9a1fb318ff5a&projectId=54f8d589-66fc-4c65-830f-1dcc63bce8cc","","1291","Was there a person in the picture?","1","",""
"","","","","","survey-likert","109","268398","0.0-79.0","8EBBDD729C594D63B4147919248FBB9A","8EBBDD729C594D63B4147919248FBB9A","8485a6d7-6fbb-42fd-99ad-9a1fb318ff5a","54f8d589-66fc-4c65-830f-1dcc63bce8cc","{""participantId"":""8EBBDD729C594D63B4147919248FBB9A"",""assignmentId"":""8485a6d7-6fbb-42fd-99ad-9a1fb318ff5a"",""projectId"":""54f8d589-66fc-4c65-830f-1dcc63bce8cc""}","https://test12345.live/?participantId=8EBBDD729C594D63B4147919248FBB9A&assignmentId=8485a6d7-6fbb-42fd-99ad-9a1fb318ff5a&projectId=54f8d589-66fc-4c65-830f-1dcc63bce8cc","","1507","","{""Q0"":2}","","[0]"
"","","","","","html-button-response","110","269089","0.0-80.0","8EBBDD729C594D63B4147919248FBB9A","8EBBDD729C594D63B4147919248FBB9A","8485a6d7-6fbb-42fd-99ad-9a1fb318ff5a","54f8d589-66fc-4c65-830f-1dcc63bce8cc","{""participantId"":""8EBBDD729C594D63B4147919248FBB9A"",""assignmentId"":""8485a6d7-6fbb-42fd-99ad-9a1fb318ff5a"",""projectId"":""54f8d589-66fc-4c65-830f-1dcc63bce8cc""}","https://test12345.live/?participantId=8EBBDD729C594D63B4147919248FBB9A&assignmentId=8485a6d7-6fbb-42fd-99ad-9a1fb318ff5a&projectId=54f8d589-66fc-4c65-830f-1dcc63bce8cc","","690","
    <div style=""display: flex; justify-content: center; align-items: center;"">
      <img src=""images/red_deck_2.png"" style=""width: 300px; height: 300px; margin-right: 10px;"" />
      <img src=""images/blue_deck_1.png"" style=""width: 300px; height: 300px;"" />
    </div>","0","0",""
"","","","","","html-keyboard-response","111","272101","0.0-81.0-0.0","8EBBDD729C594D63B4147919248FBB9A","8EBBDD729C594D63B4147919248FBB9A","8485a6d7-6fbb-42fd-99ad-9a1fb318ff5a","54f8d589-66fc-4c65-830f-1dcc63bce8cc","{""participantId"":""8EBBDD729C594D63B4147919248FBB9A"",""assignmentId"":""8485a6d7-6fbb-42fd-99ad-9a1fb318ff5a"",""projectId"":""54f8d589-66fc-4c65-830f-1dcc63bce8cc""}","https://test12345.live/?participantId=8EBBDD729C594D63B4147919248FBB9A&assignmentId=8485a6d7-6fbb-42fd-99ad-9a1fb318ff5a&projectId=54f8d589-66fc-4c65-830f-1dcc63bce8cc","","null","<div style=""display: flex; justify-content: center; align-items: center;"">
                    <img src=""images/causal/causal_series_1/causal_series_1_a.jpg"" style=""width: 300px; height: 300px;"" />
                  </div>","null","",""
"","","","","","html-keyboard-response","112","275114","0.0-81.0-1.0","8EBBDD729C594D63B4147919248FBB9A","8EBBDD729C594D63B4147919248FBB9A","8485a6d7-6fbb-42fd-99ad-9a1fb318ff5a","54f8d589-66fc-4c65-830f-1dcc63bce8cc","{""participantId"":""8EBBDD729C594D63B4147919248FBB9A"",""assignmentId"":""8485a6d7-6fbb-42fd-99ad-9a1fb318ff5a"",""projectId"":""54f8d589-66fc-4c65-830f-1dcc63bce8cc""}","https://test12345.live/?participantId=8EBBDD729C594D63B4147919248FBB9A&assignmentId=8485a6d7-6fbb-42fd-99ad-9a1fb318ff5a&projectId=54f8d589-66fc-4c65-830f-1dcc63bce8cc","","null","<div style=""display: flex; justify-content: center; align-items: center;"">
                    <img src=""images/causal/causal_series_1/causal_series_1_b.jpg"" style=""width: 300px; height: 300px;"" />
                  </div>","null","",""
"","","","","","html-keyboard-response","113","278125","0.0-81.0-2.0","8EBBDD729C594D63B4147919248FBB9A","8EBBDD729C594D63B4147919248FBB9A","8485a6d7-6fbb-42fd-99ad-9a1fb318ff5a","54f8d589-66fc-4c65-830f-1dcc63bce8cc","{""participantId"":""8EBBDD729C594D63B4147919248FBB9A"",""assignmentId"":""8485a6d7-6fbb-42fd-99ad-9a1fb318ff5a"",""projectId"":""54f8d589-66fc-4c65-830f-1dcc63bce8cc""}","https://test12345.live/?participantId=8EBBDD729C594D63B4147919248FBB9A&assignmentId=8485a6d7-6fbb-42fd-99ad-9a1fb318ff5a&projectId=54f8d589-66fc-4c65-830f-1dcc63bce8cc","","null","<div style=""display: flex; justify-content: center; align-items: center;"">
                    <img src=""images/causal/causal_series_1/causal_series_1_c.jpg"" style=""width: 300px; height: 300px;"" />
                  </div>","null","",""
"","","","","","html-keyboard-response","114","281132","0.0-81.0-3.0","8EBBDD729C594D63B4147919248FBB9A","8EBBDD729C594D63B4147919248FBB9A","8485a6d7-6fbb-42fd-99ad-9a1fb318ff5a","54f8d589-66fc-4c65-830f-1dcc63bce8cc","{""participantId"":""8EBBDD729C594D63B4147919248FBB9A"",""assignmentId"":""8485a6d7-6fbb-42fd-99ad-9a1fb318ff5a"",""projectId"":""54f8d589-66fc-4c65-830f-1dcc63bce8cc""}","https://test12345.live/?participantId=8EBBDD729C594D63B4147919248FBB9A&assignmentId=8485a6d7-6fbb-42fd-99ad-9a1fb318ff5a&projectId=54f8d589-66fc-4c65-830f-1dcc63bce8cc","","null","<div style=""display: flex; justify-content: center; align-items: center;"">
                    <img src=""images/causal/causal_series_1/causal_series_1_d.jpg"" style=""width: 300px; height: 300px;"" />
                  </div>","null","",""
"","","","","","html-button-response","115","281844","0.0-83.0","8EBBDD729C594D63B4147919248FBB9A","8EBBDD729C594D63B4147919248FBB9A","8485a6d7-6fbb-42fd-99ad-9a1fb318ff5a","54f8d589-66fc-4c65-830f-1dcc63bce8cc","{""participantId"":""8EBBDD729C594D63B4147919248FBB9A"",""assignmentId"":""8485a6d7-6fbb-42fd-99ad-9a1fb318ff5a"",""projectId"":""54f8d589-66fc-4c65-830f-1dcc63bce8cc""}","https://test12345.live/?participantId=8EBBDD729C594D63B4147919248FBB9A&assignmentId=8485a6d7-6fbb-42fd-99ad-9a1fb318ff5a&projectId=54f8d589-66fc-4c65-830f-1dcc63bce8cc","","712","Was there a person in the picture?","0","",""
"","","","","","survey-likert","116","283057","0.0-84.0","8EBBDD729C594D63B4147919248FBB9A","8EBBDD729C594D63B4147919248FBB9A","8485a6d7-6fbb-42fd-99ad-9a1fb318ff5a","54f8d589-66fc-4c65-830f-1dcc63bce8cc","{""participantId"":""8EBBDD729C594D63B4147919248FBB9A"",""assignmentId"":""8485a6d7-6fbb-42fd-99ad-9a1fb318ff5a"",""projectId"":""54f8d589-66fc-4c65-830f-1dcc63bce8cc""}","https://test12345.live/?participantId=8EBBDD729C594D63B4147919248FBB9A&assignmentId=8485a6d7-6fbb-42fd-99ad-9a1fb318ff5a&projectId=54f8d589-66fc-4c65-830f-1dcc63bce8cc","","1212","","{""Q0"":3}","","[0]"
"","","","","","html-button-response","117","283639","0.0-85.0","8EBBDD729C594D63B4147919248FBB9A","8EBBDD729C594D63B4147919248FBB9A","8485a6d7-6fbb-42fd-99ad-9a1fb318ff5a","54f8d589-66fc-4c65-830f-1dcc63bce8cc","{""participantId"":""8EBBDD729C594D63B4147919248FBB9A"",""assignmentId"":""8485a6d7-6fbb-42fd-99ad-9a1fb318ff5a"",""projectId"":""54f8d589-66fc-4c65-830f-1dcc63bce8cc""}","https://test12345.live/?participantId=8EBBDD729C594D63B4147919248FBB9A&assignmentId=8485a6d7-6fbb-42fd-99ad-9a1fb318ff5a&projectId=54f8d589-66fc-4c65-830f-1dcc63bce8cc","","582","
    <div style=""display: flex; justify-content: center; align-items: center;"">
      <img src=""images/red_deck_2.png"" style=""width: 300px; height: 300px; margin-right: 10px;"" />
      <img src=""images/blue_deck_1.png"" style=""width: 300px; height: 300px;"" />
    </div>","0","0",""
"","","","","","html-keyboard-response","118","286643","0.0-86.0-0.0","8EBBDD729C594D63B4147919248FBB9A","8EBBDD729C594D63B4147919248FBB9A","8485a6d7-6fbb-42fd-99ad-9a1fb318ff5a","54f8d589-66fc-4c65-830f-1dcc63bce8cc","{""participantId"":""8EBBDD729C594D63B4147919248FBB9A"",""assignmentId"":""8485a6d7-6fbb-42fd-99ad-9a1fb318ff5a"",""projectId"":""54f8d589-66fc-4c65-830f-1dcc63bce8cc""}","https://test12345.live/?participantId=8EBBDD729C594D63B4147919248FBB9A&assignmentId=8485a6d7-6fbb-42fd-99ad-9a1fb318ff5a&projectId=54f8d589-66fc-4c65-830f-1dcc63bce8cc","","null","<div style=""display: flex; justify-content: center; align-items: center;"">
                    <img src=""images/causal/causal_series_16/causal_series_16_a.jpg"" style=""width: 300px; height: 300px;"" />
                  </div>","null","",""
"","","","","","html-keyboard-response","119","289655","0.0-86.0-1.0","8EBBDD729C594D63B4147919248FBB9A","8EBBDD729C594D63B4147919248FBB9A","8485a6d7-6fbb-42fd-99ad-9a1fb318ff5a","54f8d589-66fc-4c65-830f-1dcc63bce8cc","{""participantId"":""8EBBDD729C594D63B4147919248FBB9A"",""assignmentId"":""8485a6d7-6fbb-42fd-99ad-9a1fb318ff5a"",""projectId"":""54f8d589-66fc-4c65-830f-1dcc63bce8cc""}","https://test12345.live/?participantId=8EBBDD729C594D63B4147919248FBB9A&assignmentId=8485a6d7-6fbb-42fd-99ad-9a1fb318ff5a&projectId=54f8d589-66fc-4c65-830f-1dcc63bce8cc","","null","<div style=""display: flex; justify-content: center; align-items: center;"">
                    <img src=""images/causal/causal_series_16/causal_series_16_b.jpg"" style=""width: 300px; height: 300px;"" />
                  </div>","null","",""
"","","","","","html-keyboard-response","120","292661","0.0-86.0-2.0","8EBBDD729C594D63B4147919248FBB9A","8EBBDD729C594D63B4147919248FBB9A","8485a6d7-6fbb-42fd-99ad-9a1fb318ff5a","54f8d589-66fc-4c65-830f-1dcc63bce8cc","{""participantId"":""8EBBDD729C594D63B4147919248FBB9A"",""assignmentId"":""8485a6d7-6fbb-42fd-99ad-9a1fb318ff5a"",""projectId"":""54f8d589-66fc-4c65-830f-1dcc63bce8cc""}","https://test12345.live/?participantId=8EBBDD729C594D63B4147919248FBB9A&assignmentId=8485a6d7-6fbb-42fd-99ad-9a1fb318ff5a&projectId=54f8d589-66fc-4c65-830f-1dcc63bce8cc","","null","<div style=""display: flex; justify-content: center; align-items: center;"">
                    <img src=""images/causal/causal_series_16/causal_series_16_c.jpg"" style=""width: 300px; height: 300px;"" />
                  </div>","null","",""
"","","","","","html-keyboard-response","121","295663","0.0-86.0-3.0","8EBBDD729C594D63B4147919248FBB9A","8EBBDD729C594D63B4147919248FBB9A","8485a6d7-6fbb-42fd-99ad-9a1fb318ff5a","54f8d589-66fc-4c65-830f-1dcc63bce8cc","{""participantId"":""8EBBDD729C594D63B4147919248FBB9A"",""assignmentId"":""8485a6d7-6fbb-42fd-99ad-9a1fb318ff5a"",""projectId"":""54f8d589-66fc-4c65-830f-1dcc63bce8cc""}","https://test12345.live/?participantId=8EBBDD729C594D63B4147919248FBB9A&assignmentId=8485a6d7-6fbb-42fd-99ad-9a1fb318ff5a&projectId=54f8d589-66fc-4c65-830f-1dcc63bce8cc","","null","<div style=""display: flex; justify-content: center; align-items: center;"">
                    <img src=""images/causal/causal_series_16/causal_series_16_d.jpg"" style=""width: 300px; height: 300px;"" />
                  </div>","null","",""
"","","","","","html-button-response","122","296118","0.0-88.0","8EBBDD729C594D63B4147919248FBB9A","8EBBDD729C594D63B4147919248FBB9A","8485a6d7-6fbb-42fd-99ad-9a1fb318ff5a","54f8d589-66fc-4c65-830f-1dcc63bce8cc","{""participantId"":""8EBBDD729C594D63B4147919248FBB9A"",""assignmentId"":""8485a6d7-6fbb-42fd-99ad-9a1fb318ff5a"",""projectId"":""54f8d589-66fc-4c65-830f-1dcc63bce8cc""}","https://test12345.live/?participantId=8EBBDD729C594D63B4147919248FBB9A&assignmentId=8485a6d7-6fbb-42fd-99ad-9a1fb318ff5a&projectId=54f8d589-66fc-4c65-830f-1dcc63bce8cc","","455","Was there a person in the picture?","0","",""
"","","","","","survey-likert","123","297934","0.0-89.0","8EBBDD729C594D63B4147919248FBB9A","8EBBDD729C594D63B4147919248FBB9A","8485a6d7-6fbb-42fd-99ad-9a1fb318ff5a","54f8d589-66fc-4c65-830f-1dcc63bce8cc","{""participantId"":""8EBBDD729C594D63B4147919248FBB9A"",""assignmentId"":""8485a6d7-6fbb-42fd-99ad-9a1fb318ff5a"",""projectId"":""54f8d589-66fc-4c65-830f-1dcc63bce8cc""}","https://test12345.live/?participantId=8EBBDD729C594D63B4147919248FBB9A&assignmentId=8485a6d7-6fbb-42fd-99ad-9a1fb318ff5a&projectId=54f8d589-66fc-4c65-830f-1dcc63bce8cc","","1816","","{""Q0"":2}","","[0]"
"","","","","","html-button-response","124","298536","0.0-90.0","8EBBDD729C594D63B4147919248FBB9A","8EBBDD729C594D63B4147919248FBB9A","8485a6d7-6fbb-42fd-99ad-9a1fb318ff5a","54f8d589-66fc-4c65-830f-1dcc63bce8cc","{""participantId"":""8EBBDD729C594D63B4147919248FBB9A"",""assignmentId"":""8485a6d7-6fbb-42fd-99ad-9a1fb318ff5a"",""projectId"":""54f8d589-66fc-4c65-830f-1dcc63bce8cc""}","https://test12345.live/?participantId=8EBBDD729C594D63B4147919248FBB9A&assignmentId=8485a6d7-6fbb-42fd-99ad-9a1fb318ff5a&projectId=54f8d589-66fc-4c65-830f-1dcc63bce8cc","","601","
    <div style=""display: flex; justify-content: center; align-items: center;"">
      <img src=""images/red_deck_2.png"" style=""width: 300px; height: 300px; margin-right: 10px;"" />
      <img src=""images/blue_deck_1.png"" style=""width: 300px; height: 300px;"" />
    </div>","1","1",""
"","","","","","html-keyboard-response","125","301537","0.0-92.0-0.0","8EBBDD729C594D63B4147919248FBB9A","8EBBDD729C594D63B4147919248FBB9A","8485a6d7-6fbb-42fd-99ad-9a1fb318ff5a","54f8d589-66fc-4c65-830f-1dcc63bce8cc","{""participantId"":""8EBBDD729C594D63B4147919248FBB9A"",""assignmentId"":""8485a6d7-6fbb-42fd-99ad-9a1fb318ff5a"",""projectId"":""54f8d589-66fc-4c65-830f-1dcc63bce8cc""}","https://test12345.live/?participantId=8EBBDD729C594D63B4147919248FBB9A&assignmentId=8485a6d7-6fbb-42fd-99ad-9a1fb318ff5a&projectId=54f8d589-66fc-4c65-830f-1dcc63bce8cc","","null","<div style=""display: flex; justify-content: center; align-items: center;"">
                    <img src=""images/semantic/semantic_series_16/semantic_series_16_a.jpg"" style=""width: 300px; height: 300px;"" />
                  </div>","null","",""
"","","","","","html-keyboard-response","126","304550","0.0-92.0-1.0","8EBBDD729C594D63B4147919248FBB9A","8EBBDD729C594D63B4147919248FBB9A","8485a6d7-6fbb-42fd-99ad-9a1fb318ff5a","54f8d589-66fc-4c65-830f-1dcc63bce8cc","{""participantId"":""8EBBDD729C594D63B4147919248FBB9A"",""assignmentId"":""8485a6d7-6fbb-42fd-99ad-9a1fb318ff5a"",""projectId"":""54f8d589-66fc-4c65-830f-1dcc63bce8cc""}","https://test12345.live/?participantId=8EBBDD729C594D63B4147919248FBB9A&assignmentId=8485a6d7-6fbb-42fd-99ad-9a1fb318ff5a&projectId=54f8d589-66fc-4c65-830f-1dcc63bce8cc","","null","<div style=""display: flex; justify-content: center; align-items: center;"">
                    <img src=""images/semantic/semantic_series_16/semantic_series_16_b.jpg"" style=""width: 300px; height: 300px;"" />
                  </div>","null","",""
"","","","","","html-keyboard-response","127","307561","0.0-92.0-2.0","8EBBDD729C594D63B4147919248FBB9A","8EBBDD729C594D63B4147919248FBB9A","8485a6d7-6fbb-42fd-99ad-9a1fb318ff5a","54f8d589-66fc-4c65-830f-1dcc63bce8cc","{""participantId"":""8EBBDD729C594D63B4147919248FBB9A"",""assignmentId"":""8485a6d7-6fbb-42fd-99ad-9a1fb318ff5a"",""projectId"":""54f8d589-66fc-4c65-830f-1dcc63bce8cc""}","https://test12345.live/?participantId=8EBBDD729C594D63B4147919248FBB9A&assignmentId=8485a6d7-6fbb-42fd-99ad-9a1fb318ff5a&projectId=54f8d589-66fc-4c65-830f-1dcc63bce8cc","","null","<div style=""display: flex; justify-content: center; align-items: center;"">
                    <img src=""images/semantic/semantic_series_16/semantic_series_16_c.jpg"" style=""width: 300px; height: 300px;"" />
                  </div>","null","",""
"","","","","","html-keyboard-response","128","310564","0.0-92.0-3.0","8EBBDD729C594D63B4147919248FBB9A","8EBBDD729C594D63B4147919248FBB9A","8485a6d7-6fbb-42fd-99ad-9a1fb318ff5a","54f8d589-66fc-4c65-830f-1dcc63bce8cc","{""participantId"":""8EBBDD729C594D63B4147919248FBB9A"",""assignmentId"":""8485a6d7-6fbb-42fd-99ad-9a1fb318ff5a"",""projectId"":""54f8d589-66fc-4c65-830f-1dcc63bce8cc""}","https://test12345.live/?participantId=8EBBDD729C594D63B4147919248FBB9A&assignmentId=8485a6d7-6fbb-42fd-99ad-9a1fb318ff5a&projectId=54f8d589-66fc-4c65-830f-1dcc63bce8cc","","null","<div style=""display: flex; justify-content: center; align-items: center;"">
                    <img src=""images/semantic/semantic_series_16/semantic_series_16_d.jpg"" style=""width: 300px; height: 300px;"" />
                  </div>","null","",""
"","","","","","html-button-response","129","311087","0.0-93.0","8EBBDD729C594D63B4147919248FBB9A","8EBBDD729C594D63B4147919248FBB9A","8485a6d7-6fbb-42fd-99ad-9a1fb318ff5a","54f8d589-66fc-4c65-830f-1dcc63bce8cc","{""participantId"":""8EBBDD729C594D63B4147919248FBB9A"",""assignmentId"":""8485a6d7-6fbb-42fd-99ad-9a1fb318ff5a"",""projectId"":""54f8d589-66fc-4c65-830f-1dcc63bce8cc""}","https://test12345.live/?participantId=8EBBDD729C594D63B4147919248FBB9A&assignmentId=8485a6d7-6fbb-42fd-99ad-9a1fb318ff5a&projectId=54f8d589-66fc-4c65-830f-1dcc63bce8cc","","522","Was there a person in the picture?","0","",""
"","","","","","survey-likert","130","312074","0.0-94.0","8EBBDD729C594D63B4147919248FBB9A","8EBBDD729C594D63B4147919248FBB9A","8485a6d7-6fbb-42fd-99ad-9a1fb318ff5a","54f8d589-66fc-4c65-830f-1dcc63bce8cc","{""participantId"":""8EBBDD729C594D63B4147919248FBB9A"",""assignmentId"":""8485a6d7-6fbb-42fd-99ad-9a1fb318ff5a"",""projectId"":""54f8d589-66fc-4c65-830f-1dcc63bce8cc""}","https://test12345.live/?participantId=8EBBDD729C594D63B4147919248FBB9A&assignmentId=8485a6d7-6fbb-42fd-99ad-9a1fb318ff5a&projectId=54f8d589-66fc-4c65-830f-1dcc63bce8cc","","987","","{""Q0"":2}","","[0]"
"","","","","","survey-text","131","328426","0.0-95.0","8EBBDD729C594D63B4147919248FBB9A","8EBBDD729C594D63B4147919248FBB9A","8485a6d7-6fbb-42fd-99ad-9a1fb318ff5a","54f8d589-66fc-4c65-830f-1dcc63bce8cc","{""participantId"":""8EBBDD729C594D63B4147919248FBB9A"",""assignmentId"":""8485a6d7-6fbb-42fd-99ad-9a1fb318ff5a"",""projectId"":""54f8d589-66fc-4c65-830f-1dcc63bce8cc""}","https://test12345.live/?participantId=8EBBDD729C594D63B4147919248FBB9A&assignmentId=8485a6d7-6fbb-42fd-99ad-9a1fb318ff5a&projectId=54f8d589-66fc-4c65-830f-1dcc63bce8cc","","16350","","{""Q0"":""One of the deck of cards was red, the other was blue.""}","",""
