"success","timeout","failed_images","failed_audio","failed_video","trial_type","trial_index","time_elapsed","internal_node_id","subject","subject_id","study_id","session_id","urlvar","current_url","view_history","rt","stimulus","response","choice","question_order"
"true","false","[]","[]","[]","preload","0","660","0.0-0.0","8DFA07C880FC4350BCAE8401C5098747","8DFA07C880FC4350BCAE8401C5098747","d6a94f7b-4d76-44bb-b20b-2cb659f9ee9c","e622c465-ee29-4445-8260-1f3431e06587","{""participantId"":""8DFA07C880FC4350BCAE8401C5098747"",""assignmentId"":""d6a94f7b-4d76-44bb-b20b-2cb659f9ee9c"",""projectId"":""e622c465-ee29-4445-8260-1f3431e06587""}","https://test12345.live/?participantId=8DFA07C880FC4350BCAE8401C5098747&assignmentId=d6a94f7b-4d76-44bb-b20b-2cb659f9ee9c&projectId=e622c465-ee29-4445-8260-1f3431e06587","","","","","",""
"","","","","","instructions","1","10087","0.0-1.0","8DFA07C880FC4350BCAE8401C5098747","8DFA07C880FC4350BCAE8401C5098747","d6a94f7b-4d76-44bb-b20b-2cb659f9ee9c","e622c465-ee29-4445-8260-1f3431e06587","{""participantId"":""8DFA07C880FC4350BCAE8401C5098747"",""assignmentId"":""d6a94f7b-4d76-44bb-b20b-2cb659f9ee9c"",""projectId"":""e622c465-ee29-4445-8260-1f3431e06587""}","https://test12345.live/?participantId=8DFA07C880FC4350BCAE8401C5098747&assignmentId=d6a94f7b-4d76-44bb-b20b-2cb659f9ee9c&projectId=e622c465-ee29-4445-8260-1f3431e06587","[{""page_index"":0,""viewing_time"":9427}]","9427","","","",""
"","","","","","instructions","2","24587","0.0-2.0","8DFA07C880FC4350BCAE8401C5098747","8DFA07C880FC4350BCAE8401C5098747","d6a94f7b-4d76-44bb-b20b-2cb659f9ee9c","e622c465-ee29-4445-8260-1f3431e06587","{""participantId"":""8DFA07C880FC4350BCAE8401C5098747"",""assignmentId"":""d6a94f7b-4d76-44bb-b20b-2cb659f9ee9c"",""projectId"":""e622c465-ee29-4445-8260-1f3431e06587""}","https://test12345.live/?participantId=8DFA07C880FC4350BCAE8401C5098747&assignmentId=d6a94f7b-4d76-44bb-b20b-2cb659f9ee9c&projectId=e622c465-ee29-4445-8260-1f3431e06587","[{""page_index"":0,""viewing_time"":14499}]","14499","","","",""
"true","","","","","fullscreen","3","27013","0.0-3.0","8DFA07C880FC4350BCAE8401C5098747","8DFA07C880FC4350BCAE8401C5098747","d6a94f7b-4d76-44bb-b20b-2cb659f9ee9c","e622c465-ee29-4445-8260-1f3431e06587","{""participantId"":""8DFA07C880FC4350BCAE8401C5098747"",""assignmentId"":""d6a94f7b-4d76-44bb-b20b-2cb659f9ee9c"",""projectId"":""e622c465-ee29-4445-8260-1f3431e06587""}","https://test12345.live/?participantId=8DFA07C880FC4350BCAE8401C5098747&assignmentId=d6a94f7b-4d76-44bb-b20b-2cb659f9ee9c&projectId=e622c465-ee29-4445-8260-1f3431e06587","","1415","","","",""
"","","","","","instructions","4","38321","0.0-4.0","8DFA07C880FC4350BCAE8401C5098747","8DFA07C880FC4350BCAE8401C5098747","d6a94f7b-4d76-44bb-b20b-2cb659f9ee9c","e622c465-ee29-4445-8260-1f3431e06587","{""participantId"":""8DFA07C880FC4350BCAE8401C5098747"",""assignmentId"":""d6a94f7b-4d76-44bb-b20b-2cb659f9ee9c"",""projectId"":""e622c465-ee29-4445-8260-1f3431e06587""}","https://test12345.live/?participantId=8DFA07C880FC4350BCAE8401C5098747&assignmentId=d6a94f7b-4d76-44bb-b20b-2cb659f9ee9c&projectId=e622c465-ee29-4445-8260-1f3431e06587","[{""page_index"":0,""viewing_time"":11307}]","11308","","","",""
"","","","","","html-button-response","5","41365","0.0-5.0","8DFA07C880FC4350BCAE8401C5098747","8DFA07C880FC4350BCAE8401C5098747","d6a94f7b-4d76-44bb-b20b-2cb659f9ee9c","e622c465-ee29-4445-8260-1f3431e06587","{""participantId"":""8DFA07C880FC4350BCAE8401C5098747"",""assignmentId"":""d6a94f7b-4d76-44bb-b20b-2cb659f9ee9c"",""projectId"":""e622c465-ee29-4445-8260-1f3431e06587""}","https://test12345.live/?participantId=8DFA07C880FC4350BCAE8401C5098747&assignmentId=d6a94f7b-4d76-44bb-b20b-2cb659f9ee9c&projectId=e622c465-ee29-4445-8260-1f3431e06587","","3043","
    <div style=""display: flex; justify-content: center; align-items: center;"">
      <img src=""images/blue_deck_1.png"" style=""width: 300px; height: 300px; margin-right: 10px;"" />
      <img src=""images/red_deck_2.png"" style=""width: 300px; height: 300px;"" />
    </div>","0","0",""
"","","","","","html-keyboard-response","6","44377","0.0-6.0-0.0","8DFA07C880FC4350BCAE8401C5098747","8DFA07C880FC4350BCAE8401C5098747","d6a94f7b-4d76-44bb-b20b-2cb659f9ee9c","e622c465-ee29-4445-8260-1f3431e06587","{""participantId"":""8DFA07C880FC4350BCAE8401C5098747"",""assignmentId"":""d6a94f7b-4d76-44bb-b20b-2cb659f9ee9c"",""projectId"":""e622c465-ee29-4445-8260-1f3431e06587""}","https://test12345.live/?participantId=8DFA07C880FC4350BCAE8401C5098747&assignmentId=d6a94f7b-4d76-44bb-b20b-2cb659f9ee9c&projectId=e622c465-ee29-4445-8260-1f3431e06587","","null","<div style=""display: flex; justify-content: center; align-items: center;"">
                    <img src=""images/causal/causal_series_15/causal_series_15_a.jpg"" style=""width: 300px; height: 300px;"" />
                  </div>","null","",""
"","","","","","html-keyboard-response","7","47392","0.0-6.0-1.0","8DFA07C880FC4350BCAE8401C5098747","8DFA07C880FC4350BCAE8401C5098747","d6a94f7b-4d76-44bb-b20b-2cb659f9ee9c","e622c465-ee29-4445-8260-1f3431e06587","{""participantId"":""8DFA07C880FC4350BCAE8401C5098747"",""assignmentId"":""d6a94f7b-4d76-44bb-b20b-2cb659f9ee9c"",""projectId"":""e622c465-ee29-4445-8260-1f3431e06587""}","https://test12345.live/?participantId=8DFA07C880FC4350BCAE8401C5098747&assignmentId=d6a94f7b-4d76-44bb-b20b-2cb659f9ee9c&projectId=e622c465-ee29-4445-8260-1f3431e06587","","null","<div style=""display: flex; justify-content: center; align-items: center;"">
                    <img src=""images/causal/causal_series_15/causal_series_15_b.jpg"" style=""width: 300px; height: 300px;"" />
                  </div>","null","",""
"","","","","","html-keyboard-response","8","50394","0.0-6.0-2.0","8DFA07C880FC4350BCAE8401C5098747","8DFA07C880FC4350BCAE8401C5098747","d6a94f7b-4d76-44bb-b20b-2cb659f9ee9c","e622c465-ee29-4445-8260-1f3431e06587","{""participantId"":""8DFA07C880FC4350BCAE8401C5098747"",""assignmentId"":""d6a94f7b-4d76-44bb-b20b-2cb659f9ee9c"",""projectId"":""e622c465-ee29-4445-8260-1f3431e06587""}","https://test12345.live/?participantId=8DFA07C880FC4350BCAE8401C5098747&assignmentId=d6a94f7b-4d76-44bb-b20b-2cb659f9ee9c&projectId=e622c465-ee29-4445-8260-1f3431e06587","","null","<div style=""display: flex; justify-content: center; align-items: center;"">
                    <img src=""images/causal/causal_series_15/causal_series_15_c.jpg"" style=""width: 300px; height: 300px;"" />
                  </div>","null","",""
"","","","","","html-keyboard-response","9","53408","0.0-6.0-3.0","8DFA07C880FC4350BCAE8401C5098747","8DFA07C880FC4350BCAE8401C5098747","d6a94f7b-4d76-44bb-b20b-2cb659f9ee9c","e622c465-ee29-4445-8260-1f3431e06587","{""participantId"":""8DFA07C880FC4350BCAE8401C5098747"",""assignmentId"":""d6a94f7b-4d76-44bb-b20b-2cb659f9ee9c"",""projectId"":""e622c465-ee29-4445-8260-1f3431e06587""}","https://test12345.live/?participantId=8DFA07C880FC4350BCAE8401C5098747&assignmentId=d6a94f7b-4d76-44bb-b20b-2cb659f9ee9c&projectId=e622c465-ee29-4445-8260-1f3431e06587","","null","<div style=""display: flex; justify-content: center; align-items: center;"">
                    <img src=""images/causal/causal_series_15/causal_series_15_d.jpg"" style=""width: 300px; height: 300px;"" />
                  </div>","null","",""
"","","","","","html-button-response","10","55029","0.0-8.0","8DFA07C880FC4350BCAE8401C5098747","8DFA07C880FC4350BCAE8401C5098747","d6a94f7b-4d76-44bb-b20b-2cb659f9ee9c","e622c465-ee29-4445-8260-1f3431e06587","{""participantId"":""8DFA07C880FC4350BCAE8401C5098747"",""assignmentId"":""d6a94f7b-4d76-44bb-b20b-2cb659f9ee9c"",""projectId"":""e622c465-ee29-4445-8260-1f3431e06587""}","https://test12345.live/?participantId=8DFA07C880FC4350BCAE8401C5098747&assignmentId=d6a94f7b-4d76-44bb-b20b-2cb659f9ee9c&projectId=e622c465-ee29-4445-8260-1f3431e06587","","1620","Was there a person in the picture?","0","",""
"","","","","","survey-likert","11","59554","0.0-9.0","8DFA07C880FC4350BCAE8401C5098747","8DFA07C880FC4350BCAE8401C5098747","d6a94f7b-4d76-44bb-b20b-2cb659f9ee9c","e622c465-ee29-4445-8260-1f3431e06587","{""participantId"":""8DFA07C880FC4350BCAE8401C5098747"",""assignmentId"":""d6a94f7b-4d76-44bb-b20b-2cb659f9ee9c"",""projectId"":""e622c465-ee29-4445-8260-1f3431e06587""}","https://test12345.live/?participantId=8DFA07C880FC4350BCAE8401C5098747&assignmentId=d6a94f7b-4d76-44bb-b20b-2cb659f9ee9c&projectId=e622c465-ee29-4445-8260-1f3431e06587","","4523","","{""Q0"":1}","","[0]"
"","","","","","html-button-response","12","61339","0.0-10.0","8DFA07C880FC4350BCAE8401C5098747","8DFA07C880FC4350BCAE8401C5098747","d6a94f7b-4d76-44bb-b20b-2cb659f9ee9c","e622c465-ee29-4445-8260-1f3431e06587","{""participantId"":""8DFA07C880FC4350BCAE8401C5098747"",""assignmentId"":""d6a94f7b-4d76-44bb-b20b-2cb659f9ee9c"",""projectId"":""e622c465-ee29-4445-8260-1f3431e06587""}","https://test12345.live/?participantId=8DFA07C880FC4350BCAE8401C5098747&assignmentId=d6a94f7b-4d76-44bb-b20b-2cb659f9ee9c&projectId=e622c465-ee29-4445-8260-1f3431e06587","","1784","
    <div style=""display: flex; justify-content: center; align-items: center;"">
      <img src=""images/blue_deck_1.png"" style=""width: 300px; height: 300px; margin-right: 10px;"" />
      <img src=""images/red_deck_2.png"" style=""width: 300px; height: 300px;"" />
    </div>","1","1",""
"","","","","","html-keyboard-response","13","64341","0.0-12.0-0.0","8DFA07C880FC4350BCAE8401C5098747","8DFA07C880FC4350BCAE8401C5098747","d6a94f7b-4d76-44bb-b20b-2cb659f9ee9c","e622c465-ee29-4445-8260-1f3431e06587","{""participantId"":""8DFA07C880FC4350BCAE8401C5098747"",""assignmentId"":""d6a94f7b-4d76-44bb-b20b-2cb659f9ee9c"",""projectId"":""e622c465-ee29-4445-8260-1f3431e06587""}","https://test12345.live/?participantId=8DFA07C880FC4350BCAE8401C5098747&assignmentId=d6a94f7b-4d76-44bb-b20b-2cb659f9ee9c&projectId=e622c465-ee29-4445-8260-1f3431e06587","","null","<div style=""display: flex; justify-content: center; align-items: center;"">
                    <img src=""images/semantic/semantic_series_12/semantic_series_12_a.jpg"" style=""width: 300px; height: 300px;"" />
                  </div>","null","",""
"","","","","","html-keyboard-response","14","67343","0.0-12.0-1.0","8DFA07C880FC4350BCAE8401C5098747","8DFA07C880FC4350BCAE8401C5098747","d6a94f7b-4d76-44bb-b20b-2cb659f9ee9c","e622c465-ee29-4445-8260-1f3431e06587","{""participantId"":""8DFA07C880FC4350BCAE8401C5098747"",""assignmentId"":""d6a94f7b-4d76-44bb-b20b-2cb659f9ee9c"",""projectId"":""e622c465-ee29-4445-8260-1f3431e06587""}","https://test12345.live/?participantId=8DFA07C880FC4350BCAE8401C5098747&assignmentId=d6a94f7b-4d76-44bb-b20b-2cb659f9ee9c&projectId=e622c465-ee29-4445-8260-1f3431e06587","","null","<div style=""display: flex; justify-content: center; align-items: center;"">
                    <img src=""images/semantic/semantic_series_12/semantic_series_12_b.jpg"" style=""width: 300px; height: 300px;"" />
                  </div>","null","",""
"","","","","","html-keyboard-response","15","70359","0.0-12.0-2.0","8DFA07C880FC4350BCAE8401C5098747","8DFA07C880FC4350BCAE8401C5098747","d6a94f7b-4d76-44bb-b20b-2cb659f9ee9c","e622c465-ee29-4445-8260-1f3431e06587","{""participantId"":""8DFA07C880FC4350BCAE8401C5098747"",""assignmentId"":""d6a94f7b-4d76-44bb-b20b-2cb659f9ee9c"",""projectId"":""e622c465-ee29-4445-8260-1f3431e06587""}","https://test12345.live/?participantId=8DFA07C880FC4350BCAE8401C5098747&assignmentId=d6a94f7b-4d76-44bb-b20b-2cb659f9ee9c&projectId=e622c465-ee29-4445-8260-1f3431e06587","","null","<div style=""display: flex; justify-content: center; align-items: center;"">
                    <img src=""images/semantic/semantic_series_12/semantic_series_12_c.jpg"" style=""width: 300px; height: 300px;"" />
                  </div>","null","",""
"","","","","","html-keyboard-response","16","73373","0.0-12.0-3.0","8DFA07C880FC4350BCAE8401C5098747","8DFA07C880FC4350BCAE8401C5098747","d6a94f7b-4d76-44bb-b20b-2cb659f9ee9c","e622c465-ee29-4445-8260-1f3431e06587","{""participantId"":""8DFA07C880FC4350BCAE8401C5098747"",""assignmentId"":""d6a94f7b-4d76-44bb-b20b-2cb659f9ee9c"",""projectId"":""e622c465-ee29-4445-8260-1f3431e06587""}","https://test12345.live/?participantId=8DFA07C880FC4350BCAE8401C5098747&assignmentId=d6a94f7b-4d76-44bb-b20b-2cb659f9ee9c&projectId=e622c465-ee29-4445-8260-1f3431e06587","","null","<div style=""display: flex; justify-content: center; align-items: center;"">
                    <img src=""images/semantic/semantic_series_12/semantic_series_12_d.jpg"" style=""width: 300px; height: 300px;"" />
                  </div>","null","",""
"","","","","","html-button-response","17","74636","0.0-13.0","8DFA07C880FC4350BCAE8401C5098747","8DFA07C880FC4350BCAE8401C5098747","d6a94f7b-4d76-44bb-b20b-2cb659f9ee9c","e622c465-ee29-4445-8260-1f3431e06587","{""participantId"":""8DFA07C880FC4350BCAE8401C5098747"",""assignmentId"":""d6a94f7b-4d76-44bb-b20b-2cb659f9ee9c"",""projectId"":""e622c465-ee29-4445-8260-1f3431e06587""}","https://test12345.live/?participantId=8DFA07C880FC4350BCAE8401C5098747&assignmentId=d6a94f7b-4d76-44bb-b20b-2cb659f9ee9c&projectId=e622c465-ee29-4445-8260-1f3431e06587","","1263","Was there a person in the picture?","1","",""
"","","","","","survey-likert","18","77760","0.0-14.0","8DFA07C880FC4350BCAE8401C5098747","8DFA07C880FC4350BCAE8401C5098747","d6a94f7b-4d76-44bb-b20b-2cb659f9ee9c","e622c465-ee29-4445-8260-1f3431e06587","{""participantId"":""8DFA07C880FC4350BCAE8401C5098747"",""assignmentId"":""d6a94f7b-4d76-44bb-b20b-2cb659f9ee9c"",""projectId"":""e622c465-ee29-4445-8260-1f3431e06587""}","https://test12345.live/?participantId=8DFA07C880FC4350BCAE8401C5098747&assignmentId=d6a94f7b-4d76-44bb-b20b-2cb659f9ee9c&projectId=e622c465-ee29-4445-8260-1f3431e06587","","3123","","{""Q0"":2}","","[0]"
"","","","","","html-button-response","19","78755","0.0-15.0","8DFA07C880FC4350BCAE8401C5098747","8DFA07C880FC4350BCAE8401C5098747","d6a94f7b-4d76-44bb-b20b-2cb659f9ee9c","e622c465-ee29-4445-8260-1f3431e06587","{""participantId"":""8DFA07C880FC4350BCAE8401C5098747"",""assignmentId"":""d6a94f7b-4d76-44bb-b20b-2cb659f9ee9c"",""projectId"":""e622c465-ee29-4445-8260-1f3431e06587""}","https://test12345.live/?participantId=8DFA07C880FC4350BCAE8401C5098747&assignmentId=d6a94f7b-4d76-44bb-b20b-2cb659f9ee9c&projectId=e622c465-ee29-4445-8260-1f3431e06587","","995","
    <div style=""display: flex; justify-content: center; align-items: center;"">
      <img src=""images/blue_deck_1.png"" style=""width: 300px; height: 300px; margin-right: 10px;"" />
      <img src=""images/red_deck_2.png"" style=""width: 300px; height: 300px;"" />
    </div>","0","0",""
"","","","","","html-keyboard-response","20","81766","0.0-16.0-0.0","8DFA07C880FC4350BCAE8401C5098747","8DFA07C880FC4350BCAE8401C5098747","d6a94f7b-4d76-44bb-b20b-2cb659f9ee9c","e622c465-ee29-4445-8260-1f3431e06587","{""participantId"":""8DFA07C880FC4350BCAE8401C5098747"",""assignmentId"":""d6a94f7b-4d76-44bb-b20b-2cb659f9ee9c"",""projectId"":""e622c465-ee29-4445-8260-1f3431e06587""}","https://test12345.live/?participantId=8DFA07C880FC4350BCAE8401C5098747&assignmentId=d6a94f7b-4d76-44bb-b20b-2cb659f9ee9c&projectId=e622c465-ee29-4445-8260-1f3431e06587","","null","<div style=""display: flex; justify-content: center; align-items: center;"">
                    <img src=""images/causal/causal_series_8/causal_series_8_a.jpg"" style=""width: 300px; height: 300px;"" />
                  </div>","null","",""
"","","","","","html-keyboard-response","21","84769","0.0-16.0-1.0","8DFA07C880FC4350BCAE8401C5098747","8DFA07C880FC4350BCAE8401C5098747","d6a94f7b-4d76-44bb-b20b-2cb659f9ee9c","e622c465-ee29-4445-8260-1f3431e06587","{""participantId"":""8DFA07C880FC4350BCAE8401C5098747"",""assignmentId"":""d6a94f7b-4d76-44bb-b20b-2cb659f9ee9c"",""projectId"":""e622c465-ee29-4445-8260-1f3431e06587""}","https://test12345.live/?participantId=8DFA07C880FC4350BCAE8401C5098747&assignmentId=d6a94f7b-4d76-44bb-b20b-2cb659f9ee9c&projectId=e622c465-ee29-4445-8260-1f3431e06587","","null","<div style=""display: flex; justify-content: center; align-items: center;"">
                    <img src=""images/causal/causal_series_8/causal_series_8_b.jpg"" style=""width: 300px; height: 300px;"" />
                  </div>","null","",""
"","","","","","html-keyboard-response","22","87781","0.0-16.0-2.0","8DFA07C880FC4350BCAE8401C5098747","8DFA07C880FC4350BCAE8401C5098747","d6a94f7b-4d76-44bb-b20b-2cb659f9ee9c","e622c465-ee29-4445-8260-1f3431e06587","{""participantId"":""8DFA07C880FC4350BCAE8401C5098747"",""assignmentId"":""d6a94f7b-4d76-44bb-b20b-2cb659f9ee9c"",""projectId"":""e622c465-ee29-4445-8260-1f3431e06587""}","https://test12345.live/?participantId=8DFA07C880FC4350BCAE8401C5098747&assignmentId=d6a94f7b-4d76-44bb-b20b-2cb659f9ee9c&projectId=e622c465-ee29-4445-8260-1f3431e06587","","null","<div style=""display: flex; justify-content: center; align-items: center;"">
                    <img src=""images/causal/causal_series_8/causal_series_8_c.jpg"" style=""width: 300px; height: 300px;"" />
                  </div>","null","",""
"","","","","","html-keyboard-response","23","90784","0.0-16.0-3.0","8DFA07C880FC4350BCAE8401C5098747","8DFA07C880FC4350BCAE8401C5098747","d6a94f7b-4d76-44bb-b20b-2cb659f9ee9c","e622c465-ee29-4445-8260-1f3431e06587","{""participantId"":""8DFA07C880FC4350BCAE8401C5098747"",""assignmentId"":""d6a94f7b-4d76-44bb-b20b-2cb659f9ee9c"",""projectId"":""e622c465-ee29-4445-8260-1f3431e06587""}","https://test12345.live/?participantId=8DFA07C880FC4350BCAE8401C5098747&assignmentId=d6a94f7b-4d76-44bb-b20b-2cb659f9ee9c&projectId=e622c465-ee29-4445-8260-1f3431e06587","","null","<div style=""display: flex; justify-content: center; align-items: center;"">
                    <img src=""images/causal/causal_series_8/causal_series_8_d.jpg"" style=""width: 300px; height: 300px;"" />
                  </div>","null","",""
"","","","","","html-button-response","24","92565","0.0-18.0","8DFA07C880FC4350BCAE8401C5098747","8DFA07C880FC4350BCAE8401C5098747","d6a94f7b-4d76-44bb-b20b-2cb659f9ee9c","e622c465-ee29-4445-8260-1f3431e06587","{""participantId"":""8DFA07C880FC4350BCAE8401C5098747"",""assignmentId"":""d6a94f7b-4d76-44bb-b20b-2cb659f9ee9c"",""projectId"":""e622c465-ee29-4445-8260-1f3431e06587""}","https://test12345.live/?participantId=8DFA07C880FC4350BCAE8401C5098747&assignmentId=d6a94f7b-4d76-44bb-b20b-2cb659f9ee9c&projectId=e622c465-ee29-4445-8260-1f3431e06587","","1780","Was there a person in the picture?","1","",""
"","","","","","survey-likert","25","94543","0.0-19.0","8DFA07C880FC4350BCAE8401C5098747","8DFA07C880FC4350BCAE8401C5098747","d6a94f7b-4d76-44bb-b20b-2cb659f9ee9c","e622c465-ee29-4445-8260-1f3431e06587","{""participantId"":""8DFA07C880FC4350BCAE8401C5098747"",""assignmentId"":""d6a94f7b-4d76-44bb-b20b-2cb659f9ee9c"",""projectId"":""e622c465-ee29-4445-8260-1f3431e06587""}","https://test12345.live/?participantId=8DFA07C880FC4350BCAE8401C5098747&assignmentId=d6a94f7b-4d76-44bb-b20b-2cb659f9ee9c&projectId=e622c465-ee29-4445-8260-1f3431e06587","","1977","","{""Q0"":3}","","[0]"
"","","","","","html-button-response","26","96071","0.0-20.0","8DFA07C880FC4350BCAE8401C5098747","8DFA07C880FC4350BCAE8401C5098747","d6a94f7b-4d76-44bb-b20b-2cb659f9ee9c","e622c465-ee29-4445-8260-1f3431e06587","{""participantId"":""8DFA07C880FC4350BCAE8401C5098747"",""assignmentId"":""d6a94f7b-4d76-44bb-b20b-2cb659f9ee9c"",""projectId"":""e622c465-ee29-4445-8260-1f3431e06587""}","https://test12345.live/?participantId=8DFA07C880FC4350BCAE8401C5098747&assignmentId=d6a94f7b-4d76-44bb-b20b-2cb659f9ee9c&projectId=e622c465-ee29-4445-8260-1f3431e06587","","1528","
    <div style=""display: flex; justify-content: center; align-items: center;"">
      <img src=""images/blue_deck_1.png"" style=""width: 300px; height: 300px; margin-right: 10px;"" />
      <img src=""images/red_deck_2.png"" style=""width: 300px; height: 300px;"" />
    </div>","0","0",""
"","","","","","html-keyboard-response","27","99083","0.0-21.0-0.0","8DFA07C880FC4350BCAE8401C5098747","8DFA07C880FC4350BCAE8401C5098747","d6a94f7b-4d76-44bb-b20b-2cb659f9ee9c","e622c465-ee29-4445-8260-1f3431e06587","{""participantId"":""8DFA07C880FC4350BCAE8401C5098747"",""assignmentId"":""d6a94f7b-4d76-44bb-b20b-2cb659f9ee9c"",""projectId"":""e622c465-ee29-4445-8260-1f3431e06587""}","https://test12345.live/?participantId=8DFA07C880FC4350BCAE8401C5098747&assignmentId=d6a94f7b-4d76-44bb-b20b-2cb659f9ee9c&projectId=e622c465-ee29-4445-8260-1f3431e06587","","null","<div style=""display: flex; justify-content: center; align-items: center;"">
                    <img src=""images/causal/causal_series_17/causal_series_17_a.jpg"" style=""width: 300px; height: 300px;"" />
                  </div>","null","",""
"","","","","","html-keyboard-response","28","102098","0.0-21.0-1.0","8DFA07C880FC4350BCAE8401C5098747","8DFA07C880FC4350BCAE8401C5098747","d6a94f7b-4d76-44bb-b20b-2cb659f9ee9c","e622c465-ee29-4445-8260-1f3431e06587","{""participantId"":""8DFA07C880FC4350BCAE8401C5098747"",""assignmentId"":""d6a94f7b-4d76-44bb-b20b-2cb659f9ee9c"",""projectId"":""e622c465-ee29-4445-8260-1f3431e06587""}","https://test12345.live/?participantId=8DFA07C880FC4350BCAE8401C5098747&assignmentId=d6a94f7b-4d76-44bb-b20b-2cb659f9ee9c&projectId=e622c465-ee29-4445-8260-1f3431e06587","","null","<div style=""display: flex; justify-content: center; align-items: center;"">
                    <img src=""images/causal/causal_series_17/causal_series_17_b.jpg"" style=""width: 300px; height: 300px;"" />
                  </div>","null","",""
"","","","","","html-keyboard-response","29","105111","0.0-21.0-2.0","8DFA07C880FC4350BCAE8401C5098747","8DFA07C880FC4350BCAE8401C5098747","d6a94f7b-4d76-44bb-b20b-2cb659f9ee9c","e622c465-ee29-4445-8260-1f3431e06587","{""participantId"":""8DFA07C880FC4350BCAE8401C5098747"",""assignmentId"":""d6a94f7b-4d76-44bb-b20b-2cb659f9ee9c"",""projectId"":""e622c465-ee29-4445-8260-1f3431e06587""}","https://test12345.live/?participantId=8DFA07C880FC4350BCAE8401C5098747&assignmentId=d6a94f7b-4d76-44bb-b20b-2cb659f9ee9c&projectId=e622c465-ee29-4445-8260-1f3431e06587","","null","<div style=""display: flex; justify-content: center; align-items: center;"">
                    <img src=""images/causal/causal_series_17/causal_series_17_c.jpg"" style=""width: 300px; height: 300px;"" />
                  </div>","null","",""
"","","","","","html-keyboard-response","30","108118","0.0-21.0-3.0","8DFA07C880FC4350BCAE8401C5098747","8DFA07C880FC4350BCAE8401C5098747","d6a94f7b-4d76-44bb-b20b-2cb659f9ee9c","e622c465-ee29-4445-8260-1f3431e06587","{""participantId"":""8DFA07C880FC4350BCAE8401C5098747"",""assignmentId"":""d6a94f7b-4d76-44bb-b20b-2cb659f9ee9c"",""projectId"":""e622c465-ee29-4445-8260-1f3431e06587""}","https://test12345.live/?participantId=8DFA07C880FC4350BCAE8401C5098747&assignmentId=d6a94f7b-4d76-44bb-b20b-2cb659f9ee9c&projectId=e622c465-ee29-4445-8260-1f3431e06587","","null","<div style=""display: flex; justify-content: center; align-items: center;"">
                    <img src=""images/causal/causal_series_17/causal_series_17_d.jpg"" style=""width: 300px; height: 300px;"" />
                  </div>","null","",""
"","","","","","html-button-response","31","109663","0.0-23.0","8DFA07C880FC4350BCAE8401C5098747","8DFA07C880FC4350BCAE8401C5098747","d6a94f7b-4d76-44bb-b20b-2cb659f9ee9c","e622c465-ee29-4445-8260-1f3431e06587","{""participantId"":""8DFA07C880FC4350BCAE8401C5098747"",""assignmentId"":""d6a94f7b-4d76-44bb-b20b-2cb659f9ee9c"",""projectId"":""e622c465-ee29-4445-8260-1f3431e06587""}","https://test12345.live/?participantId=8DFA07C880FC4350BCAE8401C5098747&assignmentId=d6a94f7b-4d76-44bb-b20b-2cb659f9ee9c&projectId=e622c465-ee29-4445-8260-1f3431e06587","","1544","Was there a person in the picture?","0","",""
"","","","","","survey-likert","32","112503","0.0-24.0","8DFA07C880FC4350BCAE8401C5098747","8DFA07C880FC4350BCAE8401C5098747","d6a94f7b-4d76-44bb-b20b-2cb659f9ee9c","e622c465-ee29-4445-8260-1f3431e06587","{""participantId"":""8DFA07C880FC4350BCAE8401C5098747"",""assignmentId"":""d6a94f7b-4d76-44bb-b20b-2cb659f9ee9c"",""projectId"":""e622c465-ee29-4445-8260-1f3431e06587""}","https://test12345.live/?participantId=8DFA07C880FC4350BCAE8401C5098747&assignmentId=d6a94f7b-4d76-44bb-b20b-2cb659f9ee9c&projectId=e622c465-ee29-4445-8260-1f3431e06587","","2840","","{""Q0"":2}","","[0]"
"","","","","","html-button-response","33","113318","0.0-25.0","8DFA07C880FC4350BCAE8401C5098747","8DFA07C880FC4350BCAE8401C5098747","d6a94f7b-4d76-44bb-b20b-2cb659f9ee9c","e622c465-ee29-4445-8260-1f3431e06587","{""participantId"":""8DFA07C880FC4350BCAE8401C5098747"",""assignmentId"":""d6a94f7b-4d76-44bb-b20b-2cb659f9ee9c"",""projectId"":""e622c465-ee29-4445-8260-1f3431e06587""}","https://test12345.live/?participantId=8DFA07C880FC4350BCAE8401C5098747&assignmentId=d6a94f7b-4d76-44bb-b20b-2cb659f9ee9c&projectId=e622c465-ee29-4445-8260-1f3431e06587","","814","
    <div style=""display: flex; justify-content: center; align-items: center;"">
      <img src=""images/blue_deck_1.png"" style=""width: 300px; height: 300px; margin-right: 10px;"" />
      <img src=""images/red_deck_2.png"" style=""width: 300px; height: 300px;"" />
    </div>","1","1",""
"","","","","","html-keyboard-response","34","116331","0.0-27.0-0.0","8DFA07C880FC4350BCAE8401C5098747","8DFA07C880FC4350BCAE8401C5098747","d6a94f7b-4d76-44bb-b20b-2cb659f9ee9c","e622c465-ee29-4445-8260-1f3431e06587","{""participantId"":""8DFA07C880FC4350BCAE8401C5098747"",""assignmentId"":""d6a94f7b-4d76-44bb-b20b-2cb659f9ee9c"",""projectId"":""e622c465-ee29-4445-8260-1f3431e06587""}","https://test12345.live/?participantId=8DFA07C880FC4350BCAE8401C5098747&assignmentId=d6a94f7b-4d76-44bb-b20b-2cb659f9ee9c&projectId=e622c465-ee29-4445-8260-1f3431e06587","","null","<div style=""display: flex; justify-content: center; align-items: center;"">
                    <img src=""images/semantic/semantic_series_16/semantic_series_16_a.jpg"" style=""width: 300px; height: 300px;"" />
                  </div>","null","",""
"","","","","","html-keyboard-response","35","119344","0.0-27.0-1.0","8DFA07C880FC4350BCAE8401C5098747","8DFA07C880FC4350BCAE8401C5098747","d6a94f7b-4d76-44bb-b20b-2cb659f9ee9c","e622c465-ee29-4445-8260-1f3431e06587","{""participantId"":""8DFA07C880FC4350BCAE8401C5098747"",""assignmentId"":""d6a94f7b-4d76-44bb-b20b-2cb659f9ee9c"",""projectId"":""e622c465-ee29-4445-8260-1f3431e06587""}","https://test12345.live/?participantId=8DFA07C880FC4350BCAE8401C5098747&assignmentId=d6a94f7b-4d76-44bb-b20b-2cb659f9ee9c&projectId=e622c465-ee29-4445-8260-1f3431e06587","","null","<div style=""display: flex; justify-content: center; align-items: center;"">
                    <img src=""images/semantic/semantic_series_16/semantic_series_16_b.jpg"" style=""width: 300px; height: 300px;"" />
                  </div>","null","",""
"","","","","","html-keyboard-response","36","122360","0.0-27.0-2.0","8DFA07C880FC4350BCAE8401C5098747","8DFA07C880FC4350BCAE8401C5098747","d6a94f7b-4d76-44bb-b20b-2cb659f9ee9c","e622c465-ee29-4445-8260-1f3431e06587","{""participantId"":""8DFA07C880FC4350BCAE8401C5098747"",""assignmentId"":""d6a94f7b-4d76-44bb-b20b-2cb659f9ee9c"",""projectId"":""e622c465-ee29-4445-8260-1f3431e06587""}","https://test12345.live/?participantId=8DFA07C880FC4350BCAE8401C5098747&assignmentId=d6a94f7b-4d76-44bb-b20b-2cb659f9ee9c&projectId=e622c465-ee29-4445-8260-1f3431e06587","","null","<div style=""display: flex; justify-content: center; align-items: center;"">
                    <img src=""images/semantic/semantic_series_16/semantic_series_16_c.jpg"" style=""width: 300px; height: 300px;"" />
                  </div>","null","",""
"","","","","","html-keyboard-response","37","125369","0.0-27.0-3.0","8DFA07C880FC4350BCAE8401C5098747","8DFA07C880FC4350BCAE8401C5098747","d6a94f7b-4d76-44bb-b20b-2cb659f9ee9c","e622c465-ee29-4445-8260-1f3431e06587","{""participantId"":""8DFA07C880FC4350BCAE8401C5098747"",""assignmentId"":""d6a94f7b-4d76-44bb-b20b-2cb659f9ee9c"",""projectId"":""e622c465-ee29-4445-8260-1f3431e06587""}","https://test12345.live/?participantId=8DFA07C880FC4350BCAE8401C5098747&assignmentId=d6a94f7b-4d76-44bb-b20b-2cb659f9ee9c&projectId=e622c465-ee29-4445-8260-1f3431e06587","","null","<div style=""display: flex; justify-content: center; align-items: center;"">
                    <img src=""images/semantic/semantic_series_16/semantic_series_16_d.jpg"" style=""width: 300px; height: 300px;"" />
                  </div>","null","",""
"","","","","","html-button-response","38","126784","0.0-28.0","8DFA07C880FC4350BCAE8401C5098747","8DFA07C880FC4350BCAE8401C5098747","d6a94f7b-4d76-44bb-b20b-2cb659f9ee9c","e622c465-ee29-4445-8260-1f3431e06587","{""participantId"":""8DFA07C880FC4350BCAE8401C5098747"",""assignmentId"":""d6a94f7b-4d76-44bb-b20b-2cb659f9ee9c"",""projectId"":""e622c465-ee29-4445-8260-1f3431e06587""}","https://test12345.live/?participantId=8DFA07C880FC4350BCAE8401C5098747&assignmentId=d6a94f7b-4d76-44bb-b20b-2cb659f9ee9c&projectId=e622c465-ee29-4445-8260-1f3431e06587","","1415","Was there a person in the picture?","0","",""
"","","","","","survey-likert","39","128392","0.0-29.0","8DFA07C880FC4350BCAE8401C5098747","8DFA07C880FC4350BCAE8401C5098747","d6a94f7b-4d76-44bb-b20b-2cb659f9ee9c","e622c465-ee29-4445-8260-1f3431e06587","{""participantId"":""8DFA07C880FC4350BCAE8401C5098747"",""assignmentId"":""d6a94f7b-4d76-44bb-b20b-2cb659f9ee9c"",""projectId"":""e622c465-ee29-4445-8260-1f3431e06587""}","https://test12345.live/?participantId=8DFA07C880FC4350BCAE8401C5098747&assignmentId=d6a94f7b-4d76-44bb-b20b-2cb659f9ee9c&projectId=e622c465-ee29-4445-8260-1f3431e06587","","1607","","{""Q0"":0}","","[0]"
"","","","","","html-button-response","40","129455","0.0-30.0","8DFA07C880FC4350BCAE8401C5098747","8DFA07C880FC4350BCAE8401C5098747","d6a94f7b-4d76-44bb-b20b-2cb659f9ee9c","e622c465-ee29-4445-8260-1f3431e06587","{""participantId"":""8DFA07C880FC4350BCAE8401C5098747"",""assignmentId"":""d6a94f7b-4d76-44bb-b20b-2cb659f9ee9c"",""projectId"":""e622c465-ee29-4445-8260-1f3431e06587""}","https://test12345.live/?participantId=8DFA07C880FC4350BCAE8401C5098747&assignmentId=d6a94f7b-4d76-44bb-b20b-2cb659f9ee9c&projectId=e622c465-ee29-4445-8260-1f3431e06587","","1063","
    <div style=""display: flex; justify-content: center; align-items: center;"">
      <img src=""images/blue_deck_1.png"" style=""width: 300px; height: 300px; margin-right: 10px;"" />
      <img src=""images/red_deck_2.png"" style=""width: 300px; height: 300px;"" />
    </div>","1","1",""
"","","","","","html-keyboard-response","41","132468","0.0-32.0-0.0","8DFA07C880FC4350BCAE8401C5098747","8DFA07C880FC4350BCAE8401C5098747","d6a94f7b-4d76-44bb-b20b-2cb659f9ee9c","e622c465-ee29-4445-8260-1f3431e06587","{""participantId"":""8DFA07C880FC4350BCAE8401C5098747"",""assignmentId"":""d6a94f7b-4d76-44bb-b20b-2cb659f9ee9c"",""projectId"":""e622c465-ee29-4445-8260-1f3431e06587""}","https://test12345.live/?participantId=8DFA07C880FC4350BCAE8401C5098747&assignmentId=d6a94f7b-4d76-44bb-b20b-2cb659f9ee9c&projectId=e622c465-ee29-4445-8260-1f3431e06587","","null","<div style=""display: flex; justify-content: center; align-items: center;"">
                    <img src=""images/semantic/semantic_series_13/semantic_series_13_a.jpg"" style=""width: 300px; height: 300px;"" />
                  </div>","null","",""
"","","","","","html-keyboard-response","42","135469","0.0-32.0-1.0","8DFA07C880FC4350BCAE8401C5098747","8DFA07C880FC4350BCAE8401C5098747","d6a94f7b-4d76-44bb-b20b-2cb659f9ee9c","e622c465-ee29-4445-8260-1f3431e06587","{""participantId"":""8DFA07C880FC4350BCAE8401C5098747"",""assignmentId"":""d6a94f7b-4d76-44bb-b20b-2cb659f9ee9c"",""projectId"":""e622c465-ee29-4445-8260-1f3431e06587""}","https://test12345.live/?participantId=8DFA07C880FC4350BCAE8401C5098747&assignmentId=d6a94f7b-4d76-44bb-b20b-2cb659f9ee9c&projectId=e622c465-ee29-4445-8260-1f3431e06587","","null","<div style=""display: flex; justify-content: center; align-items: center;"">
                    <img src=""images/semantic/semantic_series_13/semantic_series_13_b.jpg"" style=""width: 300px; height: 300px;"" />
                  </div>","null","",""
"","","","","","html-keyboard-response","43","138484","0.0-32.0-2.0","8DFA07C880FC4350BCAE8401C5098747","8DFA07C880FC4350BCAE8401C5098747","d6a94f7b-4d76-44bb-b20b-2cb659f9ee9c","e622c465-ee29-4445-8260-1f3431e06587","{""participantId"":""8DFA07C880FC4350BCAE8401C5098747"",""assignmentId"":""d6a94f7b-4d76-44bb-b20b-2cb659f9ee9c"",""projectId"":""e622c465-ee29-4445-8260-1f3431e06587""}","https://test12345.live/?participantId=8DFA07C880FC4350BCAE8401C5098747&assignmentId=d6a94f7b-4d76-44bb-b20b-2cb659f9ee9c&projectId=e622c465-ee29-4445-8260-1f3431e06587","","null","<div style=""display: flex; justify-content: center; align-items: center;"">
                    <img src=""images/semantic/semantic_series_13/semantic_series_13_c.jpg"" style=""width: 300px; height: 300px;"" />
                  </div>","null","",""
"","","","","","html-keyboard-response","44","141485","0.0-32.0-3.0","8DFA07C880FC4350BCAE8401C5098747","8DFA07C880FC4350BCAE8401C5098747","d6a94f7b-4d76-44bb-b20b-2cb659f9ee9c","e622c465-ee29-4445-8260-1f3431e06587","{""participantId"":""8DFA07C880FC4350BCAE8401C5098747"",""assignmentId"":""d6a94f7b-4d76-44bb-b20b-2cb659f9ee9c"",""projectId"":""e622c465-ee29-4445-8260-1f3431e06587""}","https://test12345.live/?participantId=8DFA07C880FC4350BCAE8401C5098747&assignmentId=d6a94f7b-4d76-44bb-b20b-2cb659f9ee9c&projectId=e622c465-ee29-4445-8260-1f3431e06587","","null","<div style=""display: flex; justify-content: center; align-items: center;"">
                    <img src=""images/semantic/semantic_series_13/semantic_series_13_d.jpg"" style=""width: 300px; height: 300px;"" />
                  </div>","null","",""
"","","","","","html-button-response","45","143233","0.0-33.0","8DFA07C880FC4350BCAE8401C5098747","8DFA07C880FC4350BCAE8401C5098747","d6a94f7b-4d76-44bb-b20b-2cb659f9ee9c","e622c465-ee29-4445-8260-1f3431e06587","{""participantId"":""8DFA07C880FC4350BCAE8401C5098747"",""assignmentId"":""d6a94f7b-4d76-44bb-b20b-2cb659f9ee9c"",""projectId"":""e622c465-ee29-4445-8260-1f3431e06587""}","https://test12345.live/?participantId=8DFA07C880FC4350BCAE8401C5098747&assignmentId=d6a94f7b-4d76-44bb-b20b-2cb659f9ee9c&projectId=e622c465-ee29-4445-8260-1f3431e06587","","1747","Was there a person in the picture?","0","",""
"","","","","","survey-likert","46","145260","0.0-34.0","8DFA07C880FC4350BCAE8401C5098747","8DFA07C880FC4350BCAE8401C5098747","d6a94f7b-4d76-44bb-b20b-2cb659f9ee9c","e622c465-ee29-4445-8260-1f3431e06587","{""participantId"":""8DFA07C880FC4350BCAE8401C5098747"",""assignmentId"":""d6a94f7b-4d76-44bb-b20b-2cb659f9ee9c"",""projectId"":""e622c465-ee29-4445-8260-1f3431e06587""}","https://test12345.live/?participantId=8DFA07C880FC4350BCAE8401C5098747&assignmentId=d6a94f7b-4d76-44bb-b20b-2cb659f9ee9c&projectId=e622c465-ee29-4445-8260-1f3431e06587","","2027","","{""Q0"":0}","","[0]"
"","","","","","html-button-response","47","146290","0.0-35.0","8DFA07C880FC4350BCAE8401C5098747","8DFA07C880FC4350BCAE8401C5098747","d6a94f7b-4d76-44bb-b20b-2cb659f9ee9c","e622c465-ee29-4445-8260-1f3431e06587","{""participantId"":""8DFA07C880FC4350BCAE8401C5098747"",""assignmentId"":""d6a94f7b-4d76-44bb-b20b-2cb659f9ee9c"",""projectId"":""e622c465-ee29-4445-8260-1f3431e06587""}","https://test12345.live/?participantId=8DFA07C880FC4350BCAE8401C5098747&assignmentId=d6a94f7b-4d76-44bb-b20b-2cb659f9ee9c&projectId=e622c465-ee29-4445-8260-1f3431e06587","","1029","
    <div style=""display: flex; justify-content: center; align-items: center;"">
      <img src=""images/blue_deck_1.png"" style=""width: 300px; height: 300px; margin-right: 10px;"" />
      <img src=""images/red_deck_2.png"" style=""width: 300px; height: 300px;"" />
    </div>","0","0",""
"","","","","","html-keyboard-response","48","149296","0.0-36.0-0.0","8DFA07C880FC4350BCAE8401C5098747","8DFA07C880FC4350BCAE8401C5098747","d6a94f7b-4d76-44bb-b20b-2cb659f9ee9c","e622c465-ee29-4445-8260-1f3431e06587","{""participantId"":""8DFA07C880FC4350BCAE8401C5098747"",""assignmentId"":""d6a94f7b-4d76-44bb-b20b-2cb659f9ee9c"",""projectId"":""e622c465-ee29-4445-8260-1f3431e06587""}","https://test12345.live/?participantId=8DFA07C880FC4350BCAE8401C5098747&assignmentId=d6a94f7b-4d76-44bb-b20b-2cb659f9ee9c&projectId=e622c465-ee29-4445-8260-1f3431e06587","","null","<div style=""display: flex; justify-content: center; align-items: center;"">
                    <img src=""images/causal/causal_series_10/causal_series_10_a.jpg"" style=""width: 300px; height: 300px;"" />
                  </div>","null","",""
"","","","","","html-keyboard-response","49","152299","0.0-36.0-1.0","8DFA07C880FC4350BCAE8401C5098747","8DFA07C880FC4350BCAE8401C5098747","d6a94f7b-4d76-44bb-b20b-2cb659f9ee9c","e622c465-ee29-4445-8260-1f3431e06587","{""participantId"":""8DFA07C880FC4350BCAE8401C5098747"",""assignmentId"":""d6a94f7b-4d76-44bb-b20b-2cb659f9ee9c"",""projectId"":""e622c465-ee29-4445-8260-1f3431e06587""}","https://test12345.live/?participantId=8DFA07C880FC4350BCAE8401C5098747&assignmentId=d6a94f7b-4d76-44bb-b20b-2cb659f9ee9c&projectId=e622c465-ee29-4445-8260-1f3431e06587","","null","<div style=""display: flex; justify-content: center; align-items: center;"">
                    <img src=""images/causal/causal_series_10/causal_series_10_b.jpg"" style=""width: 300px; height: 300px;"" />
                  </div>","null","",""
"","","","","","html-keyboard-response","50","155302","0.0-36.0-2.0","8DFA07C880FC4350BCAE8401C5098747","8DFA07C880FC4350BCAE8401C5098747","d6a94f7b-4d76-44bb-b20b-2cb659f9ee9c","e622c465-ee29-4445-8260-1f3431e06587","{""participantId"":""8DFA07C880FC4350BCAE8401C5098747"",""assignmentId"":""d6a94f7b-4d76-44bb-b20b-2cb659f9ee9c"",""projectId"":""e622c465-ee29-4445-8260-1f3431e06587""}","https://test12345.live/?participantId=8DFA07C880FC4350BCAE8401C5098747&assignmentId=d6a94f7b-4d76-44bb-b20b-2cb659f9ee9c&projectId=e622c465-ee29-4445-8260-1f3431e06587","","null","<div style=""display: flex; justify-content: center; align-items: center;"">
                    <img src=""images/causal/causal_series_10/causal_series_10_c.jpg"" style=""width: 300px; height: 300px;"" />
                  </div>","null","",""
"","","","","","html-keyboard-response","51","158314","0.0-36.0-3.0","8DFA07C880FC4350BCAE8401C5098747","8DFA07C880FC4350BCAE8401C5098747","d6a94f7b-4d76-44bb-b20b-2cb659f9ee9c","e622c465-ee29-4445-8260-1f3431e06587","{""participantId"":""8DFA07C880FC4350BCAE8401C5098747"",""assignmentId"":""d6a94f7b-4d76-44bb-b20b-2cb659f9ee9c"",""projectId"":""e622c465-ee29-4445-8260-1f3431e06587""}","https://test12345.live/?participantId=8DFA07C880FC4350BCAE8401C5098747&assignmentId=d6a94f7b-4d76-44bb-b20b-2cb659f9ee9c&projectId=e622c465-ee29-4445-8260-1f3431e06587","","null","<div style=""display: flex; justify-content: center; align-items: center;"">
                    <img src=""images/causal/causal_series_10/causal_series_10_d.jpg"" style=""width: 300px; height: 300px;"" />
                  </div>","null","",""
"","","","","","html-button-response","52","160010","0.0-38.0","8DFA07C880FC4350BCAE8401C5098747","8DFA07C880FC4350BCAE8401C5098747","d6a94f7b-4d76-44bb-b20b-2cb659f9ee9c","e622c465-ee29-4445-8260-1f3431e06587","{""participantId"":""8DFA07C880FC4350BCAE8401C5098747"",""assignmentId"":""d6a94f7b-4d76-44bb-b20b-2cb659f9ee9c"",""projectId"":""e622c465-ee29-4445-8260-1f3431e06587""}","https://test12345.live/?participantId=8DFA07C880FC4350BCAE8401C5098747&assignmentId=d6a94f7b-4d76-44bb-b20b-2cb659f9ee9c&projectId=e622c465-ee29-4445-8260-1f3431e06587","","1695","Was there a person in the picture?","1","",""
"","","","","","survey-likert","53","162569","0.0-39.0","8DFA07C880FC4350BCAE8401C5098747","8DFA07C880FC4350BCAE8401C5098747","d6a94f7b-4d76-44bb-b20b-2cb659f9ee9c","e622c465-ee29-4445-8260-1f3431e06587","{""participantId"":""8DFA07C880FC4350BCAE8401C5098747"",""assignmentId"":""d6a94f7b-4d76-44bb-b20b-2cb659f9ee9c"",""projectId"":""e622c465-ee29-4445-8260-1f3431e06587""}","https://test12345.live/?participantId=8DFA07C880FC4350BCAE8401C5098747&assignmentId=d6a94f7b-4d76-44bb-b20b-2cb659f9ee9c&projectId=e622c465-ee29-4445-8260-1f3431e06587","","2558","","{""Q0"":3}","","[0]"
"","","","","","html-button-response","54","163604","0.0-40.0","8DFA07C880FC4350BCAE8401C5098747","8DFA07C880FC4350BCAE8401C5098747","d6a94f7b-4d76-44bb-b20b-2cb659f9ee9c","e622c465-ee29-4445-8260-1f3431e06587","{""participantId"":""8DFA07C880FC4350BCAE8401C5098747"",""assignmentId"":""d6a94f7b-4d76-44bb-b20b-2cb659f9ee9c"",""projectId"":""e622c465-ee29-4445-8260-1f3431e06587""}","https://test12345.live/?participantId=8DFA07C880FC4350BCAE8401C5098747&assignmentId=d6a94f7b-4d76-44bb-b20b-2cb659f9ee9c&projectId=e622c465-ee29-4445-8260-1f3431e06587","","1034","
    <div style=""display: flex; justify-content: center; align-items: center;"">
      <img src=""images/blue_deck_1.png"" style=""width: 300px; height: 300px; margin-right: 10px;"" />
      <img src=""images/red_deck_2.png"" style=""width: 300px; height: 300px;"" />
    </div>","0","0",""
"","","","","","html-keyboard-response","55","166610","0.0-41.0-0.0","8DFA07C880FC4350BCAE8401C5098747","8DFA07C880FC4350BCAE8401C5098747","d6a94f7b-4d76-44bb-b20b-2cb659f9ee9c","e622c465-ee29-4445-8260-1f3431e06587","{""participantId"":""8DFA07C880FC4350BCAE8401C5098747"",""assignmentId"":""d6a94f7b-4d76-44bb-b20b-2cb659f9ee9c"",""projectId"":""e622c465-ee29-4445-8260-1f3431e06587""}","https://test12345.live/?participantId=8DFA07C880FC4350BCAE8401C5098747&assignmentId=d6a94f7b-4d76-44bb-b20b-2cb659f9ee9c&projectId=e622c465-ee29-4445-8260-1f3431e06587","","null","<div style=""display: flex; justify-content: center; align-items: center;"">
                    <img src=""images/causal/causal_series_4/causal_series_4_a.jpg"" style=""width: 300px; height: 300px;"" />
                  </div>","null","",""
"","","","","","html-keyboard-response","56","169621","0.0-41.0-1.0","8DFA07C880FC4350BCAE8401C5098747","8DFA07C880FC4350BCAE8401C5098747","d6a94f7b-4d76-44bb-b20b-2cb659f9ee9c","e622c465-ee29-4445-8260-1f3431e06587","{""participantId"":""8DFA07C880FC4350BCAE8401C5098747"",""assignmentId"":""d6a94f7b-4d76-44bb-b20b-2cb659f9ee9c"",""projectId"":""e622c465-ee29-4445-8260-1f3431e06587""}","https://test12345.live/?participantId=8DFA07C880FC4350BCAE8401C5098747&assignmentId=d6a94f7b-4d76-44bb-b20b-2cb659f9ee9c&projectId=e622c465-ee29-4445-8260-1f3431e06587","","null","<div style=""display: flex; justify-content: center; align-items: center;"">
                    <img src=""images/causal/causal_series_4/causal_series_4_b.jpg"" style=""width: 300px; height: 300px;"" />
                  </div>","null","",""
"","","","","","html-keyboard-response","57","172623","0.0-41.0-2.0","8DFA07C880FC4350BCAE8401C5098747","8DFA07C880FC4350BCAE8401C5098747","d6a94f7b-4d76-44bb-b20b-2cb659f9ee9c","e622c465-ee29-4445-8260-1f3431e06587","{""participantId"":""8DFA07C880FC4350BCAE8401C5098747"",""assignmentId"":""d6a94f7b-4d76-44bb-b20b-2cb659f9ee9c"",""projectId"":""e622c465-ee29-4445-8260-1f3431e06587""}","https://test12345.live/?participantId=8DFA07C880FC4350BCAE8401C5098747&assignmentId=d6a94f7b-4d76-44bb-b20b-2cb659f9ee9c&projectId=e622c465-ee29-4445-8260-1f3431e06587","","null","<div style=""display: flex; justify-content: center; align-items: center;"">
                    <img src=""images/causal/causal_series_4/causal_series_4_c.jpg"" style=""width: 300px; height: 300px;"" />
                  </div>","null","",""
"","","","","","html-keyboard-response","58","175628","0.0-41.0-3.0","8DFA07C880FC4350BCAE8401C5098747","8DFA07C880FC4350BCAE8401C5098747","d6a94f7b-4d76-44bb-b20b-2cb659f9ee9c","e622c465-ee29-4445-8260-1f3431e06587","{""participantId"":""8DFA07C880FC4350BCAE8401C5098747"",""assignmentId"":""d6a94f7b-4d76-44bb-b20b-2cb659f9ee9c"",""projectId"":""e622c465-ee29-4445-8260-1f3431e06587""}","https://test12345.live/?participantId=8DFA07C880FC4350BCAE8401C5098747&assignmentId=d6a94f7b-4d76-44bb-b20b-2cb659f9ee9c&projectId=e622c465-ee29-4445-8260-1f3431e06587","","null","<div style=""display: flex; justify-content: center; align-items: center;"">
                    <img src=""images/causal/causal_series_4/causal_series_4_d.jpg"" style=""width: 300px; height: 300px;"" />
                  </div>","null","",""
"","","","","","html-button-response","59","177296","0.0-43.0","8DFA07C880FC4350BCAE8401C5098747","8DFA07C880FC4350BCAE8401C5098747","d6a94f7b-4d76-44bb-b20b-2cb659f9ee9c","e622c465-ee29-4445-8260-1f3431e06587","{""participantId"":""8DFA07C880FC4350BCAE8401C5098747"",""assignmentId"":""d6a94f7b-4d76-44bb-b20b-2cb659f9ee9c"",""projectId"":""e622c465-ee29-4445-8260-1f3431e06587""}","https://test12345.live/?participantId=8DFA07C880FC4350BCAE8401C5098747&assignmentId=d6a94f7b-4d76-44bb-b20b-2cb659f9ee9c&projectId=e622c465-ee29-4445-8260-1f3431e06587","","1667","Was there a person in the picture?","1","",""
"","","","","","survey-likert","60","179537","0.0-44.0","8DFA07C880FC4350BCAE8401C5098747","8DFA07C880FC4350BCAE8401C5098747","d6a94f7b-4d76-44bb-b20b-2cb659f9ee9c","e622c465-ee29-4445-8260-1f3431e06587","{""participantId"":""8DFA07C880FC4350BCAE8401C5098747"",""assignmentId"":""d6a94f7b-4d76-44bb-b20b-2cb659f9ee9c"",""projectId"":""e622c465-ee29-4445-8260-1f3431e06587""}","https://test12345.live/?participantId=8DFA07C880FC4350BCAE8401C5098747&assignmentId=d6a94f7b-4d76-44bb-b20b-2cb659f9ee9c&projectId=e622c465-ee29-4445-8260-1f3431e06587","","2242","","{""Q0"":2}","","[0]"
"","","","","","html-button-response","61","180503","0.0-45.0","8DFA07C880FC4350BCAE8401C5098747","8DFA07C880FC4350BCAE8401C5098747","d6a94f7b-4d76-44bb-b20b-2cb659f9ee9c","e622c465-ee29-4445-8260-1f3431e06587","{""participantId"":""8DFA07C880FC4350BCAE8401C5098747"",""assignmentId"":""d6a94f7b-4d76-44bb-b20b-2cb659f9ee9c"",""projectId"":""e622c465-ee29-4445-8260-1f3431e06587""}","https://test12345.live/?participantId=8DFA07C880FC4350BCAE8401C5098747&assignmentId=d6a94f7b-4d76-44bb-b20b-2cb659f9ee9c&projectId=e622c465-ee29-4445-8260-1f3431e06587","","965","
    <div style=""display: flex; justify-content: center; align-items: center;"">
      <img src=""images/blue_deck_1.png"" style=""width: 300px; height: 300px; margin-right: 10px;"" />
      <img src=""images/red_deck_2.png"" style=""width: 300px; height: 300px;"" />
    </div>","0","0",""
"","","","","","html-keyboard-response","62","183515","0.0-46.0-0.0","8DFA07C880FC4350BCAE8401C5098747","8DFA07C880FC4350BCAE8401C5098747","d6a94f7b-4d76-44bb-b20b-2cb659f9ee9c","e622c465-ee29-4445-8260-1f3431e06587","{""participantId"":""8DFA07C880FC4350BCAE8401C5098747"",""assignmentId"":""d6a94f7b-4d76-44bb-b20b-2cb659f9ee9c"",""projectId"":""e622c465-ee29-4445-8260-1f3431e06587""}","https://test12345.live/?participantId=8DFA07C880FC4350BCAE8401C5098747&assignmentId=d6a94f7b-4d76-44bb-b20b-2cb659f9ee9c&projectId=e622c465-ee29-4445-8260-1f3431e06587","","null","<div style=""display: flex; justify-content: center; align-items: center;"">
                    <img src=""images/causal/causal_series_13/causal_series_13_a.jpg"" style=""width: 300px; height: 300px;"" />
                  </div>","null","",""
"","","","","","html-keyboard-response","63","186531","0.0-46.0-1.0","8DFA07C880FC4350BCAE8401C5098747","8DFA07C880FC4350BCAE8401C5098747","d6a94f7b-4d76-44bb-b20b-2cb659f9ee9c","e622c465-ee29-4445-8260-1f3431e06587","{""participantId"":""8DFA07C880FC4350BCAE8401C5098747"",""assignmentId"":""d6a94f7b-4d76-44bb-b20b-2cb659f9ee9c"",""projectId"":""e622c465-ee29-4445-8260-1f3431e06587""}","https://test12345.live/?participantId=8DFA07C880FC4350BCAE8401C5098747&assignmentId=d6a94f7b-4d76-44bb-b20b-2cb659f9ee9c&projectId=e622c465-ee29-4445-8260-1f3431e06587","","null","<div style=""display: flex; justify-content: center; align-items: center;"">
                    <img src=""images/causal/causal_series_13/causal_series_13_b.jpg"" style=""width: 300px; height: 300px;"" />
                  </div>","null","",""
"","","","","","html-keyboard-response","64","189545","0.0-46.0-2.0","8DFA07C880FC4350BCAE8401C5098747","8DFA07C880FC4350BCAE8401C5098747","d6a94f7b-4d76-44bb-b20b-2cb659f9ee9c","e622c465-ee29-4445-8260-1f3431e06587","{""participantId"":""8DFA07C880FC4350BCAE8401C5098747"",""assignmentId"":""d6a94f7b-4d76-44bb-b20b-2cb659f9ee9c"",""projectId"":""e622c465-ee29-4445-8260-1f3431e06587""}","https://test12345.live/?participantId=8DFA07C880FC4350BCAE8401C5098747&assignmentId=d6a94f7b-4d76-44bb-b20b-2cb659f9ee9c&projectId=e622c465-ee29-4445-8260-1f3431e06587","","null","<div style=""display: flex; justify-content: center; align-items: center;"">
                    <img src=""images/causal/causal_series_13/causal_series_13_c.jpg"" style=""width: 300px; height: 300px;"" />
                  </div>","null","",""
"","","","","","html-keyboard-response","65","192549","0.0-46.0-3.0","8DFA07C880FC4350BCAE8401C5098747","8DFA07C880FC4350BCAE8401C5098747","d6a94f7b-4d76-44bb-b20b-2cb659f9ee9c","e622c465-ee29-4445-8260-1f3431e06587","{""participantId"":""8DFA07C880FC4350BCAE8401C5098747"",""assignmentId"":""d6a94f7b-4d76-44bb-b20b-2cb659f9ee9c"",""projectId"":""e622c465-ee29-4445-8260-1f3431e06587""}","https://test12345.live/?participantId=8DFA07C880FC4350BCAE8401C5098747&assignmentId=d6a94f7b-4d76-44bb-b20b-2cb659f9ee9c&projectId=e622c465-ee29-4445-8260-1f3431e06587","","null","<div style=""display: flex; justify-content: center; align-items: center;"">
                    <img src=""images/causal/causal_series_13/causal_series_13_d.jpg"" style=""width: 300px; height: 300px;"" />
                  </div>","null","",""
"","","","","","html-button-response","66","194044","0.0-48.0","8DFA07C880FC4350BCAE8401C5098747","8DFA07C880FC4350BCAE8401C5098747","d6a94f7b-4d76-44bb-b20b-2cb659f9ee9c","e622c465-ee29-4445-8260-1f3431e06587","{""participantId"":""8DFA07C880FC4350BCAE8401C5098747"",""assignmentId"":""d6a94f7b-4d76-44bb-b20b-2cb659f9ee9c"",""projectId"":""e622c465-ee29-4445-8260-1f3431e06587""}","https://test12345.live/?participantId=8DFA07C880FC4350BCAE8401C5098747&assignmentId=d6a94f7b-4d76-44bb-b20b-2cb659f9ee9c&projectId=e622c465-ee29-4445-8260-1f3431e06587","","1494","Was there a person in the picture?","0","",""
"","","","","","survey-likert","67","195680","0.0-49.0","8DFA07C880FC4350BCAE8401C5098747","8DFA07C880FC4350BCAE8401C5098747","d6a94f7b-4d76-44bb-b20b-2cb659f9ee9c","e622c465-ee29-4445-8260-1f3431e06587","{""participantId"":""8DFA07C880FC4350BCAE8401C5098747"",""assignmentId"":""d6a94f7b-4d76-44bb-b20b-2cb659f9ee9c"",""projectId"":""e622c465-ee29-4445-8260-1f3431e06587""}","https://test12345.live/?participantId=8DFA07C880FC4350BCAE8401C5098747&assignmentId=d6a94f7b-4d76-44bb-b20b-2cb659f9ee9c&projectId=e622c465-ee29-4445-8260-1f3431e06587","","1636","","{""Q0"":1}","","[0]"
"","","","","","html-button-response","68","197114","0.0-50.0","8DFA07C880FC4350BCAE8401C5098747","8DFA07C880FC4350BCAE8401C5098747","d6a94f7b-4d76-44bb-b20b-2cb659f9ee9c","e622c465-ee29-4445-8260-1f3431e06587","{""participantId"":""8DFA07C880FC4350BCAE8401C5098747"",""assignmentId"":""d6a94f7b-4d76-44bb-b20b-2cb659f9ee9c"",""projectId"":""e622c465-ee29-4445-8260-1f3431e06587""}","https://test12345.live/?participantId=8DFA07C880FC4350BCAE8401C5098747&assignmentId=d6a94f7b-4d76-44bb-b20b-2cb659f9ee9c&projectId=e622c465-ee29-4445-8260-1f3431e06587","","1433","
    <div style=""display: flex; justify-content: center; align-items: center;"">
      <img src=""images/blue_deck_1.png"" style=""width: 300px; height: 300px; margin-right: 10px;"" />
      <img src=""images/red_deck_2.png"" style=""width: 300px; height: 300px;"" />
    </div>","1","1",""
"","","","","","html-keyboard-response","69","200129","0.0-52.0-0.0","8DFA07C880FC4350BCAE8401C5098747","8DFA07C880FC4350BCAE8401C5098747","d6a94f7b-4d76-44bb-b20b-2cb659f9ee9c","e622c465-ee29-4445-8260-1f3431e06587","{""participantId"":""8DFA07C880FC4350BCAE8401C5098747"",""assignmentId"":""d6a94f7b-4d76-44bb-b20b-2cb659f9ee9c"",""projectId"":""e622c465-ee29-4445-8260-1f3431e06587""}","https://test12345.live/?participantId=8DFA07C880FC4350BCAE8401C5098747&assignmentId=d6a94f7b-4d76-44bb-b20b-2cb659f9ee9c&projectId=e622c465-ee29-4445-8260-1f3431e06587","","null","<div style=""display: flex; justify-content: center; align-items: center;"">
                    <img src=""images/semantic/semantic_series_6/semantic_series_6_a.jpg"" style=""width: 300px; height: 300px;"" />
                  </div>","null","",""
"","","","","","html-keyboard-response","70","203140","0.0-52.0-1.0","8DFA07C880FC4350BCAE8401C5098747","8DFA07C880FC4350BCAE8401C5098747","d6a94f7b-4d76-44bb-b20b-2cb659f9ee9c","e622c465-ee29-4445-8260-1f3431e06587","{""participantId"":""8DFA07C880FC4350BCAE8401C5098747"",""assignmentId"":""d6a94f7b-4d76-44bb-b20b-2cb659f9ee9c"",""projectId"":""e622c465-ee29-4445-8260-1f3431e06587""}","https://test12345.live/?participantId=8DFA07C880FC4350BCAE8401C5098747&assignmentId=d6a94f7b-4d76-44bb-b20b-2cb659f9ee9c&projectId=e622c465-ee29-4445-8260-1f3431e06587","","null","<div style=""display: flex; justify-content: center; align-items: center;"">
                    <img src=""images/semantic/semantic_series_6/semantic_series_6_b.jpg"" style=""width: 300px; height: 300px;"" />
                  </div>","null","",""
"","","","","","html-keyboard-response","71","206141","0.0-52.0-2.0","8DFA07C880FC4350BCAE8401C5098747","8DFA07C880FC4350BCAE8401C5098747","d6a94f7b-4d76-44bb-b20b-2cb659f9ee9c","e622c465-ee29-4445-8260-1f3431e06587","{""participantId"":""8DFA07C880FC4350BCAE8401C5098747"",""assignmentId"":""d6a94f7b-4d76-44bb-b20b-2cb659f9ee9c"",""projectId"":""e622c465-ee29-4445-8260-1f3431e06587""}","https://test12345.live/?participantId=8DFA07C880FC4350BCAE8401C5098747&assignmentId=d6a94f7b-4d76-44bb-b20b-2cb659f9ee9c&projectId=e622c465-ee29-4445-8260-1f3431e06587","","null","<div style=""display: flex; justify-content: center; align-items: center;"">
                    <img src=""images/semantic/semantic_series_6/semantic_series_6_c.jpg"" style=""width: 300px; height: 300px;"" />
                  </div>","null","",""
"","","","","","html-keyboard-response","72","209156","0.0-52.0-3.0","8DFA07C880FC4350BCAE8401C5098747","8DFA07C880FC4350BCAE8401C5098747","d6a94f7b-4d76-44bb-b20b-2cb659f9ee9c","e622c465-ee29-4445-8260-1f3431e06587","{""participantId"":""8DFA07C880FC4350BCAE8401C5098747"",""assignmentId"":""d6a94f7b-4d76-44bb-b20b-2cb659f9ee9c"",""projectId"":""e622c465-ee29-4445-8260-1f3431e06587""}","https://test12345.live/?participantId=8DFA07C880FC4350BCAE8401C5098747&assignmentId=d6a94f7b-4d76-44bb-b20b-2cb659f9ee9c&projectId=e622c465-ee29-4445-8260-1f3431e06587","","null","<div style=""display: flex; justify-content: center; align-items: center;"">
                    <img src=""images/semantic/semantic_series_6/semantic_series_6_d.jpg"" style=""width: 300px; height: 300px;"" />
                  </div>","null","",""
"","","","","","html-button-response","73","210801","0.0-53.0","8DFA07C880FC4350BCAE8401C5098747","8DFA07C880FC4350BCAE8401C5098747","d6a94f7b-4d76-44bb-b20b-2cb659f9ee9c","e622c465-ee29-4445-8260-1f3431e06587","{""participantId"":""8DFA07C880FC4350BCAE8401C5098747"",""assignmentId"":""d6a94f7b-4d76-44bb-b20b-2cb659f9ee9c"",""projectId"":""e622c465-ee29-4445-8260-1f3431e06587""}","https://test12345.live/?participantId=8DFA07C880FC4350BCAE8401C5098747&assignmentId=d6a94f7b-4d76-44bb-b20b-2cb659f9ee9c&projectId=e622c465-ee29-4445-8260-1f3431e06587","","1644","Was there a person in the picture?","1","",""
"","","","","","survey-likert","74","212499","0.0-54.0","8DFA07C880FC4350BCAE8401C5098747","8DFA07C880FC4350BCAE8401C5098747","d6a94f7b-4d76-44bb-b20b-2cb659f9ee9c","e622c465-ee29-4445-8260-1f3431e06587","{""participantId"":""8DFA07C880FC4350BCAE8401C5098747"",""assignmentId"":""d6a94f7b-4d76-44bb-b20b-2cb659f9ee9c"",""projectId"":""e622c465-ee29-4445-8260-1f3431e06587""}","https://test12345.live/?participantId=8DFA07C880FC4350BCAE8401C5098747&assignmentId=d6a94f7b-4d76-44bb-b20b-2cb659f9ee9c&projectId=e622c465-ee29-4445-8260-1f3431e06587","","1697","","{""Q0"":2}","","[0]"
"","","","","","html-button-response","75","213447","0.0-55.0","8DFA07C880FC4350BCAE8401C5098747","8DFA07C880FC4350BCAE8401C5098747","d6a94f7b-4d76-44bb-b20b-2cb659f9ee9c","e622c465-ee29-4445-8260-1f3431e06587","{""participantId"":""8DFA07C880FC4350BCAE8401C5098747"",""assignmentId"":""d6a94f7b-4d76-44bb-b20b-2cb659f9ee9c"",""projectId"":""e622c465-ee29-4445-8260-1f3431e06587""}","https://test12345.live/?participantId=8DFA07C880FC4350BCAE8401C5098747&assignmentId=d6a94f7b-4d76-44bb-b20b-2cb659f9ee9c&projectId=e622c465-ee29-4445-8260-1f3431e06587","","948","
    <div style=""display: flex; justify-content: center; align-items: center;"">
      <img src=""images/blue_deck_1.png"" style=""width: 300px; height: 300px; margin-right: 10px;"" />
      <img src=""images/red_deck_2.png"" style=""width: 300px; height: 300px;"" />
    </div>","1","1",""
"","","","","","html-keyboard-response","76","216454","0.0-57.0-0.0","8DFA07C880FC4350BCAE8401C5098747","8DFA07C880FC4350BCAE8401C5098747","d6a94f7b-4d76-44bb-b20b-2cb659f9ee9c","e622c465-ee29-4445-8260-1f3431e06587","{""participantId"":""8DFA07C880FC4350BCAE8401C5098747"",""assignmentId"":""d6a94f7b-4d76-44bb-b20b-2cb659f9ee9c"",""projectId"":""e622c465-ee29-4445-8260-1f3431e06587""}","https://test12345.live/?participantId=8DFA07C880FC4350BCAE8401C5098747&assignmentId=d6a94f7b-4d76-44bb-b20b-2cb659f9ee9c&projectId=e622c465-ee29-4445-8260-1f3431e06587","","null","<div style=""display: flex; justify-content: center; align-items: center;"">
                    <img src=""images/semantic/semantic_series_2/semantic_series_2_a.jpg"" style=""width: 300px; height: 300px;"" />
                  </div>","null","",""
"","","","","","html-keyboard-response","77","219455","0.0-57.0-1.0","8DFA07C880FC4350BCAE8401C5098747","8DFA07C880FC4350BCAE8401C5098747","d6a94f7b-4d76-44bb-b20b-2cb659f9ee9c","e622c465-ee29-4445-8260-1f3431e06587","{""participantId"":""8DFA07C880FC4350BCAE8401C5098747"",""assignmentId"":""d6a94f7b-4d76-44bb-b20b-2cb659f9ee9c"",""projectId"":""e622c465-ee29-4445-8260-1f3431e06587""}","https://test12345.live/?participantId=8DFA07C880FC4350BCAE8401C5098747&assignmentId=d6a94f7b-4d76-44bb-b20b-2cb659f9ee9c&projectId=e622c465-ee29-4445-8260-1f3431e06587","","null","<div style=""display: flex; justify-content: center; align-items: center;"">
                    <img src=""images/semantic/semantic_series_2/semantic_series_2_b.jpg"" style=""width: 300px; height: 300px;"" />
                  </div>","null","",""
"","","","","","html-keyboard-response","78","222468","0.0-57.0-2.0","8DFA07C880FC4350BCAE8401C5098747","8DFA07C880FC4350BCAE8401C5098747","d6a94f7b-4d76-44bb-b20b-2cb659f9ee9c","e622c465-ee29-4445-8260-1f3431e06587","{""participantId"":""8DFA07C880FC4350BCAE8401C5098747"",""assignmentId"":""d6a94f7b-4d76-44bb-b20b-2cb659f9ee9c"",""projectId"":""e622c465-ee29-4445-8260-1f3431e06587""}","https://test12345.live/?participantId=8DFA07C880FC4350BCAE8401C5098747&assignmentId=d6a94f7b-4d76-44bb-b20b-2cb659f9ee9c&projectId=e622c465-ee29-4445-8260-1f3431e06587","","null","<div style=""display: flex; justify-content: center; align-items: center;"">
                    <img src=""images/semantic/semantic_series_2/semantic_series_2_c.jpg"" style=""width: 300px; height: 300px;"" />
                  </div>","null","",""
"","","","","","html-keyboard-response","79","225481","0.0-57.0-3.0","8DFA07C880FC4350BCAE8401C5098747","8DFA07C880FC4350BCAE8401C5098747","d6a94f7b-4d76-44bb-b20b-2cb659f9ee9c","e622c465-ee29-4445-8260-1f3431e06587","{""participantId"":""8DFA07C880FC4350BCAE8401C5098747"",""assignmentId"":""d6a94f7b-4d76-44bb-b20b-2cb659f9ee9c"",""projectId"":""e622c465-ee29-4445-8260-1f3431e06587""}","https://test12345.live/?participantId=8DFA07C880FC4350BCAE8401C5098747&assignmentId=d6a94f7b-4d76-44bb-b20b-2cb659f9ee9c&projectId=e622c465-ee29-4445-8260-1f3431e06587","","null","<div style=""display: flex; justify-content: center; align-items: center;"">
                    <img src=""images/semantic/semantic_series_2/semantic_series_2_d.jpg"" style=""width: 300px; height: 300px;"" />
                  </div>","null","",""
"","","","","","html-button-response","80","227126","0.0-58.0","8DFA07C880FC4350BCAE8401C5098747","8DFA07C880FC4350BCAE8401C5098747","d6a94f7b-4d76-44bb-b20b-2cb659f9ee9c","e622c465-ee29-4445-8260-1f3431e06587","{""participantId"":""8DFA07C880FC4350BCAE8401C5098747"",""assignmentId"":""d6a94f7b-4d76-44bb-b20b-2cb659f9ee9c"",""projectId"":""e622c465-ee29-4445-8260-1f3431e06587""}","https://test12345.live/?participantId=8DFA07C880FC4350BCAE8401C5098747&assignmentId=d6a94f7b-4d76-44bb-b20b-2cb659f9ee9c&projectId=e622c465-ee29-4445-8260-1f3431e06587","","1644","Was there a person in the picture?","0","",""
"","","","","","survey-likert","81","228871","0.0-59.0","8DFA07C880FC4350BCAE8401C5098747","8DFA07C880FC4350BCAE8401C5098747","d6a94f7b-4d76-44bb-b20b-2cb659f9ee9c","e622c465-ee29-4445-8260-1f3431e06587","{""participantId"":""8DFA07C880FC4350BCAE8401C5098747"",""assignmentId"":""d6a94f7b-4d76-44bb-b20b-2cb659f9ee9c"",""projectId"":""e622c465-ee29-4445-8260-1f3431e06587""}","https://test12345.live/?participantId=8DFA07C880FC4350BCAE8401C5098747&assignmentId=d6a94f7b-4d76-44bb-b20b-2cb659f9ee9c&projectId=e622c465-ee29-4445-8260-1f3431e06587","","1744","","{""Q0"":0}","","[0]"
"","","","","","html-button-response","82","229792","0.0-60.0","8DFA07C880FC4350BCAE8401C5098747","8DFA07C880FC4350BCAE8401C5098747","d6a94f7b-4d76-44bb-b20b-2cb659f9ee9c","e622c465-ee29-4445-8260-1f3431e06587","{""participantId"":""8DFA07C880FC4350BCAE8401C5098747"",""assignmentId"":""d6a94f7b-4d76-44bb-b20b-2cb659f9ee9c"",""projectId"":""e622c465-ee29-4445-8260-1f3431e06587""}","https://test12345.live/?participantId=8DFA07C880FC4350BCAE8401C5098747&assignmentId=d6a94f7b-4d76-44bb-b20b-2cb659f9ee9c&projectId=e622c465-ee29-4445-8260-1f3431e06587","","920","
    <div style=""display: flex; justify-content: center; align-items: center;"">
      <img src=""images/blue_deck_1.png"" style=""width: 300px; height: 300px; margin-right: 10px;"" />
      <img src=""images/red_deck_2.png"" style=""width: 300px; height: 300px;"" />
    </div>","0","0",""
"","","","","","html-keyboard-response","83","232795","0.0-61.0-0.0","8DFA07C880FC4350BCAE8401C5098747","8DFA07C880FC4350BCAE8401C5098747","d6a94f7b-4d76-44bb-b20b-2cb659f9ee9c","e622c465-ee29-4445-8260-1f3431e06587","{""participantId"":""8DFA07C880FC4350BCAE8401C5098747"",""assignmentId"":""d6a94f7b-4d76-44bb-b20b-2cb659f9ee9c"",""projectId"":""e622c465-ee29-4445-8260-1f3431e06587""}","https://test12345.live/?participantId=8DFA07C880FC4350BCAE8401C5098747&assignmentId=d6a94f7b-4d76-44bb-b20b-2cb659f9ee9c&projectId=e622c465-ee29-4445-8260-1f3431e06587","","null","<div style=""display: flex; justify-content: center; align-items: center;"">
                    <img src=""images/causal/causal_series_12/causal_series_12_a.jpg"" style=""width: 300px; height: 300px;"" />
                  </div>","null","",""
"","","","","","html-keyboard-response","84","235797","0.0-61.0-1.0","8DFA07C880FC4350BCAE8401C5098747","8DFA07C880FC4350BCAE8401C5098747","d6a94f7b-4d76-44bb-b20b-2cb659f9ee9c","e622c465-ee29-4445-8260-1f3431e06587","{""participantId"":""8DFA07C880FC4350BCAE8401C5098747"",""assignmentId"":""d6a94f7b-4d76-44bb-b20b-2cb659f9ee9c"",""projectId"":""e622c465-ee29-4445-8260-1f3431e06587""}","https://test12345.live/?participantId=8DFA07C880FC4350BCAE8401C5098747&assignmentId=d6a94f7b-4d76-44bb-b20b-2cb659f9ee9c&projectId=e622c465-ee29-4445-8260-1f3431e06587","","null","<div style=""display: flex; justify-content: center; align-items: center;"">
                    <img src=""images/causal/causal_series_12/causal_series_12_b.jpg"" style=""width: 300px; height: 300px;"" />
                  </div>","null","",""
"","","","","","html-keyboard-response","85","238798","0.0-61.0-2.0","8DFA07C880FC4350BCAE8401C5098747","8DFA07C880FC4350BCAE8401C5098747","d6a94f7b-4d76-44bb-b20b-2cb659f9ee9c","e622c465-ee29-4445-8260-1f3431e06587","{""participantId"":""8DFA07C880FC4350BCAE8401C5098747"",""assignmentId"":""d6a94f7b-4d76-44bb-b20b-2cb659f9ee9c"",""projectId"":""e622c465-ee29-4445-8260-1f3431e06587""}","https://test12345.live/?participantId=8DFA07C880FC4350BCAE8401C5098747&assignmentId=d6a94f7b-4d76-44bb-b20b-2cb659f9ee9c&projectId=e622c465-ee29-4445-8260-1f3431e06587","","null","<div style=""display: flex; justify-content: center; align-items: center;"">
                    <img src=""images/causal/causal_series_12/causal_series_12_c.jpg"" style=""width: 300px; height: 300px;"" />
                  </div>","null","",""
"","","","","","html-keyboard-response","86","241799","0.0-61.0-3.0","8DFA07C880FC4350BCAE8401C5098747","8DFA07C880FC4350BCAE8401C5098747","d6a94f7b-4d76-44bb-b20b-2cb659f9ee9c","e622c465-ee29-4445-8260-1f3431e06587","{""participantId"":""8DFA07C880FC4350BCAE8401C5098747"",""assignmentId"":""d6a94f7b-4d76-44bb-b20b-2cb659f9ee9c"",""projectId"":""e622c465-ee29-4445-8260-1f3431e06587""}","https://test12345.live/?participantId=8DFA07C880FC4350BCAE8401C5098747&assignmentId=d6a94f7b-4d76-44bb-b20b-2cb659f9ee9c&projectId=e622c465-ee29-4445-8260-1f3431e06587","","null","<div style=""display: flex; justify-content: center; align-items: center;"">
                    <img src=""images/causal/causal_series_12/causal_series_12_d.jpg"" style=""width: 300px; height: 300px;"" />
                  </div>","null","",""
"","","","","","html-button-response","87","243419","0.0-63.0","8DFA07C880FC4350BCAE8401C5098747","8DFA07C880FC4350BCAE8401C5098747","d6a94f7b-4d76-44bb-b20b-2cb659f9ee9c","e622c465-ee29-4445-8260-1f3431e06587","{""participantId"":""8DFA07C880FC4350BCAE8401C5098747"",""assignmentId"":""d6a94f7b-4d76-44bb-b20b-2cb659f9ee9c"",""projectId"":""e622c465-ee29-4445-8260-1f3431e06587""}","https://test12345.live/?participantId=8DFA07C880FC4350BCAE8401C5098747&assignmentId=d6a94f7b-4d76-44bb-b20b-2cb659f9ee9c&projectId=e622c465-ee29-4445-8260-1f3431e06587","","1619","Was there a person in the picture?","1","",""
"","","","","","survey-likert","88","245596","0.0-64.0","8DFA07C880FC4350BCAE8401C5098747","8DFA07C880FC4350BCAE8401C5098747","d6a94f7b-4d76-44bb-b20b-2cb659f9ee9c","e622c465-ee29-4445-8260-1f3431e06587","{""participantId"":""8DFA07C880FC4350BCAE8401C5098747"",""assignmentId"":""d6a94f7b-4d76-44bb-b20b-2cb659f9ee9c"",""projectId"":""e622c465-ee29-4445-8260-1f3431e06587""}","https://test12345.live/?participantId=8DFA07C880FC4350BCAE8401C5098747&assignmentId=d6a94f7b-4d76-44bb-b20b-2cb659f9ee9c&projectId=e622c465-ee29-4445-8260-1f3431e06587","","2176","","{""Q0"":4}","","[0]"
"","","","","","html-button-response","89","246489","0.0-65.0","8DFA07C880FC4350BCAE8401C5098747","8DFA07C880FC4350BCAE8401C5098747","d6a94f7b-4d76-44bb-b20b-2cb659f9ee9c","e622c465-ee29-4445-8260-1f3431e06587","{""participantId"":""8DFA07C880FC4350BCAE8401C5098747"",""assignmentId"":""d6a94f7b-4d76-44bb-b20b-2cb659f9ee9c"",""projectId"":""e622c465-ee29-4445-8260-1f3431e06587""}","https://test12345.live/?participantId=8DFA07C880FC4350BCAE8401C5098747&assignmentId=d6a94f7b-4d76-44bb-b20b-2cb659f9ee9c&projectId=e622c465-ee29-4445-8260-1f3431e06587","","893","
    <div style=""display: flex; justify-content: center; align-items: center;"">
      <img src=""images/blue_deck_1.png"" style=""width: 300px; height: 300px; margin-right: 10px;"" />
      <img src=""images/red_deck_2.png"" style=""width: 300px; height: 300px;"" />
    </div>","0","0",""
"","","","","","html-keyboard-response","90","249499","0.0-66.0-0.0","8DFA07C880FC4350BCAE8401C5098747","8DFA07C880FC4350BCAE8401C5098747","d6a94f7b-4d76-44bb-b20b-2cb659f9ee9c","e622c465-ee29-4445-8260-1f3431e06587","{""participantId"":""8DFA07C880FC4350BCAE8401C5098747"",""assignmentId"":""d6a94f7b-4d76-44bb-b20b-2cb659f9ee9c"",""projectId"":""e622c465-ee29-4445-8260-1f3431e06587""}","https://test12345.live/?participantId=8DFA07C880FC4350BCAE8401C5098747&assignmentId=d6a94f7b-4d76-44bb-b20b-2cb659f9ee9c&projectId=e622c465-ee29-4445-8260-1f3431e06587","","null","<div style=""display: flex; justify-content: center; align-items: center;"">
                    <img src=""images/causal/causal_series_1/causal_series_1_a.jpg"" style=""width: 300px; height: 300px;"" />
                  </div>","null","",""
"","","","","","html-keyboard-response","91","252503","0.0-66.0-1.0","8DFA07C880FC4350BCAE8401C5098747","8DFA07C880FC4350BCAE8401C5098747","d6a94f7b-4d76-44bb-b20b-2cb659f9ee9c","e622c465-ee29-4445-8260-1f3431e06587","{""participantId"":""8DFA07C880FC4350BCAE8401C5098747"",""assignmentId"":""d6a94f7b-4d76-44bb-b20b-2cb659f9ee9c"",""projectId"":""e622c465-ee29-4445-8260-1f3431e06587""}","https://test12345.live/?participantId=8DFA07C880FC4350BCAE8401C5098747&assignmentId=d6a94f7b-4d76-44bb-b20b-2cb659f9ee9c&projectId=e622c465-ee29-4445-8260-1f3431e06587","","null","<div style=""display: flex; justify-content: center; align-items: center;"">
                    <img src=""images/causal/causal_series_1/causal_series_1_b.jpg"" style=""width: 300px; height: 300px;"" />
                  </div>","null","",""
"","","","","","html-keyboard-response","92","255516","0.0-66.0-2.0","8DFA07C880FC4350BCAE8401C5098747","8DFA07C880FC4350BCAE8401C5098747","d6a94f7b-4d76-44bb-b20b-2cb659f9ee9c","e622c465-ee29-4445-8260-1f3431e06587","{""participantId"":""8DFA07C880FC4350BCAE8401C5098747"",""assignmentId"":""d6a94f7b-4d76-44bb-b20b-2cb659f9ee9c"",""projectId"":""e622c465-ee29-4445-8260-1f3431e06587""}","https://test12345.live/?participantId=8DFA07C880FC4350BCAE8401C5098747&assignmentId=d6a94f7b-4d76-44bb-b20b-2cb659f9ee9c&projectId=e622c465-ee29-4445-8260-1f3431e06587","","null","<div style=""display: flex; justify-content: center; align-items: center;"">
                    <img src=""images/causal/causal_series_1/causal_series_1_c.jpg"" style=""width: 300px; height: 300px;"" />
                  </div>","null","",""
"","","","","","html-keyboard-response","93","258517","0.0-66.0-3.0","8DFA07C880FC4350BCAE8401C5098747","8DFA07C880FC4350BCAE8401C5098747","d6a94f7b-4d76-44bb-b20b-2cb659f9ee9c","e622c465-ee29-4445-8260-1f3431e06587","{""participantId"":""8DFA07C880FC4350BCAE8401C5098747"",""assignmentId"":""d6a94f7b-4d76-44bb-b20b-2cb659f9ee9c"",""projectId"":""e622c465-ee29-4445-8260-1f3431e06587""}","https://test12345.live/?participantId=8DFA07C880FC4350BCAE8401C5098747&assignmentId=d6a94f7b-4d76-44bb-b20b-2cb659f9ee9c&projectId=e622c465-ee29-4445-8260-1f3431e06587","","null","<div style=""display: flex; justify-content: center; align-items: center;"">
                    <img src=""images/causal/causal_series_1/causal_series_1_d.jpg"" style=""width: 300px; height: 300px;"" />
                  </div>","null","",""
"","","","","","html-button-response","94","260582","0.0-68.0","8DFA07C880FC4350BCAE8401C5098747","8DFA07C880FC4350BCAE8401C5098747","d6a94f7b-4d76-44bb-b20b-2cb659f9ee9c","e622c465-ee29-4445-8260-1f3431e06587","{""participantId"":""8DFA07C880FC4350BCAE8401C5098747"",""assignmentId"":""d6a94f7b-4d76-44bb-b20b-2cb659f9ee9c"",""projectId"":""e622c465-ee29-4445-8260-1f3431e06587""}","https://test12345.live/?participantId=8DFA07C880FC4350BCAE8401C5098747&assignmentId=d6a94f7b-4d76-44bb-b20b-2cb659f9ee9c&projectId=e622c465-ee29-4445-8260-1f3431e06587","","2065","Was there a person in the picture?","0","",""
"","","","","","survey-likert","95","262859","0.0-69.0","8DFA07C880FC4350BCAE8401C5098747","8DFA07C880FC4350BCAE8401C5098747","d6a94f7b-4d76-44bb-b20b-2cb659f9ee9c","e622c465-ee29-4445-8260-1f3431e06587","{""participantId"":""8DFA07C880FC4350BCAE8401C5098747"",""assignmentId"":""d6a94f7b-4d76-44bb-b20b-2cb659f9ee9c"",""projectId"":""e622c465-ee29-4445-8260-1f3431e06587""}","https://test12345.live/?participantId=8DFA07C880FC4350BCAE8401C5098747&assignmentId=d6a94f7b-4d76-44bb-b20b-2cb659f9ee9c&projectId=e622c465-ee29-4445-8260-1f3431e06587","","2276","","{""Q0"":0}","","[0]"
"","","","","","html-button-response","96","263779","0.0-70.0","8DFA07C880FC4350BCAE8401C5098747","8DFA07C880FC4350BCAE8401C5098747","d6a94f7b-4d76-44bb-b20b-2cb659f9ee9c","e622c465-ee29-4445-8260-1f3431e06587","{""participantId"":""8DFA07C880FC4350BCAE8401C5098747"",""assignmentId"":""d6a94f7b-4d76-44bb-b20b-2cb659f9ee9c"",""projectId"":""e622c465-ee29-4445-8260-1f3431e06587""}","https://test12345.live/?participantId=8DFA07C880FC4350BCAE8401C5098747&assignmentId=d6a94f7b-4d76-44bb-b20b-2cb659f9ee9c&projectId=e622c465-ee29-4445-8260-1f3431e06587","","920","
    <div style=""display: flex; justify-content: center; align-items: center;"">
      <img src=""images/blue_deck_1.png"" style=""width: 300px; height: 300px; margin-right: 10px;"" />
      <img src=""images/red_deck_2.png"" style=""width: 300px; height: 300px;"" />
    </div>","0","0",""
"","","","","","html-keyboard-response","97","266793","0.0-71.0-0.0","8DFA07C880FC4350BCAE8401C5098747","8DFA07C880FC4350BCAE8401C5098747","d6a94f7b-4d76-44bb-b20b-2cb659f9ee9c","e622c465-ee29-4445-8260-1f3431e06587","{""participantId"":""8DFA07C880FC4350BCAE8401C5098747"",""assignmentId"":""d6a94f7b-4d76-44bb-b20b-2cb659f9ee9c"",""projectId"":""e622c465-ee29-4445-8260-1f3431e06587""}","https://test12345.live/?participantId=8DFA07C880FC4350BCAE8401C5098747&assignmentId=d6a94f7b-4d76-44bb-b20b-2cb659f9ee9c&projectId=e622c465-ee29-4445-8260-1f3431e06587","","null","<div style=""display: flex; justify-content: center; align-items: center;"">
                    <img src=""images/causal/causal_series_14/causal_series_14_a.jpg"" style=""width: 300px; height: 300px;"" />
                  </div>","null","",""
"","","","","","html-keyboard-response","98","269799","0.0-71.0-1.0","8DFA07C880FC4350BCAE8401C5098747","8DFA07C880FC4350BCAE8401C5098747","d6a94f7b-4d76-44bb-b20b-2cb659f9ee9c","e622c465-ee29-4445-8260-1f3431e06587","{""participantId"":""8DFA07C880FC4350BCAE8401C5098747"",""assignmentId"":""d6a94f7b-4d76-44bb-b20b-2cb659f9ee9c"",""projectId"":""e622c465-ee29-4445-8260-1f3431e06587""}","https://test12345.live/?participantId=8DFA07C880FC4350BCAE8401C5098747&assignmentId=d6a94f7b-4d76-44bb-b20b-2cb659f9ee9c&projectId=e622c465-ee29-4445-8260-1f3431e06587","","null","<div style=""display: flex; justify-content: center; align-items: center;"">
                    <img src=""images/causal/causal_series_14/causal_series_14_b.jpg"" style=""width: 300px; height: 300px;"" />
                  </div>","null","",""
"","","","","","html-keyboard-response","99","272801","0.0-71.0-2.0","8DFA07C880FC4350BCAE8401C5098747","8DFA07C880FC4350BCAE8401C5098747","d6a94f7b-4d76-44bb-b20b-2cb659f9ee9c","e622c465-ee29-4445-8260-1f3431e06587","{""participantId"":""8DFA07C880FC4350BCAE8401C5098747"",""assignmentId"":""d6a94f7b-4d76-44bb-b20b-2cb659f9ee9c"",""projectId"":""e622c465-ee29-4445-8260-1f3431e06587""}","https://test12345.live/?participantId=8DFA07C880FC4350BCAE8401C5098747&assignmentId=d6a94f7b-4d76-44bb-b20b-2cb659f9ee9c&projectId=e622c465-ee29-4445-8260-1f3431e06587","","null","<div style=""display: flex; justify-content: center; align-items: center;"">
                    <img src=""images/causal/causal_series_14/causal_series_14_c.jpg"" style=""width: 300px; height: 300px;"" />
                  </div>","null","",""
"","","","","","html-keyboard-response","100","275809","0.0-71.0-3.0","8DFA07C880FC4350BCAE8401C5098747","8DFA07C880FC4350BCAE8401C5098747","d6a94f7b-4d76-44bb-b20b-2cb659f9ee9c","e622c465-ee29-4445-8260-1f3431e06587","{""participantId"":""8DFA07C880FC4350BCAE8401C5098747"",""assignmentId"":""d6a94f7b-4d76-44bb-b20b-2cb659f9ee9c"",""projectId"":""e622c465-ee29-4445-8260-1f3431e06587""}","https://test12345.live/?participantId=8DFA07C880FC4350BCAE8401C5098747&assignmentId=d6a94f7b-4d76-44bb-b20b-2cb659f9ee9c&projectId=e622c465-ee29-4445-8260-1f3431e06587","","null","<div style=""display: flex; justify-content: center; align-items: center;"">
                    <img src=""images/causal/causal_series_14/causal_series_14_d.jpg"" style=""width: 300px; height: 300px;"" />
                  </div>","null","",""
"","","","","","html-button-response","101","277191","0.0-73.0","8DFA07C880FC4350BCAE8401C5098747","8DFA07C880FC4350BCAE8401C5098747","d6a94f7b-4d76-44bb-b20b-2cb659f9ee9c","e622c465-ee29-4445-8260-1f3431e06587","{""participantId"":""8DFA07C880FC4350BCAE8401C5098747"",""assignmentId"":""d6a94f7b-4d76-44bb-b20b-2cb659f9ee9c"",""projectId"":""e622c465-ee29-4445-8260-1f3431e06587""}","https://test12345.live/?participantId=8DFA07C880FC4350BCAE8401C5098747&assignmentId=d6a94f7b-4d76-44bb-b20b-2cb659f9ee9c&projectId=e622c465-ee29-4445-8260-1f3431e06587","","1382","Was there a person in the picture?","0","",""
"","","","","","survey-likert","102","278531","0.0-74.0","8DFA07C880FC4350BCAE8401C5098747","8DFA07C880FC4350BCAE8401C5098747","d6a94f7b-4d76-44bb-b20b-2cb659f9ee9c","e622c465-ee29-4445-8260-1f3431e06587","{""participantId"":""8DFA07C880FC4350BCAE8401C5098747"",""assignmentId"":""d6a94f7b-4d76-44bb-b20b-2cb659f9ee9c"",""projectId"":""e622c465-ee29-4445-8260-1f3431e06587""}","https://test12345.live/?participantId=8DFA07C880FC4350BCAE8401C5098747&assignmentId=d6a94f7b-4d76-44bb-b20b-2cb659f9ee9c&projectId=e622c465-ee29-4445-8260-1f3431e06587","","1339","","{""Q0"":0}","","[0]"
"","","","","","html-button-response","103","279144","0.0-75.0","8DFA07C880FC4350BCAE8401C5098747","8DFA07C880FC4350BCAE8401C5098747","d6a94f7b-4d76-44bb-b20b-2cb659f9ee9c","e622c465-ee29-4445-8260-1f3431e06587","{""participantId"":""8DFA07C880FC4350BCAE8401C5098747"",""assignmentId"":""d6a94f7b-4d76-44bb-b20b-2cb659f9ee9c"",""projectId"":""e622c465-ee29-4445-8260-1f3431e06587""}","https://test12345.live/?participantId=8DFA07C880FC4350BCAE8401C5098747&assignmentId=d6a94f7b-4d76-44bb-b20b-2cb659f9ee9c&projectId=e622c465-ee29-4445-8260-1f3431e06587","","613","
    <div style=""display: flex; justify-content: center; align-items: center;"">
      <img src=""images/blue_deck_1.png"" style=""width: 300px; height: 300px; margin-right: 10px;"" />
      <img src=""images/red_deck_2.png"" style=""width: 300px; height: 300px;"" />
    </div>","0","0",""
"","","","","","html-keyboard-response","104","282157","0.0-76.0-0.0","8DFA07C880FC4350BCAE8401C5098747","8DFA07C880FC4350BCAE8401C5098747","d6a94f7b-4d76-44bb-b20b-2cb659f9ee9c","e622c465-ee29-4445-8260-1f3431e06587","{""participantId"":""8DFA07C880FC4350BCAE8401C5098747"",""assignmentId"":""d6a94f7b-4d76-44bb-b20b-2cb659f9ee9c"",""projectId"":""e622c465-ee29-4445-8260-1f3431e06587""}","https://test12345.live/?participantId=8DFA07C880FC4350BCAE8401C5098747&assignmentId=d6a94f7b-4d76-44bb-b20b-2cb659f9ee9c&projectId=e622c465-ee29-4445-8260-1f3431e06587","","null","<div style=""display: flex; justify-content: center; align-items: center;"">
                    <img src=""images/causal/causal_series_9/causal_series_9_a.jpg"" style=""width: 300px; height: 300px;"" />
                  </div>","null","",""
"","","","","","html-keyboard-response","105","285158","0.0-76.0-1.0","8DFA07C880FC4350BCAE8401C5098747","8DFA07C880FC4350BCAE8401C5098747","d6a94f7b-4d76-44bb-b20b-2cb659f9ee9c","e622c465-ee29-4445-8260-1f3431e06587","{""participantId"":""8DFA07C880FC4350BCAE8401C5098747"",""assignmentId"":""d6a94f7b-4d76-44bb-b20b-2cb659f9ee9c"",""projectId"":""e622c465-ee29-4445-8260-1f3431e06587""}","https://test12345.live/?participantId=8DFA07C880FC4350BCAE8401C5098747&assignmentId=d6a94f7b-4d76-44bb-b20b-2cb659f9ee9c&projectId=e622c465-ee29-4445-8260-1f3431e06587","","null","<div style=""display: flex; justify-content: center; align-items: center;"">
                    <img src=""images/causal/causal_series_9/causal_series_9_b.jpg"" style=""width: 300px; height: 300px;"" />
                  </div>","null","",""
"","","","","","html-keyboard-response","106","288161","0.0-76.0-2.0","8DFA07C880FC4350BCAE8401C5098747","8DFA07C880FC4350BCAE8401C5098747","d6a94f7b-4d76-44bb-b20b-2cb659f9ee9c","e622c465-ee29-4445-8260-1f3431e06587","{""participantId"":""8DFA07C880FC4350BCAE8401C5098747"",""assignmentId"":""d6a94f7b-4d76-44bb-b20b-2cb659f9ee9c"",""projectId"":""e622c465-ee29-4445-8260-1f3431e06587""}","https://test12345.live/?participantId=8DFA07C880FC4350BCAE8401C5098747&assignmentId=d6a94f7b-4d76-44bb-b20b-2cb659f9ee9c&projectId=e622c465-ee29-4445-8260-1f3431e06587","","null","<div style=""display: flex; justify-content: center; align-items: center;"">
                    <img src=""images/causal/causal_series_9/causal_series_9_c.jpg"" style=""width: 300px; height: 300px;"" />
                  </div>","null","",""
"","","","","","html-keyboard-response","107","291173","0.0-76.0-3.0","8DFA07C880FC4350BCAE8401C5098747","8DFA07C880FC4350BCAE8401C5098747","d6a94f7b-4d76-44bb-b20b-2cb659f9ee9c","e622c465-ee29-4445-8260-1f3431e06587","{""participantId"":""8DFA07C880FC4350BCAE8401C5098747"",""assignmentId"":""d6a94f7b-4d76-44bb-b20b-2cb659f9ee9c"",""projectId"":""e622c465-ee29-4445-8260-1f3431e06587""}","https://test12345.live/?participantId=8DFA07C880FC4350BCAE8401C5098747&assignmentId=d6a94f7b-4d76-44bb-b20b-2cb659f9ee9c&projectId=e622c465-ee29-4445-8260-1f3431e06587","","null","<div style=""display: flex; justify-content: center; align-items: center;"">
                    <img src=""images/causal/causal_series_9/causal_series_9_d.jpg"" style=""width: 300px; height: 300px;"" />
                  </div>","null","",""
"","","","","","html-button-response","108","292002","0.0-78.0","8DFA07C880FC4350BCAE8401C5098747","8DFA07C880FC4350BCAE8401C5098747","d6a94f7b-4d76-44bb-b20b-2cb659f9ee9c","e622c465-ee29-4445-8260-1f3431e06587","{""participantId"":""8DFA07C880FC4350BCAE8401C5098747"",""assignmentId"":""d6a94f7b-4d76-44bb-b20b-2cb659f9ee9c"",""projectId"":""e622c465-ee29-4445-8260-1f3431e06587""}","https://test12345.live/?participantId=8DFA07C880FC4350BCAE8401C5098747&assignmentId=d6a94f7b-4d76-44bb-b20b-2cb659f9ee9c&projectId=e622c465-ee29-4445-8260-1f3431e06587","","829","Was there a person in the picture?","1","",""
"","","","","","survey-likert","109","295298","0.0-79.0","8DFA07C880FC4350BCAE8401C5098747","8DFA07C880FC4350BCAE8401C5098747","d6a94f7b-4d76-44bb-b20b-2cb659f9ee9c","e622c465-ee29-4445-8260-1f3431e06587","{""participantId"":""8DFA07C880FC4350BCAE8401C5098747"",""assignmentId"":""d6a94f7b-4d76-44bb-b20b-2cb659f9ee9c"",""projectId"":""e622c465-ee29-4445-8260-1f3431e06587""}","https://test12345.live/?participantId=8DFA07C880FC4350BCAE8401C5098747&assignmentId=d6a94f7b-4d76-44bb-b20b-2cb659f9ee9c&projectId=e622c465-ee29-4445-8260-1f3431e06587","","3295","","{""Q0"":2}","","[0]"
"","","","","","html-button-response","110","296269","0.0-80.0","8DFA07C880FC4350BCAE8401C5098747","8DFA07C880FC4350BCAE8401C5098747","d6a94f7b-4d76-44bb-b20b-2cb659f9ee9c","e622c465-ee29-4445-8260-1f3431e06587","{""participantId"":""8DFA07C880FC4350BCAE8401C5098747"",""assignmentId"":""d6a94f7b-4d76-44bb-b20b-2cb659f9ee9c"",""projectId"":""e622c465-ee29-4445-8260-1f3431e06587""}","https://test12345.live/?participantId=8DFA07C880FC4350BCAE8401C5098747&assignmentId=d6a94f7b-4d76-44bb-b20b-2cb659f9ee9c&projectId=e622c465-ee29-4445-8260-1f3431e06587","","971","
    <div style=""display: flex; justify-content: center; align-items: center;"">
      <img src=""images/blue_deck_1.png"" style=""width: 300px; height: 300px; margin-right: 10px;"" />
      <img src=""images/red_deck_2.png"" style=""width: 300px; height: 300px;"" />
    </div>","1","1",""
"","","","","","html-keyboard-response","111","299280","0.0-82.0-0.0","8DFA07C880FC4350BCAE8401C5098747","8DFA07C880FC4350BCAE8401C5098747","d6a94f7b-4d76-44bb-b20b-2cb659f9ee9c","e622c465-ee29-4445-8260-1f3431e06587","{""participantId"":""8DFA07C880FC4350BCAE8401C5098747"",""assignmentId"":""d6a94f7b-4d76-44bb-b20b-2cb659f9ee9c"",""projectId"":""e622c465-ee29-4445-8260-1f3431e06587""}","https://test12345.live/?participantId=8DFA07C880FC4350BCAE8401C5098747&assignmentId=d6a94f7b-4d76-44bb-b20b-2cb659f9ee9c&projectId=e622c465-ee29-4445-8260-1f3431e06587","","null","<div style=""display: flex; justify-content: center; align-items: center;"">
                    <img src=""images/semantic/semantic_series_1/semantic_series_1_a.jpg"" style=""width: 300px; height: 300px;"" />
                  </div>","null","",""
"","","","","","html-keyboard-response","112","302296","0.0-82.0-1.0","8DFA07C880FC4350BCAE8401C5098747","8DFA07C880FC4350BCAE8401C5098747","d6a94f7b-4d76-44bb-b20b-2cb659f9ee9c","e622c465-ee29-4445-8260-1f3431e06587","{""participantId"":""8DFA07C880FC4350BCAE8401C5098747"",""assignmentId"":""d6a94f7b-4d76-44bb-b20b-2cb659f9ee9c"",""projectId"":""e622c465-ee29-4445-8260-1f3431e06587""}","https://test12345.live/?participantId=8DFA07C880FC4350BCAE8401C5098747&assignmentId=d6a94f7b-4d76-44bb-b20b-2cb659f9ee9c&projectId=e622c465-ee29-4445-8260-1f3431e06587","","null","<div style=""display: flex; justify-content: center; align-items: center;"">
                    <img src=""images/semantic/semantic_series_1/semantic_series_1_b.jpg"" style=""width: 300px; height: 300px;"" />
                  </div>","null","",""
"","","","","","html-keyboard-response","113","305297","0.0-82.0-2.0","8DFA07C880FC4350BCAE8401C5098747","8DFA07C880FC4350BCAE8401C5098747","d6a94f7b-4d76-44bb-b20b-2cb659f9ee9c","e622c465-ee29-4445-8260-1f3431e06587","{""participantId"":""8DFA07C880FC4350BCAE8401C5098747"",""assignmentId"":""d6a94f7b-4d76-44bb-b20b-2cb659f9ee9c"",""projectId"":""e622c465-ee29-4445-8260-1f3431e06587""}","https://test12345.live/?participantId=8DFA07C880FC4350BCAE8401C5098747&assignmentId=d6a94f7b-4d76-44bb-b20b-2cb659f9ee9c&projectId=e622c465-ee29-4445-8260-1f3431e06587","","null","<div style=""display: flex; justify-content: center; align-items: center;"">
                    <img src=""images/semantic/semantic_series_1/semantic_series_1_c.jpg"" style=""width: 300px; height: 300px;"" />
                  </div>","null","",""
"","","","","","html-keyboard-response","114","308299","0.0-82.0-3.0","8DFA07C880FC4350BCAE8401C5098747","8DFA07C880FC4350BCAE8401C5098747","d6a94f7b-4d76-44bb-b20b-2cb659f9ee9c","e622c465-ee29-4445-8260-1f3431e06587","{""participantId"":""8DFA07C880FC4350BCAE8401C5098747"",""assignmentId"":""d6a94f7b-4d76-44bb-b20b-2cb659f9ee9c"",""projectId"":""e622c465-ee29-4445-8260-1f3431e06587""}","https://test12345.live/?participantId=8DFA07C880FC4350BCAE8401C5098747&assignmentId=d6a94f7b-4d76-44bb-b20b-2cb659f9ee9c&projectId=e622c465-ee29-4445-8260-1f3431e06587","","null","<div style=""display: flex; justify-content: center; align-items: center;"">
                    <img src=""images/semantic/semantic_series_1/semantic_series_1_d.jpg"" style=""width: 300px; height: 300px;"" />
                  </div>","null","",""
"","","","","","html-button-response","115","309955","0.0-83.0","8DFA07C880FC4350BCAE8401C5098747","8DFA07C880FC4350BCAE8401C5098747","d6a94f7b-4d76-44bb-b20b-2cb659f9ee9c","e622c465-ee29-4445-8260-1f3431e06587","{""participantId"":""8DFA07C880FC4350BCAE8401C5098747"",""assignmentId"":""d6a94f7b-4d76-44bb-b20b-2cb659f9ee9c"",""projectId"":""e622c465-ee29-4445-8260-1f3431e06587""}","https://test12345.live/?participantId=8DFA07C880FC4350BCAE8401C5098747&assignmentId=d6a94f7b-4d76-44bb-b20b-2cb659f9ee9c&projectId=e622c465-ee29-4445-8260-1f3431e06587","","1656","Was there a person in the picture?","0","",""
"","","","","","survey-likert","116","311567","0.0-84.0","8DFA07C880FC4350BCAE8401C5098747","8DFA07C880FC4350BCAE8401C5098747","d6a94f7b-4d76-44bb-b20b-2cb659f9ee9c","e622c465-ee29-4445-8260-1f3431e06587","{""participantId"":""8DFA07C880FC4350BCAE8401C5098747"",""assignmentId"":""d6a94f7b-4d76-44bb-b20b-2cb659f9ee9c"",""projectId"":""e622c465-ee29-4445-8260-1f3431e06587""}","https://test12345.live/?participantId=8DFA07C880FC4350BCAE8401C5098747&assignmentId=d6a94f7b-4d76-44bb-b20b-2cb659f9ee9c&projectId=e622c465-ee29-4445-8260-1f3431e06587","","1611","","{""Q0"":0}","","[0]"
"","","","","","html-button-response","117","312473","0.0-85.0","8DFA07C880FC4350BCAE8401C5098747","8DFA07C880FC4350BCAE8401C5098747","d6a94f7b-4d76-44bb-b20b-2cb659f9ee9c","e622c465-ee29-4445-8260-1f3431e06587","{""participantId"":""8DFA07C880FC4350BCAE8401C5098747"",""assignmentId"":""d6a94f7b-4d76-44bb-b20b-2cb659f9ee9c"",""projectId"":""e622c465-ee29-4445-8260-1f3431e06587""}","https://test12345.live/?participantId=8DFA07C880FC4350BCAE8401C5098747&assignmentId=d6a94f7b-4d76-44bb-b20b-2cb659f9ee9c&projectId=e622c465-ee29-4445-8260-1f3431e06587","","905","
    <div style=""display: flex; justify-content: center; align-items: center;"">
      <img src=""images/blue_deck_1.png"" style=""width: 300px; height: 300px; margin-right: 10px;"" />
      <img src=""images/red_deck_2.png"" style=""width: 300px; height: 300px;"" />
    </div>","1","1",""
"","","","","","html-keyboard-response","118","315484","0.0-87.0-0.0","8DFA07C880FC4350BCAE8401C5098747","8DFA07C880FC4350BCAE8401C5098747","d6a94f7b-4d76-44bb-b20b-2cb659f9ee9c","e622c465-ee29-4445-8260-1f3431e06587","{""participantId"":""8DFA07C880FC4350BCAE8401C5098747"",""assignmentId"":""d6a94f7b-4d76-44bb-b20b-2cb659f9ee9c"",""projectId"":""e622c465-ee29-4445-8260-1f3431e06587""}","https://test12345.live/?participantId=8DFA07C880FC4350BCAE8401C5098747&assignmentId=d6a94f7b-4d76-44bb-b20b-2cb659f9ee9c&projectId=e622c465-ee29-4445-8260-1f3431e06587","","null","<div style=""display: flex; justify-content: center; align-items: center;"">
                    <img src=""images/semantic/semantic_series_18/semantic_series_18_a.jpg"" style=""width: 300px; height: 300px;"" />
                  </div>","null","",""
"","","","","","html-keyboard-response","119","318487","0.0-87.0-1.0","8DFA07C880FC4350BCAE8401C5098747","8DFA07C880FC4350BCAE8401C5098747","d6a94f7b-4d76-44bb-b20b-2cb659f9ee9c","e622c465-ee29-4445-8260-1f3431e06587","{""participantId"":""8DFA07C880FC4350BCAE8401C5098747"",""assignmentId"":""d6a94f7b-4d76-44bb-b20b-2cb659f9ee9c"",""projectId"":""e622c465-ee29-4445-8260-1f3431e06587""}","https://test12345.live/?participantId=8DFA07C880FC4350BCAE8401C5098747&assignmentId=d6a94f7b-4d76-44bb-b20b-2cb659f9ee9c&projectId=e622c465-ee29-4445-8260-1f3431e06587","","null","<div style=""display: flex; justify-content: center; align-items: center;"">
                    <img src=""images/semantic/semantic_series_18/semantic_series_18_b.jpg"" style=""width: 300px; height: 300px;"" />
                  </div>","null","",""
"","","","","","html-keyboard-response","120","321503","0.0-87.0-2.0","8DFA07C880FC4350BCAE8401C5098747","8DFA07C880FC4350BCAE8401C5098747","d6a94f7b-4d76-44bb-b20b-2cb659f9ee9c","e622c465-ee29-4445-8260-1f3431e06587","{""participantId"":""8DFA07C880FC4350BCAE8401C5098747"",""assignmentId"":""d6a94f7b-4d76-44bb-b20b-2cb659f9ee9c"",""projectId"":""e622c465-ee29-4445-8260-1f3431e06587""}","https://test12345.live/?participantId=8DFA07C880FC4350BCAE8401C5098747&assignmentId=d6a94f7b-4d76-44bb-b20b-2cb659f9ee9c&projectId=e622c465-ee29-4445-8260-1f3431e06587","","null","<div style=""display: flex; justify-content: center; align-items: center;"">
                    <img src=""images/semantic/semantic_series_18/semantic_series_18_c.jpg"" style=""width: 300px; height: 300px;"" />
                  </div>","null","",""
"","","","","","html-keyboard-response","121","324516","0.0-87.0-3.0","8DFA07C880FC4350BCAE8401C5098747","8DFA07C880FC4350BCAE8401C5098747","d6a94f7b-4d76-44bb-b20b-2cb659f9ee9c","e622c465-ee29-4445-8260-1f3431e06587","{""participantId"":""8DFA07C880FC4350BCAE8401C5098747"",""assignmentId"":""d6a94f7b-4d76-44bb-b20b-2cb659f9ee9c"",""projectId"":""e622c465-ee29-4445-8260-1f3431e06587""}","https://test12345.live/?participantId=8DFA07C880FC4350BCAE8401C5098747&assignmentId=d6a94f7b-4d76-44bb-b20b-2cb659f9ee9c&projectId=e622c465-ee29-4445-8260-1f3431e06587","","null","<div style=""display: flex; justify-content: center; align-items: center;"">
                    <img src=""images/semantic/semantic_series_18/semantic_series_18_d.jpg"" style=""width: 300px; height: 300px;"" />
                  </div>","null","",""
"","","","","","html-button-response","122","326133","0.0-88.0","8DFA07C880FC4350BCAE8401C5098747","8DFA07C880FC4350BCAE8401C5098747","d6a94f7b-4d76-44bb-b20b-2cb659f9ee9c","e622c465-ee29-4445-8260-1f3431e06587","{""participantId"":""8DFA07C880FC4350BCAE8401C5098747"",""assignmentId"":""d6a94f7b-4d76-44bb-b20b-2cb659f9ee9c"",""projectId"":""e622c465-ee29-4445-8260-1f3431e06587""}","https://test12345.live/?participantId=8DFA07C880FC4350BCAE8401C5098747&assignmentId=d6a94f7b-4d76-44bb-b20b-2cb659f9ee9c&projectId=e622c465-ee29-4445-8260-1f3431e06587","","1616","Was there a person in the picture?","1","",""
"","","","","","survey-likert","123","327738","0.0-89.0","8DFA07C880FC4350BCAE8401C5098747","8DFA07C880FC4350BCAE8401C5098747","d6a94f7b-4d76-44bb-b20b-2cb659f9ee9c","e622c465-ee29-4445-8260-1f3431e06587","{""participantId"":""8DFA07C880FC4350BCAE8401C5098747"",""assignmentId"":""d6a94f7b-4d76-44bb-b20b-2cb659f9ee9c"",""projectId"":""e622c465-ee29-4445-8260-1f3431e06587""}","https://test12345.live/?participantId=8DFA07C880FC4350BCAE8401C5098747&assignmentId=d6a94f7b-4d76-44bb-b20b-2cb659f9ee9c&projectId=e622c465-ee29-4445-8260-1f3431e06587","","1605","","{""Q0"":3}","","[0]"
"","","","","","html-button-response","124","328486","0.0-90.0","8DFA07C880FC4350BCAE8401C5098747","8DFA07C880FC4350BCAE8401C5098747","d6a94f7b-4d76-44bb-b20b-2cb659f9ee9c","e622c465-ee29-4445-8260-1f3431e06587","{""participantId"":""8DFA07C880FC4350BCAE8401C5098747"",""assignmentId"":""d6a94f7b-4d76-44bb-b20b-2cb659f9ee9c"",""projectId"":""e622c465-ee29-4445-8260-1f3431e06587""}","https://test12345.live/?participantId=8DFA07C880FC4350BCAE8401C5098747&assignmentId=d6a94f7b-4d76-44bb-b20b-2cb659f9ee9c&projectId=e622c465-ee29-4445-8260-1f3431e06587","","748","
    <div style=""display: flex; justify-content: center; align-items: center;"">
      <img src=""images/blue_deck_1.png"" style=""width: 300px; height: 300px; margin-right: 10px;"" />
      <img src=""images/red_deck_2.png"" style=""width: 300px; height: 300px;"" />
    </div>","1","1",""
"","","","","","html-keyboard-response","125","331494","0.0-92.0-0.0","8DFA07C880FC4350BCAE8401C5098747","8DFA07C880FC4350BCAE8401C5098747","d6a94f7b-4d76-44bb-b20b-2cb659f9ee9c","e622c465-ee29-4445-8260-1f3431e06587","{""participantId"":""8DFA07C880FC4350BCAE8401C5098747"",""assignmentId"":""d6a94f7b-4d76-44bb-b20b-2cb659f9ee9c"",""projectId"":""e622c465-ee29-4445-8260-1f3431e06587""}","https://test12345.live/?participantId=8DFA07C880FC4350BCAE8401C5098747&assignmentId=d6a94f7b-4d76-44bb-b20b-2cb659f9ee9c&projectId=e622c465-ee29-4445-8260-1f3431e06587","","null","<div style=""display: flex; justify-content: center; align-items: center;"">
                    <img src=""images/semantic/semantic_series_11/semantic_series_11_a.jpg"" style=""width: 300px; height: 300px;"" />
                  </div>","null","",""
"","","","","","html-keyboard-response","126","334500","0.0-92.0-1.0","8DFA07C880FC4350BCAE8401C5098747","8DFA07C880FC4350BCAE8401C5098747","d6a94f7b-4d76-44bb-b20b-2cb659f9ee9c","e622c465-ee29-4445-8260-1f3431e06587","{""participantId"":""8DFA07C880FC4350BCAE8401C5098747"",""assignmentId"":""d6a94f7b-4d76-44bb-b20b-2cb659f9ee9c"",""projectId"":""e622c465-ee29-4445-8260-1f3431e06587""}","https://test12345.live/?participantId=8DFA07C880FC4350BCAE8401C5098747&assignmentId=d6a94f7b-4d76-44bb-b20b-2cb659f9ee9c&projectId=e622c465-ee29-4445-8260-1f3431e06587","","null","<div style=""display: flex; justify-content: center; align-items: center;"">
                    <img src=""images/semantic/semantic_series_11/semantic_series_11_b.jpg"" style=""width: 300px; height: 300px;"" />
                  </div>","null","",""
"","","","","","html-keyboard-response","127","337503","0.0-92.0-2.0","8DFA07C880FC4350BCAE8401C5098747","8DFA07C880FC4350BCAE8401C5098747","d6a94f7b-4d76-44bb-b20b-2cb659f9ee9c","e622c465-ee29-4445-8260-1f3431e06587","{""participantId"":""8DFA07C880FC4350BCAE8401C5098747"",""assignmentId"":""d6a94f7b-4d76-44bb-b20b-2cb659f9ee9c"",""projectId"":""e622c465-ee29-4445-8260-1f3431e06587""}","https://test12345.live/?participantId=8DFA07C880FC4350BCAE8401C5098747&assignmentId=d6a94f7b-4d76-44bb-b20b-2cb659f9ee9c&projectId=e622c465-ee29-4445-8260-1f3431e06587","","null","<div style=""display: flex; justify-content: center; align-items: center;"">
                    <img src=""images/semantic/semantic_series_11/semantic_series_11_c.jpg"" style=""width: 300px; height: 300px;"" />
                  </div>","null","",""
"","","","","","html-keyboard-response","128","340504","0.0-92.0-3.0","8DFA07C880FC4350BCAE8401C5098747","8DFA07C880FC4350BCAE8401C5098747","d6a94f7b-4d76-44bb-b20b-2cb659f9ee9c","e622c465-ee29-4445-8260-1f3431e06587","{""participantId"":""8DFA07C880FC4350BCAE8401C5098747"",""assignmentId"":""d6a94f7b-4d76-44bb-b20b-2cb659f9ee9c"",""projectId"":""e622c465-ee29-4445-8260-1f3431e06587""}","https://test12345.live/?participantId=8DFA07C880FC4350BCAE8401C5098747&assignmentId=d6a94f7b-4d76-44bb-b20b-2cb659f9ee9c&projectId=e622c465-ee29-4445-8260-1f3431e06587","","null","<div style=""display: flex; justify-content: center; align-items: center;"">
                    <img src=""images/semantic/semantic_series_11/semantic_series_11_d.jpg"" style=""width: 300px; height: 300px;"" />
                  </div>","null","",""
"","","","","","html-button-response","129","341172","0.0-93.0","8DFA07C880FC4350BCAE8401C5098747","8DFA07C880FC4350BCAE8401C5098747","d6a94f7b-4d76-44bb-b20b-2cb659f9ee9c","e622c465-ee29-4445-8260-1f3431e06587","{""participantId"":""8DFA07C880FC4350BCAE8401C5098747"",""assignmentId"":""d6a94f7b-4d76-44bb-b20b-2cb659f9ee9c"",""projectId"":""e622c465-ee29-4445-8260-1f3431e06587""}","https://test12345.live/?participantId=8DFA07C880FC4350BCAE8401C5098747&assignmentId=d6a94f7b-4d76-44bb-b20b-2cb659f9ee9c&projectId=e622c465-ee29-4445-8260-1f3431e06587","","668","Was there a person in the picture?","0","",""
"","","","","","survey-likert","130","342429","0.0-94.0","8DFA07C880FC4350BCAE8401C5098747","8DFA07C880FC4350BCAE8401C5098747","d6a94f7b-4d76-44bb-b20b-2cb659f9ee9c","e622c465-ee29-4445-8260-1f3431e06587","{""participantId"":""8DFA07C880FC4350BCAE8401C5098747"",""assignmentId"":""d6a94f7b-4d76-44bb-b20b-2cb659f9ee9c"",""projectId"":""e622c465-ee29-4445-8260-1f3431e06587""}","https://test12345.live/?participantId=8DFA07C880FC4350BCAE8401C5098747&assignmentId=d6a94f7b-4d76-44bb-b20b-2cb659f9ee9c&projectId=e622c465-ee29-4445-8260-1f3431e06587","","1256","","{""Q0"":0}","","[0]"
"","","","","","survey-text","131","374392","0.0-95.0","8DFA07C880FC4350BCAE8401C5098747","8DFA07C880FC4350BCAE8401C5098747","d6a94f7b-4d76-44bb-b20b-2cb659f9ee9c","e622c465-ee29-4445-8260-1f3431e06587","{""participantId"":""8DFA07C880FC4350BCAE8401C5098747"",""assignmentId"":""d6a94f7b-4d76-44bb-b20b-2cb659f9ee9c"",""projectId"":""e622c465-ee29-4445-8260-1f3431e06587""}","https://test12345.live/?participantId=8DFA07C880FC4350BCAE8401C5098747&assignmentId=d6a94f7b-4d76-44bb-b20b-2cb659f9ee9c&projectId=e622c465-ee29-4445-8260-1f3431e06587","","31963","","{""Q0"":""The only difference I noticed was the color of the cards.""}","",""
