"success","timeout","failed_images","failed_audio","failed_video","trial_type","trial_index","time_elapsed","internal_node_id","subject","subject_id","study_id","session_id","urlvar","current_url","view_history","rt","stimulus","response","choice","question_order"
"true","false","[]","[]","[]","preload","0","39016","0.0-0.0","9C94158C27524902B31BA4433DE6DBE5","9C94158C27524902B31BA4433DE6DBE5","e02c0e41-813a-467c-b8c9-b51d3f6bdd05","e622c465-ee29-4445-8260-1f3431e06587","{""participantId"":""9C94158C27524902B31BA4433DE6DBE5"",""assignmentId"":""e02c0e41-813a-467c-b8c9-b51d3f6bdd05"",""projectId"":""e622c465-ee29-4445-8260-1f3431e06587""}","https://test12345.live/?participantId=9C94158C27524902B31BA4433DE6DBE5&assignmentId=e02c0e41-813a-467c-b8c9-b51d3f6bdd05&projectId=e622c465-ee29-4445-8260-1f3431e06587","","","","","",""
"","","","","","instructions","1","74391","0.0-1.0","9C94158C27524902B31BA4433DE6DBE5","9C94158C27524902B31BA4433DE6DBE5","e02c0e41-813a-467c-b8c9-b51d3f6bdd05","e622c465-ee29-4445-8260-1f3431e06587","{""participantId"":""9C94158C27524902B31BA4433DE6DBE5"",""assignmentId"":""e02c0e41-813a-467c-b8c9-b51d3f6bdd05"",""projectId"":""e622c465-ee29-4445-8260-1f3431e06587""}","https://test12345.live/?participantId=9C94158C27524902B31BA4433DE6DBE5&assignmentId=e02c0e41-813a-467c-b8c9-b51d3f6bdd05&projectId=e622c465-ee29-4445-8260-1f3431e06587","[{""page_index"":0,""viewing_time"":35365}]","35369","","","",""
"","","","","","instructions","2","78661","0.0-2.0","9C94158C27524902B31BA4433DE6DBE5","9C94158C27524902B31BA4433DE6DBE5","e02c0e41-813a-467c-b8c9-b51d3f6bdd05","e622c465-ee29-4445-8260-1f3431e06587","{""participantId"":""9C94158C27524902B31BA4433DE6DBE5"",""assignmentId"":""e02c0e41-813a-467c-b8c9-b51d3f6bdd05"",""projectId"":""e622c465-ee29-4445-8260-1f3431e06587""}","https://test12345.live/?participantId=9C94158C27524902B31BA4433DE6DBE5&assignmentId=e02c0e41-813a-467c-b8c9-b51d3f6bdd05&projectId=e622c465-ee29-4445-8260-1f3431e06587","[{""page_index"":0,""viewing_time"":4268}]","4269","","","",""
"true","","","","","fullscreen","3","83523","0.0-3.0","9C94158C27524902B31BA4433DE6DBE5","9C94158C27524902B31BA4433DE6DBE5","e02c0e41-813a-467c-b8c9-b51d3f6bdd05","e622c465-ee29-4445-8260-1f3431e06587","{""participantId"":""9C94158C27524902B31BA4433DE6DBE5"",""assignmentId"":""e02c0e41-813a-467c-b8c9-b51d3f6bdd05"",""projectId"":""e622c465-ee29-4445-8260-1f3431e06587""}","https://test12345.live/?participantId=9C94158C27524902B31BA4433DE6DBE5&assignmentId=e02c0e41-813a-467c-b8c9-b51d3f6bdd05&projectId=e622c465-ee29-4445-8260-1f3431e06587","","3850","","","",""
"","","","","","instructions","4","97994","0.0-4.0","9C94158C27524902B31BA4433DE6DBE5","9C94158C27524902B31BA4433DE6DBE5","e02c0e41-813a-467c-b8c9-b51d3f6bdd05","e622c465-ee29-4445-8260-1f3431e06587","{""participantId"":""9C94158C27524902B31BA4433DE6DBE5"",""assignmentId"":""e02c0e41-813a-467c-b8c9-b51d3f6bdd05"",""projectId"":""e622c465-ee29-4445-8260-1f3431e06587""}","https://test12345.live/?participantId=9C94158C27524902B31BA4433DE6DBE5&assignmentId=e02c0e41-813a-467c-b8c9-b51d3f6bdd05&projectId=e622c465-ee29-4445-8260-1f3431e06587","[{""page_index"":0,""viewing_time"":14466}]","14467","","","",""
"","","","","","html-button-response","5","101362","0.0-5.0","9C94158C27524902B31BA4433DE6DBE5","9C94158C27524902B31BA4433DE6DBE5","e02c0e41-813a-467c-b8c9-b51d3f6bdd05","e622c465-ee29-4445-8260-1f3431e06587","{""participantId"":""9C94158C27524902B31BA4433DE6DBE5"",""assignmentId"":""e02c0e41-813a-467c-b8c9-b51d3f6bdd05"",""projectId"":""e622c465-ee29-4445-8260-1f3431e06587""}","https://test12345.live/?participantId=9C94158C27524902B31BA4433DE6DBE5&assignmentId=e02c0e41-813a-467c-b8c9-b51d3f6bdd05&projectId=e622c465-ee29-4445-8260-1f3431e06587","","3365","
    <div style=""display: flex; justify-content: center; align-items: center;"">
      <img src=""images/blue_deck_1.png"" style=""width: 300px; height: 300px; margin-right: 10px;"" />
      <img src=""images/red_deck_2.png"" style=""width: 300px; height: 300px;"" />
    </div>","1","1",""
"","","","","","html-keyboard-response","6","104368","0.0-7.0-0.0","9C94158C27524902B31BA4433DE6DBE5","9C94158C27524902B31BA4433DE6DBE5","e02c0e41-813a-467c-b8c9-b51d3f6bdd05","e622c465-ee29-4445-8260-1f3431e06587","{""participantId"":""9C94158C27524902B31BA4433DE6DBE5"",""assignmentId"":""e02c0e41-813a-467c-b8c9-b51d3f6bdd05"",""projectId"":""e622c465-ee29-4445-8260-1f3431e06587""}","https://test12345.live/?participantId=9C94158C27524902B31BA4433DE6DBE5&assignmentId=e02c0e41-813a-467c-b8c9-b51d3f6bdd05&projectId=e622c465-ee29-4445-8260-1f3431e06587","","null","<div style=""display: flex; justify-content: center; align-items: center;"">
                    <img src=""images/semantic/semantic_series_15/semantic_series_15_a.jpg"" style=""width: 300px; height: 300px;"" />
                  </div>","null","",""
"","","","","","html-keyboard-response","7","107374","0.0-7.0-1.0","9C94158C27524902B31BA4433DE6DBE5","9C94158C27524902B31BA4433DE6DBE5","e02c0e41-813a-467c-b8c9-b51d3f6bdd05","e622c465-ee29-4445-8260-1f3431e06587","{""participantId"":""9C94158C27524902B31BA4433DE6DBE5"",""assignmentId"":""e02c0e41-813a-467c-b8c9-b51d3f6bdd05"",""projectId"":""e622c465-ee29-4445-8260-1f3431e06587""}","https://test12345.live/?participantId=9C94158C27524902B31BA4433DE6DBE5&assignmentId=e02c0e41-813a-467c-b8c9-b51d3f6bdd05&projectId=e622c465-ee29-4445-8260-1f3431e06587","","null","<div style=""display: flex; justify-content: center; align-items: center;"">
                    <img src=""images/semantic/semantic_series_15/semantic_series_15_b.jpg"" style=""width: 300px; height: 300px;"" />
                  </div>","null","",""
"","","","","","html-keyboard-response","8","110380","0.0-7.0-2.0","9C94158C27524902B31BA4433DE6DBE5","9C94158C27524902B31BA4433DE6DBE5","e02c0e41-813a-467c-b8c9-b51d3f6bdd05","e622c465-ee29-4445-8260-1f3431e06587","{""participantId"":""9C94158C27524902B31BA4433DE6DBE5"",""assignmentId"":""e02c0e41-813a-467c-b8c9-b51d3f6bdd05"",""projectId"":""e622c465-ee29-4445-8260-1f3431e06587""}","https://test12345.live/?participantId=9C94158C27524902B31BA4433DE6DBE5&assignmentId=e02c0e41-813a-467c-b8c9-b51d3f6bdd05&projectId=e622c465-ee29-4445-8260-1f3431e06587","","null","<div style=""display: flex; justify-content: center; align-items: center;"">
                    <img src=""images/semantic/semantic_series_15/semantic_series_15_c.jpg"" style=""width: 300px; height: 300px;"" />
                  </div>","null","",""
"","","","","","html-keyboard-response","9","113386","0.0-7.0-3.0","9C94158C27524902B31BA4433DE6DBE5","9C94158C27524902B31BA4433DE6DBE5","e02c0e41-813a-467c-b8c9-b51d3f6bdd05","e622c465-ee29-4445-8260-1f3431e06587","{""participantId"":""9C94158C27524902B31BA4433DE6DBE5"",""assignmentId"":""e02c0e41-813a-467c-b8c9-b51d3f6bdd05"",""projectId"":""e622c465-ee29-4445-8260-1f3431e06587""}","https://test12345.live/?participantId=9C94158C27524902B31BA4433DE6DBE5&assignmentId=e02c0e41-813a-467c-b8c9-b51d3f6bdd05&projectId=e622c465-ee29-4445-8260-1f3431e06587","","null","<div style=""display: flex; justify-content: center; align-items: center;"">
                    <img src=""images/semantic/semantic_series_15/semantic_series_15_d.jpg"" style=""width: 300px; height: 300px;"" />
                  </div>","null","",""
"","","","","","html-button-response","10","115699","0.0-8.0","9C94158C27524902B31BA4433DE6DBE5","9C94158C27524902B31BA4433DE6DBE5","e02c0e41-813a-467c-b8c9-b51d3f6bdd05","e622c465-ee29-4445-8260-1f3431e06587","{""participantId"":""9C94158C27524902B31BA4433DE6DBE5"",""assignmentId"":""e02c0e41-813a-467c-b8c9-b51d3f6bdd05"",""projectId"":""e622c465-ee29-4445-8260-1f3431e06587""}","https://test12345.live/?participantId=9C94158C27524902B31BA4433DE6DBE5&assignmentId=e02c0e41-813a-467c-b8c9-b51d3f6bdd05&projectId=e622c465-ee29-4445-8260-1f3431e06587","","2308","Was there a person in the picture?","1","",""
"","","","","","survey-likert","11","121531","0.0-9.0","9C94158C27524902B31BA4433DE6DBE5","9C94158C27524902B31BA4433DE6DBE5","e02c0e41-813a-467c-b8c9-b51d3f6bdd05","e622c465-ee29-4445-8260-1f3431e06587","{""participantId"":""9C94158C27524902B31BA4433DE6DBE5"",""assignmentId"":""e02c0e41-813a-467c-b8c9-b51d3f6bdd05"",""projectId"":""e622c465-ee29-4445-8260-1f3431e06587""}","https://test12345.live/?participantId=9C94158C27524902B31BA4433DE6DBE5&assignmentId=e02c0e41-813a-467c-b8c9-b51d3f6bdd05&projectId=e622c465-ee29-4445-8260-1f3431e06587","","5827","","{""Q0"":3}","","[0]"
"","","","","","html-button-response","12","126513","0.0-10.0","9C94158C27524902B31BA4433DE6DBE5","9C94158C27524902B31BA4433DE6DBE5","e02c0e41-813a-467c-b8c9-b51d3f6bdd05","e622c465-ee29-4445-8260-1f3431e06587","{""participantId"":""9C94158C27524902B31BA4433DE6DBE5"",""assignmentId"":""e02c0e41-813a-467c-b8c9-b51d3f6bdd05"",""projectId"":""e622c465-ee29-4445-8260-1f3431e06587""}","https://test12345.live/?participantId=9C94158C27524902B31BA4433DE6DBE5&assignmentId=e02c0e41-813a-467c-b8c9-b51d3f6bdd05&projectId=e622c465-ee29-4445-8260-1f3431e06587","","4979","
    <div style=""display: flex; justify-content: center; align-items: center;"">
      <img src=""images/blue_deck_1.png"" style=""width: 300px; height: 300px; margin-right: 10px;"" />
      <img src=""images/red_deck_2.png"" style=""width: 300px; height: 300px;"" />
    </div>","0","0",""
"","","","","","html-keyboard-response","13","129517","0.0-11.0-0.0","9C94158C27524902B31BA4433DE6DBE5","9C94158C27524902B31BA4433DE6DBE5","e02c0e41-813a-467c-b8c9-b51d3f6bdd05","e622c465-ee29-4445-8260-1f3431e06587","{""participantId"":""9C94158C27524902B31BA4433DE6DBE5"",""assignmentId"":""e02c0e41-813a-467c-b8c9-b51d3f6bdd05"",""projectId"":""e622c465-ee29-4445-8260-1f3431e06587""}","https://test12345.live/?participantId=9C94158C27524902B31BA4433DE6DBE5&assignmentId=e02c0e41-813a-467c-b8c9-b51d3f6bdd05&projectId=e622c465-ee29-4445-8260-1f3431e06587","","null","<div style=""display: flex; justify-content: center; align-items: center;"">
                    <img src=""images/causal/causal_series_4/causal_series_4_a.jpg"" style=""width: 300px; height: 300px;"" />
                  </div>","null","",""
"","","","","","html-keyboard-response","14","132523","0.0-11.0-1.0","9C94158C27524902B31BA4433DE6DBE5","9C94158C27524902B31BA4433DE6DBE5","e02c0e41-813a-467c-b8c9-b51d3f6bdd05","e622c465-ee29-4445-8260-1f3431e06587","{""participantId"":""9C94158C27524902B31BA4433DE6DBE5"",""assignmentId"":""e02c0e41-813a-467c-b8c9-b51d3f6bdd05"",""projectId"":""e622c465-ee29-4445-8260-1f3431e06587""}","https://test12345.live/?participantId=9C94158C27524902B31BA4433DE6DBE5&assignmentId=e02c0e41-813a-467c-b8c9-b51d3f6bdd05&projectId=e622c465-ee29-4445-8260-1f3431e06587","","null","<div style=""display: flex; justify-content: center; align-items: center;"">
                    <img src=""images/causal/causal_series_4/causal_series_4_b.jpg"" style=""width: 300px; height: 300px;"" />
                  </div>","null","",""
"","","","","","html-keyboard-response","15","135528","0.0-11.0-2.0","9C94158C27524902B31BA4433DE6DBE5","9C94158C27524902B31BA4433DE6DBE5","e02c0e41-813a-467c-b8c9-b51d3f6bdd05","e622c465-ee29-4445-8260-1f3431e06587","{""participantId"":""9C94158C27524902B31BA4433DE6DBE5"",""assignmentId"":""e02c0e41-813a-467c-b8c9-b51d3f6bdd05"",""projectId"":""e622c465-ee29-4445-8260-1f3431e06587""}","https://test12345.live/?participantId=9C94158C27524902B31BA4433DE6DBE5&assignmentId=e02c0e41-813a-467c-b8c9-b51d3f6bdd05&projectId=e622c465-ee29-4445-8260-1f3431e06587","","null","<div style=""display: flex; justify-content: center; align-items: center;"">
                    <img src=""images/causal/causal_series_4/causal_series_4_c.jpg"" style=""width: 300px; height: 300px;"" />
                  </div>","null","",""
"","","","","","html-keyboard-response","16","138533","0.0-11.0-3.0","9C94158C27524902B31BA4433DE6DBE5","9C94158C27524902B31BA4433DE6DBE5","e02c0e41-813a-467c-b8c9-b51d3f6bdd05","e622c465-ee29-4445-8260-1f3431e06587","{""participantId"":""9C94158C27524902B31BA4433DE6DBE5"",""assignmentId"":""e02c0e41-813a-467c-b8c9-b51d3f6bdd05"",""projectId"":""e622c465-ee29-4445-8260-1f3431e06587""}","https://test12345.live/?participantId=9C94158C27524902B31BA4433DE6DBE5&assignmentId=e02c0e41-813a-467c-b8c9-b51d3f6bdd05&projectId=e622c465-ee29-4445-8260-1f3431e06587","","null","<div style=""display: flex; justify-content: center; align-items: center;"">
                    <img src=""images/causal/causal_series_4/causal_series_4_d.jpg"" style=""width: 300px; height: 300px;"" />
                  </div>","null","",""
"","","","","","html-button-response","17","140130","0.0-13.0","9C94158C27524902B31BA4433DE6DBE5","9C94158C27524902B31BA4433DE6DBE5","e02c0e41-813a-467c-b8c9-b51d3f6bdd05","e622c465-ee29-4445-8260-1f3431e06587","{""participantId"":""9C94158C27524902B31BA4433DE6DBE5"",""assignmentId"":""e02c0e41-813a-467c-b8c9-b51d3f6bdd05"",""projectId"":""e622c465-ee29-4445-8260-1f3431e06587""}","https://test12345.live/?participantId=9C94158C27524902B31BA4433DE6DBE5&assignmentId=e02c0e41-813a-467c-b8c9-b51d3f6bdd05&projectId=e622c465-ee29-4445-8260-1f3431e06587","","1591","Was there a person in the picture?","1","",""
"","","","","","survey-likert","18","142661","0.0-14.0","9C94158C27524902B31BA4433DE6DBE5","9C94158C27524902B31BA4433DE6DBE5","e02c0e41-813a-467c-b8c9-b51d3f6bdd05","e622c465-ee29-4445-8260-1f3431e06587","{""participantId"":""9C94158C27524902B31BA4433DE6DBE5"",""assignmentId"":""e02c0e41-813a-467c-b8c9-b51d3f6bdd05"",""projectId"":""e622c465-ee29-4445-8260-1f3431e06587""}","https://test12345.live/?participantId=9C94158C27524902B31BA4433DE6DBE5&assignmentId=e02c0e41-813a-467c-b8c9-b51d3f6bdd05&projectId=e622c465-ee29-4445-8260-1f3431e06587","","2529","","{""Q0"":3}","","[0]"
"","","","","","html-button-response","19","143782","0.0-15.0","9C94158C27524902B31BA4433DE6DBE5","9C94158C27524902B31BA4433DE6DBE5","e02c0e41-813a-467c-b8c9-b51d3f6bdd05","e622c465-ee29-4445-8260-1f3431e06587","{""participantId"":""9C94158C27524902B31BA4433DE6DBE5"",""assignmentId"":""e02c0e41-813a-467c-b8c9-b51d3f6bdd05"",""projectId"":""e622c465-ee29-4445-8260-1f3431e06587""}","https://test12345.live/?participantId=9C94158C27524902B31BA4433DE6DBE5&assignmentId=e02c0e41-813a-467c-b8c9-b51d3f6bdd05&projectId=e622c465-ee29-4445-8260-1f3431e06587","","1119","
    <div style=""display: flex; justify-content: center; align-items: center;"">
      <img src=""images/blue_deck_1.png"" style=""width: 300px; height: 300px; margin-right: 10px;"" />
      <img src=""images/red_deck_2.png"" style=""width: 300px; height: 300px;"" />
    </div>","1","1",""
"","","","","","html-keyboard-response","20","146786","0.0-17.0-0.0","9C94158C27524902B31BA4433DE6DBE5","9C94158C27524902B31BA4433DE6DBE5","e02c0e41-813a-467c-b8c9-b51d3f6bdd05","e622c465-ee29-4445-8260-1f3431e06587","{""participantId"":""9C94158C27524902B31BA4433DE6DBE5"",""assignmentId"":""e02c0e41-813a-467c-b8c9-b51d3f6bdd05"",""projectId"":""e622c465-ee29-4445-8260-1f3431e06587""}","https://test12345.live/?participantId=9C94158C27524902B31BA4433DE6DBE5&assignmentId=e02c0e41-813a-467c-b8c9-b51d3f6bdd05&projectId=e622c465-ee29-4445-8260-1f3431e06587","","null","<div style=""display: flex; justify-content: center; align-items: center;"">
                    <img src=""images/semantic/semantic_series_1/semantic_series_1_a.jpg"" style=""width: 300px; height: 300px;"" />
                  </div>","null","",""
"","","","","","html-keyboard-response","21","149794","0.0-17.0-1.0","9C94158C27524902B31BA4433DE6DBE5","9C94158C27524902B31BA4433DE6DBE5","e02c0e41-813a-467c-b8c9-b51d3f6bdd05","e622c465-ee29-4445-8260-1f3431e06587","{""participantId"":""9C94158C27524902B31BA4433DE6DBE5"",""assignmentId"":""e02c0e41-813a-467c-b8c9-b51d3f6bdd05"",""projectId"":""e622c465-ee29-4445-8260-1f3431e06587""}","https://test12345.live/?participantId=9C94158C27524902B31BA4433DE6DBE5&assignmentId=e02c0e41-813a-467c-b8c9-b51d3f6bdd05&projectId=e622c465-ee29-4445-8260-1f3431e06587","","null","<div style=""display: flex; justify-content: center; align-items: center;"">
                    <img src=""images/semantic/semantic_series_1/semantic_series_1_b.jpg"" style=""width: 300px; height: 300px;"" />
                  </div>","null","",""
"","","","","","html-keyboard-response","22","152801","0.0-17.0-2.0","9C94158C27524902B31BA4433DE6DBE5","9C94158C27524902B31BA4433DE6DBE5","e02c0e41-813a-467c-b8c9-b51d3f6bdd05","e622c465-ee29-4445-8260-1f3431e06587","{""participantId"":""9C94158C27524902B31BA4433DE6DBE5"",""assignmentId"":""e02c0e41-813a-467c-b8c9-b51d3f6bdd05"",""projectId"":""e622c465-ee29-4445-8260-1f3431e06587""}","https://test12345.live/?participantId=9C94158C27524902B31BA4433DE6DBE5&assignmentId=e02c0e41-813a-467c-b8c9-b51d3f6bdd05&projectId=e622c465-ee29-4445-8260-1f3431e06587","","null","<div style=""display: flex; justify-content: center; align-items: center;"">
                    <img src=""images/semantic/semantic_series_1/semantic_series_1_c.jpg"" style=""width: 300px; height: 300px;"" />
                  </div>","null","",""
"","","","","","html-keyboard-response","23","155808","0.0-17.0-3.0","9C94158C27524902B31BA4433DE6DBE5","9C94158C27524902B31BA4433DE6DBE5","e02c0e41-813a-467c-b8c9-b51d3f6bdd05","e622c465-ee29-4445-8260-1f3431e06587","{""participantId"":""9C94158C27524902B31BA4433DE6DBE5"",""assignmentId"":""e02c0e41-813a-467c-b8c9-b51d3f6bdd05"",""projectId"":""e622c465-ee29-4445-8260-1f3431e06587""}","https://test12345.live/?participantId=9C94158C27524902B31BA4433DE6DBE5&assignmentId=e02c0e41-813a-467c-b8c9-b51d3f6bdd05&projectId=e622c465-ee29-4445-8260-1f3431e06587","","null","<div style=""display: flex; justify-content: center; align-items: center;"">
                    <img src=""images/semantic/semantic_series_1/semantic_series_1_d.jpg"" style=""width: 300px; height: 300px;"" />
                  </div>","null","",""
"","","","","","html-button-response","24","157095","0.0-18.0","9C94158C27524902B31BA4433DE6DBE5","9C94158C27524902B31BA4433DE6DBE5","e02c0e41-813a-467c-b8c9-b51d3f6bdd05","e622c465-ee29-4445-8260-1f3431e06587","{""participantId"":""9C94158C27524902B31BA4433DE6DBE5"",""assignmentId"":""e02c0e41-813a-467c-b8c9-b51d3f6bdd05"",""projectId"":""e622c465-ee29-4445-8260-1f3431e06587""}","https://test12345.live/?participantId=9C94158C27524902B31BA4433DE6DBE5&assignmentId=e02c0e41-813a-467c-b8c9-b51d3f6bdd05&projectId=e622c465-ee29-4445-8260-1f3431e06587","","1281","Was there a person in the picture?","0","",""
"","","","","","survey-likert","25","159755","0.0-19.0","9C94158C27524902B31BA4433DE6DBE5","9C94158C27524902B31BA4433DE6DBE5","e02c0e41-813a-467c-b8c9-b51d3f6bdd05","e622c465-ee29-4445-8260-1f3431e06587","{""participantId"":""9C94158C27524902B31BA4433DE6DBE5"",""assignmentId"":""e02c0e41-813a-467c-b8c9-b51d3f6bdd05"",""projectId"":""e622c465-ee29-4445-8260-1f3431e06587""}","https://test12345.live/?participantId=9C94158C27524902B31BA4433DE6DBE5&assignmentId=e02c0e41-813a-467c-b8c9-b51d3f6bdd05&projectId=e622c465-ee29-4445-8260-1f3431e06587","","2654","","{""Q0"":3}","","[0]"
"","","","","","html-button-response","26","160420","0.0-20.0","9C94158C27524902B31BA4433DE6DBE5","9C94158C27524902B31BA4433DE6DBE5","e02c0e41-813a-467c-b8c9-b51d3f6bdd05","e622c465-ee29-4445-8260-1f3431e06587","{""participantId"":""9C94158C27524902B31BA4433DE6DBE5"",""assignmentId"":""e02c0e41-813a-467c-b8c9-b51d3f6bdd05"",""projectId"":""e622c465-ee29-4445-8260-1f3431e06587""}","https://test12345.live/?participantId=9C94158C27524902B31BA4433DE6DBE5&assignmentId=e02c0e41-813a-467c-b8c9-b51d3f6bdd05&projectId=e622c465-ee29-4445-8260-1f3431e06587","","661","
    <div style=""display: flex; justify-content: center; align-items: center;"">
      <img src=""images/blue_deck_1.png"" style=""width: 300px; height: 300px; margin-right: 10px;"" />
      <img src=""images/red_deck_2.png"" style=""width: 300px; height: 300px;"" />
    </div>","0","0",""
"","","","","","html-keyboard-response","27","163423","0.0-21.0-0.0","9C94158C27524902B31BA4433DE6DBE5","9C94158C27524902B31BA4433DE6DBE5","e02c0e41-813a-467c-b8c9-b51d3f6bdd05","e622c465-ee29-4445-8260-1f3431e06587","{""participantId"":""9C94158C27524902B31BA4433DE6DBE5"",""assignmentId"":""e02c0e41-813a-467c-b8c9-b51d3f6bdd05"",""projectId"":""e622c465-ee29-4445-8260-1f3431e06587""}","https://test12345.live/?participantId=9C94158C27524902B31BA4433DE6DBE5&assignmentId=e02c0e41-813a-467c-b8c9-b51d3f6bdd05&projectId=e622c465-ee29-4445-8260-1f3431e06587","","null","<div style=""display: flex; justify-content: center; align-items: center;"">
                    <img src=""images/causal/causal_series_10/causal_series_10_a.jpg"" style=""width: 300px; height: 300px;"" />
                  </div>","null","",""
"","","","","","html-keyboard-response","28","166429","0.0-21.0-1.0","9C94158C27524902B31BA4433DE6DBE5","9C94158C27524902B31BA4433DE6DBE5","e02c0e41-813a-467c-b8c9-b51d3f6bdd05","e622c465-ee29-4445-8260-1f3431e06587","{""participantId"":""9C94158C27524902B31BA4433DE6DBE5"",""assignmentId"":""e02c0e41-813a-467c-b8c9-b51d3f6bdd05"",""projectId"":""e622c465-ee29-4445-8260-1f3431e06587""}","https://test12345.live/?participantId=9C94158C27524902B31BA4433DE6DBE5&assignmentId=e02c0e41-813a-467c-b8c9-b51d3f6bdd05&projectId=e622c465-ee29-4445-8260-1f3431e06587","","null","<div style=""display: flex; justify-content: center; align-items: center;"">
                    <img src=""images/causal/causal_series_10/causal_series_10_b.jpg"" style=""width: 300px; height: 300px;"" />
                  </div>","null","",""
"","","","","","html-keyboard-response","29","169435","0.0-21.0-2.0","9C94158C27524902B31BA4433DE6DBE5","9C94158C27524902B31BA4433DE6DBE5","e02c0e41-813a-467c-b8c9-b51d3f6bdd05","e622c465-ee29-4445-8260-1f3431e06587","{""participantId"":""9C94158C27524902B31BA4433DE6DBE5"",""assignmentId"":""e02c0e41-813a-467c-b8c9-b51d3f6bdd05"",""projectId"":""e622c465-ee29-4445-8260-1f3431e06587""}","https://test12345.live/?participantId=9C94158C27524902B31BA4433DE6DBE5&assignmentId=e02c0e41-813a-467c-b8c9-b51d3f6bdd05&projectId=e622c465-ee29-4445-8260-1f3431e06587","","null","<div style=""display: flex; justify-content: center; align-items: center;"">
                    <img src=""images/causal/causal_series_10/causal_series_10_c.jpg"" style=""width: 300px; height: 300px;"" />
                  </div>","null","",""
"","","","","","html-keyboard-response","30","172440","0.0-21.0-3.0","9C94158C27524902B31BA4433DE6DBE5","9C94158C27524902B31BA4433DE6DBE5","e02c0e41-813a-467c-b8c9-b51d3f6bdd05","e622c465-ee29-4445-8260-1f3431e06587","{""participantId"":""9C94158C27524902B31BA4433DE6DBE5"",""assignmentId"":""e02c0e41-813a-467c-b8c9-b51d3f6bdd05"",""projectId"":""e622c465-ee29-4445-8260-1f3431e06587""}","https://test12345.live/?participantId=9C94158C27524902B31BA4433DE6DBE5&assignmentId=e02c0e41-813a-467c-b8c9-b51d3f6bdd05&projectId=e622c465-ee29-4445-8260-1f3431e06587","","null","<div style=""display: flex; justify-content: center; align-items: center;"">
                    <img src=""images/causal/causal_series_10/causal_series_10_d.jpg"" style=""width: 300px; height: 300px;"" />
                  </div>","null","",""
"","","","","","html-button-response","31","173523","0.0-23.0","9C94158C27524902B31BA4433DE6DBE5","9C94158C27524902B31BA4433DE6DBE5","e02c0e41-813a-467c-b8c9-b51d3f6bdd05","e622c465-ee29-4445-8260-1f3431e06587","{""participantId"":""9C94158C27524902B31BA4433DE6DBE5"",""assignmentId"":""e02c0e41-813a-467c-b8c9-b51d3f6bdd05"",""projectId"":""e622c465-ee29-4445-8260-1f3431e06587""}","https://test12345.live/?participantId=9C94158C27524902B31BA4433DE6DBE5&assignmentId=e02c0e41-813a-467c-b8c9-b51d3f6bdd05&projectId=e622c465-ee29-4445-8260-1f3431e06587","","1076","Was there a person in the picture?","1","",""
"","","","","","survey-likert","32","174926","0.0-24.0","9C94158C27524902B31BA4433DE6DBE5","9C94158C27524902B31BA4433DE6DBE5","e02c0e41-813a-467c-b8c9-b51d3f6bdd05","e622c465-ee29-4445-8260-1f3431e06587","{""participantId"":""9C94158C27524902B31BA4433DE6DBE5"",""assignmentId"":""e02c0e41-813a-467c-b8c9-b51d3f6bdd05"",""projectId"":""e622c465-ee29-4445-8260-1f3431e06587""}","https://test12345.live/?participantId=9C94158C27524902B31BA4433DE6DBE5&assignmentId=e02c0e41-813a-467c-b8c9-b51d3f6bdd05&projectId=e622c465-ee29-4445-8260-1f3431e06587","","1401","","{""Q0"":2}","","[0]"
"","","","","","html-button-response","33","176692","0.0-25.0","9C94158C27524902B31BA4433DE6DBE5","9C94158C27524902B31BA4433DE6DBE5","e02c0e41-813a-467c-b8c9-b51d3f6bdd05","e622c465-ee29-4445-8260-1f3431e06587","{""participantId"":""9C94158C27524902B31BA4433DE6DBE5"",""assignmentId"":""e02c0e41-813a-467c-b8c9-b51d3f6bdd05"",""projectId"":""e622c465-ee29-4445-8260-1f3431e06587""}","https://test12345.live/?participantId=9C94158C27524902B31BA4433DE6DBE5&assignmentId=e02c0e41-813a-467c-b8c9-b51d3f6bdd05&projectId=e622c465-ee29-4445-8260-1f3431e06587","","1763","
    <div style=""display: flex; justify-content: center; align-items: center;"">
      <img src=""images/blue_deck_1.png"" style=""width: 300px; height: 300px; margin-right: 10px;"" />
      <img src=""images/red_deck_2.png"" style=""width: 300px; height: 300px;"" />
    </div>","1","1",""
"","","","","","html-keyboard-response","34","179695","0.0-27.0-0.0","9C94158C27524902B31BA4433DE6DBE5","9C94158C27524902B31BA4433DE6DBE5","e02c0e41-813a-467c-b8c9-b51d3f6bdd05","e622c465-ee29-4445-8260-1f3431e06587","{""participantId"":""9C94158C27524902B31BA4433DE6DBE5"",""assignmentId"":""e02c0e41-813a-467c-b8c9-b51d3f6bdd05"",""projectId"":""e622c465-ee29-4445-8260-1f3431e06587""}","https://test12345.live/?participantId=9C94158C27524902B31BA4433DE6DBE5&assignmentId=e02c0e41-813a-467c-b8c9-b51d3f6bdd05&projectId=e622c465-ee29-4445-8260-1f3431e06587","","null","<div style=""display: flex; justify-content: center; align-items: center;"">
                    <img src=""images/semantic/semantic_series_11/semantic_series_11_a.jpg"" style=""width: 300px; height: 300px;"" />
                  </div>","null","",""
"","","","","","html-keyboard-response","35","182700","0.0-27.0-1.0","9C94158C27524902B31BA4433DE6DBE5","9C94158C27524902B31BA4433DE6DBE5","e02c0e41-813a-467c-b8c9-b51d3f6bdd05","e622c465-ee29-4445-8260-1f3431e06587","{""participantId"":""9C94158C27524902B31BA4433DE6DBE5"",""assignmentId"":""e02c0e41-813a-467c-b8c9-b51d3f6bdd05"",""projectId"":""e622c465-ee29-4445-8260-1f3431e06587""}","https://test12345.live/?participantId=9C94158C27524902B31BA4433DE6DBE5&assignmentId=e02c0e41-813a-467c-b8c9-b51d3f6bdd05&projectId=e622c465-ee29-4445-8260-1f3431e06587","","null","<div style=""display: flex; justify-content: center; align-items: center;"">
                    <img src=""images/semantic/semantic_series_11/semantic_series_11_b.jpg"" style=""width: 300px; height: 300px;"" />
                  </div>","null","",""
"","","","","","html-keyboard-response","36","185706","0.0-27.0-2.0","9C94158C27524902B31BA4433DE6DBE5","9C94158C27524902B31BA4433DE6DBE5","e02c0e41-813a-467c-b8c9-b51d3f6bdd05","e622c465-ee29-4445-8260-1f3431e06587","{""participantId"":""9C94158C27524902B31BA4433DE6DBE5"",""assignmentId"":""e02c0e41-813a-467c-b8c9-b51d3f6bdd05"",""projectId"":""e622c465-ee29-4445-8260-1f3431e06587""}","https://test12345.live/?participantId=9C94158C27524902B31BA4433DE6DBE5&assignmentId=e02c0e41-813a-467c-b8c9-b51d3f6bdd05&projectId=e622c465-ee29-4445-8260-1f3431e06587","","null","<div style=""display: flex; justify-content: center; align-items: center;"">
                    <img src=""images/semantic/semantic_series_11/semantic_series_11_c.jpg"" style=""width: 300px; height: 300px;"" />
                  </div>","null","",""
"","","","","","html-keyboard-response","37","188712","0.0-27.0-3.0","9C94158C27524902B31BA4433DE6DBE5","9C94158C27524902B31BA4433DE6DBE5","e02c0e41-813a-467c-b8c9-b51d3f6bdd05","e622c465-ee29-4445-8260-1f3431e06587","{""participantId"":""9C94158C27524902B31BA4433DE6DBE5"",""assignmentId"":""e02c0e41-813a-467c-b8c9-b51d3f6bdd05"",""projectId"":""e622c465-ee29-4445-8260-1f3431e06587""}","https://test12345.live/?participantId=9C94158C27524902B31BA4433DE6DBE5&assignmentId=e02c0e41-813a-467c-b8c9-b51d3f6bdd05&projectId=e622c465-ee29-4445-8260-1f3431e06587","","null","<div style=""display: flex; justify-content: center; align-items: center;"">
                    <img src=""images/semantic/semantic_series_11/semantic_series_11_d.jpg"" style=""width: 300px; height: 300px;"" />
                  </div>","null","",""
"","","","","","html-button-response","38","189773","0.0-28.0","9C94158C27524902B31BA4433DE6DBE5","9C94158C27524902B31BA4433DE6DBE5","e02c0e41-813a-467c-b8c9-b51d3f6bdd05","e622c465-ee29-4445-8260-1f3431e06587","{""participantId"":""9C94158C27524902B31BA4433DE6DBE5"",""assignmentId"":""e02c0e41-813a-467c-b8c9-b51d3f6bdd05"",""projectId"":""e622c465-ee29-4445-8260-1f3431e06587""}","https://test12345.live/?participantId=9C94158C27524902B31BA4433DE6DBE5&assignmentId=e02c0e41-813a-467c-b8c9-b51d3f6bdd05&projectId=e622c465-ee29-4445-8260-1f3431e06587","","1056","Was there a person in the picture?","0","",""
"","","","","","survey-likert","39","191467","0.0-29.0","9C94158C27524902B31BA4433DE6DBE5","9C94158C27524902B31BA4433DE6DBE5","e02c0e41-813a-467c-b8c9-b51d3f6bdd05","e622c465-ee29-4445-8260-1f3431e06587","{""participantId"":""9C94158C27524902B31BA4433DE6DBE5"",""assignmentId"":""e02c0e41-813a-467c-b8c9-b51d3f6bdd05"",""projectId"":""e622c465-ee29-4445-8260-1f3431e06587""}","https://test12345.live/?participantId=9C94158C27524902B31BA4433DE6DBE5&assignmentId=e02c0e41-813a-467c-b8c9-b51d3f6bdd05&projectId=e622c465-ee29-4445-8260-1f3431e06587","","1692","","{""Q0"":3}","","[0]"
"","","","","","html-button-response","40","192738","0.0-30.0","9C94158C27524902B31BA4433DE6DBE5","9C94158C27524902B31BA4433DE6DBE5","e02c0e41-813a-467c-b8c9-b51d3f6bdd05","e622c465-ee29-4445-8260-1f3431e06587","{""participantId"":""9C94158C27524902B31BA4433DE6DBE5"",""assignmentId"":""e02c0e41-813a-467c-b8c9-b51d3f6bdd05"",""projectId"":""e622c465-ee29-4445-8260-1f3431e06587""}","https://test12345.live/?participantId=9C94158C27524902B31BA4433DE6DBE5&assignmentId=e02c0e41-813a-467c-b8c9-b51d3f6bdd05&projectId=e622c465-ee29-4445-8260-1f3431e06587","","1267","
    <div style=""display: flex; justify-content: center; align-items: center;"">
      <img src=""images/blue_deck_1.png"" style=""width: 300px; height: 300px; margin-right: 10px;"" />
      <img src=""images/red_deck_2.png"" style=""width: 300px; height: 300px;"" />
    </div>","1","1",""
"","","","","","html-keyboard-response","41","195741","0.0-32.0-0.0","9C94158C27524902B31BA4433DE6DBE5","9C94158C27524902B31BA4433DE6DBE5","e02c0e41-813a-467c-b8c9-b51d3f6bdd05","e622c465-ee29-4445-8260-1f3431e06587","{""participantId"":""9C94158C27524902B31BA4433DE6DBE5"",""assignmentId"":""e02c0e41-813a-467c-b8c9-b51d3f6bdd05"",""projectId"":""e622c465-ee29-4445-8260-1f3431e06587""}","https://test12345.live/?participantId=9C94158C27524902B31BA4433DE6DBE5&assignmentId=e02c0e41-813a-467c-b8c9-b51d3f6bdd05&projectId=e622c465-ee29-4445-8260-1f3431e06587","","null","<div style=""display: flex; justify-content: center; align-items: center;"">
                    <img src=""images/semantic/semantic_series_3/semantic_series_3_a.jpg"" style=""width: 300px; height: 300px;"" />
                  </div>","null","",""
"","","","","","html-keyboard-response","42","198745","0.0-32.0-1.0","9C94158C27524902B31BA4433DE6DBE5","9C94158C27524902B31BA4433DE6DBE5","e02c0e41-813a-467c-b8c9-b51d3f6bdd05","e622c465-ee29-4445-8260-1f3431e06587","{""participantId"":""9C94158C27524902B31BA4433DE6DBE5"",""assignmentId"":""e02c0e41-813a-467c-b8c9-b51d3f6bdd05"",""projectId"":""e622c465-ee29-4445-8260-1f3431e06587""}","https://test12345.live/?participantId=9C94158C27524902B31BA4433DE6DBE5&assignmentId=e02c0e41-813a-467c-b8c9-b51d3f6bdd05&projectId=e622c465-ee29-4445-8260-1f3431e06587","","null","<div style=""display: flex; justify-content: center; align-items: center;"">
                    <img src=""images/semantic/semantic_series_3/semantic_series_3_b.jpg"" style=""width: 300px; height: 300px;"" />
                  </div>","null","",""
"","","","","","html-keyboard-response","43","201750","0.0-32.0-2.0","9C94158C27524902B31BA4433DE6DBE5","9C94158C27524902B31BA4433DE6DBE5","e02c0e41-813a-467c-b8c9-b51d3f6bdd05","e622c465-ee29-4445-8260-1f3431e06587","{""participantId"":""9C94158C27524902B31BA4433DE6DBE5"",""assignmentId"":""e02c0e41-813a-467c-b8c9-b51d3f6bdd05"",""projectId"":""e622c465-ee29-4445-8260-1f3431e06587""}","https://test12345.live/?participantId=9C94158C27524902B31BA4433DE6DBE5&assignmentId=e02c0e41-813a-467c-b8c9-b51d3f6bdd05&projectId=e622c465-ee29-4445-8260-1f3431e06587","","null","<div style=""display: flex; justify-content: center; align-items: center;"">
                    <img src=""images/semantic/semantic_series_3/semantic_series_3_c.jpg"" style=""width: 300px; height: 300px;"" />
                  </div>","null","",""
"","","","","","html-keyboard-response","44","204754","0.0-32.0-3.0","9C94158C27524902B31BA4433DE6DBE5","9C94158C27524902B31BA4433DE6DBE5","e02c0e41-813a-467c-b8c9-b51d3f6bdd05","e622c465-ee29-4445-8260-1f3431e06587","{""participantId"":""9C94158C27524902B31BA4433DE6DBE5"",""assignmentId"":""e02c0e41-813a-467c-b8c9-b51d3f6bdd05"",""projectId"":""e622c465-ee29-4445-8260-1f3431e06587""}","https://test12345.live/?participantId=9C94158C27524902B31BA4433DE6DBE5&assignmentId=e02c0e41-813a-467c-b8c9-b51d3f6bdd05&projectId=e622c465-ee29-4445-8260-1f3431e06587","","null","<div style=""display: flex; justify-content: center; align-items: center;"">
                    <img src=""images/semantic/semantic_series_3/semantic_series_3_d.jpg"" style=""width: 300px; height: 300px;"" />
                  </div>","null","",""
"","","","","","html-button-response","45","205843","0.0-33.0","9C94158C27524902B31BA4433DE6DBE5","9C94158C27524902B31BA4433DE6DBE5","e02c0e41-813a-467c-b8c9-b51d3f6bdd05","e622c465-ee29-4445-8260-1f3431e06587","{""participantId"":""9C94158C27524902B31BA4433DE6DBE5"",""assignmentId"":""e02c0e41-813a-467c-b8c9-b51d3f6bdd05"",""projectId"":""e622c465-ee29-4445-8260-1f3431e06587""}","https://test12345.live/?participantId=9C94158C27524902B31BA4433DE6DBE5&assignmentId=e02c0e41-813a-467c-b8c9-b51d3f6bdd05&projectId=e622c465-ee29-4445-8260-1f3431e06587","","1087","Was there a person in the picture?","0","",""
"","","","","","survey-likert","46","207187","0.0-34.0","9C94158C27524902B31BA4433DE6DBE5","9C94158C27524902B31BA4433DE6DBE5","e02c0e41-813a-467c-b8c9-b51d3f6bdd05","e622c465-ee29-4445-8260-1f3431e06587","{""participantId"":""9C94158C27524902B31BA4433DE6DBE5"",""assignmentId"":""e02c0e41-813a-467c-b8c9-b51d3f6bdd05"",""projectId"":""e622c465-ee29-4445-8260-1f3431e06587""}","https://test12345.live/?participantId=9C94158C27524902B31BA4433DE6DBE5&assignmentId=e02c0e41-813a-467c-b8c9-b51d3f6bdd05&projectId=e622c465-ee29-4445-8260-1f3431e06587","","1342","","{""Q0"":3}","","[0]"
"","","","","","html-button-response","47","208243","0.0-35.0","9C94158C27524902B31BA4433DE6DBE5","9C94158C27524902B31BA4433DE6DBE5","e02c0e41-813a-467c-b8c9-b51d3f6bdd05","e622c465-ee29-4445-8260-1f3431e06587","{""participantId"":""9C94158C27524902B31BA4433DE6DBE5"",""assignmentId"":""e02c0e41-813a-467c-b8c9-b51d3f6bdd05"",""projectId"":""e622c465-ee29-4445-8260-1f3431e06587""}","https://test12345.live/?participantId=9C94158C27524902B31BA4433DE6DBE5&assignmentId=e02c0e41-813a-467c-b8c9-b51d3f6bdd05&projectId=e622c465-ee29-4445-8260-1f3431e06587","","1053","
    <div style=""display: flex; justify-content: center; align-items: center;"">
      <img src=""images/blue_deck_1.png"" style=""width: 300px; height: 300px; margin-right: 10px;"" />
      <img src=""images/red_deck_2.png"" style=""width: 300px; height: 300px;"" />
    </div>","0","0",""
"","","","","","html-keyboard-response","48","211246","0.0-36.0-0.0","9C94158C27524902B31BA4433DE6DBE5","9C94158C27524902B31BA4433DE6DBE5","e02c0e41-813a-467c-b8c9-b51d3f6bdd05","e622c465-ee29-4445-8260-1f3431e06587","{""participantId"":""9C94158C27524902B31BA4433DE6DBE5"",""assignmentId"":""e02c0e41-813a-467c-b8c9-b51d3f6bdd05"",""projectId"":""e622c465-ee29-4445-8260-1f3431e06587""}","https://test12345.live/?participantId=9C94158C27524902B31BA4433DE6DBE5&assignmentId=e02c0e41-813a-467c-b8c9-b51d3f6bdd05&projectId=e622c465-ee29-4445-8260-1f3431e06587","","null","<div style=""display: flex; justify-content: center; align-items: center;"">
                    <img src=""images/causal/causal_series_16/causal_series_16_a.jpg"" style=""width: 300px; height: 300px;"" />
                  </div>","null","",""
"","","","","","html-keyboard-response","49","214251","0.0-36.0-1.0","9C94158C27524902B31BA4433DE6DBE5","9C94158C27524902B31BA4433DE6DBE5","e02c0e41-813a-467c-b8c9-b51d3f6bdd05","e622c465-ee29-4445-8260-1f3431e06587","{""participantId"":""9C94158C27524902B31BA4433DE6DBE5"",""assignmentId"":""e02c0e41-813a-467c-b8c9-b51d3f6bdd05"",""projectId"":""e622c465-ee29-4445-8260-1f3431e06587""}","https://test12345.live/?participantId=9C94158C27524902B31BA4433DE6DBE5&assignmentId=e02c0e41-813a-467c-b8c9-b51d3f6bdd05&projectId=e622c465-ee29-4445-8260-1f3431e06587","","null","<div style=""display: flex; justify-content: center; align-items: center;"">
                    <img src=""images/causal/causal_series_16/causal_series_16_b.jpg"" style=""width: 300px; height: 300px;"" />
                  </div>","null","",""
"","","","","","html-keyboard-response","50","217255","0.0-36.0-2.0","9C94158C27524902B31BA4433DE6DBE5","9C94158C27524902B31BA4433DE6DBE5","e02c0e41-813a-467c-b8c9-b51d3f6bdd05","e622c465-ee29-4445-8260-1f3431e06587","{""participantId"":""9C94158C27524902B31BA4433DE6DBE5"",""assignmentId"":""e02c0e41-813a-467c-b8c9-b51d3f6bdd05"",""projectId"":""e622c465-ee29-4445-8260-1f3431e06587""}","https://test12345.live/?participantId=9C94158C27524902B31BA4433DE6DBE5&assignmentId=e02c0e41-813a-467c-b8c9-b51d3f6bdd05&projectId=e622c465-ee29-4445-8260-1f3431e06587","","null","<div style=""display: flex; justify-content: center; align-items: center;"">
                    <img src=""images/causal/causal_series_16/causal_series_16_c.jpg"" style=""width: 300px; height: 300px;"" />
                  </div>","null","",""
"","","","","","html-keyboard-response","51","220259","0.0-36.0-3.0","9C94158C27524902B31BA4433DE6DBE5","9C94158C27524902B31BA4433DE6DBE5","e02c0e41-813a-467c-b8c9-b51d3f6bdd05","e622c465-ee29-4445-8260-1f3431e06587","{""participantId"":""9C94158C27524902B31BA4433DE6DBE5"",""assignmentId"":""e02c0e41-813a-467c-b8c9-b51d3f6bdd05"",""projectId"":""e622c465-ee29-4445-8260-1f3431e06587""}","https://test12345.live/?participantId=9C94158C27524902B31BA4433DE6DBE5&assignmentId=e02c0e41-813a-467c-b8c9-b51d3f6bdd05&projectId=e622c465-ee29-4445-8260-1f3431e06587","","null","<div style=""display: flex; justify-content: center; align-items: center;"">
                    <img src=""images/causal/causal_series_16/causal_series_16_d.jpg"" style=""width: 300px; height: 300px;"" />
                  </div>","null","",""
"","","","","","html-button-response","52","221136","0.0-38.0","9C94158C27524902B31BA4433DE6DBE5","9C94158C27524902B31BA4433DE6DBE5","e02c0e41-813a-467c-b8c9-b51d3f6bdd05","e622c465-ee29-4445-8260-1f3431e06587","{""participantId"":""9C94158C27524902B31BA4433DE6DBE5"",""assignmentId"":""e02c0e41-813a-467c-b8c9-b51d3f6bdd05"",""projectId"":""e622c465-ee29-4445-8260-1f3431e06587""}","https://test12345.live/?participantId=9C94158C27524902B31BA4433DE6DBE5&assignmentId=e02c0e41-813a-467c-b8c9-b51d3f6bdd05&projectId=e622c465-ee29-4445-8260-1f3431e06587","","871","Was there a person in the picture?","0","",""
"","","","","","survey-likert","53","223376","0.0-39.0","9C94158C27524902B31BA4433DE6DBE5","9C94158C27524902B31BA4433DE6DBE5","e02c0e41-813a-467c-b8c9-b51d3f6bdd05","e622c465-ee29-4445-8260-1f3431e06587","{""participantId"":""9C94158C27524902B31BA4433DE6DBE5"",""assignmentId"":""e02c0e41-813a-467c-b8c9-b51d3f6bdd05"",""projectId"":""e622c465-ee29-4445-8260-1f3431e06587""}","https://test12345.live/?participantId=9C94158C27524902B31BA4433DE6DBE5&assignmentId=e02c0e41-813a-467c-b8c9-b51d3f6bdd05&projectId=e622c465-ee29-4445-8260-1f3431e06587","","2238","","{""Q0"":2}","","[0]"
"","","","","","html-button-response","54","224425","0.0-40.0","9C94158C27524902B31BA4433DE6DBE5","9C94158C27524902B31BA4433DE6DBE5","e02c0e41-813a-467c-b8c9-b51d3f6bdd05","e622c465-ee29-4445-8260-1f3431e06587","{""participantId"":""9C94158C27524902B31BA4433DE6DBE5"",""assignmentId"":""e02c0e41-813a-467c-b8c9-b51d3f6bdd05"",""projectId"":""e622c465-ee29-4445-8260-1f3431e06587""}","https://test12345.live/?participantId=9C94158C27524902B31BA4433DE6DBE5&assignmentId=e02c0e41-813a-467c-b8c9-b51d3f6bdd05&projectId=e622c465-ee29-4445-8260-1f3431e06587","","1046","
    <div style=""display: flex; justify-content: center; align-items: center;"">
      <img src=""images/blue_deck_1.png"" style=""width: 300px; height: 300px; margin-right: 10px;"" />
      <img src=""images/red_deck_2.png"" style=""width: 300px; height: 300px;"" />
    </div>","1","1",""
"","","","","","html-keyboard-response","55","227429","0.0-42.0-0.0","9C94158C27524902B31BA4433DE6DBE5","9C94158C27524902B31BA4433DE6DBE5","e02c0e41-813a-467c-b8c9-b51d3f6bdd05","e622c465-ee29-4445-8260-1f3431e06587","{""participantId"":""9C94158C27524902B31BA4433DE6DBE5"",""assignmentId"":""e02c0e41-813a-467c-b8c9-b51d3f6bdd05"",""projectId"":""e622c465-ee29-4445-8260-1f3431e06587""}","https://test12345.live/?participantId=9C94158C27524902B31BA4433DE6DBE5&assignmentId=e02c0e41-813a-467c-b8c9-b51d3f6bdd05&projectId=e622c465-ee29-4445-8260-1f3431e06587","","null","<div style=""display: flex; justify-content: center; align-items: center;"">
                    <img src=""images/semantic/semantic_series_5/semantic_series_5_a.jpg"" style=""width: 300px; height: 300px;"" />
                  </div>","null","",""
"","","","","","html-keyboard-response","56","230434","0.0-42.0-1.0","9C94158C27524902B31BA4433DE6DBE5","9C94158C27524902B31BA4433DE6DBE5","e02c0e41-813a-467c-b8c9-b51d3f6bdd05","e622c465-ee29-4445-8260-1f3431e06587","{""participantId"":""9C94158C27524902B31BA4433DE6DBE5"",""assignmentId"":""e02c0e41-813a-467c-b8c9-b51d3f6bdd05"",""projectId"":""e622c465-ee29-4445-8260-1f3431e06587""}","https://test12345.live/?participantId=9C94158C27524902B31BA4433DE6DBE5&assignmentId=e02c0e41-813a-467c-b8c9-b51d3f6bdd05&projectId=e622c465-ee29-4445-8260-1f3431e06587","","null","<div style=""display: flex; justify-content: center; align-items: center;"">
                    <img src=""images/semantic/semantic_series_5/semantic_series_5_b.jpg"" style=""width: 300px; height: 300px;"" />
                  </div>","null","",""
"","","","","","html-keyboard-response","57","233440","0.0-42.0-2.0","9C94158C27524902B31BA4433DE6DBE5","9C94158C27524902B31BA4433DE6DBE5","e02c0e41-813a-467c-b8c9-b51d3f6bdd05","e622c465-ee29-4445-8260-1f3431e06587","{""participantId"":""9C94158C27524902B31BA4433DE6DBE5"",""assignmentId"":""e02c0e41-813a-467c-b8c9-b51d3f6bdd05"",""projectId"":""e622c465-ee29-4445-8260-1f3431e06587""}","https://test12345.live/?participantId=9C94158C27524902B31BA4433DE6DBE5&assignmentId=e02c0e41-813a-467c-b8c9-b51d3f6bdd05&projectId=e622c465-ee29-4445-8260-1f3431e06587","","null","<div style=""display: flex; justify-content: center; align-items: center;"">
                    <img src=""images/semantic/semantic_series_5/semantic_series_5_c.jpg"" style=""width: 300px; height: 300px;"" />
                  </div>","null","",""
"","","","","","html-keyboard-response","58","236446","0.0-42.0-3.0","9C94158C27524902B31BA4433DE6DBE5","9C94158C27524902B31BA4433DE6DBE5","e02c0e41-813a-467c-b8c9-b51d3f6bdd05","e622c465-ee29-4445-8260-1f3431e06587","{""participantId"":""9C94158C27524902B31BA4433DE6DBE5"",""assignmentId"":""e02c0e41-813a-467c-b8c9-b51d3f6bdd05"",""projectId"":""e622c465-ee29-4445-8260-1f3431e06587""}","https://test12345.live/?participantId=9C94158C27524902B31BA4433DE6DBE5&assignmentId=e02c0e41-813a-467c-b8c9-b51d3f6bdd05&projectId=e622c465-ee29-4445-8260-1f3431e06587","","null","<div style=""display: flex; justify-content: center; align-items: center;"">
                    <img src=""images/semantic/semantic_series_5/semantic_series_5_d.jpg"" style=""width: 300px; height: 300px;"" />
                  </div>","null","",""
"","","","","","html-button-response","59","240435","0.0-43.0","9C94158C27524902B31BA4433DE6DBE5","9C94158C27524902B31BA4433DE6DBE5","e02c0e41-813a-467c-b8c9-b51d3f6bdd05","e622c465-ee29-4445-8260-1f3431e06587","{""participantId"":""9C94158C27524902B31BA4433DE6DBE5"",""assignmentId"":""e02c0e41-813a-467c-b8c9-b51d3f6bdd05"",""projectId"":""e622c465-ee29-4445-8260-1f3431e06587""}","https://test12345.live/?participantId=9C94158C27524902B31BA4433DE6DBE5&assignmentId=e02c0e41-813a-467c-b8c9-b51d3f6bdd05&projectId=e622c465-ee29-4445-8260-1f3431e06587","","3985","Was there a person in the picture?","0","",""
"","","","","","survey-likert","60","243154","0.0-44.0","9C94158C27524902B31BA4433DE6DBE5","9C94158C27524902B31BA4433DE6DBE5","e02c0e41-813a-467c-b8c9-b51d3f6bdd05","e622c465-ee29-4445-8260-1f3431e06587","{""participantId"":""9C94158C27524902B31BA4433DE6DBE5"",""assignmentId"":""e02c0e41-813a-467c-b8c9-b51d3f6bdd05"",""projectId"":""e622c465-ee29-4445-8260-1f3431e06587""}","https://test12345.live/?participantId=9C94158C27524902B31BA4433DE6DBE5&assignmentId=e02c0e41-813a-467c-b8c9-b51d3f6bdd05&projectId=e622c465-ee29-4445-8260-1f3431e06587","","2717","","{""Q0"":2}","","[0]"
"","","","","","html-button-response","61","244059","0.0-45.0","9C94158C27524902B31BA4433DE6DBE5","9C94158C27524902B31BA4433DE6DBE5","e02c0e41-813a-467c-b8c9-b51d3f6bdd05","e622c465-ee29-4445-8260-1f3431e06587","{""participantId"":""9C94158C27524902B31BA4433DE6DBE5"",""assignmentId"":""e02c0e41-813a-467c-b8c9-b51d3f6bdd05"",""projectId"":""e622c465-ee29-4445-8260-1f3431e06587""}","https://test12345.live/?participantId=9C94158C27524902B31BA4433DE6DBE5&assignmentId=e02c0e41-813a-467c-b8c9-b51d3f6bdd05&projectId=e622c465-ee29-4445-8260-1f3431e06587","","902","
    <div style=""display: flex; justify-content: center; align-items: center;"">
      <img src=""images/blue_deck_1.png"" style=""width: 300px; height: 300px; margin-right: 10px;"" />
      <img src=""images/red_deck_2.png"" style=""width: 300px; height: 300px;"" />
    </div>","1","1",""
"","","","","","html-keyboard-response","62","247063","0.0-47.0-0.0","9C94158C27524902B31BA4433DE6DBE5","9C94158C27524902B31BA4433DE6DBE5","e02c0e41-813a-467c-b8c9-b51d3f6bdd05","e622c465-ee29-4445-8260-1f3431e06587","{""participantId"":""9C94158C27524902B31BA4433DE6DBE5"",""assignmentId"":""e02c0e41-813a-467c-b8c9-b51d3f6bdd05"",""projectId"":""e622c465-ee29-4445-8260-1f3431e06587""}","https://test12345.live/?participantId=9C94158C27524902B31BA4433DE6DBE5&assignmentId=e02c0e41-813a-467c-b8c9-b51d3f6bdd05&projectId=e622c465-ee29-4445-8260-1f3431e06587","","null","<div style=""display: flex; justify-content: center; align-items: center;"">
                    <img src=""images/semantic/semantic_series_7/semantic_series_7_a.jpg"" style=""width: 300px; height: 300px;"" />
                  </div>","null","",""
"","","","","","html-keyboard-response","63","250067","0.0-47.0-1.0","9C94158C27524902B31BA4433DE6DBE5","9C94158C27524902B31BA4433DE6DBE5","e02c0e41-813a-467c-b8c9-b51d3f6bdd05","e622c465-ee29-4445-8260-1f3431e06587","{""participantId"":""9C94158C27524902B31BA4433DE6DBE5"",""assignmentId"":""e02c0e41-813a-467c-b8c9-b51d3f6bdd05"",""projectId"":""e622c465-ee29-4445-8260-1f3431e06587""}","https://test12345.live/?participantId=9C94158C27524902B31BA4433DE6DBE5&assignmentId=e02c0e41-813a-467c-b8c9-b51d3f6bdd05&projectId=e622c465-ee29-4445-8260-1f3431e06587","","null","<div style=""display: flex; justify-content: center; align-items: center;"">
                    <img src=""images/semantic/semantic_series_7/semantic_series_7_b.jpg"" style=""width: 300px; height: 300px;"" />
                  </div>","null","",""
"","","","","","html-keyboard-response","64","253073","0.0-47.0-2.0","9C94158C27524902B31BA4433DE6DBE5","9C94158C27524902B31BA4433DE6DBE5","e02c0e41-813a-467c-b8c9-b51d3f6bdd05","e622c465-ee29-4445-8260-1f3431e06587","{""participantId"":""9C94158C27524902B31BA4433DE6DBE5"",""assignmentId"":""e02c0e41-813a-467c-b8c9-b51d3f6bdd05"",""projectId"":""e622c465-ee29-4445-8260-1f3431e06587""}","https://test12345.live/?participantId=9C94158C27524902B31BA4433DE6DBE5&assignmentId=e02c0e41-813a-467c-b8c9-b51d3f6bdd05&projectId=e622c465-ee29-4445-8260-1f3431e06587","","null","<div style=""display: flex; justify-content: center; align-items: center;"">
                    <img src=""images/semantic/semantic_series_7/semantic_series_7_c.jpg"" style=""width: 300px; height: 300px;"" />
                  </div>","null","",""
"","","","","","html-keyboard-response","65","256077","0.0-47.0-3.0","9C94158C27524902B31BA4433DE6DBE5","9C94158C27524902B31BA4433DE6DBE5","e02c0e41-813a-467c-b8c9-b51d3f6bdd05","e622c465-ee29-4445-8260-1f3431e06587","{""participantId"":""9C94158C27524902B31BA4433DE6DBE5"",""assignmentId"":""e02c0e41-813a-467c-b8c9-b51d3f6bdd05"",""projectId"":""e622c465-ee29-4445-8260-1f3431e06587""}","https://test12345.live/?participantId=9C94158C27524902B31BA4433DE6DBE5&assignmentId=e02c0e41-813a-467c-b8c9-b51d3f6bdd05&projectId=e622c465-ee29-4445-8260-1f3431e06587","","null","<div style=""display: flex; justify-content: center; align-items: center;"">
                    <img src=""images/semantic/semantic_series_7/semantic_series_7_d.jpg"" style=""width: 300px; height: 300px;"" />
                  </div>","null","",""
"","","","","","html-button-response","66","257039","0.0-48.0","9C94158C27524902B31BA4433DE6DBE5","9C94158C27524902B31BA4433DE6DBE5","e02c0e41-813a-467c-b8c9-b51d3f6bdd05","e622c465-ee29-4445-8260-1f3431e06587","{""participantId"":""9C94158C27524902B31BA4433DE6DBE5"",""assignmentId"":""e02c0e41-813a-467c-b8c9-b51d3f6bdd05"",""projectId"":""e622c465-ee29-4445-8260-1f3431e06587""}","https://test12345.live/?participantId=9C94158C27524902B31BA4433DE6DBE5&assignmentId=e02c0e41-813a-467c-b8c9-b51d3f6bdd05&projectId=e622c465-ee29-4445-8260-1f3431e06587","","958","Was there a person in the picture?","1","",""
"","","","","","survey-likert","67","258268","0.0-49.0","9C94158C27524902B31BA4433DE6DBE5","9C94158C27524902B31BA4433DE6DBE5","e02c0e41-813a-467c-b8c9-b51d3f6bdd05","e622c465-ee29-4445-8260-1f3431e06587","{""participantId"":""9C94158C27524902B31BA4433DE6DBE5"",""assignmentId"":""e02c0e41-813a-467c-b8c9-b51d3f6bdd05"",""projectId"":""e622c465-ee29-4445-8260-1f3431e06587""}","https://test12345.live/?participantId=9C94158C27524902B31BA4433DE6DBE5&assignmentId=e02c0e41-813a-467c-b8c9-b51d3f6bdd05&projectId=e622c465-ee29-4445-8260-1f3431e06587","","1227","","{""Q0"":3}","","[0]"
"","","","","","html-button-response","68","259177","0.0-50.0","9C94158C27524902B31BA4433DE6DBE5","9C94158C27524902B31BA4433DE6DBE5","e02c0e41-813a-467c-b8c9-b51d3f6bdd05","e622c465-ee29-4445-8260-1f3431e06587","{""participantId"":""9C94158C27524902B31BA4433DE6DBE5"",""assignmentId"":""e02c0e41-813a-467c-b8c9-b51d3f6bdd05"",""projectId"":""e622c465-ee29-4445-8260-1f3431e06587""}","https://test12345.live/?participantId=9C94158C27524902B31BA4433DE6DBE5&assignmentId=e02c0e41-813a-467c-b8c9-b51d3f6bdd05&projectId=e622c465-ee29-4445-8260-1f3431e06587","","900","
    <div style=""display: flex; justify-content: center; align-items: center;"">
      <img src=""images/blue_deck_1.png"" style=""width: 300px; height: 300px; margin-right: 10px;"" />
      <img src=""images/red_deck_2.png"" style=""width: 300px; height: 300px;"" />
    </div>","1","1",""
"","","","","","html-keyboard-response","69","262181","0.0-52.0-0.0","9C94158C27524902B31BA4433DE6DBE5","9C94158C27524902B31BA4433DE6DBE5","e02c0e41-813a-467c-b8c9-b51d3f6bdd05","e622c465-ee29-4445-8260-1f3431e06587","{""participantId"":""9C94158C27524902B31BA4433DE6DBE5"",""assignmentId"":""e02c0e41-813a-467c-b8c9-b51d3f6bdd05"",""projectId"":""e622c465-ee29-4445-8260-1f3431e06587""}","https://test12345.live/?participantId=9C94158C27524902B31BA4433DE6DBE5&assignmentId=e02c0e41-813a-467c-b8c9-b51d3f6bdd05&projectId=e622c465-ee29-4445-8260-1f3431e06587","","null","<div style=""display: flex; justify-content: center; align-items: center;"">
                    <img src=""images/semantic/semantic_series_13/semantic_series_13_a.jpg"" style=""width: 300px; height: 300px;"" />
                  </div>","null","",""
"","","","","","html-keyboard-response","70","265187","0.0-52.0-1.0","9C94158C27524902B31BA4433DE6DBE5","9C94158C27524902B31BA4433DE6DBE5","e02c0e41-813a-467c-b8c9-b51d3f6bdd05","e622c465-ee29-4445-8260-1f3431e06587","{""participantId"":""9C94158C27524902B31BA4433DE6DBE5"",""assignmentId"":""e02c0e41-813a-467c-b8c9-b51d3f6bdd05"",""projectId"":""e622c465-ee29-4445-8260-1f3431e06587""}","https://test12345.live/?participantId=9C94158C27524902B31BA4433DE6DBE5&assignmentId=e02c0e41-813a-467c-b8c9-b51d3f6bdd05&projectId=e622c465-ee29-4445-8260-1f3431e06587","","null","<div style=""display: flex; justify-content: center; align-items: center;"">
                    <img src=""images/semantic/semantic_series_13/semantic_series_13_b.jpg"" style=""width: 300px; height: 300px;"" />
                  </div>","null","",""
"","","","","","html-keyboard-response","71","268193","0.0-52.0-2.0","9C94158C27524902B31BA4433DE6DBE5","9C94158C27524902B31BA4433DE6DBE5","e02c0e41-813a-467c-b8c9-b51d3f6bdd05","e622c465-ee29-4445-8260-1f3431e06587","{""participantId"":""9C94158C27524902B31BA4433DE6DBE5"",""assignmentId"":""e02c0e41-813a-467c-b8c9-b51d3f6bdd05"",""projectId"":""e622c465-ee29-4445-8260-1f3431e06587""}","https://test12345.live/?participantId=9C94158C27524902B31BA4433DE6DBE5&assignmentId=e02c0e41-813a-467c-b8c9-b51d3f6bdd05&projectId=e622c465-ee29-4445-8260-1f3431e06587","","null","<div style=""display: flex; justify-content: center; align-items: center;"">
                    <img src=""images/semantic/semantic_series_13/semantic_series_13_c.jpg"" style=""width: 300px; height: 300px;"" />
                  </div>","null","",""
"","","","","","html-keyboard-response","72","271199","0.0-52.0-3.0","9C94158C27524902B31BA4433DE6DBE5","9C94158C27524902B31BA4433DE6DBE5","e02c0e41-813a-467c-b8c9-b51d3f6bdd05","e622c465-ee29-4445-8260-1f3431e06587","{""participantId"":""9C94158C27524902B31BA4433DE6DBE5"",""assignmentId"":""e02c0e41-813a-467c-b8c9-b51d3f6bdd05"",""projectId"":""e622c465-ee29-4445-8260-1f3431e06587""}","https://test12345.live/?participantId=9C94158C27524902B31BA4433DE6DBE5&assignmentId=e02c0e41-813a-467c-b8c9-b51d3f6bdd05&projectId=e622c465-ee29-4445-8260-1f3431e06587","","null","<div style=""display: flex; justify-content: center; align-items: center;"">
                    <img src=""images/semantic/semantic_series_13/semantic_series_13_d.jpg"" style=""width: 300px; height: 300px;"" />
                  </div>","null","",""
"","","","","","html-button-response","73","272970","0.0-53.0","9C94158C27524902B31BA4433DE6DBE5","9C94158C27524902B31BA4433DE6DBE5","e02c0e41-813a-467c-b8c9-b51d3f6bdd05","e622c465-ee29-4445-8260-1f3431e06587","{""participantId"":""9C94158C27524902B31BA4433DE6DBE5"",""assignmentId"":""e02c0e41-813a-467c-b8c9-b51d3f6bdd05"",""projectId"":""e622c465-ee29-4445-8260-1f3431e06587""}","https://test12345.live/?participantId=9C94158C27524902B31BA4433DE6DBE5&assignmentId=e02c0e41-813a-467c-b8c9-b51d3f6bdd05&projectId=e622c465-ee29-4445-8260-1f3431e06587","","1766","Was there a person in the picture?","0","",""
"","","","","","survey-likert","74","274363","0.0-54.0","9C94158C27524902B31BA4433DE6DBE5","9C94158C27524902B31BA4433DE6DBE5","e02c0e41-813a-467c-b8c9-b51d3f6bdd05","e622c465-ee29-4445-8260-1f3431e06587","{""participantId"":""9C94158C27524902B31BA4433DE6DBE5"",""assignmentId"":""e02c0e41-813a-467c-b8c9-b51d3f6bdd05"",""projectId"":""e622c465-ee29-4445-8260-1f3431e06587""}","https://test12345.live/?participantId=9C94158C27524902B31BA4433DE6DBE5&assignmentId=e02c0e41-813a-467c-b8c9-b51d3f6bdd05&projectId=e622c465-ee29-4445-8260-1f3431e06587","","1390","","{""Q0"":3}","","[0]"
"","","","","","html-button-response","75","275257","0.0-55.0","9C94158C27524902B31BA4433DE6DBE5","9C94158C27524902B31BA4433DE6DBE5","e02c0e41-813a-467c-b8c9-b51d3f6bdd05","e622c465-ee29-4445-8260-1f3431e06587","{""participantId"":""9C94158C27524902B31BA4433DE6DBE5"",""assignmentId"":""e02c0e41-813a-467c-b8c9-b51d3f6bdd05"",""projectId"":""e622c465-ee29-4445-8260-1f3431e06587""}","https://test12345.live/?participantId=9C94158C27524902B31BA4433DE6DBE5&assignmentId=e02c0e41-813a-467c-b8c9-b51d3f6bdd05&projectId=e622c465-ee29-4445-8260-1f3431e06587","","892","
    <div style=""display: flex; justify-content: center; align-items: center;"">
      <img src=""images/blue_deck_1.png"" style=""width: 300px; height: 300px; margin-right: 10px;"" />
      <img src=""images/red_deck_2.png"" style=""width: 300px; height: 300px;"" />
    </div>","1","1",""
"","","","","","html-keyboard-response","76","278260","0.0-57.0-0.0","9C94158C27524902B31BA4433DE6DBE5","9C94158C27524902B31BA4433DE6DBE5","e02c0e41-813a-467c-b8c9-b51d3f6bdd05","e622c465-ee29-4445-8260-1f3431e06587","{""participantId"":""9C94158C27524902B31BA4433DE6DBE5"",""assignmentId"":""e02c0e41-813a-467c-b8c9-b51d3f6bdd05"",""projectId"":""e622c465-ee29-4445-8260-1f3431e06587""}","https://test12345.live/?participantId=9C94158C27524902B31BA4433DE6DBE5&assignmentId=e02c0e41-813a-467c-b8c9-b51d3f6bdd05&projectId=e622c465-ee29-4445-8260-1f3431e06587","","null","<div style=""display: flex; justify-content: center; align-items: center;"">
                    <img src=""images/semantic/semantic_series_17/semantic_series_17_a.jpg"" style=""width: 300px; height: 300px;"" />
                  </div>","null","",""
"","","","","","html-keyboard-response","77","281265","0.0-57.0-1.0","9C94158C27524902B31BA4433DE6DBE5","9C94158C27524902B31BA4433DE6DBE5","e02c0e41-813a-467c-b8c9-b51d3f6bdd05","e622c465-ee29-4445-8260-1f3431e06587","{""participantId"":""9C94158C27524902B31BA4433DE6DBE5"",""assignmentId"":""e02c0e41-813a-467c-b8c9-b51d3f6bdd05"",""projectId"":""e622c465-ee29-4445-8260-1f3431e06587""}","https://test12345.live/?participantId=9C94158C27524902B31BA4433DE6DBE5&assignmentId=e02c0e41-813a-467c-b8c9-b51d3f6bdd05&projectId=e622c465-ee29-4445-8260-1f3431e06587","","null","<div style=""display: flex; justify-content: center; align-items: center;"">
                    <img src=""images/semantic/semantic_series_17/semantic_series_17_b.jpg"" style=""width: 300px; height: 300px;"" />
                  </div>","null","",""
"","","","","","html-keyboard-response","78","284270","0.0-57.0-2.0","9C94158C27524902B31BA4433DE6DBE5","9C94158C27524902B31BA4433DE6DBE5","e02c0e41-813a-467c-b8c9-b51d3f6bdd05","e622c465-ee29-4445-8260-1f3431e06587","{""participantId"":""9C94158C27524902B31BA4433DE6DBE5"",""assignmentId"":""e02c0e41-813a-467c-b8c9-b51d3f6bdd05"",""projectId"":""e622c465-ee29-4445-8260-1f3431e06587""}","https://test12345.live/?participantId=9C94158C27524902B31BA4433DE6DBE5&assignmentId=e02c0e41-813a-467c-b8c9-b51d3f6bdd05&projectId=e622c465-ee29-4445-8260-1f3431e06587","","null","<div style=""display: flex; justify-content: center; align-items: center;"">
                    <img src=""images/semantic/semantic_series_17/semantic_series_17_c.jpg"" style=""width: 300px; height: 300px;"" />
                  </div>","null","",""
"","","","","","html-keyboard-response","79","287275","0.0-57.0-3.0","9C94158C27524902B31BA4433DE6DBE5","9C94158C27524902B31BA4433DE6DBE5","e02c0e41-813a-467c-b8c9-b51d3f6bdd05","e622c465-ee29-4445-8260-1f3431e06587","{""participantId"":""9C94158C27524902B31BA4433DE6DBE5"",""assignmentId"":""e02c0e41-813a-467c-b8c9-b51d3f6bdd05"",""projectId"":""e622c465-ee29-4445-8260-1f3431e06587""}","https://test12345.live/?participantId=9C94158C27524902B31BA4433DE6DBE5&assignmentId=e02c0e41-813a-467c-b8c9-b51d3f6bdd05&projectId=e622c465-ee29-4445-8260-1f3431e06587","","null","<div style=""display: flex; justify-content: center; align-items: center;"">
                    <img src=""images/semantic/semantic_series_17/semantic_series_17_d.jpg"" style=""width: 300px; height: 300px;"" />
                  </div>","null","",""
"","","","","","html-button-response","80","289117","0.0-58.0","9C94158C27524902B31BA4433DE6DBE5","9C94158C27524902B31BA4433DE6DBE5","e02c0e41-813a-467c-b8c9-b51d3f6bdd05","e622c465-ee29-4445-8260-1f3431e06587","{""participantId"":""9C94158C27524902B31BA4433DE6DBE5"",""assignmentId"":""e02c0e41-813a-467c-b8c9-b51d3f6bdd05"",""projectId"":""e622c465-ee29-4445-8260-1f3431e06587""}","https://test12345.live/?participantId=9C94158C27524902B31BA4433DE6DBE5&assignmentId=e02c0e41-813a-467c-b8c9-b51d3f6bdd05&projectId=e622c465-ee29-4445-8260-1f3431e06587","","1837","Was there a person in the picture?","0","",""
"","","","","","survey-likert","81","290686","0.0-59.0","9C94158C27524902B31BA4433DE6DBE5","9C94158C27524902B31BA4433DE6DBE5","e02c0e41-813a-467c-b8c9-b51d3f6bdd05","e622c465-ee29-4445-8260-1f3431e06587","{""participantId"":""9C94158C27524902B31BA4433DE6DBE5"",""assignmentId"":""e02c0e41-813a-467c-b8c9-b51d3f6bdd05"",""projectId"":""e622c465-ee29-4445-8260-1f3431e06587""}","https://test12345.live/?participantId=9C94158C27524902B31BA4433DE6DBE5&assignmentId=e02c0e41-813a-467c-b8c9-b51d3f6bdd05&projectId=e622c465-ee29-4445-8260-1f3431e06587","","1567","","{""Q0"":2}","","[0]"
"","","","","","html-button-response","82","291748","0.0-60.0","9C94158C27524902B31BA4433DE6DBE5","9C94158C27524902B31BA4433DE6DBE5","e02c0e41-813a-467c-b8c9-b51d3f6bdd05","e622c465-ee29-4445-8260-1f3431e06587","{""participantId"":""9C94158C27524902B31BA4433DE6DBE5"",""assignmentId"":""e02c0e41-813a-467c-b8c9-b51d3f6bdd05"",""projectId"":""e622c465-ee29-4445-8260-1f3431e06587""}","https://test12345.live/?participantId=9C94158C27524902B31BA4433DE6DBE5&assignmentId=e02c0e41-813a-467c-b8c9-b51d3f6bdd05&projectId=e622c465-ee29-4445-8260-1f3431e06587","","1060","
    <div style=""display: flex; justify-content: center; align-items: center;"">
      <img src=""images/blue_deck_1.png"" style=""width: 300px; height: 300px; margin-right: 10px;"" />
      <img src=""images/red_deck_2.png"" style=""width: 300px; height: 300px;"" />
    </div>","1","1",""
"","","","","","html-keyboard-response","83","294752","0.0-62.0-0.0","9C94158C27524902B31BA4433DE6DBE5","9C94158C27524902B31BA4433DE6DBE5","e02c0e41-813a-467c-b8c9-b51d3f6bdd05","e622c465-ee29-4445-8260-1f3431e06587","{""participantId"":""9C94158C27524902B31BA4433DE6DBE5"",""assignmentId"":""e02c0e41-813a-467c-b8c9-b51d3f6bdd05"",""projectId"":""e622c465-ee29-4445-8260-1f3431e06587""}","https://test12345.live/?participantId=9C94158C27524902B31BA4433DE6DBE5&assignmentId=e02c0e41-813a-467c-b8c9-b51d3f6bdd05&projectId=e622c465-ee29-4445-8260-1f3431e06587","","null","<div style=""display: flex; justify-content: center; align-items: center;"">
                    <img src=""images/semantic/semantic_series_12/semantic_series_12_a.jpg"" style=""width: 300px; height: 300px;"" />
                  </div>","null","",""
"","","","","","html-keyboard-response","84","297757","0.0-62.0-1.0","9C94158C27524902B31BA4433DE6DBE5","9C94158C27524902B31BA4433DE6DBE5","e02c0e41-813a-467c-b8c9-b51d3f6bdd05","e622c465-ee29-4445-8260-1f3431e06587","{""participantId"":""9C94158C27524902B31BA4433DE6DBE5"",""assignmentId"":""e02c0e41-813a-467c-b8c9-b51d3f6bdd05"",""projectId"":""e622c465-ee29-4445-8260-1f3431e06587""}","https://test12345.live/?participantId=9C94158C27524902B31BA4433DE6DBE5&assignmentId=e02c0e41-813a-467c-b8c9-b51d3f6bdd05&projectId=e622c465-ee29-4445-8260-1f3431e06587","","null","<div style=""display: flex; justify-content: center; align-items: center;"">
                    <img src=""images/semantic/semantic_series_12/semantic_series_12_b.jpg"" style=""width: 300px; height: 300px;"" />
                  </div>","null","",""
"","","","","","html-keyboard-response","85","300765","0.0-62.0-2.0","9C94158C27524902B31BA4433DE6DBE5","9C94158C27524902B31BA4433DE6DBE5","e02c0e41-813a-467c-b8c9-b51d3f6bdd05","e622c465-ee29-4445-8260-1f3431e06587","{""participantId"":""9C94158C27524902B31BA4433DE6DBE5"",""assignmentId"":""e02c0e41-813a-467c-b8c9-b51d3f6bdd05"",""projectId"":""e622c465-ee29-4445-8260-1f3431e06587""}","https://test12345.live/?participantId=9C94158C27524902B31BA4433DE6DBE5&assignmentId=e02c0e41-813a-467c-b8c9-b51d3f6bdd05&projectId=e622c465-ee29-4445-8260-1f3431e06587","","null","<div style=""display: flex; justify-content: center; align-items: center;"">
                    <img src=""images/semantic/semantic_series_12/semantic_series_12_c.jpg"" style=""width: 300px; height: 300px;"" />
                  </div>","null","",""
"","","","","","html-keyboard-response","86","303770","0.0-62.0-3.0","9C94158C27524902B31BA4433DE6DBE5","9C94158C27524902B31BA4433DE6DBE5","e02c0e41-813a-467c-b8c9-b51d3f6bdd05","e622c465-ee29-4445-8260-1f3431e06587","{""participantId"":""9C94158C27524902B31BA4433DE6DBE5"",""assignmentId"":""e02c0e41-813a-467c-b8c9-b51d3f6bdd05"",""projectId"":""e622c465-ee29-4445-8260-1f3431e06587""}","https://test12345.live/?participantId=9C94158C27524902B31BA4433DE6DBE5&assignmentId=e02c0e41-813a-467c-b8c9-b51d3f6bdd05&projectId=e622c465-ee29-4445-8260-1f3431e06587","","null","<div style=""display: flex; justify-content: center; align-items: center;"">
                    <img src=""images/semantic/semantic_series_12/semantic_series_12_d.jpg"" style=""width: 300px; height: 300px;"" />
                  </div>","null","",""
"","","","","","html-button-response","87","305606","0.0-63.0","9C94158C27524902B31BA4433DE6DBE5","9C94158C27524902B31BA4433DE6DBE5","e02c0e41-813a-467c-b8c9-b51d3f6bdd05","e622c465-ee29-4445-8260-1f3431e06587","{""participantId"":""9C94158C27524902B31BA4433DE6DBE5"",""assignmentId"":""e02c0e41-813a-467c-b8c9-b51d3f6bdd05"",""projectId"":""e622c465-ee29-4445-8260-1f3431e06587""}","https://test12345.live/?participantId=9C94158C27524902B31BA4433DE6DBE5&assignmentId=e02c0e41-813a-467c-b8c9-b51d3f6bdd05&projectId=e622c465-ee29-4445-8260-1f3431e06587","","1835","Was there a person in the picture?","1","",""
"","","","","","survey-likert","88","307911","0.0-64.0","9C94158C27524902B31BA4433DE6DBE5","9C94158C27524902B31BA4433DE6DBE5","e02c0e41-813a-467c-b8c9-b51d3f6bdd05","e622c465-ee29-4445-8260-1f3431e06587","{""participantId"":""9C94158C27524902B31BA4433DE6DBE5"",""assignmentId"":""e02c0e41-813a-467c-b8c9-b51d3f6bdd05"",""projectId"":""e622c465-ee29-4445-8260-1f3431e06587""}","https://test12345.live/?participantId=9C94158C27524902B31BA4433DE6DBE5&assignmentId=e02c0e41-813a-467c-b8c9-b51d3f6bdd05&projectId=e622c465-ee29-4445-8260-1f3431e06587","","2303","","{""Q0"":3}","","[0]"
"","","","","","html-button-response","89","309242","0.0-65.0","9C94158C27524902B31BA4433DE6DBE5","9C94158C27524902B31BA4433DE6DBE5","e02c0e41-813a-467c-b8c9-b51d3f6bdd05","e622c465-ee29-4445-8260-1f3431e06587","{""participantId"":""9C94158C27524902B31BA4433DE6DBE5"",""assignmentId"":""e02c0e41-813a-467c-b8c9-b51d3f6bdd05"",""projectId"":""e622c465-ee29-4445-8260-1f3431e06587""}","https://test12345.live/?participantId=9C94158C27524902B31BA4433DE6DBE5&assignmentId=e02c0e41-813a-467c-b8c9-b51d3f6bdd05&projectId=e622c465-ee29-4445-8260-1f3431e06587","","1328","
    <div style=""display: flex; justify-content: center; align-items: center;"">
      <img src=""images/blue_deck_1.png"" style=""width: 300px; height: 300px; margin-right: 10px;"" />
      <img src=""images/red_deck_2.png"" style=""width: 300px; height: 300px;"" />
    </div>","1","1",""
"","","","","","html-keyboard-response","90","312245","0.0-67.0-0.0","9C94158C27524902B31BA4433DE6DBE5","9C94158C27524902B31BA4433DE6DBE5","e02c0e41-813a-467c-b8c9-b51d3f6bdd05","e622c465-ee29-4445-8260-1f3431e06587","{""participantId"":""9C94158C27524902B31BA4433DE6DBE5"",""assignmentId"":""e02c0e41-813a-467c-b8c9-b51d3f6bdd05"",""projectId"":""e622c465-ee29-4445-8260-1f3431e06587""}","https://test12345.live/?participantId=9C94158C27524902B31BA4433DE6DBE5&assignmentId=e02c0e41-813a-467c-b8c9-b51d3f6bdd05&projectId=e622c465-ee29-4445-8260-1f3431e06587","","null","<div style=""display: flex; justify-content: center; align-items: center;"">
                    <img src=""images/semantic/semantic_series_6/semantic_series_6_a.jpg"" style=""width: 300px; height: 300px;"" />
                  </div>","null","",""
"","","","","","html-keyboard-response","91","315249","0.0-67.0-1.0","9C94158C27524902B31BA4433DE6DBE5","9C94158C27524902B31BA4433DE6DBE5","e02c0e41-813a-467c-b8c9-b51d3f6bdd05","e622c465-ee29-4445-8260-1f3431e06587","{""participantId"":""9C94158C27524902B31BA4433DE6DBE5"",""assignmentId"":""e02c0e41-813a-467c-b8c9-b51d3f6bdd05"",""projectId"":""e622c465-ee29-4445-8260-1f3431e06587""}","https://test12345.live/?participantId=9C94158C27524902B31BA4433DE6DBE5&assignmentId=e02c0e41-813a-467c-b8c9-b51d3f6bdd05&projectId=e622c465-ee29-4445-8260-1f3431e06587","","null","<div style=""display: flex; justify-content: center; align-items: center;"">
                    <img src=""images/semantic/semantic_series_6/semantic_series_6_b.jpg"" style=""width: 300px; height: 300px;"" />
                  </div>","null","",""
"","","","","","html-keyboard-response","92","318255","0.0-67.0-2.0","9C94158C27524902B31BA4433DE6DBE5","9C94158C27524902B31BA4433DE6DBE5","e02c0e41-813a-467c-b8c9-b51d3f6bdd05","e622c465-ee29-4445-8260-1f3431e06587","{""participantId"":""9C94158C27524902B31BA4433DE6DBE5"",""assignmentId"":""e02c0e41-813a-467c-b8c9-b51d3f6bdd05"",""projectId"":""e622c465-ee29-4445-8260-1f3431e06587""}","https://test12345.live/?participantId=9C94158C27524902B31BA4433DE6DBE5&assignmentId=e02c0e41-813a-467c-b8c9-b51d3f6bdd05&projectId=e622c465-ee29-4445-8260-1f3431e06587","","null","<div style=""display: flex; justify-content: center; align-items: center;"">
                    <img src=""images/semantic/semantic_series_6/semantic_series_6_c.jpg"" style=""width: 300px; height: 300px;"" />
                  </div>","null","",""
"","","","","","html-keyboard-response","93","321260","0.0-67.0-3.0","9C94158C27524902B31BA4433DE6DBE5","9C94158C27524902B31BA4433DE6DBE5","e02c0e41-813a-467c-b8c9-b51d3f6bdd05","e622c465-ee29-4445-8260-1f3431e06587","{""participantId"":""9C94158C27524902B31BA4433DE6DBE5"",""assignmentId"":""e02c0e41-813a-467c-b8c9-b51d3f6bdd05"",""projectId"":""e622c465-ee29-4445-8260-1f3431e06587""}","https://test12345.live/?participantId=9C94158C27524902B31BA4433DE6DBE5&assignmentId=e02c0e41-813a-467c-b8c9-b51d3f6bdd05&projectId=e622c465-ee29-4445-8260-1f3431e06587","","null","<div style=""display: flex; justify-content: center; align-items: center;"">
                    <img src=""images/semantic/semantic_series_6/semantic_series_6_d.jpg"" style=""width: 300px; height: 300px;"" />
                  </div>","null","",""
"","","","","","html-button-response","94","323770","0.0-68.0","9C94158C27524902B31BA4433DE6DBE5","9C94158C27524902B31BA4433DE6DBE5","e02c0e41-813a-467c-b8c9-b51d3f6bdd05","e622c465-ee29-4445-8260-1f3431e06587","{""participantId"":""9C94158C27524902B31BA4433DE6DBE5"",""assignmentId"":""e02c0e41-813a-467c-b8c9-b51d3f6bdd05"",""projectId"":""e622c465-ee29-4445-8260-1f3431e06587""}","https://test12345.live/?participantId=9C94158C27524902B31BA4433DE6DBE5&assignmentId=e02c0e41-813a-467c-b8c9-b51d3f6bdd05&projectId=e622c465-ee29-4445-8260-1f3431e06587","","2507","Was there a person in the picture?","1","",""
"","","","","","survey-likert","95","324931","0.0-69.0","9C94158C27524902B31BA4433DE6DBE5","9C94158C27524902B31BA4433DE6DBE5","e02c0e41-813a-467c-b8c9-b51d3f6bdd05","e622c465-ee29-4445-8260-1f3431e06587","{""participantId"":""9C94158C27524902B31BA4433DE6DBE5"",""assignmentId"":""e02c0e41-813a-467c-b8c9-b51d3f6bdd05"",""projectId"":""e622c465-ee29-4445-8260-1f3431e06587""}","https://test12345.live/?participantId=9C94158C27524902B31BA4433DE6DBE5&assignmentId=e02c0e41-813a-467c-b8c9-b51d3f6bdd05&projectId=e622c465-ee29-4445-8260-1f3431e06587","","1159","","{""Q0"":3}","","[0]"
"","","","","","html-button-response","96","325763","0.0-70.0","9C94158C27524902B31BA4433DE6DBE5","9C94158C27524902B31BA4433DE6DBE5","e02c0e41-813a-467c-b8c9-b51d3f6bdd05","e622c465-ee29-4445-8260-1f3431e06587","{""participantId"":""9C94158C27524902B31BA4433DE6DBE5"",""assignmentId"":""e02c0e41-813a-467c-b8c9-b51d3f6bdd05"",""projectId"":""e622c465-ee29-4445-8260-1f3431e06587""}","https://test12345.live/?participantId=9C94158C27524902B31BA4433DE6DBE5&assignmentId=e02c0e41-813a-467c-b8c9-b51d3f6bdd05&projectId=e622c465-ee29-4445-8260-1f3431e06587","","830","
    <div style=""display: flex; justify-content: center; align-items: center;"">
      <img src=""images/blue_deck_1.png"" style=""width: 300px; height: 300px; margin-right: 10px;"" />
      <img src=""images/red_deck_2.png"" style=""width: 300px; height: 300px;"" />
    </div>","1","1",""
"","","","","","html-keyboard-response","97","328776","0.0-72.0-0.0","9C94158C27524902B31BA4433DE6DBE5","9C94158C27524902B31BA4433DE6DBE5","e02c0e41-813a-467c-b8c9-b51d3f6bdd05","e622c465-ee29-4445-8260-1f3431e06587","{""participantId"":""9C94158C27524902B31BA4433DE6DBE5"",""assignmentId"":""e02c0e41-813a-467c-b8c9-b51d3f6bdd05"",""projectId"":""e622c465-ee29-4445-8260-1f3431e06587""}","https://test12345.live/?participantId=9C94158C27524902B31BA4433DE6DBE5&assignmentId=e02c0e41-813a-467c-b8c9-b51d3f6bdd05&projectId=e622c465-ee29-4445-8260-1f3431e06587","","null","<div style=""display: flex; justify-content: center; align-items: center;"">
                    <img src=""images/semantic/semantic_series_9/semantic_series_9_a.jpg"" style=""width: 300px; height: 300px;"" />
                  </div>","null","",""
"","","","","","html-keyboard-response","98","331791","0.0-72.0-1.0","9C94158C27524902B31BA4433DE6DBE5","9C94158C27524902B31BA4433DE6DBE5","e02c0e41-813a-467c-b8c9-b51d3f6bdd05","e622c465-ee29-4445-8260-1f3431e06587","{""participantId"":""9C94158C27524902B31BA4433DE6DBE5"",""assignmentId"":""e02c0e41-813a-467c-b8c9-b51d3f6bdd05"",""projectId"":""e622c465-ee29-4445-8260-1f3431e06587""}","https://test12345.live/?participantId=9C94158C27524902B31BA4433DE6DBE5&assignmentId=e02c0e41-813a-467c-b8c9-b51d3f6bdd05&projectId=e622c465-ee29-4445-8260-1f3431e06587","","null","<div style=""display: flex; justify-content: center; align-items: center;"">
                    <img src=""images/semantic/semantic_series_9/semantic_series_9_b.jpg"" style=""width: 300px; height: 300px;"" />
                  </div>","null","",""
"","","","","","html-keyboard-response","99","334796","0.0-72.0-2.0","9C94158C27524902B31BA4433DE6DBE5","9C94158C27524902B31BA4433DE6DBE5","e02c0e41-813a-467c-b8c9-b51d3f6bdd05","e622c465-ee29-4445-8260-1f3431e06587","{""participantId"":""9C94158C27524902B31BA4433DE6DBE5"",""assignmentId"":""e02c0e41-813a-467c-b8c9-b51d3f6bdd05"",""projectId"":""e622c465-ee29-4445-8260-1f3431e06587""}","https://test12345.live/?participantId=9C94158C27524902B31BA4433DE6DBE5&assignmentId=e02c0e41-813a-467c-b8c9-b51d3f6bdd05&projectId=e622c465-ee29-4445-8260-1f3431e06587","","null","<div style=""display: flex; justify-content: center; align-items: center;"">
                    <img src=""images/semantic/semantic_series_9/semantic_series_9_c.jpg"" style=""width: 300px; height: 300px;"" />
                  </div>","null","",""
"","","","","","html-keyboard-response","100","337806","0.0-72.0-3.0","9C94158C27524902B31BA4433DE6DBE5","9C94158C27524902B31BA4433DE6DBE5","e02c0e41-813a-467c-b8c9-b51d3f6bdd05","e622c465-ee29-4445-8260-1f3431e06587","{""participantId"":""9C94158C27524902B31BA4433DE6DBE5"",""assignmentId"":""e02c0e41-813a-467c-b8c9-b51d3f6bdd05"",""projectId"":""e622c465-ee29-4445-8260-1f3431e06587""}","https://test12345.live/?participantId=9C94158C27524902B31BA4433DE6DBE5&assignmentId=e02c0e41-813a-467c-b8c9-b51d3f6bdd05&projectId=e622c465-ee29-4445-8260-1f3431e06587","","null","<div style=""display: flex; justify-content: center; align-items: center;"">
                    <img src=""images/semantic/semantic_series_9/semantic_series_9_d.jpg"" style=""width: 300px; height: 300px;"" />
                  </div>","null","",""
"","","","","","html-button-response","101","344763","0.0-73.0","9C94158C27524902B31BA4433DE6DBE5","9C94158C27524902B31BA4433DE6DBE5","e02c0e41-813a-467c-b8c9-b51d3f6bdd05","e622c465-ee29-4445-8260-1f3431e06587","{""participantId"":""9C94158C27524902B31BA4433DE6DBE5"",""assignmentId"":""e02c0e41-813a-467c-b8c9-b51d3f6bdd05"",""projectId"":""e622c465-ee29-4445-8260-1f3431e06587""}","https://test12345.live/?participantId=9C94158C27524902B31BA4433DE6DBE5&assignmentId=e02c0e41-813a-467c-b8c9-b51d3f6bdd05&projectId=e622c465-ee29-4445-8260-1f3431e06587","","6951","Was there a person in the picture?","1","",""
"","","","","","survey-likert","102","346091","0.0-74.0","9C94158C27524902B31BA4433DE6DBE5","9C94158C27524902B31BA4433DE6DBE5","e02c0e41-813a-467c-b8c9-b51d3f6bdd05","e622c465-ee29-4445-8260-1f3431e06587","{""participantId"":""9C94158C27524902B31BA4433DE6DBE5"",""assignmentId"":""e02c0e41-813a-467c-b8c9-b51d3f6bdd05"",""projectId"":""e622c465-ee29-4445-8260-1f3431e06587""}","https://test12345.live/?participantId=9C94158C27524902B31BA4433DE6DBE5&assignmentId=e02c0e41-813a-467c-b8c9-b51d3f6bdd05&projectId=e622c465-ee29-4445-8260-1f3431e06587","","1326","","{""Q0"":3}","","[0]"
"","","","","","html-button-response","103","347162","0.0-75.0","9C94158C27524902B31BA4433DE6DBE5","9C94158C27524902B31BA4433DE6DBE5","e02c0e41-813a-467c-b8c9-b51d3f6bdd05","e622c465-ee29-4445-8260-1f3431e06587","{""participantId"":""9C94158C27524902B31BA4433DE6DBE5"",""assignmentId"":""e02c0e41-813a-467c-b8c9-b51d3f6bdd05"",""projectId"":""e622c465-ee29-4445-8260-1f3431e06587""}","https://test12345.live/?participantId=9C94158C27524902B31BA4433DE6DBE5&assignmentId=e02c0e41-813a-467c-b8c9-b51d3f6bdd05&projectId=e622c465-ee29-4445-8260-1f3431e06587","","1068","
    <div style=""display: flex; justify-content: center; align-items: center;"">
      <img src=""images/blue_deck_1.png"" style=""width: 300px; height: 300px; margin-right: 10px;"" />
      <img src=""images/red_deck_2.png"" style=""width: 300px; height: 300px;"" />
    </div>","0","0",""
"","","","","","html-keyboard-response","104","350166","0.0-76.0-0.0","9C94158C27524902B31BA4433DE6DBE5","9C94158C27524902B31BA4433DE6DBE5","e02c0e41-813a-467c-b8c9-b51d3f6bdd05","e622c465-ee29-4445-8260-1f3431e06587","{""participantId"":""9C94158C27524902B31BA4433DE6DBE5"",""assignmentId"":""e02c0e41-813a-467c-b8c9-b51d3f6bdd05"",""projectId"":""e622c465-ee29-4445-8260-1f3431e06587""}","https://test12345.live/?participantId=9C94158C27524902B31BA4433DE6DBE5&assignmentId=e02c0e41-813a-467c-b8c9-b51d3f6bdd05&projectId=e622c465-ee29-4445-8260-1f3431e06587","","null","<div style=""display: flex; justify-content: center; align-items: center;"">
                    <img src=""images/causal/causal_series_8/causal_series_8_a.jpg"" style=""width: 300px; height: 300px;"" />
                  </div>","null","",""
"","","","","","html-keyboard-response","105","353171","0.0-76.0-1.0","9C94158C27524902B31BA4433DE6DBE5","9C94158C27524902B31BA4433DE6DBE5","e02c0e41-813a-467c-b8c9-b51d3f6bdd05","e622c465-ee29-4445-8260-1f3431e06587","{""participantId"":""9C94158C27524902B31BA4433DE6DBE5"",""assignmentId"":""e02c0e41-813a-467c-b8c9-b51d3f6bdd05"",""projectId"":""e622c465-ee29-4445-8260-1f3431e06587""}","https://test12345.live/?participantId=9C94158C27524902B31BA4433DE6DBE5&assignmentId=e02c0e41-813a-467c-b8c9-b51d3f6bdd05&projectId=e622c465-ee29-4445-8260-1f3431e06587","","null","<div style=""display: flex; justify-content: center; align-items: center;"">
                    <img src=""images/causal/causal_series_8/causal_series_8_b.jpg"" style=""width: 300px; height: 300px;"" />
                  </div>","null","",""
"","","","","","html-keyboard-response","106","356179","0.0-76.0-2.0","9C94158C27524902B31BA4433DE6DBE5","9C94158C27524902B31BA4433DE6DBE5","e02c0e41-813a-467c-b8c9-b51d3f6bdd05","e622c465-ee29-4445-8260-1f3431e06587","{""participantId"":""9C94158C27524902B31BA4433DE6DBE5"",""assignmentId"":""e02c0e41-813a-467c-b8c9-b51d3f6bdd05"",""projectId"":""e622c465-ee29-4445-8260-1f3431e06587""}","https://test12345.live/?participantId=9C94158C27524902B31BA4433DE6DBE5&assignmentId=e02c0e41-813a-467c-b8c9-b51d3f6bdd05&projectId=e622c465-ee29-4445-8260-1f3431e06587","","null","<div style=""display: flex; justify-content: center; align-items: center;"">
                    <img src=""images/causal/causal_series_8/causal_series_8_c.jpg"" style=""width: 300px; height: 300px;"" />
                  </div>","null","",""
"","","","","","html-keyboard-response","107","359185","0.0-76.0-3.0","9C94158C27524902B31BA4433DE6DBE5","9C94158C27524902B31BA4433DE6DBE5","e02c0e41-813a-467c-b8c9-b51d3f6bdd05","e622c465-ee29-4445-8260-1f3431e06587","{""participantId"":""9C94158C27524902B31BA4433DE6DBE5"",""assignmentId"":""e02c0e41-813a-467c-b8c9-b51d3f6bdd05"",""projectId"":""e622c465-ee29-4445-8260-1f3431e06587""}","https://test12345.live/?participantId=9C94158C27524902B31BA4433DE6DBE5&assignmentId=e02c0e41-813a-467c-b8c9-b51d3f6bdd05&projectId=e622c465-ee29-4445-8260-1f3431e06587","","null","<div style=""display: flex; justify-content: center; align-items: center;"">
                    <img src=""images/causal/causal_series_8/causal_series_8_d.jpg"" style=""width: 300px; height: 300px;"" />
                  </div>","null","",""
"","","","","","html-button-response","108","360637","0.0-78.0","9C94158C27524902B31BA4433DE6DBE5","9C94158C27524902B31BA4433DE6DBE5","e02c0e41-813a-467c-b8c9-b51d3f6bdd05","e622c465-ee29-4445-8260-1f3431e06587","{""participantId"":""9C94158C27524902B31BA4433DE6DBE5"",""assignmentId"":""e02c0e41-813a-467c-b8c9-b51d3f6bdd05"",""projectId"":""e622c465-ee29-4445-8260-1f3431e06587""}","https://test12345.live/?participantId=9C94158C27524902B31BA4433DE6DBE5&assignmentId=e02c0e41-813a-467c-b8c9-b51d3f6bdd05&projectId=e622c465-ee29-4445-8260-1f3431e06587","","1447","Was there a person in the picture?","1","",""
"","","","","","survey-likert","109","361811","0.0-79.0","9C94158C27524902B31BA4433DE6DBE5","9C94158C27524902B31BA4433DE6DBE5","e02c0e41-813a-467c-b8c9-b51d3f6bdd05","e622c465-ee29-4445-8260-1f3431e06587","{""participantId"":""9C94158C27524902B31BA4433DE6DBE5"",""assignmentId"":""e02c0e41-813a-467c-b8c9-b51d3f6bdd05"",""projectId"":""e622c465-ee29-4445-8260-1f3431e06587""}","https://test12345.live/?participantId=9C94158C27524902B31BA4433DE6DBE5&assignmentId=e02c0e41-813a-467c-b8c9-b51d3f6bdd05&projectId=e622c465-ee29-4445-8260-1f3431e06587","","1172","","{""Q0"":4}","","[0]"
"","","","","","html-button-response","110","362732","0.0-80.0","9C94158C27524902B31BA4433DE6DBE5","9C94158C27524902B31BA4433DE6DBE5","e02c0e41-813a-467c-b8c9-b51d3f6bdd05","e622c465-ee29-4445-8260-1f3431e06587","{""participantId"":""9C94158C27524902B31BA4433DE6DBE5"",""assignmentId"":""e02c0e41-813a-467c-b8c9-b51d3f6bdd05"",""projectId"":""e622c465-ee29-4445-8260-1f3431e06587""}","https://test12345.live/?participantId=9C94158C27524902B31BA4433DE6DBE5&assignmentId=e02c0e41-813a-467c-b8c9-b51d3f6bdd05&projectId=e622c465-ee29-4445-8260-1f3431e06587","","917","
    <div style=""display: flex; justify-content: center; align-items: center;"">
      <img src=""images/blue_deck_1.png"" style=""width: 300px; height: 300px; margin-right: 10px;"" />
      <img src=""images/red_deck_2.png"" style=""width: 300px; height: 300px;"" />
    </div>","1","1",""
"","","","","","html-keyboard-response","111","365735","0.0-82.0-0.0","9C94158C27524902B31BA4433DE6DBE5","9C94158C27524902B31BA4433DE6DBE5","e02c0e41-813a-467c-b8c9-b51d3f6bdd05","e622c465-ee29-4445-8260-1f3431e06587","{""participantId"":""9C94158C27524902B31BA4433DE6DBE5"",""assignmentId"":""e02c0e41-813a-467c-b8c9-b51d3f6bdd05"",""projectId"":""e622c465-ee29-4445-8260-1f3431e06587""}","https://test12345.live/?participantId=9C94158C27524902B31BA4433DE6DBE5&assignmentId=e02c0e41-813a-467c-b8c9-b51d3f6bdd05&projectId=e622c465-ee29-4445-8260-1f3431e06587","","null","<div style=""display: flex; justify-content: center; align-items: center;"">
                    <img src=""images/semantic/semantic_series_2/semantic_series_2_a.jpg"" style=""width: 300px; height: 300px;"" />
                  </div>","null","",""
"","","","","","html-keyboard-response","112","368739","0.0-82.0-1.0","9C94158C27524902B31BA4433DE6DBE5","9C94158C27524902B31BA4433DE6DBE5","e02c0e41-813a-467c-b8c9-b51d3f6bdd05","e622c465-ee29-4445-8260-1f3431e06587","{""participantId"":""9C94158C27524902B31BA4433DE6DBE5"",""assignmentId"":""e02c0e41-813a-467c-b8c9-b51d3f6bdd05"",""projectId"":""e622c465-ee29-4445-8260-1f3431e06587""}","https://test12345.live/?participantId=9C94158C27524902B31BA4433DE6DBE5&assignmentId=e02c0e41-813a-467c-b8c9-b51d3f6bdd05&projectId=e622c465-ee29-4445-8260-1f3431e06587","","null","<div style=""display: flex; justify-content: center; align-items: center;"">
                    <img src=""images/semantic/semantic_series_2/semantic_series_2_b.jpg"" style=""width: 300px; height: 300px;"" />
                  </div>","null","",""
"","","","","","html-keyboard-response","113","371744","0.0-82.0-2.0","9C94158C27524902B31BA4433DE6DBE5","9C94158C27524902B31BA4433DE6DBE5","e02c0e41-813a-467c-b8c9-b51d3f6bdd05","e622c465-ee29-4445-8260-1f3431e06587","{""participantId"":""9C94158C27524902B31BA4433DE6DBE5"",""assignmentId"":""e02c0e41-813a-467c-b8c9-b51d3f6bdd05"",""projectId"":""e622c465-ee29-4445-8260-1f3431e06587""}","https://test12345.live/?participantId=9C94158C27524902B31BA4433DE6DBE5&assignmentId=e02c0e41-813a-467c-b8c9-b51d3f6bdd05&projectId=e622c465-ee29-4445-8260-1f3431e06587","","null","<div style=""display: flex; justify-content: center; align-items: center;"">
                    <img src=""images/semantic/semantic_series_2/semantic_series_2_c.jpg"" style=""width: 300px; height: 300px;"" />
                  </div>","null","",""
"","","","","","html-keyboard-response","114","374749","0.0-82.0-3.0","9C94158C27524902B31BA4433DE6DBE5","9C94158C27524902B31BA4433DE6DBE5","e02c0e41-813a-467c-b8c9-b51d3f6bdd05","e622c465-ee29-4445-8260-1f3431e06587","{""participantId"":""9C94158C27524902B31BA4433DE6DBE5"",""assignmentId"":""e02c0e41-813a-467c-b8c9-b51d3f6bdd05"",""projectId"":""e622c465-ee29-4445-8260-1f3431e06587""}","https://test12345.live/?participantId=9C94158C27524902B31BA4433DE6DBE5&assignmentId=e02c0e41-813a-467c-b8c9-b51d3f6bdd05&projectId=e622c465-ee29-4445-8260-1f3431e06587","","null","<div style=""display: flex; justify-content: center; align-items: center;"">
                    <img src=""images/semantic/semantic_series_2/semantic_series_2_d.jpg"" style=""width: 300px; height: 300px;"" />
                  </div>","null","",""
"","","","","","html-button-response","115","376267","0.0-83.0","9C94158C27524902B31BA4433DE6DBE5","9C94158C27524902B31BA4433DE6DBE5","e02c0e41-813a-467c-b8c9-b51d3f6bdd05","e622c465-ee29-4445-8260-1f3431e06587","{""participantId"":""9C94158C27524902B31BA4433DE6DBE5"",""assignmentId"":""e02c0e41-813a-467c-b8c9-b51d3f6bdd05"",""projectId"":""e622c465-ee29-4445-8260-1f3431e06587""}","https://test12345.live/?participantId=9C94158C27524902B31BA4433DE6DBE5&assignmentId=e02c0e41-813a-467c-b8c9-b51d3f6bdd05&projectId=e622c465-ee29-4445-8260-1f3431e06587","","1515","Was there a person in the picture?","0","",""
"","","","","","survey-likert","116","378169","0.0-84.0","9C94158C27524902B31BA4433DE6DBE5","9C94158C27524902B31BA4433DE6DBE5","e02c0e41-813a-467c-b8c9-b51d3f6bdd05","e622c465-ee29-4445-8260-1f3431e06587","{""participantId"":""9C94158C27524902B31BA4433DE6DBE5"",""assignmentId"":""e02c0e41-813a-467c-b8c9-b51d3f6bdd05"",""projectId"":""e622c465-ee29-4445-8260-1f3431e06587""}","https://test12345.live/?participantId=9C94158C27524902B31BA4433DE6DBE5&assignmentId=e02c0e41-813a-467c-b8c9-b51d3f6bdd05&projectId=e622c465-ee29-4445-8260-1f3431e06587","","1900","","{""Q0"":3}","","[0]"
"","","","","","html-button-response","117","381812","0.0-85.0","9C94158C27524902B31BA4433DE6DBE5","9C94158C27524902B31BA4433DE6DBE5","e02c0e41-813a-467c-b8c9-b51d3f6bdd05","e622c465-ee29-4445-8260-1f3431e06587","{""participantId"":""9C94158C27524902B31BA4433DE6DBE5"",""assignmentId"":""e02c0e41-813a-467c-b8c9-b51d3f6bdd05"",""projectId"":""e622c465-ee29-4445-8260-1f3431e06587""}","https://test12345.live/?participantId=9C94158C27524902B31BA4433DE6DBE5&assignmentId=e02c0e41-813a-467c-b8c9-b51d3f6bdd05&projectId=e622c465-ee29-4445-8260-1f3431e06587","","3641","
    <div style=""display: flex; justify-content: center; align-items: center;"">
      <img src=""images/blue_deck_1.png"" style=""width: 300px; height: 300px; margin-right: 10px;"" />
      <img src=""images/red_deck_2.png"" style=""width: 300px; height: 300px;"" />
    </div>","0","0",""
"","","","","","html-keyboard-response","118","384817","0.0-86.0-0.0","9C94158C27524902B31BA4433DE6DBE5","9C94158C27524902B31BA4433DE6DBE5","e02c0e41-813a-467c-b8c9-b51d3f6bdd05","e622c465-ee29-4445-8260-1f3431e06587","{""participantId"":""9C94158C27524902B31BA4433DE6DBE5"",""assignmentId"":""e02c0e41-813a-467c-b8c9-b51d3f6bdd05"",""projectId"":""e622c465-ee29-4445-8260-1f3431e06587""}","https://test12345.live/?participantId=9C94158C27524902B31BA4433DE6DBE5&assignmentId=e02c0e41-813a-467c-b8c9-b51d3f6bdd05&projectId=e622c465-ee29-4445-8260-1f3431e06587","","null","<div style=""display: flex; justify-content: center; align-items: center;"">
                    <img src=""images/causal/causal_series_6/causal_series_6_a.jpg"" style=""width: 300px; height: 300px;"" />
                  </div>","null","",""
"","","","","","html-keyboard-response","119","387821","0.0-86.0-1.0","9C94158C27524902B31BA4433DE6DBE5","9C94158C27524902B31BA4433DE6DBE5","e02c0e41-813a-467c-b8c9-b51d3f6bdd05","e622c465-ee29-4445-8260-1f3431e06587","{""participantId"":""9C94158C27524902B31BA4433DE6DBE5"",""assignmentId"":""e02c0e41-813a-467c-b8c9-b51d3f6bdd05"",""projectId"":""e622c465-ee29-4445-8260-1f3431e06587""}","https://test12345.live/?participantId=9C94158C27524902B31BA4433DE6DBE5&assignmentId=e02c0e41-813a-467c-b8c9-b51d3f6bdd05&projectId=e622c465-ee29-4445-8260-1f3431e06587","","null","<div style=""display: flex; justify-content: center; align-items: center;"">
                    <img src=""images/causal/causal_series_6/causal_series_6_b.jpg"" style=""width: 300px; height: 300px;"" />
                  </div>","null","",""
"","","","","","html-keyboard-response","120","390824","0.0-86.0-2.0","9C94158C27524902B31BA4433DE6DBE5","9C94158C27524902B31BA4433DE6DBE5","e02c0e41-813a-467c-b8c9-b51d3f6bdd05","e622c465-ee29-4445-8260-1f3431e06587","{""participantId"":""9C94158C27524902B31BA4433DE6DBE5"",""assignmentId"":""e02c0e41-813a-467c-b8c9-b51d3f6bdd05"",""projectId"":""e622c465-ee29-4445-8260-1f3431e06587""}","https://test12345.live/?participantId=9C94158C27524902B31BA4433DE6DBE5&assignmentId=e02c0e41-813a-467c-b8c9-b51d3f6bdd05&projectId=e622c465-ee29-4445-8260-1f3431e06587","","null","<div style=""display: flex; justify-content: center; align-items: center;"">
                    <img src=""images/causal/causal_series_6/causal_series_6_c.jpg"" style=""width: 300px; height: 300px;"" />
                  </div>","null","",""
"","","","","","html-keyboard-response","121","393827","0.0-86.0-3.0","9C94158C27524902B31BA4433DE6DBE5","9C94158C27524902B31BA4433DE6DBE5","e02c0e41-813a-467c-b8c9-b51d3f6bdd05","e622c465-ee29-4445-8260-1f3431e06587","{""participantId"":""9C94158C27524902B31BA4433DE6DBE5"",""assignmentId"":""e02c0e41-813a-467c-b8c9-b51d3f6bdd05"",""projectId"":""e622c465-ee29-4445-8260-1f3431e06587""}","https://test12345.live/?participantId=9C94158C27524902B31BA4433DE6DBE5&assignmentId=e02c0e41-813a-467c-b8c9-b51d3f6bdd05&projectId=e622c465-ee29-4445-8260-1f3431e06587","","null","<div style=""display: flex; justify-content: center; align-items: center;"">
                    <img src=""images/causal/causal_series_6/causal_series_6_d.jpg"" style=""width: 300px; height: 300px;"" />
                  </div>","null","",""
"","","","","","html-button-response","122","401587","0.0-88.0","9C94158C27524902B31BA4433DE6DBE5","9C94158C27524902B31BA4433DE6DBE5","e02c0e41-813a-467c-b8c9-b51d3f6bdd05","e622c465-ee29-4445-8260-1f3431e06587","{""participantId"":""9C94158C27524902B31BA4433DE6DBE5"",""assignmentId"":""e02c0e41-813a-467c-b8c9-b51d3f6bdd05"",""projectId"":""e622c465-ee29-4445-8260-1f3431e06587""}","https://test12345.live/?participantId=9C94158C27524902B31BA4433DE6DBE5&assignmentId=e02c0e41-813a-467c-b8c9-b51d3f6bdd05&projectId=e622c465-ee29-4445-8260-1f3431e06587","","7754","Was there a person in the picture?","1","",""
"","","","","","survey-likert","123","402792","0.0-89.0","9C94158C27524902B31BA4433DE6DBE5","9C94158C27524902B31BA4433DE6DBE5","e02c0e41-813a-467c-b8c9-b51d3f6bdd05","e622c465-ee29-4445-8260-1f3431e06587","{""participantId"":""9C94158C27524902B31BA4433DE6DBE5"",""assignmentId"":""e02c0e41-813a-467c-b8c9-b51d3f6bdd05"",""projectId"":""e622c465-ee29-4445-8260-1f3431e06587""}","https://test12345.live/?participantId=9C94158C27524902B31BA4433DE6DBE5&assignmentId=e02c0e41-813a-467c-b8c9-b51d3f6bdd05&projectId=e622c465-ee29-4445-8260-1f3431e06587","","1204","","{""Q0"":3}","","[0]"
"","","","","","html-button-response","124","404414","0.0-90.0","9C94158C27524902B31BA4433DE6DBE5","9C94158C27524902B31BA4433DE6DBE5","e02c0e41-813a-467c-b8c9-b51d3f6bdd05","e622c465-ee29-4445-8260-1f3431e06587","{""participantId"":""9C94158C27524902B31BA4433DE6DBE5"",""assignmentId"":""e02c0e41-813a-467c-b8c9-b51d3f6bdd05"",""projectId"":""e622c465-ee29-4445-8260-1f3431e06587""}","https://test12345.live/?participantId=9C94158C27524902B31BA4433DE6DBE5&assignmentId=e02c0e41-813a-467c-b8c9-b51d3f6bdd05&projectId=e622c465-ee29-4445-8260-1f3431e06587","","1619","
    <div style=""display: flex; justify-content: center; align-items: center;"">
      <img src=""images/blue_deck_1.png"" style=""width: 300px; height: 300px; margin-right: 10px;"" />
      <img src=""images/red_deck_2.png"" style=""width: 300px; height: 300px;"" />
    </div>","1","1",""
"","","","","","html-keyboard-response","125","407417","0.0-92.0-0.0","9C94158C27524902B31BA4433DE6DBE5","9C94158C27524902B31BA4433DE6DBE5","e02c0e41-813a-467c-b8c9-b51d3f6bdd05","e622c465-ee29-4445-8260-1f3431e06587","{""participantId"":""9C94158C27524902B31BA4433DE6DBE5"",""assignmentId"":""e02c0e41-813a-467c-b8c9-b51d3f6bdd05"",""projectId"":""e622c465-ee29-4445-8260-1f3431e06587""}","https://test12345.live/?participantId=9C94158C27524902B31BA4433DE6DBE5&assignmentId=e02c0e41-813a-467c-b8c9-b51d3f6bdd05&projectId=e622c465-ee29-4445-8260-1f3431e06587","","null","<div style=""display: flex; justify-content: center; align-items: center;"">
                    <img src=""images/semantic/semantic_series_18/semantic_series_18_a.jpg"" style=""width: 300px; height: 300px;"" />
                  </div>","null","",""
"","","","","","html-keyboard-response","126","410423","0.0-92.0-1.0","9C94158C27524902B31BA4433DE6DBE5","9C94158C27524902B31BA4433DE6DBE5","e02c0e41-813a-467c-b8c9-b51d3f6bdd05","e622c465-ee29-4445-8260-1f3431e06587","{""participantId"":""9C94158C27524902B31BA4433DE6DBE5"",""assignmentId"":""e02c0e41-813a-467c-b8c9-b51d3f6bdd05"",""projectId"":""e622c465-ee29-4445-8260-1f3431e06587""}","https://test12345.live/?participantId=9C94158C27524902B31BA4433DE6DBE5&assignmentId=e02c0e41-813a-467c-b8c9-b51d3f6bdd05&projectId=e622c465-ee29-4445-8260-1f3431e06587","","null","<div style=""display: flex; justify-content: center; align-items: center;"">
                    <img src=""images/semantic/semantic_series_18/semantic_series_18_b.jpg"" style=""width: 300px; height: 300px;"" />
                  </div>","null","",""
"","","","","","html-keyboard-response","127","413428","0.0-92.0-2.0","9C94158C27524902B31BA4433DE6DBE5","9C94158C27524902B31BA4433DE6DBE5","e02c0e41-813a-467c-b8c9-b51d3f6bdd05","e622c465-ee29-4445-8260-1f3431e06587","{""participantId"":""9C94158C27524902B31BA4433DE6DBE5"",""assignmentId"":""e02c0e41-813a-467c-b8c9-b51d3f6bdd05"",""projectId"":""e622c465-ee29-4445-8260-1f3431e06587""}","https://test12345.live/?participantId=9C94158C27524902B31BA4433DE6DBE5&assignmentId=e02c0e41-813a-467c-b8c9-b51d3f6bdd05&projectId=e622c465-ee29-4445-8260-1f3431e06587","","null","<div style=""display: flex; justify-content: center; align-items: center;"">
                    <img src=""images/semantic/semantic_series_18/semantic_series_18_c.jpg"" style=""width: 300px; height: 300px;"" />
                  </div>","null","",""
"","","","","","html-keyboard-response","128","416432","0.0-92.0-3.0","9C94158C27524902B31BA4433DE6DBE5","9C94158C27524902B31BA4433DE6DBE5","e02c0e41-813a-467c-b8c9-b51d3f6bdd05","e622c465-ee29-4445-8260-1f3431e06587","{""participantId"":""9C94158C27524902B31BA4433DE6DBE5"",""assignmentId"":""e02c0e41-813a-467c-b8c9-b51d3f6bdd05"",""projectId"":""e622c465-ee29-4445-8260-1f3431e06587""}","https://test12345.live/?participantId=9C94158C27524902B31BA4433DE6DBE5&assignmentId=e02c0e41-813a-467c-b8c9-b51d3f6bdd05&projectId=e622c465-ee29-4445-8260-1f3431e06587","","null","<div style=""display: flex; justify-content: center; align-items: center;"">
                    <img src=""images/semantic/semantic_series_18/semantic_series_18_d.jpg"" style=""width: 300px; height: 300px;"" />
                  </div>","null","",""
"","","","","","html-button-response","129","417623","0.0-93.0","9C94158C27524902B31BA4433DE6DBE5","9C94158C27524902B31BA4433DE6DBE5","e02c0e41-813a-467c-b8c9-b51d3f6bdd05","e622c465-ee29-4445-8260-1f3431e06587","{""participantId"":""9C94158C27524902B31BA4433DE6DBE5"",""assignmentId"":""e02c0e41-813a-467c-b8c9-b51d3f6bdd05"",""projectId"":""e622c465-ee29-4445-8260-1f3431e06587""}","https://test12345.live/?participantId=9C94158C27524902B31BA4433DE6DBE5&assignmentId=e02c0e41-813a-467c-b8c9-b51d3f6bdd05&projectId=e622c465-ee29-4445-8260-1f3431e06587","","1185","Was there a person in the picture?","1","",""
"","","","","","survey-likert","130","418869","0.0-94.0","9C94158C27524902B31BA4433DE6DBE5","9C94158C27524902B31BA4433DE6DBE5","e02c0e41-813a-467c-b8c9-b51d3f6bdd05","e622c465-ee29-4445-8260-1f3431e06587","{""participantId"":""9C94158C27524902B31BA4433DE6DBE5"",""assignmentId"":""e02c0e41-813a-467c-b8c9-b51d3f6bdd05"",""projectId"":""e622c465-ee29-4445-8260-1f3431e06587""}","https://test12345.live/?participantId=9C94158C27524902B31BA4433DE6DBE5&assignmentId=e02c0e41-813a-467c-b8c9-b51d3f6bdd05&projectId=e622c465-ee29-4445-8260-1f3431e06587","","1244","","{""Q0"":2}","","[0]"
"","","","","","survey-text","131","456515","0.0-95.0","9C94158C27524902B31BA4433DE6DBE5","9C94158C27524902B31BA4433DE6DBE5","e02c0e41-813a-467c-b8c9-b51d3f6bdd05","e622c465-ee29-4445-8260-1f3431e06587","{""participantId"":""9C94158C27524902B31BA4433DE6DBE5"",""assignmentId"":""e02c0e41-813a-467c-b8c9-b51d3f6bdd05"",""projectId"":""e622c465-ee29-4445-8260-1f3431e06587""}","https://test12345.live/?participantId=9C94158C27524902B31BA4433DE6DBE5&assignmentId=e02c0e41-813a-467c-b8c9-b51d3f6bdd05&projectId=e622c465-ee29-4445-8260-1f3431e06587","","37639","","{""Q0"":""One contain pictures of human beings in different activities and the other is more like paintings and toons""}","",""
