"success","timeout","failed_images","failed_audio","failed_video","trial_type","trial_index","time_elapsed","internal_node_id","subject","subject_id","study_id","session_id","urlvar","current_url","view_history","rt","stimulus","response","choice","question_order"
"true","false","[]","[]","[]","preload","0","1963","0.0-0.0","F931A989F00E45A58AC4BF8B5A2DB253","F931A989F00E45A58AC4BF8B5A2DB253","3f909c30-8476-42c9-ad41-46c056318418","54f8d589-66fc-4c65-830f-1dcc63bce8cc","{""participantId"":""F931A989F00E45A58AC4BF8B5A2DB253"",""assignmentId"":""3f909c30-8476-42c9-ad41-46c056318418"",""projectId"":""54f8d589-66fc-4c65-830f-1dcc63bce8cc""}","https://test12345.live/?participantId=F931A989F00E45A58AC4BF8B5A2DB253&assignmentId=3f909c30-8476-42c9-ad41-46c056318418&projectId=54f8d589-66fc-4c65-830f-1dcc63bce8cc","","","","","",""
"","","","","","instructions","1","147324","0.0-1.0","F931A989F00E45A58AC4BF8B5A2DB253","F931A989F00E45A58AC4BF8B5A2DB253","3f909c30-8476-42c9-ad41-46c056318418","54f8d589-66fc-4c65-830f-1dcc63bce8cc","{""participantId"":""F931A989F00E45A58AC4BF8B5A2DB253"",""assignmentId"":""3f909c30-8476-42c9-ad41-46c056318418"",""projectId"":""54f8d589-66fc-4c65-830f-1dcc63bce8cc""}","https://test12345.live/?participantId=F931A989F00E45A58AC4BF8B5A2DB253&assignmentId=3f909c30-8476-42c9-ad41-46c056318418&projectId=54f8d589-66fc-4c65-830f-1dcc63bce8cc","[{""page_index"":0,""viewing_time"":145356}]","145356","","","",""
"","","","","","instructions","2","191326","0.0-2.0","F931A989F00E45A58AC4BF8B5A2DB253","F931A989F00E45A58AC4BF8B5A2DB253","3f909c30-8476-42c9-ad41-46c056318418","54f8d589-66fc-4c65-830f-1dcc63bce8cc","{""participantId"":""F931A989F00E45A58AC4BF8B5A2DB253"",""assignmentId"":""3f909c30-8476-42c9-ad41-46c056318418"",""projectId"":""54f8d589-66fc-4c65-830f-1dcc63bce8cc""}","https://test12345.live/?participantId=F931A989F00E45A58AC4BF8B5A2DB253&assignmentId=3f909c30-8476-42c9-ad41-46c056318418&projectId=54f8d589-66fc-4c65-830f-1dcc63bce8cc","[{""page_index"":0,""viewing_time"":44001}]","44001","","","",""
"true","","","","","fullscreen","3","194165","0.0-3.0","F931A989F00E45A58AC4BF8B5A2DB253","F931A989F00E45A58AC4BF8B5A2DB253","3f909c30-8476-42c9-ad41-46c056318418","54f8d589-66fc-4c65-830f-1dcc63bce8cc","{""participantId"":""F931A989F00E45A58AC4BF8B5A2DB253"",""assignmentId"":""3f909c30-8476-42c9-ad41-46c056318418"",""projectId"":""54f8d589-66fc-4c65-830f-1dcc63bce8cc""}","https://test12345.live/?participantId=F931A989F00E45A58AC4BF8B5A2DB253&assignmentId=3f909c30-8476-42c9-ad41-46c056318418&projectId=54f8d589-66fc-4c65-830f-1dcc63bce8cc","","1835","","","",""
"","","","","","instructions","4","201754","0.0-4.0","F931A989F00E45A58AC4BF8B5A2DB253","F931A989F00E45A58AC4BF8B5A2DB253","3f909c30-8476-42c9-ad41-46c056318418","54f8d589-66fc-4c65-830f-1dcc63bce8cc","{""participantId"":""F931A989F00E45A58AC4BF8B5A2DB253"",""assignmentId"":""3f909c30-8476-42c9-ad41-46c056318418"",""projectId"":""54f8d589-66fc-4c65-830f-1dcc63bce8cc""}","https://test12345.live/?participantId=F931A989F00E45A58AC4BF8B5A2DB253&assignmentId=3f909c30-8476-42c9-ad41-46c056318418&projectId=54f8d589-66fc-4c65-830f-1dcc63bce8cc","[{""page_index"":0,""viewing_time"":7588}]","7588","","","",""
"","","","","","html-button-response","5","204677","0.0-5.0","F931A989F00E45A58AC4BF8B5A2DB253","F931A989F00E45A58AC4BF8B5A2DB253","3f909c30-8476-42c9-ad41-46c056318418","54f8d589-66fc-4c65-830f-1dcc63bce8cc","{""participantId"":""F931A989F00E45A58AC4BF8B5A2DB253"",""assignmentId"":""3f909c30-8476-42c9-ad41-46c056318418"",""projectId"":""54f8d589-66fc-4c65-830f-1dcc63bce8cc""}","https://test12345.live/?participantId=F931A989F00E45A58AC4BF8B5A2DB253&assignmentId=3f909c30-8476-42c9-ad41-46c056318418&projectId=54f8d589-66fc-4c65-830f-1dcc63bce8cc","","2922","
    <div style=""display: flex; justify-content: center; align-items: center;"">
      <img src=""images/red_deck_2.png"" style=""width: 300px; height: 300px; margin-right: 10px;"" />
      <img src=""images/blue_deck_1.png"" style=""width: 300px; height: 300px;"" />
    </div>","0","0",""
"","","","","","html-keyboard-response","6","207680","0.0-6.0-0.0","F931A989F00E45A58AC4BF8B5A2DB253","F931A989F00E45A58AC4BF8B5A2DB253","3f909c30-8476-42c9-ad41-46c056318418","54f8d589-66fc-4c65-830f-1dcc63bce8cc","{""participantId"":""F931A989F00E45A58AC4BF8B5A2DB253"",""assignmentId"":""3f909c30-8476-42c9-ad41-46c056318418"",""projectId"":""54f8d589-66fc-4c65-830f-1dcc63bce8cc""}","https://test12345.live/?participantId=F931A989F00E45A58AC4BF8B5A2DB253&assignmentId=3f909c30-8476-42c9-ad41-46c056318418&projectId=54f8d589-66fc-4c65-830f-1dcc63bce8cc","","null","<div style=""display: flex; justify-content: center; align-items: center;"">
                    <img src=""images/causal/causal_series_14/causal_series_14_a.jpg"" style=""width: 300px; height: 300px;"" />
                  </div>","null","",""
"","","","","","html-keyboard-response","7","210681","0.0-6.0-1.0","F931A989F00E45A58AC4BF8B5A2DB253","F931A989F00E45A58AC4BF8B5A2DB253","3f909c30-8476-42c9-ad41-46c056318418","54f8d589-66fc-4c65-830f-1dcc63bce8cc","{""participantId"":""F931A989F00E45A58AC4BF8B5A2DB253"",""assignmentId"":""3f909c30-8476-42c9-ad41-46c056318418"",""projectId"":""54f8d589-66fc-4c65-830f-1dcc63bce8cc""}","https://test12345.live/?participantId=F931A989F00E45A58AC4BF8B5A2DB253&assignmentId=3f909c30-8476-42c9-ad41-46c056318418&projectId=54f8d589-66fc-4c65-830f-1dcc63bce8cc","","null","<div style=""display: flex; justify-content: center; align-items: center;"">
                    <img src=""images/causal/causal_series_14/causal_series_14_b.jpg"" style=""width: 300px; height: 300px;"" />
                  </div>","null","",""
"","","","","","html-keyboard-response","8","213683","0.0-6.0-2.0","F931A989F00E45A58AC4BF8B5A2DB253","F931A989F00E45A58AC4BF8B5A2DB253","3f909c30-8476-42c9-ad41-46c056318418","54f8d589-66fc-4c65-830f-1dcc63bce8cc","{""participantId"":""F931A989F00E45A58AC4BF8B5A2DB253"",""assignmentId"":""3f909c30-8476-42c9-ad41-46c056318418"",""projectId"":""54f8d589-66fc-4c65-830f-1dcc63bce8cc""}","https://test12345.live/?participantId=F931A989F00E45A58AC4BF8B5A2DB253&assignmentId=3f909c30-8476-42c9-ad41-46c056318418&projectId=54f8d589-66fc-4c65-830f-1dcc63bce8cc","","null","<div style=""display: flex; justify-content: center; align-items: center;"">
                    <img src=""images/causal/causal_series_14/causal_series_14_c.jpg"" style=""width: 300px; height: 300px;"" />
                  </div>","null","",""
"","","","","","html-keyboard-response","9","216685","0.0-6.0-3.0","F931A989F00E45A58AC4BF8B5A2DB253","F931A989F00E45A58AC4BF8B5A2DB253","3f909c30-8476-42c9-ad41-46c056318418","54f8d589-66fc-4c65-830f-1dcc63bce8cc","{""participantId"":""F931A989F00E45A58AC4BF8B5A2DB253"",""assignmentId"":""3f909c30-8476-42c9-ad41-46c056318418"",""projectId"":""54f8d589-66fc-4c65-830f-1dcc63bce8cc""}","https://test12345.live/?participantId=F931A989F00E45A58AC4BF8B5A2DB253&assignmentId=3f909c30-8476-42c9-ad41-46c056318418&projectId=54f8d589-66fc-4c65-830f-1dcc63bce8cc","","null","<div style=""display: flex; justify-content: center; align-items: center;"">
                    <img src=""images/causal/causal_series_14/causal_series_14_d.jpg"" style=""width: 300px; height: 300px;"" />
                  </div>","null","",""
"","","","","","html-button-response","10","218340","0.0-8.0","F931A989F00E45A58AC4BF8B5A2DB253","F931A989F00E45A58AC4BF8B5A2DB253","3f909c30-8476-42c9-ad41-46c056318418","54f8d589-66fc-4c65-830f-1dcc63bce8cc","{""participantId"":""F931A989F00E45A58AC4BF8B5A2DB253"",""assignmentId"":""3f909c30-8476-42c9-ad41-46c056318418"",""projectId"":""54f8d589-66fc-4c65-830f-1dcc63bce8cc""}","https://test12345.live/?participantId=F931A989F00E45A58AC4BF8B5A2DB253&assignmentId=3f909c30-8476-42c9-ad41-46c056318418&projectId=54f8d589-66fc-4c65-830f-1dcc63bce8cc","","1654","Was there a person in the picture?","0","",""
"","","","","","survey-likert","11","221991","0.0-9.0","F931A989F00E45A58AC4BF8B5A2DB253","F931A989F00E45A58AC4BF8B5A2DB253","3f909c30-8476-42c9-ad41-46c056318418","54f8d589-66fc-4c65-830f-1dcc63bce8cc","{""participantId"":""F931A989F00E45A58AC4BF8B5A2DB253"",""assignmentId"":""3f909c30-8476-42c9-ad41-46c056318418"",""projectId"":""54f8d589-66fc-4c65-830f-1dcc63bce8cc""}","https://test12345.live/?participantId=F931A989F00E45A58AC4BF8B5A2DB253&assignmentId=3f909c30-8476-42c9-ad41-46c056318418&projectId=54f8d589-66fc-4c65-830f-1dcc63bce8cc","","3649","","{""Q0"":1}","","[0]"
"","","","","","html-button-response","12","223073","0.0-10.0","F931A989F00E45A58AC4BF8B5A2DB253","F931A989F00E45A58AC4BF8B5A2DB253","3f909c30-8476-42c9-ad41-46c056318418","54f8d589-66fc-4c65-830f-1dcc63bce8cc","{""participantId"":""F931A989F00E45A58AC4BF8B5A2DB253"",""assignmentId"":""3f909c30-8476-42c9-ad41-46c056318418"",""projectId"":""54f8d589-66fc-4c65-830f-1dcc63bce8cc""}","https://test12345.live/?participantId=F931A989F00E45A58AC4BF8B5A2DB253&assignmentId=3f909c30-8476-42c9-ad41-46c056318418&projectId=54f8d589-66fc-4c65-830f-1dcc63bce8cc","","1080","
    <div style=""display: flex; justify-content: center; align-items: center;"">
      <img src=""images/red_deck_2.png"" style=""width: 300px; height: 300px; margin-right: 10px;"" />
      <img src=""images/blue_deck_1.png"" style=""width: 300px; height: 300px;"" />
    </div>","1","1",""
"","","","","","html-keyboard-response","13","226076","0.0-12.0-0.0","F931A989F00E45A58AC4BF8B5A2DB253","F931A989F00E45A58AC4BF8B5A2DB253","3f909c30-8476-42c9-ad41-46c056318418","54f8d589-66fc-4c65-830f-1dcc63bce8cc","{""participantId"":""F931A989F00E45A58AC4BF8B5A2DB253"",""assignmentId"":""3f909c30-8476-42c9-ad41-46c056318418"",""projectId"":""54f8d589-66fc-4c65-830f-1dcc63bce8cc""}","https://test12345.live/?participantId=F931A989F00E45A58AC4BF8B5A2DB253&assignmentId=3f909c30-8476-42c9-ad41-46c056318418&projectId=54f8d589-66fc-4c65-830f-1dcc63bce8cc","","null","<div style=""display: flex; justify-content: center; align-items: center;"">
                    <img src=""images/semantic/semantic_series_8/semantic_series_8_a.jpg"" style=""width: 300px; height: 300px;"" />
                  </div>","null","",""
"","","","","","html-keyboard-response","14","229078","0.0-12.0-1.0","F931A989F00E45A58AC4BF8B5A2DB253","F931A989F00E45A58AC4BF8B5A2DB253","3f909c30-8476-42c9-ad41-46c056318418","54f8d589-66fc-4c65-830f-1dcc63bce8cc","{""participantId"":""F931A989F00E45A58AC4BF8B5A2DB253"",""assignmentId"":""3f909c30-8476-42c9-ad41-46c056318418"",""projectId"":""54f8d589-66fc-4c65-830f-1dcc63bce8cc""}","https://test12345.live/?participantId=F931A989F00E45A58AC4BF8B5A2DB253&assignmentId=3f909c30-8476-42c9-ad41-46c056318418&projectId=54f8d589-66fc-4c65-830f-1dcc63bce8cc","","null","<div style=""display: flex; justify-content: center; align-items: center;"">
                    <img src=""images/semantic/semantic_series_8/semantic_series_8_b.jpg"" style=""width: 300px; height: 300px;"" />
                  </div>","null","",""
"","","","","","html-keyboard-response","15","232080","0.0-12.0-2.0","F931A989F00E45A58AC4BF8B5A2DB253","F931A989F00E45A58AC4BF8B5A2DB253","3f909c30-8476-42c9-ad41-46c056318418","54f8d589-66fc-4c65-830f-1dcc63bce8cc","{""participantId"":""F931A989F00E45A58AC4BF8B5A2DB253"",""assignmentId"":""3f909c30-8476-42c9-ad41-46c056318418"",""projectId"":""54f8d589-66fc-4c65-830f-1dcc63bce8cc""}","https://test12345.live/?participantId=F931A989F00E45A58AC4BF8B5A2DB253&assignmentId=3f909c30-8476-42c9-ad41-46c056318418&projectId=54f8d589-66fc-4c65-830f-1dcc63bce8cc","","null","<div style=""display: flex; justify-content: center; align-items: center;"">
                    <img src=""images/semantic/semantic_series_8/semantic_series_8_c.jpg"" style=""width: 300px; height: 300px;"" />
                  </div>","null","",""
"","","","","","html-keyboard-response","16","235082","0.0-12.0-3.0","F931A989F00E45A58AC4BF8B5A2DB253","F931A989F00E45A58AC4BF8B5A2DB253","3f909c30-8476-42c9-ad41-46c056318418","54f8d589-66fc-4c65-830f-1dcc63bce8cc","{""participantId"":""F931A989F00E45A58AC4BF8B5A2DB253"",""assignmentId"":""3f909c30-8476-42c9-ad41-46c056318418"",""projectId"":""54f8d589-66fc-4c65-830f-1dcc63bce8cc""}","https://test12345.live/?participantId=F931A989F00E45A58AC4BF8B5A2DB253&assignmentId=3f909c30-8476-42c9-ad41-46c056318418&projectId=54f8d589-66fc-4c65-830f-1dcc63bce8cc","","null","<div style=""display: flex; justify-content: center; align-items: center;"">
                    <img src=""images/semantic/semantic_series_8/semantic_series_8_d.jpg"" style=""width: 300px; height: 300px;"" />
                  </div>","null","",""
"","","","","","html-button-response","17","237414","0.0-13.0","F931A989F00E45A58AC4BF8B5A2DB253","F931A989F00E45A58AC4BF8B5A2DB253","3f909c30-8476-42c9-ad41-46c056318418","54f8d589-66fc-4c65-830f-1dcc63bce8cc","{""participantId"":""F931A989F00E45A58AC4BF8B5A2DB253"",""assignmentId"":""3f909c30-8476-42c9-ad41-46c056318418"",""projectId"":""54f8d589-66fc-4c65-830f-1dcc63bce8cc""}","https://test12345.live/?participantId=F931A989F00E45A58AC4BF8B5A2DB253&assignmentId=3f909c30-8476-42c9-ad41-46c056318418&projectId=54f8d589-66fc-4c65-830f-1dcc63bce8cc","","2331","Was there a person in the picture?","1","",""
"","","","","","survey-likert","18","239857","0.0-14.0","F931A989F00E45A58AC4BF8B5A2DB253","F931A989F00E45A58AC4BF8B5A2DB253","3f909c30-8476-42c9-ad41-46c056318418","54f8d589-66fc-4c65-830f-1dcc63bce8cc","{""participantId"":""F931A989F00E45A58AC4BF8B5A2DB253"",""assignmentId"":""3f909c30-8476-42c9-ad41-46c056318418"",""projectId"":""54f8d589-66fc-4c65-830f-1dcc63bce8cc""}","https://test12345.live/?participantId=F931A989F00E45A58AC4BF8B5A2DB253&assignmentId=3f909c30-8476-42c9-ad41-46c056318418&projectId=54f8d589-66fc-4c65-830f-1dcc63bce8cc","","2442","","{""Q0"":0}","","[0]"
"","","","","","html-button-response","19","245196","0.0-15.0","F931A989F00E45A58AC4BF8B5A2DB253","F931A989F00E45A58AC4BF8B5A2DB253","3f909c30-8476-42c9-ad41-46c056318418","54f8d589-66fc-4c65-830f-1dcc63bce8cc","{""participantId"":""F931A989F00E45A58AC4BF8B5A2DB253"",""assignmentId"":""3f909c30-8476-42c9-ad41-46c056318418"",""projectId"":""54f8d589-66fc-4c65-830f-1dcc63bce8cc""}","https://test12345.live/?participantId=F931A989F00E45A58AC4BF8B5A2DB253&assignmentId=3f909c30-8476-42c9-ad41-46c056318418&projectId=54f8d589-66fc-4c65-830f-1dcc63bce8cc","","5338","
    <div style=""display: flex; justify-content: center; align-items: center;"">
      <img src=""images/red_deck_2.png"" style=""width: 300px; height: 300px; margin-right: 10px;"" />
      <img src=""images/blue_deck_1.png"" style=""width: 300px; height: 300px;"" />
    </div>","0","0",""
"","","","","","html-keyboard-response","20","248198","0.0-16.0-0.0","F931A989F00E45A58AC4BF8B5A2DB253","F931A989F00E45A58AC4BF8B5A2DB253","3f909c30-8476-42c9-ad41-46c056318418","54f8d589-66fc-4c65-830f-1dcc63bce8cc","{""participantId"":""F931A989F00E45A58AC4BF8B5A2DB253"",""assignmentId"":""3f909c30-8476-42c9-ad41-46c056318418"",""projectId"":""54f8d589-66fc-4c65-830f-1dcc63bce8cc""}","https://test12345.live/?participantId=F931A989F00E45A58AC4BF8B5A2DB253&assignmentId=3f909c30-8476-42c9-ad41-46c056318418&projectId=54f8d589-66fc-4c65-830f-1dcc63bce8cc","","null","<div style=""display: flex; justify-content: center; align-items: center;"">
                    <img src=""images/causal/causal_series_4/causal_series_4_a.jpg"" style=""width: 300px; height: 300px;"" />
                  </div>","null","",""
"","","","","","html-keyboard-response","21","251201","0.0-16.0-1.0","F931A989F00E45A58AC4BF8B5A2DB253","F931A989F00E45A58AC4BF8B5A2DB253","3f909c30-8476-42c9-ad41-46c056318418","54f8d589-66fc-4c65-830f-1dcc63bce8cc","{""participantId"":""F931A989F00E45A58AC4BF8B5A2DB253"",""assignmentId"":""3f909c30-8476-42c9-ad41-46c056318418"",""projectId"":""54f8d589-66fc-4c65-830f-1dcc63bce8cc""}","https://test12345.live/?participantId=F931A989F00E45A58AC4BF8B5A2DB253&assignmentId=3f909c30-8476-42c9-ad41-46c056318418&projectId=54f8d589-66fc-4c65-830f-1dcc63bce8cc","","null","<div style=""display: flex; justify-content: center; align-items: center;"">
                    <img src=""images/causal/causal_series_4/causal_series_4_b.jpg"" style=""width: 300px; height: 300px;"" />
                  </div>","null","",""
"","","","","","html-keyboard-response","22","254203","0.0-16.0-2.0","F931A989F00E45A58AC4BF8B5A2DB253","F931A989F00E45A58AC4BF8B5A2DB253","3f909c30-8476-42c9-ad41-46c056318418","54f8d589-66fc-4c65-830f-1dcc63bce8cc","{""participantId"":""F931A989F00E45A58AC4BF8B5A2DB253"",""assignmentId"":""3f909c30-8476-42c9-ad41-46c056318418"",""projectId"":""54f8d589-66fc-4c65-830f-1dcc63bce8cc""}","https://test12345.live/?participantId=F931A989F00E45A58AC4BF8B5A2DB253&assignmentId=3f909c30-8476-42c9-ad41-46c056318418&projectId=54f8d589-66fc-4c65-830f-1dcc63bce8cc","","null","<div style=""display: flex; justify-content: center; align-items: center;"">
                    <img src=""images/causal/causal_series_4/causal_series_4_c.jpg"" style=""width: 300px; height: 300px;"" />
                  </div>","null","",""
"","","","","","html-keyboard-response","23","257205","0.0-16.0-3.0","F931A989F00E45A58AC4BF8B5A2DB253","F931A989F00E45A58AC4BF8B5A2DB253","3f909c30-8476-42c9-ad41-46c056318418","54f8d589-66fc-4c65-830f-1dcc63bce8cc","{""participantId"":""F931A989F00E45A58AC4BF8B5A2DB253"",""assignmentId"":""3f909c30-8476-42c9-ad41-46c056318418"",""projectId"":""54f8d589-66fc-4c65-830f-1dcc63bce8cc""}","https://test12345.live/?participantId=F931A989F00E45A58AC4BF8B5A2DB253&assignmentId=3f909c30-8476-42c9-ad41-46c056318418&projectId=54f8d589-66fc-4c65-830f-1dcc63bce8cc","","null","<div style=""display: flex; justify-content: center; align-items: center;"">
                    <img src=""images/causal/causal_series_4/causal_series_4_d.jpg"" style=""width: 300px; height: 300px;"" />
                  </div>","null","",""
"","","","","","html-button-response","24","258378","0.0-18.0","F931A989F00E45A58AC4BF8B5A2DB253","F931A989F00E45A58AC4BF8B5A2DB253","3f909c30-8476-42c9-ad41-46c056318418","54f8d589-66fc-4c65-830f-1dcc63bce8cc","{""participantId"":""F931A989F00E45A58AC4BF8B5A2DB253"",""assignmentId"":""3f909c30-8476-42c9-ad41-46c056318418"",""projectId"":""54f8d589-66fc-4c65-830f-1dcc63bce8cc""}","https://test12345.live/?participantId=F931A989F00E45A58AC4BF8B5A2DB253&assignmentId=3f909c30-8476-42c9-ad41-46c056318418&projectId=54f8d589-66fc-4c65-830f-1dcc63bce8cc","","1173","Was there a person in the picture?","1","",""
"","","","","","survey-likert","25","260835","0.0-19.0","F931A989F00E45A58AC4BF8B5A2DB253","F931A989F00E45A58AC4BF8B5A2DB253","3f909c30-8476-42c9-ad41-46c056318418","54f8d589-66fc-4c65-830f-1dcc63bce8cc","{""participantId"":""F931A989F00E45A58AC4BF8B5A2DB253"",""assignmentId"":""3f909c30-8476-42c9-ad41-46c056318418"",""projectId"":""54f8d589-66fc-4c65-830f-1dcc63bce8cc""}","https://test12345.live/?participantId=F931A989F00E45A58AC4BF8B5A2DB253&assignmentId=3f909c30-8476-42c9-ad41-46c056318418&projectId=54f8d589-66fc-4c65-830f-1dcc63bce8cc","","2456","","{""Q0"":0}","","[0]"
"","","","","","html-button-response","26","264783","0.0-20.0","F931A989F00E45A58AC4BF8B5A2DB253","F931A989F00E45A58AC4BF8B5A2DB253","3f909c30-8476-42c9-ad41-46c056318418","54f8d589-66fc-4c65-830f-1dcc63bce8cc","{""participantId"":""F931A989F00E45A58AC4BF8B5A2DB253"",""assignmentId"":""3f909c30-8476-42c9-ad41-46c056318418"",""projectId"":""54f8d589-66fc-4c65-830f-1dcc63bce8cc""}","https://test12345.live/?participantId=F931A989F00E45A58AC4BF8B5A2DB253&assignmentId=3f909c30-8476-42c9-ad41-46c056318418&projectId=54f8d589-66fc-4c65-830f-1dcc63bce8cc","","3946","
    <div style=""display: flex; justify-content: center; align-items: center;"">
      <img src=""images/red_deck_2.png"" style=""width: 300px; height: 300px; margin-right: 10px;"" />
      <img src=""images/blue_deck_1.png"" style=""width: 300px; height: 300px;"" />
    </div>","0","0",""
"","","","","","html-keyboard-response","27","267785","0.0-21.0-0.0","F931A989F00E45A58AC4BF8B5A2DB253","F931A989F00E45A58AC4BF8B5A2DB253","3f909c30-8476-42c9-ad41-46c056318418","54f8d589-66fc-4c65-830f-1dcc63bce8cc","{""participantId"":""F931A989F00E45A58AC4BF8B5A2DB253"",""assignmentId"":""3f909c30-8476-42c9-ad41-46c056318418"",""projectId"":""54f8d589-66fc-4c65-830f-1dcc63bce8cc""}","https://test12345.live/?participantId=F931A989F00E45A58AC4BF8B5A2DB253&assignmentId=3f909c30-8476-42c9-ad41-46c056318418&projectId=54f8d589-66fc-4c65-830f-1dcc63bce8cc","","null","<div style=""display: flex; justify-content: center; align-items: center;"">
                    <img src=""images/causal/causal_series_1/causal_series_1_a.jpg"" style=""width: 300px; height: 300px;"" />
                  </div>","null","",""
"","","","","","html-keyboard-response","28","270787","0.0-21.0-1.0","F931A989F00E45A58AC4BF8B5A2DB253","F931A989F00E45A58AC4BF8B5A2DB253","3f909c30-8476-42c9-ad41-46c056318418","54f8d589-66fc-4c65-830f-1dcc63bce8cc","{""participantId"":""F931A989F00E45A58AC4BF8B5A2DB253"",""assignmentId"":""3f909c30-8476-42c9-ad41-46c056318418"",""projectId"":""54f8d589-66fc-4c65-830f-1dcc63bce8cc""}","https://test12345.live/?participantId=F931A989F00E45A58AC4BF8B5A2DB253&assignmentId=3f909c30-8476-42c9-ad41-46c056318418&projectId=54f8d589-66fc-4c65-830f-1dcc63bce8cc","","null","<div style=""display: flex; justify-content: center; align-items: center;"">
                    <img src=""images/causal/causal_series_1/causal_series_1_b.jpg"" style=""width: 300px; height: 300px;"" />
                  </div>","null","",""
"","","","","","html-keyboard-response","29","273790","0.0-21.0-2.0","F931A989F00E45A58AC4BF8B5A2DB253","F931A989F00E45A58AC4BF8B5A2DB253","3f909c30-8476-42c9-ad41-46c056318418","54f8d589-66fc-4c65-830f-1dcc63bce8cc","{""participantId"":""F931A989F00E45A58AC4BF8B5A2DB253"",""assignmentId"":""3f909c30-8476-42c9-ad41-46c056318418"",""projectId"":""54f8d589-66fc-4c65-830f-1dcc63bce8cc""}","https://test12345.live/?participantId=F931A989F00E45A58AC4BF8B5A2DB253&assignmentId=3f909c30-8476-42c9-ad41-46c056318418&projectId=54f8d589-66fc-4c65-830f-1dcc63bce8cc","","null","<div style=""display: flex; justify-content: center; align-items: center;"">
                    <img src=""images/causal/causal_series_1/causal_series_1_c.jpg"" style=""width: 300px; height: 300px;"" />
                  </div>","null","",""
"","","","","","html-keyboard-response","30","276793","0.0-21.0-3.0","F931A989F00E45A58AC4BF8B5A2DB253","F931A989F00E45A58AC4BF8B5A2DB253","3f909c30-8476-42c9-ad41-46c056318418","54f8d589-66fc-4c65-830f-1dcc63bce8cc","{""participantId"":""F931A989F00E45A58AC4BF8B5A2DB253"",""assignmentId"":""3f909c30-8476-42c9-ad41-46c056318418"",""projectId"":""54f8d589-66fc-4c65-830f-1dcc63bce8cc""}","https://test12345.live/?participantId=F931A989F00E45A58AC4BF8B5A2DB253&assignmentId=3f909c30-8476-42c9-ad41-46c056318418&projectId=54f8d589-66fc-4c65-830f-1dcc63bce8cc","","null","<div style=""display: flex; justify-content: center; align-items: center;"">
                    <img src=""images/causal/causal_series_1/causal_series_1_d.jpg"" style=""width: 300px; height: 300px;"" />
                  </div>","null","",""
"","","","","","html-button-response","31","278084","0.0-23.0","F931A989F00E45A58AC4BF8B5A2DB253","F931A989F00E45A58AC4BF8B5A2DB253","3f909c30-8476-42c9-ad41-46c056318418","54f8d589-66fc-4c65-830f-1dcc63bce8cc","{""participantId"":""F931A989F00E45A58AC4BF8B5A2DB253"",""assignmentId"":""3f909c30-8476-42c9-ad41-46c056318418"",""projectId"":""54f8d589-66fc-4c65-830f-1dcc63bce8cc""}","https://test12345.live/?participantId=F931A989F00E45A58AC4BF8B5A2DB253&assignmentId=3f909c30-8476-42c9-ad41-46c056318418&projectId=54f8d589-66fc-4c65-830f-1dcc63bce8cc","","1290","Was there a person in the picture?","0","",""
"","","","","","survey-likert","32","280963","0.0-24.0","F931A989F00E45A58AC4BF8B5A2DB253","F931A989F00E45A58AC4BF8B5A2DB253","3f909c30-8476-42c9-ad41-46c056318418","54f8d589-66fc-4c65-830f-1dcc63bce8cc","{""participantId"":""F931A989F00E45A58AC4BF8B5A2DB253"",""assignmentId"":""3f909c30-8476-42c9-ad41-46c056318418"",""projectId"":""54f8d589-66fc-4c65-830f-1dcc63bce8cc""}","https://test12345.live/?participantId=F931A989F00E45A58AC4BF8B5A2DB253&assignmentId=3f909c30-8476-42c9-ad41-46c056318418&projectId=54f8d589-66fc-4c65-830f-1dcc63bce8cc","","2879","","{""Q0"":1}","","[0]"
"","","","","","html-button-response","33","282021","0.0-25.0","F931A989F00E45A58AC4BF8B5A2DB253","F931A989F00E45A58AC4BF8B5A2DB253","3f909c30-8476-42c9-ad41-46c056318418","54f8d589-66fc-4c65-830f-1dcc63bce8cc","{""participantId"":""F931A989F00E45A58AC4BF8B5A2DB253"",""assignmentId"":""3f909c30-8476-42c9-ad41-46c056318418"",""projectId"":""54f8d589-66fc-4c65-830f-1dcc63bce8cc""}","https://test12345.live/?participantId=F931A989F00E45A58AC4BF8B5A2DB253&assignmentId=3f909c30-8476-42c9-ad41-46c056318418&projectId=54f8d589-66fc-4c65-830f-1dcc63bce8cc","","1056","
    <div style=""display: flex; justify-content: center; align-items: center;"">
      <img src=""images/red_deck_2.png"" style=""width: 300px; height: 300px; margin-right: 10px;"" />
      <img src=""images/blue_deck_1.png"" style=""width: 300px; height: 300px;"" />
    </div>","0","0",""
"","","","","","html-keyboard-response","34","285021","0.0-26.0-0.0","F931A989F00E45A58AC4BF8B5A2DB253","F931A989F00E45A58AC4BF8B5A2DB253","3f909c30-8476-42c9-ad41-46c056318418","54f8d589-66fc-4c65-830f-1dcc63bce8cc","{""participantId"":""F931A989F00E45A58AC4BF8B5A2DB253"",""assignmentId"":""3f909c30-8476-42c9-ad41-46c056318418"",""projectId"":""54f8d589-66fc-4c65-830f-1dcc63bce8cc""}","https://test12345.live/?participantId=F931A989F00E45A58AC4BF8B5A2DB253&assignmentId=3f909c30-8476-42c9-ad41-46c056318418&projectId=54f8d589-66fc-4c65-830f-1dcc63bce8cc","","null","<div style=""display: flex; justify-content: center; align-items: center;"">
                    <img src=""images/causal/causal_series_8/causal_series_8_a.jpg"" style=""width: 300px; height: 300px;"" />
                  </div>","null","",""
"","","","","","html-keyboard-response","35","288024","0.0-26.0-1.0","F931A989F00E45A58AC4BF8B5A2DB253","F931A989F00E45A58AC4BF8B5A2DB253","3f909c30-8476-42c9-ad41-46c056318418","54f8d589-66fc-4c65-830f-1dcc63bce8cc","{""participantId"":""F931A989F00E45A58AC4BF8B5A2DB253"",""assignmentId"":""3f909c30-8476-42c9-ad41-46c056318418"",""projectId"":""54f8d589-66fc-4c65-830f-1dcc63bce8cc""}","https://test12345.live/?participantId=F931A989F00E45A58AC4BF8B5A2DB253&assignmentId=3f909c30-8476-42c9-ad41-46c056318418&projectId=54f8d589-66fc-4c65-830f-1dcc63bce8cc","","null","<div style=""display: flex; justify-content: center; align-items: center;"">
                    <img src=""images/causal/causal_series_8/causal_series_8_b.jpg"" style=""width: 300px; height: 300px;"" />
                  </div>","null","",""
"","","","","","html-keyboard-response","36","291027","0.0-26.0-2.0","F931A989F00E45A58AC4BF8B5A2DB253","F931A989F00E45A58AC4BF8B5A2DB253","3f909c30-8476-42c9-ad41-46c056318418","54f8d589-66fc-4c65-830f-1dcc63bce8cc","{""participantId"":""F931A989F00E45A58AC4BF8B5A2DB253"",""assignmentId"":""3f909c30-8476-42c9-ad41-46c056318418"",""projectId"":""54f8d589-66fc-4c65-830f-1dcc63bce8cc""}","https://test12345.live/?participantId=F931A989F00E45A58AC4BF8B5A2DB253&assignmentId=3f909c30-8476-42c9-ad41-46c056318418&projectId=54f8d589-66fc-4c65-830f-1dcc63bce8cc","","null","<div style=""display: flex; justify-content: center; align-items: center;"">
                    <img src=""images/causal/causal_series_8/causal_series_8_c.jpg"" style=""width: 300px; height: 300px;"" />
                  </div>","null","",""
"","","","","","html-keyboard-response","37","294028","0.0-26.0-3.0","F931A989F00E45A58AC4BF8B5A2DB253","F931A989F00E45A58AC4BF8B5A2DB253","3f909c30-8476-42c9-ad41-46c056318418","54f8d589-66fc-4c65-830f-1dcc63bce8cc","{""participantId"":""F931A989F00E45A58AC4BF8B5A2DB253"",""assignmentId"":""3f909c30-8476-42c9-ad41-46c056318418"",""projectId"":""54f8d589-66fc-4c65-830f-1dcc63bce8cc""}","https://test12345.live/?participantId=F931A989F00E45A58AC4BF8B5A2DB253&assignmentId=3f909c30-8476-42c9-ad41-46c056318418&projectId=54f8d589-66fc-4c65-830f-1dcc63bce8cc","","null","<div style=""display: flex; justify-content: center; align-items: center;"">
                    <img src=""images/causal/causal_series_8/causal_series_8_d.jpg"" style=""width: 300px; height: 300px;"" />
                  </div>","null","",""
"","","","","","html-button-response","38","295631","0.0-28.0","F931A989F00E45A58AC4BF8B5A2DB253","F931A989F00E45A58AC4BF8B5A2DB253","3f909c30-8476-42c9-ad41-46c056318418","54f8d589-66fc-4c65-830f-1dcc63bce8cc","{""participantId"":""F931A989F00E45A58AC4BF8B5A2DB253"",""assignmentId"":""3f909c30-8476-42c9-ad41-46c056318418"",""projectId"":""54f8d589-66fc-4c65-830f-1dcc63bce8cc""}","https://test12345.live/?participantId=F931A989F00E45A58AC4BF8B5A2DB253&assignmentId=3f909c30-8476-42c9-ad41-46c056318418&projectId=54f8d589-66fc-4c65-830f-1dcc63bce8cc","","1602","Was there a person in the picture?","1","",""
"","","","","","survey-likert","39","307066","0.0-29.0","F931A989F00E45A58AC4BF8B5A2DB253","F931A989F00E45A58AC4BF8B5A2DB253","3f909c30-8476-42c9-ad41-46c056318418","54f8d589-66fc-4c65-830f-1dcc63bce8cc","{""participantId"":""F931A989F00E45A58AC4BF8B5A2DB253"",""assignmentId"":""3f909c30-8476-42c9-ad41-46c056318418"",""projectId"":""54f8d589-66fc-4c65-830f-1dcc63bce8cc""}","https://test12345.live/?participantId=F931A989F00E45A58AC4BF8B5A2DB253&assignmentId=3f909c30-8476-42c9-ad41-46c056318418&projectId=54f8d589-66fc-4c65-830f-1dcc63bce8cc","","11433","","{""Q0"":0}","","[0]"
"","","","","","html-button-response","40","310610","0.0-30.0","F931A989F00E45A58AC4BF8B5A2DB253","F931A989F00E45A58AC4BF8B5A2DB253","3f909c30-8476-42c9-ad41-46c056318418","54f8d589-66fc-4c65-830f-1dcc63bce8cc","{""participantId"":""F931A989F00E45A58AC4BF8B5A2DB253"",""assignmentId"":""3f909c30-8476-42c9-ad41-46c056318418"",""projectId"":""54f8d589-66fc-4c65-830f-1dcc63bce8cc""}","https://test12345.live/?participantId=F931A989F00E45A58AC4BF8B5A2DB253&assignmentId=3f909c30-8476-42c9-ad41-46c056318418&projectId=54f8d589-66fc-4c65-830f-1dcc63bce8cc","","3543","
    <div style=""display: flex; justify-content: center; align-items: center;"">
      <img src=""images/red_deck_2.png"" style=""width: 300px; height: 300px; margin-right: 10px;"" />
      <img src=""images/blue_deck_1.png"" style=""width: 300px; height: 300px;"" />
    </div>","1","1",""
"","","","","","html-keyboard-response","41","313611","0.0-32.0-0.0","F931A989F00E45A58AC4BF8B5A2DB253","F931A989F00E45A58AC4BF8B5A2DB253","3f909c30-8476-42c9-ad41-46c056318418","54f8d589-66fc-4c65-830f-1dcc63bce8cc","{""participantId"":""F931A989F00E45A58AC4BF8B5A2DB253"",""assignmentId"":""3f909c30-8476-42c9-ad41-46c056318418"",""projectId"":""54f8d589-66fc-4c65-830f-1dcc63bce8cc""}","https://test12345.live/?participantId=F931A989F00E45A58AC4BF8B5A2DB253&assignmentId=3f909c30-8476-42c9-ad41-46c056318418&projectId=54f8d589-66fc-4c65-830f-1dcc63bce8cc","","null","<div style=""display: flex; justify-content: center; align-items: center;"">
                    <img src=""images/semantic/semantic_series_10/semantic_series_10_a.jpg"" style=""width: 300px; height: 300px;"" />
                  </div>","null","",""
"","","","","","html-keyboard-response","42","316613","0.0-32.0-1.0","F931A989F00E45A58AC4BF8B5A2DB253","F931A989F00E45A58AC4BF8B5A2DB253","3f909c30-8476-42c9-ad41-46c056318418","54f8d589-66fc-4c65-830f-1dcc63bce8cc","{""participantId"":""F931A989F00E45A58AC4BF8B5A2DB253"",""assignmentId"":""3f909c30-8476-42c9-ad41-46c056318418"",""projectId"":""54f8d589-66fc-4c65-830f-1dcc63bce8cc""}","https://test12345.live/?participantId=F931A989F00E45A58AC4BF8B5A2DB253&assignmentId=3f909c30-8476-42c9-ad41-46c056318418&projectId=54f8d589-66fc-4c65-830f-1dcc63bce8cc","","null","<div style=""display: flex; justify-content: center; align-items: center;"">
                    <img src=""images/semantic/semantic_series_10/semantic_series_10_b.jpg"" style=""width: 300px; height: 300px;"" />
                  </div>","null","",""
"","","","","","html-keyboard-response","43","319615","0.0-32.0-2.0","F931A989F00E45A58AC4BF8B5A2DB253","F931A989F00E45A58AC4BF8B5A2DB253","3f909c30-8476-42c9-ad41-46c056318418","54f8d589-66fc-4c65-830f-1dcc63bce8cc","{""participantId"":""F931A989F00E45A58AC4BF8B5A2DB253"",""assignmentId"":""3f909c30-8476-42c9-ad41-46c056318418"",""projectId"":""54f8d589-66fc-4c65-830f-1dcc63bce8cc""}","https://test12345.live/?participantId=F931A989F00E45A58AC4BF8B5A2DB253&assignmentId=3f909c30-8476-42c9-ad41-46c056318418&projectId=54f8d589-66fc-4c65-830f-1dcc63bce8cc","","null","<div style=""display: flex; justify-content: center; align-items: center;"">
                    <img src=""images/semantic/semantic_series_10/semantic_series_10_c.jpg"" style=""width: 300px; height: 300px;"" />
                  </div>","null","",""
"","","","","","html-keyboard-response","44","322617","0.0-32.0-3.0","F931A989F00E45A58AC4BF8B5A2DB253","F931A989F00E45A58AC4BF8B5A2DB253","3f909c30-8476-42c9-ad41-46c056318418","54f8d589-66fc-4c65-830f-1dcc63bce8cc","{""participantId"":""F931A989F00E45A58AC4BF8B5A2DB253"",""assignmentId"":""3f909c30-8476-42c9-ad41-46c056318418"",""projectId"":""54f8d589-66fc-4c65-830f-1dcc63bce8cc""}","https://test12345.live/?participantId=F931A989F00E45A58AC4BF8B5A2DB253&assignmentId=3f909c30-8476-42c9-ad41-46c056318418&projectId=54f8d589-66fc-4c65-830f-1dcc63bce8cc","","null","<div style=""display: flex; justify-content: center; align-items: center;"">
                    <img src=""images/semantic/semantic_series_10/semantic_series_10_d.jpg"" style=""width: 300px; height: 300px;"" />
                  </div>","null","",""
"","","","","","html-button-response","45","323809","0.0-33.0","F931A989F00E45A58AC4BF8B5A2DB253","F931A989F00E45A58AC4BF8B5A2DB253","3f909c30-8476-42c9-ad41-46c056318418","54f8d589-66fc-4c65-830f-1dcc63bce8cc","{""participantId"":""F931A989F00E45A58AC4BF8B5A2DB253"",""assignmentId"":""3f909c30-8476-42c9-ad41-46c056318418"",""projectId"":""54f8d589-66fc-4c65-830f-1dcc63bce8cc""}","https://test12345.live/?participantId=F931A989F00E45A58AC4BF8B5A2DB253&assignmentId=3f909c30-8476-42c9-ad41-46c056318418&projectId=54f8d589-66fc-4c65-830f-1dcc63bce8cc","","1192","Was there a person in the picture?","1","",""
"","","","","","survey-likert","46","326783","0.0-34.0","F931A989F00E45A58AC4BF8B5A2DB253","F931A989F00E45A58AC4BF8B5A2DB253","3f909c30-8476-42c9-ad41-46c056318418","54f8d589-66fc-4c65-830f-1dcc63bce8cc","{""participantId"":""F931A989F00E45A58AC4BF8B5A2DB253"",""assignmentId"":""3f909c30-8476-42c9-ad41-46c056318418"",""projectId"":""54f8d589-66fc-4c65-830f-1dcc63bce8cc""}","https://test12345.live/?participantId=F931A989F00E45A58AC4BF8B5A2DB253&assignmentId=3f909c30-8476-42c9-ad41-46c056318418&projectId=54f8d589-66fc-4c65-830f-1dcc63bce8cc","","2973","","{""Q0"":2}","","[0]"
"","","","","","html-button-response","47","327921","0.0-35.0","F931A989F00E45A58AC4BF8B5A2DB253","F931A989F00E45A58AC4BF8B5A2DB253","3f909c30-8476-42c9-ad41-46c056318418","54f8d589-66fc-4c65-830f-1dcc63bce8cc","{""participantId"":""F931A989F00E45A58AC4BF8B5A2DB253"",""assignmentId"":""3f909c30-8476-42c9-ad41-46c056318418"",""projectId"":""54f8d589-66fc-4c65-830f-1dcc63bce8cc""}","https://test12345.live/?participantId=F931A989F00E45A58AC4BF8B5A2DB253&assignmentId=3f909c30-8476-42c9-ad41-46c056318418&projectId=54f8d589-66fc-4c65-830f-1dcc63bce8cc","","1136","
    <div style=""display: flex; justify-content: center; align-items: center;"">
      <img src=""images/red_deck_2.png"" style=""width: 300px; height: 300px; margin-right: 10px;"" />
      <img src=""images/blue_deck_1.png"" style=""width: 300px; height: 300px;"" />
    </div>","1","1",""
"","","","","","html-keyboard-response","48","330924","0.0-37.0-0.0","F931A989F00E45A58AC4BF8B5A2DB253","F931A989F00E45A58AC4BF8B5A2DB253","3f909c30-8476-42c9-ad41-46c056318418","54f8d589-66fc-4c65-830f-1dcc63bce8cc","{""participantId"":""F931A989F00E45A58AC4BF8B5A2DB253"",""assignmentId"":""3f909c30-8476-42c9-ad41-46c056318418"",""projectId"":""54f8d589-66fc-4c65-830f-1dcc63bce8cc""}","https://test12345.live/?participantId=F931A989F00E45A58AC4BF8B5A2DB253&assignmentId=3f909c30-8476-42c9-ad41-46c056318418&projectId=54f8d589-66fc-4c65-830f-1dcc63bce8cc","","null","<div style=""display: flex; justify-content: center; align-items: center;"">
                    <img src=""images/semantic/semantic_series_12/semantic_series_12_a.jpg"" style=""width: 300px; height: 300px;"" />
                  </div>","null","",""
"","","","","","html-keyboard-response","49","333926","0.0-37.0-1.0","F931A989F00E45A58AC4BF8B5A2DB253","F931A989F00E45A58AC4BF8B5A2DB253","3f909c30-8476-42c9-ad41-46c056318418","54f8d589-66fc-4c65-830f-1dcc63bce8cc","{""participantId"":""F931A989F00E45A58AC4BF8B5A2DB253"",""assignmentId"":""3f909c30-8476-42c9-ad41-46c056318418"",""projectId"":""54f8d589-66fc-4c65-830f-1dcc63bce8cc""}","https://test12345.live/?participantId=F931A989F00E45A58AC4BF8B5A2DB253&assignmentId=3f909c30-8476-42c9-ad41-46c056318418&projectId=54f8d589-66fc-4c65-830f-1dcc63bce8cc","","null","<div style=""display: flex; justify-content: center; align-items: center;"">
                    <img src=""images/semantic/semantic_series_12/semantic_series_12_b.jpg"" style=""width: 300px; height: 300px;"" />
                  </div>","null","",""
"","","","","","html-keyboard-response","50","336927","0.0-37.0-2.0","F931A989F00E45A58AC4BF8B5A2DB253","F931A989F00E45A58AC4BF8B5A2DB253","3f909c30-8476-42c9-ad41-46c056318418","54f8d589-66fc-4c65-830f-1dcc63bce8cc","{""participantId"":""F931A989F00E45A58AC4BF8B5A2DB253"",""assignmentId"":""3f909c30-8476-42c9-ad41-46c056318418"",""projectId"":""54f8d589-66fc-4c65-830f-1dcc63bce8cc""}","https://test12345.live/?participantId=F931A989F00E45A58AC4BF8B5A2DB253&assignmentId=3f909c30-8476-42c9-ad41-46c056318418&projectId=54f8d589-66fc-4c65-830f-1dcc63bce8cc","","null","<div style=""display: flex; justify-content: center; align-items: center;"">
                    <img src=""images/semantic/semantic_series_12/semantic_series_12_c.jpg"" style=""width: 300px; height: 300px;"" />
                  </div>","null","",""
"","","","","","html-keyboard-response","51","339929","0.0-37.0-3.0","F931A989F00E45A58AC4BF8B5A2DB253","F931A989F00E45A58AC4BF8B5A2DB253","3f909c30-8476-42c9-ad41-46c056318418","54f8d589-66fc-4c65-830f-1dcc63bce8cc","{""participantId"":""F931A989F00E45A58AC4BF8B5A2DB253"",""assignmentId"":""3f909c30-8476-42c9-ad41-46c056318418"",""projectId"":""54f8d589-66fc-4c65-830f-1dcc63bce8cc""}","https://test12345.live/?participantId=F931A989F00E45A58AC4BF8B5A2DB253&assignmentId=3f909c30-8476-42c9-ad41-46c056318418&projectId=54f8d589-66fc-4c65-830f-1dcc63bce8cc","","null","<div style=""display: flex; justify-content: center; align-items: center;"">
                    <img src=""images/semantic/semantic_series_12/semantic_series_12_d.jpg"" style=""width: 300px; height: 300px;"" />
                  </div>","null","",""
"","","","","","html-button-response","52","341381","0.0-38.0","F931A989F00E45A58AC4BF8B5A2DB253","F931A989F00E45A58AC4BF8B5A2DB253","3f909c30-8476-42c9-ad41-46c056318418","54f8d589-66fc-4c65-830f-1dcc63bce8cc","{""participantId"":""F931A989F00E45A58AC4BF8B5A2DB253"",""assignmentId"":""3f909c30-8476-42c9-ad41-46c056318418"",""projectId"":""54f8d589-66fc-4c65-830f-1dcc63bce8cc""}","https://test12345.live/?participantId=F931A989F00E45A58AC4BF8B5A2DB253&assignmentId=3f909c30-8476-42c9-ad41-46c056318418&projectId=54f8d589-66fc-4c65-830f-1dcc63bce8cc","","1451","Was there a person in the picture?","1","",""
"","","","","","survey-likert","53","343320","0.0-39.0","F931A989F00E45A58AC4BF8B5A2DB253","F931A989F00E45A58AC4BF8B5A2DB253","3f909c30-8476-42c9-ad41-46c056318418","54f8d589-66fc-4c65-830f-1dcc63bce8cc","{""participantId"":""F931A989F00E45A58AC4BF8B5A2DB253"",""assignmentId"":""3f909c30-8476-42c9-ad41-46c056318418"",""projectId"":""54f8d589-66fc-4c65-830f-1dcc63bce8cc""}","https://test12345.live/?participantId=F931A989F00E45A58AC4BF8B5A2DB253&assignmentId=3f909c30-8476-42c9-ad41-46c056318418&projectId=54f8d589-66fc-4c65-830f-1dcc63bce8cc","","1938","","{""Q0"":0}","","[0]"
"","","","","","html-button-response","54","344871","0.0-40.0","F931A989F00E45A58AC4BF8B5A2DB253","F931A989F00E45A58AC4BF8B5A2DB253","3f909c30-8476-42c9-ad41-46c056318418","54f8d589-66fc-4c65-830f-1dcc63bce8cc","{""participantId"":""F931A989F00E45A58AC4BF8B5A2DB253"",""assignmentId"":""3f909c30-8476-42c9-ad41-46c056318418"",""projectId"":""54f8d589-66fc-4c65-830f-1dcc63bce8cc""}","https://test12345.live/?participantId=F931A989F00E45A58AC4BF8B5A2DB253&assignmentId=3f909c30-8476-42c9-ad41-46c056318418&projectId=54f8d589-66fc-4c65-830f-1dcc63bce8cc","","1549","
    <div style=""display: flex; justify-content: center; align-items: center;"">
      <img src=""images/red_deck_2.png"" style=""width: 300px; height: 300px; margin-right: 10px;"" />
      <img src=""images/blue_deck_1.png"" style=""width: 300px; height: 300px;"" />
    </div>","1","1",""
"","","","","","html-keyboard-response","55","347874","0.0-42.0-0.0","F931A989F00E45A58AC4BF8B5A2DB253","F931A989F00E45A58AC4BF8B5A2DB253","3f909c30-8476-42c9-ad41-46c056318418","54f8d589-66fc-4c65-830f-1dcc63bce8cc","{""participantId"":""F931A989F00E45A58AC4BF8B5A2DB253"",""assignmentId"":""3f909c30-8476-42c9-ad41-46c056318418"",""projectId"":""54f8d589-66fc-4c65-830f-1dcc63bce8cc""}","https://test12345.live/?participantId=F931A989F00E45A58AC4BF8B5A2DB253&assignmentId=3f909c30-8476-42c9-ad41-46c056318418&projectId=54f8d589-66fc-4c65-830f-1dcc63bce8cc","","null","<div style=""display: flex; justify-content: center; align-items: center;"">
                    <img src=""images/semantic/semantic_series_3/semantic_series_3_a.jpg"" style=""width: 300px; height: 300px;"" />
                  </div>","null","",""
"","","","","","html-keyboard-response","56","350876","0.0-42.0-1.0","F931A989F00E45A58AC4BF8B5A2DB253","F931A989F00E45A58AC4BF8B5A2DB253","3f909c30-8476-42c9-ad41-46c056318418","54f8d589-66fc-4c65-830f-1dcc63bce8cc","{""participantId"":""F931A989F00E45A58AC4BF8B5A2DB253"",""assignmentId"":""3f909c30-8476-42c9-ad41-46c056318418"",""projectId"":""54f8d589-66fc-4c65-830f-1dcc63bce8cc""}","https://test12345.live/?participantId=F931A989F00E45A58AC4BF8B5A2DB253&assignmentId=3f909c30-8476-42c9-ad41-46c056318418&projectId=54f8d589-66fc-4c65-830f-1dcc63bce8cc","","null","<div style=""display: flex; justify-content: center; align-items: center;"">
                    <img src=""images/semantic/semantic_series_3/semantic_series_3_b.jpg"" style=""width: 300px; height: 300px;"" />
                  </div>","null","",""
"","","","","","html-keyboard-response","57","353878","0.0-42.0-2.0","F931A989F00E45A58AC4BF8B5A2DB253","F931A989F00E45A58AC4BF8B5A2DB253","3f909c30-8476-42c9-ad41-46c056318418","54f8d589-66fc-4c65-830f-1dcc63bce8cc","{""participantId"":""F931A989F00E45A58AC4BF8B5A2DB253"",""assignmentId"":""3f909c30-8476-42c9-ad41-46c056318418"",""projectId"":""54f8d589-66fc-4c65-830f-1dcc63bce8cc""}","https://test12345.live/?participantId=F931A989F00E45A58AC4BF8B5A2DB253&assignmentId=3f909c30-8476-42c9-ad41-46c056318418&projectId=54f8d589-66fc-4c65-830f-1dcc63bce8cc","","null","<div style=""display: flex; justify-content: center; align-items: center;"">
                    <img src=""images/semantic/semantic_series_3/semantic_series_3_c.jpg"" style=""width: 300px; height: 300px;"" />
                  </div>","null","",""
"","","","","","html-keyboard-response","58","356880","0.0-42.0-3.0","F931A989F00E45A58AC4BF8B5A2DB253","F931A989F00E45A58AC4BF8B5A2DB253","3f909c30-8476-42c9-ad41-46c056318418","54f8d589-66fc-4c65-830f-1dcc63bce8cc","{""participantId"":""F931A989F00E45A58AC4BF8B5A2DB253"",""assignmentId"":""3f909c30-8476-42c9-ad41-46c056318418"",""projectId"":""54f8d589-66fc-4c65-830f-1dcc63bce8cc""}","https://test12345.live/?participantId=F931A989F00E45A58AC4BF8B5A2DB253&assignmentId=3f909c30-8476-42c9-ad41-46c056318418&projectId=54f8d589-66fc-4c65-830f-1dcc63bce8cc","","null","<div style=""display: flex; justify-content: center; align-items: center;"">
                    <img src=""images/semantic/semantic_series_3/semantic_series_3_d.jpg"" style=""width: 300px; height: 300px;"" />
                  </div>","null","",""
"","","","","","html-button-response","59","359595","0.0-43.0","F931A989F00E45A58AC4BF8B5A2DB253","F931A989F00E45A58AC4BF8B5A2DB253","3f909c30-8476-42c9-ad41-46c056318418","54f8d589-66fc-4c65-830f-1dcc63bce8cc","{""participantId"":""F931A989F00E45A58AC4BF8B5A2DB253"",""assignmentId"":""3f909c30-8476-42c9-ad41-46c056318418"",""projectId"":""54f8d589-66fc-4c65-830f-1dcc63bce8cc""}","https://test12345.live/?participantId=F931A989F00E45A58AC4BF8B5A2DB253&assignmentId=3f909c30-8476-42c9-ad41-46c056318418&projectId=54f8d589-66fc-4c65-830f-1dcc63bce8cc","","2714","Was there a person in the picture?","0","",""
"","","","","","survey-likert","60","362256","0.0-44.0","F931A989F00E45A58AC4BF8B5A2DB253","F931A989F00E45A58AC4BF8B5A2DB253","3f909c30-8476-42c9-ad41-46c056318418","54f8d589-66fc-4c65-830f-1dcc63bce8cc","{""participantId"":""F931A989F00E45A58AC4BF8B5A2DB253"",""assignmentId"":""3f909c30-8476-42c9-ad41-46c056318418"",""projectId"":""54f8d589-66fc-4c65-830f-1dcc63bce8cc""}","https://test12345.live/?participantId=F931A989F00E45A58AC4BF8B5A2DB253&assignmentId=3f909c30-8476-42c9-ad41-46c056318418&projectId=54f8d589-66fc-4c65-830f-1dcc63bce8cc","","2660","","{""Q0"":0}","","[0]"
"","","","","","html-button-response","61","363986","0.0-45.0","F931A989F00E45A58AC4BF8B5A2DB253","F931A989F00E45A58AC4BF8B5A2DB253","3f909c30-8476-42c9-ad41-46c056318418","54f8d589-66fc-4c65-830f-1dcc63bce8cc","{""participantId"":""F931A989F00E45A58AC4BF8B5A2DB253"",""assignmentId"":""3f909c30-8476-42c9-ad41-46c056318418"",""projectId"":""54f8d589-66fc-4c65-830f-1dcc63bce8cc""}","https://test12345.live/?participantId=F931A989F00E45A58AC4BF8B5A2DB253&assignmentId=3f909c30-8476-42c9-ad41-46c056318418&projectId=54f8d589-66fc-4c65-830f-1dcc63bce8cc","","1729","
    <div style=""display: flex; justify-content: center; align-items: center;"">
      <img src=""images/red_deck_2.png"" style=""width: 300px; height: 300px; margin-right: 10px;"" />
      <img src=""images/blue_deck_1.png"" style=""width: 300px; height: 300px;"" />
    </div>","0","0",""
"","","","","","html-keyboard-response","62","366989","0.0-46.0-0.0","F931A989F00E45A58AC4BF8B5A2DB253","F931A989F00E45A58AC4BF8B5A2DB253","3f909c30-8476-42c9-ad41-46c056318418","54f8d589-66fc-4c65-830f-1dcc63bce8cc","{""participantId"":""F931A989F00E45A58AC4BF8B5A2DB253"",""assignmentId"":""3f909c30-8476-42c9-ad41-46c056318418"",""projectId"":""54f8d589-66fc-4c65-830f-1dcc63bce8cc""}","https://test12345.live/?participantId=F931A989F00E45A58AC4BF8B5A2DB253&assignmentId=3f909c30-8476-42c9-ad41-46c056318418&projectId=54f8d589-66fc-4c65-830f-1dcc63bce8cc","","null","<div style=""display: flex; justify-content: center; align-items: center;"">
                    <img src=""images/causal/causal_series_15/causal_series_15_a.jpg"" style=""width: 300px; height: 300px;"" />
                  </div>","null","",""
"","","","","","html-keyboard-response","63","369991","0.0-46.0-1.0","F931A989F00E45A58AC4BF8B5A2DB253","F931A989F00E45A58AC4BF8B5A2DB253","3f909c30-8476-42c9-ad41-46c056318418","54f8d589-66fc-4c65-830f-1dcc63bce8cc","{""participantId"":""F931A989F00E45A58AC4BF8B5A2DB253"",""assignmentId"":""3f909c30-8476-42c9-ad41-46c056318418"",""projectId"":""54f8d589-66fc-4c65-830f-1dcc63bce8cc""}","https://test12345.live/?participantId=F931A989F00E45A58AC4BF8B5A2DB253&assignmentId=3f909c30-8476-42c9-ad41-46c056318418&projectId=54f8d589-66fc-4c65-830f-1dcc63bce8cc","","null","<div style=""display: flex; justify-content: center; align-items: center;"">
                    <img src=""images/causal/causal_series_15/causal_series_15_b.jpg"" style=""width: 300px; height: 300px;"" />
                  </div>","null","",""
"","","","","","html-keyboard-response","64","372993","0.0-46.0-2.0","F931A989F00E45A58AC4BF8B5A2DB253","F931A989F00E45A58AC4BF8B5A2DB253","3f909c30-8476-42c9-ad41-46c056318418","54f8d589-66fc-4c65-830f-1dcc63bce8cc","{""participantId"":""F931A989F00E45A58AC4BF8B5A2DB253"",""assignmentId"":""3f909c30-8476-42c9-ad41-46c056318418"",""projectId"":""54f8d589-66fc-4c65-830f-1dcc63bce8cc""}","https://test12345.live/?participantId=F931A989F00E45A58AC4BF8B5A2DB253&assignmentId=3f909c30-8476-42c9-ad41-46c056318418&projectId=54f8d589-66fc-4c65-830f-1dcc63bce8cc","","null","<div style=""display: flex; justify-content: center; align-items: center;"">
                    <img src=""images/causal/causal_series_15/causal_series_15_c.jpg"" style=""width: 300px; height: 300px;"" />
                  </div>","null","",""
"","","","","","html-keyboard-response","65","375996","0.0-46.0-3.0","F931A989F00E45A58AC4BF8B5A2DB253","F931A989F00E45A58AC4BF8B5A2DB253","3f909c30-8476-42c9-ad41-46c056318418","54f8d589-66fc-4c65-830f-1dcc63bce8cc","{""participantId"":""F931A989F00E45A58AC4BF8B5A2DB253"",""assignmentId"":""3f909c30-8476-42c9-ad41-46c056318418"",""projectId"":""54f8d589-66fc-4c65-830f-1dcc63bce8cc""}","https://test12345.live/?participantId=F931A989F00E45A58AC4BF8B5A2DB253&assignmentId=3f909c30-8476-42c9-ad41-46c056318418&projectId=54f8d589-66fc-4c65-830f-1dcc63bce8cc","","null","<div style=""display: flex; justify-content: center; align-items: center;"">
                    <img src=""images/causal/causal_series_15/causal_series_15_d.jpg"" style=""width: 300px; height: 300px;"" />
                  </div>","null","",""
"","","","","","html-button-response","66","378615","0.0-48.0","F931A989F00E45A58AC4BF8B5A2DB253","F931A989F00E45A58AC4BF8B5A2DB253","3f909c30-8476-42c9-ad41-46c056318418","54f8d589-66fc-4c65-830f-1dcc63bce8cc","{""participantId"":""F931A989F00E45A58AC4BF8B5A2DB253"",""assignmentId"":""3f909c30-8476-42c9-ad41-46c056318418"",""projectId"":""54f8d589-66fc-4c65-830f-1dcc63bce8cc""}","https://test12345.live/?participantId=F931A989F00E45A58AC4BF8B5A2DB253&assignmentId=3f909c30-8476-42c9-ad41-46c056318418&projectId=54f8d589-66fc-4c65-830f-1dcc63bce8cc","","2618","Was there a person in the picture?","1","",""
"","","","","","survey-likert","67","380850","0.0-49.0","F931A989F00E45A58AC4BF8B5A2DB253","F931A989F00E45A58AC4BF8B5A2DB253","3f909c30-8476-42c9-ad41-46c056318418","54f8d589-66fc-4c65-830f-1dcc63bce8cc","{""participantId"":""F931A989F00E45A58AC4BF8B5A2DB253"",""assignmentId"":""3f909c30-8476-42c9-ad41-46c056318418"",""projectId"":""54f8d589-66fc-4c65-830f-1dcc63bce8cc""}","https://test12345.live/?participantId=F931A989F00E45A58AC4BF8B5A2DB253&assignmentId=3f909c30-8476-42c9-ad41-46c056318418&projectId=54f8d589-66fc-4c65-830f-1dcc63bce8cc","","2234","","{""Q0"":0}","","[0]"
"","","","","","html-button-response","68","381752","0.0-50.0","F931A989F00E45A58AC4BF8B5A2DB253","F931A989F00E45A58AC4BF8B5A2DB253","3f909c30-8476-42c9-ad41-46c056318418","54f8d589-66fc-4c65-830f-1dcc63bce8cc","{""participantId"":""F931A989F00E45A58AC4BF8B5A2DB253"",""assignmentId"":""3f909c30-8476-42c9-ad41-46c056318418"",""projectId"":""54f8d589-66fc-4c65-830f-1dcc63bce8cc""}","https://test12345.live/?participantId=F931A989F00E45A58AC4BF8B5A2DB253&assignmentId=3f909c30-8476-42c9-ad41-46c056318418&projectId=54f8d589-66fc-4c65-830f-1dcc63bce8cc","","901","
    <div style=""display: flex; justify-content: center; align-items: center;"">
      <img src=""images/red_deck_2.png"" style=""width: 300px; height: 300px; margin-right: 10px;"" />
      <img src=""images/blue_deck_1.png"" style=""width: 300px; height: 300px;"" />
    </div>","0","0",""
"","","","","","html-keyboard-response","69","384755","0.0-51.0-0.0","F931A989F00E45A58AC4BF8B5A2DB253","F931A989F00E45A58AC4BF8B5A2DB253","3f909c30-8476-42c9-ad41-46c056318418","54f8d589-66fc-4c65-830f-1dcc63bce8cc","{""participantId"":""F931A989F00E45A58AC4BF8B5A2DB253"",""assignmentId"":""3f909c30-8476-42c9-ad41-46c056318418"",""projectId"":""54f8d589-66fc-4c65-830f-1dcc63bce8cc""}","https://test12345.live/?participantId=F931A989F00E45A58AC4BF8B5A2DB253&assignmentId=3f909c30-8476-42c9-ad41-46c056318418&projectId=54f8d589-66fc-4c65-830f-1dcc63bce8cc","","null","<div style=""display: flex; justify-content: center; align-items: center;"">
                    <img src=""images/causal/causal_series_17/causal_series_17_a.jpg"" style=""width: 300px; height: 300px;"" />
                  </div>","null","",""
"","","","","","html-keyboard-response","70","387758","0.0-51.0-1.0","F931A989F00E45A58AC4BF8B5A2DB253","F931A989F00E45A58AC4BF8B5A2DB253","3f909c30-8476-42c9-ad41-46c056318418","54f8d589-66fc-4c65-830f-1dcc63bce8cc","{""participantId"":""F931A989F00E45A58AC4BF8B5A2DB253"",""assignmentId"":""3f909c30-8476-42c9-ad41-46c056318418"",""projectId"":""54f8d589-66fc-4c65-830f-1dcc63bce8cc""}","https://test12345.live/?participantId=F931A989F00E45A58AC4BF8B5A2DB253&assignmentId=3f909c30-8476-42c9-ad41-46c056318418&projectId=54f8d589-66fc-4c65-830f-1dcc63bce8cc","","null","<div style=""display: flex; justify-content: center; align-items: center;"">
                    <img src=""images/causal/causal_series_17/causal_series_17_b.jpg"" style=""width: 300px; height: 300px;"" />
                  </div>","null","",""
"","","","","","html-keyboard-response","71","390760","0.0-51.0-2.0","F931A989F00E45A58AC4BF8B5A2DB253","F931A989F00E45A58AC4BF8B5A2DB253","3f909c30-8476-42c9-ad41-46c056318418","54f8d589-66fc-4c65-830f-1dcc63bce8cc","{""participantId"":""F931A989F00E45A58AC4BF8B5A2DB253"",""assignmentId"":""3f909c30-8476-42c9-ad41-46c056318418"",""projectId"":""54f8d589-66fc-4c65-830f-1dcc63bce8cc""}","https://test12345.live/?participantId=F931A989F00E45A58AC4BF8B5A2DB253&assignmentId=3f909c30-8476-42c9-ad41-46c056318418&projectId=54f8d589-66fc-4c65-830f-1dcc63bce8cc","","null","<div style=""display: flex; justify-content: center; align-items: center;"">
                    <img src=""images/causal/causal_series_17/causal_series_17_c.jpg"" style=""width: 300px; height: 300px;"" />
                  </div>","null","",""
"","","","","","html-keyboard-response","72","393763","0.0-51.0-3.0","F931A989F00E45A58AC4BF8B5A2DB253","F931A989F00E45A58AC4BF8B5A2DB253","3f909c30-8476-42c9-ad41-46c056318418","54f8d589-66fc-4c65-830f-1dcc63bce8cc","{""participantId"":""F931A989F00E45A58AC4BF8B5A2DB253"",""assignmentId"":""3f909c30-8476-42c9-ad41-46c056318418"",""projectId"":""54f8d589-66fc-4c65-830f-1dcc63bce8cc""}","https://test12345.live/?participantId=F931A989F00E45A58AC4BF8B5A2DB253&assignmentId=3f909c30-8476-42c9-ad41-46c056318418&projectId=54f8d589-66fc-4c65-830f-1dcc63bce8cc","","null","<div style=""display: flex; justify-content: center; align-items: center;"">
                    <img src=""images/causal/causal_series_17/causal_series_17_d.jpg"" style=""width: 300px; height: 300px;"" />
                  </div>","null","",""
"","","","","","html-button-response","73","397650","0.0-53.0","F931A989F00E45A58AC4BF8B5A2DB253","F931A989F00E45A58AC4BF8B5A2DB253","3f909c30-8476-42c9-ad41-46c056318418","54f8d589-66fc-4c65-830f-1dcc63bce8cc","{""participantId"":""F931A989F00E45A58AC4BF8B5A2DB253"",""assignmentId"":""3f909c30-8476-42c9-ad41-46c056318418"",""projectId"":""54f8d589-66fc-4c65-830f-1dcc63bce8cc""}","https://test12345.live/?participantId=F931A989F00E45A58AC4BF8B5A2DB253&assignmentId=3f909c30-8476-42c9-ad41-46c056318418&projectId=54f8d589-66fc-4c65-830f-1dcc63bce8cc","","3886","Was there a person in the picture?","0","",""
"","","","","","survey-likert","74","399462","0.0-54.0","F931A989F00E45A58AC4BF8B5A2DB253","F931A989F00E45A58AC4BF8B5A2DB253","3f909c30-8476-42c9-ad41-46c056318418","54f8d589-66fc-4c65-830f-1dcc63bce8cc","{""participantId"":""F931A989F00E45A58AC4BF8B5A2DB253"",""assignmentId"":""3f909c30-8476-42c9-ad41-46c056318418"",""projectId"":""54f8d589-66fc-4c65-830f-1dcc63bce8cc""}","https://test12345.live/?participantId=F931A989F00E45A58AC4BF8B5A2DB253&assignmentId=3f909c30-8476-42c9-ad41-46c056318418&projectId=54f8d589-66fc-4c65-830f-1dcc63bce8cc","","1811","","{""Q0"":0}","","[0]"
"","","","","","html-button-response","75","400283","0.0-55.0","F931A989F00E45A58AC4BF8B5A2DB253","F931A989F00E45A58AC4BF8B5A2DB253","3f909c30-8476-42c9-ad41-46c056318418","54f8d589-66fc-4c65-830f-1dcc63bce8cc","{""participantId"":""F931A989F00E45A58AC4BF8B5A2DB253"",""assignmentId"":""3f909c30-8476-42c9-ad41-46c056318418"",""projectId"":""54f8d589-66fc-4c65-830f-1dcc63bce8cc""}","https://test12345.live/?participantId=F931A989F00E45A58AC4BF8B5A2DB253&assignmentId=3f909c30-8476-42c9-ad41-46c056318418&projectId=54f8d589-66fc-4c65-830f-1dcc63bce8cc","","820","
    <div style=""display: flex; justify-content: center; align-items: center;"">
      <img src=""images/red_deck_2.png"" style=""width: 300px; height: 300px; margin-right: 10px;"" />
      <img src=""images/blue_deck_1.png"" style=""width: 300px; height: 300px;"" />
    </div>","0","0",""
"","","","","","html-keyboard-response","76","403285","0.0-56.0-0.0","F931A989F00E45A58AC4BF8B5A2DB253","F931A989F00E45A58AC4BF8B5A2DB253","3f909c30-8476-42c9-ad41-46c056318418","54f8d589-66fc-4c65-830f-1dcc63bce8cc","{""participantId"":""F931A989F00E45A58AC4BF8B5A2DB253"",""assignmentId"":""3f909c30-8476-42c9-ad41-46c056318418"",""projectId"":""54f8d589-66fc-4c65-830f-1dcc63bce8cc""}","https://test12345.live/?participantId=F931A989F00E45A58AC4BF8B5A2DB253&assignmentId=3f909c30-8476-42c9-ad41-46c056318418&projectId=54f8d589-66fc-4c65-830f-1dcc63bce8cc","","null","<div style=""display: flex; justify-content: center; align-items: center;"">
                    <img src=""images/causal/causal_series_10/causal_series_10_a.jpg"" style=""width: 300px; height: 300px;"" />
                  </div>","null","",""
"","","","","","html-keyboard-response","77","407117","0.0-56.0-1.0","F931A989F00E45A58AC4BF8B5A2DB253","F931A989F00E45A58AC4BF8B5A2DB253","3f909c30-8476-42c9-ad41-46c056318418","54f8d589-66fc-4c65-830f-1dcc63bce8cc","{""participantId"":""F931A989F00E45A58AC4BF8B5A2DB253"",""assignmentId"":""3f909c30-8476-42c9-ad41-46c056318418"",""projectId"":""54f8d589-66fc-4c65-830f-1dcc63bce8cc""}","https://test12345.live/?participantId=F931A989F00E45A58AC4BF8B5A2DB253&assignmentId=3f909c30-8476-42c9-ad41-46c056318418&projectId=54f8d589-66fc-4c65-830f-1dcc63bce8cc","","null","<div style=""display: flex; justify-content: center; align-items: center;"">
                    <img src=""images/causal/causal_series_10/causal_series_10_b.jpg"" style=""width: 300px; height: 300px;"" />
                  </div>","null","",""
"","","","","","html-keyboard-response","78","410122","0.0-56.0-2.0","F931A989F00E45A58AC4BF8B5A2DB253","F931A989F00E45A58AC4BF8B5A2DB253","3f909c30-8476-42c9-ad41-46c056318418","54f8d589-66fc-4c65-830f-1dcc63bce8cc","{""participantId"":""F931A989F00E45A58AC4BF8B5A2DB253"",""assignmentId"":""3f909c30-8476-42c9-ad41-46c056318418"",""projectId"":""54f8d589-66fc-4c65-830f-1dcc63bce8cc""}","https://test12345.live/?participantId=F931A989F00E45A58AC4BF8B5A2DB253&assignmentId=3f909c30-8476-42c9-ad41-46c056318418&projectId=54f8d589-66fc-4c65-830f-1dcc63bce8cc","","null","<div style=""display: flex; justify-content: center; align-items: center;"">
                    <img src=""images/causal/causal_series_10/causal_series_10_c.jpg"" style=""width: 300px; height: 300px;"" />
                  </div>","null","",""
"","","","","","html-keyboard-response","79","413125","0.0-56.0-3.0","F931A989F00E45A58AC4BF8B5A2DB253","F931A989F00E45A58AC4BF8B5A2DB253","3f909c30-8476-42c9-ad41-46c056318418","54f8d589-66fc-4c65-830f-1dcc63bce8cc","{""participantId"":""F931A989F00E45A58AC4BF8B5A2DB253"",""assignmentId"":""3f909c30-8476-42c9-ad41-46c056318418"",""projectId"":""54f8d589-66fc-4c65-830f-1dcc63bce8cc""}","https://test12345.live/?participantId=F931A989F00E45A58AC4BF8B5A2DB253&assignmentId=3f909c30-8476-42c9-ad41-46c056318418&projectId=54f8d589-66fc-4c65-830f-1dcc63bce8cc","","null","<div style=""display: flex; justify-content: center; align-items: center;"">
                    <img src=""images/causal/causal_series_10/causal_series_10_d.jpg"" style=""width: 300px; height: 300px;"" />
                  </div>","null","",""
"","","","","","html-button-response","80","420410","0.0-58.0","F931A989F00E45A58AC4BF8B5A2DB253","F931A989F00E45A58AC4BF8B5A2DB253","3f909c30-8476-42c9-ad41-46c056318418","54f8d589-66fc-4c65-830f-1dcc63bce8cc","{""participantId"":""F931A989F00E45A58AC4BF8B5A2DB253"",""assignmentId"":""3f909c30-8476-42c9-ad41-46c056318418"",""projectId"":""54f8d589-66fc-4c65-830f-1dcc63bce8cc""}","https://test12345.live/?participantId=F931A989F00E45A58AC4BF8B5A2DB253&assignmentId=3f909c30-8476-42c9-ad41-46c056318418&projectId=54f8d589-66fc-4c65-830f-1dcc63bce8cc","","7284","Was there a person in the picture?","1","",""
"","","","","","survey-likert","81","421866","0.0-59.0","F931A989F00E45A58AC4BF8B5A2DB253","F931A989F00E45A58AC4BF8B5A2DB253","3f909c30-8476-42c9-ad41-46c056318418","54f8d589-66fc-4c65-830f-1dcc63bce8cc","{""participantId"":""F931A989F00E45A58AC4BF8B5A2DB253"",""assignmentId"":""3f909c30-8476-42c9-ad41-46c056318418"",""projectId"":""54f8d589-66fc-4c65-830f-1dcc63bce8cc""}","https://test12345.live/?participantId=F931A989F00E45A58AC4BF8B5A2DB253&assignmentId=3f909c30-8476-42c9-ad41-46c056318418&projectId=54f8d589-66fc-4c65-830f-1dcc63bce8cc","","1456","","{""Q0"":0}","","[0]"
"","","","","","html-button-response","82","423052","0.0-60.0","F931A989F00E45A58AC4BF8B5A2DB253","F931A989F00E45A58AC4BF8B5A2DB253","3f909c30-8476-42c9-ad41-46c056318418","54f8d589-66fc-4c65-830f-1dcc63bce8cc","{""participantId"":""F931A989F00E45A58AC4BF8B5A2DB253"",""assignmentId"":""3f909c30-8476-42c9-ad41-46c056318418"",""projectId"":""54f8d589-66fc-4c65-830f-1dcc63bce8cc""}","https://test12345.live/?participantId=F931A989F00E45A58AC4BF8B5A2DB253&assignmentId=3f909c30-8476-42c9-ad41-46c056318418&projectId=54f8d589-66fc-4c65-830f-1dcc63bce8cc","","1184","
    <div style=""display: flex; justify-content: center; align-items: center;"">
      <img src=""images/red_deck_2.png"" style=""width: 300px; height: 300px; margin-right: 10px;"" />
      <img src=""images/blue_deck_1.png"" style=""width: 300px; height: 300px;"" />
    </div>","0","0",""
"","","","","","html-keyboard-response","83","426054","0.0-61.0-0.0","F931A989F00E45A58AC4BF8B5A2DB253","F931A989F00E45A58AC4BF8B5A2DB253","3f909c30-8476-42c9-ad41-46c056318418","54f8d589-66fc-4c65-830f-1dcc63bce8cc","{""participantId"":""F931A989F00E45A58AC4BF8B5A2DB253"",""assignmentId"":""3f909c30-8476-42c9-ad41-46c056318418"",""projectId"":""54f8d589-66fc-4c65-830f-1dcc63bce8cc""}","https://test12345.live/?participantId=F931A989F00E45A58AC4BF8B5A2DB253&assignmentId=3f909c30-8476-42c9-ad41-46c056318418&projectId=54f8d589-66fc-4c65-830f-1dcc63bce8cc","","null","<div style=""display: flex; justify-content: center; align-items: center;"">
                    <img src=""images/causal/causal_series_13/causal_series_13_a.jpg"" style=""width: 300px; height: 300px;"" />
                  </div>","null","",""
"","","","","","html-keyboard-response","84","429057","0.0-61.0-1.0","F931A989F00E45A58AC4BF8B5A2DB253","F931A989F00E45A58AC4BF8B5A2DB253","3f909c30-8476-42c9-ad41-46c056318418","54f8d589-66fc-4c65-830f-1dcc63bce8cc","{""participantId"":""F931A989F00E45A58AC4BF8B5A2DB253"",""assignmentId"":""3f909c30-8476-42c9-ad41-46c056318418"",""projectId"":""54f8d589-66fc-4c65-830f-1dcc63bce8cc""}","https://test12345.live/?participantId=F931A989F00E45A58AC4BF8B5A2DB253&assignmentId=3f909c30-8476-42c9-ad41-46c056318418&projectId=54f8d589-66fc-4c65-830f-1dcc63bce8cc","","null","<div style=""display: flex; justify-content: center; align-items: center;"">
                    <img src=""images/causal/causal_series_13/causal_series_13_b.jpg"" style=""width: 300px; height: 300px;"" />
                  </div>","null","",""
"","","","","","html-keyboard-response","85","432060","0.0-61.0-2.0","F931A989F00E45A58AC4BF8B5A2DB253","F931A989F00E45A58AC4BF8B5A2DB253","3f909c30-8476-42c9-ad41-46c056318418","54f8d589-66fc-4c65-830f-1dcc63bce8cc","{""participantId"":""F931A989F00E45A58AC4BF8B5A2DB253"",""assignmentId"":""3f909c30-8476-42c9-ad41-46c056318418"",""projectId"":""54f8d589-66fc-4c65-830f-1dcc63bce8cc""}","https://test12345.live/?participantId=F931A989F00E45A58AC4BF8B5A2DB253&assignmentId=3f909c30-8476-42c9-ad41-46c056318418&projectId=54f8d589-66fc-4c65-830f-1dcc63bce8cc","","null","<div style=""display: flex; justify-content: center; align-items: center;"">
                    <img src=""images/causal/causal_series_13/causal_series_13_c.jpg"" style=""width: 300px; height: 300px;"" />
                  </div>","null","",""
"","","","","","html-keyboard-response","86","435062","0.0-61.0-3.0","F931A989F00E45A58AC4BF8B5A2DB253","F931A989F00E45A58AC4BF8B5A2DB253","3f909c30-8476-42c9-ad41-46c056318418","54f8d589-66fc-4c65-830f-1dcc63bce8cc","{""participantId"":""F931A989F00E45A58AC4BF8B5A2DB253"",""assignmentId"":""3f909c30-8476-42c9-ad41-46c056318418"",""projectId"":""54f8d589-66fc-4c65-830f-1dcc63bce8cc""}","https://test12345.live/?participantId=F931A989F00E45A58AC4BF8B5A2DB253&assignmentId=3f909c30-8476-42c9-ad41-46c056318418&projectId=54f8d589-66fc-4c65-830f-1dcc63bce8cc","","null","<div style=""display: flex; justify-content: center; align-items: center;"">
                    <img src=""images/causal/causal_series_13/causal_series_13_d.jpg"" style=""width: 300px; height: 300px;"" />
                  </div>","null","",""
"","","","","","html-button-response","87","445502","0.0-63.0","F931A989F00E45A58AC4BF8B5A2DB253","F931A989F00E45A58AC4BF8B5A2DB253","3f909c30-8476-42c9-ad41-46c056318418","54f8d589-66fc-4c65-830f-1dcc63bce8cc","{""participantId"":""F931A989F00E45A58AC4BF8B5A2DB253"",""assignmentId"":""3f909c30-8476-42c9-ad41-46c056318418"",""projectId"":""54f8d589-66fc-4c65-830f-1dcc63bce8cc""}","https://test12345.live/?participantId=F931A989F00E45A58AC4BF8B5A2DB253&assignmentId=3f909c30-8476-42c9-ad41-46c056318418&projectId=54f8d589-66fc-4c65-830f-1dcc63bce8cc","","10438","Was there a person in the picture?","0","",""
"","","","","","survey-likert","88","446970","0.0-64.0","F931A989F00E45A58AC4BF8B5A2DB253","F931A989F00E45A58AC4BF8B5A2DB253","3f909c30-8476-42c9-ad41-46c056318418","54f8d589-66fc-4c65-830f-1dcc63bce8cc","{""participantId"":""F931A989F00E45A58AC4BF8B5A2DB253"",""assignmentId"":""3f909c30-8476-42c9-ad41-46c056318418"",""projectId"":""54f8d589-66fc-4c65-830f-1dcc63bce8cc""}","https://test12345.live/?participantId=F931A989F00E45A58AC4BF8B5A2DB253&assignmentId=3f909c30-8476-42c9-ad41-46c056318418&projectId=54f8d589-66fc-4c65-830f-1dcc63bce8cc","","1468","","{""Q0"":0}","","[0]"
"","","","","","html-button-response","89","447812","0.0-65.0","F931A989F00E45A58AC4BF8B5A2DB253","F931A989F00E45A58AC4BF8B5A2DB253","3f909c30-8476-42c9-ad41-46c056318418","54f8d589-66fc-4c65-830f-1dcc63bce8cc","{""participantId"":""F931A989F00E45A58AC4BF8B5A2DB253"",""assignmentId"":""3f909c30-8476-42c9-ad41-46c056318418"",""projectId"":""54f8d589-66fc-4c65-830f-1dcc63bce8cc""}","https://test12345.live/?participantId=F931A989F00E45A58AC4BF8B5A2DB253&assignmentId=3f909c30-8476-42c9-ad41-46c056318418&projectId=54f8d589-66fc-4c65-830f-1dcc63bce8cc","","840","
    <div style=""display: flex; justify-content: center; align-items: center;"">
      <img src=""images/red_deck_2.png"" style=""width: 300px; height: 300px; margin-right: 10px;"" />
      <img src=""images/blue_deck_1.png"" style=""width: 300px; height: 300px;"" />
    </div>","1","1",""
"","","","","","html-keyboard-response","90","450815","0.0-67.0-0.0","F931A989F00E45A58AC4BF8B5A2DB253","F931A989F00E45A58AC4BF8B5A2DB253","3f909c30-8476-42c9-ad41-46c056318418","54f8d589-66fc-4c65-830f-1dcc63bce8cc","{""participantId"":""F931A989F00E45A58AC4BF8B5A2DB253"",""assignmentId"":""3f909c30-8476-42c9-ad41-46c056318418"",""projectId"":""54f8d589-66fc-4c65-830f-1dcc63bce8cc""}","https://test12345.live/?participantId=F931A989F00E45A58AC4BF8B5A2DB253&assignmentId=3f909c30-8476-42c9-ad41-46c056318418&projectId=54f8d589-66fc-4c65-830f-1dcc63bce8cc","","null","<div style=""display: flex; justify-content: center; align-items: center;"">
                    <img src=""images/semantic/semantic_series_15/semantic_series_15_a.jpg"" style=""width: 300px; height: 300px;"" />
                  </div>","null","",""
"","","","","","html-keyboard-response","91","453817","0.0-67.0-1.0","F931A989F00E45A58AC4BF8B5A2DB253","F931A989F00E45A58AC4BF8B5A2DB253","3f909c30-8476-42c9-ad41-46c056318418","54f8d589-66fc-4c65-830f-1dcc63bce8cc","{""participantId"":""F931A989F00E45A58AC4BF8B5A2DB253"",""assignmentId"":""3f909c30-8476-42c9-ad41-46c056318418"",""projectId"":""54f8d589-66fc-4c65-830f-1dcc63bce8cc""}","https://test12345.live/?participantId=F931A989F00E45A58AC4BF8B5A2DB253&assignmentId=3f909c30-8476-42c9-ad41-46c056318418&projectId=54f8d589-66fc-4c65-830f-1dcc63bce8cc","","null","<div style=""display: flex; justify-content: center; align-items: center;"">
                    <img src=""images/semantic/semantic_series_15/semantic_series_15_b.jpg"" style=""width: 300px; height: 300px;"" />
                  </div>","null","",""
"","","","","","html-keyboard-response","92","456819","0.0-67.0-2.0","F931A989F00E45A58AC4BF8B5A2DB253","F931A989F00E45A58AC4BF8B5A2DB253","3f909c30-8476-42c9-ad41-46c056318418","54f8d589-66fc-4c65-830f-1dcc63bce8cc","{""participantId"":""F931A989F00E45A58AC4BF8B5A2DB253"",""assignmentId"":""3f909c30-8476-42c9-ad41-46c056318418"",""projectId"":""54f8d589-66fc-4c65-830f-1dcc63bce8cc""}","https://test12345.live/?participantId=F931A989F00E45A58AC4BF8B5A2DB253&assignmentId=3f909c30-8476-42c9-ad41-46c056318418&projectId=54f8d589-66fc-4c65-830f-1dcc63bce8cc","","null","<div style=""display: flex; justify-content: center; align-items: center;"">
                    <img src=""images/semantic/semantic_series_15/semantic_series_15_c.jpg"" style=""width: 300px; height: 300px;"" />
                  </div>","null","",""
"","","","","","html-keyboard-response","93","459821","0.0-67.0-3.0","F931A989F00E45A58AC4BF8B5A2DB253","F931A989F00E45A58AC4BF8B5A2DB253","3f909c30-8476-42c9-ad41-46c056318418","54f8d589-66fc-4c65-830f-1dcc63bce8cc","{""participantId"":""F931A989F00E45A58AC4BF8B5A2DB253"",""assignmentId"":""3f909c30-8476-42c9-ad41-46c056318418"",""projectId"":""54f8d589-66fc-4c65-830f-1dcc63bce8cc""}","https://test12345.live/?participantId=F931A989F00E45A58AC4BF8B5A2DB253&assignmentId=3f909c30-8476-42c9-ad41-46c056318418&projectId=54f8d589-66fc-4c65-830f-1dcc63bce8cc","","null","<div style=""display: flex; justify-content: center; align-items: center;"">
                    <img src=""images/semantic/semantic_series_15/semantic_series_15_d.jpg"" style=""width: 300px; height: 300px;"" />
                  </div>","null","",""
"","","","","","html-button-response","94","464872","0.0-68.0","F931A989F00E45A58AC4BF8B5A2DB253","F931A989F00E45A58AC4BF8B5A2DB253","3f909c30-8476-42c9-ad41-46c056318418","54f8d589-66fc-4c65-830f-1dcc63bce8cc","{""participantId"":""F931A989F00E45A58AC4BF8B5A2DB253"",""assignmentId"":""3f909c30-8476-42c9-ad41-46c056318418"",""projectId"":""54f8d589-66fc-4c65-830f-1dcc63bce8cc""}","https://test12345.live/?participantId=F931A989F00E45A58AC4BF8B5A2DB253&assignmentId=3f909c30-8476-42c9-ad41-46c056318418&projectId=54f8d589-66fc-4c65-830f-1dcc63bce8cc","","5049","Was there a person in the picture?","1","",""
"","","","","","survey-likert","95","466620","0.0-69.0","F931A989F00E45A58AC4BF8B5A2DB253","F931A989F00E45A58AC4BF8B5A2DB253","3f909c30-8476-42c9-ad41-46c056318418","54f8d589-66fc-4c65-830f-1dcc63bce8cc","{""participantId"":""F931A989F00E45A58AC4BF8B5A2DB253"",""assignmentId"":""3f909c30-8476-42c9-ad41-46c056318418"",""projectId"":""54f8d589-66fc-4c65-830f-1dcc63bce8cc""}","https://test12345.live/?participantId=F931A989F00E45A58AC4BF8B5A2DB253&assignmentId=3f909c30-8476-42c9-ad41-46c056318418&projectId=54f8d589-66fc-4c65-830f-1dcc63bce8cc","","1747","","{""Q0"":0}","","[0]"
"","","","","","html-button-response","96","493712","0.0-70.0","F931A989F00E45A58AC4BF8B5A2DB253","F931A989F00E45A58AC4BF8B5A2DB253","3f909c30-8476-42c9-ad41-46c056318418","54f8d589-66fc-4c65-830f-1dcc63bce8cc","{""participantId"":""F931A989F00E45A58AC4BF8B5A2DB253"",""assignmentId"":""3f909c30-8476-42c9-ad41-46c056318418"",""projectId"":""54f8d589-66fc-4c65-830f-1dcc63bce8cc""}","https://test12345.live/?participantId=F931A989F00E45A58AC4BF8B5A2DB253&assignmentId=3f909c30-8476-42c9-ad41-46c056318418&projectId=54f8d589-66fc-4c65-830f-1dcc63bce8cc","","27090","
    <div style=""display: flex; justify-content: center; align-items: center;"">
      <img src=""images/red_deck_2.png"" style=""width: 300px; height: 300px; margin-right: 10px;"" />
      <img src=""images/blue_deck_1.png"" style=""width: 300px; height: 300px;"" />
    </div>","1","1",""
"","","","","","html-keyboard-response","97","496714","0.0-72.0-0.0","F931A989F00E45A58AC4BF8B5A2DB253","F931A989F00E45A58AC4BF8B5A2DB253","3f909c30-8476-42c9-ad41-46c056318418","54f8d589-66fc-4c65-830f-1dcc63bce8cc","{""participantId"":""F931A989F00E45A58AC4BF8B5A2DB253"",""assignmentId"":""3f909c30-8476-42c9-ad41-46c056318418"",""projectId"":""54f8d589-66fc-4c65-830f-1dcc63bce8cc""}","https://test12345.live/?participantId=F931A989F00E45A58AC4BF8B5A2DB253&assignmentId=3f909c30-8476-42c9-ad41-46c056318418&projectId=54f8d589-66fc-4c65-830f-1dcc63bce8cc","","null","<div style=""display: flex; justify-content: center; align-items: center;"">
                    <img src=""images/semantic/semantic_series_18/semantic_series_18_a.jpg"" style=""width: 300px; height: 300px;"" />
                  </div>","null","",""
"","","","","","html-keyboard-response","98","499717","0.0-72.0-1.0","F931A989F00E45A58AC4BF8B5A2DB253","F931A989F00E45A58AC4BF8B5A2DB253","3f909c30-8476-42c9-ad41-46c056318418","54f8d589-66fc-4c65-830f-1dcc63bce8cc","{""participantId"":""F931A989F00E45A58AC4BF8B5A2DB253"",""assignmentId"":""3f909c30-8476-42c9-ad41-46c056318418"",""projectId"":""54f8d589-66fc-4c65-830f-1dcc63bce8cc""}","https://test12345.live/?participantId=F931A989F00E45A58AC4BF8B5A2DB253&assignmentId=3f909c30-8476-42c9-ad41-46c056318418&projectId=54f8d589-66fc-4c65-830f-1dcc63bce8cc","","null","<div style=""display: flex; justify-content: center; align-items: center;"">
                    <img src=""images/semantic/semantic_series_18/semantic_series_18_b.jpg"" style=""width: 300px; height: 300px;"" />
                  </div>","null","",""
"","","","","","html-keyboard-response","99","502719","0.0-72.0-2.0","F931A989F00E45A58AC4BF8B5A2DB253","F931A989F00E45A58AC4BF8B5A2DB253","3f909c30-8476-42c9-ad41-46c056318418","54f8d589-66fc-4c65-830f-1dcc63bce8cc","{""participantId"":""F931A989F00E45A58AC4BF8B5A2DB253"",""assignmentId"":""3f909c30-8476-42c9-ad41-46c056318418"",""projectId"":""54f8d589-66fc-4c65-830f-1dcc63bce8cc""}","https://test12345.live/?participantId=F931A989F00E45A58AC4BF8B5A2DB253&assignmentId=3f909c30-8476-42c9-ad41-46c056318418&projectId=54f8d589-66fc-4c65-830f-1dcc63bce8cc","","null","<div style=""display: flex; justify-content: center; align-items: center;"">
                    <img src=""images/semantic/semantic_series_18/semantic_series_18_c.jpg"" style=""width: 300px; height: 300px;"" />
                  </div>","null","",""
"","","","","","html-keyboard-response","100","505721","0.0-72.0-3.0","F931A989F00E45A58AC4BF8B5A2DB253","F931A989F00E45A58AC4BF8B5A2DB253","3f909c30-8476-42c9-ad41-46c056318418","54f8d589-66fc-4c65-830f-1dcc63bce8cc","{""participantId"":""F931A989F00E45A58AC4BF8B5A2DB253"",""assignmentId"":""3f909c30-8476-42c9-ad41-46c056318418"",""projectId"":""54f8d589-66fc-4c65-830f-1dcc63bce8cc""}","https://test12345.live/?participantId=F931A989F00E45A58AC4BF8B5A2DB253&assignmentId=3f909c30-8476-42c9-ad41-46c056318418&projectId=54f8d589-66fc-4c65-830f-1dcc63bce8cc","","null","<div style=""display: flex; justify-content: center; align-items: center;"">
                    <img src=""images/semantic/semantic_series_18/semantic_series_18_d.jpg"" style=""width: 300px; height: 300px;"" />
                  </div>","null","",""
"","","","","","html-button-response","101","508974","0.0-73.0","F931A989F00E45A58AC4BF8B5A2DB253","F931A989F00E45A58AC4BF8B5A2DB253","3f909c30-8476-42c9-ad41-46c056318418","54f8d589-66fc-4c65-830f-1dcc63bce8cc","{""participantId"":""F931A989F00E45A58AC4BF8B5A2DB253"",""assignmentId"":""3f909c30-8476-42c9-ad41-46c056318418"",""projectId"":""54f8d589-66fc-4c65-830f-1dcc63bce8cc""}","https://test12345.live/?participantId=F931A989F00E45A58AC4BF8B5A2DB253&assignmentId=3f909c30-8476-42c9-ad41-46c056318418&projectId=54f8d589-66fc-4c65-830f-1dcc63bce8cc","","3252","Was there a person in the picture?","1","",""
"","","","","","survey-likert","102","511358","0.0-74.0","F931A989F00E45A58AC4BF8B5A2DB253","F931A989F00E45A58AC4BF8B5A2DB253","3f909c30-8476-42c9-ad41-46c056318418","54f8d589-66fc-4c65-830f-1dcc63bce8cc","{""participantId"":""F931A989F00E45A58AC4BF8B5A2DB253"",""assignmentId"":""3f909c30-8476-42c9-ad41-46c056318418"",""projectId"":""54f8d589-66fc-4c65-830f-1dcc63bce8cc""}","https://test12345.live/?participantId=F931A989F00E45A58AC4BF8B5A2DB253&assignmentId=3f909c30-8476-42c9-ad41-46c056318418&projectId=54f8d589-66fc-4c65-830f-1dcc63bce8cc","","2382","","{""Q0"":0}","","[0]"
"","","","","","html-button-response","103","518584","0.0-75.0","F931A989F00E45A58AC4BF8B5A2DB253","F931A989F00E45A58AC4BF8B5A2DB253","3f909c30-8476-42c9-ad41-46c056318418","54f8d589-66fc-4c65-830f-1dcc63bce8cc","{""participantId"":""F931A989F00E45A58AC4BF8B5A2DB253"",""assignmentId"":""3f909c30-8476-42c9-ad41-46c056318418"",""projectId"":""54f8d589-66fc-4c65-830f-1dcc63bce8cc""}","https://test12345.live/?participantId=F931A989F00E45A58AC4BF8B5A2DB253&assignmentId=3f909c30-8476-42c9-ad41-46c056318418&projectId=54f8d589-66fc-4c65-830f-1dcc63bce8cc","","7224","
    <div style=""display: flex; justify-content: center; align-items: center;"">
      <img src=""images/red_deck_2.png"" style=""width: 300px; height: 300px; margin-right: 10px;"" />
      <img src=""images/blue_deck_1.png"" style=""width: 300px; height: 300px;"" />
    </div>","0","0",""
"","","","","","html-keyboard-response","104","521586","0.0-76.0-0.0","F931A989F00E45A58AC4BF8B5A2DB253","F931A989F00E45A58AC4BF8B5A2DB253","3f909c30-8476-42c9-ad41-46c056318418","54f8d589-66fc-4c65-830f-1dcc63bce8cc","{""participantId"":""F931A989F00E45A58AC4BF8B5A2DB253"",""assignmentId"":""3f909c30-8476-42c9-ad41-46c056318418"",""projectId"":""54f8d589-66fc-4c65-830f-1dcc63bce8cc""}","https://test12345.live/?participantId=F931A989F00E45A58AC4BF8B5A2DB253&assignmentId=3f909c30-8476-42c9-ad41-46c056318418&projectId=54f8d589-66fc-4c65-830f-1dcc63bce8cc","","null","<div style=""display: flex; justify-content: center; align-items: center;"">
                    <img src=""images/causal/causal_series_12/causal_series_12_a.jpg"" style=""width: 300px; height: 300px;"" />
                  </div>","null","",""
"","","","","","html-keyboard-response","105","524588","0.0-76.0-1.0","F931A989F00E45A58AC4BF8B5A2DB253","F931A989F00E45A58AC4BF8B5A2DB253","3f909c30-8476-42c9-ad41-46c056318418","54f8d589-66fc-4c65-830f-1dcc63bce8cc","{""participantId"":""F931A989F00E45A58AC4BF8B5A2DB253"",""assignmentId"":""3f909c30-8476-42c9-ad41-46c056318418"",""projectId"":""54f8d589-66fc-4c65-830f-1dcc63bce8cc""}","https://test12345.live/?participantId=F931A989F00E45A58AC4BF8B5A2DB253&assignmentId=3f909c30-8476-42c9-ad41-46c056318418&projectId=54f8d589-66fc-4c65-830f-1dcc63bce8cc","","null","<div style=""display: flex; justify-content: center; align-items: center;"">
                    <img src=""images/causal/causal_series_12/causal_series_12_b.jpg"" style=""width: 300px; height: 300px;"" />
                  </div>","null","",""
"","","","","","html-keyboard-response","106","527591","0.0-76.0-2.0","F931A989F00E45A58AC4BF8B5A2DB253","F931A989F00E45A58AC4BF8B5A2DB253","3f909c30-8476-42c9-ad41-46c056318418","54f8d589-66fc-4c65-830f-1dcc63bce8cc","{""participantId"":""F931A989F00E45A58AC4BF8B5A2DB253"",""assignmentId"":""3f909c30-8476-42c9-ad41-46c056318418"",""projectId"":""54f8d589-66fc-4c65-830f-1dcc63bce8cc""}","https://test12345.live/?participantId=F931A989F00E45A58AC4BF8B5A2DB253&assignmentId=3f909c30-8476-42c9-ad41-46c056318418&projectId=54f8d589-66fc-4c65-830f-1dcc63bce8cc","","null","<div style=""display: flex; justify-content: center; align-items: center;"">
                    <img src=""images/causal/causal_series_12/causal_series_12_c.jpg"" style=""width: 300px; height: 300px;"" />
                  </div>","null","",""
"","","","","","html-keyboard-response","107","530593","0.0-76.0-3.0","F931A989F00E45A58AC4BF8B5A2DB253","F931A989F00E45A58AC4BF8B5A2DB253","3f909c30-8476-42c9-ad41-46c056318418","54f8d589-66fc-4c65-830f-1dcc63bce8cc","{""participantId"":""F931A989F00E45A58AC4BF8B5A2DB253"",""assignmentId"":""3f909c30-8476-42c9-ad41-46c056318418"",""projectId"":""54f8d589-66fc-4c65-830f-1dcc63bce8cc""}","https://test12345.live/?participantId=F931A989F00E45A58AC4BF8B5A2DB253&assignmentId=3f909c30-8476-42c9-ad41-46c056318418&projectId=54f8d589-66fc-4c65-830f-1dcc63bce8cc","","null","<div style=""display: flex; justify-content: center; align-items: center;"">
                    <img src=""images/causal/causal_series_12/causal_series_12_d.jpg"" style=""width: 300px; height: 300px;"" />
                  </div>","null","",""
"","","","","","html-button-response","108","546123","0.0-78.0","F931A989F00E45A58AC4BF8B5A2DB253","F931A989F00E45A58AC4BF8B5A2DB253","3f909c30-8476-42c9-ad41-46c056318418","54f8d589-66fc-4c65-830f-1dcc63bce8cc","{""participantId"":""F931A989F00E45A58AC4BF8B5A2DB253"",""assignmentId"":""3f909c30-8476-42c9-ad41-46c056318418"",""projectId"":""54f8d589-66fc-4c65-830f-1dcc63bce8cc""}","https://test12345.live/?participantId=F931A989F00E45A58AC4BF8B5A2DB253&assignmentId=3f909c30-8476-42c9-ad41-46c056318418&projectId=54f8d589-66fc-4c65-830f-1dcc63bce8cc","","15529","Was there a person in the picture?","1","",""
"","","","","","survey-likert","109","548093","0.0-79.0","F931A989F00E45A58AC4BF8B5A2DB253","F931A989F00E45A58AC4BF8B5A2DB253","3f909c30-8476-42c9-ad41-46c056318418","54f8d589-66fc-4c65-830f-1dcc63bce8cc","{""participantId"":""F931A989F00E45A58AC4BF8B5A2DB253"",""assignmentId"":""3f909c30-8476-42c9-ad41-46c056318418"",""projectId"":""54f8d589-66fc-4c65-830f-1dcc63bce8cc""}","https://test12345.live/?participantId=F931A989F00E45A58AC4BF8B5A2DB253&assignmentId=3f909c30-8476-42c9-ad41-46c056318418&projectId=54f8d589-66fc-4c65-830f-1dcc63bce8cc","","1969","","{""Q0"":0}","","[0]"
"","","","","","html-button-response","110","555525","0.0-80.0","F931A989F00E45A58AC4BF8B5A2DB253","F931A989F00E45A58AC4BF8B5A2DB253","3f909c30-8476-42c9-ad41-46c056318418","54f8d589-66fc-4c65-830f-1dcc63bce8cc","{""participantId"":""F931A989F00E45A58AC4BF8B5A2DB253"",""assignmentId"":""3f909c30-8476-42c9-ad41-46c056318418"",""projectId"":""54f8d589-66fc-4c65-830f-1dcc63bce8cc""}","https://test12345.live/?participantId=F931A989F00E45A58AC4BF8B5A2DB253&assignmentId=3f909c30-8476-42c9-ad41-46c056318418&projectId=54f8d589-66fc-4c65-830f-1dcc63bce8cc","","7431","
    <div style=""display: flex; justify-content: center; align-items: center;"">
      <img src=""images/red_deck_2.png"" style=""width: 300px; height: 300px; margin-right: 10px;"" />
      <img src=""images/blue_deck_1.png"" style=""width: 300px; height: 300px;"" />
    </div>","0","0",""
"","","","","","html-keyboard-response","111","558528","0.0-81.0-0.0","F931A989F00E45A58AC4BF8B5A2DB253","F931A989F00E45A58AC4BF8B5A2DB253","3f909c30-8476-42c9-ad41-46c056318418","54f8d589-66fc-4c65-830f-1dcc63bce8cc","{""participantId"":""F931A989F00E45A58AC4BF8B5A2DB253"",""assignmentId"":""3f909c30-8476-42c9-ad41-46c056318418"",""projectId"":""54f8d589-66fc-4c65-830f-1dcc63bce8cc""}","https://test12345.live/?participantId=F931A989F00E45A58AC4BF8B5A2DB253&assignmentId=3f909c30-8476-42c9-ad41-46c056318418&projectId=54f8d589-66fc-4c65-830f-1dcc63bce8cc","","null","<div style=""display: flex; justify-content: center; align-items: center;"">
                    <img src=""images/causal/causal_series_7/causal_series_7_a.jpg"" style=""width: 300px; height: 300px;"" />
                  </div>","null","",""
"","","","","","html-keyboard-response","112","561530","0.0-81.0-1.0","F931A989F00E45A58AC4BF8B5A2DB253","F931A989F00E45A58AC4BF8B5A2DB253","3f909c30-8476-42c9-ad41-46c056318418","54f8d589-66fc-4c65-830f-1dcc63bce8cc","{""participantId"":""F931A989F00E45A58AC4BF8B5A2DB253"",""assignmentId"":""3f909c30-8476-42c9-ad41-46c056318418"",""projectId"":""54f8d589-66fc-4c65-830f-1dcc63bce8cc""}","https://test12345.live/?participantId=F931A989F00E45A58AC4BF8B5A2DB253&assignmentId=3f909c30-8476-42c9-ad41-46c056318418&projectId=54f8d589-66fc-4c65-830f-1dcc63bce8cc","","null","<div style=""display: flex; justify-content: center; align-items: center;"">
                    <img src=""images/causal/causal_series_7/causal_series_7_b.jpg"" style=""width: 300px; height: 300px;"" />
                  </div>","null","",""
"","","","","","html-keyboard-response","113","564531","0.0-81.0-2.0","F931A989F00E45A58AC4BF8B5A2DB253","F931A989F00E45A58AC4BF8B5A2DB253","3f909c30-8476-42c9-ad41-46c056318418","54f8d589-66fc-4c65-830f-1dcc63bce8cc","{""participantId"":""F931A989F00E45A58AC4BF8B5A2DB253"",""assignmentId"":""3f909c30-8476-42c9-ad41-46c056318418"",""projectId"":""54f8d589-66fc-4c65-830f-1dcc63bce8cc""}","https://test12345.live/?participantId=F931A989F00E45A58AC4BF8B5A2DB253&assignmentId=3f909c30-8476-42c9-ad41-46c056318418&projectId=54f8d589-66fc-4c65-830f-1dcc63bce8cc","","null","<div style=""display: flex; justify-content: center; align-items: center;"">
                    <img src=""images/causal/causal_series_7/causal_series_7_c.jpg"" style=""width: 300px; height: 300px;"" />
                  </div>","null","",""
"","","","","","html-keyboard-response","114","567533","0.0-81.0-3.0","F931A989F00E45A58AC4BF8B5A2DB253","F931A989F00E45A58AC4BF8B5A2DB253","3f909c30-8476-42c9-ad41-46c056318418","54f8d589-66fc-4c65-830f-1dcc63bce8cc","{""participantId"":""F931A989F00E45A58AC4BF8B5A2DB253"",""assignmentId"":""3f909c30-8476-42c9-ad41-46c056318418"",""projectId"":""54f8d589-66fc-4c65-830f-1dcc63bce8cc""}","https://test12345.live/?participantId=F931A989F00E45A58AC4BF8B5A2DB253&assignmentId=3f909c30-8476-42c9-ad41-46c056318418&projectId=54f8d589-66fc-4c65-830f-1dcc63bce8cc","","null","<div style=""display: flex; justify-content: center; align-items: center;"">
                    <img src=""images/causal/causal_series_7/causal_series_7_d.jpg"" style=""width: 300px; height: 300px;"" />
                  </div>","null","",""
"","","","","","html-button-response","115","570700","0.0-83.0","F931A989F00E45A58AC4BF8B5A2DB253","F931A989F00E45A58AC4BF8B5A2DB253","3f909c30-8476-42c9-ad41-46c056318418","54f8d589-66fc-4c65-830f-1dcc63bce8cc","{""participantId"":""F931A989F00E45A58AC4BF8B5A2DB253"",""assignmentId"":""3f909c30-8476-42c9-ad41-46c056318418"",""projectId"":""54f8d589-66fc-4c65-830f-1dcc63bce8cc""}","https://test12345.live/?participantId=F931A989F00E45A58AC4BF8B5A2DB253&assignmentId=3f909c30-8476-42c9-ad41-46c056318418&projectId=54f8d589-66fc-4c65-830f-1dcc63bce8cc","","3166","Was there a person in the picture?","1","",""
"","","","","","survey-likert","116","573506","0.0-84.0","F931A989F00E45A58AC4BF8B5A2DB253","F931A989F00E45A58AC4BF8B5A2DB253","3f909c30-8476-42c9-ad41-46c056318418","54f8d589-66fc-4c65-830f-1dcc63bce8cc","{""participantId"":""F931A989F00E45A58AC4BF8B5A2DB253"",""assignmentId"":""3f909c30-8476-42c9-ad41-46c056318418"",""projectId"":""54f8d589-66fc-4c65-830f-1dcc63bce8cc""}","https://test12345.live/?participantId=F931A989F00E45A58AC4BF8B5A2DB253&assignmentId=3f909c30-8476-42c9-ad41-46c056318418&projectId=54f8d589-66fc-4c65-830f-1dcc63bce8cc","","2805","","{""Q0"":0}","","[0]"
"","","","","","html-button-response","117","574465","0.0-85.0","F931A989F00E45A58AC4BF8B5A2DB253","F931A989F00E45A58AC4BF8B5A2DB253","3f909c30-8476-42c9-ad41-46c056318418","54f8d589-66fc-4c65-830f-1dcc63bce8cc","{""participantId"":""F931A989F00E45A58AC4BF8B5A2DB253"",""assignmentId"":""3f909c30-8476-42c9-ad41-46c056318418"",""projectId"":""54f8d589-66fc-4c65-830f-1dcc63bce8cc""}","https://test12345.live/?participantId=F931A989F00E45A58AC4BF8B5A2DB253&assignmentId=3f909c30-8476-42c9-ad41-46c056318418&projectId=54f8d589-66fc-4c65-830f-1dcc63bce8cc","","958","
    <div style=""display: flex; justify-content: center; align-items: center;"">
      <img src=""images/red_deck_2.png"" style=""width: 300px; height: 300px; margin-right: 10px;"" />
      <img src=""images/blue_deck_1.png"" style=""width: 300px; height: 300px;"" />
    </div>","0","0",""
"","","","","","html-keyboard-response","118","577468","0.0-86.0-0.0","F931A989F00E45A58AC4BF8B5A2DB253","F931A989F00E45A58AC4BF8B5A2DB253","3f909c30-8476-42c9-ad41-46c056318418","54f8d589-66fc-4c65-830f-1dcc63bce8cc","{""participantId"":""F931A989F00E45A58AC4BF8B5A2DB253"",""assignmentId"":""3f909c30-8476-42c9-ad41-46c056318418"",""projectId"":""54f8d589-66fc-4c65-830f-1dcc63bce8cc""}","https://test12345.live/?participantId=F931A989F00E45A58AC4BF8B5A2DB253&assignmentId=3f909c30-8476-42c9-ad41-46c056318418&projectId=54f8d589-66fc-4c65-830f-1dcc63bce8cc","","null","<div style=""display: flex; justify-content: center; align-items: center;"">
                    <img src=""images/causal/causal_series_2/causal_series_2_a.jpg"" style=""width: 300px; height: 300px;"" />
                  </div>","null","",""
"","","","","","html-keyboard-response","119","580470","0.0-86.0-1.0","F931A989F00E45A58AC4BF8B5A2DB253","F931A989F00E45A58AC4BF8B5A2DB253","3f909c30-8476-42c9-ad41-46c056318418","54f8d589-66fc-4c65-830f-1dcc63bce8cc","{""participantId"":""F931A989F00E45A58AC4BF8B5A2DB253"",""assignmentId"":""3f909c30-8476-42c9-ad41-46c056318418"",""projectId"":""54f8d589-66fc-4c65-830f-1dcc63bce8cc""}","https://test12345.live/?participantId=F931A989F00E45A58AC4BF8B5A2DB253&assignmentId=3f909c30-8476-42c9-ad41-46c056318418&projectId=54f8d589-66fc-4c65-830f-1dcc63bce8cc","","null","<div style=""display: flex; justify-content: center; align-items: center;"">
                    <img src=""images/causal/causal_series_2/causal_series_2_b.jpg"" style=""width: 300px; height: 300px;"" />
                  </div>","null","",""
"","","","","","html-keyboard-response","120","583472","0.0-86.0-2.0","F931A989F00E45A58AC4BF8B5A2DB253","F931A989F00E45A58AC4BF8B5A2DB253","3f909c30-8476-42c9-ad41-46c056318418","54f8d589-66fc-4c65-830f-1dcc63bce8cc","{""participantId"":""F931A989F00E45A58AC4BF8B5A2DB253"",""assignmentId"":""3f909c30-8476-42c9-ad41-46c056318418"",""projectId"":""54f8d589-66fc-4c65-830f-1dcc63bce8cc""}","https://test12345.live/?participantId=F931A989F00E45A58AC4BF8B5A2DB253&assignmentId=3f909c30-8476-42c9-ad41-46c056318418&projectId=54f8d589-66fc-4c65-830f-1dcc63bce8cc","","null","<div style=""display: flex; justify-content: center; align-items: center;"">
                    <img src=""images/causal/causal_series_2/causal_series_2_c.jpg"" style=""width: 300px; height: 300px;"" />
                  </div>","null","",""
"","","","","","html-keyboard-response","121","586475","0.0-86.0-3.0","F931A989F00E45A58AC4BF8B5A2DB253","F931A989F00E45A58AC4BF8B5A2DB253","3f909c30-8476-42c9-ad41-46c056318418","54f8d589-66fc-4c65-830f-1dcc63bce8cc","{""participantId"":""F931A989F00E45A58AC4BF8B5A2DB253"",""assignmentId"":""3f909c30-8476-42c9-ad41-46c056318418"",""projectId"":""54f8d589-66fc-4c65-830f-1dcc63bce8cc""}","https://test12345.live/?participantId=F931A989F00E45A58AC4BF8B5A2DB253&assignmentId=3f909c30-8476-42c9-ad41-46c056318418&projectId=54f8d589-66fc-4c65-830f-1dcc63bce8cc","","null","<div style=""display: flex; justify-content: center; align-items: center;"">
                    <img src=""images/causal/causal_series_2/causal_series_2_d.jpg"" style=""width: 300px; height: 300px;"" />
                  </div>","null","",""
"","","","","","html-button-response","122","590674","0.0-88.0","F931A989F00E45A58AC4BF8B5A2DB253","F931A989F00E45A58AC4BF8B5A2DB253","3f909c30-8476-42c9-ad41-46c056318418","54f8d589-66fc-4c65-830f-1dcc63bce8cc","{""participantId"":""F931A989F00E45A58AC4BF8B5A2DB253"",""assignmentId"":""3f909c30-8476-42c9-ad41-46c056318418"",""projectId"":""54f8d589-66fc-4c65-830f-1dcc63bce8cc""}","https://test12345.live/?participantId=F931A989F00E45A58AC4BF8B5A2DB253&assignmentId=3f909c30-8476-42c9-ad41-46c056318418&projectId=54f8d589-66fc-4c65-830f-1dcc63bce8cc","","4198","Was there a person in the picture?","1","",""
"","","","","","survey-likert","123","592440","0.0-89.0","F931A989F00E45A58AC4BF8B5A2DB253","F931A989F00E45A58AC4BF8B5A2DB253","3f909c30-8476-42c9-ad41-46c056318418","54f8d589-66fc-4c65-830f-1dcc63bce8cc","{""participantId"":""F931A989F00E45A58AC4BF8B5A2DB253"",""assignmentId"":""3f909c30-8476-42c9-ad41-46c056318418"",""projectId"":""54f8d589-66fc-4c65-830f-1dcc63bce8cc""}","https://test12345.live/?participantId=F931A989F00E45A58AC4BF8B5A2DB253&assignmentId=3f909c30-8476-42c9-ad41-46c056318418&projectId=54f8d589-66fc-4c65-830f-1dcc63bce8cc","","1764","","{""Q0"":0}","","[0]"
"","","","","","html-button-response","124","594471","0.0-90.0","F931A989F00E45A58AC4BF8B5A2DB253","F931A989F00E45A58AC4BF8B5A2DB253","3f909c30-8476-42c9-ad41-46c056318418","54f8d589-66fc-4c65-830f-1dcc63bce8cc","{""participantId"":""F931A989F00E45A58AC4BF8B5A2DB253"",""assignmentId"":""3f909c30-8476-42c9-ad41-46c056318418"",""projectId"":""54f8d589-66fc-4c65-830f-1dcc63bce8cc""}","https://test12345.live/?participantId=F931A989F00E45A58AC4BF8B5A2DB253&assignmentId=3f909c30-8476-42c9-ad41-46c056318418&projectId=54f8d589-66fc-4c65-830f-1dcc63bce8cc","","2031","
    <div style=""display: flex; justify-content: center; align-items: center;"">
      <img src=""images/red_deck_2.png"" style=""width: 300px; height: 300px; margin-right: 10px;"" />
      <img src=""images/blue_deck_1.png"" style=""width: 300px; height: 300px;"" />
    </div>","1","1",""
"","","","","","html-keyboard-response","125","597474","0.0-92.0-0.0","F931A989F00E45A58AC4BF8B5A2DB253","F931A989F00E45A58AC4BF8B5A2DB253","3f909c30-8476-42c9-ad41-46c056318418","54f8d589-66fc-4c65-830f-1dcc63bce8cc","{""participantId"":""F931A989F00E45A58AC4BF8B5A2DB253"",""assignmentId"":""3f909c30-8476-42c9-ad41-46c056318418"",""projectId"":""54f8d589-66fc-4c65-830f-1dcc63bce8cc""}","https://test12345.live/?participantId=F931A989F00E45A58AC4BF8B5A2DB253&assignmentId=3f909c30-8476-42c9-ad41-46c056318418&projectId=54f8d589-66fc-4c65-830f-1dcc63bce8cc","","null","<div style=""display: flex; justify-content: center; align-items: center;"">
                    <img src=""images/semantic/semantic_series_11/semantic_series_11_a.jpg"" style=""width: 300px; height: 300px;"" />
                  </div>","null","",""
"","","","","","html-keyboard-response","126","600476","0.0-92.0-1.0","F931A989F00E45A58AC4BF8B5A2DB253","F931A989F00E45A58AC4BF8B5A2DB253","3f909c30-8476-42c9-ad41-46c056318418","54f8d589-66fc-4c65-830f-1dcc63bce8cc","{""participantId"":""F931A989F00E45A58AC4BF8B5A2DB253"",""assignmentId"":""3f909c30-8476-42c9-ad41-46c056318418"",""projectId"":""54f8d589-66fc-4c65-830f-1dcc63bce8cc""}","https://test12345.live/?participantId=F931A989F00E45A58AC4BF8B5A2DB253&assignmentId=3f909c30-8476-42c9-ad41-46c056318418&projectId=54f8d589-66fc-4c65-830f-1dcc63bce8cc","","null","<div style=""display: flex; justify-content: center; align-items: center;"">
                    <img src=""images/semantic/semantic_series_11/semantic_series_11_b.jpg"" style=""width: 300px; height: 300px;"" />
                  </div>","null","",""
"","","","","","html-keyboard-response","127","604125","0.0-92.0-2.0","F931A989F00E45A58AC4BF8B5A2DB253","F931A989F00E45A58AC4BF8B5A2DB253","3f909c30-8476-42c9-ad41-46c056318418","54f8d589-66fc-4c65-830f-1dcc63bce8cc","{""participantId"":""F931A989F00E45A58AC4BF8B5A2DB253"",""assignmentId"":""3f909c30-8476-42c9-ad41-46c056318418"",""projectId"":""54f8d589-66fc-4c65-830f-1dcc63bce8cc""}","https://test12345.live/?participantId=F931A989F00E45A58AC4BF8B5A2DB253&assignmentId=3f909c30-8476-42c9-ad41-46c056318418&projectId=54f8d589-66fc-4c65-830f-1dcc63bce8cc","","null","<div style=""display: flex; justify-content: center; align-items: center;"">
                    <img src=""images/semantic/semantic_series_11/semantic_series_11_c.jpg"" style=""width: 300px; height: 300px;"" />
                  </div>","null","",""
"","","","","","html-keyboard-response","128","607126","0.0-92.0-3.0","F931A989F00E45A58AC4BF8B5A2DB253","F931A989F00E45A58AC4BF8B5A2DB253","3f909c30-8476-42c9-ad41-46c056318418","54f8d589-66fc-4c65-830f-1dcc63bce8cc","{""participantId"":""F931A989F00E45A58AC4BF8B5A2DB253"",""assignmentId"":""3f909c30-8476-42c9-ad41-46c056318418"",""projectId"":""54f8d589-66fc-4c65-830f-1dcc63bce8cc""}","https://test12345.live/?participantId=F931A989F00E45A58AC4BF8B5A2DB253&assignmentId=3f909c30-8476-42c9-ad41-46c056318418&projectId=54f8d589-66fc-4c65-830f-1dcc63bce8cc","","null","<div style=""display: flex; justify-content: center; align-items: center;"">
                    <img src=""images/semantic/semantic_series_11/semantic_series_11_d.jpg"" style=""width: 300px; height: 300px;"" />
                  </div>","null","",""
"","","","","","html-button-response","129","609722","0.0-93.0","F931A989F00E45A58AC4BF8B5A2DB253","F931A989F00E45A58AC4BF8B5A2DB253","3f909c30-8476-42c9-ad41-46c056318418","54f8d589-66fc-4c65-830f-1dcc63bce8cc","{""participantId"":""F931A989F00E45A58AC4BF8B5A2DB253"",""assignmentId"":""3f909c30-8476-42c9-ad41-46c056318418"",""projectId"":""54f8d589-66fc-4c65-830f-1dcc63bce8cc""}","https://test12345.live/?participantId=F931A989F00E45A58AC4BF8B5A2DB253&assignmentId=3f909c30-8476-42c9-ad41-46c056318418&projectId=54f8d589-66fc-4c65-830f-1dcc63bce8cc","","2595","Was there a person in the picture?","0","",""
"","","","","","survey-likert","130","611082","0.0-94.0","F931A989F00E45A58AC4BF8B5A2DB253","F931A989F00E45A58AC4BF8B5A2DB253","3f909c30-8476-42c9-ad41-46c056318418","54f8d589-66fc-4c65-830f-1dcc63bce8cc","{""participantId"":""F931A989F00E45A58AC4BF8B5A2DB253"",""assignmentId"":""3f909c30-8476-42c9-ad41-46c056318418"",""projectId"":""54f8d589-66fc-4c65-830f-1dcc63bce8cc""}","https://test12345.live/?participantId=F931A989F00E45A58AC4BF8B5A2DB253&assignmentId=3f909c30-8476-42c9-ad41-46c056318418&projectId=54f8d589-66fc-4c65-830f-1dcc63bce8cc","","1359","","{""Q0"":0}","","[0]"
"","","","","","survey-text","131","619199","0.0-95.0","F931A989F00E45A58AC4BF8B5A2DB253","F931A989F00E45A58AC4BF8B5A2DB253","3f909c30-8476-42c9-ad41-46c056318418","54f8d589-66fc-4c65-830f-1dcc63bce8cc","{""participantId"":""F931A989F00E45A58AC4BF8B5A2DB253"",""assignmentId"":""3f909c30-8476-42c9-ad41-46c056318418"",""projectId"":""54f8d589-66fc-4c65-830f-1dcc63bce8cc""}","https://test12345.live/?participantId=F931A989F00E45A58AC4BF8B5A2DB253&assignmentId=3f909c30-8476-42c9-ad41-46c056318418&projectId=54f8d589-66fc-4c65-830f-1dcc63bce8cc","","8113","","{""Q0"":""i dont see a difference""}","",""
