"success","timeout","failed_images","failed_audio","failed_video","trial_type","trial_index","time_elapsed","internal_node_id","subject","subject_id","study_id","session_id","urlvar","current_url","view_history","rt","stimulus","response","choice","question_order"
"true","false","[]","[]","[]","preload","0","771","0.0-0.0","DD0D27503B88469AAB822A53357FF732","DD0D27503B88469AAB822A53357FF732","072f6c7f-d61a-431d-bb93-6fd3095a28a9","54f8d589-66fc-4c65-830f-1dcc63bce8cc","{""participantId"":""DD0D27503B88469AAB822A53357FF732"",""assignmentId"":""072f6c7f-d61a-431d-bb93-6fd3095a28a9"",""projectId"":""54f8d589-66fc-4c65-830f-1dcc63bce8cc""}","https://test12345.live/?participantId=DD0D27503B88469AAB822A53357FF732&assignmentId=072f6c7f-d61a-431d-bb93-6fd3095a28a9&projectId=54f8d589-66fc-4c65-830f-1dcc63bce8cc","","","","","",""
"","","","","","instructions","1","465105","0.0-1.0","DD0D27503B88469AAB822A53357FF732","DD0D27503B88469AAB822A53357FF732","072f6c7f-d61a-431d-bb93-6fd3095a28a9","54f8d589-66fc-4c65-830f-1dcc63bce8cc","{""participantId"":""DD0D27503B88469AAB822A53357FF732"",""assignmentId"":""072f6c7f-d61a-431d-bb93-6fd3095a28a9"",""projectId"":""54f8d589-66fc-4c65-830f-1dcc63bce8cc""}","https://test12345.live/?participantId=DD0D27503B88469AAB822A53357FF732&assignmentId=072f6c7f-d61a-431d-bb93-6fd3095a28a9&projectId=54f8d589-66fc-4c65-830f-1dcc63bce8cc","[{""page_index"":0,""viewing_time"":464333}]","464333","","","",""
"","","","","","instructions","2","468762","0.0-2.0","DD0D27503B88469AAB822A53357FF732","DD0D27503B88469AAB822A53357FF732","072f6c7f-d61a-431d-bb93-6fd3095a28a9","54f8d589-66fc-4c65-830f-1dcc63bce8cc","{""participantId"":""DD0D27503B88469AAB822A53357FF732"",""assignmentId"":""072f6c7f-d61a-431d-bb93-6fd3095a28a9"",""projectId"":""54f8d589-66fc-4c65-830f-1dcc63bce8cc""}","https://test12345.live/?participantId=DD0D27503B88469AAB822A53357FF732&assignmentId=072f6c7f-d61a-431d-bb93-6fd3095a28a9&projectId=54f8d589-66fc-4c65-830f-1dcc63bce8cc","[{""page_index"":0,""viewing_time"":3656}]","3656","","","",""
"true","","","","","fullscreen","3","471687","0.0-3.0","DD0D27503B88469AAB822A53357FF732","DD0D27503B88469AAB822A53357FF732","072f6c7f-d61a-431d-bb93-6fd3095a28a9","54f8d589-66fc-4c65-830f-1dcc63bce8cc","{""participantId"":""DD0D27503B88469AAB822A53357FF732"",""assignmentId"":""072f6c7f-d61a-431d-bb93-6fd3095a28a9"",""projectId"":""54f8d589-66fc-4c65-830f-1dcc63bce8cc""}","https://test12345.live/?participantId=DD0D27503B88469AAB822A53357FF732&assignmentId=072f6c7f-d61a-431d-bb93-6fd3095a28a9&projectId=54f8d589-66fc-4c65-830f-1dcc63bce8cc","","1917","","","",""
"","","","","","instructions","4","491640","0.0-4.0","DD0D27503B88469AAB822A53357FF732","DD0D27503B88469AAB822A53357FF732","072f6c7f-d61a-431d-bb93-6fd3095a28a9","54f8d589-66fc-4c65-830f-1dcc63bce8cc","{""participantId"":""DD0D27503B88469AAB822A53357FF732"",""assignmentId"":""072f6c7f-d61a-431d-bb93-6fd3095a28a9"",""projectId"":""54f8d589-66fc-4c65-830f-1dcc63bce8cc""}","https://test12345.live/?participantId=DD0D27503B88469AAB822A53357FF732&assignmentId=072f6c7f-d61a-431d-bb93-6fd3095a28a9&projectId=54f8d589-66fc-4c65-830f-1dcc63bce8cc","[{""page_index"":0,""viewing_time"":19952}]","19952","","","",""
"","","","","","html-button-response","5","495918","0.0-5.0","DD0D27503B88469AAB822A53357FF732","DD0D27503B88469AAB822A53357FF732","072f6c7f-d61a-431d-bb93-6fd3095a28a9","54f8d589-66fc-4c65-830f-1dcc63bce8cc","{""participantId"":""DD0D27503B88469AAB822A53357FF732"",""assignmentId"":""072f6c7f-d61a-431d-bb93-6fd3095a28a9"",""projectId"":""54f8d589-66fc-4c65-830f-1dcc63bce8cc""}","https://test12345.live/?participantId=DD0D27503B88469AAB822A53357FF732&assignmentId=072f6c7f-d61a-431d-bb93-6fd3095a28a9&projectId=54f8d589-66fc-4c65-830f-1dcc63bce8cc","","4277","
    <div style=""display: flex; justify-content: center; align-items: center;"">
      <img src=""images/red_deck_2.png"" style=""width: 300px; height: 300px; margin-right: 10px;"" />
      <img src=""images/blue_deck_1.png"" style=""width: 300px; height: 300px;"" />
    </div>","0","0",""
"","","","","","html-keyboard-response","6","498934","0.0-6.0-0.0","DD0D27503B88469AAB822A53357FF732","DD0D27503B88469AAB822A53357FF732","072f6c7f-d61a-431d-bb93-6fd3095a28a9","54f8d589-66fc-4c65-830f-1dcc63bce8cc","{""participantId"":""DD0D27503B88469AAB822A53357FF732"",""assignmentId"":""072f6c7f-d61a-431d-bb93-6fd3095a28a9"",""projectId"":""54f8d589-66fc-4c65-830f-1dcc63bce8cc""}","https://test12345.live/?participantId=DD0D27503B88469AAB822A53357FF732&assignmentId=072f6c7f-d61a-431d-bb93-6fd3095a28a9&projectId=54f8d589-66fc-4c65-830f-1dcc63bce8cc","","null","<div style=""display: flex; justify-content: center; align-items: center;"">
                    <img src=""images/causal/causal_series_15/causal_series_15_a.jpg"" style=""width: 300px; height: 300px;"" />
                  </div>","null","",""
"","","","","","html-keyboard-response","7","501947","0.0-6.0-1.0","DD0D27503B88469AAB822A53357FF732","DD0D27503B88469AAB822A53357FF732","072f6c7f-d61a-431d-bb93-6fd3095a28a9","54f8d589-66fc-4c65-830f-1dcc63bce8cc","{""participantId"":""DD0D27503B88469AAB822A53357FF732"",""assignmentId"":""072f6c7f-d61a-431d-bb93-6fd3095a28a9"",""projectId"":""54f8d589-66fc-4c65-830f-1dcc63bce8cc""}","https://test12345.live/?participantId=DD0D27503B88469AAB822A53357FF732&assignmentId=072f6c7f-d61a-431d-bb93-6fd3095a28a9&projectId=54f8d589-66fc-4c65-830f-1dcc63bce8cc","","null","<div style=""display: flex; justify-content: center; align-items: center;"">
                    <img src=""images/causal/causal_series_15/causal_series_15_b.jpg"" style=""width: 300px; height: 300px;"" />
                  </div>","null","",""
"","","","","","html-keyboard-response","8","504961","0.0-6.0-2.0","DD0D27503B88469AAB822A53357FF732","DD0D27503B88469AAB822A53357FF732","072f6c7f-d61a-431d-bb93-6fd3095a28a9","54f8d589-66fc-4c65-830f-1dcc63bce8cc","{""participantId"":""DD0D27503B88469AAB822A53357FF732"",""assignmentId"":""072f6c7f-d61a-431d-bb93-6fd3095a28a9"",""projectId"":""54f8d589-66fc-4c65-830f-1dcc63bce8cc""}","https://test12345.live/?participantId=DD0D27503B88469AAB822A53357FF732&assignmentId=072f6c7f-d61a-431d-bb93-6fd3095a28a9&projectId=54f8d589-66fc-4c65-830f-1dcc63bce8cc","","null","<div style=""display: flex; justify-content: center; align-items: center;"">
                    <img src=""images/causal/causal_series_15/causal_series_15_c.jpg"" style=""width: 300px; height: 300px;"" />
                  </div>","null","",""
"","","","","","html-keyboard-response","9","507975","0.0-6.0-3.0","DD0D27503B88469AAB822A53357FF732","DD0D27503B88469AAB822A53357FF732","072f6c7f-d61a-431d-bb93-6fd3095a28a9","54f8d589-66fc-4c65-830f-1dcc63bce8cc","{""participantId"":""DD0D27503B88469AAB822A53357FF732"",""assignmentId"":""072f6c7f-d61a-431d-bb93-6fd3095a28a9"",""projectId"":""54f8d589-66fc-4c65-830f-1dcc63bce8cc""}","https://test12345.live/?participantId=DD0D27503B88469AAB822A53357FF732&assignmentId=072f6c7f-d61a-431d-bb93-6fd3095a28a9&projectId=54f8d589-66fc-4c65-830f-1dcc63bce8cc","","null","<div style=""display: flex; justify-content: center; align-items: center;"">
                    <img src=""images/causal/causal_series_15/causal_series_15_d.jpg"" style=""width: 300px; height: 300px;"" />
                  </div>","null","",""
"","","","","","html-button-response","10","510564","0.0-8.0","DD0D27503B88469AAB822A53357FF732","DD0D27503B88469AAB822A53357FF732","072f6c7f-d61a-431d-bb93-6fd3095a28a9","54f8d589-66fc-4c65-830f-1dcc63bce8cc","{""participantId"":""DD0D27503B88469AAB822A53357FF732"",""assignmentId"":""072f6c7f-d61a-431d-bb93-6fd3095a28a9"",""projectId"":""54f8d589-66fc-4c65-830f-1dcc63bce8cc""}","https://test12345.live/?participantId=DD0D27503B88469AAB822A53357FF732&assignmentId=072f6c7f-d61a-431d-bb93-6fd3095a28a9&projectId=54f8d589-66fc-4c65-830f-1dcc63bce8cc","","2589","Was there a person in the picture?","0","",""
"","","","","","survey-likert","11","514647","0.0-9.0","DD0D27503B88469AAB822A53357FF732","DD0D27503B88469AAB822A53357FF732","072f6c7f-d61a-431d-bb93-6fd3095a28a9","54f8d589-66fc-4c65-830f-1dcc63bce8cc","{""participantId"":""DD0D27503B88469AAB822A53357FF732"",""assignmentId"":""072f6c7f-d61a-431d-bb93-6fd3095a28a9"",""projectId"":""54f8d589-66fc-4c65-830f-1dcc63bce8cc""}","https://test12345.live/?participantId=DD0D27503B88469AAB822A53357FF732&assignmentId=072f6c7f-d61a-431d-bb93-6fd3095a28a9&projectId=54f8d589-66fc-4c65-830f-1dcc63bce8cc","","4081","","{""Q0"":4}","","[0]"
"","","","","","html-button-response","12","516076","0.0-10.0","DD0D27503B88469AAB822A53357FF732","DD0D27503B88469AAB822A53357FF732","072f6c7f-d61a-431d-bb93-6fd3095a28a9","54f8d589-66fc-4c65-830f-1dcc63bce8cc","{""participantId"":""DD0D27503B88469AAB822A53357FF732"",""assignmentId"":""072f6c7f-d61a-431d-bb93-6fd3095a28a9"",""projectId"":""54f8d589-66fc-4c65-830f-1dcc63bce8cc""}","https://test12345.live/?participantId=DD0D27503B88469AAB822A53357FF732&assignmentId=072f6c7f-d61a-431d-bb93-6fd3095a28a9&projectId=54f8d589-66fc-4c65-830f-1dcc63bce8cc","","1428","
    <div style=""display: flex; justify-content: center; align-items: center;"">
      <img src=""images/red_deck_2.png"" style=""width: 300px; height: 300px; margin-right: 10px;"" />
      <img src=""images/blue_deck_1.png"" style=""width: 300px; height: 300px;"" />
    </div>","1","1",""
"","","","","","html-keyboard-response","13","519091","0.0-12.0-0.0","DD0D27503B88469AAB822A53357FF732","DD0D27503B88469AAB822A53357FF732","072f6c7f-d61a-431d-bb93-6fd3095a28a9","54f8d589-66fc-4c65-830f-1dcc63bce8cc","{""participantId"":""DD0D27503B88469AAB822A53357FF732"",""assignmentId"":""072f6c7f-d61a-431d-bb93-6fd3095a28a9"",""projectId"":""54f8d589-66fc-4c65-830f-1dcc63bce8cc""}","https://test12345.live/?participantId=DD0D27503B88469AAB822A53357FF732&assignmentId=072f6c7f-d61a-431d-bb93-6fd3095a28a9&projectId=54f8d589-66fc-4c65-830f-1dcc63bce8cc","","null","<div style=""display: flex; justify-content: center; align-items: center;"">
                    <img src=""images/semantic/semantic_series_12/semantic_series_12_a.jpg"" style=""width: 300px; height: 300px;"" />
                  </div>","null","",""
"","","","","","html-keyboard-response","14","522105","0.0-12.0-1.0","DD0D27503B88469AAB822A53357FF732","DD0D27503B88469AAB822A53357FF732","072f6c7f-d61a-431d-bb93-6fd3095a28a9","54f8d589-66fc-4c65-830f-1dcc63bce8cc","{""participantId"":""DD0D27503B88469AAB822A53357FF732"",""assignmentId"":""072f6c7f-d61a-431d-bb93-6fd3095a28a9"",""projectId"":""54f8d589-66fc-4c65-830f-1dcc63bce8cc""}","https://test12345.live/?participantId=DD0D27503B88469AAB822A53357FF732&assignmentId=072f6c7f-d61a-431d-bb93-6fd3095a28a9&projectId=54f8d589-66fc-4c65-830f-1dcc63bce8cc","","null","<div style=""display: flex; justify-content: center; align-items: center;"">
                    <img src=""images/semantic/semantic_series_12/semantic_series_12_b.jpg"" style=""width: 300px; height: 300px;"" />
                  </div>","null","",""
"","","","","","html-keyboard-response","15","525119","0.0-12.0-2.0","DD0D27503B88469AAB822A53357FF732","DD0D27503B88469AAB822A53357FF732","072f6c7f-d61a-431d-bb93-6fd3095a28a9","54f8d589-66fc-4c65-830f-1dcc63bce8cc","{""participantId"":""DD0D27503B88469AAB822A53357FF732"",""assignmentId"":""072f6c7f-d61a-431d-bb93-6fd3095a28a9"",""projectId"":""54f8d589-66fc-4c65-830f-1dcc63bce8cc""}","https://test12345.live/?participantId=DD0D27503B88469AAB822A53357FF732&assignmentId=072f6c7f-d61a-431d-bb93-6fd3095a28a9&projectId=54f8d589-66fc-4c65-830f-1dcc63bce8cc","","null","<div style=""display: flex; justify-content: center; align-items: center;"">
                    <img src=""images/semantic/semantic_series_12/semantic_series_12_c.jpg"" style=""width: 300px; height: 300px;"" />
                  </div>","null","",""
"","","","","","html-keyboard-response","16","528133","0.0-12.0-3.0","DD0D27503B88469AAB822A53357FF732","DD0D27503B88469AAB822A53357FF732","072f6c7f-d61a-431d-bb93-6fd3095a28a9","54f8d589-66fc-4c65-830f-1dcc63bce8cc","{""participantId"":""DD0D27503B88469AAB822A53357FF732"",""assignmentId"":""072f6c7f-d61a-431d-bb93-6fd3095a28a9"",""projectId"":""54f8d589-66fc-4c65-830f-1dcc63bce8cc""}","https://test12345.live/?participantId=DD0D27503B88469AAB822A53357FF732&assignmentId=072f6c7f-d61a-431d-bb93-6fd3095a28a9&projectId=54f8d589-66fc-4c65-830f-1dcc63bce8cc","","null","<div style=""display: flex; justify-content: center; align-items: center;"">
                    <img src=""images/semantic/semantic_series_12/semantic_series_12_d.jpg"" style=""width: 300px; height: 300px;"" />
                  </div>","null","",""
"","","","","","html-button-response","17","530012","0.0-13.0","DD0D27503B88469AAB822A53357FF732","DD0D27503B88469AAB822A53357FF732","072f6c7f-d61a-431d-bb93-6fd3095a28a9","54f8d589-66fc-4c65-830f-1dcc63bce8cc","{""participantId"":""DD0D27503B88469AAB822A53357FF732"",""assignmentId"":""072f6c7f-d61a-431d-bb93-6fd3095a28a9"",""projectId"":""54f8d589-66fc-4c65-830f-1dcc63bce8cc""}","https://test12345.live/?participantId=DD0D27503B88469AAB822A53357FF732&assignmentId=072f6c7f-d61a-431d-bb93-6fd3095a28a9&projectId=54f8d589-66fc-4c65-830f-1dcc63bce8cc","","1879","Was there a person in the picture?","1","",""
"","","","","","survey-likert","18","531724","0.0-14.0","DD0D27503B88469AAB822A53357FF732","DD0D27503B88469AAB822A53357FF732","072f6c7f-d61a-431d-bb93-6fd3095a28a9","54f8d589-66fc-4c65-830f-1dcc63bce8cc","{""participantId"":""DD0D27503B88469AAB822A53357FF732"",""assignmentId"":""072f6c7f-d61a-431d-bb93-6fd3095a28a9"",""projectId"":""54f8d589-66fc-4c65-830f-1dcc63bce8cc""}","https://test12345.live/?participantId=DD0D27503B88469AAB822A53357FF732&assignmentId=072f6c7f-d61a-431d-bb93-6fd3095a28a9&projectId=54f8d589-66fc-4c65-830f-1dcc63bce8cc","","1710","","{""Q0"":4}","","[0]"
"","","","","","html-button-response","19","532639","0.0-15.0","DD0D27503B88469AAB822A53357FF732","DD0D27503B88469AAB822A53357FF732","072f6c7f-d61a-431d-bb93-6fd3095a28a9","54f8d589-66fc-4c65-830f-1dcc63bce8cc","{""participantId"":""DD0D27503B88469AAB822A53357FF732"",""assignmentId"":""072f6c7f-d61a-431d-bb93-6fd3095a28a9"",""projectId"":""54f8d589-66fc-4c65-830f-1dcc63bce8cc""}","https://test12345.live/?participantId=DD0D27503B88469AAB822A53357FF732&assignmentId=072f6c7f-d61a-431d-bb93-6fd3095a28a9&projectId=54f8d589-66fc-4c65-830f-1dcc63bce8cc","","914","
    <div style=""display: flex; justify-content: center; align-items: center;"">
      <img src=""images/red_deck_2.png"" style=""width: 300px; height: 300px; margin-right: 10px;"" />
      <img src=""images/blue_deck_1.png"" style=""width: 300px; height: 300px;"" />
    </div>","0","0",""
"","","","","","html-keyboard-response","20","535651","0.0-16.0-0.0","DD0D27503B88469AAB822A53357FF732","DD0D27503B88469AAB822A53357FF732","072f6c7f-d61a-431d-bb93-6fd3095a28a9","54f8d589-66fc-4c65-830f-1dcc63bce8cc","{""participantId"":""DD0D27503B88469AAB822A53357FF732"",""assignmentId"":""072f6c7f-d61a-431d-bb93-6fd3095a28a9"",""projectId"":""54f8d589-66fc-4c65-830f-1dcc63bce8cc""}","https://test12345.live/?participantId=DD0D27503B88469AAB822A53357FF732&assignmentId=072f6c7f-d61a-431d-bb93-6fd3095a28a9&projectId=54f8d589-66fc-4c65-830f-1dcc63bce8cc","","null","<div style=""display: flex; justify-content: center; align-items: center;"">
                    <img src=""images/causal/causal_series_8/causal_series_8_a.jpg"" style=""width: 300px; height: 300px;"" />
                  </div>","null","",""
"","","","","","html-keyboard-response","21","538665","0.0-16.0-1.0","DD0D27503B88469AAB822A53357FF732","DD0D27503B88469AAB822A53357FF732","072f6c7f-d61a-431d-bb93-6fd3095a28a9","54f8d589-66fc-4c65-830f-1dcc63bce8cc","{""participantId"":""DD0D27503B88469AAB822A53357FF732"",""assignmentId"":""072f6c7f-d61a-431d-bb93-6fd3095a28a9"",""projectId"":""54f8d589-66fc-4c65-830f-1dcc63bce8cc""}","https://test12345.live/?participantId=DD0D27503B88469AAB822A53357FF732&assignmentId=072f6c7f-d61a-431d-bb93-6fd3095a28a9&projectId=54f8d589-66fc-4c65-830f-1dcc63bce8cc","","null","<div style=""display: flex; justify-content: center; align-items: center;"">
                    <img src=""images/causal/causal_series_8/causal_series_8_b.jpg"" style=""width: 300px; height: 300px;"" />
                  </div>","null","",""
"","","","","","html-keyboard-response","22","541679","0.0-16.0-2.0","DD0D27503B88469AAB822A53357FF732","DD0D27503B88469AAB822A53357FF732","072f6c7f-d61a-431d-bb93-6fd3095a28a9","54f8d589-66fc-4c65-830f-1dcc63bce8cc","{""participantId"":""DD0D27503B88469AAB822A53357FF732"",""assignmentId"":""072f6c7f-d61a-431d-bb93-6fd3095a28a9"",""projectId"":""54f8d589-66fc-4c65-830f-1dcc63bce8cc""}","https://test12345.live/?participantId=DD0D27503B88469AAB822A53357FF732&assignmentId=072f6c7f-d61a-431d-bb93-6fd3095a28a9&projectId=54f8d589-66fc-4c65-830f-1dcc63bce8cc","","null","<div style=""display: flex; justify-content: center; align-items: center;"">
                    <img src=""images/causal/causal_series_8/causal_series_8_c.jpg"" style=""width: 300px; height: 300px;"" />
                  </div>","null","",""
"","","","","","html-keyboard-response","23","544692","0.0-16.0-3.0","DD0D27503B88469AAB822A53357FF732","DD0D27503B88469AAB822A53357FF732","072f6c7f-d61a-431d-bb93-6fd3095a28a9","54f8d589-66fc-4c65-830f-1dcc63bce8cc","{""participantId"":""DD0D27503B88469AAB822A53357FF732"",""assignmentId"":""072f6c7f-d61a-431d-bb93-6fd3095a28a9"",""projectId"":""54f8d589-66fc-4c65-830f-1dcc63bce8cc""}","https://test12345.live/?participantId=DD0D27503B88469AAB822A53357FF732&assignmentId=072f6c7f-d61a-431d-bb93-6fd3095a28a9&projectId=54f8d589-66fc-4c65-830f-1dcc63bce8cc","","null","<div style=""display: flex; justify-content: center; align-items: center;"">
                    <img src=""images/causal/causal_series_8/causal_series_8_d.jpg"" style=""width: 300px; height: 300px;"" />
                  </div>","null","",""
"","","","","","html-button-response","24","546473","0.0-18.0","DD0D27503B88469AAB822A53357FF732","DD0D27503B88469AAB822A53357FF732","072f6c7f-d61a-431d-bb93-6fd3095a28a9","54f8d589-66fc-4c65-830f-1dcc63bce8cc","{""participantId"":""DD0D27503B88469AAB822A53357FF732"",""assignmentId"":""072f6c7f-d61a-431d-bb93-6fd3095a28a9"",""projectId"":""54f8d589-66fc-4c65-830f-1dcc63bce8cc""}","https://test12345.live/?participantId=DD0D27503B88469AAB822A53357FF732&assignmentId=072f6c7f-d61a-431d-bb93-6fd3095a28a9&projectId=54f8d589-66fc-4c65-830f-1dcc63bce8cc","","1781","Was there a person in the picture?","0","",""
"","","","","","survey-likert","25","548142","0.0-19.0","DD0D27503B88469AAB822A53357FF732","DD0D27503B88469AAB822A53357FF732","072f6c7f-d61a-431d-bb93-6fd3095a28a9","54f8d589-66fc-4c65-830f-1dcc63bce8cc","{""participantId"":""DD0D27503B88469AAB822A53357FF732"",""assignmentId"":""072f6c7f-d61a-431d-bb93-6fd3095a28a9"",""projectId"":""54f8d589-66fc-4c65-830f-1dcc63bce8cc""}","https://test12345.live/?participantId=DD0D27503B88469AAB822A53357FF732&assignmentId=072f6c7f-d61a-431d-bb93-6fd3095a28a9&projectId=54f8d589-66fc-4c65-830f-1dcc63bce8cc","","1669","","{""Q0"":4}","","[0]"
"","","","","","html-button-response","26","606898","0.0-20.0","DD0D27503B88469AAB822A53357FF732","DD0D27503B88469AAB822A53357FF732","072f6c7f-d61a-431d-bb93-6fd3095a28a9","54f8d589-66fc-4c65-830f-1dcc63bce8cc","{""participantId"":""DD0D27503B88469AAB822A53357FF732"",""assignmentId"":""072f6c7f-d61a-431d-bb93-6fd3095a28a9"",""projectId"":""54f8d589-66fc-4c65-830f-1dcc63bce8cc""}","https://test12345.live/?participantId=DD0D27503B88469AAB822A53357FF732&assignmentId=072f6c7f-d61a-431d-bb93-6fd3095a28a9&projectId=54f8d589-66fc-4c65-830f-1dcc63bce8cc","","58756","
    <div style=""display: flex; justify-content: center; align-items: center;"">
      <img src=""images/red_deck_2.png"" style=""width: 300px; height: 300px; margin-right: 10px;"" />
      <img src=""images/blue_deck_1.png"" style=""width: 300px; height: 300px;"" />
    </div>","0","0",""
"","","","","","html-keyboard-response","27","609902","0.0-21.0-0.0","DD0D27503B88469AAB822A53357FF732","DD0D27503B88469AAB822A53357FF732","072f6c7f-d61a-431d-bb93-6fd3095a28a9","54f8d589-66fc-4c65-830f-1dcc63bce8cc","{""participantId"":""DD0D27503B88469AAB822A53357FF732"",""assignmentId"":""072f6c7f-d61a-431d-bb93-6fd3095a28a9"",""projectId"":""54f8d589-66fc-4c65-830f-1dcc63bce8cc""}","https://test12345.live/?participantId=DD0D27503B88469AAB822A53357FF732&assignmentId=072f6c7f-d61a-431d-bb93-6fd3095a28a9&projectId=54f8d589-66fc-4c65-830f-1dcc63bce8cc","","null","<div style=""display: flex; justify-content: center; align-items: center;"">
                    <img src=""images/causal/causal_series_10/causal_series_10_a.jpg"" style=""width: 300px; height: 300px;"" />
                  </div>","null","",""
"","","","","","html-keyboard-response","28","612915","0.0-21.0-1.0","DD0D27503B88469AAB822A53357FF732","DD0D27503B88469AAB822A53357FF732","072f6c7f-d61a-431d-bb93-6fd3095a28a9","54f8d589-66fc-4c65-830f-1dcc63bce8cc","{""participantId"":""DD0D27503B88469AAB822A53357FF732"",""assignmentId"":""072f6c7f-d61a-431d-bb93-6fd3095a28a9"",""projectId"":""54f8d589-66fc-4c65-830f-1dcc63bce8cc""}","https://test12345.live/?participantId=DD0D27503B88469AAB822A53357FF732&assignmentId=072f6c7f-d61a-431d-bb93-6fd3095a28a9&projectId=54f8d589-66fc-4c65-830f-1dcc63bce8cc","","null","<div style=""display: flex; justify-content: center; align-items: center;"">
                    <img src=""images/causal/causal_series_10/causal_series_10_b.jpg"" style=""width: 300px; height: 300px;"" />
                  </div>","null","",""
"","","","","","html-keyboard-response","29","615929","0.0-21.0-2.0","DD0D27503B88469AAB822A53357FF732","DD0D27503B88469AAB822A53357FF732","072f6c7f-d61a-431d-bb93-6fd3095a28a9","54f8d589-66fc-4c65-830f-1dcc63bce8cc","{""participantId"":""DD0D27503B88469AAB822A53357FF732"",""assignmentId"":""072f6c7f-d61a-431d-bb93-6fd3095a28a9"",""projectId"":""54f8d589-66fc-4c65-830f-1dcc63bce8cc""}","https://test12345.live/?participantId=DD0D27503B88469AAB822A53357FF732&assignmentId=072f6c7f-d61a-431d-bb93-6fd3095a28a9&projectId=54f8d589-66fc-4c65-830f-1dcc63bce8cc","","null","<div style=""display: flex; justify-content: center; align-items: center;"">
                    <img src=""images/causal/causal_series_10/causal_series_10_c.jpg"" style=""width: 300px; height: 300px;"" />
                  </div>","null","",""
"","","","","","html-keyboard-response","30","618943","0.0-21.0-3.0","DD0D27503B88469AAB822A53357FF732","DD0D27503B88469AAB822A53357FF732","072f6c7f-d61a-431d-bb93-6fd3095a28a9","54f8d589-66fc-4c65-830f-1dcc63bce8cc","{""participantId"":""DD0D27503B88469AAB822A53357FF732"",""assignmentId"":""072f6c7f-d61a-431d-bb93-6fd3095a28a9"",""projectId"":""54f8d589-66fc-4c65-830f-1dcc63bce8cc""}","https://test12345.live/?participantId=DD0D27503B88469AAB822A53357FF732&assignmentId=072f6c7f-d61a-431d-bb93-6fd3095a28a9&projectId=54f8d589-66fc-4c65-830f-1dcc63bce8cc","","null","<div style=""display: flex; justify-content: center; align-items: center;"">
                    <img src=""images/causal/causal_series_10/causal_series_10_d.jpg"" style=""width: 300px; height: 300px;"" />
                  </div>","null","",""
"","","","","","html-button-response","31","620546","0.0-23.0","DD0D27503B88469AAB822A53357FF732","DD0D27503B88469AAB822A53357FF732","072f6c7f-d61a-431d-bb93-6fd3095a28a9","54f8d589-66fc-4c65-830f-1dcc63bce8cc","{""participantId"":""DD0D27503B88469AAB822A53357FF732"",""assignmentId"":""072f6c7f-d61a-431d-bb93-6fd3095a28a9"",""projectId"":""54f8d589-66fc-4c65-830f-1dcc63bce8cc""}","https://test12345.live/?participantId=DD0D27503B88469AAB822A53357FF732&assignmentId=072f6c7f-d61a-431d-bb93-6fd3095a28a9&projectId=54f8d589-66fc-4c65-830f-1dcc63bce8cc","","1603","Was there a person in the picture?","1","",""
"","","","","","survey-likert","32","622643","0.0-24.0","DD0D27503B88469AAB822A53357FF732","DD0D27503B88469AAB822A53357FF732","072f6c7f-d61a-431d-bb93-6fd3095a28a9","54f8d589-66fc-4c65-830f-1dcc63bce8cc","{""participantId"":""DD0D27503B88469AAB822A53357FF732"",""assignmentId"":""072f6c7f-d61a-431d-bb93-6fd3095a28a9"",""projectId"":""54f8d589-66fc-4c65-830f-1dcc63bce8cc""}","https://test12345.live/?participantId=DD0D27503B88469AAB822A53357FF732&assignmentId=072f6c7f-d61a-431d-bb93-6fd3095a28a9&projectId=54f8d589-66fc-4c65-830f-1dcc63bce8cc","","2096","","{""Q0"":4}","","[0]"
"","","","","","html-button-response","33","623558","0.0-25.0","DD0D27503B88469AAB822A53357FF732","DD0D27503B88469AAB822A53357FF732","072f6c7f-d61a-431d-bb93-6fd3095a28a9","54f8d589-66fc-4c65-830f-1dcc63bce8cc","{""participantId"":""DD0D27503B88469AAB822A53357FF732"",""assignmentId"":""072f6c7f-d61a-431d-bb93-6fd3095a28a9"",""projectId"":""54f8d589-66fc-4c65-830f-1dcc63bce8cc""}","https://test12345.live/?participantId=DD0D27503B88469AAB822A53357FF732&assignmentId=072f6c7f-d61a-431d-bb93-6fd3095a28a9&projectId=54f8d589-66fc-4c65-830f-1dcc63bce8cc","","914","
    <div style=""display: flex; justify-content: center; align-items: center;"">
      <img src=""images/red_deck_2.png"" style=""width: 300px; height: 300px; margin-right: 10px;"" />
      <img src=""images/blue_deck_1.png"" style=""width: 300px; height: 300px;"" />
    </div>","0","0",""
"","","","","","html-keyboard-response","34","626569","0.0-26.0-0.0","DD0D27503B88469AAB822A53357FF732","DD0D27503B88469AAB822A53357FF732","072f6c7f-d61a-431d-bb93-6fd3095a28a9","54f8d589-66fc-4c65-830f-1dcc63bce8cc","{""participantId"":""DD0D27503B88469AAB822A53357FF732"",""assignmentId"":""072f6c7f-d61a-431d-bb93-6fd3095a28a9"",""projectId"":""54f8d589-66fc-4c65-830f-1dcc63bce8cc""}","https://test12345.live/?participantId=DD0D27503B88469AAB822A53357FF732&assignmentId=072f6c7f-d61a-431d-bb93-6fd3095a28a9&projectId=54f8d589-66fc-4c65-830f-1dcc63bce8cc","","null","<div style=""display: flex; justify-content: center; align-items: center;"">
                    <img src=""images/causal/causal_series_11/causal_series_11_a.jpg"" style=""width: 300px; height: 300px;"" />
                  </div>","null","",""
"","","","","","html-keyboard-response","35","629583","0.0-26.0-1.0","DD0D27503B88469AAB822A53357FF732","DD0D27503B88469AAB822A53357FF732","072f6c7f-d61a-431d-bb93-6fd3095a28a9","54f8d589-66fc-4c65-830f-1dcc63bce8cc","{""participantId"":""DD0D27503B88469AAB822A53357FF732"",""assignmentId"":""072f6c7f-d61a-431d-bb93-6fd3095a28a9"",""projectId"":""54f8d589-66fc-4c65-830f-1dcc63bce8cc""}","https://test12345.live/?participantId=DD0D27503B88469AAB822A53357FF732&assignmentId=072f6c7f-d61a-431d-bb93-6fd3095a28a9&projectId=54f8d589-66fc-4c65-830f-1dcc63bce8cc","","null","<div style=""display: flex; justify-content: center; align-items: center;"">
                    <img src=""images/causal/causal_series_11/causal_series_11_b.jpg"" style=""width: 300px; height: 300px;"" />
                  </div>","null","",""
"","","","","","html-keyboard-response","36","632596","0.0-26.0-2.0","DD0D27503B88469AAB822A53357FF732","DD0D27503B88469AAB822A53357FF732","072f6c7f-d61a-431d-bb93-6fd3095a28a9","54f8d589-66fc-4c65-830f-1dcc63bce8cc","{""participantId"":""DD0D27503B88469AAB822A53357FF732"",""assignmentId"":""072f6c7f-d61a-431d-bb93-6fd3095a28a9"",""projectId"":""54f8d589-66fc-4c65-830f-1dcc63bce8cc""}","https://test12345.live/?participantId=DD0D27503B88469AAB822A53357FF732&assignmentId=072f6c7f-d61a-431d-bb93-6fd3095a28a9&projectId=54f8d589-66fc-4c65-830f-1dcc63bce8cc","","null","<div style=""display: flex; justify-content: center; align-items: center;"">
                    <img src=""images/causal/causal_series_11/causal_series_11_c.jpg"" style=""width: 300px; height: 300px;"" />
                  </div>","null","",""
"","","","","","html-keyboard-response","37","635610","0.0-26.0-3.0","DD0D27503B88469AAB822A53357FF732","DD0D27503B88469AAB822A53357FF732","072f6c7f-d61a-431d-bb93-6fd3095a28a9","54f8d589-66fc-4c65-830f-1dcc63bce8cc","{""participantId"":""DD0D27503B88469AAB822A53357FF732"",""assignmentId"":""072f6c7f-d61a-431d-bb93-6fd3095a28a9"",""projectId"":""54f8d589-66fc-4c65-830f-1dcc63bce8cc""}","https://test12345.live/?participantId=DD0D27503B88469AAB822A53357FF732&assignmentId=072f6c7f-d61a-431d-bb93-6fd3095a28a9&projectId=54f8d589-66fc-4c65-830f-1dcc63bce8cc","","null","<div style=""display: flex; justify-content: center; align-items: center;"">
                    <img src=""images/causal/causal_series_11/causal_series_11_d.jpg"" style=""width: 300px; height: 300px;"" />
                  </div>","null","",""
"","","","","","html-button-response","38","636980","0.0-28.0","DD0D27503B88469AAB822A53357FF732","DD0D27503B88469AAB822A53357FF732","072f6c7f-d61a-431d-bb93-6fd3095a28a9","54f8d589-66fc-4c65-830f-1dcc63bce8cc","{""participantId"":""DD0D27503B88469AAB822A53357FF732"",""assignmentId"":""072f6c7f-d61a-431d-bb93-6fd3095a28a9"",""projectId"":""54f8d589-66fc-4c65-830f-1dcc63bce8cc""}","https://test12345.live/?participantId=DD0D27503B88469AAB822A53357FF732&assignmentId=072f6c7f-d61a-431d-bb93-6fd3095a28a9&projectId=54f8d589-66fc-4c65-830f-1dcc63bce8cc","","1369","Was there a person in the picture?","0","",""
"","","","","","survey-likert","39","639164","0.0-29.0","DD0D27503B88469AAB822A53357FF732","DD0D27503B88469AAB822A53357FF732","072f6c7f-d61a-431d-bb93-6fd3095a28a9","54f8d589-66fc-4c65-830f-1dcc63bce8cc","{""participantId"":""DD0D27503B88469AAB822A53357FF732"",""assignmentId"":""072f6c7f-d61a-431d-bb93-6fd3095a28a9"",""projectId"":""54f8d589-66fc-4c65-830f-1dcc63bce8cc""}","https://test12345.live/?participantId=DD0D27503B88469AAB822A53357FF732&assignmentId=072f6c7f-d61a-431d-bb93-6fd3095a28a9&projectId=54f8d589-66fc-4c65-830f-1dcc63bce8cc","","2184","","{""Q0"":4}","","[0]"
"","","","","","html-button-response","40","640284","0.0-30.0","DD0D27503B88469AAB822A53357FF732","DD0D27503B88469AAB822A53357FF732","072f6c7f-d61a-431d-bb93-6fd3095a28a9","54f8d589-66fc-4c65-830f-1dcc63bce8cc","{""participantId"":""DD0D27503B88469AAB822A53357FF732"",""assignmentId"":""072f6c7f-d61a-431d-bb93-6fd3095a28a9"",""projectId"":""54f8d589-66fc-4c65-830f-1dcc63bce8cc""}","https://test12345.live/?participantId=DD0D27503B88469AAB822A53357FF732&assignmentId=072f6c7f-d61a-431d-bb93-6fd3095a28a9&projectId=54f8d589-66fc-4c65-830f-1dcc63bce8cc","","1119","
    <div style=""display: flex; justify-content: center; align-items: center;"">
      <img src=""images/red_deck_2.png"" style=""width: 300px; height: 300px; margin-right: 10px;"" />
      <img src=""images/blue_deck_1.png"" style=""width: 300px; height: 300px;"" />
    </div>","1","1",""
"","","","","","html-keyboard-response","41","643286","0.0-32.0-0.0","DD0D27503B88469AAB822A53357FF732","DD0D27503B88469AAB822A53357FF732","072f6c7f-d61a-431d-bb93-6fd3095a28a9","54f8d589-66fc-4c65-830f-1dcc63bce8cc","{""participantId"":""DD0D27503B88469AAB822A53357FF732"",""assignmentId"":""072f6c7f-d61a-431d-bb93-6fd3095a28a9"",""projectId"":""54f8d589-66fc-4c65-830f-1dcc63bce8cc""}","https://test12345.live/?participantId=DD0D27503B88469AAB822A53357FF732&assignmentId=072f6c7f-d61a-431d-bb93-6fd3095a28a9&projectId=54f8d589-66fc-4c65-830f-1dcc63bce8cc","","null","<div style=""display: flex; justify-content: center; align-items: center;"">
                    <img src=""images/semantic/semantic_series_2/semantic_series_2_a.jpg"" style=""width: 300px; height: 300px;"" />
                  </div>","null","",""
"","","","","","html-keyboard-response","42","646296","0.0-32.0-1.0","DD0D27503B88469AAB822A53357FF732","DD0D27503B88469AAB822A53357FF732","072f6c7f-d61a-431d-bb93-6fd3095a28a9","54f8d589-66fc-4c65-830f-1dcc63bce8cc","{""participantId"":""DD0D27503B88469AAB822A53357FF732"",""assignmentId"":""072f6c7f-d61a-431d-bb93-6fd3095a28a9"",""projectId"":""54f8d589-66fc-4c65-830f-1dcc63bce8cc""}","https://test12345.live/?participantId=DD0D27503B88469AAB822A53357FF732&assignmentId=072f6c7f-d61a-431d-bb93-6fd3095a28a9&projectId=54f8d589-66fc-4c65-830f-1dcc63bce8cc","","null","<div style=""display: flex; justify-content: center; align-items: center;"">
                    <img src=""images/semantic/semantic_series_2/semantic_series_2_b.jpg"" style=""width: 300px; height: 300px;"" />
                  </div>","null","",""
"","","","","","html-keyboard-response","43","649310","0.0-32.0-2.0","DD0D27503B88469AAB822A53357FF732","DD0D27503B88469AAB822A53357FF732","072f6c7f-d61a-431d-bb93-6fd3095a28a9","54f8d589-66fc-4c65-830f-1dcc63bce8cc","{""participantId"":""DD0D27503B88469AAB822A53357FF732"",""assignmentId"":""072f6c7f-d61a-431d-bb93-6fd3095a28a9"",""projectId"":""54f8d589-66fc-4c65-830f-1dcc63bce8cc""}","https://test12345.live/?participantId=DD0D27503B88469AAB822A53357FF732&assignmentId=072f6c7f-d61a-431d-bb93-6fd3095a28a9&projectId=54f8d589-66fc-4c65-830f-1dcc63bce8cc","","null","<div style=""display: flex; justify-content: center; align-items: center;"">
                    <img src=""images/semantic/semantic_series_2/semantic_series_2_c.jpg"" style=""width: 300px; height: 300px;"" />
                  </div>","null","",""
"","","","","","html-keyboard-response","44","652324","0.0-32.0-3.0","DD0D27503B88469AAB822A53357FF732","DD0D27503B88469AAB822A53357FF732","072f6c7f-d61a-431d-bb93-6fd3095a28a9","54f8d589-66fc-4c65-830f-1dcc63bce8cc","{""participantId"":""DD0D27503B88469AAB822A53357FF732"",""assignmentId"":""072f6c7f-d61a-431d-bb93-6fd3095a28a9"",""projectId"":""54f8d589-66fc-4c65-830f-1dcc63bce8cc""}","https://test12345.live/?participantId=DD0D27503B88469AAB822A53357FF732&assignmentId=072f6c7f-d61a-431d-bb93-6fd3095a28a9&projectId=54f8d589-66fc-4c65-830f-1dcc63bce8cc","","null","<div style=""display: flex; justify-content: center; align-items: center;"">
                    <img src=""images/semantic/semantic_series_2/semantic_series_2_d.jpg"" style=""width: 300px; height: 300px;"" />
                  </div>","null","",""
"","","","","","html-button-response","45","655585","0.0-33.0","DD0D27503B88469AAB822A53357FF732","DD0D27503B88469AAB822A53357FF732","072f6c7f-d61a-431d-bb93-6fd3095a28a9","54f8d589-66fc-4c65-830f-1dcc63bce8cc","{""participantId"":""DD0D27503B88469AAB822A53357FF732"",""assignmentId"":""072f6c7f-d61a-431d-bb93-6fd3095a28a9"",""projectId"":""54f8d589-66fc-4c65-830f-1dcc63bce8cc""}","https://test12345.live/?participantId=DD0D27503B88469AAB822A53357FF732&assignmentId=072f6c7f-d61a-431d-bb93-6fd3095a28a9&projectId=54f8d589-66fc-4c65-830f-1dcc63bce8cc","","3260","Was there a person in the picture?","0","",""
"","","","","","survey-likert","46","657973","0.0-34.0","DD0D27503B88469AAB822A53357FF732","DD0D27503B88469AAB822A53357FF732","072f6c7f-d61a-431d-bb93-6fd3095a28a9","54f8d589-66fc-4c65-830f-1dcc63bce8cc","{""participantId"":""DD0D27503B88469AAB822A53357FF732"",""assignmentId"":""072f6c7f-d61a-431d-bb93-6fd3095a28a9"",""projectId"":""54f8d589-66fc-4c65-830f-1dcc63bce8cc""}","https://test12345.live/?participantId=DD0D27503B88469AAB822A53357FF732&assignmentId=072f6c7f-d61a-431d-bb93-6fd3095a28a9&projectId=54f8d589-66fc-4c65-830f-1dcc63bce8cc","","2389","","{""Q0"":3}","","[0]"
"","","","","","html-button-response","47","659066","0.0-35.0","DD0D27503B88469AAB822A53357FF732","DD0D27503B88469AAB822A53357FF732","072f6c7f-d61a-431d-bb93-6fd3095a28a9","54f8d589-66fc-4c65-830f-1dcc63bce8cc","{""participantId"":""DD0D27503B88469AAB822A53357FF732"",""assignmentId"":""072f6c7f-d61a-431d-bb93-6fd3095a28a9"",""projectId"":""54f8d589-66fc-4c65-830f-1dcc63bce8cc""}","https://test12345.live/?participantId=DD0D27503B88469AAB822A53357FF732&assignmentId=072f6c7f-d61a-431d-bb93-6fd3095a28a9&projectId=54f8d589-66fc-4c65-830f-1dcc63bce8cc","","1090","
    <div style=""display: flex; justify-content: center; align-items: center;"">
      <img src=""images/red_deck_2.png"" style=""width: 300px; height: 300px; margin-right: 10px;"" />
      <img src=""images/blue_deck_1.png"" style=""width: 300px; height: 300px;"" />
    </div>","1","1",""
"","","","","","html-keyboard-response","48","662072","0.0-37.0-0.0","DD0D27503B88469AAB822A53357FF732","DD0D27503B88469AAB822A53357FF732","072f6c7f-d61a-431d-bb93-6fd3095a28a9","54f8d589-66fc-4c65-830f-1dcc63bce8cc","{""participantId"":""DD0D27503B88469AAB822A53357FF732"",""assignmentId"":""072f6c7f-d61a-431d-bb93-6fd3095a28a9"",""projectId"":""54f8d589-66fc-4c65-830f-1dcc63bce8cc""}","https://test12345.live/?participantId=DD0D27503B88469AAB822A53357FF732&assignmentId=072f6c7f-d61a-431d-bb93-6fd3095a28a9&projectId=54f8d589-66fc-4c65-830f-1dcc63bce8cc","","null","<div style=""display: flex; justify-content: center; align-items: center;"">
                    <img src=""images/semantic/semantic_series_9/semantic_series_9_a.jpg"" style=""width: 300px; height: 300px;"" />
                  </div>","null","",""
"","","","","","html-keyboard-response","49","665086","0.0-37.0-1.0","DD0D27503B88469AAB822A53357FF732","DD0D27503B88469AAB822A53357FF732","072f6c7f-d61a-431d-bb93-6fd3095a28a9","54f8d589-66fc-4c65-830f-1dcc63bce8cc","{""participantId"":""DD0D27503B88469AAB822A53357FF732"",""assignmentId"":""072f6c7f-d61a-431d-bb93-6fd3095a28a9"",""projectId"":""54f8d589-66fc-4c65-830f-1dcc63bce8cc""}","https://test12345.live/?participantId=DD0D27503B88469AAB822A53357FF732&assignmentId=072f6c7f-d61a-431d-bb93-6fd3095a28a9&projectId=54f8d589-66fc-4c65-830f-1dcc63bce8cc","","null","<div style=""display: flex; justify-content: center; align-items: center;"">
                    <img src=""images/semantic/semantic_series_9/semantic_series_9_b.jpg"" style=""width: 300px; height: 300px;"" />
                  </div>","null","",""
"","","","","","html-keyboard-response","50","668100","0.0-37.0-2.0","DD0D27503B88469AAB822A53357FF732","DD0D27503B88469AAB822A53357FF732","072f6c7f-d61a-431d-bb93-6fd3095a28a9","54f8d589-66fc-4c65-830f-1dcc63bce8cc","{""participantId"":""DD0D27503B88469AAB822A53357FF732"",""assignmentId"":""072f6c7f-d61a-431d-bb93-6fd3095a28a9"",""projectId"":""54f8d589-66fc-4c65-830f-1dcc63bce8cc""}","https://test12345.live/?participantId=DD0D27503B88469AAB822A53357FF732&assignmentId=072f6c7f-d61a-431d-bb93-6fd3095a28a9&projectId=54f8d589-66fc-4c65-830f-1dcc63bce8cc","","null","<div style=""display: flex; justify-content: center; align-items: center;"">
                    <img src=""images/semantic/semantic_series_9/semantic_series_9_c.jpg"" style=""width: 300px; height: 300px;"" />
                  </div>","null","",""
"","","","","","html-keyboard-response","51","671114","0.0-37.0-3.0","DD0D27503B88469AAB822A53357FF732","DD0D27503B88469AAB822A53357FF732","072f6c7f-d61a-431d-bb93-6fd3095a28a9","54f8d589-66fc-4c65-830f-1dcc63bce8cc","{""participantId"":""DD0D27503B88469AAB822A53357FF732"",""assignmentId"":""072f6c7f-d61a-431d-bb93-6fd3095a28a9"",""projectId"":""54f8d589-66fc-4c65-830f-1dcc63bce8cc""}","https://test12345.live/?participantId=DD0D27503B88469AAB822A53357FF732&assignmentId=072f6c7f-d61a-431d-bb93-6fd3095a28a9&projectId=54f8d589-66fc-4c65-830f-1dcc63bce8cc","","null","<div style=""display: flex; justify-content: center; align-items: center;"">
                    <img src=""images/semantic/semantic_series_9/semantic_series_9_d.jpg"" style=""width: 300px; height: 300px;"" />
                  </div>","null","",""
"","","","","","html-button-response","52","673271","0.0-38.0","DD0D27503B88469AAB822A53357FF732","DD0D27503B88469AAB822A53357FF732","072f6c7f-d61a-431d-bb93-6fd3095a28a9","54f8d589-66fc-4c65-830f-1dcc63bce8cc","{""participantId"":""DD0D27503B88469AAB822A53357FF732"",""assignmentId"":""072f6c7f-d61a-431d-bb93-6fd3095a28a9"",""projectId"":""54f8d589-66fc-4c65-830f-1dcc63bce8cc""}","https://test12345.live/?participantId=DD0D27503B88469AAB822A53357FF732&assignmentId=072f6c7f-d61a-431d-bb93-6fd3095a28a9&projectId=54f8d589-66fc-4c65-830f-1dcc63bce8cc","","2157","Was there a person in the picture?","1","",""
"","","","","","survey-likert","53","676499","0.0-39.0","DD0D27503B88469AAB822A53357FF732","DD0D27503B88469AAB822A53357FF732","072f6c7f-d61a-431d-bb93-6fd3095a28a9","54f8d589-66fc-4c65-830f-1dcc63bce8cc","{""participantId"":""DD0D27503B88469AAB822A53357FF732"",""assignmentId"":""072f6c7f-d61a-431d-bb93-6fd3095a28a9"",""projectId"":""54f8d589-66fc-4c65-830f-1dcc63bce8cc""}","https://test12345.live/?participantId=DD0D27503B88469AAB822A53357FF732&assignmentId=072f6c7f-d61a-431d-bb93-6fd3095a28a9&projectId=54f8d589-66fc-4c65-830f-1dcc63bce8cc","","3227","","{""Q0"":2}","","[0]"
"","","","","","html-button-response","54","677593","0.0-40.0","DD0D27503B88469AAB822A53357FF732","DD0D27503B88469AAB822A53357FF732","072f6c7f-d61a-431d-bb93-6fd3095a28a9","54f8d589-66fc-4c65-830f-1dcc63bce8cc","{""participantId"":""DD0D27503B88469AAB822A53357FF732"",""assignmentId"":""072f6c7f-d61a-431d-bb93-6fd3095a28a9"",""projectId"":""54f8d589-66fc-4c65-830f-1dcc63bce8cc""}","https://test12345.live/?participantId=DD0D27503B88469AAB822A53357FF732&assignmentId=072f6c7f-d61a-431d-bb93-6fd3095a28a9&projectId=54f8d589-66fc-4c65-830f-1dcc63bce8cc","","1092","
    <div style=""display: flex; justify-content: center; align-items: center;"">
      <img src=""images/red_deck_2.png"" style=""width: 300px; height: 300px; margin-right: 10px;"" />
      <img src=""images/blue_deck_1.png"" style=""width: 300px; height: 300px;"" />
    </div>","0","0",""
"","","","","","html-keyboard-response","55","680601","0.0-41.0-0.0","DD0D27503B88469AAB822A53357FF732","DD0D27503B88469AAB822A53357FF732","072f6c7f-d61a-431d-bb93-6fd3095a28a9","54f8d589-66fc-4c65-830f-1dcc63bce8cc","{""participantId"":""DD0D27503B88469AAB822A53357FF732"",""assignmentId"":""072f6c7f-d61a-431d-bb93-6fd3095a28a9"",""projectId"":""54f8d589-66fc-4c65-830f-1dcc63bce8cc""}","https://test12345.live/?participantId=DD0D27503B88469AAB822A53357FF732&assignmentId=072f6c7f-d61a-431d-bb93-6fd3095a28a9&projectId=54f8d589-66fc-4c65-830f-1dcc63bce8cc","","null","<div style=""display: flex; justify-content: center; align-items: center;"">
                    <img src=""images/causal/causal_series_4/causal_series_4_a.jpg"" style=""width: 300px; height: 300px;"" />
                  </div>","null","",""
"","","","","","html-keyboard-response","56","683614","0.0-41.0-1.0","DD0D27503B88469AAB822A53357FF732","DD0D27503B88469AAB822A53357FF732","072f6c7f-d61a-431d-bb93-6fd3095a28a9","54f8d589-66fc-4c65-830f-1dcc63bce8cc","{""participantId"":""DD0D27503B88469AAB822A53357FF732"",""assignmentId"":""072f6c7f-d61a-431d-bb93-6fd3095a28a9"",""projectId"":""54f8d589-66fc-4c65-830f-1dcc63bce8cc""}","https://test12345.live/?participantId=DD0D27503B88469AAB822A53357FF732&assignmentId=072f6c7f-d61a-431d-bb93-6fd3095a28a9&projectId=54f8d589-66fc-4c65-830f-1dcc63bce8cc","","null","<div style=""display: flex; justify-content: center; align-items: center;"">
                    <img src=""images/causal/causal_series_4/causal_series_4_b.jpg"" style=""width: 300px; height: 300px;"" />
                  </div>","null","",""
"","","","","","html-keyboard-response","57","686628","0.0-41.0-2.0","DD0D27503B88469AAB822A53357FF732","DD0D27503B88469AAB822A53357FF732","072f6c7f-d61a-431d-bb93-6fd3095a28a9","54f8d589-66fc-4c65-830f-1dcc63bce8cc","{""participantId"":""DD0D27503B88469AAB822A53357FF732"",""assignmentId"":""072f6c7f-d61a-431d-bb93-6fd3095a28a9"",""projectId"":""54f8d589-66fc-4c65-830f-1dcc63bce8cc""}","https://test12345.live/?participantId=DD0D27503B88469AAB822A53357FF732&assignmentId=072f6c7f-d61a-431d-bb93-6fd3095a28a9&projectId=54f8d589-66fc-4c65-830f-1dcc63bce8cc","","null","<div style=""display: flex; justify-content: center; align-items: center;"">
                    <img src=""images/causal/causal_series_4/causal_series_4_c.jpg"" style=""width: 300px; height: 300px;"" />
                  </div>","null","",""
"","","","","","html-keyboard-response","58","689629","0.0-41.0-3.0","DD0D27503B88469AAB822A53357FF732","DD0D27503B88469AAB822A53357FF732","072f6c7f-d61a-431d-bb93-6fd3095a28a9","54f8d589-66fc-4c65-830f-1dcc63bce8cc","{""participantId"":""DD0D27503B88469AAB822A53357FF732"",""assignmentId"":""072f6c7f-d61a-431d-bb93-6fd3095a28a9"",""projectId"":""54f8d589-66fc-4c65-830f-1dcc63bce8cc""}","https://test12345.live/?participantId=DD0D27503B88469AAB822A53357FF732&assignmentId=072f6c7f-d61a-431d-bb93-6fd3095a28a9&projectId=54f8d589-66fc-4c65-830f-1dcc63bce8cc","","null","<div style=""display: flex; justify-content: center; align-items: center;"">
                    <img src=""images/causal/causal_series_4/causal_series_4_d.jpg"" style=""width: 300px; height: 300px;"" />
                  </div>","null","",""
"","","","","","html-button-response","59","690827","0.0-43.0","DD0D27503B88469AAB822A53357FF732","DD0D27503B88469AAB822A53357FF732","072f6c7f-d61a-431d-bb93-6fd3095a28a9","54f8d589-66fc-4c65-830f-1dcc63bce8cc","{""participantId"":""DD0D27503B88469AAB822A53357FF732"",""assignmentId"":""072f6c7f-d61a-431d-bb93-6fd3095a28a9"",""projectId"":""54f8d589-66fc-4c65-830f-1dcc63bce8cc""}","https://test12345.live/?participantId=DD0D27503B88469AAB822A53357FF732&assignmentId=072f6c7f-d61a-431d-bb93-6fd3095a28a9&projectId=54f8d589-66fc-4c65-830f-1dcc63bce8cc","","1197","Was there a person in the picture?","1","",""
"","","","","","survey-likert","60","693594","0.0-44.0","DD0D27503B88469AAB822A53357FF732","DD0D27503B88469AAB822A53357FF732","072f6c7f-d61a-431d-bb93-6fd3095a28a9","54f8d589-66fc-4c65-830f-1dcc63bce8cc","{""participantId"":""DD0D27503B88469AAB822A53357FF732"",""assignmentId"":""072f6c7f-d61a-431d-bb93-6fd3095a28a9"",""projectId"":""54f8d589-66fc-4c65-830f-1dcc63bce8cc""}","https://test12345.live/?participantId=DD0D27503B88469AAB822A53357FF732&assignmentId=072f6c7f-d61a-431d-bb93-6fd3095a28a9&projectId=54f8d589-66fc-4c65-830f-1dcc63bce8cc","","2765","","{""Q0"":3}","","[0]"
"","","","","","html-button-response","61","694618","0.0-45.0","DD0D27503B88469AAB822A53357FF732","DD0D27503B88469AAB822A53357FF732","072f6c7f-d61a-431d-bb93-6fd3095a28a9","54f8d589-66fc-4c65-830f-1dcc63bce8cc","{""participantId"":""DD0D27503B88469AAB822A53357FF732"",""assignmentId"":""072f6c7f-d61a-431d-bb93-6fd3095a28a9"",""projectId"":""54f8d589-66fc-4c65-830f-1dcc63bce8cc""}","https://test12345.live/?participantId=DD0D27503B88469AAB822A53357FF732&assignmentId=072f6c7f-d61a-431d-bb93-6fd3095a28a9&projectId=54f8d589-66fc-4c65-830f-1dcc63bce8cc","","1023","
    <div style=""display: flex; justify-content: center; align-items: center;"">
      <img src=""images/red_deck_2.png"" style=""width: 300px; height: 300px; margin-right: 10px;"" />
      <img src=""images/blue_deck_1.png"" style=""width: 300px; height: 300px;"" />
    </div>","1","1",""
"","","","","","html-keyboard-response","62","697622","0.0-47.0-0.0","DD0D27503B88469AAB822A53357FF732","DD0D27503B88469AAB822A53357FF732","072f6c7f-d61a-431d-bb93-6fd3095a28a9","54f8d589-66fc-4c65-830f-1dcc63bce8cc","{""participantId"":""DD0D27503B88469AAB822A53357FF732"",""assignmentId"":""072f6c7f-d61a-431d-bb93-6fd3095a28a9"",""projectId"":""54f8d589-66fc-4c65-830f-1dcc63bce8cc""}","https://test12345.live/?participantId=DD0D27503B88469AAB822A53357FF732&assignmentId=072f6c7f-d61a-431d-bb93-6fd3095a28a9&projectId=54f8d589-66fc-4c65-830f-1dcc63bce8cc","","null","<div style=""display: flex; justify-content: center; align-items: center;"">
                    <img src=""images/semantic/semantic_series_8/semantic_series_8_a.jpg"" style=""width: 300px; height: 300px;"" />
                  </div>","null","",""
"","","","","","html-keyboard-response","63","700635","0.0-47.0-1.0","DD0D27503B88469AAB822A53357FF732","DD0D27503B88469AAB822A53357FF732","072f6c7f-d61a-431d-bb93-6fd3095a28a9","54f8d589-66fc-4c65-830f-1dcc63bce8cc","{""participantId"":""DD0D27503B88469AAB822A53357FF732"",""assignmentId"":""072f6c7f-d61a-431d-bb93-6fd3095a28a9"",""projectId"":""54f8d589-66fc-4c65-830f-1dcc63bce8cc""}","https://test12345.live/?participantId=DD0D27503B88469AAB822A53357FF732&assignmentId=072f6c7f-d61a-431d-bb93-6fd3095a28a9&projectId=54f8d589-66fc-4c65-830f-1dcc63bce8cc","","null","<div style=""display: flex; justify-content: center; align-items: center;"">
                    <img src=""images/semantic/semantic_series_8/semantic_series_8_b.jpg"" style=""width: 300px; height: 300px;"" />
                  </div>","null","",""
"","","","","","html-keyboard-response","64","703649","0.0-47.0-2.0","DD0D27503B88469AAB822A53357FF732","DD0D27503B88469AAB822A53357FF732","072f6c7f-d61a-431d-bb93-6fd3095a28a9","54f8d589-66fc-4c65-830f-1dcc63bce8cc","{""participantId"":""DD0D27503B88469AAB822A53357FF732"",""assignmentId"":""072f6c7f-d61a-431d-bb93-6fd3095a28a9"",""projectId"":""54f8d589-66fc-4c65-830f-1dcc63bce8cc""}","https://test12345.live/?participantId=DD0D27503B88469AAB822A53357FF732&assignmentId=072f6c7f-d61a-431d-bb93-6fd3095a28a9&projectId=54f8d589-66fc-4c65-830f-1dcc63bce8cc","","null","<div style=""display: flex; justify-content: center; align-items: center;"">
                    <img src=""images/semantic/semantic_series_8/semantic_series_8_c.jpg"" style=""width: 300px; height: 300px;"" />
                  </div>","null","",""
"","","","","","html-keyboard-response","65","706659","0.0-47.0-3.0","DD0D27503B88469AAB822A53357FF732","DD0D27503B88469AAB822A53357FF732","072f6c7f-d61a-431d-bb93-6fd3095a28a9","54f8d589-66fc-4c65-830f-1dcc63bce8cc","{""participantId"":""DD0D27503B88469AAB822A53357FF732"",""assignmentId"":""072f6c7f-d61a-431d-bb93-6fd3095a28a9"",""projectId"":""54f8d589-66fc-4c65-830f-1dcc63bce8cc""}","https://test12345.live/?participantId=DD0D27503B88469AAB822A53357FF732&assignmentId=072f6c7f-d61a-431d-bb93-6fd3095a28a9&projectId=54f8d589-66fc-4c65-830f-1dcc63bce8cc","","null","<div style=""display: flex; justify-content: center; align-items: center;"">
                    <img src=""images/semantic/semantic_series_8/semantic_series_8_d.jpg"" style=""width: 300px; height: 300px;"" />
                  </div>","null","",""
"","","","","","html-button-response","66","707991","0.0-48.0","DD0D27503B88469AAB822A53357FF732","DD0D27503B88469AAB822A53357FF732","072f6c7f-d61a-431d-bb93-6fd3095a28a9","54f8d589-66fc-4c65-830f-1dcc63bce8cc","{""participantId"":""DD0D27503B88469AAB822A53357FF732"",""assignmentId"":""072f6c7f-d61a-431d-bb93-6fd3095a28a9"",""projectId"":""54f8d589-66fc-4c65-830f-1dcc63bce8cc""}","https://test12345.live/?participantId=DD0D27503B88469AAB822A53357FF732&assignmentId=072f6c7f-d61a-431d-bb93-6fd3095a28a9&projectId=54f8d589-66fc-4c65-830f-1dcc63bce8cc","","1332","Was there a person in the picture?","1","",""
"","","","","","survey-likert","67","709575","0.0-49.0","DD0D27503B88469AAB822A53357FF732","DD0D27503B88469AAB822A53357FF732","072f6c7f-d61a-431d-bb93-6fd3095a28a9","54f8d589-66fc-4c65-830f-1dcc63bce8cc","{""participantId"":""DD0D27503B88469AAB822A53357FF732"",""assignmentId"":""072f6c7f-d61a-431d-bb93-6fd3095a28a9"",""projectId"":""54f8d589-66fc-4c65-830f-1dcc63bce8cc""}","https://test12345.live/?participantId=DD0D27503B88469AAB822A53357FF732&assignmentId=072f6c7f-d61a-431d-bb93-6fd3095a28a9&projectId=54f8d589-66fc-4c65-830f-1dcc63bce8cc","","1583","","{""Q0"":2}","","[0]"
"","","","","","html-button-response","68","710696","0.0-50.0","DD0D27503B88469AAB822A53357FF732","DD0D27503B88469AAB822A53357FF732","072f6c7f-d61a-431d-bb93-6fd3095a28a9","54f8d589-66fc-4c65-830f-1dcc63bce8cc","{""participantId"":""DD0D27503B88469AAB822A53357FF732"",""assignmentId"":""072f6c7f-d61a-431d-bb93-6fd3095a28a9"",""projectId"":""54f8d589-66fc-4c65-830f-1dcc63bce8cc""}","https://test12345.live/?participantId=DD0D27503B88469AAB822A53357FF732&assignmentId=072f6c7f-d61a-431d-bb93-6fd3095a28a9&projectId=54f8d589-66fc-4c65-830f-1dcc63bce8cc","","1121","
    <div style=""display: flex; justify-content: center; align-items: center;"">
      <img src=""images/red_deck_2.png"" style=""width: 300px; height: 300px; margin-right: 10px;"" />
      <img src=""images/blue_deck_1.png"" style=""width: 300px; height: 300px;"" />
    </div>","0","0",""
"","","","","","html-keyboard-response","69","713705","0.0-51.0-0.0","DD0D27503B88469AAB822A53357FF732","DD0D27503B88469AAB822A53357FF732","072f6c7f-d61a-431d-bb93-6fd3095a28a9","54f8d589-66fc-4c65-830f-1dcc63bce8cc","{""participantId"":""DD0D27503B88469AAB822A53357FF732"",""assignmentId"":""072f6c7f-d61a-431d-bb93-6fd3095a28a9"",""projectId"":""54f8d589-66fc-4c65-830f-1dcc63bce8cc""}","https://test12345.live/?participantId=DD0D27503B88469AAB822A53357FF732&assignmentId=072f6c7f-d61a-431d-bb93-6fd3095a28a9&projectId=54f8d589-66fc-4c65-830f-1dcc63bce8cc","","null","<div style=""display: flex; justify-content: center; align-items: center;"">
                    <img src=""images/causal/causal_series_1/causal_series_1_a.jpg"" style=""width: 300px; height: 300px;"" />
                  </div>","null","",""
"","","","","","html-keyboard-response","70","716719","0.0-51.0-1.0","DD0D27503B88469AAB822A53357FF732","DD0D27503B88469AAB822A53357FF732","072f6c7f-d61a-431d-bb93-6fd3095a28a9","54f8d589-66fc-4c65-830f-1dcc63bce8cc","{""participantId"":""DD0D27503B88469AAB822A53357FF732"",""assignmentId"":""072f6c7f-d61a-431d-bb93-6fd3095a28a9"",""projectId"":""54f8d589-66fc-4c65-830f-1dcc63bce8cc""}","https://test12345.live/?participantId=DD0D27503B88469AAB822A53357FF732&assignmentId=072f6c7f-d61a-431d-bb93-6fd3095a28a9&projectId=54f8d589-66fc-4c65-830f-1dcc63bce8cc","","null","<div style=""display: flex; justify-content: center; align-items: center;"">
                    <img src=""images/causal/causal_series_1/causal_series_1_b.jpg"" style=""width: 300px; height: 300px;"" />
                  </div>","null","",""
"","","","","","html-keyboard-response","71","719732","0.0-51.0-2.0","DD0D27503B88469AAB822A53357FF732","DD0D27503B88469AAB822A53357FF732","072f6c7f-d61a-431d-bb93-6fd3095a28a9","54f8d589-66fc-4c65-830f-1dcc63bce8cc","{""participantId"":""DD0D27503B88469AAB822A53357FF732"",""assignmentId"":""072f6c7f-d61a-431d-bb93-6fd3095a28a9"",""projectId"":""54f8d589-66fc-4c65-830f-1dcc63bce8cc""}","https://test12345.live/?participantId=DD0D27503B88469AAB822A53357FF732&assignmentId=072f6c7f-d61a-431d-bb93-6fd3095a28a9&projectId=54f8d589-66fc-4c65-830f-1dcc63bce8cc","","null","<div style=""display: flex; justify-content: center; align-items: center;"">
                    <img src=""images/causal/causal_series_1/causal_series_1_c.jpg"" style=""width: 300px; height: 300px;"" />
                  </div>","null","",""
"","","","","","html-keyboard-response","72","722746","0.0-51.0-3.0","DD0D27503B88469AAB822A53357FF732","DD0D27503B88469AAB822A53357FF732","072f6c7f-d61a-431d-bb93-6fd3095a28a9","54f8d589-66fc-4c65-830f-1dcc63bce8cc","{""participantId"":""DD0D27503B88469AAB822A53357FF732"",""assignmentId"":""072f6c7f-d61a-431d-bb93-6fd3095a28a9"",""projectId"":""54f8d589-66fc-4c65-830f-1dcc63bce8cc""}","https://test12345.live/?participantId=DD0D27503B88469AAB822A53357FF732&assignmentId=072f6c7f-d61a-431d-bb93-6fd3095a28a9&projectId=54f8d589-66fc-4c65-830f-1dcc63bce8cc","","null","<div style=""display: flex; justify-content: center; align-items: center;"">
                    <img src=""images/causal/causal_series_1/causal_series_1_d.jpg"" style=""width: 300px; height: 300px;"" />
                  </div>","null","",""
"","","","","","html-button-response","73","723896","0.0-53.0","DD0D27503B88469AAB822A53357FF732","DD0D27503B88469AAB822A53357FF732","072f6c7f-d61a-431d-bb93-6fd3095a28a9","54f8d589-66fc-4c65-830f-1dcc63bce8cc","{""participantId"":""DD0D27503B88469AAB822A53357FF732"",""assignmentId"":""072f6c7f-d61a-431d-bb93-6fd3095a28a9"",""projectId"":""54f8d589-66fc-4c65-830f-1dcc63bce8cc""}","https://test12345.live/?participantId=DD0D27503B88469AAB822A53357FF732&assignmentId=072f6c7f-d61a-431d-bb93-6fd3095a28a9&projectId=54f8d589-66fc-4c65-830f-1dcc63bce8cc","","1150","Was there a person in the picture?","0","",""
"","","","","","survey-likert","74","725801","0.0-54.0","DD0D27503B88469AAB822A53357FF732","DD0D27503B88469AAB822A53357FF732","072f6c7f-d61a-431d-bb93-6fd3095a28a9","54f8d589-66fc-4c65-830f-1dcc63bce8cc","{""participantId"":""DD0D27503B88469AAB822A53357FF732"",""assignmentId"":""072f6c7f-d61a-431d-bb93-6fd3095a28a9"",""projectId"":""54f8d589-66fc-4c65-830f-1dcc63bce8cc""}","https://test12345.live/?participantId=DD0D27503B88469AAB822A53357FF732&assignmentId=072f6c7f-d61a-431d-bb93-6fd3095a28a9&projectId=54f8d589-66fc-4c65-830f-1dcc63bce8cc","","1905","","{""Q0"":2}","","[0]"
"","","","","","html-button-response","75","743347","0.0-55.0","DD0D27503B88469AAB822A53357FF732","DD0D27503B88469AAB822A53357FF732","072f6c7f-d61a-431d-bb93-6fd3095a28a9","54f8d589-66fc-4c65-830f-1dcc63bce8cc","{""participantId"":""DD0D27503B88469AAB822A53357FF732"",""assignmentId"":""072f6c7f-d61a-431d-bb93-6fd3095a28a9"",""projectId"":""54f8d589-66fc-4c65-830f-1dcc63bce8cc""}","https://test12345.live/?participantId=DD0D27503B88469AAB822A53357FF732&assignmentId=072f6c7f-d61a-431d-bb93-6fd3095a28a9&projectId=54f8d589-66fc-4c65-830f-1dcc63bce8cc","","17546","
    <div style=""display: flex; justify-content: center; align-items: center;"">
      <img src=""images/red_deck_2.png"" style=""width: 300px; height: 300px; margin-right: 10px;"" />
      <img src=""images/blue_deck_1.png"" style=""width: 300px; height: 300px;"" />
    </div>","0","0",""
"","","","","","html-keyboard-response","76","746363","0.0-56.0-0.0","DD0D27503B88469AAB822A53357FF732","DD0D27503B88469AAB822A53357FF732","072f6c7f-d61a-431d-bb93-6fd3095a28a9","54f8d589-66fc-4c65-830f-1dcc63bce8cc","{""participantId"":""DD0D27503B88469AAB822A53357FF732"",""assignmentId"":""072f6c7f-d61a-431d-bb93-6fd3095a28a9"",""projectId"":""54f8d589-66fc-4c65-830f-1dcc63bce8cc""}","https://test12345.live/?participantId=DD0D27503B88469AAB822A53357FF732&assignmentId=072f6c7f-d61a-431d-bb93-6fd3095a28a9&projectId=54f8d589-66fc-4c65-830f-1dcc63bce8cc","","null","<div style=""display: flex; justify-content: center; align-items: center;"">
                    <img src=""images/causal/causal_series_7/causal_series_7_a.jpg"" style=""width: 300px; height: 300px;"" />
                  </div>","null","",""
"","","","","","html-keyboard-response","77","749377","0.0-56.0-1.0","DD0D27503B88469AAB822A53357FF732","DD0D27503B88469AAB822A53357FF732","072f6c7f-d61a-431d-bb93-6fd3095a28a9","54f8d589-66fc-4c65-830f-1dcc63bce8cc","{""participantId"":""DD0D27503B88469AAB822A53357FF732"",""assignmentId"":""072f6c7f-d61a-431d-bb93-6fd3095a28a9"",""projectId"":""54f8d589-66fc-4c65-830f-1dcc63bce8cc""}","https://test12345.live/?participantId=DD0D27503B88469AAB822A53357FF732&assignmentId=072f6c7f-d61a-431d-bb93-6fd3095a28a9&projectId=54f8d589-66fc-4c65-830f-1dcc63bce8cc","","null","<div style=""display: flex; justify-content: center; align-items: center;"">
                    <img src=""images/causal/causal_series_7/causal_series_7_b.jpg"" style=""width: 300px; height: 300px;"" />
                  </div>","null","",""
"","","","","","html-keyboard-response","78","752391","0.0-56.0-2.0","DD0D27503B88469AAB822A53357FF732","DD0D27503B88469AAB822A53357FF732","072f6c7f-d61a-431d-bb93-6fd3095a28a9","54f8d589-66fc-4c65-830f-1dcc63bce8cc","{""participantId"":""DD0D27503B88469AAB822A53357FF732"",""assignmentId"":""072f6c7f-d61a-431d-bb93-6fd3095a28a9"",""projectId"":""54f8d589-66fc-4c65-830f-1dcc63bce8cc""}","https://test12345.live/?participantId=DD0D27503B88469AAB822A53357FF732&assignmentId=072f6c7f-d61a-431d-bb93-6fd3095a28a9&projectId=54f8d589-66fc-4c65-830f-1dcc63bce8cc","","null","<div style=""display: flex; justify-content: center; align-items: center;"">
                    <img src=""images/causal/causal_series_7/causal_series_7_c.jpg"" style=""width: 300px; height: 300px;"" />
                  </div>","null","",""
"","","","","","html-keyboard-response","79","755404","0.0-56.0-3.0","DD0D27503B88469AAB822A53357FF732","DD0D27503B88469AAB822A53357FF732","072f6c7f-d61a-431d-bb93-6fd3095a28a9","54f8d589-66fc-4c65-830f-1dcc63bce8cc","{""participantId"":""DD0D27503B88469AAB822A53357FF732"",""assignmentId"":""072f6c7f-d61a-431d-bb93-6fd3095a28a9"",""projectId"":""54f8d589-66fc-4c65-830f-1dcc63bce8cc""}","https://test12345.live/?participantId=DD0D27503B88469AAB822A53357FF732&assignmentId=072f6c7f-d61a-431d-bb93-6fd3095a28a9&projectId=54f8d589-66fc-4c65-830f-1dcc63bce8cc","","null","<div style=""display: flex; justify-content: center; align-items: center;"">
                    <img src=""images/causal/causal_series_7/causal_series_7_d.jpg"" style=""width: 300px; height: 300px;"" />
                  </div>","null","",""
"","","","","","html-button-response","80","757654","0.0-58.0","DD0D27503B88469AAB822A53357FF732","DD0D27503B88469AAB822A53357FF732","072f6c7f-d61a-431d-bb93-6fd3095a28a9","54f8d589-66fc-4c65-830f-1dcc63bce8cc","{""participantId"":""DD0D27503B88469AAB822A53357FF732"",""assignmentId"":""072f6c7f-d61a-431d-bb93-6fd3095a28a9"",""projectId"":""54f8d589-66fc-4c65-830f-1dcc63bce8cc""}","https://test12345.live/?participantId=DD0D27503B88469AAB822A53357FF732&assignmentId=072f6c7f-d61a-431d-bb93-6fd3095a28a9&projectId=54f8d589-66fc-4c65-830f-1dcc63bce8cc","","2249","Was there a person in the picture?","1","",""
"","","","","","survey-likert","81","759365","0.0-59.0","DD0D27503B88469AAB822A53357FF732","DD0D27503B88469AAB822A53357FF732","072f6c7f-d61a-431d-bb93-6fd3095a28a9","54f8d589-66fc-4c65-830f-1dcc63bce8cc","{""participantId"":""DD0D27503B88469AAB822A53357FF732"",""assignmentId"":""072f6c7f-d61a-431d-bb93-6fd3095a28a9"",""projectId"":""54f8d589-66fc-4c65-830f-1dcc63bce8cc""}","https://test12345.live/?participantId=DD0D27503B88469AAB822A53357FF732&assignmentId=072f6c7f-d61a-431d-bb93-6fd3095a28a9&projectId=54f8d589-66fc-4c65-830f-1dcc63bce8cc","","1711","","{""Q0"":3}","","[0]"
"","","","","","html-button-response","82","761295","0.0-60.0","DD0D27503B88469AAB822A53357FF732","DD0D27503B88469AAB822A53357FF732","072f6c7f-d61a-431d-bb93-6fd3095a28a9","54f8d589-66fc-4c65-830f-1dcc63bce8cc","{""participantId"":""DD0D27503B88469AAB822A53357FF732"",""assignmentId"":""072f6c7f-d61a-431d-bb93-6fd3095a28a9"",""projectId"":""54f8d589-66fc-4c65-830f-1dcc63bce8cc""}","https://test12345.live/?participantId=DD0D27503B88469AAB822A53357FF732&assignmentId=072f6c7f-d61a-431d-bb93-6fd3095a28a9&projectId=54f8d589-66fc-4c65-830f-1dcc63bce8cc","","1929","
    <div style=""display: flex; justify-content: center; align-items: center;"">
      <img src=""images/red_deck_2.png"" style=""width: 300px; height: 300px; margin-right: 10px;"" />
      <img src=""images/blue_deck_1.png"" style=""width: 300px; height: 300px;"" />
    </div>","1","1",""
"","","","","","html-keyboard-response","83","764307","0.0-62.0-0.0","DD0D27503B88469AAB822A53357FF732","DD0D27503B88469AAB822A53357FF732","072f6c7f-d61a-431d-bb93-6fd3095a28a9","54f8d589-66fc-4c65-830f-1dcc63bce8cc","{""participantId"":""DD0D27503B88469AAB822A53357FF732"",""assignmentId"":""072f6c7f-d61a-431d-bb93-6fd3095a28a9"",""projectId"":""54f8d589-66fc-4c65-830f-1dcc63bce8cc""}","https://test12345.live/?participantId=DD0D27503B88469AAB822A53357FF732&assignmentId=072f6c7f-d61a-431d-bb93-6fd3095a28a9&projectId=54f8d589-66fc-4c65-830f-1dcc63bce8cc","","null","<div style=""display: flex; justify-content: center; align-items: center;"">
                    <img src=""images/semantic/semantic_series_18/semantic_series_18_a.jpg"" style=""width: 300px; height: 300px;"" />
                  </div>","null","",""
"","","","","","html-keyboard-response","84","767321","0.0-62.0-1.0","DD0D27503B88469AAB822A53357FF732","DD0D27503B88469AAB822A53357FF732","072f6c7f-d61a-431d-bb93-6fd3095a28a9","54f8d589-66fc-4c65-830f-1dcc63bce8cc","{""participantId"":""DD0D27503B88469AAB822A53357FF732"",""assignmentId"":""072f6c7f-d61a-431d-bb93-6fd3095a28a9"",""projectId"":""54f8d589-66fc-4c65-830f-1dcc63bce8cc""}","https://test12345.live/?participantId=DD0D27503B88469AAB822A53357FF732&assignmentId=072f6c7f-d61a-431d-bb93-6fd3095a28a9&projectId=54f8d589-66fc-4c65-830f-1dcc63bce8cc","","null","<div style=""display: flex; justify-content: center; align-items: center;"">
                    <img src=""images/semantic/semantic_series_18/semantic_series_18_b.jpg"" style=""width: 300px; height: 300px;"" />
                  </div>","null","",""
"","","","","","html-keyboard-response","85","770334","0.0-62.0-2.0","DD0D27503B88469AAB822A53357FF732","DD0D27503B88469AAB822A53357FF732","072f6c7f-d61a-431d-bb93-6fd3095a28a9","54f8d589-66fc-4c65-830f-1dcc63bce8cc","{""participantId"":""DD0D27503B88469AAB822A53357FF732"",""assignmentId"":""072f6c7f-d61a-431d-bb93-6fd3095a28a9"",""projectId"":""54f8d589-66fc-4c65-830f-1dcc63bce8cc""}","https://test12345.live/?participantId=DD0D27503B88469AAB822A53357FF732&assignmentId=072f6c7f-d61a-431d-bb93-6fd3095a28a9&projectId=54f8d589-66fc-4c65-830f-1dcc63bce8cc","","null","<div style=""display: flex; justify-content: center; align-items: center;"">
                    <img src=""images/semantic/semantic_series_18/semantic_series_18_c.jpg"" style=""width: 300px; height: 300px;"" />
                  </div>","null","",""
"","","","","","html-keyboard-response","86","773348","0.0-62.0-3.0","DD0D27503B88469AAB822A53357FF732","DD0D27503B88469AAB822A53357FF732","072f6c7f-d61a-431d-bb93-6fd3095a28a9","54f8d589-66fc-4c65-830f-1dcc63bce8cc","{""participantId"":""DD0D27503B88469AAB822A53357FF732"",""assignmentId"":""072f6c7f-d61a-431d-bb93-6fd3095a28a9"",""projectId"":""54f8d589-66fc-4c65-830f-1dcc63bce8cc""}","https://test12345.live/?participantId=DD0D27503B88469AAB822A53357FF732&assignmentId=072f6c7f-d61a-431d-bb93-6fd3095a28a9&projectId=54f8d589-66fc-4c65-830f-1dcc63bce8cc","","null","<div style=""display: flex; justify-content: center; align-items: center;"">
                    <img src=""images/semantic/semantic_series_18/semantic_series_18_d.jpg"" style=""width: 300px; height: 300px;"" />
                  </div>","null","",""
"","","","","","html-button-response","87","774610","0.0-63.0","DD0D27503B88469AAB822A53357FF732","DD0D27503B88469AAB822A53357FF732","072f6c7f-d61a-431d-bb93-6fd3095a28a9","54f8d589-66fc-4c65-830f-1dcc63bce8cc","{""participantId"":""DD0D27503B88469AAB822A53357FF732"",""assignmentId"":""072f6c7f-d61a-431d-bb93-6fd3095a28a9"",""projectId"":""54f8d589-66fc-4c65-830f-1dcc63bce8cc""}","https://test12345.live/?participantId=DD0D27503B88469AAB822A53357FF732&assignmentId=072f6c7f-d61a-431d-bb93-6fd3095a28a9&projectId=54f8d589-66fc-4c65-830f-1dcc63bce8cc","","1261","Was there a person in the picture?","1","",""
"","","","","","survey-likert","88","776993","0.0-64.0","DD0D27503B88469AAB822A53357FF732","DD0D27503B88469AAB822A53357FF732","072f6c7f-d61a-431d-bb93-6fd3095a28a9","54f8d589-66fc-4c65-830f-1dcc63bce8cc","{""participantId"":""DD0D27503B88469AAB822A53357FF732"",""assignmentId"":""072f6c7f-d61a-431d-bb93-6fd3095a28a9"",""projectId"":""54f8d589-66fc-4c65-830f-1dcc63bce8cc""}","https://test12345.live/?participantId=DD0D27503B88469AAB822A53357FF732&assignmentId=072f6c7f-d61a-431d-bb93-6fd3095a28a9&projectId=54f8d589-66fc-4c65-830f-1dcc63bce8cc","","2382","","{""Q0"":2}","","[0]"
"","","","","","html-button-response","89","777974","0.0-65.0","DD0D27503B88469AAB822A53357FF732","DD0D27503B88469AAB822A53357FF732","072f6c7f-d61a-431d-bb93-6fd3095a28a9","54f8d589-66fc-4c65-830f-1dcc63bce8cc","{""participantId"":""DD0D27503B88469AAB822A53357FF732"",""assignmentId"":""072f6c7f-d61a-431d-bb93-6fd3095a28a9"",""projectId"":""54f8d589-66fc-4c65-830f-1dcc63bce8cc""}","https://test12345.live/?participantId=DD0D27503B88469AAB822A53357FF732&assignmentId=072f6c7f-d61a-431d-bb93-6fd3095a28a9&projectId=54f8d589-66fc-4c65-830f-1dcc63bce8cc","","980","
    <div style=""display: flex; justify-content: center; align-items: center;"">
      <img src=""images/red_deck_2.png"" style=""width: 300px; height: 300px; margin-right: 10px;"" />
      <img src=""images/blue_deck_1.png"" style=""width: 300px; height: 300px;"" />
    </div>","0","0",""
"","","","","","html-keyboard-response","90","780990","0.0-66.0-0.0","DD0D27503B88469AAB822A53357FF732","DD0D27503B88469AAB822A53357FF732","072f6c7f-d61a-431d-bb93-6fd3095a28a9","54f8d589-66fc-4c65-830f-1dcc63bce8cc","{""participantId"":""DD0D27503B88469AAB822A53357FF732"",""assignmentId"":""072f6c7f-d61a-431d-bb93-6fd3095a28a9"",""projectId"":""54f8d589-66fc-4c65-830f-1dcc63bce8cc""}","https://test12345.live/?participantId=DD0D27503B88469AAB822A53357FF732&assignmentId=072f6c7f-d61a-431d-bb93-6fd3095a28a9&projectId=54f8d589-66fc-4c65-830f-1dcc63bce8cc","","null","<div style=""display: flex; justify-content: center; align-items: center;"">
                    <img src=""images/causal/causal_series_16/causal_series_16_a.jpg"" style=""width: 300px; height: 300px;"" />
                  </div>","null","",""
"","","","","","html-keyboard-response","91","784004","0.0-66.0-1.0","DD0D27503B88469AAB822A53357FF732","DD0D27503B88469AAB822A53357FF732","072f6c7f-d61a-431d-bb93-6fd3095a28a9","54f8d589-66fc-4c65-830f-1dcc63bce8cc","{""participantId"":""DD0D27503B88469AAB822A53357FF732"",""assignmentId"":""072f6c7f-d61a-431d-bb93-6fd3095a28a9"",""projectId"":""54f8d589-66fc-4c65-830f-1dcc63bce8cc""}","https://test12345.live/?participantId=DD0D27503B88469AAB822A53357FF732&assignmentId=072f6c7f-d61a-431d-bb93-6fd3095a28a9&projectId=54f8d589-66fc-4c65-830f-1dcc63bce8cc","","null","<div style=""display: flex; justify-content: center; align-items: center;"">
                    <img src=""images/causal/causal_series_16/causal_series_16_b.jpg"" style=""width: 300px; height: 300px;"" />
                  </div>","null","",""
"","","","","","html-keyboard-response","92","787017","0.0-66.0-2.0","DD0D27503B88469AAB822A53357FF732","DD0D27503B88469AAB822A53357FF732","072f6c7f-d61a-431d-bb93-6fd3095a28a9","54f8d589-66fc-4c65-830f-1dcc63bce8cc","{""participantId"":""DD0D27503B88469AAB822A53357FF732"",""assignmentId"":""072f6c7f-d61a-431d-bb93-6fd3095a28a9"",""projectId"":""54f8d589-66fc-4c65-830f-1dcc63bce8cc""}","https://test12345.live/?participantId=DD0D27503B88469AAB822A53357FF732&assignmentId=072f6c7f-d61a-431d-bb93-6fd3095a28a9&projectId=54f8d589-66fc-4c65-830f-1dcc63bce8cc","","null","<div style=""display: flex; justify-content: center; align-items: center;"">
                    <img src=""images/causal/causal_series_16/causal_series_16_c.jpg"" style=""width: 300px; height: 300px;"" />
                  </div>","null","",""
"","","","","","html-keyboard-response","93","790031","0.0-66.0-3.0","DD0D27503B88469AAB822A53357FF732","DD0D27503B88469AAB822A53357FF732","072f6c7f-d61a-431d-bb93-6fd3095a28a9","54f8d589-66fc-4c65-830f-1dcc63bce8cc","{""participantId"":""DD0D27503B88469AAB822A53357FF732"",""assignmentId"":""072f6c7f-d61a-431d-bb93-6fd3095a28a9"",""projectId"":""54f8d589-66fc-4c65-830f-1dcc63bce8cc""}","https://test12345.live/?participantId=DD0D27503B88469AAB822A53357FF732&assignmentId=072f6c7f-d61a-431d-bb93-6fd3095a28a9&projectId=54f8d589-66fc-4c65-830f-1dcc63bce8cc","","null","<div style=""display: flex; justify-content: center; align-items: center;"">
                    <img src=""images/causal/causal_series_16/causal_series_16_d.jpg"" style=""width: 300px; height: 300px;"" />
                  </div>","null","",""
"","","","","","html-button-response","94","792836","0.0-68.0","DD0D27503B88469AAB822A53357FF732","DD0D27503B88469AAB822A53357FF732","072f6c7f-d61a-431d-bb93-6fd3095a28a9","54f8d589-66fc-4c65-830f-1dcc63bce8cc","{""participantId"":""DD0D27503B88469AAB822A53357FF732"",""assignmentId"":""072f6c7f-d61a-431d-bb93-6fd3095a28a9"",""projectId"":""54f8d589-66fc-4c65-830f-1dcc63bce8cc""}","https://test12345.live/?participantId=DD0D27503B88469AAB822A53357FF732&assignmentId=072f6c7f-d61a-431d-bb93-6fd3095a28a9&projectId=54f8d589-66fc-4c65-830f-1dcc63bce8cc","","2804","Was there a person in the picture?","0","",""
"","","","","","survey-likert","95","796137","0.0-69.0","DD0D27503B88469AAB822A53357FF732","DD0D27503B88469AAB822A53357FF732","072f6c7f-d61a-431d-bb93-6fd3095a28a9","54f8d589-66fc-4c65-830f-1dcc63bce8cc","{""participantId"":""DD0D27503B88469AAB822A53357FF732"",""assignmentId"":""072f6c7f-d61a-431d-bb93-6fd3095a28a9"",""projectId"":""54f8d589-66fc-4c65-830f-1dcc63bce8cc""}","https://test12345.live/?participantId=DD0D27503B88469AAB822A53357FF732&assignmentId=072f6c7f-d61a-431d-bb93-6fd3095a28a9&projectId=54f8d589-66fc-4c65-830f-1dcc63bce8cc","","3301","","{""Q0"":2}","","[0]"
"","","","","","html-button-response","96","797212","0.0-70.0","DD0D27503B88469AAB822A53357FF732","DD0D27503B88469AAB822A53357FF732","072f6c7f-d61a-431d-bb93-6fd3095a28a9","54f8d589-66fc-4c65-830f-1dcc63bce8cc","{""participantId"":""DD0D27503B88469AAB822A53357FF732"",""assignmentId"":""072f6c7f-d61a-431d-bb93-6fd3095a28a9"",""projectId"":""54f8d589-66fc-4c65-830f-1dcc63bce8cc""}","https://test12345.live/?participantId=DD0D27503B88469AAB822A53357FF732&assignmentId=072f6c7f-d61a-431d-bb93-6fd3095a28a9&projectId=54f8d589-66fc-4c65-830f-1dcc63bce8cc","","1075","
    <div style=""display: flex; justify-content: center; align-items: center;"">
      <img src=""images/red_deck_2.png"" style=""width: 300px; height: 300px; margin-right: 10px;"" />
      <img src=""images/blue_deck_1.png"" style=""width: 300px; height: 300px;"" />
    </div>","1","1",""
"","","","","","html-keyboard-response","97","800226","0.0-72.0-0.0","DD0D27503B88469AAB822A53357FF732","DD0D27503B88469AAB822A53357FF732","072f6c7f-d61a-431d-bb93-6fd3095a28a9","54f8d589-66fc-4c65-830f-1dcc63bce8cc","{""participantId"":""DD0D27503B88469AAB822A53357FF732"",""assignmentId"":""072f6c7f-d61a-431d-bb93-6fd3095a28a9"",""projectId"":""54f8d589-66fc-4c65-830f-1dcc63bce8cc""}","https://test12345.live/?participantId=DD0D27503B88469AAB822A53357FF732&assignmentId=072f6c7f-d61a-431d-bb93-6fd3095a28a9&projectId=54f8d589-66fc-4c65-830f-1dcc63bce8cc","","null","<div style=""display: flex; justify-content: center; align-items: center;"">
                    <img src=""images/semantic/semantic_series_6/semantic_series_6_a.jpg"" style=""width: 300px; height: 300px;"" />
                  </div>","null","",""
"","","","","","html-keyboard-response","98","803239","0.0-72.0-1.0","DD0D27503B88469AAB822A53357FF732","DD0D27503B88469AAB822A53357FF732","072f6c7f-d61a-431d-bb93-6fd3095a28a9","54f8d589-66fc-4c65-830f-1dcc63bce8cc","{""participantId"":""DD0D27503B88469AAB822A53357FF732"",""assignmentId"":""072f6c7f-d61a-431d-bb93-6fd3095a28a9"",""projectId"":""54f8d589-66fc-4c65-830f-1dcc63bce8cc""}","https://test12345.live/?participantId=DD0D27503B88469AAB822A53357FF732&assignmentId=072f6c7f-d61a-431d-bb93-6fd3095a28a9&projectId=54f8d589-66fc-4c65-830f-1dcc63bce8cc","","null","<div style=""display: flex; justify-content: center; align-items: center;"">
                    <img src=""images/semantic/semantic_series_6/semantic_series_6_b.jpg"" style=""width: 300px; height: 300px;"" />
                  </div>","null","",""
"","","","","","html-keyboard-response","99","806253","0.0-72.0-2.0","DD0D27503B88469AAB822A53357FF732","DD0D27503B88469AAB822A53357FF732","072f6c7f-d61a-431d-bb93-6fd3095a28a9","54f8d589-66fc-4c65-830f-1dcc63bce8cc","{""participantId"":""DD0D27503B88469AAB822A53357FF732"",""assignmentId"":""072f6c7f-d61a-431d-bb93-6fd3095a28a9"",""projectId"":""54f8d589-66fc-4c65-830f-1dcc63bce8cc""}","https://test12345.live/?participantId=DD0D27503B88469AAB822A53357FF732&assignmentId=072f6c7f-d61a-431d-bb93-6fd3095a28a9&projectId=54f8d589-66fc-4c65-830f-1dcc63bce8cc","","null","<div style=""display: flex; justify-content: center; align-items: center;"">
                    <img src=""images/semantic/semantic_series_6/semantic_series_6_c.jpg"" style=""width: 300px; height: 300px;"" />
                  </div>","null","",""
"","","","","","html-keyboard-response","100","809254","0.0-72.0-3.0","DD0D27503B88469AAB822A53357FF732","DD0D27503B88469AAB822A53357FF732","072f6c7f-d61a-431d-bb93-6fd3095a28a9","54f8d589-66fc-4c65-830f-1dcc63bce8cc","{""participantId"":""DD0D27503B88469AAB822A53357FF732"",""assignmentId"":""072f6c7f-d61a-431d-bb93-6fd3095a28a9"",""projectId"":""54f8d589-66fc-4c65-830f-1dcc63bce8cc""}","https://test12345.live/?participantId=DD0D27503B88469AAB822A53357FF732&assignmentId=072f6c7f-d61a-431d-bb93-6fd3095a28a9&projectId=54f8d589-66fc-4c65-830f-1dcc63bce8cc","","null","<div style=""display: flex; justify-content: center; align-items: center;"">
                    <img src=""images/semantic/semantic_series_6/semantic_series_6_d.jpg"" style=""width: 300px; height: 300px;"" />
                  </div>","null","",""
"","","","","","html-button-response","101","810327","0.0-73.0","DD0D27503B88469AAB822A53357FF732","DD0D27503B88469AAB822A53357FF732","072f6c7f-d61a-431d-bb93-6fd3095a28a9","54f8d589-66fc-4c65-830f-1dcc63bce8cc","{""participantId"":""DD0D27503B88469AAB822A53357FF732"",""assignmentId"":""072f6c7f-d61a-431d-bb93-6fd3095a28a9"",""projectId"":""54f8d589-66fc-4c65-830f-1dcc63bce8cc""}","https://test12345.live/?participantId=DD0D27503B88469AAB822A53357FF732&assignmentId=072f6c7f-d61a-431d-bb93-6fd3095a28a9&projectId=54f8d589-66fc-4c65-830f-1dcc63bce8cc","","1072","Was there a person in the picture?","1","",""
"","","","","","survey-likert","102","811746","0.0-74.0","DD0D27503B88469AAB822A53357FF732","DD0D27503B88469AAB822A53357FF732","072f6c7f-d61a-431d-bb93-6fd3095a28a9","54f8d589-66fc-4c65-830f-1dcc63bce8cc","{""participantId"":""DD0D27503B88469AAB822A53357FF732"",""assignmentId"":""072f6c7f-d61a-431d-bb93-6fd3095a28a9"",""projectId"":""54f8d589-66fc-4c65-830f-1dcc63bce8cc""}","https://test12345.live/?participantId=DD0D27503B88469AAB822A53357FF732&assignmentId=072f6c7f-d61a-431d-bb93-6fd3095a28a9&projectId=54f8d589-66fc-4c65-830f-1dcc63bce8cc","","1418","","{""Q0"":2}","","[0]"
"","","","","","html-button-response","103","812584","0.0-75.0","DD0D27503B88469AAB822A53357FF732","DD0D27503B88469AAB822A53357FF732","072f6c7f-d61a-431d-bb93-6fd3095a28a9","54f8d589-66fc-4c65-830f-1dcc63bce8cc","{""participantId"":""DD0D27503B88469AAB822A53357FF732"",""assignmentId"":""072f6c7f-d61a-431d-bb93-6fd3095a28a9"",""projectId"":""54f8d589-66fc-4c65-830f-1dcc63bce8cc""}","https://test12345.live/?participantId=DD0D27503B88469AAB822A53357FF732&assignmentId=072f6c7f-d61a-431d-bb93-6fd3095a28a9&projectId=54f8d589-66fc-4c65-830f-1dcc63bce8cc","","837","
    <div style=""display: flex; justify-content: center; align-items: center;"">
      <img src=""images/red_deck_2.png"" style=""width: 300px; height: 300px; margin-right: 10px;"" />
      <img src=""images/blue_deck_1.png"" style=""width: 300px; height: 300px;"" />
    </div>","0","0",""
"","","","","","html-keyboard-response","104","815586","0.0-76.0-0.0","DD0D27503B88469AAB822A53357FF732","DD0D27503B88469AAB822A53357FF732","072f6c7f-d61a-431d-bb93-6fd3095a28a9","54f8d589-66fc-4c65-830f-1dcc63bce8cc","{""participantId"":""DD0D27503B88469AAB822A53357FF732"",""assignmentId"":""072f6c7f-d61a-431d-bb93-6fd3095a28a9"",""projectId"":""54f8d589-66fc-4c65-830f-1dcc63bce8cc""}","https://test12345.live/?participantId=DD0D27503B88469AAB822A53357FF732&assignmentId=072f6c7f-d61a-431d-bb93-6fd3095a28a9&projectId=54f8d589-66fc-4c65-830f-1dcc63bce8cc","","null","<div style=""display: flex; justify-content: center; align-items: center;"">
                    <img src=""images/causal/causal_series_13/causal_series_13_a.jpg"" style=""width: 300px; height: 300px;"" />
                  </div>","null","",""
"","","","","","html-keyboard-response","105","818600","0.0-76.0-1.0","DD0D27503B88469AAB822A53357FF732","DD0D27503B88469AAB822A53357FF732","072f6c7f-d61a-431d-bb93-6fd3095a28a9","54f8d589-66fc-4c65-830f-1dcc63bce8cc","{""participantId"":""DD0D27503B88469AAB822A53357FF732"",""assignmentId"":""072f6c7f-d61a-431d-bb93-6fd3095a28a9"",""projectId"":""54f8d589-66fc-4c65-830f-1dcc63bce8cc""}","https://test12345.live/?participantId=DD0D27503B88469AAB822A53357FF732&assignmentId=072f6c7f-d61a-431d-bb93-6fd3095a28a9&projectId=54f8d589-66fc-4c65-830f-1dcc63bce8cc","","null","<div style=""display: flex; justify-content: center; align-items: center;"">
                    <img src=""images/causal/causal_series_13/causal_series_13_b.jpg"" style=""width: 300px; height: 300px;"" />
                  </div>","null","",""
"","","","","","html-keyboard-response","106","821613","0.0-76.0-2.0","DD0D27503B88469AAB822A53357FF732","DD0D27503B88469AAB822A53357FF732","072f6c7f-d61a-431d-bb93-6fd3095a28a9","54f8d589-66fc-4c65-830f-1dcc63bce8cc","{""participantId"":""DD0D27503B88469AAB822A53357FF732"",""assignmentId"":""072f6c7f-d61a-431d-bb93-6fd3095a28a9"",""projectId"":""54f8d589-66fc-4c65-830f-1dcc63bce8cc""}","https://test12345.live/?participantId=DD0D27503B88469AAB822A53357FF732&assignmentId=072f6c7f-d61a-431d-bb93-6fd3095a28a9&projectId=54f8d589-66fc-4c65-830f-1dcc63bce8cc","","null","<div style=""display: flex; justify-content: center; align-items: center;"">
                    <img src=""images/causal/causal_series_13/causal_series_13_c.jpg"" style=""width: 300px; height: 300px;"" />
                  </div>","null","",""
"","","","","","html-keyboard-response","107","824627","0.0-76.0-3.0","DD0D27503B88469AAB822A53357FF732","DD0D27503B88469AAB822A53357FF732","072f6c7f-d61a-431d-bb93-6fd3095a28a9","54f8d589-66fc-4c65-830f-1dcc63bce8cc","{""participantId"":""DD0D27503B88469AAB822A53357FF732"",""assignmentId"":""072f6c7f-d61a-431d-bb93-6fd3095a28a9"",""projectId"":""54f8d589-66fc-4c65-830f-1dcc63bce8cc""}","https://test12345.live/?participantId=DD0D27503B88469AAB822A53357FF732&assignmentId=072f6c7f-d61a-431d-bb93-6fd3095a28a9&projectId=54f8d589-66fc-4c65-830f-1dcc63bce8cc","","null","<div style=""display: flex; justify-content: center; align-items: center;"">
                    <img src=""images/causal/causal_series_13/causal_series_13_d.jpg"" style=""width: 300px; height: 300px;"" />
                  </div>","null","",""
"","","","","","html-button-response","108","827229","0.0-78.0","DD0D27503B88469AAB822A53357FF732","DD0D27503B88469AAB822A53357FF732","072f6c7f-d61a-431d-bb93-6fd3095a28a9","54f8d589-66fc-4c65-830f-1dcc63bce8cc","{""participantId"":""DD0D27503B88469AAB822A53357FF732"",""assignmentId"":""072f6c7f-d61a-431d-bb93-6fd3095a28a9"",""projectId"":""54f8d589-66fc-4c65-830f-1dcc63bce8cc""}","https://test12345.live/?participantId=DD0D27503B88469AAB822A53357FF732&assignmentId=072f6c7f-d61a-431d-bb93-6fd3095a28a9&projectId=54f8d589-66fc-4c65-830f-1dcc63bce8cc","","2600","Was there a person in the picture?","0","",""
"","","","","","survey-likert","109","828509","0.0-79.0","DD0D27503B88469AAB822A53357FF732","DD0D27503B88469AAB822A53357FF732","072f6c7f-d61a-431d-bb93-6fd3095a28a9","54f8d589-66fc-4c65-830f-1dcc63bce8cc","{""participantId"":""DD0D27503B88469AAB822A53357FF732"",""assignmentId"":""072f6c7f-d61a-431d-bb93-6fd3095a28a9"",""projectId"":""54f8d589-66fc-4c65-830f-1dcc63bce8cc""}","https://test12345.live/?participantId=DD0D27503B88469AAB822A53357FF732&assignmentId=072f6c7f-d61a-431d-bb93-6fd3095a28a9&projectId=54f8d589-66fc-4c65-830f-1dcc63bce8cc","","1280","","{""Q0"":2}","","[0]"
"","","","","","html-button-response","110","829163","0.0-80.0","DD0D27503B88469AAB822A53357FF732","DD0D27503B88469AAB822A53357FF732","072f6c7f-d61a-431d-bb93-6fd3095a28a9","54f8d589-66fc-4c65-830f-1dcc63bce8cc","{""participantId"":""DD0D27503B88469AAB822A53357FF732"",""assignmentId"":""072f6c7f-d61a-431d-bb93-6fd3095a28a9"",""projectId"":""54f8d589-66fc-4c65-830f-1dcc63bce8cc""}","https://test12345.live/?participantId=DD0D27503B88469AAB822A53357FF732&assignmentId=072f6c7f-d61a-431d-bb93-6fd3095a28a9&projectId=54f8d589-66fc-4c65-830f-1dcc63bce8cc","","653","
    <div style=""display: flex; justify-content: center; align-items: center;"">
      <img src=""images/red_deck_2.png"" style=""width: 300px; height: 300px; margin-right: 10px;"" />
      <img src=""images/blue_deck_1.png"" style=""width: 300px; height: 300px;"" />
    </div>","1","1",""
"","","","","","html-keyboard-response","111","832164","0.0-82.0-0.0","DD0D27503B88469AAB822A53357FF732","DD0D27503B88469AAB822A53357FF732","072f6c7f-d61a-431d-bb93-6fd3095a28a9","54f8d589-66fc-4c65-830f-1dcc63bce8cc","{""participantId"":""DD0D27503B88469AAB822A53357FF732"",""assignmentId"":""072f6c7f-d61a-431d-bb93-6fd3095a28a9"",""projectId"":""54f8d589-66fc-4c65-830f-1dcc63bce8cc""}","https://test12345.live/?participantId=DD0D27503B88469AAB822A53357FF732&assignmentId=072f6c7f-d61a-431d-bb93-6fd3095a28a9&projectId=54f8d589-66fc-4c65-830f-1dcc63bce8cc","","null","<div style=""display: flex; justify-content: center; align-items: center;"">
                    <img src=""images/semantic/semantic_series_3/semantic_series_3_a.jpg"" style=""width: 300px; height: 300px;"" />
                  </div>","null","",""
"","","","","","html-keyboard-response","112","835175","0.0-82.0-1.0","DD0D27503B88469AAB822A53357FF732","DD0D27503B88469AAB822A53357FF732","072f6c7f-d61a-431d-bb93-6fd3095a28a9","54f8d589-66fc-4c65-830f-1dcc63bce8cc","{""participantId"":""DD0D27503B88469AAB822A53357FF732"",""assignmentId"":""072f6c7f-d61a-431d-bb93-6fd3095a28a9"",""projectId"":""54f8d589-66fc-4c65-830f-1dcc63bce8cc""}","https://test12345.live/?participantId=DD0D27503B88469AAB822A53357FF732&assignmentId=072f6c7f-d61a-431d-bb93-6fd3095a28a9&projectId=54f8d589-66fc-4c65-830f-1dcc63bce8cc","","null","<div style=""display: flex; justify-content: center; align-items: center;"">
                    <img src=""images/semantic/semantic_series_3/semantic_series_3_b.jpg"" style=""width: 300px; height: 300px;"" />
                  </div>","null","",""
"","","","","","html-keyboard-response","113","838189","0.0-82.0-2.0","DD0D27503B88469AAB822A53357FF732","DD0D27503B88469AAB822A53357FF732","072f6c7f-d61a-431d-bb93-6fd3095a28a9","54f8d589-66fc-4c65-830f-1dcc63bce8cc","{""participantId"":""DD0D27503B88469AAB822A53357FF732"",""assignmentId"":""072f6c7f-d61a-431d-bb93-6fd3095a28a9"",""projectId"":""54f8d589-66fc-4c65-830f-1dcc63bce8cc""}","https://test12345.live/?participantId=DD0D27503B88469AAB822A53357FF732&assignmentId=072f6c7f-d61a-431d-bb93-6fd3095a28a9&projectId=54f8d589-66fc-4c65-830f-1dcc63bce8cc","","null","<div style=""display: flex; justify-content: center; align-items: center;"">
                    <img src=""images/semantic/semantic_series_3/semantic_series_3_c.jpg"" style=""width: 300px; height: 300px;"" />
                  </div>","null","",""
"","","","","","html-keyboard-response","114","841202","0.0-82.0-3.0","DD0D27503B88469AAB822A53357FF732","DD0D27503B88469AAB822A53357FF732","072f6c7f-d61a-431d-bb93-6fd3095a28a9","54f8d589-66fc-4c65-830f-1dcc63bce8cc","{""participantId"":""DD0D27503B88469AAB822A53357FF732"",""assignmentId"":""072f6c7f-d61a-431d-bb93-6fd3095a28a9"",""projectId"":""54f8d589-66fc-4c65-830f-1dcc63bce8cc""}","https://test12345.live/?participantId=DD0D27503B88469AAB822A53357FF732&assignmentId=072f6c7f-d61a-431d-bb93-6fd3095a28a9&projectId=54f8d589-66fc-4c65-830f-1dcc63bce8cc","","null","<div style=""display: flex; justify-content: center; align-items: center;"">
                    <img src=""images/semantic/semantic_series_3/semantic_series_3_d.jpg"" style=""width: 300px; height: 300px;"" />
                  </div>","null","",""
"","","","","","html-button-response","115","843773","0.0-83.0","DD0D27503B88469AAB822A53357FF732","DD0D27503B88469AAB822A53357FF732","072f6c7f-d61a-431d-bb93-6fd3095a28a9","54f8d589-66fc-4c65-830f-1dcc63bce8cc","{""participantId"":""DD0D27503B88469AAB822A53357FF732"",""assignmentId"":""072f6c7f-d61a-431d-bb93-6fd3095a28a9"",""projectId"":""54f8d589-66fc-4c65-830f-1dcc63bce8cc""}","https://test12345.live/?participantId=DD0D27503B88469AAB822A53357FF732&assignmentId=072f6c7f-d61a-431d-bb93-6fd3095a28a9&projectId=54f8d589-66fc-4c65-830f-1dcc63bce8cc","","2570","Was there a person in the picture?","0","",""
"","","","","","survey-likert","116","845531","0.0-84.0","DD0D27503B88469AAB822A53357FF732","DD0D27503B88469AAB822A53357FF732","072f6c7f-d61a-431d-bb93-6fd3095a28a9","54f8d589-66fc-4c65-830f-1dcc63bce8cc","{""participantId"":""DD0D27503B88469AAB822A53357FF732"",""assignmentId"":""072f6c7f-d61a-431d-bb93-6fd3095a28a9"",""projectId"":""54f8d589-66fc-4c65-830f-1dcc63bce8cc""}","https://test12345.live/?participantId=DD0D27503B88469AAB822A53357FF732&assignmentId=072f6c7f-d61a-431d-bb93-6fd3095a28a9&projectId=54f8d589-66fc-4c65-830f-1dcc63bce8cc","","1757","","{""Q0"":2}","","[0]"
"","","","","","html-button-response","117","846533","0.0-85.0","DD0D27503B88469AAB822A53357FF732","DD0D27503B88469AAB822A53357FF732","072f6c7f-d61a-431d-bb93-6fd3095a28a9","54f8d589-66fc-4c65-830f-1dcc63bce8cc","{""participantId"":""DD0D27503B88469AAB822A53357FF732"",""assignmentId"":""072f6c7f-d61a-431d-bb93-6fd3095a28a9"",""projectId"":""54f8d589-66fc-4c65-830f-1dcc63bce8cc""}","https://test12345.live/?participantId=DD0D27503B88469AAB822A53357FF732&assignmentId=072f6c7f-d61a-431d-bb93-6fd3095a28a9&projectId=54f8d589-66fc-4c65-830f-1dcc63bce8cc","","1000","
    <div style=""display: flex; justify-content: center; align-items: center;"">
      <img src=""images/red_deck_2.png"" style=""width: 300px; height: 300px; margin-right: 10px;"" />
      <img src=""images/blue_deck_1.png"" style=""width: 300px; height: 300px;"" />
    </div>","1","1",""
"","","","","","html-keyboard-response","118","849536","0.0-87.0-0.0","DD0D27503B88469AAB822A53357FF732","DD0D27503B88469AAB822A53357FF732","072f6c7f-d61a-431d-bb93-6fd3095a28a9","54f8d589-66fc-4c65-830f-1dcc63bce8cc","{""participantId"":""DD0D27503B88469AAB822A53357FF732"",""assignmentId"":""072f6c7f-d61a-431d-bb93-6fd3095a28a9"",""projectId"":""54f8d589-66fc-4c65-830f-1dcc63bce8cc""}","https://test12345.live/?participantId=DD0D27503B88469AAB822A53357FF732&assignmentId=072f6c7f-d61a-431d-bb93-6fd3095a28a9&projectId=54f8d589-66fc-4c65-830f-1dcc63bce8cc","","null","<div style=""display: flex; justify-content: center; align-items: center;"">
                    <img src=""images/semantic/semantic_series_15/semantic_series_15_a.jpg"" style=""width: 300px; height: 300px;"" />
                  </div>","null","",""
"","","","","","html-keyboard-response","119","852550","0.0-87.0-1.0","DD0D27503B88469AAB822A53357FF732","DD0D27503B88469AAB822A53357FF732","072f6c7f-d61a-431d-bb93-6fd3095a28a9","54f8d589-66fc-4c65-830f-1dcc63bce8cc","{""participantId"":""DD0D27503B88469AAB822A53357FF732"",""assignmentId"":""072f6c7f-d61a-431d-bb93-6fd3095a28a9"",""projectId"":""54f8d589-66fc-4c65-830f-1dcc63bce8cc""}","https://test12345.live/?participantId=DD0D27503B88469AAB822A53357FF732&assignmentId=072f6c7f-d61a-431d-bb93-6fd3095a28a9&projectId=54f8d589-66fc-4c65-830f-1dcc63bce8cc","","null","<div style=""display: flex; justify-content: center; align-items: center;"">
                    <img src=""images/semantic/semantic_series_15/semantic_series_15_b.jpg"" style=""width: 300px; height: 300px;"" />
                  </div>","null","",""
"","","","","","html-keyboard-response","120","855564","0.0-87.0-2.0","DD0D27503B88469AAB822A53357FF732","DD0D27503B88469AAB822A53357FF732","072f6c7f-d61a-431d-bb93-6fd3095a28a9","54f8d589-66fc-4c65-830f-1dcc63bce8cc","{""participantId"":""DD0D27503B88469AAB822A53357FF732"",""assignmentId"":""072f6c7f-d61a-431d-bb93-6fd3095a28a9"",""projectId"":""54f8d589-66fc-4c65-830f-1dcc63bce8cc""}","https://test12345.live/?participantId=DD0D27503B88469AAB822A53357FF732&assignmentId=072f6c7f-d61a-431d-bb93-6fd3095a28a9&projectId=54f8d589-66fc-4c65-830f-1dcc63bce8cc","","null","<div style=""display: flex; justify-content: center; align-items: center;"">
                    <img src=""images/semantic/semantic_series_15/semantic_series_15_c.jpg"" style=""width: 300px; height: 300px;"" />
                  </div>","null","",""
"","","","","","html-keyboard-response","121","858577","0.0-87.0-3.0","DD0D27503B88469AAB822A53357FF732","DD0D27503B88469AAB822A53357FF732","072f6c7f-d61a-431d-bb93-6fd3095a28a9","54f8d589-66fc-4c65-830f-1dcc63bce8cc","{""participantId"":""DD0D27503B88469AAB822A53357FF732"",""assignmentId"":""072f6c7f-d61a-431d-bb93-6fd3095a28a9"",""projectId"":""54f8d589-66fc-4c65-830f-1dcc63bce8cc""}","https://test12345.live/?participantId=DD0D27503B88469AAB822A53357FF732&assignmentId=072f6c7f-d61a-431d-bb93-6fd3095a28a9&projectId=54f8d589-66fc-4c65-830f-1dcc63bce8cc","","null","<div style=""display: flex; justify-content: center; align-items: center;"">
                    <img src=""images/semantic/semantic_series_15/semantic_series_15_d.jpg"" style=""width: 300px; height: 300px;"" />
                  </div>","null","",""
"","","","","","html-button-response","122","861800","0.0-88.0","DD0D27503B88469AAB822A53357FF732","DD0D27503B88469AAB822A53357FF732","072f6c7f-d61a-431d-bb93-6fd3095a28a9","54f8d589-66fc-4c65-830f-1dcc63bce8cc","{""participantId"":""DD0D27503B88469AAB822A53357FF732"",""assignmentId"":""072f6c7f-d61a-431d-bb93-6fd3095a28a9"",""projectId"":""54f8d589-66fc-4c65-830f-1dcc63bce8cc""}","https://test12345.live/?participantId=DD0D27503B88469AAB822A53357FF732&assignmentId=072f6c7f-d61a-431d-bb93-6fd3095a28a9&projectId=54f8d589-66fc-4c65-830f-1dcc63bce8cc","","3222","Was there a person in the picture?","0","",""
"","","","","","survey-likert","123","864352","0.0-89.0","DD0D27503B88469AAB822A53357FF732","DD0D27503B88469AAB822A53357FF732","072f6c7f-d61a-431d-bb93-6fd3095a28a9","54f8d589-66fc-4c65-830f-1dcc63bce8cc","{""participantId"":""DD0D27503B88469AAB822A53357FF732"",""assignmentId"":""072f6c7f-d61a-431d-bb93-6fd3095a28a9"",""projectId"":""54f8d589-66fc-4c65-830f-1dcc63bce8cc""}","https://test12345.live/?participantId=DD0D27503B88469AAB822A53357FF732&assignmentId=072f6c7f-d61a-431d-bb93-6fd3095a28a9&projectId=54f8d589-66fc-4c65-830f-1dcc63bce8cc","","2552","","{""Q0"":2}","","[0]"
"","","","","","html-button-response","124","865504","0.0-90.0","DD0D27503B88469AAB822A53357FF732","DD0D27503B88469AAB822A53357FF732","072f6c7f-d61a-431d-bb93-6fd3095a28a9","54f8d589-66fc-4c65-830f-1dcc63bce8cc","{""participantId"":""DD0D27503B88469AAB822A53357FF732"",""assignmentId"":""072f6c7f-d61a-431d-bb93-6fd3095a28a9"",""projectId"":""54f8d589-66fc-4c65-830f-1dcc63bce8cc""}","https://test12345.live/?participantId=DD0D27503B88469AAB822A53357FF732&assignmentId=072f6c7f-d61a-431d-bb93-6fd3095a28a9&projectId=54f8d589-66fc-4c65-830f-1dcc63bce8cc","","1149","
    <div style=""display: flex; justify-content: center; align-items: center;"">
      <img src=""images/red_deck_2.png"" style=""width: 300px; height: 300px; margin-right: 10px;"" />
      <img src=""images/blue_deck_1.png"" style=""width: 300px; height: 300px;"" />
    </div>","1","1",""
"","","","","","html-keyboard-response","125","868510","0.0-92.0-0.0","DD0D27503B88469AAB822A53357FF732","DD0D27503B88469AAB822A53357FF732","072f6c7f-d61a-431d-bb93-6fd3095a28a9","54f8d589-66fc-4c65-830f-1dcc63bce8cc","{""participantId"":""DD0D27503B88469AAB822A53357FF732"",""assignmentId"":""072f6c7f-d61a-431d-bb93-6fd3095a28a9"",""projectId"":""54f8d589-66fc-4c65-830f-1dcc63bce8cc""}","https://test12345.live/?participantId=DD0D27503B88469AAB822A53357FF732&assignmentId=072f6c7f-d61a-431d-bb93-6fd3095a28a9&projectId=54f8d589-66fc-4c65-830f-1dcc63bce8cc","","null","<div style=""display: flex; justify-content: center; align-items: center;"">
                    <img src=""images/semantic/semantic_series_7/semantic_series_7_a.jpg"" style=""width: 300px; height: 300px;"" />
                  </div>","null","",""
"","","","","","html-keyboard-response","126","871524","0.0-92.0-1.0","DD0D27503B88469AAB822A53357FF732","DD0D27503B88469AAB822A53357FF732","072f6c7f-d61a-431d-bb93-6fd3095a28a9","54f8d589-66fc-4c65-830f-1dcc63bce8cc","{""participantId"":""DD0D27503B88469AAB822A53357FF732"",""assignmentId"":""072f6c7f-d61a-431d-bb93-6fd3095a28a9"",""projectId"":""54f8d589-66fc-4c65-830f-1dcc63bce8cc""}","https://test12345.live/?participantId=DD0D27503B88469AAB822A53357FF732&assignmentId=072f6c7f-d61a-431d-bb93-6fd3095a28a9&projectId=54f8d589-66fc-4c65-830f-1dcc63bce8cc","","null","<div style=""display: flex; justify-content: center; align-items: center;"">
                    <img src=""images/semantic/semantic_series_7/semantic_series_7_b.jpg"" style=""width: 300px; height: 300px;"" />
                  </div>","null","",""
"","","","","","html-keyboard-response","127","874537","0.0-92.0-2.0","DD0D27503B88469AAB822A53357FF732","DD0D27503B88469AAB822A53357FF732","072f6c7f-d61a-431d-bb93-6fd3095a28a9","54f8d589-66fc-4c65-830f-1dcc63bce8cc","{""participantId"":""DD0D27503B88469AAB822A53357FF732"",""assignmentId"":""072f6c7f-d61a-431d-bb93-6fd3095a28a9"",""projectId"":""54f8d589-66fc-4c65-830f-1dcc63bce8cc""}","https://test12345.live/?participantId=DD0D27503B88469AAB822A53357FF732&assignmentId=072f6c7f-d61a-431d-bb93-6fd3095a28a9&projectId=54f8d589-66fc-4c65-830f-1dcc63bce8cc","","null","<div style=""display: flex; justify-content: center; align-items: center;"">
                    <img src=""images/semantic/semantic_series_7/semantic_series_7_c.jpg"" style=""width: 300px; height: 300px;"" />
                  </div>","null","",""
"","","","","","html-keyboard-response","128","877551","0.0-92.0-3.0","DD0D27503B88469AAB822A53357FF732","DD0D27503B88469AAB822A53357FF732","072f6c7f-d61a-431d-bb93-6fd3095a28a9","54f8d589-66fc-4c65-830f-1dcc63bce8cc","{""participantId"":""DD0D27503B88469AAB822A53357FF732"",""assignmentId"":""072f6c7f-d61a-431d-bb93-6fd3095a28a9"",""projectId"":""54f8d589-66fc-4c65-830f-1dcc63bce8cc""}","https://test12345.live/?participantId=DD0D27503B88469AAB822A53357FF732&assignmentId=072f6c7f-d61a-431d-bb93-6fd3095a28a9&projectId=54f8d589-66fc-4c65-830f-1dcc63bce8cc","","null","<div style=""display: flex; justify-content: center; align-items: center;"">
                    <img src=""images/semantic/semantic_series_7/semantic_series_7_d.jpg"" style=""width: 300px; height: 300px;"" />
                  </div>","null","",""
"","","","","","html-button-response","129","879918","0.0-93.0","DD0D27503B88469AAB822A53357FF732","DD0D27503B88469AAB822A53357FF732","072f6c7f-d61a-431d-bb93-6fd3095a28a9","54f8d589-66fc-4c65-830f-1dcc63bce8cc","{""participantId"":""DD0D27503B88469AAB822A53357FF732"",""assignmentId"":""072f6c7f-d61a-431d-bb93-6fd3095a28a9"",""projectId"":""54f8d589-66fc-4c65-830f-1dcc63bce8cc""}","https://test12345.live/?participantId=DD0D27503B88469AAB822A53357FF732&assignmentId=072f6c7f-d61a-431d-bb93-6fd3095a28a9&projectId=54f8d589-66fc-4c65-830f-1dcc63bce8cc","","2366","Was there a person in the picture?","1","",""
"","","","","","survey-likert","130","881590","0.0-94.0","DD0D27503B88469AAB822A53357FF732","DD0D27503B88469AAB822A53357FF732","072f6c7f-d61a-431d-bb93-6fd3095a28a9","54f8d589-66fc-4c65-830f-1dcc63bce8cc","{""participantId"":""DD0D27503B88469AAB822A53357FF732"",""assignmentId"":""072f6c7f-d61a-431d-bb93-6fd3095a28a9"",""projectId"":""54f8d589-66fc-4c65-830f-1dcc63bce8cc""}","https://test12345.live/?participantId=DD0D27503B88469AAB822A53357FF732&assignmentId=072f6c7f-d61a-431d-bb93-6fd3095a28a9&projectId=54f8d589-66fc-4c65-830f-1dcc63bce8cc","","1673","","{""Q0"":2}","","[0]"
"","","","","","survey-text","131","952892","0.0-95.0","DD0D27503B88469AAB822A53357FF732","DD0D27503B88469AAB822A53357FF732","072f6c7f-d61a-431d-bb93-6fd3095a28a9","54f8d589-66fc-4c65-830f-1dcc63bce8cc","{""participantId"":""DD0D27503B88469AAB822A53357FF732"",""assignmentId"":""072f6c7f-d61a-431d-bb93-6fd3095a28a9"",""projectId"":""54f8d589-66fc-4c65-830f-1dcc63bce8cc""}","https://test12345.live/?participantId=DD0D27503B88469AAB822A53357FF732&assignmentId=072f6c7f-d61a-431d-bb93-6fd3095a28a9&projectId=54f8d589-66fc-4c65-830f-1dcc63bce8cc","","71299","","{""Q0"":""One had non-humans and other had humans.""}","",""
