success,timeout,failed_images,failed_audio,failed_video,trial_type,trial_index,time_elapsed,internal_node_id,subject,audio_id,rt,device_id,view_history,stimulus,response,estimated_stimulus_onset
TRUE,FALSE,[],[],[],preload,0,5201,0.0-0.0,b7z5weehr390upw,b7z5weehr390upw-2024-02-16-03-56-19,,,,,,
TRUE,,,,,fullscreen,1,9444,0.0-1.0,b7z5weehr390upw,b7z5weehr390upw-2024-02-16-03-56-19,3232,,,,,
,,,,,initialize-microphone,2,76241,0.0-2.0,b7z5weehr390upw,b7z5weehr390upw-2024-02-16-03-56-19,,ee76f6f67014142a191efd895f40dcdc2d2315f94e96025c0e13554d225126a3,,,,
,,,,,instructions,3,89949,0.0-3.0,b7z5weehr390upw,b7z5weehr390upw-2024-02-16-03-56-19,13707,,"[{""page_index"":0,""viewing_time"":2935},{""page_index"":1,""viewing_time"":10769}]",,,
,,,,,image-button-response,4,94457,0.0-4.0-0.0,b7z5weehr390upw,b7z5weehr390upw-2024-02-16-03-56-19,null,,,images/schemes/movie_scheme/movie_1.png,null,
,,,,,image-button-response,5,97160,0.0-4.0-1.0,b7z5weehr390upw,b7z5weehr390upw-2024-02-16-03-56-19,null,,,images/schemes/movie_scheme/movie_1.png,null,
,,,,,image-button-response,6,98962,0.0-4.0-2.0,b7z5weehr390upw,b7z5weehr390upw-2024-02-16-03-56-19,null,,,[],null,
,,,,,image-button-response,7,103466,0.0-4.0-0.1,b7z5weehr390upw,b7z5weehr390upw-2024-02-16-03-56-19,null,,,images/schemes/movie_scheme/movie_2.png,null,
,,,,,image-button-response,8,104640,0.0-4.0-1.1,b7z5weehr390upw,b7z5weehr390upw-2024-02-16-03-56-19,1171,,,images/schemes/movie_scheme/movie_2.png,0,
,,,,,image-button-response,9,106442,0.0-4.0-2.1,b7z5weehr390upw,b7z5weehr390upw-2024-02-16-03-56-19,null,,,[],null,
,,,,,image-button-response,10,110944,0.0-4.0-0.2,b7z5weehr390upw,b7z5weehr390upw-2024-02-16-03-56-19,null,,,images/schemes/movie_scheme/movie_3.png,null,
,,,,,image-button-response,11,112587,0.0-4.0-1.2,b7z5weehr390upw,b7z5weehr390upw-2024-02-16-03-56-19,1640,,,images/schemes/movie_scheme/movie_3.png,0,
,,,,,image-button-response,12,114389,0.0-4.0-2.2,b7z5weehr390upw,b7z5weehr390upw-2024-02-16-03-56-19,null,,,[],null,
,,,,,image-button-response,13,118892,0.0-4.0-0.3,b7z5weehr390upw,b7z5weehr390upw-2024-02-16-03-56-19,null,,,images/schemes/movie_scheme/movie_4.png,null,
,,,,,image-button-response,14,120199,0.0-4.0-1.3,b7z5weehr390upw,b7z5weehr390upw-2024-02-16-03-56-19,1304,,,images/schemes/movie_scheme/movie_4.png,0,
,,,,,image-button-response,15,122001,0.0-4.0-2.3,b7z5weehr390upw,b7z5weehr390upw-2024-02-16-03-56-19,null,,,[],null,
,,,,,instructions,16,142039,0.0-5.0,b7z5weehr390upw,b7z5weehr390upw-2024-02-16-03-56-19,20037,,"[{""page_index"":0,""viewing_time"":17933},{""page_index"":1,""viewing_time"":2103}]",,,
,,,,,html-audio-response,17,211482,0.0-6.0,b7z5weehr390upw,b7z5weehr390upw-2024-02-16-03-56-19,23692,,,"<span style=""color: red; font-size: 24px""> NOW RECORDING</span>
        <p>Please say out loud the list of the actions you saw. The actions can be said in any order.</p>",GkXfo59ChoEBQveBAULygQRC84EIQoKEd2VibUKHgQRChYECGFOAZwH/////////FUmpZpkq17GDD0JATYCGQ2hyb21lV0GGQ2hyb21lFlSua7+uvdeBAXPFhy8jXlO7FRiDgQKGhkFfT1BVU2Oik09wdXNIZWFkAQEAAIC7AAAAAADhjbWERzuAAJ+BAWJkgSAfQ7Z1Af/////////ngQCjRBmBAACA+4P+Mv8JfRJRTL3CAhJvJkmABBZmd7suft7Z61S5iCA/wVYAEsEDBg5Jb0MaMnKM2/4BK2xkOO/b28/7PCca0DQ80OM9cSy8b4brAQ4CVRN+u8gblwm+Rb+F7EZNhppiTyM2LNwTO3neymoaAcz2yw2kT/7NoIH/4XlNhiVxjz27xz1PmDtk8OiMQJbtH9ZAy6i9JU02tPJp2SIdfVgaZYJ0swF0ClwjNXBvnfVjcqX6I8MC25rJgH9X5dMqf/R1LsnrfD4cZB61zB5X+T9HCmHXHlqAAAAAAAAAABNQ3emdb4/xH0YozTPYi7+4yGNkoviZtVy+onz7ePzLp/11VEVG1OeieT9GC/DYzQBCjMnlDGEWLKOlNDFfGRxCT8DXtICbz2ZkjfmSkuqcvy+e2svxBg+DzLPdbBvj3bH2wUC3CXaYezZRIIk52F+4TWfXqvFzz3Pt5ePv3KTlL0F8EqLRKCBBRKpiq8vxAD2cl/J3w+jlP5PK/L/BuSP+D0VecbAPDl5iVExGVPRi0KOgxH6bpUnJH+FFYv2hVysYmc+fl6FullJZ0Xv8WNtb4IqRd0e5jhfjMoh5Acz0msTJZjlA2dLuE7AESeRJcFqel5Rby9PwG6nadFgp4jNq8tW3FL2Y9lpd+rAQLJdxg2/2N4xYc7rFEoSAeEG7gOFZLRV3qjAxoDB+88rGurjU+8MTtE5ztw2cfeByE/oaywV6DEJsmXHw0bQdsz91sZR4qwBO3Vv3L9mcEB8rtwWzD1lp2iRunItpo/koiH2O+BI8MYEclv9pveCKaYtMSSisYqlpQIvgdV4ieM09yfCPcIx6ZIteXs2D3M3g3vBbHfHat1WqWA9tUooq/v+shpQTjAt6VAQATUF3t49AdEQ9eCFlLDWmQEfpQCBjivILYOfhiKu1wz0qZwMcDo+H6xEU/iMdpsJ0o9xQw2UtotaQiqzhNuUA4gK5crb5o63VuhZjU38LTCHj+rePybWhfoSJllOrq3oIybgikhz3r5RumJr2AN5/wzuFlghjjIr2IOxQdhuTbZFTtZW7Lwb+qHTJxKwyRoN/IHILL2tWQ6edISBm37ndtxg0E2DMUKlCiWFxfB03xCn+zb4I4uXLcdPy0uLaIPiJWnFy+DUf/47nD53KwtIx6WHPsEBCYLd9SrfUZ3f3JJvUGsrb1Hm+D+VglpL7xcva2giKx8w7WxC7Pyi4eJwHoJnh9mzUFdmbTgZwb6u4KEyHK9BpMJZTO5m0zVj8kZ4eYCoHz5k+FwbgNdW/QULIvdkLmJnFO3ANhSE82K030KhBBsNN+pP80RKLYaDPQBLPBUhJxKKbiQyJal05c12oHulWo+G7dAGuS/i2WSL+M1kpnrC1nxkto/IFdERhjqIYoaNDgIEAPID7g/8K/AtaMZBeMCxKXUcLuFzN4DmQshNzqD9W7L+xll3Os7Hs/LZDPQHq/xpw0dPii/Yd0d2o0Ms2FD09B4YlI+necRJWj4QU1pExJxlk+v5XkOePfA6Z5RDMCdRfndbr6Vm/o/AsYSTJCE1PNs0ZmV7b4mT37sabjFoR5I551ZL/vUonQ3Tf176QuzwYJ+osKOrNf/oa9IgmifvJ8iZ8KWcGTLAh/SgypKlbnwF+SE1ZR+WNZ7HFtVYiclLIusLFmLS6gUPJUwmMcCLUDSc8GWYMItn5ILS2LMMvJciSnUN/g5cRu02Zhrud6fQLKqchQ0nW3HrF9SZdum5HLD73tEFeINPh9LwOZC7MZUaLuLl2L1xPyLB/hEqK3Sx+Sjf7WulUwwbp9IJ4zuWsWlwpKeFLMxR8saTjROt4ejc703L3/UckvC886Tfr0Ydw/k7MaQ7OTO+IJfMV5YMTs3cBoP9fJr2mnzY6n4XQfs63hqFUXzMBSg33vFpzYx3kYTIow5eW5E3rKyphUBJF+ReC645rfOTBX9RZT4zH3KZ7YUJErI5mViy6r6q1B/cZhftFcQqsj6uiHbX3yjdq07cmD9LRU3BV5XaAsnMlX7lN4HQ3eSnE/sAzprsyl3gg+6QIYznq/LyRB8n/X98/61mEYirjXIxng9dU3CJUAAuESisLVOu/aJb4RfMnHWovpoGsYGdV4QEcGzmehuRjScgzuGSTN4hb7xIjQ5bjHKZ+XOWbNZd6RIx2UTWZf6SxhF2Yv0Jf50fPMPdVFd0ZxhkCg1lCL7daIjpcdmKXoj5Q2lDGKrclYMYR78oaLogODL0YY/hRbvcZ37UbWlImz+VO3zTTomrEp9TR2ebrsHAdMOJvmpMGEkueZSvw0XogJC3mdL5bj4YMhu60f2vY51nd1F+sa2gNGxat574fnmdan+TAOHhRr/+maDMt+6j3mbxi0oxQyDAZjREoSU+BspDRJfWf3tVLIlsdkupA+URvvQsCLdagBfG28vZ/XLCL9VT8CS6eF5TD24KGfmSCWAI1fhsO5oUV+hxWsyCiAPqeopeKzLMV71dqFndD1q2dk0vrRqf9iSjTMa+toUczSlIyo3pMqKqhZPRq2IwoSfKe4hS1odCUstM6tRJ9ZbKeYgGXLrOZfmvVEAoj9u3NPCxwEUSR6cm23cjEf44Lo0PFgQB4gPuD/w/8EVp81SthOM4BdfGy9e9wRmcUPmZF75CPIr1eV5aW+uX5aX8yzl+HekvOM5z6IoIZrlsFfFqOXiQGvszOP+W9w5NP7iCmDk/wTEuU7fZKrY8jXwa4aJaQznG9FOCrJtZ1eCOzEKHWto/xH9IEFyuU+hfl1siKqZO/VlQeoqc7POURLbWh4POtxKqn7zks8baaC5mVgkv0NIAnhVfCnuhs2a5eOFSc5exPsBiMf3b1ySfaIFp6uiNEdr4HEuWWMD5GDCcbM0X+m4cHB0dczJSqdJ5CxKfHlR5DbGqad9s9HPRdia8i+df4sp4FRm+NlIrZ5Y2xD1wy6mmETO3F8GjfF9BF+6uGiL1uJTDcNavgxutMSDvT69UGXqAj32x1nSlZETuEFJhouPXmUVx2dOtjuq7NBvBBvEIU525AIFowBqJMNGMVBUdcdRSW5HjJwBzooEEy36c1ILr4I+kbv8EH5WZswBMroXQtDTx4yTxyjZ0NiWbAqMG2GsIt8Pbr1Pbzh5SzNr9KunL9eGoPPGfmdQTqdphl6L18hE61ngkxD9xGO7sh/FoeW9bv76fo0iPm96rqqfpFB1zUJ+SBLemHjIsJuAYIH7cnRrWVIte0QHl9Q6IwXkxitcCR0bUVzuYlRdNGB0HzMmb+plbrvheRmsGGRrOLL4OLxk2INTx9AizauXkzKgdq/7fQRu0cRW4TXJZ6aH+nbAH0z/SkzOZyN/CJj4CKCWLxsSg4gJ60ZEdBrAyMfUA1NbiuOZbjtY0LInPoQMaa0XG3JfI1XggAU7ntPvdvej+okKK0ICJx+7LtEU4zxjScYlaq+7thOYwVJHM8Q/C7sik6OlxVWkYfN01I+s/PAaICCSD/EmttX88uD+p4yNCHypTkaUHrfvtMZBkcXi4873DIF0eeJrpIkUaOmr+rh5VYN+lvNyq5iOhEuKuTNHQ+OOjkpaQM3q7s+a/D/9U2mXh9Iw27ZlVy6tAUOAH92foNWZS6HH2qZHYQFhiAQ3QGl95aF25E4s3moTOvZUE0Q0mhyLySSqIZCjyg0IGMzK4dLGlcW3bNpmev9L1UtSi4IKgcnRRGLCc8H8lRBrPMmmlzPdFHUtRAE/9a8VE5jxFpf52mF8hq+0MWBouXx4XHDWsdeMeh3W0nxE/dPn0TTbztbuIshS8g46h8fXOiCDvrkRkUnrRcjzmbUCFgH2W7PBXHcrL8hXlHly837RGFQjGER6LsEbjfNSz6LkU45rhXT7n0AmaoocS8e56vgRFyNQvzHuejQ8aBALSA+wNFAEWfhBD2OEhPpocg+VXQZOF0JIrGqiUeKaHOqtTeIlVcc44z8aTCdcHM69SbjlXOaaMu3hRmWI/9O6oVbVGtpfYh4NS72OzrPNc8GbJN/ODa0B2TNhWDtcDmZgEqj0+ynY6CbDLgiM/hZLp765umhqi+VxQT9SyG0+QGyzduiEJZhShnhZITSrW0J0rJ+BcFZzHJ33JKd/4mXmjbAjWQoNP9ILaquPXeo1Yv7wEBn3uN43QlvMneIknJ+Dc/fRrCVvNuiTjIdrwOvzWyO98Nb2Sac0VxmHT/RmfFuFNWzPFyJZEfTOngGtfc7K91c6Z+X7pHXmmmcty/WbxmKN61GRa5/BIkPZc+ftDxnemJPZKvs0IG2zTVqVC59fzd8c93hWTfHLQbFIBWY140+2SeeZEkiZK+wHcjOr9GOFRPOiNVslCQHZ24hFDh59nGWzdLD4PGZ9gGobbrj+hUTuH6j+ZUN8rArCFh35BKka3qnHLByGqs6HqONoOj2fxETr9RgF1Gd9ttkj8gNiEgL0UCLwjIVVYxMil6H2lFm0uIaeeRpdJJkxDddmY7kbZio8HGsx/20/hIgtrrEHnpwrUnYDqVkbLH0H3ImiV75hGKxj39+V1ZDCikvrZXncn1KA/Lo2HuZDU0ku1p729IdOKPL0qfOI9opg/eOMi/uJ/jDs3GkWgF3AJTZgPJnH04z4Rz4u8MkZlX3NOvl92r5Ywx2qjf0KSZP2bekCeOStCHhiE40HBqaZvCgqiyMXJMLiTtaFuTQmXRqjMJ5GL0TpzNyOVpFQJEI9Ii4+A4ycoWHthN8RUoW6i/YJsSwFwd+1o8HxHdxSvjaWqnvtxWgpGBXe+wYDmGJsOl10U/h84ibzLqnpIjtqhb+Yp8lRDIKU3SZkY+/BU+WblQY4JKfQYyat2vbN92CduzO/3/KqYkjkAxbpni/aSz7TCK7uuHIzIGP1d46mDiM0oyH3bpPVIOh0WsMpeJjMPBpH7oHxOKptU9mCzwAt+k+XYvAOgydU6Cy8dtEmKNhzkdPZYpME58PAc6mCgW8uuEky35lxAK6LrYhJ7qabFBpew0PWGbUSg8y2sMvjsmECQY7+9OXrGGGIMvAFZ0jw1EoDBPUWLlOoDEgdeQ7/Zp4mwIciRqTeBYgDhu7cBGqRMiJXGx0wM0EiOnzIFICaHN4zD5wOaazVl12cQ3bTBt2TtNd5gf271hMgHhAQEir6kchS+8jyGAgoxfyb5E9R/QQx9AIMeGAOVHFISr1safb6+26rweqvGjQ8aBAPCA+wNTr9tFE9SJlcmcwvcyW8oBkHypfsBBE83mn/0k2ZBGkMeB9gSxlh195cwFIgWyNwkzDBPq8OBZQ8dXyqQrO2HQ4N8abIOgUHR1PaTiBWzIBYSYLhwPtMO/m2yfFcr8og4Gze3RrGph4XSSUY/gOwnr31x+2aPQi+9aR4fv4L8BSFV01R+RZzclKGpY7l+XK43zOSmDaiqfx417FQhqPjj/b0Afovj9qhvQnVO/UqDGeC8NfE5qc7/RdRMsEl8Wp9XNe3DMd8mFUMxY3p6Axt0JUhFvwP7xu/LBHqzgaT35khBwC/C9JiglXevFTtNI3mIEf7QKEf4ePPdeN4ixNkla6cI9EW3xlQ/05jThnRNbevo0QomvaEkCUsZSScv7nacE1bVX+oxRZ/zRPSYZCun3JPtO9RPTG7+C65l8TGyqClO0izAFa7PwWGxcBDSwP/V5WbVYySxZvSIjHxtCu4EGFyrHEg/jIQL8x9GXJ711BgSd9XDdl6MmDciLwivuU3WrgFFOy/bowG26DJk9GVRrrVykagSWQnnCcCK+XzEBHe/VrTZDprKmZhHNr6ahc+jKhh4nLmhBEU7Kf3hmYw5qohMJ3WIHQiMKVrD6pm7wzaHofma1/qZ3ecoxGoMLVA+0ZC0dQJLwH9yhmjbh4+DEPGLXx64NehiIZVBUvOGIX+Ul0bj/OJuKTYhNcUekxDyEfkZAFSfYaWP6EOu+FVgFB3ZpK8piUS+aEXQ1H2XC+XDfCSM6cZPE893D25n2BJZA1x9pNDJebOS0fCG81Nz0kSxQZPv5NBBk1YahR+1Kx21ZuB1LagRRTcP8Y6T6zjFcCihdWqmLvnUzAjZ5/PZvWjLNu46xrTsAKOyw6AS/sykzcABuIoz8KkaKWgqbKVZf8b2BtKGRRhg/I0DuDiI2On5w0zzAIEk0crkpJ8sz95K6XaYdwR2u6IF5AKgiP/uSXrldV+9l9q5Q5o45Q0dNyMKwkZFR6LMYKPMkrOv9+tqBLQZ96LTpZUdVywTYHe36WOiC8/qHRsnQqvbeaMiNsFCBZWY//XInmD9Cvb+TbMU2k4cA71bdYuy3O1ZymxToufIHXSxZpyMs3YbLiFUB8sfcacUwWtDtZq1v9Pf3qIaeNBEQF3SW0dhFGvJvB2rLcIJktJwh8Ytpq3cVg3bzZYMUydviVmNVdUVWjaTi32IqBRrxmMOYf8fgNR40D0GpMqjQ324l2UE/6lwCkHhm8GPQBBFICrvqFy+uEr3LwkM5seBMUh10uU+kM4tcvdujQ8aBASyA+wNTwjcvRnIlGWqHOwrOgkJpEFKrAPgueB++IWn6WYiHA8/R+5kQVcaFnxqhYFBnkRDazKOvC80sqXAmN0aY9NrifpNdzGNkboMCJVV429zkt8TlXbGAcFpBX6Cs8FxFdUnfEY4jE0IaB0QegOQF8qAnIL9HRlnKNdtQ5kXbt3nSJELXtdaSfbA/Z+JuJ/El+R1u1oawrfq9DbWyooalq622CKG1qfR8mIrhK1Qbt3rah9EXkcdP9bKr3J/ucIXsUA8OWWqvQlqWH0007FwqBFbmlhpFTzngOmRinJuC4Z9Khw6FpAeGEOBUBB/HVRKRLXSsmB8siu/lyUCPH5fBA4dNZElfg+L+5cXDpSuq8ZDg7kGa3f/e8Pg1MUafFiDPkH+TPcEQO9HssoDyTCvVpjabrl5So2+/3K+SKZTr3hay+1p0DtcWJea7CzPjg3oElWGsjXom4lSKz4EQ7kOX24neikvG90kKzIFLHHTjR3FttmPpnCQHHJhMiWYgv6e2N55unOCzB/ECja+LbW4eNlHTv0GodIMTc11UIjAm808p5/gCmBlvNoVaBqYOoMIUc1wn0sCO58ug//Tntiwg2Nc8voERtFK4blJw7InA9JtYbPD5eODk2E/D0JBagzAhONMv3L5kEK2drHzpSDrHsrPSIAQdKkhcKm2+WsPjMKZ0sgKLLwVaDt63l90CVohqZlO+7j2LbNnrIInsaq8HzpYAbed16+q2x6tphBfCqNl2IZnn6k8GiR3JIUluViYAtTg9wRsHDtnhertpAYFxIEDbv7IRSGZhq7nwn5EaML3Pze3YNj6mYVLP2PXHmo9zdy63boCPS/eCLtPx8/zKh3mXU+SKPlEx5x4jl9+flQ79mjhN8Tfmmr+lSzKIageWaqFc45Hu/61+XiQrD4Ifj4cnMdZCD8TcyX/QveBsMFcdEN0VfVBMJZwkItWjD2DmFy7euZx0Q0wdNQWVylVVW2qn4MhgqnknpvaONx5ANehENqvkZ2Qzp89K69+4mfQEG9ypNUVJI2pZubreZMASY6zR85rjD1hVWaL5ky5rfAy+QpbrlmlozWAgz9Skd8m/Mi/M0CSegQNBeRqpx4NAm1UEwfsReX8ZblVlA/px4/J++Wb/4+eu09znAcDBm08Ax7yGGVXPMVI+YIKOGyXToPCb8LAj0YYLBEHh/5MoFwx2BJMH2U5oXN6liiXExoWUbdS3oo+zVZ4deAhul9sBACU7nDma8pIJkMrGuBvEuCrmnQAL5Wcn3k38deSQthU2FHijQ8aBAWiA+wNacYF34SgAVj/67RoHEQEi1P8ei2j+qLFcuvkhUskSVNkDkjpy2kQXtI0/VqgWdbV5yxF7XubfbCHeRRuonk30QbqtHdrRGh6I72dOwHYD5KiegKx83AosSfSB/7tXwbqblCEqIdWnsf4I7yq8xpyew1gopYf7s4ocUEmrBooYp9nEwvuwbYINTiDB4iDIiYKQXv1pRHiHhHREZDmRZwtso/wIMkjAAXX7c60QKEE95q7OWxOqePyV83ADJEa/MmAe4Ga98qjU7o/UH361XnJV4gpCgMyoZXMWA1yKsHY6g6E7imslvDGf5k5Iyg6zvhpI/i67acc8/ICaJDeGjPRkIZwj2lxEpP5MVvT6fFFB+C+Lcg3Qn6ElKePL3R9MuLd/nqkJbnErW2E8XvY91BdFygUl8BsvEsOR3IodwgjZ6lOvzmoxEhSjTGRS6OQHVnla3/W5kARYjcjd3txdnUSHpbEOafSaRlLOQpPJS7IBMBWxGiZCUWYeSpoIy3995vSCdLLmzBRxKCcUEJMbm0LSWWz1ZmK09TBty7sBCBSXscxgVMhZW6wThAkc7Le7G80F79QdNFuNh5XM8EbO+SqAiSduiFFDuaPQA+ipHVcUPv0QBnUaBaw8acTsGkZ5+4Tzn9XbCG+Ov/aRzdPBpJFjwJ+stbOMA5GJV/oKotrahcBsKYnfgmdIHwYsrLPEwzvCjatxfn738LSMdjl1MEe04Ra66FqF2JK84wAKFSnUs0PfJ7Ir6NJwCcefglVqgIDNirj/vwRr+QsUze2/+En6bo6lyw6VJejxMf+vTBUCqzlGPpoYxlwMIlzLhjbNISGfAx01gJJfPpTPtm3LxHD/Wm+HZOKGHTDmB0uxCgEwWDcJo0FZHVkystMUnmgnNuV6K09Exksqkr1gg1uF8jubmUwZuMYPUjbpJhWOJoNWR5d5XgsCCN6prpkW1oGSn81QDBTBSFqkKr8NQ0e7cl0Fltksvw7BEMEq6/33P9PWvKkopL8ZX8NiijUsKquAW2MbTb0sqL9OdQK21eWlszzHjYvz5qAFW3vUVZe61OQTp6HEUEaiWKKK/t7k+TsOk+eQS9wbByXRauzoDxiRdHIU2QF44+tWPx6ZYbhzIEDLc267m6Dxhlrdx5QWy10zcAbVgezwl5nL8/Rf0dNWC5a9jMHvl8qGVeH9YG47nD5Ozt83zLs21qK+wkI/leD7baL/uVzZ3gYRD5/FBL9CEjGrGcz1gy4uOEFTVboFOAKO9B63SPLsyyhAWwyUQ020K9GjQ8aBAaWA+wNbRbIpQsMGbRReLa0saq9Dy0iTJmZ8hmpz8KyZPOerTcf0kNO2+c9wd8T0Eplg8QQwg4MP0BoC9X+3Ksw9Ew8Pym5gF99rrv5m3Fux6O9zbyUi1ZffMr2G40TQhT+fov/7s3yQYKLbrLG5BHfsbWUmDs9jAcQGgagefE4kMY1g3CTe0yDntJftlmtyh64z06jhF12kdWrJ2cKw8p38ev+V3qTRmHaOTsAcUVajahMl1Zd7BI9oF/OLA+V/sKkgvBnyecYSTrelGQMNHmB1fk4+2sCPhZj7r/e7icuxYGDJqs2LrTe68SQiNO85W+Dn5wj1QPLzvOQCOOE/bRb+GUO9o+Jin5Yoinqf1S2IUusC88PPNALGBvE37GmOcXn4XJPsme+vYn5emU1OVWv1zDC/T1kYhDud/VSWEeXQNiyzbVJ1lfcAzP9C98zOnGJ6Nsx476DxYr/Qye2H0LUDzOj1R3WqgUUDTkGjRHkOb2lRVayRLmcL1kLJcK7WJXhrpZp+epxAVe9gEts5pC00DE0T/pMPLwafhkCHiOV8u7Ne+BSZE4YbHt8hjS9STfVcKP5fKbMau7Exjd2P/JxLCKPUlpMKUSVpHDnvNY/LGPV2RFOxKgoRteLsOLQF/0Yf5hF7MBDAQDTnffA8RnAWUAP6PFQgWVCqPI6J5ZHTLBgOugzoQqzW48xW15dcyEWQWLfPKl2uxwHT/R7I63l5YtdQejLukRghk5ZfBm5rrWNpMrBI9iyz4QYJkuB88Gfew8w4HJlE5NWCv53cUb/W07X46JPkfclCG+WWotzAIhbr4WD/XwzambUeMDttjN1oQok5AwooisEQwIHLhhyyo9ugU8J+9SPv4a9AJf5prSh3gCiSTVwxd8JXAXL+hdtL3kk4RpQGLsNpBwAl/mCtGZxiktu63I3fQzS7JhgDwjfQuYLWmwi8PU0Dy8MQyIfK3cPvXcFO+NKfGojFgxTBuKeXkEnlzEjdqI5TvAO2z7W+DObuVpUD30yxngg7w+S+bbKs3Njd2QRbExJ8IP3UivNBZJIRL7seDw4iQ/+D+6oiwp7vpHNNKYExJzhu5sG7zzIXQBAf9INSGoafGcu2awcGNEHehZk0OBzIsQrN8FcSyM9kv7MJs1nUI1PWwG/S+dnPPjiYFP4p6UKgljyOR7xOReZQgEw8jArRRrqzplHk3xUQSzJ6R7IKJf9kBqxUZs46kF+AyQnV9UcvswwP7PiD4/0My6h8hCGeNxPLJ/4I16/aP1+JVl8sk72SFEJPh9ejQ8aBAeGA+wNaRMt0xZGoY4kVmDwgmzHZAZlDra50nUHaRPecSv+wzfaUe+kT61+Ja69njJ/tbmfSixh03qLEj0kxvn+AxtGheHTb9D7tyR0m4/+gCY0BihIOCEyqmaXJqEt2WI59KQqZ7jGXRQktYTvFr1qkwIpPUSxhiCYuP+75y1cBdPRzcT3AYpoXBQN5d9bEsa7H/DrNmsncvKXWQzpm5SCPpwMqbj8DO2IDMGG6XuOcv2/hSEQYpi5QiZOtl6OSgtMDtlnoTGWANqcqrH54MeuVdiYLZT2Qh+cn9ec0SYa2QTL89lcso+rZUppQCOtfKlk+/CBG44bCoUt1mfhLk+jgUQhsqbdZjWhFSnIQlt6sluEB7GUy3ZqEveRvaBhl15sAQnsg0rcSCWMPYBhzuT25coOPpP2bofSevcOPuZ3B2DVZGFOtjbnldB5biSz82TWZuYM6izaWA9d6vn9HSZ1uzJE4lCsT3+J7T6NJZEfxj7AQcWe+qx/zxJrUTBbqxqpxdXdVvZVPHJXibMbfr8ilsAL9szHjMngSXPTSVLijEOFZYO8VTx4eC7NcnRMtOTsNzS1wpnjn+R0hTnx3ClxHOBzdoEB3HIZAzfBOLNCz1MjD4MhdR9qIJ7Sq/Eqr8kUKXmVzdF3hv5Vamh2oGy3gxNFfIhGH/7XjkMjjJM7GZQpqE3q50HbdmdEPuGQk4QAY6vyFJ8IKwxPPFxZHeOgiQ91m8HSRbkkbPj6qBQEUh+85DcoJGFaW8WiSTWILdiese1CMI3lBgEbEpeCML5NKWIV4zkdOfZ8YLWTYxUL40jqtUe0daQZGVQZuvonX/C94/WGgeY6SDzo2vzqwZmgzK5FsWzsSxBkLH3dpw/O5zJSF2tOuwbROaW9U5QP0faB/9XR3xFaXQv5X9/ZcKJgZvAmkqFNmnFmbSHclSX4Ks93/9UqDwL8Py+0hyFiQ4h52lbZ1vi9xKhnNMRGAmVSDq25+GqETVAZ4K6ELEnHqDdMAFwxrtz7kUrIgo9qqDNslwSV243cvMztaW5HJB6/o/gBOXGibEg4WyPbqyRNswwyQccyohtVPrz6w9jPGaA221/1RTJnsk35e+3wPA/slkRBRMgztXzZgE75ufOntePU4o4UG4Ce+LMWmVF3H60/6m/KLtHZ1rT2krcjtokQ7GnYd6LyEqbIJO5dOH5qhmT1BSPP/GT85dGqxqicERHEiDcBDt+wpIbEMglVCZ+MsBscpkmC65o+R/LernbpZ3i3Wd+FABZid/gi/oe52gWXlh7WjQ8aBAh2A+wNaQzsHv5YOxJkuv/BVxOwtd3HC0rY803R3opJPKiZlQWCmkxlNyNKHvSDW78gy5O3oC/LwdJHFVDDvPCqyRqikgumGd4QGDLU0HHr9zbosnqo4UNs1I3SMnFPhijmwZUIMrH1rSEAFSv7gQJ1KSX8/6+gZyf9YbiX3C/ZS9TXYB4tbcSWXVRPtWE+omF3L4w52wzdzZEy6ClJr5w/c8pqFCCK53Vq6FLQe+JOL3NJoAgD5ssAak6MFPiWkc2W4jQF47C2nkBf24fjd7Sl6xkfm+TsPwimDSoljI4j7LXovoCOUxe5RDgWEtknMndKJpVaSWVkIxPV4CnCq1uRKBKV/XxranuBeZSX16t8Qn+ig7iDj9LVlx0rsJTA8mU4LPYkES94APPtrhKbliwEoF5XJqCCKd5F6JTJz6nQbVeaQvmBOAryHG2CrOwem+DK7iF8Tt5Sqo8SO6DxhsfehziTV0Eum1LTRAEBLwRJtsDC+rkBHnnGMRXiOiCzp0EkQzoxbogsBM7V/ukmpM+wcXfOfBgSACtvUogUOXr71Mdp3ZVNpuadY+W0XiV3m6tSacL3GRsTdLb54ioO8ZF1cfZHR+9iScZDeM40hEj6kI8U4kb5jz27cHiErsYFRBjF2LlEuyXIovY7p5d+8snKMD1xYFQeVOirpfA1lySwTcJmLnZBoDcN4cw/jL7I8z/+Xd9TQHalAwnx98Dj5vQLlj0g2Ia2U3STbemG5zvftu8l0ftSNUSt2ApJuKxzxJMNyl5XTPX1PFRkDVHjFJ5ghxn61vJs5DN7z5nz4h/isHGdvXqdyWni/NhoQ+EjwyFJW3AKNr/jl8fWUrVy4yl1pcJiHW0Znbla/P5Asin/sT+9vXPsm62f1am4Y6VP+GoHRQpv5zieTAoOkdpbQjS0FyFDC7Fe76eHOMcjVxVzHynLA5CGeGNxFotNmg3U+cUC+Irhk9Jfebu0QM+XdTTqhiBZO8p3rcxT1UHmLWlz25CW6liaCEb90BqJFPlCN96E1CI8ThsyxtKCy3YW60/ufGRbQ3WBD+PqaMwELiHt2j6vdMlG9xgyJRrc8nqccIJP82SmhDziMIWgmjA/rtrX0nB+qDkV4LUBi08bycOHrab8dN07ZYrT6JQ3JNCZoc5bf98Eev1dDn0wRuojv5dwha03dZ8TQ13mw0sk1qAI45VBh4dQZDonGz32Auc87vQrSyKZUpIdMENwGgvcySFJR+F9/qi2LQfdpMmq8ZutToW6A+fLS6ahewEgxS+9BIZu7vGCjQ8aBAlmA+wNaJDqWpVuEGTHGzC2fG0ymzbh6RCo8qSYjReKy/SzPkVBnlEtOOZ+GPvmgEZjAMt1IIuBl3EjzCnAakDN+Q11unU2U2KPvx6q10EImnggv6xFIu3NHUvR3jGazIXyz30IevFaNoeH1tL8dGtoAeZzf1J+78xFjek6uMQGCu2PdP0Xtdz4r6CJgXwlQ7ZKWQA5CGAmnaoj1VsjIOcPD+rwwuMJY2REkXodG7VBJzmXLVlyksRy6szX9mOKwX8vYXe7HkmyTxuxNN2+Qb+0bX0Y+M3urQEMK716brbpsQ4piO+H9MdfeocqipVMbTSlwVXDoQI1UO7cOU5WsEFfr/qAMRzBYdNQCMe3LWUQONkpr4TUy1eSTEYXrKxJkpSh8IWmlkNA6IqmfTVaGg9g9+PasJjKt2jup5cHHIlJBDKaHrVox3i3aCN8OFqdAuCDhSOr5HMLCr0ExrvQd5MyboNLx2p8lU4SjJC3TAZ5lvnTk8xd0VO2+7bycEmagiKx1I4TLc//CEqyErLgtzFOw5tHXiALXyUvnBkEWsDsL0lNrNy5wr9l1A5HpZcV9bWkTr374nbBOVAHHYeT3/32r+yV4qpQgxSuu2qAlt2/fUe0uDm9cUB3bx8QfkBjx3T9ZXYzsIX3jFfUiFshSQv8ZGLrvAWNjldTYk/8WYzo8zpa7eP1QpnyzMrS16TxG0ynJ0ABnWeLHsIArq2YJxK7hEqSaSuskQHiME86/Uk1tm01f3WddbNDsTXY8Wtjtv2NmQAYFmCzzOFE+KpbBVU26g7A1do2sSVYLkIyKA9qeMUnk/LuU0iiHFNoMCg0bILmG1WlD5AOjLuTQUl/L6D8x6k4IWih39BFjMjSlBi7LkZzThD9419XW5OOzAgty0RrsALJHoFm9JkaYThy3eOE/Yt5vKD4tYJEE4XZfDlESqb+x7aSq1VydpcFnwgSN0VEUneF5QnCQG1bMZoOmLFRlIIU+5dMlL5t9OS8b9j1DEbk+KmqvDuHZd2eOcIA2BgbkOI7ygwTa4MaeYc+F+gcKuWnBCVyirxr3lpy6MESd6YW7AqnTf6Uz14TNnEeor+SWmgkYip2Kdeh+Gm8tx2/1VxgfV67XfWF/s5JoK9MHH2qtPmlQkaByBZeCuZ1y4wEw5K3ER5z6Pd6d40L0VOo3VIBh61Uell0h7DdlEg0JBahZTbGsObG0tnfx+5zgSyshpiin+vfVf5HWVr8gIiptDokPMis0iY+wAXc47ailQCe/uiy0LjCfQ0uvmD7R8x7Oe6GjQ8aBApWA+wNea1l7nCzoQWBjukurm76Gj9vnvDtxtQ4xP5EBuWXDkIFX9eeagL66Me5zQ+RjIgfon/Qm6Whuz+4uoXgkqCYinnSnMotzyELBUl9wM+dZVU2SJCqhwtEOwuK/HI++vlyMd161l6TGOuG6FOdy9/zAWfKEeIp7PZ5zoRZRSg3zvS5WKTnhWCSfogV5ecDNT/+CYhmjzSvCtN4lilReK2Cj2HP4J7V3Mwbrw/fS8NbKxfcpTVtK5qknKDU1aKPAN5RklPMIzF3z1A5tmnFiHQFCdNdVPueWWiRqJlZj2ZqCORRqVPawgbaefX6t9S0I970gikeeCBFrNvPjR6xmzLtBonmZAxW80JGxsuWcGFIlvGjXbjVs+fEuAU4LG/svDIJXqnvamW9Tbbh8J/i2YqSBaEEVZtjmdUNhrEh9/bKS7WBcBcyqV3GRI24qdfQwLzd9L2/EgMHl0qv0y6Bysl8zljm4KS7n7yzVbnaTSCDTMAM1TC0N8C5h3Y0MO2H2g1HTWI9E/+f4h8NcJeJY4BuYM8aNUwCnqrrB9tNZYOEwR6bVqcJivMFEwLWQLi8GXeGL8IRrhCKsgtgKrhkl9WmrLnNVT4yPpMgLPg2z5N3R8o5b1b71AEa+uDJ531cTinE+VJG12w9FLVD85e5QlBlUBT/LlcE0J6uvZ7mAcERioWHKl4R+9CVLX5GSZW5OnwgK2yWU0ipxQGc/8wCJleCZL4eP0QzRXJdMKWVGTP3QhgWsk8dh8aljhjjWS5ngTUc2hBJJOZh8M4swqeI3aVh8zlw+JecXY5TeS7A0mNU2dX2UXaDU+hYGjuzMYePHfeQMHRDwoRO0Qy7v7RKwAziXWora3RRh+oWTelav8tTzhRdY+Bmup5guPJIEx2vZx3vp8sbjFSXuhFEskQBykPKXqDrKs6IncKmganFq7ydfZG8yOM7Fj/5F/0KCbpyYHRCdxTDOzqB6NtDGS6tCoWGnhriYmpCnWMAFHpKMvIqLpB/P1u0xPsLnP3DP+Hq1MJwrUmteoBSwLwSOXShBNlbSli9JlU/Q4kqHVR+2PyN0vjZkE8vRyd1hphjY2IQzesHKr3mS5h6FMxpLuD9N8yy83Kjb17otsA9aE71hmEFtTyKkfe+22tK+MQNhvRjUAL5pwuRjSpD1MaCBknSZX6jbTXeWXXRHzTf0Rb6IF1wvmDLanZsdUuuGn72q99IWIjKnRgQAcz/nzYjGSXZSFWwWqVA6abVLmWSg3xVZIOhSHkPw/zJidiNAsPyi5ZdR7sWjQ8aBAtGA+wNadJWHzEQdQH4x+AcCLTPXItZb7oGxPE4jlw5c9G/pBPlLKbYNTXavutGoekJFyypEx83nCv8BNT5UazUMy17Y6UGwuupArPoVvFpqvdEYEAGNEEe/avjRAMiFHV1sBPjdi3JetoMOk0CrqqVOc2WxgwOkik1Z7D5YiyHu5CemYrzoulszMiDwV2oqGDiTVuLU8hKiPVsVNG+eFGE8d5/QvaGBqIJYu6HC39k5iLzXrBbFvzlDtZKSO0KvS/GB06hYJ8PcMEfPd+rw81Ey8J4AGSG/VFXQFMM/xyr2KT3CeVmrpMGCl0C1ZEx8fEzY9glrUVnTBQErsiNRaQQloJSpG30+E/K4afGwNy4W1wxxVU7cAxzK1oi0GiaBLH+ckK3aDvW5DcoWiHoj8fnamUh8Gvb/jpAgQkOg28wYpBQfigJgMxYJPnKpYnNk9CX4oxfEY0Qx0XjSl+VjztpJoQJBwIhWklyKfJIVOa9zbTiiXN3sg7aVrSsIm6xzzTP2Z8OdyaD/5t4eXHZr/+YMVkXD5VUcMnEvetTDOhBPZosfnCp9DO5+0r4cHVleH4MG15y0+CBZuBnD5olg+DEpEgp3IrFiHwUvmzjPoMGN7EMD8y3Banq3VJRRp434DjQE+modEgoADO49z/6/xYxOoVeerYzOqEWxC+GdOtykS3fYy3aPAi2URezYk/CPRAIl863Xv0cEzaiQxyKeCokcjAULSTkIAGnzgo0pkuF2BCzRHYkPbZUyIw/C2mxxVnZ9UuVDEte2Y20b5XUfuO6ez3ou2wExZP2Vyp4t8dh6Z7UMb70B6mkOjHKCwhMyNyIEzgvTPu2foL3XmSa07f4eI0wGUZISYlbWhXrYhe6eYTUlNyxzEtHeaNNYxZdqUjSnVmssDq45207gwuJbO77VjpX5umr0Hp7HRQEjB4AyLe0BIu9XLvf10Qkz5vm114pL9BKV8lWirA7XHTZGcW468fCGtjFuYD0N+j70UCRYlukyNBdSwMU+aV1RBPjdvWvOvBB2U28h7KqQUk6bfqn+VATby4ycBhW8pIhuaSb2UlTrINexwySw8Q2zhyssKOAa0XGtT8xBkCLW9T+s+k8THqsAVX1OJ2NlcZNs+5KtzZ8TWZWiC9NNJiYKMzxGxknilNPopyNky+yNVGx1o9GLZU1zTvf/LKOxsAMqFE6KIDhy+aIc1TPOzgwUbQs7NzdCtIgKhrAeHp2tf/9HpH+j/YUlz0JNQhqbftj6rGo+GWtLD9CBUsVFddh56k2AC1j80L+jQ8aBAw2A+wND5b6RWHA8+zYdnVYz7HKqSxwUOigb+LPBCmSpTrKVUE7cecCQl7WkYuNjcXCuOKA380/j3tC8WzNby8PgaZrPy8deVT2GafY6mZ80kzZDPhVHtfK/cqCOlu0FmKvLAHTWA7PivMVS/XsEmFniEvpFZWg16lWo+k3B3f3TmmWNI9fZ3Eficvj1TjRslhBO696tbh82VSsIPss6TJoTXakV3oCOyLViizolI0zERXUmAuxd0kzGxg01JATYW+YHD/5kUrq/LhITKL5DBQOEUU/KNOT6K68L62Th5P6EOnMDqRNj//POUNghiT5apyvbkLLkjvot8j9xXT03ZbVcKEk1xDVq00r3n0rEtHFp62BsdJbb3xdn+HUWMqRmJ4YLY8ivCWSKamEzAPIQAN741DdDVdzqibe09EFi+ahA94KCSVnUYZxWLILZAeccwCbD0LK7pAzgjjQ0ajTZhDuM9BTmSJsdONj7E4QOTgk6zv5daF0QKRx53UN04P7cl2ylnMTRn1Fyz5tPBfVmCQ3zK3lqBlcffng2URAFkRH9iouhWJ05fAn2YcPKmqFzWDaQBakrdhOQOWRkxkhxx9/JalklTzvP7LqoNqOo3E7A/g7dHDbXnJBFwksLvsywVkQx6o4DF/9ibPt4lbQB8bJ84+dcRRpJAZF+xVPIAQBcIg7zNA097L0O3wGTZDbq6xKs4Apy3QVQk2uAg+jTihXepidpTDfK49azsredl0xD4xgSI48ufLgylr+0dkqeJHBNFELKhpAA2tcDuPSKka2xz+du75s2omx6Dq5jsQjIVYr1c//WBKDIuNSjn8RV6KP1I5R9uZ9+2I5qZdlByu5dGfMKWnAyU5beelriiwT2GtLmzQvdz/vCL8ETX1s+Mr77pf94pXc4cLQuH00rD3XLdSvIw/rbkyQ0l7mqt4vfsVErIiDLrRWsq9fSN2THnPD5RBsNMwgMj7reBlD+hz0u1wUuPTquxMjjezZ08gNOATmuvexsegVrhTag5hRoX1yYfZgUT6Dbd+GpJ7gprNRpgty+Aro/qbSECW2Lxuw5V0W4+qJnUkpQOVir0vss5wz1bOMnz0gzGy0PfhiEmPkVf/xT07cKqPyX+TkKc2iueFq8dDvSCjuOuAYVyBk3w8KVk2CJ0gt0XvL3WP5xMKt6zktZFNrt5r3fbrncSuGL8XXwxtw79U7A53+2XABm6Fa9ZPtLtZ+oWVjeEeTN5FYZ6Yff6axaBn+/Moxh3C3xj97Y9f7aDOzE2fdi4/zU4qUCKcSjQ8aBA0qA+wNaTVLWV7R8d5cTx20szTHQ7utM4zu+Uz3u6TLMggqh9p8vHrwfzPWe4+VA5xf0wH5OeSOhTqBI7lqlBy9SzrHto2rUd1/NqEsT8xVxO4t1EOBBYlLThgw/F3wrqTBpBT8cbmtyLeBIFLaa8S7B6GhehO9oOf6ACPh8adA0H/+wKsP32NXzPVS1sTPI8ThEGEUW9e9aaFp+G8gHderNkNyZ/ISUQ6RhabrACCAwflwSLzY89EJmP2FbosfrjzSCIsMqqkwfhpoQNBnMLoV5dHkYfCwGu0ksB+5aSKrimLAD6fgF9fkThBFt0y/cEtvuu+l9jaEGQXzlM46nQFdUExNuumaLplSBJSAjApO83RQ3OzFRMysUKUDqcE+NhOQh8mR+TGmfyQ4HyQhLSTLfc6sDcfqSGsuSNdG1K/m/z25zvFoRgMozW/nihdpffVcx70RKEpCPeyYO4+4ygVjjCo+nr7zfy8dLICMTie8wqGUpXl256SrZEkLCc+HSG2nw9cT7bcYXGTrasngGq8vTvghb9pxl0uWKxkKwX8NeR7iz9dpj0Asa2IJmONXWw6m5Lyl1Wtau+IJIUXhvIm7EnNZjL06xGEj3UEhORWpgucgo94i2wUIbkYD3om3U1om4Am8v/q/TVJvPMKiCovbIlPMN8CJBiW0NBWGYyzd1EfFiRSsnDqgZMNGTqFdKqfQMYOEIfzsh83hXhnos27vVToh9Qc5jeMcph1BezhWl/8YNaJCus1S60YLDAHGhfqUNnerafRyWZq8mgWrYe34CI4uBAh6+2jhEMIuyNe8wUV3naKAQn4UBrCPatDS5job3V2BY5IZXuBnGVBRAzq7LCEmFWjTGIl+vmuudIesFxZK2C/JBxilnBz/FV/XNi5o9J6cg67w0HC+gsNTQGWkYFCQkCpVv7Y836Nr6z27Kg8yV0dadHZ2m8+m1o/vHti7s4z5/+h6pWJWs/QriliE87R0zGf6CfFwquIkWHYa6uv8DDBzy9FKXZB4fHQSk58BqXUdsf3S3/YUMBK37wIG5Pr9Qd26D2ZhwJHc/nlZcriVRXQS3TPY7qWZC9EimAy7IHfPfJ2uqAq9XuJwbSuAPOkhvfK5YAIEl+UIB1ZfeuWgnWzs6SJEXSUEDc4abz6lRY0ZgdKucin2POQ/0kp6pUu9XFyAv7mnMJ+13wIXe+EnWc0cYeO3VrXmuZLbkpWrkurDaQL9MbNVaYWLuKTXF4cWlOn+WqEF/goPv4B+vdWASpHmFUpyqwBxAot1FWM/3DhGjQ8aBA4aA+wNZWpHJQG5RhD8OSRzZFAB4jniUT3iol6JcaXkSDLjKnNDoymDBf7Ox3keRBUcgMZGdgwW9jp6QcCxwFdRL0cPsS9LbwU/ckkRrDcsNadm4vAgugf4z558iBmtVGRBMSfZv6zXw8Ja65B7S78nYqMS1A+8Tvp/XtsoHCq0HAkGyvis6Hp86hYAF+igNHQ5x5mtb/GdlACDdvUvEW/yvMjlFAoP38pXzesLLC3G2ft/kdkmJ86zFsAYEKv44bh2kfhSNsgdvUOMshdLZspo+coa9JzO7I6oWcs4MtembLvNZhQCejxWXb11Q9xyR719kz55pzdMHPHm9ioT9DCjPfMrv5rY9U7YCI+5jvvVPmGjgYy5NFLOj028IdL8NH7lV37eIR2YkW+drIKjbXEL+jFjvkUAXvYMAPMaQ/cW+34VT5FmJD6FQnGJKMtlgYH4KSyx+97csCUSodOvlA+1z3SmyeXfR10NeqdH5RmRAs5jcRWHQ6CAad0XZc6QdVlVDUuK54ahdcDwj/JbuuE2BPoPqqKnoA+KM+hPmtLZKmlRXac8CJ1a65ZbUyDXlUsxoBGmdhMn/COLAimJgP5OIZF5aCdSf/568Qdydcv896j/eO93Xpqw32ITXnqRN4INyHEHBsX8i7Yd4FBzzFsxSVfNyKVkFIou37snicrCf+vJH6iJcLW4Gi6ZXQjU4FEEvoJ2IqcV7sU1xIpWT4+1R6NHtxDm7ybVYGS04We/FJXWDulk9VqmaLPb89Pv9Aak2tpc4Ro2BFHA9N1+2WMDIyWj8mmcUU/OlPLHmfFTYZoO0jBmUiaYhwiGXMvbvt4E36Ool1oEr5w3V0sgRDmPXg9PSUlglRB3LBcSTwibMXWjkX/F5PaBStKlQTt6bDZtJ7LZSxHkJ/ejjlmD3kw930VFHI75S3Eomzwu2ijAkEOCPohKar/2oL0FcxYithpwMHPUgRcq8MJ7gyHnUkZyYhb/7kxCDVp4Ar5/1q9TFAjqQdW26rSkgjcU2pWtknG+l2x8T/aul9o+2TfDobn6OEA/p5b6Awab/PRC+QET0yKIqKoqwWcyqNFscjsx/PEhEXuc8E/4cMv5F/xq189dHnQpIs4AWgNBeWQQZpgSJiXAoR2RoJ/0dvERvpI0JvJ9W8tF8JNWgDhgL4NLC44May3PiC7ApMvc04JBnvlSZhLzO44X7PQlW1cF5n+cvFjwIPuMgy0/Dym4XvJUZtl8HL+JVXfyOUWA8c6FQGqHy79Za4sV9CarSxKzilh4M3w3angqjQ8aBA8KA+wNavWh3UlGuhcy1HgjvlbdiMW//xLNaJdP5V2VrcaSWpFSSVJjoNNrEJkNwvrZO1ZkQ5F9GCQFCITs4h+VBXh0+5iV0omJtQx1pM8ljY90d4QYVpt73uHGAY/velFDyE3oN42CRRuNwcQddgRS9miSk5LQOJe2tYiinuNSkX6Ais4vtxvyHkofc8KlZg74BN/JdF73RdBhTtC7zRt03x6UZLU46LOoVbfNdeyUlnwTAk0xOvzpn0+veLzPIN1GZB/bfafYTBXHjxF2t7IgMSkS319j80+xfPq2Jl4hKkwXJDIyXfYokWoaTl4TskW2+IQy7UxV1SIggZWumwMm9kP97ectgOyWTPLBROuGNdoD+5njKVYoFS1SuCN1PTzYAj3DLnA8S7Tb9SXysuDg/ogLOB82kJ/PW2Hr6bt2rfbGIT1DZkzOsv68TQyb0bIdh9pCFZUxY2kt4tYbgE7m7si41Ayl5o7txNUMpY+rJ0sueyKhHq61EzUL8PY7vQvoTTLfTlJgrMIIFA7+j60bxwlZso+mxuoGjVJ75JUnj7AMDdpfR8+5QSaBUjnz0gQDXo/dch/9P5Y+wgw/DDnpV3EGg2M6Uok2bbYh3U9OREFhZFDTxFGiTgeJ+VJfson2y6GLfrSuMZYgD/sHdFzh4PSGQJCUuTFe6bbcy1QSmvHtF2tWf/FNEz7O9ntH1eXnnhNlxXKbNbmk/enDez/RuT9xuNDt3z11eGhSfLVg0RaoBkSPntzYMNF5NYKoS1X6IGUVCOV/n53e7/fpDroPczcBOXRzzfHGdigEECFj1vRR5VnCwa9GOoEP5xcFWhmyvgZcik2tCmFPdLwj8/Gt+8pIlU5l7MVmwr1XsCpMj0uVG3G5zuA1XjcNQp7/de2N0H0YDfmcHh/EzUUjF7+WddtTcKR7Z/Xf+8F6M93+pMqdxUkDmrpACaibN4cyCzlwBkOWpZz9KISHU6cOWkj8difZJGk1K1Mx17QDaqAiJ54d/EBwfERD4BzjjQIsINyat6KQemMrZq6Zdka7SKUkuoDxpfxF2YuPw2NbwvZQVDrpnQyqnzZkZzQWyDqBDn3H9JfhoK934bCjEx+al8XhCID0MGzbjJTilkocJOQz5WrCwWal13lr+7vILwY9IQbYSSr3VfmQbYJqH3IFje9iFfOvUuvadOZIxlioibyNboGrbrCfLRMGPZg7I+/hPRLr7NsP7dDGg+SEWZn6l5hCaIbX1S1i/il86w2lUMPvCfF5yGZX/f55WEsxZQmSmqZ1chdajQ8aBA/6A+wM+B9Jf+rFUDZ64jhO/aGCLOkKhSf9LTcTlqOTDayo+LnnHjlyLiFlFT7NAxfm32S/PAgf8NQAYPQ32gPy0ZPg+Q7Ln9PA8JTK7w5lRkb7zVIQBo0HbPJE/DV/sFMjtwUm1WAnQwzqR82CmTXiAmcC6PZl3nfT2eyTXk7MLhAXVmXaN8pCWg2Pg3nV3697G5Mp7po4buh04dbQhTyiUCpOzx0kqzbgLNN7KQbsEUCmpxPJPC3IK3tZez1WCGqjpxgwL/X0sIrWHTFs9r8pgzPBoVtRIOclFWTWlIdCs6lTpm9vpWA4j0xcg7rPKAPR24tusZEC8yavS+3kTcuppT9Afcg15QaBjjUs/SJ4gq4k6lTm0XImuk9N+3nVmSyXMROaKFkaEfxPurpg4qMwHn3aOgJXekXuMs8egpcrymsXKYloVGERsrWJSsLnch0hCWpJAmCncXfV92IY/nCsiBY39eUTU/bCd1F92saQobhGdRnTMECzgzCVzNrIPYHPArytjr51NKXXzc10oza+ybitGrhVLsmEDwHx4J8qEyzITvePBGgxVH/np1g2r09OoKuLITNUzu80g8AAkb9O3f0TkZeY5jbbZ61WFVPUxfYYWWLUNXU3abYFLYyYrsKyVbMD/gtflZHMGTDXkpY8z4hIUOHXEb5AUOzNKsduX30AA6wFoqrGv3jgv0w4L2x9JArjtVC3rxXFMsjwMn8pxwUZ0P+0Dn3AH+d5HHzPKcQ5UpDFdUThJS3njUiDyLAFz8+41IC4xsA8I8f8m7q0HVz+WG3KPkVMQPVDL08DjSYq6EtKzwVuv0oPOB696A436wquJfdWOCCiaNMl9PNGx6IQnWr86nFBhdLGWBic86gjf4TFqsDp288hL70JG0of3r7pLShVO/Rd9BvFKHVQqb5ubcGLDD9sBdN+WuIlkRcINsvIAgTb68TpCOC9IdLxvkdFVg/rwQMtdN1CxnPVRh+iE6lEYpAf8qFohiFIC7nXT/g4iYT7JqsUE9o3b16NaugQk8zPfSpT4bSoK55aw8pWOF5WpFcszeRG++jhE7l62dW1nE8cZ3tvQQ+PAUJY+ZK2FEuv2Y8heBNDXuJAHOjX+99AuWubHXhjazYesWxHV4FD5NIYS7GgebSuHyjSmwIw+XLcllEtxp1VIYT97VqiU1sDyfVIwPlHr9uvm5Hg0QSsFGT5QU9vjZQVdYJ232wr/oL2JjzXK7PXwJcLqB7rb6V94byFE1W4RpfrSLU/TZzCuX6Xa1lQrHRXNVjSWHnOjRPCBBDqA+4P8Ef88T9xmJmW50GIU+OVbv+63ASIRkG6bF75oFytdTinsV8gYSwFGgQmhtvndczbsijJucs9NAvQVLzO5eULstRzFgVhmENkhWkMCfwSl2JWmEa2dT/hNZLEmXSm3xHcd7lmgOQorVigAVs/L4TXPuEKJZ7pQuGVXRiivFfucc4WZQfKYoXSN2q9SLBaVcMNzdPH35x7ZqfeERIDKH9XBb9GN4F7okROSOC2Z9d9DIOQHLEIg74aBY/FsuuzEwIycxy4P3+Zke+tiR7BDP1Qxy6BQj4rFLLfGyXTgT+UnqbRVuNTmcsSyYFi+qK7k8uFU1WZBiyAQ27iMURd1VTDlUXlIzIw9xKsvrUfO/k34wyGDawk5oHR03F/wPqUWcAWu1cYlmCwjV1cceYk1nmNz0HiS9hCp4GVQ9whjNMjHUZ76vAlxUGZzulvIufUCIiE1H8sW1CkrbIyoJ4c9SuJ69gudSLV71W0x3XNYg4BsRivGoOy6cfFr3E76FKyeKZO+LLwilLv/Ud2luZybdoxIGAe8h34i9I2O3cC2xrwrDLp8MTVBJMvah7hY0HkgVAnRbycAkMGqnh3B+4iz8KvH9afG0h8ZQnXkRbHHs1IgKWP0FBXqpBpMOrNU9UT27zHVONIxavC2Fzcn5zoPsQB3/tSphQBOmSMlECWMIwJi+DNhhXqoQPpfi1zeRT/memThAoEjGtAWKWvYCfPCTS9LueEw6ah4OKiG22m7EkQedxBjrOB2JXb0mifQ9rnJEY0agOZDX3GGlVf7wxszXteKsUlDNz8o845XBmZevQumuEcYzT9sD2/ZQmXeUV6SHGanJTV8+hj3eZQaogQvSVIHy2Hm7KAnjok1/SaNPgwxFBUwvxn5dqGOJRTgN3Qo8fGVUQYQdKaiwGdA4S9cCDSLxigeQ+PtxaGlPQ9gwqXjwhSXJiXjW9wIhM4q5jb84J03y7b0OH489Y5cpQ0L3IJu2STFYiutQn6ZKQz+AvMeKasuyx63Ff3Snwn0sNRJ+oFML/HgqFAcga5lzb39AtBKmYu3Mb94rxFPZYhxxPdYEqgkFgRkVkPWsR/EdL0TSf/eOaJ5Y48XUn67fCyYLc6vI5buc3qMSKhu0OyGJtYJBvoFJ2s6LnYrmLE6Qh390ulJIpRBmbDklihSMducURURavf4xfihKsN9FY0ahQ/BW7l5YNmHU7gzIjVnPa/6AZ8LbrM8bp9Fq/WaK/ns5c78zc762rSyyq46GNa/bJHKvsjZx+if3xkPAGkOzHelTRdREHtoqXR10fmeld/s6bNwxqis1h5JSPpu1Bjy1/Qo+zLl+u1GuSzSilnmnj0fjyPVOJzkQnVZEqM8ZmmC1cuniN5H/U5U47hVw79/xsJyOWCiP6sWYxT3MZQ/47A/y0sMXbZhRTwGkGsR5fmFLr1DqZhg8x2Un5nZbi99eXf7yylJwDVuLeHaB66LUodo2h0mfwoyOYjDkUQFhNkOpGBhBeMop++c0nl/43wAGTzSkEv/e8jiRGxq4LujSyjbWwXZtGITA3KiNrZ+rFuPtA8POIUhLUd88wH80giytdeDQDs3VM6Eg3ZqUNh09/fRRTyNJs41HPn+dYII0RluV64cNaFmH4uZgvFph2ljjqAJNTkQQfg6WhtWJ0gz8MVNTFFJp5pfvn72EP5Co0OkgQR2gPuD/Q7+DVmfJwyXm31jXe80l6BVOykI0+ewjNtRBUvpi9Q96Jr6SK3/NaAamzqyto9tWVoxW/xeU5Vdr3rbQ60JFF/uJyO86KBO4btsTtrrCbwSBhfW5p8VauZY7v/SpkOzRO3mUWOQQQFfX/2SsD2zzFS1fXCoARfZMPHHYVKfyNholcHgVALwWGN2tf0xWqUfutrJJWQsAfXm6greqGi1EEBtJrpNGQxZC1f+P78Cxq1WHK0koLC7Tgrqt/5gUiU2kTVmT+PgWboyCldAbHEnAWzcubf/bVNYX3/IjuFqk72UTPcNvdJj8caG+ZkQKdVSLHVzlxoq/qcxfPUsaIjTuAE/S+Ld9bFHCbG4gAA4AM2Akbt7HWdIzQs4hRY4lU1wPGwuV8Y+B/FZgupxUTIDX0gYwX6myKzxKxQSwhiHCEHJALxpNS2S+oSSH8Qput0E0hvDct6OIzXydNBSjtYl9ooYBZoQdy0c9ypdOpHN58Ka+MRYNdXggxqMw/JjSoBNNqjboTMXxNF9bNNNFP9HS2HjF+aWrdekW++BAwRpZmM3eqTkhw80WIjmNUmMFGGIW/3L3nezAL5WrlN3Tt4mjngEYHRpHYTU4HyGx5+BZ72UNy/N5To2uOU0i29OI8kSIHPp0nxUlJfIoB2SRIDG1pghn28AlWPGICKYZvhDMj6JJw8L8ySizmjweqfRiWOxuP7aAzKaV64BrCFapWWnlzYzACCAJnFs4UDdb3fxrvXDlAG/oPfbtcf7IezU7UlSeFikCgB50FKK881WMwsubm3+u31aq8f+rDWXiaitIr2i0mbLQsxUrKYdQVBDL6STBcTHbgL97dJ4zNOTWq3lO9xg84F1mfFORB93QCZZwlhPk+sQl5OEA1pqlKRF8c3LRW7gkokFrE0aCJPHv/ISaynG/3LE7D9NWjaaFiBIcJnbMa2wsteYhBK/h4m3wJUQNbbqku9Y9ZGjv40iZ0/Aqdfso7xQIC/G+LLtEH8yYpQT7b1jZ/i7TFVli4zsczjEa0fMXQlr8VzWyUGsjyIX1jmLwvschJjgyaOv31F7JF9gjroj/xwUrqZnEut0gl4WnpAFiShEsQu7Yt3xDrO01jsPtbA+9KzTivJHGxJ/2orXe7lAh/S8irXL4Hs45XZur1TPAaA31Nt/K0Ol/SOg43yKfOwx2tdIRaKcyFS1Rv9rY7tZ83ZIcGfGFkQ7GpIq6qdLu8tHh5W9fPev3byjQ6iBBLOA+4P/Df8OUQGvh/IIzWb15ri5/hJaKlx7GNZu5gXzTj35D57C045vyRXnGx4F3z2PqBuiAMhFcOybN/ybS37K/myMMUrrlJ6PanVXSSKykiTP0yV19m7IPDFoOKf+d3SiY/NdvbQgqL6ljqpOcmSX/4zSUngxfRJN5BN7FyOYbUOoetIdcP5OpZQx/PO6oP5+TbpELJbvZh6XujJO+gUVNM29G1odW8PHTUCTrT66uMCD6ukGqvI8YJTl4vebrVFkfmLVy8PKeFWipPh4+W1IINXC4tTZAkvRsgw/f9GoAvVc383YddpVqkKFgJtdKgobp4vttWPwemzbW5Pe78r23dEciUke0rT/0j5Rvrbk4mouP/pW9Ab6s74RynEPqhtpjcAO4K/s+G/KNuRcf2fnyouXXIoAOwsunlBbrGIbttbtJkNUZbiH+BlaItftURv1N/mTgx1bhrABwqcuqDU0+VCFBRm1e4+YC0c4iCf5DIeLg7KUBhqxHUQXpsOf8Yzds46rgSO5IRI2Jr5qEj4V8Tg7GX/6Svd9iAo77O4nwTZTsul448f5NcpfDX3CeqBW/g7dJd1Jh95vxScWh13JHmhEV02OfAo4YcaSiFOQGNxlQgj0wtrLkxmrr/qAqZOqxSgUNxZRSvk9qGXBa+o3lXMq/jkI+LBDPOuG9QQIg7SQ5XHs0x+sfYeLMocNTExyWvGAL7fQgU2gaM4EbsDlo3v3drllEbLPGXw+y1arN/HaGF+orNHdnqWsVqqaymyXt+2K29BPMZpexWf4YrECz7LK8c6xvYlJA7kt177mCCoef1csW0T+2EgwpspOOkreWhY3px4J4g940OFSck58pi+2zGqfB/khGsO4Gm4ghXEA1gmuKxdQFoISsuVTv5ScYgYHbzPCs8zFYItOr2HFvyM77DWD/NSSv69t78RF/Ly6z/cYcTHnSjOSnrvEAuc43I4P5ysF16QjIcsmZS5doQm74Kzr1ulw/QqWNwIDGi9Ak/6ihyQ7ln6VejR0V2FeudW8JNgTs7q6XyQbWnv3zBU/jJFf7jHGYEdbSEI2XXvyNleZlc1IWHSCo0A/LQoioamZ5rD7FhgUx4t9cU8jD2DKErCyxIuRHB0SSCB8pXyJNRCrh/CcxpdfjP7yJeNYHcRbXtp3JVvOFATf0mqkY01ylYfQzvtKv2o3LE2g8XrasL7rcOytMPfGTPXTErI84GWEL3mTsjYkgNQry2QUWKVN8pejQ7CBBO6A+4P9Dv4PQIzKQlodbAn6MUQfbcU/U2CzWORck+29O3SHgbGTDtgCqwM7Xni/E9bafhVzOBCKX1GXnjVZfPK3GJ54KeXwRRZhvo8XO7bXpEFfn2/tc7ALYUddFLJ9K1AjD16TGIQ1nnsDQOC7AeHvrm7aLxvppNXvmt4QVExgagEgTWOCWhr2Du5IScnvpY9kHwuL+qzaruY91WN2tW79gYbRMtL45B7//n5aB76DE6K48LiqMTaLz8zzpso3NRDywCOGm36LmyujN0UkNIaNaUNG2ijMttJwek8uGlA8gU03NUV2OZ/y1tCZJ0ECUW2HgzVjgzRtyehHElYmH4kMmaPVZcexZTE1+waWJZUehuCGn7xcTqZZQg78o1ap6qu0/qAbh0YvgoLukdJaJ610lBRl0Y1MNVo+z+LYUEQOIZ6gk6hBDqRXaudR9DDX2NnCf9PKqJhwxRvkmR5k89iMj/KanTDBtCw7iAakoavp636SvvU5eGeJUgUT0MHUE2X27xD6qH3NJYY3rjtGhagGXzlv4ru4+upbUi4z5mqP8UgTKrUWWaL/HuD23g284KZPXuHtOtOFZfvXBHuR7ZO3VOIPLtk1p/V7OUpCFRK8A/6l3zaIiosFqjvZvQR2JmrvbE4UHPc2LFOfsmMTOAADvZ8IzWsXZZMHGRVVOVPRsrE0JXu2+EW+GOi+Entphky34sD/xev4YlbQlUDgAtNAa+7dCH800ICpwmrjPpUpXey03wE5zppo5OvdujvMvrn6coH98ve8ddnSTIvy6QX1PpPhMLxCJeLgjmr83MnyLxIbBm2aoeK3HJ9T8FRRmSKSzeAbCylR1z43nitO/bvKnSRJ3IlecJq/TUmUukT954xBRG0gmh2ClWOuPUiIR3COAeWm6RLaqz2Q2LaE9meQPLXYpJWkYRfTv6lmRAkPXpX+WRnmElZl8z4zlW0GogsISxxq/1jD7p32gsPci/0qId8t4vXeFm9eLwjyaSCdMCNyVAjM1Qx75l8wQI2AsaMGb7hA6v6/4xppB0CLBuIIslY/1uuoxkYYALaXoZS8E5DZPUbW5arv/NTlVGgpYo6Sg5KKcI/WbNa6AzyuHVKcnVgfjCOXgNIePrA5QAXYlrWkj6RO5fArZwcpEGfYOmZ68h8HDunuualYACKCcG/nDKD4d9KeMcl+NSFqgJ0hKNhUX6n9nFpdrWWcFENxj6XbpmbdHSHmagfen+01b9XdF3AoKXDS2Q6ENtIvgqNDqoEFK4D7g/8O/Q5Z/Oi35aPWF7Tt7tIbEvlKECw1tt63XrIoMQn/mBL93ivszhP/PjRqfSM6llQbHYkGne0NmKAM9M/zL/S/w+Yfusbou/+bvLs/B6nzFlCYncZVRf9nhEQBRnChOSz09I8ULGPWN7QrGWxQj1BreHi6IDF51uePVB7fPuYjeCkAoLAtbdyUk+GIICkgk1aozYJyTg530BZY9LIjfkPt2wL3jEORq+XPd/TaJACe9Lt8tbygIthrUI58Z3DeaueM2/z4XmGKAGz98cZLF6tYQGL2SQ6Nt2JxaIVreznG956ui/FhVSrg5lzRPf58uFxjaC+IYvaHoGQIz27s1ANwyM35BcGnSx4XiR5NUM8WZk1x2MomVv8tHYhzvB2y7TX5CJArHCTd1gpZCPGXyjhVnGdclrdpu1rypT1xhKs2kVjSmSsvLZmw4ZV2GDly/Ati13mE6jMqE4vVXiJDw1qBWD7J4TroSaKsZ2MmKKgG3vJw3BAIvNyvQSnV+rkWzu8EVBBR/Kf1M/sWBJWnPyAet53rNBxrzVY7NFRnGlU0sWue0jk/Ow8ffwPxgoER0WysXDqPuhPoZJKHREeCsxcgP6+xk5UEuRJWKiWIo7Lv9bNglXEnNzSfbmHH6klW73+/XK7iFjAdr7szqHSMwlwChoYnLYHD8r1aVVWOQlR49DRzv3PEnN4dydtSpM8JDcDhWOMW0uXQ88AG63a70BRN6drfu5BwxWp3sK7LAaRKRA/VDyGccAjq7vSDSjVDX8raAITWf9BMPGMiJDZXK8bW0YNJDxFKlCM57K2MFYZ5y0O09bE8DYK498kbO9TfZlJFTN59DexTj07EyKgf4tSeo81Ihx+jnM1TSiGa2fY4JCcR+fgRLDAMWvWzuoAY0UmgTOgYhHjUE21Rszxd7rrSEaIf3zdpx7q3j1mcb+ty0WAw0qQgX1zHNeFZDvd85g2BiSFdTVYq2NikZq0U3zfEYuy3RijIIVU5RxqWcLyOwcLFi/vmghwuaZpbcgcXKa4UJaGJ7H22dG7slm241BQjWHJksgoKKQgAn8YYDiEwxYbjKwCNA4FizbcFw8zYGR+ZZB+iVVCDwGdBM61wZHUmcSrFvnRoaLBmbudVVgvkTtIuby/iZ9RE8Ux7w7TGKg0LhffjU8yw2D8b21SnGlVRoB2Aia/JITKbZvCocbZdzJses7AAjyN/wZtIKkZFRKLgfBdXEt2wuWpwOhgSTSjdDDQzo0OWgQVngPuD/Q3/C1OwsMi5QrcDLmxDD1n3m3mzsSPfgoHUGgXCuE+Pzb8YgHVK/XP4yE3SSjSE2TnTeEH1l8xdo/nOtOr26ZreRHJ4NiL0p6A4YOkw5lqu3oGOgJaVxBBBoPgdXM6EUQscQvX12xRHVsaRgRWp/tBekVecRG4uI9oXguRXtanlwYURL2BXle9c+2I+xIVhHZcBT/vnsrsDkCPw3mLc7FSLvO14xcCbiEmxxqf08R5kPdM2Q3J5NmewfzGVRh9uS8pjS+/h6v/FV/SprfqFzxYjmZebZ81rLil7IIGS/6nY+YS4y566hN9uu01gX8ueoOTCLFTzmmFk1SU9gBrmezwjJrgCCDZrUcdiZL/PZTi5Y5VStH2goJ9kcfy1+sasj1jpkZFxS+PwdU1OPrkcxlp0sNzDWnSFGETExlxuKRGV69faxZZV6Mx2J1wQMgpPyCJqPUi/gaqQsq11dB7gSAw0RUWgwJVxEuznXKuWDmnecVnkUOdSZ7BwLKeFcKftBp0ONlKBnzL/btNITys0CLzKoCZbF8OpqhMbe5OgxMn+F9LDtqVy9yjVfVuY586pcueWUethqdqMhnasokzP1S1z9iHUqxHRhZPCFVD4dVqsepDww4R1M/Uzcyoul2FaXjJjUU+WcCQ/6ytFe+sybLzKjMWpiBMd3AgN7wD6eSbJaMbhAbHrf48whYEYNhBD9+RbdRjktok4RrM2aZLBwbGFs59/4hnFu1r8HY0Z82uzbvRLPPdfm0nBBvWCsWaW2pI7D/rX2JQrZNNPJt5nrTX/KSm0ndTmcP0VnDOht0xaejHXTXDBwU0hGv3Jv6RxG3+dqtg869x7P/9N7BcmMko6r17y8zIlvc1/QkGIIxPY4nVyJ+W/zYM0PgD/n1Ro4muMMF4sMKLXgAJlI42x39auf3Y6yLKt/VSa77xI7ZHaVp2ps26W8AFRoy3SbK3boWOuUa1tSOGn0yJwvo7YkifvoAv0bS+bvfsII3pOQlCw+BFrMJhcbIjSiTELKxTUoylOmSa8KDDFSyAYxKd6fEcuvI+hYHhcwCYwi3olMrr1Wa+0GrstjHUKtrZWHcVBJkMVaKp2/GAfvorCzPwQS/Z3PQPBp8f6/7NRVJNZbNy4c/oVmMZr1ZdvFstfhQNNRETSZvgjEXsdYfj7sBlSazXrIgj9RTpY+i5nDPR4jWpzupwQ6khup8cDPGS4+wB/o0OMgQWjgPuD/Az8C13XoE7AO9WgLJHHMdEUFI5BvFnCyVKwV/0D3mIKWiMXHPjwtrtNm56aCi3mkOksAoNTxQqiO0gJBnd4NYGX9ANK3onBrEvp+lbrUAdndERT0X9ZSClDUPiIIP8lAfzRZGBuOxDzyOp4thdFR5uVKwbrUogKrqBgQMlvq+/6iwZYOSiWqgXGpoIpTV5Fkim8VcitbQHKcgRfFrtf8o4gMw+0xCiNAMrb/DaQuwYAeYh8RllTmTe98w6zft0TPmdu7NOYKYXctYgJdVCuYXfWq/VR6yBL0U51Z8c9GGmN+0n4cOK4UNr2CBorkhBah1Gglr441Gas9S36eg3BIxPZJfSaGHbLZFEBrqpl0vJ/KTyEglcAaEWSPHwBfmz4jWNp3XtqsatCBP0Z+QgRJloo/0rveVL/tpyIUbWtcTYUqOVl/KP7iq/8aiOQD/QorViYRpaFZmCOhIY/vJgdq8kOFMXZVWUhOY1+2QNRH4jKJJKPIrXGIGAqIrOWQ8QAgwVCs13oWJ5hHIOmkh+NGrlPVGhJZF5NsLXZ/mt0Wn7uQ5uAsLw3eZ+TNY5UVYjAkCPXzB7NnRMDgCZ0A/DwYpTA/8tU6qu7wnuUSj0xCY2Nt7g3d4Lt2moYUiERl3pJ+Wz56KzNl/7MlvI7kKBTUWzI7uKGTouaNlaiZpMZkdHAE5+aVjty65YVYdi/2CkdC9Ty3/3bDQLpwLshyP9vbnAhnMm2TeQCPrswdcFmes/dpSsmkfA+cswbu0P/ky8QIo7R/jj6nLNdz7VaZgbixKxnjgHa4t88U6x140JGqJZHLUKmwOjvzz1p/aP1I8l8Ab3RGkwSGoU8ZKcTWsPPbJN/3uN95ZfG7WBJAsZIVq3Xf9seLCQrT4CU8QGd8NAC7pbR1Wlwsom/gFsueiyJ64oFiSJmaQAklXTu3gvBjrtvYEFk53sldUZ0AtAFA5d9Uy7pFso0Z3VK+bmS6iLc5eHEr6vOaWcNP0fhaPHlGE5tzCSsArMqrzsCEG22ox7bmsW1gGsOcScB29RB/1sDZnlud/FHAwgOKr15VHwQrsr+7qA6wGOAOuzjsNQ2pt/0n8UvOWhWApuymP5nSjXiw7yJ1V0VW0PhZUtBpGMoOiIpGAlTozrKRi+ciFHhtRW9Sfsos7lGK4cbHQFzOUzLK9F1tE44tYyz1wSeGZXTrDjuWHs2opujQ5iBBd+A+4P/C/8LW0XlO8xy/kYAMKkwFlA3caO+Rk1cyYqgz5Ck7JloAwwtSidFhUmPJxPQxM32BylQnhZAmIZ/TXnVJKEXiX7TGA7WTGB13EAW4086p5Qjl82,
MK9C/zkTL0XiCy8bfik431I96oxGfk4JzmyMQL5pQKr4CbdRLBJdNuEQfCRJpzKoLEwF33ESMY//luN13vkl6s9BRum9gk4J7ej/UbGWM7VnFK5a8aGvJzhpPsTQuIMtqREKg/jrgAcB/F9KlUwWCKo5JESoQ3SMucpPs3OGr7Nyup0JmHZj54LJR6MDgbNFUYA6CcD9iROAIYyV0eFzU7ovh2FlJenE6g3loYJRU3sEewPwqUDGQfQODQ+Me02uBvBUiGpjz8pWQN9dbUD+1uo2DxED01yBbXtRgZdmcJPddlSVW8iePKJYZSNuGAfNI7/ub4JIebeYtJ7hsm6YD6s3e6L5iZbr95vbL5Mg1f6x/6OCV7YyIFSratlz+CtChi2wwPg33JmfSsupYNYQ9YpNrpKn62QMGmXvDv+0+2iyE82wVykFPcVPRcOAHOTHU/9ugqLO/AEWEZm9Rnbuae9Arav0Kl30OwEDEpFs8ZTzeag7c9FVexLksUlHENnsH/vDBjalUc75/tzNULuNIbBK8dfTTRe35lmYkrsPcl7aw1YZskDiEYvCJDWFsDB9CxQBkOylXjpF7HDQ7Mbbw7vn996dctwIuq7djkTFO5OsbP81Qvp8XjNAhpwtH1yBBs+WChGjrCJVYeDJ2hrenT9v7sLan1AAWNpOVVVgeQfShcy6sFJU2EHqiqIlUBdgpGvcqKg4O+jup0KQDask+VO3x7Zng7knmAlKBVMAEBiFn/LKkVfDMq23ZJFmCquzL/WLjGyZcEjoTPcjvBJltUzj5sxa2rtODUV00EQDdWQKfr8eAuR+Iaj+aqNMtzMpoyN2m+nBK9gueiPWbFAWDACAgzChGUMSc6rqDlEkpP35gOWb9e8GvuNClSWDkVo/LUgVysqDfNoz4bGcAQ1pBa0zkdMmXin56UytLnhqAAQ4qfcdWROVWpbqsmmV/MlWkcywwGca4w1hOSZXJmfFudB1OXceFpVwImURvYG90fxvCvZtuwCzh8D9JAi6IqiDpGB81MPNzScgbC27LBlaMIIa1DaHBgVSEYHOq4nuRnCPRtVNT3sF+PFjQ5ZamvsTiexxk512WMaQKpb2CqNDxoEGG4D7A1GRoUc3O5IN1uBOKelOj8134sUI5SLq4xFmborlc3BvwiiK5kkJLcOl19jk2gNNvgod4eAJ4cekOev4wivtLvJ3jssdgveChJglyZ+Z/qf7s/DhbQN/DhzDvXmaM5AiQYk4gIJ+q6O5mseWWpS6HHtFALUPx1uMw1IfWc4ZPUOEIVC8n2OdayujmDzT+JFVMguIduP3TZ7bxOVtOgWr8FiIexP0WTOBoDqaR6oUfQd4TN439h4MjkikQv+Hpkk3blCOBqD4UcunLu57NMvoOKlKmGJx7DQUTTi64m2EaZtN5Cd2Qpm+v29YhsO4X9wKy8dVs0043Y799o0M6H1jXS1mylLKdGcfwfB5fN1cA6IblylHh42UCE4buKKBYZDAHE9tweuiOoZWy9DuxhQqBo8ygAwTRpRq5Lau8cS23UNTQIAr2M5y7ul+uKv63cq+hhE/X/dhC7AI13YcF4olgvXmU7pWZVVh63sgGWgd2LWTJ68eIUI8kcfdFjZTcVNqqVyyxLxtlaSiZWtzojXN1oMBbkOjnJIiH/n8xYGjUtNOqMfIKY9te92R1FfNxPvDy69VINulM65xbZSJtZznyp2YHNyPfvyValRegCD4EpcVqMRdK/qm1Dm8NPcdf58LJt2KaBzRCUCf8qTL2b2u7FDwWeS2s2vgeDMlAS99qAsth4cWOvrrzRcDgLbTo2Fkf6g+JWrBHaYQUUq+FSPsYHyNIePBtMTPUrqPlQovHL/0JOR4Ik0ZvFRdbd61LOMeJJ/jLXlZhm19BqZX6zSYvIFKLVf/HnHoF4tEM5k0NpaUySZiMavxetDP36owVdAkbU0mWEShuN/S14PmDVwMA1PYMgng+Zs4hY1uHta66olg1zeAyTwBas6LL1IYfzkfalQMKN7OoGo0yNywUkcsmPvWqcxcfTuyPu9LG7RZMvm2gr9JWfA9V9U9QsRLRAQFhJbBxZATNxdRNIvsuqRTnPzKWhVXYxgYeYzwRofYX5eDRKaACXjogFFUCwu7RgbgirWEsHzlHfny/P/7YJNSFE0LjEkFipa3T6i8p/GwEnZXpvGn0ND9203TVQhRYwpRGW93n9zRQIBO/o49mpCFLnrUdYByCwkLUiU0cX53g74Fsg0Ei4xcVFrlf6Dpfk7FLhl1hhG6SaLFJ3kHIRcrx385oNXzU2NrtZUxxeJtyf7cPqUPKWvhj5pYja0gBEA2uLhYENIaTPulaSFc2B6vfHKEasZzBbbZI5kyZN1bxx0s6Xy/tskLHhRtsqANSx+CE6NDxoEGV4D7A1BZS5z9I+AWzX3NEKj9t3uSa+STPLpMHH3QZA/j4/AlcpDc83lfOEPrmztWFlizmxb6z1cvqb92+XPXe2crn1VZV6cWQgr8KlEnS037nflQ2ek0aTKyXHz+hvanGXXCgOI0x8G4d7ko//Q/d1b9ZMzQ1LGkNL6genNv92WCqlLJgCsSMH097ZogSawbonyBj8kFlYmU88PyXD75/5qSYPtZlaxHriZIYzE6TNsOXcjyVIbPAdCdOQgGiJBhzzuQDy52i/5pbc+wq1DCW+jd3DVhf0RZf8NVRvJ3+moGIfEieTTU5t0MiUfASkegYs95qkiCpDINseMUIeMWo1NJsy3cdOWxanY65qWSNMZM2dSYCAGAM79QsMVZK1/ARdYPskk7vLlm1WGAAjiwPD2KkXgrrWVjA4tCdgr+UMFq3ozXP04H3Pn6vAiPJKStBqBP4vrum9vapZJCQVLOIz5QPmeW1VnvOeUPb0n83s9OUmRCHBzQQ7pbRgL/jGTupXIpJbur3iMYUNIGEPzEfoXY1XV/hcGz6DdJJHRyIS+0Wccy7CmSfZ68nyhPe1LvhLtZH+m3pZBX5BtZYZ4ktCNdl5/auDVuRHSKFvUO7KvR00U1ak70ouHISgvwEaGLDPvZSU4GOcCnBiKxgncg9KqsCNwHsP8qNVuPqF76u90GGnUMfuUaDN7ujI2VSRz2hf4D8lIb4cJFI65yp0ULKDupBrhs8YkmE+1Ik2/WEAbv3j2gsyaVZmSZ1a63P3lScMrmH6vXCqvAvDxCPd18nroZl/QZ6uqx76SlB0jiI8tv39fUxuxHIalQxFqlvEWZdxvx7CtVfUTg2BPk1gKyD3/zh7FZ4DIRMtGjwtrR44iOUndhR5A5KCerKOfvlMXV0TRESWyIx2PTKgOzpD+hOoshMizYqEnR/v4Ph2TcrUPxWQ6vkAP53fUar7YKjtxWovUtZ0jZk+VfSy1mkGmsazwR5L4LTO8E8zcH+Z2gi7lNUHSrV0trUJ7UzsVmX+Uk2h2IatlTlfEAxqweOaH5WE5PPiQnW2HL12cJ8SC+uARdDrtIRaW6CPY3bcGUJNKQ0bUxgSVRDWFqGJKG6HehuAl1SNm/N4dLuS6xa1V+5XnhOLSPBNV2AfEDvrTGEbluQMF0racaEHAl9FPcTr4Od7GULZNWZmdZJpSLqmcLcodDZiE1Rj19QSFhdB19wZO7jyKmeYKzqZai6XV+F7FH4O8ibuqy8GTtyDvf20jLR/vI3KyxgEuvjrXzR9S3XY/4CBMYJ6NEhYEGlID7g/83/xt+xUq3lMXbAbchn5yt0CK40dgCNrgrR/LSHGV36XE2xH7WLpJ9EZotS2I8Urq/Kq9pLyx4eFQOa6o2SGxbKMkqqoSNecTY0Fq2tw6UWIW9kYzYR4Bih05wjOckWUnPoIaukEhf8KjwFTLcEHNNAnTtSm2tiKWL6z+RFeBmeqY3SbK6NoHK7gQ/+OnMiF09ePzFY308sLwREqsSgGxstzEgMo8VZ+JciCzTKTWf84ADKlw4dn2L7c8PPlupcZauWI8w0b/AG9aZ8OoA/o8frApWcJdoRguLb8dsJCmR8MahFJKWofYeUWn1SbxxQab/cvQ5iLU9wBD37Vxr9ZGSlakUFwaEeuQ5PTTyOE0YBx8fTAPu2FfqTWza3TY6AcT7N1CGOSxISRm6GqqzbIJzi264xtvZXGNPULU7IqUzz2EOcpEsa2i5hwagvo/iFvuM8A9cQGianTmNStMP7O76Sh+VGhLv02gvPznTdX58hCCLvRwKtAq03j4PQqcCdFxLotc6hfD+80O2mK0W+cOBnUSnXX8qqi1s5Sj5UtLVajt8n11ta+2YKQPyx7KAdNh8EaYnjKU2F15O9uJ4H79TgMcd1cVgESh38pIVRgcgSywe7wZReBG7frByRBYASPJ2sVi6S0bpEAtcN+CnwdYt4MS/0nbSz0x2OqJSbeagG+iQJcYW21+78xR3I/s4IBUrHea1sMh5rAHkIzBbP3ILfddGSD4+x+fHbVZoXCR48E7E2Aj5v8CPrlynrWSw/2HRaLdHLQyvDav+dSLNU4CGF80EDspCuqOHwijMuxJi1CgKMc+n0LYeOI7vNaaWyMrRRZI356dO4djhPl+uWYjFxs6hLAqFvDE1UOqRtLLsGs3EyFogu0ntN/yp4xvM/MntxhjZ77SzttITRyk2xQcf9Gs7q8IcvruvNp9s0B+V35MRiVWAo8/n+odIk+ivszRObOxyz1/PUvKK8RQvMe2+lvIotFm4/0vPaRtsk8Rfk1nKysU+FUnfNfvP4GIy2R/Ag9N4sZs/8E/TCgsWFPVblzjz3CMrY4URiIKgq/ioVYeGxjredyG0Uk4m688qvnN7lynQxIJtG8/6VMYILvzLFSpcdQv+jCiaSJrEA8TJykqA7FT6HoecoRu8MTyzQYjcFFumL2/N7Kawf7s5GeP14zjfCpMi8kOz5cuuuslrLNwLRhBza9JQAEyq0o6K5L4h84e8kIgUH4rPTSTJFZO6kEj8JbPUjO+s6Yjgi/iU/zeH1cp2eiCI5f4PZNxDxXj/yZ7Sjj6R+nTPafx37Jc0hUnznyMDTtOgDDeimrLLqqP2Yyyr9KoF/jnPyukw723bpSlkug7EN1bV0PAoVKlCggTPzNztoWkY0yZFqrb9pmDZDWT6ojnHu+mewgtNIk3+kSSjPqkvynwU+eqPY7IVUk0Jt0GTeCi9aCadnBlHvQwRcF9ZS3duyNlRecKprBVBCG5as/0UAeq3vRgHhxaZfngn0DQBWMMlNVe6VA8/qTVvFPMThWBz6yvM1R5co0PCgQbQgPuD/A/+EMMslnFkgV9Gjr3fe8YHtf1xtmFBuGrlExlQCPHbU0I+Niv/nTaBZAT/GteuFXyeelcqP1uxmzZ7V4kUmjK1+unbVRLC5AMF0iiiz7Pe3EfH+uzDpVX17RV5p8riXVaHyLDDLVxXURf/uogHNXEXh8ICCe0ODx8DnMX3O0wLWoCJgS719MzQSqveqcXMcJV+CpRejtX4OHnlXJ8w807kUBk6XocWkAe4LlYx0IdS3u+oK/YFYji/NWtKXq90Tuw8JMEV60XbTPNv8GSSLgFB+nrSuZT8K8hUoAoSFlnHqvZbYgS7WXAzEDm2pptmpOQiiJt92VWt+oegcaBRNxWIQIPYFJPqlR3uBQp5N/1D0zu0Ojy99NVAh/zRiXYg0CKfqTe/ChSWp/hp0zp3Gr+Dqfu3deBbbegKacXCa8k1swxNT97QvyxEUi32nxkxImnrAa46skNd6Iy6jSWE+WyNW83++Cl0FbkZZliTP5w9CyUswdgghTOnMPcfN1+h2Uxw2hqJJuanAl2fd7YRQrjKE7X4Vblh0saGzbsSWsYxgAeBib5txMXLIJ6OsJ6pkryATO77Llo7+E/uYgJeepQ08UVlHqfcKoPr0PMtN89gtq3nohx/wTTX8UQsqQCQpQDFYl5V4JQu99TAEVlXvtfzU+iPgvos95t2dMf95HlevW9YZmtZ2vpDta/IbyQ2RwnAhknM78BJwQkXof6O9D3uyg0qezJEcJWxf9zaX8RSmanBJCftZWNh7A6OeMPIcTxLT6XnAFMmgZgfnpfjKi3te/n+FsVNQepwvX9XytNrDfrDiesfyGySStXZXlqPVPA6to3GLKauY8YdBRt/RVR409jnmrb+LxgPjILdEjFcNu0dVB4kEkeDLm5Isu7fe9r3zHlIM/cYlsS3LAmtwTfUfW3tGQ6yHUJF+AwZgWHU4EZqpYyxLCZmyNfCuRctzolnPvqoyc/8TcTV6rI0P88552hXPvogsh36gTX4u3x3EFdvrMqkE8SPnciuXpA/s1Zo2LuvbG+XHdSOZovVUyDBw6eigI40ImNN+4xuZSERV+HMB7YYgQfAM+tuQ7cgvv8w0ckkG+1ra429SB9cCYESNOEpG4fvjFsojPjBxEw7fVWR2hPqQK/RtNtYBDw98O8FvUElCrF0tdpZ6MNadv8qVxRLCfP1UkDD36d77FYdES8Gf+HmTacm2O7/Evgo3kU/narx7O04aZV+VG8UhwLjAZ6mvmusgOcrZc2q9oTvzt9EGayWq1HOjl+jQ7qBBwyA+4P+D/8PwNS67WwIOliIC4UXZJgYsh1KgMF83Y3k9Me3D0g4MH7qmk+w8wlXRIKRIqtkxp0Cb7rTLeFzcyKf/5SBuJpVMckDoQnYNeH7AXNog8fba4FityFAK9zxH4uxTbfVgimqDOuDFmieITgaFILWGPEWJ3+nhOl1c8FGNT79PuU3yvFQh2MHCDXLrtvzUcFthXYsHwfiUakicOKLSL9bZi1hjqOsrqJ7fsEMQgDjTbHehTT11nzdcmsdRuUa5fc0VkFQ+sV1UfMPvXjUAvbBo4Npt8SZuXNSmHOGLR1uD9x+IrKZgf8Xlp/PxLDEVStwYbBL8TnXnEFoZCrL4kBuwIwZiQdcmN8cDh+JBs0oNA9O+q9vYPbkEAKRlXWKriXuMJ/kRo3ZtEjnYolPtXM+CV3uwZzKRKGysapK3lzDBMOZJfvt4skBObHRykL0ZtQITNZhB8s0OXl2n+rlIYw2OfqmggdsOv9O6NhYY//ZWSuIiwy7Me/5Yo3wN8hH8xjYCGy888Fus+2KHJkITF8+4Yk+YMj3Gr74P0x4sGnAuuuxI2wKoKBAXukcaINnNjBmWBkS029C2mhNcBZmLXEamY69mXCFNXZQ/66jHiqHh9wDuOBQWyExrQfTQ7zDmFC6+mYc78PDhrR35GJ0zVL3WmAnaA5nr17dHpdJDbgzTAmxSKWNxb9X9dKeGS5O3l+qIQ7E/OF3SiosBYGAQ5O4rfwRtpoqZNDV7R5Wr2RgQjJQl2fT/ZqwvNPQeNixXj9KQLaUAH8YdW3UXHBP6gsfknZYYKJdp8TlHdhKUwKXqkifT2YNHrnKocPaYybOB+DF4Yf40CTjilPEVz3ir/n/h495JcmWGqAyIOCoG91Zc2WW6TsDtFbtjxle95xBbMkFJMGLhTwS39WBFMXxEzF6CmqZM4LLbhgzX87M/PMbs4czIBI2dyRfaza67nHzosLr72id4CB2rH3M4iLeIBist7/3VVN0UoqHvhBYiPQIwPHzLH56yBbegNpayr6e68bAA1amTUrkIjA6JwQu5af4wB+LJvc5IBytIK9HEZXcpLhC0ROsxcA8O1DSiwsQNAGDOXvIUNmSbenUiuz+tpn8TmXFDBTmW0gK9a8q7xvBuw8V/zlF/1kTCRI3odPLwhJnk5CoXi99Sa5xCnqB18X3RUTRYc1jAFSIZQV0fuNYIYOda8bafTUAU5IbuzMFTg69koeF8ZzJ5iBz+yu1diPkdzGr6/HdL9Zs/63cKSD8KU6Q2UajQ7GBB0iA+wMPAQIbu+sqlHAWWMi2FTbe8X7OgaW7DwDcJyapKSzs3vQNKfOuvbjP1U1JWTqGQIJuTOG9Q348zP0XPl6038aTTOI/PNkIa84fcJdQhu+3MKOd4Ljel57KWKc/9/pNuIcthuiP1VQB1g0s+EtWroamZjU+xmNIrDSq8qsE17ja4FycokWXwhs3ayDckjaQpGOgr4mlNjxrtoBp7KsGjBGGzDl3aDBvRZecLDFirVxrXrLrGvML81X1q1lM2jmI5qrmF/TDVHKHn/hgwUYoLngG4bhPl4HYB25icsOlHicAXPqvX3xgdrc2qGJHdm6OTaAZXHMggLekt39qHvELVCe313//D4q+98VDqO2u/msDj/Y8lD86/hfN1G1sK0NQZ7DkAycqBDkNRkAezaXQ2P3x/I3ZNTUPlhR71jE94XUc7l1Rff21KeeG60E0OSk6Hpjf9kogJx0iGSjhtINcpDVtxCzDQIyyJa5kznsFgiq1clSSH5+Ald8XICgEvJpe4teiJ2SBRTuzRFInpW3Kwzg042xAWIIMfJ0C2/vrez1v6OYTKdtYC70rnRk1ybjmj4hbbrtyrCBIwK5ssbwpYAoGWw9XGFAogoqPqJPj0XLdU4qv6iMb8xwZiMyemgwfpzUhMCVfYIF+LFDuzxcU6l/VrVhQJqWlVCiuClKV0LfNIdbpjKFckb0XWh7riMOYIA0sAVe+kVTRpkycyUmS1Fa61HwiLWhUUPrcCTbMfuCWpHJJy8pV5uQcGjUI19620X1bRiz9pIFWhEqCL7Mtcha2QIKmtoukHYY6v+qw37fktPYfYXML6vMB301dhlNoX8sqbdhQg8k9FMUhlecuxWMmg2qN90Q+INFVOGWModH/ws0XDMhmePAaDnlTyh8TTbpcZymtK/0SDdT7078tjvH5YxbzfsK9Dms1WbHtwo92li8W6iRGUS2NPYryqz5xAeAZ0jMXwZrEQPaTQj4ZKFWgMIb7vhu6MKjSLUlR8QMcChYc9cX1Pa59w1pwfFkhMzGod/C4laxGzouVm+SAUEi+fIKBkx8zvCp3lKWGMPZSKkMMKjSWeqMompdFMrKC64Lj0tAcgKg0NcmAjrcnbOxNGjREKSTVV77eA6LaLH3GflAZjVLnFso8iCyGfaU/pLzepH8Itezbk18XZx5kf4vkQdntB9jrpsgMfBOMsonilaNlS2GyQ8odCltjy6m1EHUYnqkzhHo/eI2fWL/uaSi61VqK1CA0SSX5SlOjQ7aBB4SA+4P+D/4P1lMuNw5TzlhMOeGvetAano0AdiPhSAC0t6SLX6Mn409wtGHB7CgP3TiCqQCblS9mSVltc5M9CcNUM5LIBfO9Ysgc9QmcgSrDLfr9agPDJyF/3yM//vxZnIcMAyoRuyvenQtxs8dImxqYaVUQYpE0kybhgJKdzHhxiajJw5knHs3P8RDlRw2VMOxZKV1DFrMsupn6UbITXTDh7CRXw37Hss5X2Ub5sLLA4Dw7w0Eaf+6YME54qm/hzKZ3uwIzOXvJuzDg6sbRbR5SQSE3K+RiOKGtOIJ10f0sH+kFE0DLA4dCJl27/S1GpFmfjUtDaHy3ljouF82tOXFv5BcfSWCAl1hNM0c2MphmwMFBmWsjuY7eDp2V4A3/9UL9dPEgkL48Vamj0YBvimt/MQL7sbefCKlGnCf+hW3XHEvWUtFzog/sWFO7327rLVlRgoMX28WOxgNigrM9l+t+7yob6b4zVt+AFwumzOYmePScN7sBMC7NFjiIGe+pPLnH8B0edPdZQA5FOV50VBZdIfvOYCxVbvXZm4dxJchf6YFbH6Tl62ep5Qqj/cJTj11bs0dskadqJwwFTyZix5EQ6mkadAOX1LxHHeB02VH0pH5ouPN0lBrTGldpHIw/YtWUpDVIPpL3EL3u51IUq/4XH4TuUTlufzYBtFF5MuiakRwL81FWILxkRxQaqgVU7jKBklPndbTm9qvCVjxxA2cq+qjcqGfso1QnxTLhIBTOBI6zkgVpir7jO5hBosBdAKX9MgUy3X3vNwsBxLUKLTyB8OPx6Gqiw+DVTTGIYiy1Aw+pogQwY58apox8DMzJoqPwi8LTdlxkJbekQsDqKye4Y7o3yilLpF3vo3+JfIJVXTVfHQANEkjZXg8/zqU7UPQIkMoo314j7asdogFBSDvXEZZS0AC0FsERFfLnJlykqZDh5Bm17Ecf7LcR+QC18uVLr38BNNVwEZJvw2oHyaOZNfEiUrRkvEtKX8r8qKMHRxLDvZeRjEiIBZB0vopXQ5lmta20wHNsVvAZjsPA/Ah8Ci0xHvlDNOcCFdmPfYzkv9m8sCnE7Hbq7PM3U739h7AKXpgzfHjnAICebuVq8VykdflGtUYBQT4YKuRSZeC+1leJFN8DtILxi08kRtun/O+qQA5jputmjbUmUNMeAiAacnN8Cnht1kDQT7YBmVEYpehodnNThXTEVLx+bnkklGZoTjhFH3xHeJfXBANwQxVYLQi2HFG0FklwMpVsfzNmepwRoKNDuoEHwID7g/4P/w/FtecpNtEpu84Ay9GthYcCOnKgBcEmWlD0v7rJngKBW+I8JNDpmOn/06B69xyXT24Pj/ecCkYzuT3nfNdL34TWeBLOjzS2i+ibmh2lFX/bAZOgOztWRDTAstY92qTv8yyjKTbij7gD3PPuhe4COTr+VaAjuA4Dofi8pcVFsMS9t9P/QZuJsL5e0v7tZdsyhpNhX1Fgrs+IZZdF7g8/p3aD2gMUx7kvalEx8hchqRGw+xmnQfxNugZux+U1HLDYaVtGgOTS74udywkb1tlYsEF3RM24P1iqhv0bkxfndIsFaFCwTOGSpIrx3jM9MY8PZlnRSjkKNUG0c8G1SYRnwnDe3mwBzGYfy1KGbKmnTxuHtBj7orQluCiHnIAfl0SSm1jIV8vGw6yfQJ663ixzpyZtHvcvnkqrKq1+GMWyUbdFXW4/wHg5z6XvLPujPfs5lc4U8aSnZYkvTjWhs9elcaM8DvRDfs4wWbODJyeOPD6jzdrhRKzRi1GCXnzK9ttw8vza6IGNR6sFSt1xDR+NLQDE5EgPhhwvfazLzVkbTU56TtMQHopw1sNxpOXcYWk1Hg+9ZYWyXmoTK0H7GU8bId0Us05xZePZEsSDUCS2b/Pir+/lNaXrLZLSdUrelF+eQ40mJgjyg9tEqHuYJeT3QYFlSGcrE52zbsHGysN+XiPzmBPfghYjEJ3YVFHoYHTlqwmHA8ZdOJuaIqvQEOS6/owOf3pauf1Qrkyrbq/2Oppjo9QAH+4mam57Jiu3egk046ifsg4Asw+KwTzWb08zZ/NVeUNn5kGAd6X00BT2NFTo3nuO10Wy81w9D1E8DveOUBW/XWs6F8D1hzPTRCgPrTa+kudwH9dX+3g23CNU8mQUAsp8qZWMFnypUbc6MDYAIc+nwVJcrAQfXqvKshjhHLQHNu5nV/FR1NIy+qfVFEoVuOnyhWgI6WCRaB+PKjj9dsDSe+YIe0aO7AsKr28pLDhE6gbSMi2V2BpE/2tle/Vzbpn29zWA09z9Px2NyQG+B/W0Q3JkueS/qvj406ttaot/m/4cSQGoHdjYq8RtOTmTu/Mp7NLC6HtOqQ18fNxZp0ARtyR7/CJyJiVoqv19vbP7uBnr7iH22vfISrzrnGGc9olSCoJtAVVxbTKcYOlyvs4eWIJe0bmva7mXDj6ybL9JQF6v5q3kQXUSI+sFntS2JgxwjXYnQlAyPqxbcJPvCoX/c6+3rlB/SiCRr8hmUK/oYjW2HWt1H3nQkZTl4gAGE6NDz4EH/ID7g/4R/RHCh6W/XsSErbnyLY3SW2MQVUxe5lDcLSQbCJAlf3vjPOBvPrxk8aiTp2LqVzecZ0l6i6g07FrsdRGAMzPxN6umDt4JFJQKRioVO0WeeEPQFZsMqfkRxNnQIgyjGhO38KJZxGMP2v7LiK9pkaG6yE1mHp56z8Q8DlFPuzRtrJopt3+ZrI7nQc6jsPPWUOFWahTE51qhWotXtreetQgfjw1/ewu1KJTU8xkHEvJr+bwyw3zxk1xbLgcwQOGr9qORLTcS/DnVgiUf2aslURX4EwiLQLPx1NRBcHvRebJvwE+oAQFI18IL+wJJRoPNWzVcqXp0vwNWrRtBNb2+ivE7+83+rcDoorvHc99Muvj1oGnGeuLfQWUZwz2SCmKr+t1Rl9wXol5x3kS+0Qz5Fye3Hg1FjqmOea2hyVvn5nMTSMqW/AoRwofRo7AWy5JmTLxj8DOTadScvj+LSC1sW06msl8NsHqhJYhnz3crPN6zBsLB6uXNwpqY2EwEGqGfve25VJQbRqZwFn1Fe2UaS+C+mdNHJshIHHr4mDUeK8rZCjpXogCZPNlqjYNJUE4xmXajLdNpbp8xHsvK4axXD7SkvMO3sis1beFx6uKN7m5EQdyPzCkAnDoLdbGUmXQhEcIqcvUGNMsw4/VEWXM6myEerwGs8WMNZWvRhThh/gaxnR1wJ4WXrUlBnjVi/mBdeIlLdo/Vso4EchGFjSOwFM6FrnNGlV8FCA3rAA/tJtjNPyKP1TDj3Fkq97f3Zu6MTuE9XptssOf1VsNlSVvVXHggsgUDdNOt/sxwhOy2QrgncV/jIzrx7cr0WC53kwkef/M0IucEGlH3uYp3bgdSADhO3XboPC4VxwbYbYcDejvIxyrMosP0GcDicvfIZn17XrqI4DJSexcPyp1EMY5oInEAnJvZ76UcWsCIj8U1NUo7gT9ga9iVcDm+Cn7NXgwX6T5U6G/M3zbtmdWhMgtD2jIEEnEWOH9vyMnNhV3RSa3RSXUprfUMuTAsIxedXQjxPOcNsDBWieKKd8+VJbKo2IA1V3tjm5dV7xQt4u8izggX+nIteMBAj82FQf5uiCj9Am5A3pkb62VsT/IO2a6wQVQWxUrRzVirp45Dp8LmwGbetifhPAscbHiYCt94uw45jHJ8ddB7fXx/In7lIguL/ZnOTMnzoDGiedpueJz2xmNYa20yr5/hClwsRQMllYgy5tj/vQ9WCw9CBGDM97ZSyZsdmSXsaZD4KiSnlCIrvg80+lmQ/JcBshGo1ompIZQyxtSB6l/1lIUpDKNEZoEIOID7g/4P/jxBUmMDu15fLqLcyzymmqi2zLxsK6ssYi18RDMF2wUUffLf5GQdlMWqaDjLtnRfPa34KtNWHmyFxiYlX50Z/mergaD97jbbC73m3Y+fnOutwjBOEbzuGkdTrj9vlFdN0rQiA8dqqnckZ3g+7lX3qo0MlzvII6Ipx/3/5tKgdSUWMse98Qrdhu9NT0LwGUPqylT6+ASoERo5iVY+cY6SPOWA7W0+KoKuZCuoGg2wnjhFM6S44qlwmqDGNEW1Pcb1Z7jlrt0fOudPkc3UwuXmsgo3EICYDJMyMpOjT30XxV2z1yh9wflCneAtDc6DwY0a3+u+KN7wix5+ZyJCLHACWAeB6zZBiJANkvlmIsBDVM8UyiNsN4Wny3E5JdKV4URjyMYcsLlUqxqjqej6BR3Dlb8C1nKE9jwgFVuCWnYKAytq9J5XRjg2lQdg9gaGFvukUSUTZgtp4+hpRCPujO7r8jUrQ8p0Dfe+LdFoir09k+3N5D6nSEmGgy29SSVrI6exqvQEQJ27F9L4RYL+0RHj0Zh5eM/kX1zywqy/IrofgpXVgmUpvtfUgGPJeCXrcEeQ/HdDRfS1XiCiDPfd/j0rTtNtvaRVEB29LZBzufAGtfcazi3yxF/G4BF+znj5yoqNfFr/CUIpOpp+f6MtlMCD2myhWd7Avwdb213PP1wDNIUcYIY86y2cxmnO1L/++2zMhPOZLPlnPkEKPVJeS5nhTPXm9zf1lfzCdqccNoomXtVzB+l8/pkCOQ8qe+23TRor/wqAj7QxQSkS/wWShgTE7w/ebWJI4OPmn+pjwdesUxLHUmiGJa7YmiTIDvpRLZGIUM0C99Tq9684LV5t+s85mchRe3E8yIS5NhfnPgt0Wm+COHwSmCNJyNy9yWNUz/PughqbdOvl4IXDGDnpCxp3XiWoQumLnvJoydfMLbk/sYOLDsw7qeq6SdjjVhAwEenzM7e9sMu4QravPRN5dEr5mUEBepUFjdMkkulfBOjLmYQI8vry36CLwwHjG+fWN2SKDYvOswt1DUbRJR2YKAJDyvgWIQxlsssl5cdtlSXyjJJAKDVJT4kZCswSO0I1Ok1r/w5/SbEXhVT59R+qz/pDkDzL0MfHfBak4B1eTBmgEmg5q/xMjOFj06pGJoIeGXWm4aBsBSl+mu3moej9nQWErh4w5p5FQ8rYlwituRBuQPzEAOOuKmQAKd9y5V8q/faPW0Hzqlmqxvj48oNaSCL36oiDZemipUdM0Z+S3oHHoLMreTQiyWcBZHpvAbKsPuw7a8Jp72wYIbBGxPHTOG7ANztRrY9Z2mqxnSA29b0q5c9KPZRKWIbL3eUQGcxyPx3ECeGWIPL7zjkrGS2MPmpxL/gUqkdlhyANJyJ9XS6werFtHAzxskEwwHLj2nUBOwmUksug2iQHnmWh1yy37pUVaMlJsP96Vh0H6x1USfQbjqozBcSniL2U8lpv93TVDfe2fw0X2THYCzlhs1NOdxyjQ6qBCHWA+4P8DvwOQe4ukaqJPs8j4faRqq4adApDxBjm4lSvoKtTXKKVtbxUX0xK322KzD2L+atz4SznMumthS9PFYp/o7zTBLSXa5zQ5igCaZ8lDH4hBSBR/vvvxsiBi1gdvDUEQIPrHKRH8oe7YE+iiOi9dnF9Oif8tFv8pD7d4zH/cYrkgkAkTPyje3xU3WdAASmvnif3U8pc+ffiwjOT+fpzvY5mYPsiIDdJKm8jf3xpUC5g0903tkg+tWTkymw89QCRU0xeIq+KoGwZRHwcqfLYLpByGWw+G95V14NtcSmObcTd6J0pXeCDOsGx5oMz7bpbHUi+hgtAbdrFUajA0NWY4rdWkkJyWo6nbEqhLPgnKPt6OYxQSPzY+TqmCj3UOfcromkmK+yyQZkZz3yx88eRpLshdnUFFvi9aMcGDbYTbAWnNts/+GgLeAqL5IjvpOzzf2USNdR/GHbAsbh8bt/t7nM3yH0gwaZjo6dVmtKR23ltGQPttVNOv+YnJfHVqDh1vcQQDLCjkPLBq3ndVYHX4cbegrL84/n2VwGQ+CgY6HC9h5YyjBnrPuTtZpHlr1e0MYmHrwuqo2s1QoVxpEuLhGWIDt3lz49fur7TnL+0vs7b1Eav4nYGcHLas8AJ44n/Jx8fj7jHzko4ZCVbeJJd3SkHDwzqIhBrmYpaoCNIVnEdxtiy/Qj3xDK1sjH8JSC45eCSPBVLu8yXHVhUAqy2aOcDTeelC4C0RVFO+pjB3zdFBgTMiDakZN9mXa71Z0SK4rHSxPp0d/ASZtN9d4cbxPqyJfhAE2u8cynQ9g16frqAzx0xrh7OzwDAQHHIURIQ9wWAhiSY2lkBtSQVjv9fZ4mQLX0la93EEcejAsuPWqU9L2EzSVSWArIPHIlTRFJTnVPdVqk19tDAn9hILcm0RNH7buNGP4AIIgNdA4QpP38pSGwtBND03BCAaA82ZOsMDhrVn5mxSyb+eZqvaMFt0K8tDME8OPolC929qFmVpMg9EM/FqKCLIhlztt3IFWMprk0CEKHajj9IkZzQtpFFdbShMLfRhX/Q9NlQIsFtEdiueRkQB4yZnhXf6gRvo9m20+5fsMPNNLzBTs5F4mAr8w+RihwbPHF3IzsTDOxFlYwYosufvDIxjK5U0/3xqydfzc9gCBwHQjiiYZjqiWovYpKIgUMzQuIqcopHBY6bQZXtzXUAQPobNG0Kl9mjFHNNGPZXW7LpDkmaNbZV+GJ76zBj5/ZsDaNEFoEIsYD7g/wP/SgbfBun+QKZ1jUy8TfLX5BqyLvAXAV/Bo+uRAFK8h/Yqu80erwVzksJUashLCflxV7HrQgSdx8717xq2X1HqQ6Nbcay/nvqArHmyTcga3Nc812c92v4yhRg5lqorcKdCYefkji6BQy9CaW/CYyb3Fk0KCRrpzLe1lv7sHUePMdNwfSt64wyIgfAFLBsbkk+76CLLT/pM/TgEglGtAWnjRqrUDl7v70bvZXYX/+QjUpwAFgww+6hrIzGuj5MMNxiEnwtIQ6vpnGhSvQLUuTUWrXjzGw9bs157QuG/ZN45IukUEDrnXPQmHtsqFxeZFpVPaz41ameEX7REUtEkfnFzrkIwe3jwt+2TSDCSanSU8yjAsBiuIHjz4xWJtHgX8jX5/twisd7ZuL2ZGxZctlo5oDkJjL04rFh4ylxaLW1Q5kfsEkTMH7U64HMn7qlEbvI0eqBLtCkbJIMySd8TF3JAKdR3BZ7sOP/HE8n7bNbJU9x5oiOolC1jBuAgybdsMjPiWOzXlVCH+2uoFmkrp43Z8CxMnuSgTe+ZGIgxfyDSpDcfaazdL/in2kBCE4qdp8076JQkHE7aW1zYudjMj1j1dTlsp5zLAJM/CS52OfMPv4oWnUKkv3328WuVz8Rg82lyD4W7jPQ4pK0/ozltGDBvd/mBZfPfHaUuY84vwYq+xqzunb6oo7ur4qvZyq6sPi65d7CRsa2fbwUNqifq65Ran1bUb32bOB3P94RJT0Q9vzlNTEU1xbog91nST9+rR4VtDz9jRlMIjnZuZQrfaHdOOIf6UH+DdikCezIWE9gfahozNrjdZvFy19qoZCl5Cc3VT5dUMwEllBw99jLfw7Wy9vi+JJ+j+IkntmaGgnx2n4JOca5r73gtabiDhYdwJ54sM+FsSW+L/Se1GmWXFazK/KpAGzi9c63zgkWMKyXTQUmzxniBiDCyU7poeCmarBLGrbdzE1RrcTPy5vWsWv9jjDzEPl0EnWpiH9YsTm3dJP6TQr+t+SKOBtiN/pwBRHe+3wDNfxlMOZBD+jlgurd6QhFKQSsHP28VDWtzQDaJBzNGzH/HWlKdVxUGWY8zyjVddzBXJiJhp+tEdilU6RRsv+/ESE9LLTfp97ZHFKWlJMebvi/2XdAzfKEPtYi9R/gzpXTo9nMNnjy7ChMJxTHejHgXMBQdknPBrS/gHvR+DFe/n7MQr4ezc9EJ4ckdQP+rmzUsX/U5w1wzdAPO3oeeVSDJ6xcboocyzcMd0n+vRZYYLF9crrL8DNctCSZ51ZsP8NvdRbZRioDzOL0N26PfXBTSZODAitWIDiy/bwBXgPRob7gPTzfZDh8GR/NsZkj+OXUVU4Mv4XbwOlIxDxnZkEFRM4nvbKR+vKyfp5Po0O5gQjtgPuD/g/8D8NZIvgtcRiWe9NfDMvjIFn+tPkiJDYHFzN1sWEmtV7fcn8jTmjQNPcexPsS2Bum7NDdAFCUijKCoslBFIRiNLE+AHkZoQat1DvL46Dvk4EfzZul5KMXZqyxFkOLVobK5smKF5F5lYKeU8aM9/e4fvHQOcapHE9O2BMf21OEVIiRULUujkAB22Ju4Q0eUEc4x+heN6YZCwv1FDVPXgn9ZS9b+E0OXWGkHW6NKtu96Ca/K5GQda6LCNtpi88JtKekzJHMmowpz3I3kPzIQmtO9e2hhIdwk+VzKVnq+ruBV/ATdkGjT/ZftgIJF9J0/BAp6pzMfql5g0qRGFaq9gmjI1LuvBqNRz8seXo7fTQNrIa9KhzrrniEJbEIAcPl/7sZWyVaabUEj6zZoWIV51mwQ8A8V+2o6SK/3Y5owPhs9gMZ5RffDL3GWAwe77niXmnc2MaiuL5iXZMk++ubaduOXUu0mzXe9YwLcuPv2UMMAR7c3PWVWBaJxBxbJCUqX/KSkLtRnzcOod63E18DEn6zjmFvlxPQ8MMAstqnqs4Qh9iKi7e6c07dPMhLRKD05US+L8X2gtYVV2/8mJ28CDuEnDntj2vbo6LdRX9jV0PfmY+KERA5atQ0WcDBapHDOYAQO4sAvKq5ywri8btEsX6Aq+/BVoAUOc9AVoSDSi1eEi64a9oCULl1RzvoOCS1KBzrv4gt9qYX10RGhMEtnqHzzQv1HRV8drJl2kFz1ENEcNM2dhP+3OHusaTFIoHMNEaV86g5RBeTivOPU+QAHP/hh8Sc50hNErRt2S1e6l6IsvTqmBzurpL8Iy+N8BB8aLBKeG5yw/Wt9WMF01nyOPIuQkrFSvrB2oi8CZsUd6OqtznT34YFXLpVhtfo91voha8Df47PGbDJYxVye2LXepr5h2ydad53B/0jD2RfTFfBYVK9kCnHyKDy/TAs/U+HFxzc8W4J7CkUvodm0O/RG41aiLkE8MrmhckT/dvKgBJaQdB2QgaH38dh5gwLLCpxfaIbAS1SykcGcUOgrMXXhu48sXuEgSr/PUgvgDsGWBBAm3lKTpOwDX9MOcxtpr+JAsyhSbNjD+gWr6634clDFDkFK0wp6u6sqDZ0nGoyE44c36xGpLK3/37PuYldRHJCa1EiguQ6L3zP0YfwhRPvQENWygrRKhs+yro0HkdLJsHWwuSpL6kpzp/FobvgGjsxJ41IT9otjlkP/DENi5Fc5FvfhH5x3d3wMO8BQQZfGwGtJnqjQ+SBCSmA+4P/FP8TwztXXmy7Q7FO2xULD3Vc7JhroaW77D/AjYhl7Pe3JVqyA0ILULy80fmiVvOU+G7ETbqd1sTFJWZVCz68t5MUAK298GCVl1kJbr1//+H5UHHirRL+wXrqnJiYrUPARA+w29vGuo+AwRqwWYSD63VZ1SlJhzfEIcd9cSCLRNNRjfEDIj8z42/RRCMPNXQhZj9OXk1A4T2vqfvwoHVHKbtdx6dgseNxgfTBfkIR+9IEgPA74S8iZ/e+Hx9oKke7V8CoHZwOpQ8gRN/ZaVNrhg30Z0ITouZLEoLjJl3bPD5r63fK++HKtEArSUo3ZsfKGDsjhcqCEXPDArnQofKhcTmWsm+D2kGYqdD3zPD2+vYsXyBsZG+MfIwg6BeGGk2h6zYlA6ZqAiTsQk8JiG4R2h4FFcz305cRhygEngMvhnCYYhb9NDPPoIrd8joF2FhEFnrA49IjoIgDY0tBSMqu5ZF1D0w0yRUYbKhnSn348U57gehk+IJU/E+/XO2MBV0Wd8U155Z0SjdPPpb1bXfVNfT1objKZIutw9pgljPzBAKrkDrAk3ZxKKmemEUw6YxPeQa6Zg3Idy73RqULB3YgXUpXoPlwRXSB2A/NzzEnI4b6hXFu/lwfpzzA7mmhAtNciFa+mlfOT90iqCttM9VpLwtMX29Cgv5QASG5L2QxAPLPTxSf7Fc+mZGwJjOqz7vj8uF+WzOu7Uc1on+BCYrvB3eQbp2Z6ie3wlKFE8oFdc/Fs3y+LGlY/AxLtfFuawcHviIVy9GBc74HqQnmAum7OlHlllLBD2aQ2FmoQRQoEp2FvackobdYo9hYRPwIJgKy54ingWqUngcWpfyRQRiyjK0tKwVswFyP9hP3hBH8b2kHo2NW8nspNUbsdsp6w+8303otrr3WpnmcZaybLOPme3eml1aVEt1KO5KtQ+MTGpRN7beJd8K+khViHslLeCe0FBKoaT2odZ8uXPZTem9WslZKXwN4gL5REnhN0cOd1TaI2LaHeU8e9Xtl8mkP4t2AO1Th+OpKMAwrdut+pX4+4ctgmm4T8lBu0cINaNNdR5OtccSUSJuFmlEFrnxBpIQD/o8vmdh6x6UQcfBtOHc6NIcTWpLjBVqC019tdtJyV0NL9XqGUTMs7x8DySf+OS4aQqVlTRVUhM4+uIbMZyXbP3ZNXM6hPbhP1TsqJObNMADwRhZsJih9Z/ajMiC9L6hFUJYfvfK8fVAGgg9ympBX+3+5mAVxWwYAqRB8Ti89HKgcVo/1n7XjivYNdhYO9nGFUD/dCJmdly4WxoYqjjfUqSMHPMhp5aKYGLL5VnqjQ8aBCWaA+wPDJ4eVh/EYrT/mvii9wWSvPhdPaXr+i/Inm9ZO7dFLslgIfBpDcnAVYPj9dmYUeS5J3agkihCHMWQbeFZj5Xy29QBqIBnd4Wn57n7MnEVF8BfsAjvr9F9lUHgiGuWbDR3tntU5TwuJruMpuFiCR1tXjqtLDtGIS5beP1C139B8vlrfxnCGikf9XF1AMyeaUISYxjsdd08nR8Gdxh1CjUri+fT6nEEwbP+YnFQ46cvkFJYj1f0md9+tUaVns0/Fkbtw1EA24khhBCCvKPpl3A/wuQR2pSFffx9722jx2i7qzsQvl3cSoOIzGaGlhkvl5a6Dsl73JlleFVUjmCQNRSeIpoJyspqwuadUfc3RxJjq7GHulRYE5c8CssYTB7gV2AGhViAbrA4FUD5TUU1BDjzOQR0nSxoracY7vwEFmnwie8Mx+YWcPPJKmZnlPxO8mze9QRja/Ui5vldv2PbqbmBLtxg0G+yFW6G3p5PpYvV2v3JADszz60zlWrbPnVhFnr2/gAMoV1ETaKohKqtpl5zKPFq9vm7anjE3Dp2tc7GbsTy76T5wT9IXy3FDWHV5vH/PwOflxmToBj+ly6AC26y8TGdBuKSeXtRptv61QqG+b455Mef1fsLfNwiK0mqk44Tq0Os5rqVh0hybtkDCE803nbLjkI5nP1U6DZ7W1JPTNAuS4Z4AgqwkTiW4tjicEH0z54qc60zOJLb1WuqEITn4XBLOjKuh6um7HMf9YRcyb1R6OGZpI49BrmC43ukwGBE+aQPiu/Rek+CGgSq4zB/aK5jj5n360wHP5ZMYprCrfbcimbiXU0Hs4DLLUdCYgaQqBMa4zedUrBxc5DM1Tp57hLqq3R6JKHm30mLqWKxSFiLb4cct5brYcyLaGYkBb9ISWywm/R9nNvUUl68vJsZnr10FXygHAmUgE/Gae8a3+jIOGH0Jz2Z+BlLgWB1Bd4K+6Wg2t96YWfBqi21GNm3A3pXpuLpyVijn+v5B0hOQtxHAz9rkX8c1aU32SOvmQudofDGwCxGhh1Qbe6oMRv3W/7Cs223Qq11gQHnlBbpv6sDXn9gPpxv2deCbkUTpOEE0ACuQoUIV42VvrSh/uAliXdiMURmmiROMLul354IHTfX7wGhbmNkPprdN20TF5+70Ihv/q+/6n5lNbKPfBco/Cfjj80Zqok0rcOREKP4Uv4vQhW+mDZ5dUo6gFtHEtgq01RJDxf+oOYX0SRrjRQfTr6C+vneUtlZ6sZKrUUbrrtv/hPCkA51GmqNXr4lZTEGjQ8CBCaGA+4P8EfwRci+b+w7JqZ/d1EXgVC9FjYnDrADAqwt4DBhqnyFuT02T4sorKxy0huc7HjtdP260xM4LiWQoBrjJ9qMhj/LVraOjose8DXeozBhhr+Pydxx9h0Q4vuhsAzqaQDkbIXy1erbYgfaaI6v0ad6tftS72rUaiY25Z+SOSM6s5ugjefuFHEfDPmg3Y/v2MtrF7agExGACyaDIAnhyrEnTffDj0PLnWHswOKQbVdrl7t25z5rRwwXbHRWnC+QFads9tpnQZfXtG+PA7eOPmebhC73bWhk2h6ZJV7HrW8Fackih99QOruFEXOg5iTC23PidZlJJp8tf1aikn8Ga/nbW/caoBWeF4M4ntyTq7Ox1vhmjrI1+pe1yDy8EB89G3Zo1K/f5/SxssgeRyVJQX0AjG3P03e4c32UmE6CqsrRYcKarYxd4ngWGDGv4plIBofZ3MIrqmJTBU9i4c22YQBb430dgnnUhzLguOzkqGOQpkcYi6/ahIm2U8tQTu+aECAfuBXeldgBXt1km1ZZKCz/BydOT+Ynf8NeH/u99ny0POSiTCWMbAQN6/NAo0NyGFyImA/4UVLzqjg88JE8hXXm1XR8tVTzhmrenzsVSPkJ5VwnF32fuqiCptH/jE3Kr2JKRBByKWBsKOVBL2m5ngjz8s6MTcKFLjVO/Qda3GuSXyhytE8MxY6kxgnn4oMpdmism1us4AXy3sSGIlK/Ecuv1GqjXPRnVNgLhYth2rviOUyAFWqKs4ycRSpfD4/7n2xeFt6n4yI28+tlevUdqkALMBxlN9VcJJ26TD9Ho0mWFPVQ7QQzjw1J81R5AqDf/gbXiuGYJGtsN+neW4a0ylDQcYqxLXFJFz/8pVODgKGkjsNbgc2gOR0C3He5lEW8TwWb09OJn8awEYCgx8Dg6Ct7drI83KrE4CyK+FEePLcn0ZC+mSPTZR3JlQpJPd38cBNYDyNVLKVaX8IGZNTaL/bosgPnwWc/xtbXblzwQ63iYUT6gQ5spES69DA8BpBSOykxieu7kmFMPmCzlyhffQQCMxT+XhKV3wwzAeuYBEeRAHDIarnEE6oI0aa+IiraEy4mVlHZfq62jrLy2YIxIZzLy2GehiDhBTjpH3mnPJ1uQN3sufVnsjPH27tuljMot/pVC1ad+z3r48ayiV8//fi3MTKKHtV09MYSSAOJh3KIm5W1LuQzSz7Dp1DgR7waooM3ldzoiAlFOZtTgnw1IoCXrb+PrRfxAErVVKv1luUX/f78QXQHSlLvGlVyjQ9SBCd6A+4P+DvwOPAJEZeogNhhFvcTUypmETqPmAnMw6lUeN9H8sGMQgdV7mrf1RUnjVDhXkYNPeRwvVg7EZq1Q7ccqP4How+3eaDGVFEdkKldD+NACakbkC+ZA7mWo5HXQpAcPzi158F2PYrKrh6FjyybhASJVLBJ6o9ESwXI7XEMzyapn6dtCvCwSpVKdTzqqC52j/Fk22kuQpJxatnOYO6unN9yYn+A0EiteQm2H/7ZL35mTXT0nuBQHIUe/omYup785DP/zsqKCyEqEgzBcdOi1J4IjDeWqNZcwgi4wVmEKh+iuRGMQMvB/aLcXO3jW5buAG0xuAkrVj5u7E+zXAMI+vFI9KgwhhH7g0jjy/qZ0A48lmy+VVsUMG84++h96aUMelDUCMzB+NI1vHa8Ki8xY9+x2Gzb/n+dH3QY3NBg8Na09ctguzeDiYrrmorrcNzJlqmoDBfWCfKc/O5s5BgDwXxlx8wC+M4CxR4OGEC7Wl8udILQ3pk8mMWyOJIUfTB+wa5SHj4s5VMpPYis9XH2NmZ3xXyEDm3bzCbcSrUcSfO2POyotizPEtamknuaRPgftNDgZulVIxAZ1CrJz0OIsrubwt6LWcg/fHBxh9AwNCnpxRBB0FDl5jcOPtMbzo7orZzYTDfn/S6VJqhnVuCTlzzXQ/dsefaChpPtM2ofILGE/RvPbx4ng4rvDl5QUJigC4P+Vvmj0HTkvtAIzR5fUv69RgI9px/Thjd3yYzGEB2T4qZs/p5qd0E6XZU020Pd7AdcC6lNxWfnw5PNDqaCPAYyYMuKH+bUvK5MoDkT0qFZq/OesXbkRvmQQAnU14O97cag0PNQIQNrZ1DYEZL7CV0g3u15WILAQpzXSd4OXyxLKVEF7+cdCIXBSguvIboyVS0r0QQepp+4HCD68Q7LZOclsZR/owkT4gc5NzYeeHkJD8bhKqJAs7otfV099YQ+/Pn+NLZCp3cpO7/ftFkQy+9giDwfwuFGjI+4SucpFGjirjug4d58irjQfYk49G5u/TBuWyS3TrPb+dHFcYlgW2VrxIDDpLJRcA4xesHifhq7QpD2OmEf49p09u2m36kMA2y20TOG+/5bDyPEkd73yqh3gbgaCh/I3YJUSOyv4auz3Y4cK1dGkgsYO9rOcTAqAoBlXS6ILxuJdUaqVnmhXB7qg9jWBRq8BAFLSjJFA/NoyP3PWP0d2vUhgwkPFLZGh1YJGLjdDBSShm+8E+89iYDVTmdjn+DuaLmUqMaWZp2I920jsr/Q4t2tMAlUJ4AfqQKGpz3gkNbpP3QXXRtKd3aNDvYEKGoD7g/8O/w9q+4k1nsA1wZJgln8Hmj3EK9ZK5LwT5AWnRCvxxUbw/SUsehClJtNfl2AFJSODAdd3v2lsK1Gac/cCtHafXPasuRU7E1TlYgv7KwWQ8oxpZhtwdJIp5UfOOxurpAWrCH5/UjWjaYLf7X33if4ZLYYcdbqC+e5jMzUkndAY+ARBqKhZOe/x18K0xaHT5G73pGIQW8VnqgUyEN/AzAySZONdgrb84b9pTgEs6b1xRab9T495ZJjm8iwulBn3EqsgIzOCEPTjcIoQiRZtTh67VztqLIuekkgVPzfr6e483PA76Va4weg1tl3TaVIYiNv0vJRhb/E/74gogOSNGcQhuudg5P5mXx59E9A2oREI8K0wtPEzP88syDJHlFPou3U8Bt8BAcgnyamUUMeTWA/3EPRCej90nBfa09jjFEZOR06H0mmMdzi7RpXHlVn4NbZVdrUF0bGhu97fV1CkuxxKd4/FwRFBuudSmsca9HeyJfLulSCR4TAq116EgRkqDzy+6HV/EWiSr8pqMiaB1f73fsNhz1U4ekZJxEOSOoeGXonR3dlHEO8V8lKvEW7pMkI00swOYDtEJPjZjFh8CptdRSdO4pOrGDKjGwGGsT7sckyhAVi7GrQvPErtxIIPKIV/XnHa0mZYNYLcA+v0DNAUtFH4qBmTuxfdhjAFAK1xFJz5rb54iZvP+EJDZeuN8lTPKHbZK9a4NtfyAsO4EROJDG1h/nyLECp7Ks2WjzVixcRmNDWn64CZSmzz1Hiy2jNVDB9hIGIuHU1+nFzdzMx5O3m2+GOpQJWrd20Dh6geXez7Z82mS+r7OLHv5Bkldgq0muuUA9l4AN5fXEik/eaPA7jaJlSPvZZm6FFKa7Latrf39adGNB4ch3IBsr9AT21+1BK6qlucvhbGI3dMmlxQ8lfNSZJ0XcJ0HMZ1Fzuhd27OIZYcc/tRkPGUBxu1xeXdseegtNGuy/sN3GpaFGpy0OV2Y4jx0TSd7m526B5eZL57fvYLaXLauvMuEZkSdyx8B2vv8tWzJhCFxfdo8KRoYyQvCX1y/nfpzqolQnO/AB8F0qBTXLtXnS/+HCrJC3dhJFlkSiqpelm+wf9JnDsKJY7eHUg4N3EI2MRpq0SZF/Oh1LRHlT2G/d79rjvnI+lKC9IcsUqkLpVzss3t7WeUwVgER0aa8XPwjKMuOiFkkR2qe5aJbZ97cHIpVUkQrMWXcbdD9RyGUiUEWWN8nlB/0s229q7aKWVJn0uPlH23K8A5aRysBaNDyIEKVYD7g/4Q/xDWcrYUUe06E9SNc5IbmRrpQovm205TBaV1KpP/PNG7bPvDulSg1F7nusVKeuZBhvIFQ4XY+kNZXoOXjnqkM3GqZeYmQICVvUFybuCokanM3H2NuKZTtVDimf8UatCc9ISrhAjPRZcXfeuT8x0rqEXjBkVBaEkL833EXina48l69USKbKxRdRgGYWjCslXRGK5asdJatjFv7bFj+sN1hLsT+zwKM3DQ7iChuxAhCruMrrmKUQpUyNGjzm2KcRJFbMbfcLayPdKYLDJNaCr9IQkjlXnnouOMNLeu9Ac4VlO+YajI1sFUPwCoK4noeh3A8mab3/L/Oaz5Rcgr69QgX0+s3uS6fG7LRqWrlX8Khfn9TGtIfZvcWQVsO9FwxMIxZib+lEq6PlRbHGnnNaqvw1Sko5ytHuLN8TjPFlZ6fATZWgQguZjgrVes31RRdIZrRk0MSvqXvP4RwOVSCQMC49agQ8Od1Y5jkdCyVJyasT4cWtFKOLcYAdMnIZlmcplN0SC3y7LHvJ4QXYdTZM0WGs1DzzQRmCSNJNxsfKewu7Qtc4rObpOd7ifHHPyHbe7HNb+97WvSqjK83BwqVFduA6K9y0gn+1Lp+HOyZIR9uMVUe+lCzHde7a5rbs9P5vj73XFReu5Yv8eehZ0pj6+Fnuo/HZPwW8znFRkiV2GKgc37R8P1kpjzfJ5uUjU9Y9xOON8l1xt6ZSJaBwC1PLCePp4EYY+cj0a4xMTNamcIDou2nNW6rxa31bbhb6MvAw9G4eEueJIw0cklu+2oYwJXGhk2oOqwopwC8apukLMILqsg6f5k6mJ2CFlnRpM0Zo7avR6Uxx9cMqqDnlfV5iQG1ZUUvlnZ7Mxu9azFPAhusR/OhNyupcbTFtrIEtmWm66hpR8p8H2QdpV8WTCXqXkDnqO0L39sEx4KyP2Ib5ywNF19czVZJYNVC+aPY+7AlRyK9uTmfY7GJ0pD5qj6Bz7kp3ibUPkM0dsRHg0BQu8AroAfLywnY+Q0Cp8oAsIWmL2FqgmpsuIt+TcAqeFq+EWpgqNfnUF+i1o66xjQTiTICmv839+nguoCizfO6FdXoVe8sMw7/IfrYtxq6HpcgLcjpiNW0PR9jJxSSm4PTfpQ65Bm7oBgra87KZ0QQShKvQLZyeujxwd3zXhfMBC9nK0eT59p8fjTU0iwc6XqAQoCardNotQ20n6YgWhMOpxSVw3ehg2toBxr2+wjUJVkgSWS+eLDvxrPrjjYhnoFhzAoi+Iu/cV9rHiiI+w1ZPwEEN4Jo0OwgQqSgPuD/w7/DtV2K7Yoruh6+XG2/yysA3Ro8sSLRC3M3mjDt8s1cixWXFs6AS9pSDPPjvghJf0V/xtmcNSPkL/IkPaNGw1yR/2xJ9QYDbLVKUwYEyPFxtBRv0Tul5BUFDjvJQ0gsY/ZUhh/wZxpQHJFs9Z4WGML5MseohOz39HjSsYuCIKdrjce2nP0t04lN9J+EzxCEyQFnewQSo9AqCMVt+raGfb3qBF78N/Vp/6nJ6InqNCNtd9tdg9Ez/5zM750MXPrF7NitxO0bBRVBHtxrD/bvMYJrogeDS2TU5uw4PCJPjNLSeMAw/e5zZoTc9ZhmMKvA51lP4eoCy53d3NNoN5I2/oW0nvXRmoviGuO+FcAyrmKtAY1RUHfQb1EiS59NqirMJCMoM1PmHkIC1ayPjcW5A27BXj9DV8Wm30N1ZQkvn6Zvz6tpUF4W4hqADYqlkHhuVpd5d59yryZ9V4H/Qbzss/ZosT9RiR/MuAx7fNewsZfDW1dZZkrzHbTugARE2wptQ+INGuhi++lPQI1IDcnSY0RQAxjr0Z0LcfX5QgryjqEnaEGnCdT8UUH0E5GSyuHOd+C//KTwRlzsWbJqKiB/3hxyLy06RcIIWp1FECyTgMuaP4EbUFK7uuARLxtMCNE3o8njMfFcYZZrvZZjWPk8kBWgiJhylFxI8IBcsHg0DMVEYdvFgfB12QvkKxBUl2eszxwczxTV8dlOAPZjv5h2WreL4jfCpcyYNjUa8LsNoycZ7FqRiVkZPTeZJf5iumOP4gCvPDgNf3oNB7TYo+7qdV6Az0pWnAo/WMou70tLmi1Wyw/hsGonwV2lYINyawH/RXWY2iRA1V1DxKxIYOLpteGIYvmF0AEHK1BL+kOaqvQt1LolQZo+P9M7dhug7M/44OR0nxK5l5JxGT25QajGO4Ddht0NpeN69kLjkTmLGlwXmPo0PD4qMEe+fJGEfmgsHRqhgxCCAxXeesPnCMHGDBzvziZ0Jx7uMAdo/xFf8FMq9qU+EODCVnALUo7zVl1Che5ZY8YhM3DtEfoGOlXuYpGECO92YXp87qu5pPKcVv/0L46UF9ckQpKDJo4wNfWoznsoxZu7pL+adovgEArf5KRrSS9mq9HOnJwmOtIdvbalUDveZkNkogYVc1Nf1HpgdKtlayAxZJ7/4sBCOmedZsTMftUP/xcEYoocaljjPoHkC7i3vVOas5ppidGlY59051a+VU+Q8l9kqFr/3lbhgOAeRGaJvpDbRujQ9KBCs6A+4P/EfwS1kzSl7F/LZ+ims8xaT8qvYFgvy0xv3kgGp7W41iapIAJ6f4Hn2hVgVpfLadmqxN5GmxjuqmyOu22xj2Gju1FQR4M7rYWR8fAMmEY3xUxmeDUhXXPkZhBMapHsuX0ZzkLc4eS4Cw1Mn2No5L/AGiRIRdM3qBQahA2R1oCHKpE2BJv9tjXDCoVAy0DxsSa9ggue0bhdNFFaxIaV5t2gn+DHTczJk1lMghekWJjoQxKVuJzibObCpPeuFoUh6HHbP8yHTYq27jkl1Tq3tzLs3HBNVTJEgMqVnBg+MgoXXaer7CK+5ULYbPKNoPOF4FfnQbzaaOY+dsbiJh5iu8H6CBMlOHY2k3OfRgLpKFzpoBxrPLrbr/ljcrjBM03rksJq9X81z/lEuYB6bu3nrhdTM2nELgCH+EwjJQ/69Y4M7T7EMYofRjYjCTrxTKmks4Th+UEY6iXMk4Krl8rghj0A3W/WxNN1E0t1PlZ5DB1GWSDi+uZM3uWyOjeosw2zx/lTmrqoQ7ZuHoYsdFxd/Ri3zWz/KskCSmkSzmJ72w++e190q69OS1kSBUm4RTN9dwIywZk1wDmLKXcOcs0Zg3L7mVHY4tihK/LU0m/azdhqeOD+/KVkH4MGYEmdZ7oEwmwlPLF3g1kpEt75PlzBh1xECRo2M9MPN08ocj0EHhFQucL9tTxQOzqrjMvsdekRwbabRDevj32cOPqY/GUafhICnsViVydSZqYauNvK/H9Yv7lsPZ4RvVbghOS+0oT4zl79IkGgLM4b4SKTeCLx5aOQGR8l1AJjhUMm4b7LhXZif44WEWuBsEVW32oQiQF4zNFcv/GvTRLTEh749ijC9Jh7NHksNLM7tqTOxrYwyoGtL1RA8Lz+5+LpVrex0p74CrOE/WShjzYkIrwUPAO1AVFASaRIfNYTeHTgrIHsZkWc8QLu7Djfc1hyUx1a1cL7GZFtTJEQFlpTrKKkcxEnZfDXRoeuCcMONE6WRHRDlhdkc2q/eC83FqQ64waW3BvCRSmm2VzvT6ga9lt2WElJv59bfBHUMwaW27GQjSHIWORO6Gr9rOL4EEf/kaEU3mgSUpufZshAxYk991xjqLnim4eNfLybbZLn60Mqqp5I/OZgZYxtwhXC41JzQGVvaqYW12+hgyFVpspnXwKH9BpRamyiF1B6Gvkf1QD77ZQdgM7FO+85UKWLzb1hHGbJ1CSGNjrsW3UO+7Fss5zgH/czryhKmHNFyCWaxC8ynhmur6Ocs5HJzUHQh7AJrAKzQAAjlJwuIJJdtvtmx3QhR2jQ9uBCwqA+4P9E/4S1VYMbc5DNqbXTU7VeG0zNgJr+NQNOUQDYounSHSi6rY5EU+rdWStXHtuTpL1sPfksjYINzr4TVOZCndeIKBWypHvGtZ6WD2CP95iNX3q8AF2KbJsuYLE6/hIs0PY59omCCxNe1zIlzfLJ3HpRvtmJ2X9AedcxbfSMrlEujRPVvJHT3GPuHVT1bPEqJskG7u03curdK1MO4lTULl+UxFUAXB7QkmdIjx+n0kXgg1xLB6WAMbCwzyBubwM6BAQF4wvBTM705ScIbRBcYvftvFHmIqW4wsvP4P162LEEJNCJc+wCUhpINUn+ByEAMvX6mhjk91h+776uh79kXceBT8Xc8LzacvBXqqWC3DzyxkDQ8UaYtjDv/GpoMwLTrXDJlJtIAWF2eI/n64CGLygfF4jQW+4TtjVq3w72v64fvWw2Rg1UCqyEde+9R/Y4Mj1mq+CcNQhC/kgb/LlrfW1Bc02ksVSRLBH3XZXLU8QUmcl+t96nmb5ZmJTl3Sel+ndNYmxvjMXZ91HG28Zh03SgfvbNB8ndW4jiuDxO8T93laAREUCM3Wv99qt9k2o9eHy/WuiOBWcxrwf59WIewMZxW60IineOGtHI6ZxwMjnb+pw8URTCd3MxQvW9ohr+RkILAz3RsWARJlgvDKc8mvDFInr7nR3lsnur8TrGmzkl3D/7Py9M2FLJd4TZhIHtPAX4pI+9MdhfYefEM0cHUy/rwzSRKbOpRWuRgrDScbTGtwUjktk9ocWAYXzw8TQAqLrQuChCyQgoX2nFcRYX3COLqX9JgiqYco3eG1t6APDtvJsBGMUbMVCG7RqbLt9WDJ0x/M6lheS5aJdDi3kpSj+B0B60jEeQy83jqCXPN002VucItiGaqg8bnDi6zSvDmspIyDlvSaYSKD6UPqBKPoU9OI/mt+zFma/5/ueUQr4WWj1TzjRTcchegQSDILYR4yYzw5LniaqogOTsaaoVwYebv8ZDvB+7eOG/tFe7a6+cDYXDwH7XMb2itNI/ijytOwRd/aiCviN4la9HA8bp1fa3INvXrDWdEDeh8hGRBnSXrmLLX4fg7w/uGz/QN0O4HonKsnnACx0Wb5VrWdsxa+yF+RsEXwSb0zRgoL54kDT2ISusXYjoJIOHUzv6TGI1msnqtVQ2S5jsm8pzi+M9f7OtilywUoc9jk8TMTC4XDRIJ1H+BUc67ifDvTqd8zUIux8yrWejgrU4h0nQW3KmabiAMOnl1KvNs4AAJMX89mG0NM/mfy2oVH8we/cRDHA8u1wLRswr8YcVHNSfOFGAPbMxdKUNCKjQ9SBC0aA+4P/Ef8R1ka60d0nY8Mccs1K3rWFqORyPTfNaF5bFT2AeiJjDMQ80ceNI3Xy3fpyfnE8bJpuFIXP6QyF1Ua4X5ZbPNAJ4b1WXyvIk3LT+6PfqGLtjnMBpwBJREPSL9RadZl36Nh7xLsZNVoNxoZoUhyjIEfYA1NwqRUP5bWAP6i6SjhcZVAbLjwuWhfucjU3LQj5bKsf35ViPEHPFd/tNJNtnTUR5qRlLH7sEkffDnfNN5J3KIccfWDzHhveb5Wl9MyZEnPCrAdP1+IqnPHjA7xpcEm01yabVALgeSXsJ56QKJEu7Gy7kGYEZvq9cznzQ6Hxvl7IKcH/ZyPuBf+i778CnY25VJQnhIr3ho+VOL/+1tR44JnX/3VcUxPOFlWJtBoQ0rMZI3ie0/GpUXKo8vcyVOFLzY2/uL4Bhv5zqnic1+d+8FY47SbWNrlDswgejEcTQRc3dUvhSb0GnjF5EtnJoUGDMlTyfitCTugnHJVNriy0ZT7MVXw+CZW/cIRbdUD5xa7yFMJxRPHNUUhVQhsfTYM9LSCgSy1/lNOS7JZc0L3QBAi75dOAy5Sdrop1jTG0FQZRHFWG77g2QE/ubI/1LALiHBfntQoke7cPDPPbm/hFpyQUUSvTCnz8ge7modHxGiOkIpzW/u32AZmuQiZUV2eDlHHeAFkUAKK3M8tBMwPETE8UOoPhJWH+gy2c5QYdmEO4JOOxwxABeh1T6rsbG0uG2hq4eoNchaVnLaAvICZfFr1T06+XljX1jrfgnJHRoBlSZuC6D3fU0PD1x4RC0xZatB/5KDvcsFwWsicuh6fyZtfm1Zqzxl+vlASQyg8DNvTttwDrsZfnnZY7+uFAGF8tO24IyCD1J9WdJnBFQGR2m1BSb1XqzzCUBcnDqf1mkzkq5lj9A7jGLLWjVMavRSiBVUefeJukEZZUAxE+b3zWq+c1EVTU76pHnaDo/saLp/YDsdw/2Za2h5lXlamMQzRxB/HQ/hOMn86DG21QzgOT7z6SpetZV4mtO4EPOM+kA6hMcETVCCHy1INjmHclRWNGU/yklTfOO6nJMNdRHKNDQNgYwSKljpO/OtxrBfRJ14H8i7TFSGw3Q8A+NDe9aOx8TW+FzLR2l8s58ca3UdeCCtleB2xvB/ye8sQLFKevgbRZnnegUcAGpi9P4FIsGAYQVfB1FBg1KNP7peIbD3hBHlGiqUnnT+8TlKjb7dhQuvCQ0bc8EX6fccUDZjTWHvWWRMxYVpdPlIUObc2dQGM3rZ62QE96u6FVXLvzm5ARNQ9ZT6PehW02pDZdI6ND0IELg4D7g/8O/xHWSiKmzgYHIjtZV1HCwn+MYsdrT+nImHpxTMH9u1+GuR0+Di4CjuVfnPWz67v7VEgcJUcJzYTDb7CwBakuHolyulBdwP9CbbKmG826PmWasX57jXV81HIGQ3DmDXA5qB9M78YZfBWrefP1n2HQdCtSjUu7IMmX1r4Uabf+aCcSjmaws5tJ2096htnazjwwx6RU5tkfKWsXnRHtLTXyWtK1YlOH9LM48WclMiQsYMFaK6W55GwPpBCb89C0lLmPBX1ELshI1bXblfC4MWpGu4OHf4CI6/UEfP8bTmnjmUKzIOEm1omh0IafQg4y8YDCJeWGq8MBDZLu/q8aaMnxFxaa+tcoclo9CwUdWbXyITZSYgcv8fbTE9dgoWrZqJlnCp93a0o3Vhf/ilXuKJ6KUxb/0vgs9VA9J+uj2LMZFYdwMOJG1u5SLw1BK31oshLpxRdqdCKqMt8zKJsJJLzewkA7E78jIwvANYXB7KT5KUX29XRPBdLuUcetg7cm/q/tvHAgE54vcMIcx7xA1Lw73e2C2DLyr7ceSLqRtHfBcFN152IlYZLaADgIi9t7vQhWwDvqUe8BUAuOPHtdPN7GrYqYrt/QNBNB4Kt1OCF4Lf+NGdr2Fy17KzEmSFEklUY0zyQ/RckOrd6hJRHU8ryTlcr7Ys7sjpCrwC3aXriVqBJ5AmgUethp/ZZPzvziMK8/fQpRMUoDY5i+Vo57Y4E/2J7/joPuXoDGO/OBBtW83VvqzuW4DaLwcIbggAgzk5mU+iiYQfhCWaqCTW4kgZzQl7dCjoBonY1HDmjKmbAFMQmt2hl4CBq+gXWkPKTcRW7Pu1jw3styHyr65yVxdkG0N2ZXdKfQ5vw8YEkeEjwbMf30ibqgFIGaHmhPirjOR6EqItlySWiac98V6KRX13o/cX8R75iRG2/qhewOd8hL+AhzHzhofG35Anbp6wZ+TnoRXUmFP58Jj4VgaiFRuDfz/SwnmmMzavSbxzlJHW2p6Vh0gvfYQIpxPVM1JB+Bxv57Xw4pvjp6PrOQ7x2IsIc1FtyAo0JC1opeAZJYRoIY3Y1HOu8FHOpqNS55PYtjfsZOkLzlFo/QUTAE0/jpeSgZYfsTlyJ1s3l7oS9p37JqhI0j+fvxsEmJsJZrZv+pSAPY3yuUWDmEsBEVmMbflFj4igir4aw+SCCheuby9H/JmO09T6qewG2VtbYTSkYDkp55kBvSbM5//twBbbSLipP0yJw/+LXf+UCTG6hcqPkI405y7otIVqd3EiOMEQxdWEcFyNmGveegyvqjQ7+BC7+A+4P/Dv0TEIKq64cJ6mdCQNOaknZYCPgd8eYbpzNkG/eQc01vIupBetfW9BeeHnmav1JxU7yIvu/VUuZfh9E3Qh7skKyL12mRFOvLs5/,,,,,,,,,,,,,,,,
