success,timeout,failed_images,failed_audio,failed_video,trial_type,trial_index,time_elapsed,internal_node_id,subject,audio_id,rt,device_id,view_history,stimulus,response,estimated_stimulus_onset
TRUE,FALSE,[],[],[],preload,0,5016,0.0-0.0,bvnjyfw5v83h815,bvnjyfw5v83h815-2024-02-16-03-30-48,,,,,,
TRUE,,,,,fullscreen,1,14540,0.0-1.0,bvnjyfw5v83h815,bvnjyfw5v83h815-2024-02-16-03-30-48,8511,,,,,
,,,,,initialize-microphone,2,18891,0.0-2.0,bvnjyfw5v83h815,bvnjyfw5v83h815-2024-02-16-03-30-48,,5e2c06a3604962530d7fd8801d986f048696cde49c319b58e170d1a15fee68a3,,,,
,,,,,instructions,3,28121,0.0-3.0,bvnjyfw5v83h815,bvnjyfw5v83h815-2024-02-16-03-30-48,9230,,"[{""page_index"":0,""viewing_time"":1287},{""page_index"":1,""viewing_time"":7943}]",,,
,,,,,image-button-response,4,32624,0.0-4.0-0.0,bvnjyfw5v83h815,bvnjyfw5v83h815-2024-02-16-03-30-48,null,,,images/schemes/movie_scheme/movie_1.png,null,
,,,,,image-button-response,5,35326,0.0-4.0-1.0,bvnjyfw5v83h815,bvnjyfw5v83h815-2024-02-16-03-30-48,null,,,images/schemes/movie_scheme/movie_1.png,null,
,,,,,image-button-response,6,37126,0.0-4.0-2.0,bvnjyfw5v83h815,bvnjyfw5v83h815-2024-02-16-03-30-48,null,,,[],null,
,,,,,image-button-response,7,41629,0.0-4.0-0.1,bvnjyfw5v83h815,bvnjyfw5v83h815-2024-02-16-03-30-48,null,,,images/schemes/movie_scheme/movie_2.png,null,
,,,,,image-button-response,8,42572,0.0-4.0-1.1,bvnjyfw5v83h815,bvnjyfw5v83h815-2024-02-16-03-30-48,943,,,images/schemes/movie_scheme/movie_2.png,0,
,,,,,image-button-response,9,44374,0.0-4.0-2.1,bvnjyfw5v83h815,bvnjyfw5v83h815-2024-02-16-03-30-48,null,,,[],null,
,,,,,image-button-response,10,48875,0.0-4.0-0.2,bvnjyfw5v83h815,bvnjyfw5v83h815-2024-02-16-03-30-48,null,,,images/schemes/movie_scheme/movie_3.png,null,
,,,,,image-button-response,11,49445,0.0-4.0-1.2,bvnjyfw5v83h815,bvnjyfw5v83h815-2024-02-16-03-30-48,569,,,images/schemes/movie_scheme/movie_3.png,0,
,,,,,image-button-response,12,51247,0.0-4.0-2.2,bvnjyfw5v83h815,bvnjyfw5v83h815-2024-02-16-03-30-48,null,,,[],null,
,,,,,image-button-response,13,55749,0.0-4.0-0.3,bvnjyfw5v83h815,bvnjyfw5v83h815-2024-02-16-03-30-48,null,,,images/schemes/movie_scheme/movie_4.png,null,
,,,,,image-button-response,14,56579,0.0-4.0-1.3,bvnjyfw5v83h815,bvnjyfw5v83h815-2024-02-16-03-30-48,830,,,images/schemes/movie_scheme/movie_4.png,0,
,,,,,image-button-response,15,58381,0.0-4.0-2.3,bvnjyfw5v83h815,bvnjyfw5v83h815-2024-02-16-03-30-48,null,,,[],null,
,,,,,instructions,16,68994,0.0-5.0,bvnjyfw5v83h815,bvnjyfw5v83h815-2024-02-16-03-30-48,10613,,"[{""page_index"":0,""viewing_time"":9536},{""page_index"":1,""viewing_time"":1077}]",,,
,,,,,html-audio-response,17,94505,0.0-6.0,bvnjyfw5v83h815,bvnjyfw5v83h815-2024-02-16-03-30-48,8409,,,"<span style=""color: red; font-size: 24px""> NOW RECORDING</span>
        <p>Please say out loud the list of the actions you saw. The actions can be said in any order.</p>",GkXfo59ChoEBQveBAULygQRC84EIQoKEd2VibUKHgQRChYECGFOAZwH/////////FUmpZpcq17GDD0JATYCFT3BlcmFXQYVPcGVyYRZUrmu/rr3XgQFzxYcHaRqRXuzMg4EChoZBX09QVVNjopNPcHVzSGVhZAEBAACAuwAAAAAA4Y21hEc7gACfgQFiZIEgH0O2dQH/////////54EAo0SsgQAAgPuD/TT+CXt8aaZQMH6fuwkAJ51LV21FwU9JTLwfiut4W8XIjlVbAFrM+TSkaRZu7e1w69BwzkZBB/YcaMI1sx+/l2ctgDl2aB8wE8YTLtKDaOEVIdhng6wLtN4Thm/ytT4VIIKGbCnttDO7LtGw0rh2v8o+jPg0ITIJ6xlCP5Schn2BTkPZfSn7mmWp9jc9koLAPKKzCVzberZlsLdXkAvmHOZAy0KPwwP4AE9qDYbOW9dC/YzMxvd+eqbeIkgtbPU9NnIFpOoEv71xEK8UCwj+WVnZ7G9EyGCrFUnawAAAAAAAAAA11oNkk5OHKcbkg+f+JWp9BbiGePwFYrTeSQKxLAeR/aKxkjqw6Z4LU6k4vgw9Yl2KzqKCInEbcJO1Ie/07E3sDVdHMzDKazLkk6Ik5l5VY1SE8o8sfsj6ov3mSVIu3XxQH+6tyuVA8dKDkq+4QLssMtt4VCpcXpLjku2DN0+uf+HzoX0CczUX310sXKDzv8lQCI3GeqjpACxx4CutbCd/8sEE3iYOGt3HUIl46UxYKJIE75c8Mp9rWVYNTOSNOt6N7LVDAerRZd0vjItCsKx3Z9aR7y0WGJ8BryLgsITaQOmEgtTSuKcEPUhiNUyqUAYFNk6tdv2n6GNe98zmIkeLrCXnNnBegpCYgiTBPRjf/bBa86eS3njeXIEl/+BmeS8Rb5yz5u7RXg0G7KyfxmGJC4o4j0NrvbYwrNSduLDOeWt5cT30g75Mowly5vYPSMacku97/RJKxzn0xB8cfed5FDbUxp2FpCo/K/HHiVX5QQnby6aUBxIhZY17xq5j1BLXkFW9u72ULa5Rbap3kKU1HpiznlKS7fGDVMx4wdgngTGNV9wPXjU6JFWxwk+xK+BKbInCiphix+MVpycTfAGFuXp6dfhDNoO8YemMFYyj08FOnlXyZCkIm1vMzrTlc3dRSt2nx4tIZCkx4X5jkmdoBm1QULwqq7UGFs+zLMNdYyIlJHv1vqHNqp2v97RRXNNwAQR2jmS7irrLx30pamIlZZhxdpjc2+3o/BWqap4tiWo+h2TYFHiKHQl1NJbwyGapmstcDSnw2OjSRf+EF5nVcjQk1QRtZRzerwsE5y2ibkSVKbv2r0UgPC0oCV0wRmNaOFjpEI5392ne8O3PfzIW9Do2aj7hA5tNtteWTCEKbJ53NH2aoFXLnIJ7Jz9NDWSSvK4Pr+n6lnL49nxRIE/UTer8O4G21FSBDFW2xvG4f39gZMHvwErLG24xdhYbz05MWLFx5+ysG1BoeuCrXbdruzKYJbytpT0KkMhEuBkNum0aXCo6irBiJ5Xkf/GIu2Py1xGuISWlMu+JLnTCcRCkTj/Rplnn24xitoP+8XHlH6lHXu7dEenG5xogLJQHJKZoFjIe7uiKZUq8M3TPEHrEwGXdIUQIKp309phWfS9tMOZhApe/ZX1MmSEI9J9zw7bEePk/yXSdr6zX0CWC7lBCI9wQbn3uIrzD3JRze1gYiBUht92sWqYXXlFVX/KKojY+ZmC2nX6gqXeR4LidGOZsea7+iksyESjVkTAn45m783oo6y/SFh1AuTxMCZ4TAHuksNqjQ5mBADyA+4P+Cf0JUHb9uG1hGQtzYLRJIkm9dNg6ZfCw24HArgBAhb9oRzRkIPlei/ofmRHQ0WheFgxmJ2gcdZIeqKnNKfFb+ZyXSO/qTN0M2WnFSuM43K3WL+AwAAL+wb8/tIZtS8FZDYm90uGFx9LL7CI5Tb4oH1VyxiihVL0Gn9pK+83ZmOxZPLxj/VCNEygI1p7ffBZLe88ZavSHjKmnLTb7eJPqNxwW65zuFMkU2r1ag8yrr+Qi31ocLP9342crQjVWdv2Qhj/tnWXXUKfqghyPGb6Yzx0MwHpG/PQrIuB5DOx53gWeZ5VIxbYAx2TRkCLuJcNkpJpbGaqJ4ApeBAC8PjO7iZyZvoYXx/0VlHQvGq5cAsghvG8XvVBZ9jwOxY619WhcLyRMXoc86UnUVBOuiK3YPLYJ76bWBEoEsgZFViZEkLN+lX7ZYnVxaiV0gvZ/maizyTHRBRDdtUmxxliVC/q8qEU21aePoyEMX6znKDC8LDnHH6EF4VtsmTpMXmDeElN6gS/NDW34E+bUVd2mHhqjofO2anEoeKCKlTUjKVrFcgkktRS2VBSGI9Sp4HH6UfKsDqH0u+zOR2QceAOyUWtE0vVkMD3IYtlP7c2M6y086X/h+lN1Lh3btKlJzVtxkza8jXsQBUh9Mmm0COTWopakFnUK1jNYx517b8HHBSwtS+RMVi39dc9bdYp8oc0f+eHRtswJl8Vmg6TXgLKDJdOqZ8kmiUOe6GlsAsKZN4ksqb2iY9RqO0OM5tqwWxa9NAGm+dkJcqKRO+9sEt7ASakxxv75cRP79KQd7HLw6AQoV+8msJ2U3DCUMF1mERakkhYBibz5cYalN66QG74lgWBzKy+ssZox1z6cLVu5dcGX6ajo8Yxcm322lgXIymiy49/hwxEw1/v7AGKiV3IVs7PrpdLasbc6uv3kYZ2uKZMEsp8BovTyAHgy1J1WjphR2VVmHEwLTCVkqPH4wPTM+yHUZ8R5LIupOvOi9OZoplBPcuQVzHou0/osnSYkE0Ddy3JIe4gKrrLQyQ6d6lZqnFI0kdPcrPUI9yHejaQe5UJHlCHRzfJ7kC5V4KO+lpK2Z7EbDY/12YIeCrvQom6qRAGJEkKGurHp5duM3wm5qmE0iVH+9jdXxls1Yg1EROjYRiSL3BPqPMIlixjNVatCZYpG+lwzwouZPK9ptNc9vXvsvsQvNRhAIpzc1qrYMVjctcvves+jQ4WBAHiA+4P+C/4LT7AIIhkfQrQJ1bfPgpiXKnv3Jv4K7133UwtjCuOEGeCa1i8l14+44+7dbVe/hXteD+tJ28Ftgo+cSDozY2D6CWpgYHC8uKI+4Ddnlsg0gnGGCPEnbwU6p7G8WdexeoqxmjH8Y9PaZE/7kA25NtL2gdPspXYWuMjMe1SsW002T5NiM8u3xezUV9eW7N0/o+asREoVmcnFUPa3GCgAyli1KMwJKdVsT8ohtnaeItsE6648Ekr7ctJTUMRdYOnFBTFqA+yTdLzjj4gkvCweelP6izU0MlZQspMDpj1yb4yMZf5se3YmIQaD82W+ou1vD/Ja7uLOGLxP3DEHLPqqupGAbSF4noc253G6QfEcqa5f+1KDoGSxze/FyNAQ1ON1WJo20VvgJSLm5+fMdjza+XaZJoic5+iIfhIWTdDrVMpeEvgKd9pidF89R2zo9hsJa1KRe6hTSJyXmkZIQ3mFV5kw8L5VGOKHMpIUNujB3EbQTP6qG9fFRubt0Qw69FP2+vpQ8Qvb2BgM6S1b22EbGkvyeptX7Op08VgIibSJ8qvy/SBigSTW+LVXwsnb8T7OwccBEFVnN8NpxZl9oh6WiJu85BouRhzseGpISgoLrAJG6sJl6lV7ip0L/KjgtnoJOyDCqp7FUC3LsxoYEZbvIJUaN/BKAC5nHmZNL+8DvdIIBZKkitpDbMFKZ5yEBs72+Ztzn5weOQrgpfvKsoAYvqQ2bEuBUVmsV95LenEhsdeY+FvTvKa2uEovqYVTMQJJtznUfBW2RZvIfZzw6Nfem7YbagPdyos9t4i8ZAcq9b/adIcoFb4J/Q+l3KiWxC2EAEko3HjtWWJZEYfGDoKe6XN+JHPa+PLonjkYvBwP2R/IEFicTp8WedxpOfhmhOe/JWDKB9CTSoxYg2EuRO8W282r/AG8HKxhw3p+a6JayuhbOjfmI7qhtoBtZy6heaHDBVFk1cy+yw/TlWU6rb7I/dew1YtjGa2WInQjtaI/2o7fkfrdp8rcu3Z+zBm4JPKV5IGuR2CXAYMBIM0ugwXtDw2OFDlRwP3wN+GpdugkXCOKW5zgXDcPD/WIe9DyxQSm1fyFpsQ7tALLB2x0uBI62GZCmLYo+AgbkW+A86pR8TolCV/k4olLNr1nxH8ULVFgJbuIeUQWtDs7CvuPMR3Oc+gsHfEb29grHpSucwsJo0QagQC0gPuD/B3/F3RMMMx3JB40KUOjiG1FPrYN29T6W9pbAEedovQ1Ln6Un8jRQDC58YPzYXPhx+btjavcw5LzZxGxoDCeVPOixb1OG6ATvPLWfAsb+F5+E2ugh1CY5kaDrooy/DyPLmEFMP9HBPw7Im1u2FZwq3Oj+nDA+JV96twCzs+ec0YZfaqdmcLnl4q9uVz8Jq2/s6UeKg/eO06bC56Gma4bMF+KMK/tA4zoJREgwfhQdEyAqjgbiFXdH3QZL52qK7Yhdz3y8fPwuZCJVyO0nNw1YpdcAJrDva2SW3/p+jfcT2gySobrmvk4mJcfM1+U+SpRMM02XYIaV94yI8hnUrxg6LO/WWmYurSRjJ8kLI3Wm1M/LBn1nRAX7SY8kpS2NmZVkXbRWvK2OSYZcW4FOb7TES91QD1dAiwqBA3dNlSo0jWAzgdu1LOe8QHSPdQilmqwGLkZYnheEp5uuHOwj92IsH9oSOOiOKoSwRazltzadm+8tT8VcsnFQUGY64lDXRdacvV6TgCySgZ9ACXcRl/n5QHNwAXoJebLsVHBU9qO+02XW5NTWHMjCu3KinS28UNAKklw4PgH0iY2bUmODHLt41+iLmphuTnh6yIaQ+IumVBAcafyz65T4qSs+M4TT/Upo5Cqs1MXsQOXfb0bpAYml79tr5wu3O85laP5g7W0/oNJD6N5N8Pw5eRP92uHAGQVBcsn921TTWbGo+GuJtf0TuqN4O7VXSsbwdEhL4vZgVYqLZTWgA3+1/yeWostjv2m6mvkONOF8reL/BD6fSafOyBhlbyIZ9FgvSkOEg03m3cKXeqdmIErCncDduZf4k4q+GuDmyRJnQ3FcRifn2+AHZRrTn41C8T7busfOy4nlbVipbAQlN1TP/f5rMJhVnmd2L0U5We+HG1L6ifJ224JleOhjXh5DH9SHiPvI1/LuK5KAnRI5Bp7KQf1PFvyxxJP9hgm7YkGzMdM5rz1Qh3NAGrX/8bDbMm+fa22Zy6Ldn8J2o4bikNn9LWBy6IlttvRi/y6KpVen4OEqWHgwyzz3rEClFXtAE8NMhGO9dE53pcHEfAzb19ugNBl8Hfvi1TG/Wy8wZc8/ltuPIOKVMWu/OYVCwULsp7cZCkE2EU2CB7dQx3jq7cATqahirE1rmSOYmlpmjR3Y4oAatJbrTqhT7+tTqND9OA1QpZqjpVZGmvl4PW+3e+qL9Ix0A1QgarWcFHKFKLaNKedCE9aMxcJP5cQVf7p2XJwxb4sGyU4IlBfEi+VkIwcG3ExUacUV3q6YVCyupcCMMrtRuwUuZj4StXk3eZkznop9C1Z4/CT3d/enSkvZaGJvAUFn2eoz8NDlxcVtTYRQdCk+d+P1ACIioDXHecdhMQlykGcL7UxSsbcSJxTo0OFgQDvgPuD/Aj+ET7M4qwXXBObADcm4wrkd+uqZEVuPgCrShQ9bogVq07WQrTyRUSfH2N9k1EXslOdpgFi2xtCHsMyoKszoqzV8cAp9Ug4XLzJbDNyQiMDwFMHr2BXxK67I/xt618+4WPe1MClPT0N0UIxWhCWbxaE7aD/bNrsgR/gl5aa9iEiHu6SKX8RIaLymu21Xvcw2saV9Zh+rbRCrrMxEORCzksZH9dZfsPkUKfnu7Z3dG/W7rapY7hPajSHgurj+PZuE/0Evb/v/iXoxacZKugDHIj3nHx/Hw7TSNjdGMpdmIr4vUPYd3nhYOprxNPE+7/RfgfBY5UfuBoNbxX+/cBE/lftL/dfhtuZRLROitEYg40SF0ZNX7DxHw50lHsnnUvMO+9M3v2tp0/Lb3IUvioq3drNtWBeINjlu6PDMuaeXb6nsobdirQGzb0F5wQI7TaDz96ILu4MmG/jt9FwwwfeFdpf1MvhRzEAbYjtFeTm+D5VvoxxAfrPYVTLmFSBkBAuFF0yX3l2xqwzo+4nsWhW3lVz6TnIhk49XKlJgm3Hrbcfpk53J+rPQSQJylPdVNak+sjZH05iqPe7rH1CXNBC4rlDBTCZEf89cOcLGMTb109nlQTyQZpsj51GnT/v0DIS/FWzER1AMGhn5rUgpYLAD6Ls10+eOXLUOHD59TnZcZX14cgMs2wcugDePbdvrGLxRr1v0Q0qQcopG3T7ubu6VQyg4N4EJZab3kxkC0N5k1oqjTqzLkUnKXWYa1EaKbRW+eineSkc7BVqiAfD/obwK9w+XjKU4S3/7ZTZl6m/OL1CkT1vbs4mnGLmnlAgJlOx0iai2PLthqvyFmOoVLpROZDUOO7o9iTbOTxwFY8ToRNVa8TOP2MJf1HFt2bt8fqXfYm3egqk/GdR+fkOAlgi7te8SYyO5X1iJCTEAkijuhUMAgRVcHdu5FMGFA3+m06kaK0vkKgWeVwlRVlCkj1wL0DHVTqhYRdOQHr11t7LjibW6bgX35fxELlCa0UcP90kB9XW1U1nJAshPemaSEilivgNkHoUOKF/BExtGBBGo+rMu5oKMwxRwVF4/lJboHvGs1RPNQGO2D1djMuvUeo1Vkazo/5gBaF6xYQe+X2nxqVzgRGtBQswrSlyiWCWiUCgnWGz/M+On6DN0tulz2O7gexY1PL+G736ueNk+n0LzKNEDIEBK4D7g/4e/B1wFMlOEcAtTUCNWBI8RWEdfoH7aFxj8aj7i9qDjyQidg5IK6RQQsERoMV5GEoGk0019vmx8ZgCrsjGfzVDzMEJXx4QQQppqDkgGA2/78sc3pHcsuiB3OaNh00BctyEakiQSX0epFDbn/0xyKj8FgAieiZ9BstZnw/UJW1o31Zh9NNA4MJNWM3/d+Fad8gY93u9RNOZU8hiWFA5ltefipNq8N/Wl85nOFL93UIiCQTuUwukIs5vNgwJRxiMNvsCqgvWmQ+ry5g4oYs3PcD0xrmZHknGAMN2QOYf52rocoSikMMhOchVMyajVdIL5KqtOCcGdDFGCnusP7eDr5CauOxNhA8HYi0/vJlaux1KuKEpwKSEZlSNjOoD6OJVLjzz3vkm2vCLiQ/oBnniH5U1jfa7OcInXt+bYudOh6HEcANmaX4WBy+Ygqo3AUmQc9MRnvl4YS9Y1nJfAJ+UGf6xiCCR6LYhoS83dYjSX3vI8gO49XblAxapSvRME1buuJ4n5PbDvTv3mbTkRjLl/jBOZJFkwsFymsEczIXRbz3nVFoga5aRyJ0pXqWAYdSvWl6P81Uby48o1KnrudmHZIboJ9pSCht5c0nmYtlHPpVnBzqzH7SMxs4b3jeOTmu3I0igWswYe2NtHaGk+mRFvw8qzkikol6rySh3ie9H/M/LoTb0QBJkm/L7xt/aQ7gq1Q18oVXQXFVljEBp2IrxGt4/efFskXS1D2s5r5huMkU4wDdScn4i1QAQSX0vbN/r9tQ6kzImgic/TNI3fLud/Qslzt6LvH8AY57d9JYaDGpFl3wc/2OBV38bSrig6wTNnLEnGK2BFht7jMS1RiOdCBdf+50Tiea0JaQMBHsAMe05K+IvpjcexohtvaJxTGMY09MjSyMphHp6zlj0a3GSTyJJdPifisryTWug3laeYY3hBp89m03ohsYFHG5HcML+7OyN+mEXbKRv12RBP+Xihbs64YAjI7TYj5MrUHXMpa/R03uSs29EiPCgXXY27IZhtnb2UZcanp8qodpvoFmFbKdXnGJc15uwr/tcUj1q2dODY/yzfE/egEB3ea+UX/GhCam7OFewvvBmhulFipj+4ho/F1UPwUR7OcIEUkfCd6VtDEZC99I0oA8ldaBOSw7nRPzq6jKUXXvIlJ2TNVRGbT0ojVnh3zz9m2GtgIkUma/ERPXiOp0d3NAtZ6U7k9ZPrr/low2Mwy0xJyziASX2O0voIgKJj/dflbIBqxFhj5DhREvye3ilMn/4+GAdTFqtCyDaxO7xN9hcW8Q1UJNAvB7tPuKuKlDHAsujYQoUUM80TeDdzBzuC0I3D1LIihauXeaNWqCnvUFMx/M+dJ9dC6A4XgCuK5SjQ7KBAWiA+4P/Ef8TUCL4dFy0aY/JT9maGqMpiZzDPIQDU/0uRkI1rfBXstZWuNSrybA9xtEfr7TWLvUCovtGayteIfB4iZInteVmR2dioCGpmb+EeBcis5+UTNl3Qd2zuvJHuuOXPVwheRJ39AnjdcwSw2wNDZsSwq183HaHNoqdlYkCNv70Sylh0tUVPhmpzOsfBdrnLmirQ3huCeHkaiHPz6FcU7JoVGv7uFeWw/EXO+Qqm16CDQw8c/LS+A8JukvfZC/3XL/3M8y8rSia3ny4AwBF/hmEjybwAqLoAyfsrhayjdXzHuNd1hAOfr/v8CyQYoFZG3GEY4xlVaVaMddSZwU5ojEbNmS3D217ehhr4iQwAgwnOBsRMnLNZm/oa+IOVtw9dwHmqR73Yg/TfeZbVJqJaH/AWGRTbPQ/nc1z80yrK42mK/pQB6RbCu886daP1N6/pX1azH/tVC0UXPdbvvWxYIqktbZzJMVln3xfOaR9ZVYAg8lL2TzjiXMbbAN001LJy0o1HVjgI97JiaLqd4ovzcp6r9St9GGppTsWmxkv4Bq81y5AolvWi/a2TUndYXeUT5HrHdc4TC+Ya/26t3oatNaHBzB4DWTZls+lga7M5oFyzMgJc6gu9IxvLfebOAbbjgR+1ePMn+HbHmscdz/LBNq+GMENxaBEfUSqB7+UNapA149ikTL2+xPfZTPKMtDw0EiHQ7cnZPLa9fBXnu5h1FG1/7vshItgRvJ0sDa6zEZBzjQGY5MOjyVvMzz6XWgHykbDoez/v8qknpWrCcQjT2WPOsjtY+/cex8sI1E8b7vTTMI1LERIZ9jWN1oC9DzAbGqKe6xi6ZtafKZaOMwjQHcktrnvxP6YN+j2KFk1d/RLE82QP1hWgKP8hXY0NH06kuV35lTxsNvO+EeOE/CjvV/4BNBQlrQfw6VE+V37mkhiYdnbloCS2mI9dGBA5rTBL373Ku/rrIFC0hQ7GlGC4e/SaTCS0d5G0zLfGPeb+qBkJIwj+V11XJn6b/qgL133Tf7+yGbDa4nKaxviGH7u9zTHs9PMsbF28WwMi1C+7yL+5h90FcXdXIwS50vWiQGv3TlO93p7JsQXvoRmcsYQ0jcmK1J8IBsZ84nlZ5I40WtqbiTVetY5IxjO6SlTBRFgRE8uKGapeC3TshRZq3E5vtIg1O6PyesNd9n79tuwUSWvdeXEqdLp/wYfDYaFvxdeCm4KHP7msN4Myd+wMOo+KoMfXYN5hPe9kPr76cuwo0PPgQGjgPuD/Aj+F1MI5h5eZ48YWyWTO534x9e5rUMBoPfdRrP1QkUYBZWed1mTeoFScrLWIEelbPmkeHslQVWslMULFfpc8etuEQki69hNl9x1jX5duYadRLCQCpr5FihMHoqfxZ5+1h9t5rus5spyP2GR97LzCT7Py8eUwERlKWgXcrlYYQR3TnGJwQgrXA4zTpf9a8POjaQMTHyOyMwXosqJ/yNSjtgtqJuKMXf9EH4+jqVmG3ijTPKC6jhBgCRK68zsC5W0QRnKHchO140Xx43TKA/2fEY1uMVrR8T6JPKbLI88RN6TJS8GOi1BAqkv4Aj6PKbziFK1MZOg21VqXzIo0Ykpz7AmEycIfx3iLNuw3fOy5FDoF2kzFs9teQosS2hDbNXOPP9XKCegqpoUw9X4GFgZbbCzrktAUnI7p0GPsqRtgoNrRlNfMs2LlpaA4fHrZI74f/eIJ0gUpOh8kXLdjJsdZ0gGkBallhnas9hBudUBr6hrMJnBuLK2uurZlWQlL5aodYTQQVD4BlHHXThUV+h2PCErX9YBkD6eDLzd41N0jDa97Uxn5O6nrQmhM748a2ESRlwixZG8LvJOQohKP/KIa6U/6QSecbE1P1XKvXoG5sss3Cu1DRjt9vWlmEc4T/IZMH9Hezmcqw927QdY0QSsheuuev8kFb3/qctP6IcZ3Ze3PtVzEGBq+uMvBJWzP7xtilOGZB6YMvxuDcvNktYZpnjN8vKlPQtkrWi44exGKoOG1flcDSQ0xk+CAa8GCwxG3RGBUPAl/non8FGCae8vt5i2K3elZv4Rtg3fToytRqiCLtq+BoG00CULzx0EaICvL1GKb2K+6/RnTkB15ROTHQ4r0jMNme9GvjBwmk22LV2WxGwVYVoYEc5+iRrdqvrSxB/t+mnLYMcYqOgwzNiFBiWWU6WTQcsPim/RyZ00IadrQkh/fbM5Os/j0LEr/UyMW/osa1tzGbc8pn4dexTWTMLhgJQ3LbO61qFS3F6LVXQX/UPRfK6lcNHvpV5ESctPH5hmGGYd5eFsskeYi0mYgAIJUuCo+l9TH9FTO5LkCKF4YS2V+Bov7swQ06NDGuwFFp+76bbbmfrYawk3SjUHjx/B7+rf9/as1tG3QsjIwjimPsPgfvYgHLRMYZBHACCq/uMo7DPSTry1QX8XIrsH4Oi7zXjkbNuuNkZkyLG/1LshN3DQ4qhQ+H3WXJlrvgyBjuP/o/Him5wQBC6IBgc2TZ3LjSGlkTivBHJ4WZawtjggRxSYkyrs7JdS10z0iFpqLC7Te+m4w216o0OSgQHfgPuD/Qn/ETuUi48MA3lGz6kTdNtLvY8t/rI7ELgJDXylqhCL/XEuWXO/Fu6cFkhFAzM2B+0pYxTbceo1GX94TH4WqnwJjAqEL908bwnsNXz2knyZQgqCKqHr45KrkrDueln/elJdpa4q+FiN/liv+OSAOBPjW7WZqUSzxoQ5sDcy7bOWtGEjxdi3Gw9RUsYJqLmVMWi0XRzS4eBOsSbZyz4eZwD6BhW51LwK4Kg8ziHtmAgMtkw0qpUHwIsIo40xtKJFw+qw1XTrcxtUsDigGu3i3U/OQfK6iTYuLRQdI1AcSt9sUjJS/iMVLG6UHONzDaQAjpDOpLPG7PTaNUFfPydem6Kt6N9SGxXBLZ4esySoq0VPn6aSWcuIpYEB9okGJ7HHVngfR5FSx34vxt3dIpylXtGSpQgWrCqoTQ4SP5NeWMkMzCJIrCs/0iO44W0pjM98jzFrUWCe+IohjUhti4W98RGghCfiHmKHaz/EfuCdwbibOR1BDDYP+OXDwofkYo0Q3nZzg3PvotFEx23Z2LkaA23QRN5PJQgtqzFDMw5RGsyzY8VYr9gLXVQQ26bOO+GZt+pKRrQMqwAX2jno33+uuMul6pMVkw1wgCkV70rBg8k1Q3p2bcZwY+xjhtaEFwQX2/pwaC5zM4PWWf0De8QlEOLPpKEKjN0Uyh6W5ARjJckuAvml2d/SdVKHUweHYBd4GjZN5fVAMI59V2FMFTY/ZVP/RPPZMe8lR1CuX0LNNIVUvHllETMrn44jw2P2gvDO6XmZbFdKEsq/jzLgNXgqDn1E2vpBjtnobpOdSJUMrztQGJRo8K0qWj0X2hiZuc1YEmnzUQ3GSWu3IBQYPCm16PRascFFszXulNOl19arSH486g10339w2d2pKB5qi+d8F7xWnruAnm4TFyntCTuRfR5wUFg4gPMz1lQq3khzOF1VN5mPI0uwVDL/NNQOtNKBaEySzSsJIxxIaiBrFVMUoHTLjQHllOX3Lr8A+W1QzSSmjg0elssknxYGEEom2y86G5nj4lE2Uc/BR6lAbFF6doH0nOo00p8a7JmLrtp4uR88aB+Zc+ZOxLPrknBP5sOAb7FoSPD8gw94nF45ctm8FhZsbOnOl5Us7hnXzOjsaN3judFvFH/Az0EuY4GX4zwJ0bbBAAQ122lKOQa525G5UitXOYQW1R7mTBz0o6fWLpFxR69ZiyFteK5R91ijQ/aBAhuA+4P8EP4XPZUQkEK/RY2JlcJMhDI8wWiVzk9Brv6rsVOFUPf3H6UkcCe5MlX+92r9GXEQ/p9OXNHh9S+K/oAg0AOHWmkU5vRGX+XbJYxMhhQzR6qduC1NCsNKsX1LNcenzIG6MGQyT5B+MdxR1BxE710UxMavuKkVt9wLc95Gt3TFKQzKeh5Ktc2BD1HFlPJnjOg77k5rEBysBZ4Slt4/gd5HGaLpZva9HS83ZvA8g9Ghi/tLcjOyJugjOhvKEEKYjxnFfFe7zGtsvqacdAi5AF9w7rp0HLO1Hq0UDqMSZz3Jba2wG/UNVn34kBBVtkD9DysuWuehMr/HA72MwzNqVm5AbkYTE9oAZMMGXCMiQU3Y6oixp0ERdHHxG6X0GGdW00uSueQfpfmy9z+p9F6Ol1h/ynMrD37ZFDbqn0Wb9gdzT3MvlMEXUoZE665p89DoT/scxYKKA+jkscsaaQuptGp96LgkrcHpQipIu6RFOvSZ9R+PH1U9FtGO80/OYVOTCAXvDSCyqJGhYmGWN32oY2dZqDvQ1yp7ayCwNVHrj3Z0eTZw2EWZopWkbcqWINZqlnNvhv0GLZ0a5eQ0nOWDLFWSMpzPssSxEjeP/N9J1c8k9fB1Za9HJjVmOD+0HaubWV35G17wBZ/XkWsEuYxYdzY89wEQ0LGf1x54FeqN2hRJb3coZ4P+DeYwtnVMZd3iyHMzXTyH9Tpp5NN6xoolFoBbtVzeV5a6DG7Fzi1Yw/Z7KPgbzESXPhacb5TzJSFThHFywIjG2UZ3Qu833Vct2DjeVa1T6nBIo7EP2RaeTu4a+un9K7Ba8+yagB8HZGljLLuHX2Sm1CYX3ofoESFsuIagYJxQHm2vOmVQJ6gzzZ5TwWS/DElD8fR4hG5QFeFpAxmFJzvZJQZccz0Ggzitwh+xeQaA0J5QlZZYzA73S46P6kWL4viwUeGmlUs9o6de0ZOm5sED73o7RN3KAcBUdwXA3Y2YIR1NWMZJIPLiEGcflNxA74lYAgrS8FFnY3f9AQMWEHDig5mi2XX+2Fttrk52xnCJ4oJfj5UinzVM6sXZjgp3xJMc3z0iekp1GIcygvioq72WJ4c8FhH+O4weintDHwHm1A7gbTXDNjXlLpSR6EJjigeRtiw94Vr32/oQdA4rYJYxYKwRNesQszMiPx9fBDBW5Z+XzwdHOYyNaRqrWZUVIchbL1sJ1PMzg7qwFY/aYSooDSbvPkQzVjgsa+YWPV1DyLblZ/FvBcWKw6bgu3Mf54Axx6C+3I6ST0ECmrzO3GNcVrmzJp9WX71xCMB8JhFD7CBR6gR3q65Ei1kJSNh7U9ncVk+v/kYQDAKgkkCjQ8GBAleA+4P/FP8MPOvnuZrCqk1lXYytEttruyhdOtmpuVqX8WgPcC9zxzIQ9TmwzfMHyOkoNm3jpVZquTAV8aiSJJcIAdq8VGeqNmaQWDJw/2Zt99Y/jqgrK519wyBzKpWSRJL8hJsci3zdfCpGmXFrHRlXOB8aRGN3qZp7PG7ZFNrLKZwEF7KjZzCSyDKngOhvEw38t8+uotzUoDwswg67estSHoRpiolOX9e+QdnM4Z8AXuUeGsTV9zjbgaxdAneuv6m1iQZIZTd95/Q9fAmc//vyQt82a9RcX6mF75dqdP2NTSMm/M9INIdCbsCOlNK/MspnM72fyvwEubLHTlf4/AhcUd3oZB+thxX/QopZsPrEBfcB9jxdYWCorRx9PW1nvv6RLkXd45+Fwph/6WdFfhLUAhOiv47Vb3oi2tgSlQtN9De/PHSZSadsVzxbKbibrqITOALtB9082aG1RH5szHPqmlKBXLkI6fd1WRcNovlFSELJ/SS24kppwhmjOEYXG3kLpSvCdIW+vBMRoXK7TYgT504h7A2P9zxPxkajp2wOBKAcwJ7z8Uqf/+R6Y/H/WgpPoeCY+tcRupx3Co+4XFIM6X94Qq+mW1YJkXVq+mPuu9msbDos5vDUoEAfeFFSwKC0x1gsxcUfvRizG0EEF2B6n/u/suFr8x2LZ+wJoV9BkkSGSBy7x9Laf3KB6u3+ZRMq++deJJztMz9cCLveoo6cz5Ut6VH8ogQEhsVuIabQxRlBL3r+bFHx/GsNSj5HPihfPVMn9O6IFphwv7xXqhzMXFVZuU4CxyHPtgyz/mC2rNvWGk36YCFzVr8+XNjSZpSTVBrlwxd3ecUssm0u4u6GQS7OpUI82Vtl4KOVCwa4EOYpNnketplxZDx8ObRDAxe9m+xaAi9qICnEJ8hP8+XdxCy/xf6keVXDYWvDM4GEVkJVQKn5cjfdJ0WRR7lsbguKazlA3wYC/G8TXtv6h4gweoWbj6DDtSlxz3evYD8bxHGc7QfACA/axaCOLqP3rd0oA0ATlM3jY8JLzRbH+OjtczpoDkIorKGAp8zosIlYTHz4NJ6hqfCe6gBNjYaMDYL2O9DlTcVxE/RkvlmjBCdng1Ki5OpxMcMxs3nOnTZHQobjMlcgTlIr9vczt7PknWc7BV7Q3UmvBQay74vQege+ArsFzo68Uc57ZG06eyNStiSYZcjprmwtmEKGAa9FC032GQIlomUZT5oGbJtqhxKdwuaSrlTFMht91z4Al1ekq7pLDk+ysX/uPBvjiF3To0OggQKUgPuD/wn9Cj0fPt0xr1NJJUvKvKO71JOAXpjgw4Wdu3onGo59CJLCs0ejND5dl0kph1BjUr0fmsR/95TTRoUyS4TeUtJ9GdRrwX+6f3w+siXQE15b9MHayAIBBWeRE/eBZ/qHznAswQCBvdpI15j9Y6wT4IHwN7WTYd/MmLq4ytdQSq2LFgPXi/fNRMPz1vai+FBFe2BuyrNbTsiZbIIdjQgYcJ167sENuhdR2unaG2zhwoVRrVMGK7OjbbTgm3c2FTkhKmp4t0dDVlcgRGccixlql/xUtDyAh1SVbKISiukHoxPyqvs6Ckmuxw8bIwtCDOqlRpPhhNUGO2jlAdNPnp3+oMwz4V3AyVzJG7btTiyPEYU0b87zyOgU4K94ChZ2ZldQYZhnMQWVhFKn4oGvwiwh+cxpllnZzkxROzTY+ut50ywbroVB9X6VT+wb06uXz8BJGKdAw9X/6iK+frv0mq8h56pLPRh16bTUizmDcE1sEmOvLUTpSWz/d/3xlX11wyK6Fz4CfJxrHsukHk+gnyt70ercNjOnmUR5X2hbmY1mbAWsRZBbJaNtOeUUeJL1Ejb9zKyNQaB9EpwLAMP2t7HRD2JikMrfkxhvUe+OEw7+ePlzr8kVW/E5PgLAFTk8PpoXJ23hcFnB2ZtMjhjQFiZgQQHJLiF0WB/byz2+EXFfwy5KRwKQn6s4pd7c3V8biK6C+43Oix2Hw8K+pZbM6clyPNNIHm2enWhpDT6xsXGcrykNeWP2ZYGFnrRlQ0R9l/ynwnFN7N/lUApGCtAOPCOXOnoK/kAJ5Faml6vck2kKKb49Vn/xCYeuu1vioDNbkrgAuEDxFuF4m8/LNy1Jdhf0vq1SQYClEbn5xyjrwQkXPBfigbIE6i2XA/oGUJZMYDN1qXwr6RgSt6A1c3gnMvojy5BoT+yrhs/EhW5id80QLDt1Rb6KmWf9IcOG6DqoEivsgnM5XrhhXDMLM+MrmX5i88qi0IymFAOmrEKJR/WKasoSiFRTWoNgFnt7JyOM3loQRVFwVYsojr4Zcpm/FtHmvNBYGL7NMFe0VIYVl4gj1EIP0yiywJEIUgl8GxsZS/ptS82wX4i5fGp04WYsOHg2gAyUdEvBwd5wtg2UAeoW7gHI7smc/Hjx0l7v4RGnfC6DQsAEFw+lAVEBOZ/EoY6a511QOxpvF6+xfhyh/lmswW677x7YquJAna+cvlUYUa7e9JOm8s5w+EPeT6NDsIECz4D7g/wK/glTEjYLvP8SjjeXYZ0aidQ5pbk+YaL27SVX+kXX1N7KrIghcRqjfvHnCRLD2bqRv5rvFZUFNMnVIKNPCBpfAqHHrwmC1LLK8j6LTsKFZxjj8/p9RQK9uvegjicFlwHp7pqNf10B/xBGy97KbLGRCjtXWT77aqFPKfRy/oZjOQyilJ0JrujmNPuFECHHLCMvBE+kChYpEiU7VqKa6rlVjKgBMq0hynVHAMcye2HRzoMx/Om2wEEh17/hKGk15h7tc2BsfRIdawCBKANticwqBh4MEZU4s5gnbtt2TFVwmqqjz8tPHM/U4F5XKfqJF49BmBrZdFnv++zr0ehVxV2W0fpQrc/tSqq+rFsWZYDxrFsk3Dt2fl1HzmZ26YQVqRw9yN/CAL3vQScd7hxMRyEEVMuAasSqqC+6UtT99TPL1CcpHiSeWPg2AtP4n7bXmqSj/j13uzO4WvcGz1FoDo5+lsrQY/UK3dnaHYjSyCUGcCtAXPA3y55K5QrPfY8VpJBRObpujR4WFVeBNNT+n/aCvjqCf7OZ35iiwwBLd+ddff5rqCkLbaIT1kkN3o5oRdGr8RqLTeWXSI7I2wYRtB7Pbu9PQnDlx2uGuKMyby24lP3WA/P4gjKVabWeTKgvfE4Rqvejr4cNf5rsUwnB9Yn3EsFG8wRoDPN4NR0eNuzBSeVZZX61tl4faR+nJjtRtXIItLWHeIDnzzwv34SylfZuly8KE8CQ0u2p3sO2m6/aDLOaaE/amURbD2y+g74nz2iluH+Tcd2a5nlwXIcopzyq2pfsBqTAI+mtnNIEJDxsf8ww1NmiO+JPqzu8/aBfWlTzjMBRxCIXy5G/Sb0pvkNgHBgyhQxacbNTz2Ny8IQDQICol8CLnJI6n+vZ9DIQ4IG1E5QCihz38UTAqbRS24+f2GFC3CU+HybuN4ogQ0RXs/BeIWmggYcT/ctE0aHP9Inx/8/r5HvvpXjQRHmO2v352B3VIv3fS/JDeGfGRMhBuuoK8x7wUvRa6EmCKXfy9WLBLbhfdHvvVBxHPIAWbMEfuCvDQZw9uR7rGEaMQRdammE1MROjHXI52ix9wPvTD+4VKqa18KkbEM1I/8HtwK1OR4szIgwg/i1R2Sy+CP3VvW8A9kihbJ8a7XdEVTTdZ3IHWKhE9BajiR8XHtRLfQzDhAHnKDMTp3ISpQnVN4sGP4AjAR2nJXsCJu7m7+dR7PEH8wp579M9h+o7GwkP+6hZ+jaKw/WBPHOQo0PigQMLgPuD/h7+B3ilLZkJgwUolfouBQt4dN33j6QJYc0wO+s7K+vwN/zjaOKceQ9s8/ZVF7uargwRVLyZM5SHK1FrK4ONoRgOH4iB0pgR6Rc043qp13HSKTHUvWKA/hUOOAmzYWT3SqJ7n+aIGNIJOZZuxFGBr204CfKAGyHlmjrwUtod9+IBM86rvmqMdf5bRp39pExQ0Q8MlPt9dkutiX6MjyxY185IikzlrlMZ1oNAeeFpRLtNFNybpgW9zNpDuiMOJXpaA6Hp4m95jrK7hV0rKHMBNbNtcWP3LrFjAWNaXbA8l8y3+WUrz6iECholri1uhlUyYCoc7+nXmVMUSDWLOkdokwQVS+mo/p+brjvwNrla/yhtcMYtdL3nAn28vNI5reIfsrIn1ZPjMohEpQkIXpJaLdCx6k4LS7y0HvirodULcW9QkIjTltowRYSJ/xXBCekk/lKczKb4YdymSQ61DbqWYjMofjK1i8elAD7WrebyWQQGDomLafbeIlG9UGiDe6uZOCcbTcucbiNawRpdniF+yr0ap0VeRUT4/yUKZ9oXKIxg/FgobensgS1ahoWgbs4Nb8T2BBtnxYB/in6EGIReFu7WWGft8iby8ijTc6JXkXdojKQmUQmM46pNecb0o9+j6i6QrLoWv9quloypxyCJ9gLNeqc2dik9J6PWxoKLmmKTmPyza1Y8R79uQKxbSGhhx46JXul7xtwENh+j9bVRkGGUDmPAZtclK9ck0LmmFGFH1tlZ1hX+euKUb3QfwYxoYZAQHnZ5A7HlfZyYe9lxe9b3g2DqsYBJB0kCv2Pl41v+K7R+rxPddJghTS1kUXoVs5gMQ6aDZweSXQJQJ3pTAXctQlH0M1MaZxsV/xPq6+zrOSmGPRfuuvot+o7YxgfQoP95QWn/XQ56zn+Om5VRWzemFdjbMWOg+Ayg16akr3+0CfXqH/YojILHwtZpx87n0heV3zvpkKaEuOYErs57i3o0ePGfTyUR7zfUp4yPQlaM+akJ3lL4UtcQTHvWEWjjcyfAj0FAqT9fNZY/HZ+rIV8Hd4qV2gLS7jvW4h7QCV/SzZLrrVHvhpTKj9DIfS+7DJcgtKE8rxPSrdAZsNurwXNPVIQ2mv/lTNCmz0vX0z27tlhlfHpwaOh3taVdsSNwlxMmOfN9R4mbZWJDXOU+HyPabDrsgpYDk9Ax5BgW0r+rOGQ4o7mUNgOa15ZdzcUSN9NfsTxnztiAY6Srr7UbVOPurjM/Oncka8HeiXG+xDdyf/pvB8ziImP8m4dUVAW7yiNqNEnajza3+p9sZqKp2Pf6XKRy5nBjfVdS3KNDyYEDSID7g/0W/go9KcD3UsZk6a7NYlr48fjAJKE5EIfvsYt2Uk1LmvfnijDPmrKm9cqPEJbmYI/00Qu4okcYv4TtmkoVhje0GRVvNIP/O0Rn7y1opp9BIVDVeWFidykQzIfKtHfgx+dmGN/4msirmFySmb5fWcTebBQ8uur92IXC2qiBERClG6+Go+rfpwQsDcDX1uMbdiDqfPGAHfQv8RXlwSAsgZiEMHMAaR6cndA3lQfzZaiSEuLh0esuDJf1aFVXBrfDlU5DJLTcOuL7YhsV9iwGbPQkcrafZ9xHOPOlSb6D2TPymJnPRyewQkyR4sesTEVqZrkq6iWKd7PfNVM6Q1swtAgnNkKy4jarEWUoO/ZWebflOp4F1v4D5fVmdqe9lMThXVBBBOYrzM0sZpdpnmpMSyNGbB7/LTih0uL4Yy5vvNESJo9Hq9X6P/Ytmk3OP4Y5O9j0qv1BdgOvBu/Noxkoa0tFAk8jLG0jMQAHffepuYJ+LLg8tdlEiyQ+Or5J/q2N1MoHxb/+FpZiShAeLnhubBr/h2Sc1glGWVAKe4m1oBzAkSj8Qp1T8BoOBezVkJraPXUXH5QGXstEMrgz4ureo5UdITMOdccv747x0JoNNFuZTGM8JaoAAi00G3FESAd51AAqciSb22tAW46wfWEYxbSuN4cJMc5g9sLTeKI6Z663McOfNGhSZhueYjuiA420Xqo/XLtwTUKYVScXqSy5+NvpOHvKSghLsvWNugGfW3WRzXzpqDqgbCTviK0VAWETjupR1vQrSV3Il0mx8UgOrkP6Z069IISNVZXpdqtyQNp/luzjMEoKvk4M0fTyaGz4IksZR+S5CfZa1/oIsXAzHTvkcfDfCDdPnsKt5sSVuh46Z5Y8hrt5p9dqL9IiMCujZw0d5EmmesOGMUJKHgVA7nFR+WaDk0iAyrH/IfgLaaN6DnDYe3VYF57ajSHFlLy+VjLC1nUQEUEqUemnuSQwnPE8HkFq4UywYX4Curv6YQ5S6H3y0bgncNySpeMfgHJZR5D+yR3VqjTnjuBmsolUl2oHebO3AOolGjedzRCEDWFTeM39ykeXGtn1Ze6k6Ik/3bhxfsisgsdiUSnRzGJMY+YKKkfpGdP4Xi2+Ze/bTtz795SSvB5G9czLFHSP2E/ezx4uTRsOtpia+qqi2INBcLroHTDZspjxjFu3H5arMQK2ySB2yHxuylMwX766AieLORFnobuys64pCmqz9V8c8TmfFyvhKHg2EpbaSv7XRrFaSxTUHWyIHGexz1Ay0T2vEi5YnaNDkoEDhID7g/0I/hM9kLT4+Kzh1KNpgEWNn4KOsIVzgqGmgskYIFF+6fvefRU6QCEorJKHhkqr/HmYwkxaxfTqn/HiLEXiuIWSwTRTxCCsVWtqRemk2kPo5sZMoDsFYyCiDb+vUsdTfw82qid6/Zp44hUk5cu9P3g8H4+Du+51yS1avQwUdFUZ5l4op3CiIknVk5Sc2kg+qDkSXBzHPIIHtJXAtbckYPEQld+SWadhXZwbykXKLR6EWPp8veCaTiKmgbaEXPVLq/IqvLKJEsIv9ocX6Qyo814fbjP9Q3UQOOoTyQLxo0K8Z8JnWT5vp3fptBGh0iIi3gjo1DBwoVR2rZuyxqdyI6E3f8yZ42qtyLqnQimjqCZfdt9F2C5SgToga6yrfquQu1A9bkDfEAd18e1ecf7m+r/Q/7rsm20pZEE4UZ/q+I8LNgG8Hcnrf1KPUxz010w+G6fGMfXC0D1HzRaIR+HKTuhtxXK380TuCTZG4ql9AXz+sk07gaDafaMGLxOOhjcudcV2V59ERxpnAP57lGFbhO/fu1jheOyUTbXX0dt8e7wlx1gKJas9pCxU57hWVNEeOtPdctDKQpxPrW2wPgGRftzA/HQQFl0zCnseO84rObKgYG0bIMp2jLrY4axipW9gWZgoApH+SrUtcGG34nfydVXz0e26EHNkBUqrxfVBWQWKe5I3H7o7lJELbpXU8tXQ5mzXMu/Z6UYaW4XPjpVH+tNotlaFLqyiuLGq9AA8uKCGvKk1x36yN3yXSF8yLEk1tiehAbRPe11AZrlA4dkN7KkRVFHCPJ/MBndVOePFQYLtg9gtB6Cvt9QpT9Y8DalFtXhZEz7/s/CqusFNa1HJNV7QKsp+GEX3EuwmH1XIWIUYLnsd3+ZxdoBE8RlpQ651DkegmulKvKKmGGqgCUtBRfd8VzXhnEcbeVaexcGlqLkCp+MYsLyi/hSVyEJ2dM7X1bs4KDLQE1C+9F054ACTaVoZHzMq5KnCVnlBrBhGzk6/ThrrFLOVo6O+3QW0Ayw1gubJieOA8jzfOQNLSYy0kgCuNTL/5VVA44ttq3jV1l6Zeexeco/EC9Dj0V5QmOncaufbTss2l3Dl/gGb5Jso63fYwk6JhQm+4KfBV0s9iBenpMLQE+A88OGxS/9MHmk4oGPJx4eE2k5S7n5VVD6BsmEZayK7ZwZbe2/bUlLmFr9vzOZZp8cRgXKrV9YZo0QHgQPAgPuD/h7+HHJVkwzi7naql6i40DqX2cGI09gv0sBj/FUzebAe5EaP24h7i7CuxRdPPPyXzZ65ZgCyKnv1GAu6RLxK2QcXdGvqTBZRCtGp4Q9BTC5yt46Oy2G3q0ap626oBt+7q+2aGJVJO0cnqSHwUrpUtIZTSwkDde4nTzfkA9d03f0Khkz0UUMsMRWOn73q6uKVLnlA8zIJMzjAg/KcXHdiFFXntspecFmnxg3fFeIJz9LWbxVGgrlYC9U1XMFXiBxHvdoW8/SScU0sWp8Y99upFAb5o1vKpkgYayGMSBbUgYCSOlUSbiJrAT84SO81i80WS1ZQAscGXytX9+aSwaeO2+qATl10Tf52Q/4gy14rhVXcNeSoQ/n45Y4vXPeU8eTU8v+hAmQw0SKvO8hcnMbI0ylRhvtEsVGBnnot9MdJ3onowCCIYCg6M+2zvzzqJuUOSFylZXDs/ztptPmdO7+C0lljg5TVr75g9wC/n9bD7pWkljXW5osUmpt2c3RVw8Q7AFsscqgFotgmPYkoZ4BIbHELZQhpUXtIDJi302CyVGzXANqrQUK9kTcrhDqYv6m51c7SbZmLWpTV9C0jNlblkLG+z3bX/kEDOG9KULnhaYmOu9vIxaDgz3PDv1DOPS1YxA+npjveCroY6/A4aJRjGuTPwmL8mpCUGKVB8AtQvWClTBfKusi9MKRrLT7bsQlDf4/W00Q44Ct1bNdMF9hTQtqMR3wMQ7ZvXDJLyWTnDQJU9kXSj5dStAZkj28bsuSQnyJhtbGVQaUwZvW6eMpnBkJq1785Lc7TgEHigYi958EEnAViiRIZymKR75LCgyEa/g7PPNQ8T52B0Lakr9YRsz2q+8SLj6b1lOhNWUqIE6WWIIc+7vk7tBRoBslMcc2S88q0qzlygFzWj+RyL1SBeiELPhwXL38dy9UQkXKXqAPMSYr2kvUq3+fHWnn0gna3JHZ8saE+1W5I2QyWnMObYKdyLJTryFWwU4+MtrVUFI2soeGnjCD9a5Od48cQVl+EcdNXglyAb19vbJKaei68LwcRrrlX7jjnVDRhPPLGbZDhEUP1FNXGFBGEzVtwxK7areVS0SmD4l4BbLfZzAnFLyowmB3jn8kxeZtqZIK8NGunJZas9OxGkjg+m0kGvTiCzeEmPHtyi50jFi/R+yt3Q8vd9NL+Tzg1MYBKLSlbZbJlpdHmJRTqtqu9L9wlmHboJP76jrabUXRm7ZRMYkvzJns7udVJZJlTSocd9wKgfU8neZBx0nravfbrKM9+UxYNyRJzDyyHbSCKrLgbicwvHpyP5pnW4FVAxeyvn1sDD/0AOSajZBQeiKriKhMlLdpB9JkXiJyMJYfGGbOcga6TawajQ9qBA/uA+4P+E/0IPVEeS/DDCLa79dQbCfLoI17Fn+0yYizmOS7KreYZWwKOpBmnsEB5JMub9KCpjOKiDwKH6KiK/C0TXBzpQAnP+2xmrj7yoha41AU3ahSGNZlP4EnXX8oy2Uql8NtlCwiBh4shlG4vSgHrQolkjmd67Sz1HbSYO5BgBTyKdcB2TX7F34fZvjtd9gaXT3JILuBCX/ydzBT3h6tGrFB1A92QgrHhsxBcC74Spgj37m1thPnL2I7+wcC5bmeJXhdZQHD1bijR+VR1Oacofp/B+bUb+eXzpOwM921po3glGiKiNXHp+nbmz2PYKWY/l9c83ihZrZZQFJ12yIsYHwNT/Lj9MIomJ+YobeepEFh87N5Idbz9MQQbtq88B88PcQiPQB43sYY49tu5x7XtJ/3ZO2Alkkf99y/PO6cLmgFR6aNxpnzB7Prv4vzMxT6ZPyFiiTYthcE1U82z7ht9abJcYeXvI11NnfeNlSlXmw0YaT9hszLe+YnBP7Llbhr8oc8kkRItv9fXZx2HoDU9SR7NVRMFmknRfrY6uLK/hCGqa3l73wwc+oviNDtr5cchQpTnmcBSsVvDKHjwcYPnrhQbyVe60jVijQxaWCwRyMIveJnktyWUGVDa6/ILhOHuvTAWyJZcshkDw61LHffNLmjJP25UFMyqjVlti+ssF61sIqp+2xlbrlvvfRFq4oVfsH4dOb5/vTpClqnVA8V4SP+oRC/9Ul85KW+JF91hZldQEIcPxz/T8ggzbI08o8w+A+lsUCAY1+qDT3SL9rAkvdibvooDOTES2pMdkIidXcfo4gXpKqsiiXFsKuv8ckvqaJtVbNyujIzq8kdNh1sqdjZdimdIvsFGrXDIxBjLEpoxdWQGyIPzZ5SJ0erdbvxxDw7ZgtAIIaIt92OLzyAsgECwUrMXdSO+41WUG6UFvMtWhv05luoWDqwEjQ7zSbT64/buiaQ22uK7esmtuZc07RnnxccOHf3pe53UYBKySarKmLRvE7zz9FL58LJtfFktVeLzXlJVY9YbA1Si6ID7EY6Drx+wZ6Rz+nQezmrdbZijsxWSOSjWmhiU+/VUCqlTLnnX1cpZIOc77MyGEn0jKQOun0e52IFZCS5vbL3D/EHqiaWo/3q/locapCNYtpNIPwfW6fAuUVP1v2fFFDynO5lcxHavu868EyOm1BpXod7ZMa7CaJ/NhWTy8TpzCRTy6Wqeyrtf76XOGRUMHt0+Xm4ayY2eWIhyeC2HmvUUp6fQJgMfp3se4utzHBuuGJA0ns+qaW0eYnXvkdG21AqkjL56eMmLUaNDjoEEOID7g/wH/BNAGXk8+umRnY0aZ71Ho20mWFp90b+FbjYgzBQmKA7jUHp/Xe3fnGXKbN4icf1pNswl0fnpkePV6xV4PfOrHTrOd4joJIZXwVpX7cJ+S23Rx7LPy/DRgCwKf0JFZSRXyyA5BeduHRRnf7dYRA+B/Dkw1IH11t3NErbHMmXrpjDtxfDB3wsoC/zj2kL1VItdMtHnvUntyxkpYmww2FAYdx7ruSdhmdB3Y0f2hDX08Oj5uBJobzDU2qmhRR6gUfQsG65+9AYLTqx92OBxdo/5mJd2baU4ZYaKAsjOis4qaQGKYskIaxZCUoV4Uo1Rm6zGjr8/WZxUIdzugs2g7xQI3/ypHDq0UdL2gQbstGVbV5baliothYHOy4PoUNpaQHNluYdNIuHNo4KraPa+zTseBK50tzTsdPMsbb1cJwiiQggZMPvz25nO5eibGR1V4WhAgldpCJuL2owtMvj9YV0qIUBlWAXt/iK+h0XSLP1WKC3miyjFgLG6LtyiyKYFD4ozjd8TVc9OYFKF7Szvpw3ws7HFZW4qQt9MOBi2hBWnZ6+llqzuMVY8BNIKBtnbGGz4J5VSd7nqwN3pEiq+CsjHrvSznAtv/2d0C1VoDgy/sBkqm3haCwONuNTsHXBmILO5VTOdWT4LPik/iczolTzL82Dl/+x0W44kkk9cF1uYsaI6un2TruJLhGEWTsOLJezaPoTICAQK3chrMJADgYyXInNcKF+Dd19hL77yZ6hxjXPfJ0UCxn4pSOj97hI3/Iejb1P4TDYdzHt3jCWHr1vYfuqgf8h4hfkiXDWEJCRCeKwgrz2Vw8IeijYaUDitdNWvXZ3P6aL1vnRU+ZfAbDCjbRHHrosYYHszEyQhipMPasoDF5kKt8oOUZDlG0OZmuT0gpSStwL21Z/ems8JniF4g0cc3jTki5X0xJXxbdl2o0UcSazP3erQZ1ZfWqF+lQYL0Q4azmzrPXU6Gl8rhVocf+OBk2AsLF6Vx9ak3g6wyc6QzHusobYdbFmQy8i3ZSvMwmLB8rtRzrpDQaao8xZWyOUjs4Kl+IT0xR99www6MswNweuulNyBIBEgYBvqfLRdJvN5EDZXcBWgbZYmysFjUTgYCfE1n9RUaCtlYuJZ9vCRyAFE6CNdSi+DWUH2GTSXxN4QGp1gQI1/5VdsXgyJ0wgNKSKUjNLSmOkMforkWC2rVGnBVZKjQ9uBBHSA+4P9Gf8McOP/NKdkUWArdcf2YLs/Q7kzkIcmlDp3tajmX4haqUswgEe52CmnyBZH1z4BrD9BkQMpRzlN/+x0Pj+coUr8ZTjqI0XgE/ykBK+dfJbepgZeRG32i1x3PW5lKXUicGB2DRrlJkwQrOE2VgxXCWf0C7NzyTLTxVOeKBouFxR0GuN+lIDSsuJjRKL5N7NjW3821HbvmM/ifxnonImjhbcjHbETCGKGJKcF5gNmCWM3aTVdFPVuLLFVqBy4LGQGU1QBEWI+nmHYBJmVng3jtl38YET/VyfMtNAicbMiHP6F+guYTrw1PBe4ZyrX5DJoUAxePQN4bLIya3CNuu2Tok+nQgoMC2tPXIelRxaTN7G8Qoo8Ag4ZZRxyFVpjAX9VUnnrFI5Hn5wfjPk4oN2+jsUIfqgwjEwqd0Ov/0DQAt8g/fxvBhQkKmz5pIO14fLLWi/LB9UDPTV3kY3+5IVrCkvuTeJQq/d+lr33w0vQZAIHTifADPs5KC95E5S7Hjm0+Go3butHAvBnusuGAQjuSyyqnNPv148plrIv5h+OGL6MZGIyCmAu1kwfFc04xhN9w5+K+6D1fOgUZM/0vfBeiCyrzJ7608WJnZ722OViopiKi4ZxW+ktVbfYXzGintSMEh6rGnyveC6fJSf0UotW9knzQe3nrYy9MgPwFj5y840ex1mQj+QKwj3Xn7zut+a8IlRZlZTVtzh9Uvflha9MwXHlE2ljTK/tZoIhYfhbWxG6QKT4bqgKhhkaaLcU3Fo2xNhDAlcrN+mcxdF2fGnZ42ad7cUQjYsbpPaNcJuIILKyf++g4TYYFNnrkKiRuBNlAgWLbA7Q1mDBiXaeaXrAPu34Tc+V4rRj4GJVZfbhrV4MWGs7b4lSS0gVvhk1GVkS/PCXnSQx1KKYjXimZFxZd4ucgoe4lQ6kLVUayKNNK/oU5pYjyFhjRh9nfT+7APRGLjoSHAlPFo0z7UKf4buVwAhMQwf8OvLe3IXH+t2fz+qbm/bXQZ1rXow7e2SmzUYZyj3/ZvqhBJgAoOokhKjckNnaoRnhhAE7umKuovM3dvwgfUIcjtntfq2bRxpKtE6BHfxo9cTYp9b+KQ8DRqlTPJnWSkvLNdRV2GeiSbYq5pEoSlsHAH6H6FGptZak2BoMy+3yA6aOrbC3xkjSlJ+KwTJuXTOxWXUbQucLMFA4gaR7bIYgOW2dw0cGrwUq3YttpaKwicOaK/jePXl60TRTU+1wI7K7lbGfmf7PwT3tfRsbS81LD7t0pyYgvMEArFCgozJ2fNwiJJCMoeh5K3liEMB/gAmjRBGBBK+A+4P8CP0fPyKRXIQj+VEmU7fsO8qRYhk4NI5E8U9IF9vkOjp4oNyS432vKE1ZGtbEBbjU+IjMJLzCo1lqqhTI/393o2+IjCPrj5zoB9LbTmmpu3ENzgbtuNAIQoQbgkDrbbN6YPxk6cWkP5bMGwbQ+S5OUOXSFCk4aN30OdWwQjHxTIvcUvG2cBUVOwfiCZNElEGcO88eBbkD8xljC1AQr0KbsW2YoKMsvQjfpbmjsZQbzGmHSN+qV1YLt4x8isI6TBEorlrMlO4e1XFAl604dzQQSbVF4dcNGAPIGHzkfh9LZlza6yInEO01ROD2TnbZw7R0CnRBB3cGBw+4pVGJBSXt0/Gs6zpahKEz2MDmdzTPIQvqj/zJ62hEPC+G/+umnvb0BfA15S2V7WATZyd7Vc1ExtkvzhkM4HvhGI5EwoJXwHAuLBrBv2x2pubjE6Fh36iUK4syEDBkGyncilHEIiX3t+2z2X43EPqyuaY+YuYH93FruMitWAHd8lmodkY7JgBP83tLN2De21c5HDy2I9brk9nP3cncC4uccoJOiCqan7eC8xYZG4D8Wcm2pGfB5sNUJ1tpNZ3OLroTtv9bjJp+X4XslCbM65e860pU/1V+HVhAQhttRMrRAl0m3UqvkY7yvI3+ZL393A1w1jg2WePbYX1XAbBTZzy3wAGl8og2O6mywn4nkbtvradtNUG2ozlOZArtZUvHx99ZDcblLDh72GZUslxZ6LF6lH82VNmtqhQqEIh8f0oBScmjsyTRcXuL1deT29DiHVi0Y3QEhQpQR8jFdu/AHFBOtKeiorQyMvEPON0A7+MUYa7dsXg/BUID/aAfFCs9mre3IWLDt4hlJKEAlBZtJUlDLLM1zWA+tVM/sN7MuPwDG3iZATobJiPxj7eIIB01aqrMzG6Km5AF/aRmvGwTL49B+QMKfizAOOjHniOcT32xcr+1UmJ1SURF9qU0BL+u4SicJvuLOvVy1lsF/VvFZVw4n8IhYaDpqKoii4JO0pMEyWSCrXqS1halWrhOfYNoz6JlqUQP3Sgwn1Y8o9n95GOIePZMIPRb4jNjuVP4Gs9CHAyGfjUgEWJegdHkZABhcpsr8AkDTp62xcylBlpu2MKNoDLAct4O0Qx334XDCR9eiGUsAdxsEAtPLpT7e2O+cbYjygqqF82b7XCRUbbxE5RyRaeraeLjUExKKBuQhyl+uBBg/kZ7q+i2aNUWw5NZkbGHmNDIhPTT0ECyctcyiERkNKPPAi2p7iwtu4lgkU/F3PTNSi+mzbY01VZgG1riT+lnrnM/P32gkeRcS9YacpKG+23jylnc7We87yHoEgzGI/g7G1e4pW4pysj6tTn9PvRjMj7EFRD2etmGcfdv866LE7+jQ5+BBOyA+4P+B/wYUc5l2C7ZgPfkG1SNPztF+WgpfWWSe2zfF06TPzldtUyG/Une/WVEkL8peWIBIFuwj5q67V2vhzyXxs3Le3fg8IQMpfRXNmsnpupoHryfAl+L9esBDi8jKx46U+w09B2ukb7Iij29GCXvTT2qOBe+6iWYshLiOBHTbukgGRvVdb9ft9UY5Ijzjelaql7NOsXt90A5rxO4FNwk5MZEVyBKjBUFuLlamnQ+orgckAo5ik7ueZVOfMYB8nFzubCucPD6/ANlzFwawbRZ64eW3qicjvqEBpw4mzx3suJcrUqLqAmaVWKXlxECkeH+7PU4XutuhIsqZGbQzGbivI0oHCUDQJg+OxXLhtOOfSH9WZ0m6vKctO4Gk2vt29O89AF/Em/c6eOv/MCCIY2my+4/6yYZjTrbTyf8OcDjaVyqXdaLenO1rT//ha6Z5J1ePSCWSDIIT+yQVF029/naeSBzO4/j2I02b08c/SgIqF2kXtCE9kQyduYXwjqxRSgpc4QeOfefoPrh8xBhLhijOl7Zpv/BmNkTCjAz0oA4CVjWk6W9q3HZubQr84ggUjabtWFbnMIymQqAudXPcRZHNzsMElrrkWPmQqjJXlK2I+TL5TsegfT/XUr+zK6mxcsYRgO/th3YLSZFS4QnRnEkuy7X/IvfQD8L5TJqPpqjJiS+4x09DhCYZN6vld56F5U7k8lWUj4HbpcLLtQXaQPchEYPwvQQ2s7DiRzkPvdWyvHubQnqTSnd8nJVTxcv0bz3gARHlPJn9i1KOMQuph9tMfgrRF0HKUI82ZCCXP7ZadBozWo4/55K8AQKlae++GTrdjI5kBvu9O6uQBMVUILAsekyRKJLZcrGROVkA9ML2zkcZsfzp0yfKJwbSuAyY1yy4N6ZJFAzrW6t6i1yb9r4miS9aVGh8rEVaZUlLRK6jLKjJnqAOe1WCn4xCHApCBCXSZYJfHSQzr9iUqSa8+V/6cAmwOArZeK/JcDylMVxZQM4s3WW32XOelF7ZatQCYaXuIOWjG3efmk3cX3l0ZMNM0Keu7+EJ/MT/Eo3PK2KimBI8aBav3UPjinxW4KBWRo5cnFC5rKvb7hr49IFZqXSVtwtywUy5vqVd7kbGOG73V80NZ/opM3HyHbqonVYV1W2SiI5M29I/E7LrETeKR4NiZGpWd1jjob7qXKvW/w6KK6XO9U4eDpvq6OCCeg3hAFFL2BkMSO8lBiVY6+jQ4SBBSiA+4P/B/0QT+RLd/fUAZ8BRqzfcXTv1rDpK0kY/3PXSpq6mQ/A+JxBJfGfa5wkgoXjK1pjTZ9uGubNW51hwiSqXBqY75nmDgjJWZCW6xF+TJhFHWE7W4w7lkifKjMftS3LrP69IqHbsC/Zl3WflGDOTMEyMh51DJedSkwR81NWA9mG5C4OfMsAeVNnocZ9fcpUCSMapwkKxP9rLpPZuxun0W41yvqwg0Fdc+2BCjqFF2q2ompIg/4ZxXMhceJPU2hmv+KL5UaKWMN/nJAHQ+je0eeMkz1kYoMkaF/f1iAnEZNrJz4mwZwsTiRFxigFXWUC0E7Dde/Aio5NMoSqeZFZdfXVe45UMBcpfr5I0haXgDHZveEDjzFNdn8H/dGQ6cqcJj+sAM0W5MYF6jLr1w3Uhzcb2rWC1DTPSDGAH7K4XCrv71lJtBJ28H3U4KSQvdXiL1kWstsr4jLWzu9a1Wxj+m1erTGTiE7daz3WX7YmbYA9TS++5jaVnIQMTj7Fnqu0lOwOgFWU6RysYZk59BIk9PuY+rTlXDO9zNw12R7ThCzA728KUEHViAYkV59aUyZAIURJJ5Sb9X+O9U0B4SWwYU8h53+LtNqqOhyGMESVjudAVIQDGQua9j+BP9q4cAVjYYD8ssHhCgXRhyD4ZGBE9iSqLJ5C37ZBFoy54uf4vQ+2KpgUBhT0UINZfr1aM3CCPOOP08R8zKW8+MvI/+9tL1AhHkbmQK2ehthuwgI6m7ioxWeULgymYYHpOqw3vddhQiSCvbySxCgWF7Dq7psS8r4JQ0zmOhnrSGL6Jr/+Pr37mcqCETVhqzzOA8Gx+S5hetmZHnnQ9Snv/LwNRFjKB37y+tupW09Sp1NkKFfw8fsY+fkFo/JtNi+mnm+uVjwhlFOAt9EZvE5fHrD25TIIoDfBROJv9ldpuh8poMs9yqhAnAQ0uD3ykVYWDHKvhzQNveP/5ZN1bstX4wreybouPimVI8UUQbPB16TuKKDibIxyaBzP20OaSgarcyU2W/92TKHecHp+GlIH4wBfRZXOZ7GbNm1f1dV7tRJrJk71YQdOVaen7j4TNWM5+Ik/ggB9r3vkaBux0h3z3uyTZk7AA6vkTwDNS3C4JYIZxOKQvAFdM3VZrZciM1EkPIn5YyvS10JmALk/ImQ1Sx0prEuuQuXl8ii5GtX4E7tr5LX8jd2jQ6qBBWOA+4P9GP8IcxOMxBVMSeIsDwGcBG82vohqqtx9FPFJ1Upv35U+OJcjJQsq5YIrfytbUWvqwCkUOTuRMTqeoDmRaBrQY8k/La32o6pqhSRd3rZ0TcO2bX3c+4o0E/lgABL4K2UOJnbLmTKrYL1sON+jipd5qH6Joq8XrOx/P10ganhueu4UDQN4f8By/b5CjHO5ZsNdhquBWcrXTs8CW5D8v6dwuSJpiWNSfu/AOXEdoFlDrEtPIqWtnFuPhRdTtZXt/zafrMzJGbIMP5Osgz4IU5wOHBmr9fAgn/u02rizWmRadXeMet1Iq/2/CdmcSjg6U2xAD3zUiXj1oo5P3wS8wKwgmwaYbVVO5sqTseQ3MfAv5ORItWmJckDSvdCHBBkl8vNT2H7tB+Tgr1UlPCEG7VErr/p5SPbYvmHlOGwbQABMGY6v1AlwgaBrTyysRUElfInjvbM9BCcEBHzFS9zlKHIkL1Bk5XEJzQi8ZGYRPDWON+ne0Ss1eNYocb8jG5jNVfynahDPqwRzw2oMvuPQwf6Q4yXbrUEFZjp6uCshZ6wF2cBim4ds72gOp2iidkxXhneTNjei3/9Del4YtDElwHaEhAQGGqfrx1NUD1Zx6mvJkarUTdgs1kgWKc45/bs+zj3BNlSKEXq/609XG9IrjUqptZQvkXJ7sL2Jl/+H9P4Dz/KfYfsA3IPgv4lZPT/rmVhnYzrJiNv5BL6yAwicrTcPcpw52KPRPowhbyv65GqtgpIcQyaZIUr84j1irGG7YECXJmALiSHLZH0+pOnqfw0H3ETWVWWmB9MxXctUl+FEmge1VxNJRw8BahJ+KU0iXyPbko+WzGcHj8+1aIzt+eOVU5dC0q7alvZSil3DB71HOoNxQKr1hCm4+NyC9It738e5c87vDrefFhEy0zLXA2oVhbWLTM7fy7DvF06lldZXYvKtpdqNGuKb+DPYDE9H1mweIARmxAEGSXvFdNLUxYlmqrSSR0Krgg5L6LC/LkAj3FJyvjIm288Zmt7U2SPJZFOyE2+9YmZhm8m58WpxbWfc9KVshYElcTG3Ckpoaz7Gqif0rqTKHySE0brdwryhS/+VazJAzLhu7JaX0R8zbhZ9fF7QU+JliagjaDyWr3zN2jdFgAxGatjb8ityS0bSNSZyHM38YGyiV3+AJW+UH63wgKfAxG1DBpfq2beDuImQz3lqZ9v0uHZ7WztShOHgI9RzxtBZg96j5+VAuswtNcoOt56TjqNDxoEFn4D7g/wQ/BJA6FVrK112+xSTfTMuTH79fUjROP2+Sb9AMWN2ztvvicuN1yUqXT5PWOqBlHDM+Q3+MNMmROcw4Vv+LWeso4ihd5hX41L6L+N7out/uu2xdPNQwHBGm03qQ98v1EMwLmlpth5U08sKEWyxd8twFMSicE1/g9TLbdx99OGGwTjE/L6zLEHvFMZ7rEH3cjHjFrpX6IGkg6XYjYjpZX6JHJFbjRdHGIdKrCcLzXdkDIXb0Sc8fxZc+eu1I/4ixFXN69uMam/CN73qxwfGzfyMCEZ5GBbM+ZIEwrWEz2d+ZbEkzhCcq7hpwFJ8PQWAqYKsRfJSwhrTj45u9mZLDMcsmcSGDcQRyTXrlOL0GgcN6L8rVh8xHE+sMjL59tMr1f2jFhO2x8qWU7lIAPlOwOefHtv+zDhyBZWqxbY/qxf/PSzOXF4Y3F4sYqc5i3dYXsZjYAscTXaZkNHgGz0Idr87HHPk69aDQx3jeuascOPgRFdsNGpymkbJ4sBApcFZ5eq3fQEf5KQg4P3nY4y/eD6AtXJS2sxJVZlMBU2NPWiLavsQ6u3u9F9PzJ5n3LtIyN99yISq4pkPtM7aOWbOYKjCu/aTV40QKVt4b8vJL9pRHRDOAarmhRB2ZzkIk1ms9ToiTGU+d4CFC1I2jXmm5PvMXrsty9I9XgJzu1li2f5Q08DA/UVnGrljg2+5oIk3HGdnQevdom7c/mZNBGRfBL3Ayf7EytdgcLtstt104aE5VJWJpMjzbVnCiAKujZpOpqYWOGmM/U5fQjGiIrH84ojLKVIOL+9pc9TpM+5D16KO6ASwjfCPsAFKLYUpQEAbW1qKEZfV9tvBTznNNftZIkR6O5JJPOsWlU2SIoXrtC9xcoSfGrJ6peBB3iGAlrkGBgPEhQ9op/owDTAaBi6sjSKsbiufnyf+k58O5lIygPm74NbdmJbzqI4CZmobSgDYvVpt7acgdj5zqmahf1Nsq0Oa9//nF4Y5U6O2aVqE/TDuxmReCEbo0a4hnvT896CnbAA8WcZRzRYhGVJp6jRoSkoYasFoGQYZ5EepqFDV7esW3BW1N4HvFb5tKzDVLfPe/ChM+nD3IqOaPHvg5hMQBQpCDvPcnfdqIOce2K6mIXEDQCTddYDPcbMfU3lUiUCSCYbrhzialpz6K9cjeaXzkotbxZ0/XB24/tXS/FC9MAh6cFXf9yagbk2HEJvUUE8P/mSoajBRUWQgMeJ2odxnEC6YIZ2m6N3345Q30mMc2ndxOuzQ982qagg/MbQRW3W146NDxoEF3ID7AzwYpqvEw10ORxBkKYr/oeyApZV6KR+mV4Wq0qLMWla+mNwxx5/OKhJzc7XVI546+rrCPaLh239/wDyxRjuSi3zxFc7oZLNrAlSLQu0,
lhqMIyNlFAa8BAfw/fCPKUKM20JuyF7fwCnRl2eKeSqZ3DE5Oz87raOG/BZsApSWwQX+eZvJ1sT6jBXugonIsqgxw/kOa7TSZbaoEJUoMc9hFJeP1ztfJjmPCLKP98/xPkjXyMyYOJ0Tpre/x9A68Pps20I9fJsjfNnj3cb1oVg7HHS1JGiJ95PNHATJaPLC/FG61mY5z0hX3kaHa6aP2x/mhWzJBdt+m3pcZrCj7vNVCXFJySzQJMMjH4GtLZzsxlHh47cJdf8gmFBebWiSql/cF9k905lThWOMOmj7h7/IPtzwFqdt9tEVCMthWyZPvEZjPZC7LdRehR3yoOxYfPH4Fe1XgrE8EhqJOutTNoTxhexPYKtHZ5kpTbWqyXFvCxFV1X/VmbUriV+1u4M+kor1f0Zb4uDbUF9EO+1dlXKdgNI/rLQH7haWu1sZ2pwTl2BDFRKr+EmmkZjHr/kbU2UiTfSnxmOQmgxQqLhA77m5sF1hWaPks09I36+9Jh6Nvwqo8KInlTsoJP7h8vYu4uWgPTuMyUZKRDlFcNj2YnhgeCMgAXaxPIPmYSQdboB4bjplci5Mh+ALkNQozshkM5Pmfdvt/y1sse52XaiVnxkeVB68SrXNyDt8RkDNxxuNcM9PkwtCM+q+spW3biT2jZZjp2v6Z1r4Ge1O6ddpXKO90vUbTSDugRUj7+gL10jzaqgsPHEZ/DicQ+Wwb2KB+aBp287R3m+kBacmDeHj9xjaUQFA3kkWqYRM5SWOASfmX/u3rDIdJIMBMZgb05+yD6vbj0iS82zytlCCh+391+dYuFsARwv4W9zGrwxmNc1lMGPuKqqh3l9drN3ygLcja9X6mbtFWI2QzF7dDIrIyTn3oCZj6d1JTd4gU3f4Nkmlpg8Uf9G82fSFMr38Wb3ctXFMCMw29m2SFxZUoyrK9aNIoPkkvd6A/jL+rmrQao8edD1tY6W+BqLATkkCASa0FUu5SoWKrijgOsLEmib3LH7CNTkjTP1KQb6rTVjntcl8kPlCDYpYz2XLyByFrZ+btuHWHrtRubWsgARyjImbhwNBUTacSfanx9CblN8lr1hmJh9/5YRfiXwk99sTfy98ejwPZoEGMj6I9j7BGeaIgdclP6qg1RYcBlXJ0ifo5yxAW0bplUMj7jrm0/oLeSv2ja+2t6NDzYEGGID7g/8c/Atyc+Tr2Q21003AGD3exuqh9n8R+CoJ9mu/q47jQSYPlxxt4Ob0mxmZv1bxwAoRPeFHJBmuiLd7JnpAat2j7yMFF4V+FDexcmPL6VvsYMCMXW7gYBBhrSF/z3WP6hjE85TiTdkwF32xLaPSFieVGX3CDFvsSoV472Qp9w47yjj+3EA3nsGlA9A410ONJZU7OvapEiEvApAhvmU4h3m5tCExb2YuNeKbM0H5CHYNIOT80XihLIS1SLALaU9yDkH5sjMqQ+goZlIzKok3RBktew9OlRYG1OpbeocOSl93VcNe9pDOAL5H8bS5SnmbCvX3VCMNODMohSXa8X/fOOyjL0GOhUUgznJqk+dF+IAjpyPvQCzXqWvEPCptmpdQJD9+bYF7AXsDmMhKHNvTfpqLSGLJ7MYPkXJNh5/m0iULg3wuozh8jsRFvzHL0li9aJBZOoBPOhRButs8EjUm33PjfN9A8fakAuXDD/KgNGXq8p92UGiFM2X3a+FbnjZwvkkRUy8oj4E+ZwJbVNs41Bd9WPxrBpimXkoaoqKHJzrQwta/PpOsaGd718QHnh23MbfEj9oL803jtEZKC0CcDQg1Yrvwqi/A0AYqkJEfwSqfAOxzuM2aLtlM1NyVnaCmIyhMaJyl8OOgiOeicAp9yuiqMhDvXsjf4B4Ql1XU5r95cIR3bv4Ki15rrUrx+ZxKUsDYkm1AEPZXUSR+TNArnpOsLpAKmEe+ZojSfwUpbdDwTKFjZgnU3t694Fr27Jb64MuXYse3xFuw04MLr/F2G9nmY3E8AmklKlvPtUP+J0FAiDXn801ZKSC+il4ntQ9cZoBv7WwYV28YF777igNY8ipO4TNWwENIVTZksY06k8wm+jaEk53Ie/F36Jk/NdSWI0H//7ujeic6lq81hFcHN/NzmpIOWM9qLlwfweSmM3/6XAjZt1bBoz/Q0zIi7mcp9xkNToQTSkLWVkvozxW5itbCWM+dF5PUMk8kxtZ5E6ULWaPUFhiM1AAcEKZvZAO/1X7arneGB1VXh8bBD8+IVF7a1EEAjCQTCwHhNfAqp647RL0jFKtus3HPXSqiNwJaD86BByJXXYKKPVbu1NY+uIa67ZU9DwpobV+qLIccft9DG2A+Gf4upgspB+fYxhX/DSDKV/5zrJz/sy3pyaN5mIQOlLTN1151p9bhPxDdPbPTL9Zk6A4JTOV8aJGX3pAlJDVHarnszHEo/u+AFQs1Hqf0Symdc7RnhP7auq1ZtJL6/1ccFP9K6xGnqOV6Vk3x7CW+QFTgG36jQ+WBBlSA+4P9EPwRUzhmpKVrFOpjuCCPaE5XXfXADDJ2mDgCCacc3j+lrq0ABXoupJ9PqmEUCW9sB6ucUARBq3X5CfuTWi3NXjfiV0OZesUtnaH3JysbjhaY4a11LUCWo27V0Vc2I7QGdDgXluJH0upL+y4QkqOh4owBTAiSC3I9pNfQKx01V55e7WaZgJ8fi9tMNuJ+lB3/BpVgjNO3/A4FxKop6ZP8ViHM4b/4Uz5ErXOBGeWXEMXHlQ4UWnEBL0teFxjKFHFI1nlVeufYEbZPdbXNN4VxvyJA/n5DH5z9iBJ8VytUa3WiXavxpHTrwhvgv8f5mGuTMNB1buJLHbJt0YZp+ruFnsbLiDghpDIVfO68TVFdWSaglxh4pWrdqF61509UE0DFFbrSDiVapHKUNaoXN3+wBrZRuTe58s4dcOsMio1dkcc79uq3MHoq/peJ0BklVJwQ3xMQHmcR1A2q6izNApHNafxRnoMVqj/lzYUPkNaBYl9PRSznNIGndhBQYn43ZXdSQAvBI+G/5uhi7ESy17NHZa0j7dPkXaBspoexD2msAXorZ5dYGIyF5fpdNGRFAsfEiJ0wX2Qaxv6yekGdXxHt+9hOhCmecdDTTOE6O0RfjkF35ghv7z3VzVlJDaD3zOifPqlP1eK784TN3nv2fES0NQor01S/sfcvo5IDi1Qzipg7GBLTtXsE0CGYtVPHD0hHoSm0wEtAbyedMygBkbRPx3ShLtpHlcaeq2j2Aj3sNs3rhXBnkngwM6P91vbp3y+ytyR8eyt1vCDTI7Fkrsd2Jik8TSmGTJ88sYHmY0962rPAw5DfwvTZp3eF2Es87J2TESPwXGEy8IkLuJoB6SbGxlOTvpn9NqHgR9J4X1Sw7H5zpcfz4lqvLmYEvjPWV1ZT/aamItWXFPAYl43Yye5jD0ajb4Gyuh7Js8SgAJeXW9h6D7nn3AGhY8OCsp7dItUbQoI/AltsyHgSiGdtuhAeqv2G5pn7eOwOKi9PnEFkZLSu0DKGXD8nk7oztFLLEfQZDpN9lopefwZZEV5GXNOHfPnWoSSA9uraQGrKK4eYKwgRgsZCVMFppyNFyVC1S8wWa1ly/tAWKKem0LZKlb+NuvqN9Asx7Ytl+ESzEP35pCTRQrTZSYxe5KjuFB8Hz5M+wGQY1br0O9pwHr2X/LDgHEQ6/fyfSPG7Em18fKRll8mfQXa5X4c/KW5uxdRoAlhxG4IHZG69LqU9llZ7dn1zSbKRiEVocaN06sfvqkQgv9StslNmegQNlNsN8XONU/l8rW6tsf6E//mmjwSYHP28qXH5YFlI2l3VJ4pcRJLGo0PugQaQgPuD/Bn/EDvJTH8zE/6aW275iTZ3dKGISSpfE82Ar+nE3OlFRgKhx2m6xY5xcIkX4qsX2eqJ7/Z9rZ+70A2Q9gR/srrfdrBEX+14aWbJx4L+X0yz85Pd1hJTPhcIAmjvSJnqxcgGTTko9Abt4XdmRHn6PUm8vq9R0irj80W0v6AX2FLbULHzcs8/iSz6cy/vc06BPv8Vyai7pgTUjyQEaAIgkQyBU1YmBK83o2g9sECYBMXGudfEVB1JLuqZUrNDUaypeO2FQAuwZEM8O4RdNd+OZufQPrfK5FJiPdAOUrH2+HyIUjsJehC7oLi6SGLZE1ZnMzBf5Pay5dIR4cyu7ZiUoqgx3TYJNLWwPtX5/dBtbox/k5/nMG0+zsDAG9AB7hc13mec2bqpfCzoAb6Sy7Dihn1AwcfEMLawXrHcQqsmmOu/fiDX2zDGFhZZuIHad33TYmDsYB5SKF8JBiA9xbqYJXQ9C/0+z4ud87wTbBcj+B3V6Au8wCe8LJOt1iGN75zxEl2dNZQz/ceOD9yBRWe1z1UpYg5Eftz0VinzlOwKYAh1vD9kIuz6dADpLKJyhLWZCE3GMrPKJ6h50FV2rY99rDUr1vRjbQtSqGmE9cfzM1/BknxSD0R2rulY/JNFvzFegva6Q0LLl+4CclTTtz44aGKaGiSHuB/BAzq4gMHO8n/DTaq8V/2Hwnix5Gr0ov323GeX7Sx/QYtThzQZynUFi0gR1a7GIWhJykrctsDHg4h8eJLj7euJO9xCE1tktTC5tAjwmNtRTYIbGMZpanABvN0dAJ/Hi3xkmqrpjQTnoN3CjdrAd3kTtJMU1rA9IgaX9jhV5BoHLGB/OSVVPcuABkEtTX3SfCERs4N3CGg6DNr/h2H1rEa/RqRUp/i+q8K7eLm7O/aVYsV9M2U//tMTUBGt1CAhn+XPRo4YZBDBtemuUjt07wV1vONyKOERC90fpEVXntADel7r7ky77S7yN6/oW9bejMz6iT2OaJD7qBzIB/SwxMFdM6S5aycp4eiAt9Vv4CtKXpHqF1dWHga3RUqtv6JPRkNUzLPlDM8yQSXaM6JxwOF9JzayCrfo86q6uwTbo03xgRLUA3br6ezWm7eYoWZUdki158Sc96IZqdxAocQV3KM+LMfhuieuvoMdEkKG8dgDpD7WQhPy+IxAh/W3U/ljpEWTovKgpNYYUAAftPS4lPcc0XlzUkEd5sF8EUtswlPabSuQn6CLnrxtlnQwqBht8/y/bUOl17K0vaHY5koIeTJYzo+3JMCvspw0pfjb7+7O9VMRCvWB1qpgZ6m6ng7LovKdMeAMDHvG6NQdUKYfJDdjE6ND14EGzID7g/0U/AtA6xmmB6cCoHgoAi05OpqwO6LK1f9mKJrlkPe5QhHG6/6X4YAq1LweGK5M1NZ8ywvWzFZr2hDoBf7u+7qdPCCtht1LQhMNqcI6sPNonwiDV4Mzs5yMBNwCHS90CbvcHx0jlRWH1dDY0Y3tWisJ77qH6lEdQSJxRNH0UOxOYHkwrCEVzY+1NOni89N3xL8m5YlM0xcFqIQ0BiUn2aVWdMR8z/0kMajZImWScQ8p0NG9DqclwZ2oCsSfBbSkUiSDxeNejHzN/vrklWWSyk9UYYPc9/6Rgb/WaCbQ04EEwCYePbUiolcnh3Ooi2jKbiJMFyB8TSk0ZrTztN/t/8kYxSWC9fEqeAH//fFfYn04BpMKrK9jZxxaJbUzrS0VYErYJOV8MvHPt6f10bbryyNxZVJrD6e+qtoWWDqjYEwB7HqJKoWLmtogYwl+vl3VtKQ9lchMBdSNL0fyx6b75P+/hwGrRL2pSQHQEkrCKEHSnR/ZB95rZkSXZQxVluIasvenP1r0pJJZu7mG/y3t+iwquA8mqT67SxXBzIUEkhMM9e8YvdSDR/K7mLGmMitiHRPxyzbQFy9FIh3xL2ak+/B6oXlDT9IVsPOk0Yn6EYqfuM6krcRZqVvTWHTbKsZKr9LlmpcGWoiCtUllMfd56o6PIiyWJW4FKvUtqAxApbihG10R4NqsXgiAQ8pcNYp00tk7DhdW0JAgE2VoeJAsJkyX/oauIBvXPlqShkEvDMN4qRWjXb7gTGiFIPjMrsHRNnLMJJ6+UMwv00SupjG7OcubSPXAJz1iGrcr4wkffC/7S7fQPh+QTLtlEgL1xp5kTcgkPt4dGId0sjwtSWhV+WG0xV5dpxhVgvD5K9QjT2XThhif0xWvnsSN7P8BfrYNs37/DEQ3uhY0Nsx2YiYdE91+8Gr2iTx0Mr69+LLPMB5lrKPgQTXwhd1ADELjshMrKCfFP5U0i58sCiWMs50DY6bw7x1E1bbR8UK+mgidU80N7zHwxQEF87fh/s3v4tRryHFZGkReI9aLh2KsF1VgQ4wqzVtVdGlRx0+O6q74egqA+Uv0Bg15rv5isoJR9j8zWWg3Bb3hucdYzKztFgPVS7E078Wlp6TAFCvfqEmnU34bblgj+uwgda93khfDxIkvO0ZEU1sRwDcyjxlfCasplbKZ/SMhRUmaYd/dtp3h99Qr8ZOKBVK5tdbW6qOrmaWcCSRka56Lo2sX5FDTDBzSkTePOeoM+tXpX7T0jP0nvE5J2fjh7LY/Kv9GPB5l/+ibDZcANsQVdeexMdCOxDm4pERTo0PBgQcHgPuD/Av/GkBwK794Yj+Jp4KWtd/4H8qXWKfq+ndPM0wy+VkiG/o7lRC++lm5fwo+W85bqC5eOPsQekLE/i8q2lFVMcHGSQhApkj3bOAgRRRfTXhLI6oD9EgT0iat9FAU3Wq1/3K20FY3TITWXypNxFjsH8XxkS8tqrj5LALZUHk8y0zlus7CcRAAFRCw/FWqTWUa1Ud/ggxMMTko4qISCQFd9Yy+S+y35lN4+ISWvZxyEVxHh9zO+fjMQdvURF1KDBw/UZWXm2xpAQxqS6PST7QneZVf3qk2YNB5Wue8b3Ths8rOp6UgWH7KrTJlY497XxrvqXBYuuCmgcjYZvg3H7zSWylnj5+fLpUlP6Dcgty3Z2B+IjY898/bsumcKSVFYv8VJSGDgHQrk/4xf3b/dE2YJbT4pUBm24byOAZ0kYcFsibfyYXi6vkpI8PKaILmW1aBAw5hedcQS25OyoNUReFcq3PuAsQ1eTjvmm0RcetI3XzRNFBWx4Cey08JZe1WKmogkwNTezkiXLABVoUDaoD89DF9slIqQK5SkP/Z7uuUVtw+fXszz87k5vQ5IcgSt9C1QTSNPbwt9+k0QkzbBRK8bUCrYDhquxgPgs6eF26Hm0l4pdassoTAp8s2pCVpMiZioc+hL0yhxp0MHb9SaL3GpMor50fiBptaDbMqQgeDvRwm9pOku2veLo15Dx81WfIskQ2AYF6jatt6QqiTYV/gZgpgy8fQssjS5QOzmGIn0Cw3Vd0ea9IwyiO5HAXvrg2eEpzkfGh6CCWxwB1Mb1/iPIRKa1FwiFBpfYmRHYq2pXGKip7IXK/MUWV0VEu8tQgjfCw0i41yS8EIvgcwk/x6wG9p3VhAQmMaraS/NNH1GM9ylkdQeGKS+WzfKdKTlTCjZck2IH1Bk0juJEXnNaR/KrHpKEqG68dTJcHTOdAn+L7HPZrB5ScgUBp6YTanDHNyRsWDc2lJhwfwEcAfbt0voyOUSxjNOtvx+TGo50+g1xwxZ4RGzUyP4KdUMpvZAOaCnvR7CNKf1297pqpmWXc5dkKX+zaxpUCUUZKXBQYpM41wY6tgdZBo64vEf1ojv7d9725c6IHe2SHLLNI3dUK8dSS4cNktyisOk2EqUohkjLnEqInqIbLnXeKEsw3DR/VA1r1fw8vMTHqR3lwbj+/3N1M3d5TDi1seGJw3L1WGWK2/dUrn3rILcFSmXZE5zvlP/LDo1/xyGrj/PPZ5tW/DQORXbHOg8+1Il8ZLfrX2qw6lVOApiLayqKLORqNDloEHRID7g/0K/hA8JRfYl3X427BU2ihlXfNdX4Y27lJKIYf9CPHcVTJUcOhjCs9PomLW45T+6+dhAM7eZ6OEQchcezN1ogDGztyKljaxLk1zNbCSdpomazp+HoEeexMwX8nfrr4C540kA7nW2UQNUGvBymf30MpSjI0Q62PBYHAzc7A4TO//hPxhGvBTBPpRiOd2Nqlsa4KZgKoRdzuPY49JAno3CO2dH8fQsrMpmJbBrWRLNLhiTZLtqkAwpBV3GLb+c2KFxrswCcKWAtSwJP2QPrVyeEhtpl9OCbsTr8+rd8EHNFjws0SI5Hv47ajRJ2QigCrfko4WuYxGK2sZ7i6BP3Jv+bZatARUk7WvqWN4mHGCso22uK2GtluB4q58xoEaIZ8LI1BjdOWf8sLdrFMcZXY6/QFcb4/AoAuOyu0UIiVQsTd3F4+j0/as8TAVcr6sxKA1ZxcR3nnKfz3gTSpPyt0rNqRgnOAGVfvDTebJJGLRgPsg0s7y/QU1hs5JuV4mEI3bopOk1k8ExS0EEGv+YMcfvljk5FuTDwrrB8VngqMazzI6odqEnG7qAcYSp2SQUg59M8nZMS1UHL+ykIr2ugLilTx9ofdI6tuP2St0glMu5tQWOmwFh1ijjRFuVE3x2xr0I6YLVqA8X9qwWdOfF+w3cjUaYsXGVwrngtNmVC8Ggx2swZkLML8nNHByoa9beW15nR+asmJiVo6amW58kCvnzNmULvAFAc+xoG4MdjxHWLPYPkEEktybuBnS6crioKjmy//96WfZD4F3/9Uxuqw432mwJZWlv7+nXabl7TjK7q6RZ/G+LJUZzRsK0V+oFrGqSy2E+IsgIWD//i6MfnRVNcPHBghnl3FTCq/h2CCdJDXlWX9qKtHxqCHvlsjaY8BmFfIPjrQ5yl0EvoE1zVRAHIleQvuKxlvmUyt7C7o94w5RODvNY242L0UhZuBy8/dW2RjQms8Mvaz/ohm04hR6eiNvxEEwkTnVY3gT+rAjdS4/suHnI2nDNZTn/B1lBUcWCQM5iqSLT8wDTZemaTZ4wNKPVnpGoyo6QbZoj/XlWqOSrlW9fx3OuBAIhv/a7d7/hNxCXTDZLtLXQmgPZqxihFtpgg6Da0Je6ww3y/MEUnN1pMz3xBIfE/AWIBuZ1kqt0omj/GmV7/GeCsBBY7H6DeT43Zh4S3S0X6XjVLfwHLZsRSuxKYpCU0RsO8t7t4CNAKNDuoEHgID7g/4M/BpQFc04gSd3gM+zirXp04nHZMIYoh7S++sG4EkPZqboySAsIyt5PfpqZYG+tttJrKQJmW4oqC0SjujyLRYGOuvoN4QDCjLo2Nvbcduzqim9A1sw2la29Ckx30ujnSMc1KqCPcYo3M65zwpF1UBIiU1vMIomHJWcmaU1eEwwIbAyGJeMjMYN5buPFfi7Md/HK2vfuPQlGTef9H0H19tjoLF/kZXIzUuHn/ZlgWoI9B7qezDxVVyTSLsRvQyO4GtZMijUOlBiUdIAUUuA42STTMdzUg626ANprfNSAzh3yBHP7NFu0lmd3lSqXbRope9GIxbJ5w8kS+YyfOwZTc3XCNFrdx6qautf9Tln9iwxF7qoaKVUeSIDMnC64T14ra/wf6piD4A0xLGOZqRzZqRN9nMvEjno079TrhpxZyQiBUIMSeLKw+zxtSlFo6oVpkmkKsag8X0ld4gMJvjCY0/euc4mVnxPS0lsiC8CuAlWax0gFjde3pXorH7a8h82k/9+Yj07wGK8cpH3eIhmYoAIWDp7OiOG3xkZ++XywNH51wtgaflc0bIPCLxnxa7/79Jpjph9Bkiw6N5AUq+3LjP3uaJtMBlVbYPnBwaVeN9TnaIlw4RVPkiLTj8ETsC5gP8F94W8Krkmth7wGy5MiKhz3gGGt11tZF9SfhcjYCfoXmCFnhnunYp9RpAG+4EE7B1pzE4RIs2objMOuuVKjOvVFZq5UKWJ1tQtN3BX2P+C3QELq6Gbybpz+O3NtejGEhZhWMxM9Vid4wHoNrXBGq1CGgiD1hXTI4yA56TEL/5apmG76FdwyGGlpkuv3NId9hJ8WlzQF1uQCpry03yWt7hqCQL5mvKnU4G4rRTfiD1ykW+RnJw2UGvHu5sMC6SY3/XuAA0VYwsJOgZOW4aowG/rnp3lz4YmuJd1DvYJWu8SqX7KvT8hNWHsJW9211mHb/0p5MrLIqro/NN3M/TDJcib53NDy+ZeS1bf6kILcAnX6ZZnDk3PhwH1Cv/usXqAE8mSSkwlU3+8d0PARHu4QWez0jv/JD//yfPw8RM37VShjNCAvI+VUDxLpz2qZ+QsFytmJllBLbEP3QVYhQoSSYKmvhs+XVlAKSdPE3p4hSDsWbElcvI0MAEBZGGClMw9C3kK4PeA5CsE8eVqvB7fQC7jzLyBM5q7FxBcrvEt97XWiQ3UymX757aBAzMtrIockYJFdzb7hObogUYW1GCfTfI/QUreZ4QqjVr3ElRL8pSGEBLKg6ND3IEHvID7g/4Q/Rw9m/UgRja1tbWMW4B61RDNfDVG7Xj4l/Nas0RbQb4ixNCS9yWPrgmJywhMp9vQd7s9Ri7Xj6ES3rR+JFzGNmwIIlkLOiESW9JiJQfkSOH6o+1eMNvqC2bZbUV2J7vMA27rPAUKNWMajBId7Wct3LtMIKoDvu+8qZGZisnTytXWtUNqSpjLRohG+wHOP0AP8Da6PcMhRDpPwHGel8fAJueFwpIi+FL2HtQx+8+d/YAlPbTz5HHtTPM/OjOZlrVOcVOvM8ldhdYOPAydRiMC7OrI7czAcCXXJ5em8f9n13/rnSXc2o+1uaAf/19ZBAAF/mnxYvNwIMfFli4cahHxtDOQBiKMW2Yd5QciY522VNVt7WVjZl5fUk6uEV2Yb7fjLH9eV5CXk2o3jJvVTq7vcrSb8QqHReQHtDrmGYW868t+Nc1gUFCqP/0bCDx09MWghnD2u5bMizWxoYBwov2fZfNVh2+hml2eMvpiUI3TEHfyoCtA10Qw07ywY3bMKQ1nbomyXILTGdq3GFBJFXt3J7Kc6fEIYmDyHKvG+ChiprBL8vxn4xEY5EPuNlC3hdYOsXGtOcEvj8e8YQTLySiKhFLnzktefnu+89TRanyiAX0pMvFU4GtIo4ItIROrreXpry5E6/ZC03e4MwQRxvBdAOVI9mpaPhXKyoRzlSRphPIJ4tT1XLFU0r/I1mdNMolKASarQwYToe6pmEV+/5CztZYHZJdVYgHy1mXpf2uoAngm+VXNNxBO0e+s/ivJgfpu+3x+KUFKPQF+jcJBi5GAfhFbS/wthU8h/3iBMBtH8xIOpMF0apwn4QD6zUjl3dIivADdYUKUj8CD6N32UYQxZSg+7YOBZwJ6/FHT/+5p4oZegsPFOVNN1csAqiDwjZqG6zQ+FO2WPKE4e8cxtFHYpdq+E/kcMHK2HH5cGAKum5z80nwbDHR+7nNl3+mMRaA4sUAKUsZLXldpG/a4WMPnxwgnkemeeGeXZ711LRSEhn4CrTj2GXlAURJKGlt4Bk1s8vzpWPUwgktBGPbuFJlzX9CPuaR0JP2nYr6M33IM9cSW5LE2Y7/hNRaL7T2f/TOor49fh1zy5WL3O2eNJJEa/EEfGoEdRLuzCHuYGkhH/Kc+xvaGYN5WAWQRMfEnsszU6WWBkMJ4ZgOBf1ftSlB0A5HBLOj0AGjqHIfOdrJDQH2OfLCNI/fKSM7KJRKuVOrJ/2ilsVjjOtG4WcGCCO/VO6sy7CM2U2vT9w2NyXsnf4cm/GaGsWI+DTKbC97CBBNgXLL/Vd00hF6yyt9S+U5HMdWaJvujQ7aBB/eA+4P8DPwRmr0TTuPg5iH9786u3lf7OHkEcxayNn9/WhS5af9VS4Vw2lMvknZ6ZMkiqOJB5Z3lcJx5jQHFVNWAORqLfnBjyyucmBssA5PMg8eyjDKbPqYzo3jzgWcEqbgFuTK08CmIqMhoYYeAXBIQQadUlEy06t8i6W/qTxyt+7Xqed0j87cDglfQRxGxEIo8hky8dMWJIfxqzt91LvkirdO2Lp/WakvIS8ap+v9UU2CnIvZS/CulZ7jxXmqEBJhK+fDOnpahHwk7YuWywNnWY5XYxM8ECywnjWc5MF/Ti7NjvgQ4TmV5evXOTKhH+Rj9kLV0wkBFApRZjXWp482BqFhmJRcruurXURjYCrnMT61crw1+vbfl5ftvIwCdQK1LUQZ0S7lIh/kKME9JiA3zuipbO/6dclbmAxXen5sIIp+XuHoarIwvKO1KtxEahxxvscHMM6Pjl1f/mc3rqltcv1oGzD3wDcrI2x/hUilf3B+PqX5ycVNN198BgaxEo0jq+TX4w6Nbg0g/MRijoMIdIm+EeFgO1lEdH8HgKgooVEijG8yYvZ7Fub1/EwkSKKFkQVUJCtbpxO+xX3f3NBvl32YN90Cq2S8IdPN8cHZH7u1vWS7JRRubQa9EzlQiHa0EmBwv1dmJEw25MHWhNtFnmlQXi6KBqrnowmWWNBmG0ll3q8aPG9YgutzqehLtDaVXp39ibHMt9OXZQQk4i6fBaH/HraoPiveHggwsCfTTq5QbSJfC+NakuPNPxyK2sHlrV9CgeeccCWwdUpn58ic+gugk/5nwfEORbYSHbvT95zmvDEDvLOXW2qDb299d6y3XTF9SxP4pq3yer7OlZsegfu6T1OLG6R6BdsTvyT6ZkV9iw7I2fw8DAYDm3rjQ6n6Szun61/n/5gcJYgJ0lqxgzTQGYK0FhSoJtBKTZ4/N6bYZ0Z9tFIuI/S174Kon3XPUHYUqImLKp9KW/txTpxGAHlAeXjjt443sk8kjaIwfS1e4zCNWo7Tv3axkpN2EQUFsWEenAxzLLIK5yIqIMSQKTLAFw2B3UD/1KpGmnzJry48KVD5PYw54qhzOoGimNoZLYrQzU4X6DrbjTPFZyFiMHyH9jgWWasHaQu6tGBYdvLQgSL1XSkzshjH8I+Kmr2P/Goi5lovRNTzGZ1On2V2T8fycaryc/Iz+NMO6wqkqVHFThqYfTIUFK153iH4z6KS8eS49CyGyMXinb9PEKX5OGYYZ6A3MYbQEU51awPk6tvdMdKND5oEIM4D7g/wR/BFPvrJnxZbXEXBvxQ8XZUsFcJMFgtnW59XYwOArRh5AGJiF59jBRdq+cB2yrS9FmsFYXUbIWg7OPWzsC5M3g6wTzCrbpYQ0orPMF6lwVlQGaeAgYYZljVgzSqW4PagK+tLWkDGWc5f8JsW0vB2k38yihXaQPQ8XYThI1nO/+LzArcGUfr8KvNzI9sAHzNwiptbGpI02s0s4kTM6R7yZNBdMi3Xq9iY2607qSkYzmizy0OeavI/lPhE/SijiDJvuHSTKXGvV8+dMSzTITvyCuRhjUdmsg72dxWKmboSk6A/6ZRqMZ77jK0IH5iu12fi8O861fKz+KRoPtX8tb5gcTBSRD3RhPsfQw/ryBiwvWnG+b19nRRBUKY9XeYWX5dutyiTR4sgncgmDkszExaQOcQa8nZbSNjcRfACu9IN3I3BBR4Y2ClchL7Fh9/bB6jdZSzKCEzuzlFwvTXwC37NrMqBqQg8pAqwfIk6lzh/kyC7CxaLiVzfmrCLB/6UwnJkbG78kwtuX2lez9smGxWkKsTodYc4xhxit8yVdFzCgWp+ARN/Mjt+cn90Y+OqTElPr37pUXBWIgAadwyQh2aPekXo4h707lqKorm+wkPIn7Mk9Ky+AaWCSNZvkGoMv3DpA0MvQiYpZWsiBOplta9jIrFwakna9WB2PJxDlwoGGHyz51zTaEZ7zTfKitPb4PrTn8eCatN/cQClBtWd+9cETGUgodrWwMogAZmyiC2VW2F+WQd1h/Gf3tbD0J8Ke8h2x6IDd/wNqv7AWgJ6FmH07yQCjgRWkPWf+Mozj8oqstdkArDMHihVi8CLem9D2klQ+gfgK8ZPpQTQT1+WncedBGbo3DCgXHsUfJ7MmTGgWcvR7fZqog5tazjR2XhOtsy+oKv1ZhOOUfNt4RRi+AFyxC5QIWvO+LBrhx6+kEvTrHXS+tntB/7v+VsiThipz/G4waomT0l/PrY4LwnkrnLjXWWwCkW0+V03H6hLIW9JgT1fFaY+pGRavd8tY2ERwmTQbA1W9j3hsAW3pmpoUOjGTm1X/D/MPq/9nVSr/5dRGt8KArwOFR7wxggoGswK0jUW48lpz2ggibWIb5m/3LQcGCgx96EweDFLMEhzQ7Ox7D8w79RPyLK3bjSN0FQEF79F+JOdkO/eFtnudY7p5J0FSGwghO5LOjRFiL+ZM5ebadooaPmAxQUbxq+INTG0Qg29qUQ+fS2pKfGeLDsXFodWtde1S+tQrFBR/7SxaP04BVhR1vJsMeCJ5+KiNUMx6b4UyKZ9mUd7CMowiheaiRHKNp8es0F/CiWu0IfGLveFdo0QngQhwgPuD/hH8LteI70FF/E6fKMuh9s3dPLssgbxfuietZW2Q3Q/Axq60kowV7HAthDsQRpwZ5MA5qyQ5qEIWCUQy/iTWFQM9kocnZdgJA1LwyyxXWOVw0TrsPesJdB7U8C1RSrqwJFJdIx1LVYDAB31IY1ddPYRGs5F4jMulxvV7N+rfD/za5Xq1ZVojQ3DrBHHXaKlsZ+FNVXvN9koI2f/ZjPKy/7pRKGfka9TJNXboy0/zxlAXeLTHMN6qSdmzbvkCZGorSe26k6+lkmE+i+hStcgDkT6i0zHDe0LR1XEE+sRWXfcRmJvUivW1frFZ9EtqudNIrlAel2bHm9FdZI+VPkoGZDrsyme+FA5CgdFvLS47nJP3+nlV10L7b+5gTWn4B9qX/oOP/GSNbQMYYafFEr3ynd505zCUBmL/9CN2sQHUoD6d9aG1c+3fD1tI1rxJEPJz8maJXGHTTdWFDVMEh3Be9p3SvJThvgjBCYbKFw1i8SVc3otrbedjqln1+I2YykRXKiP8RRK0RC6xeT2NYB3WeWK924DB1rIpzyzif3+2gdildyIW8LrVs8c1Y7BvQnPp6X4EdWS5oUVOpWfcqWje7BHX8tKCZZwtdlPi4BQXpt+V5zVgaIdy4gZNdB/BLZ/LPzIRkCJou0aYLGq3vO7ptTS9S/V+JV3+gZfLttUV3lafvrF1Br4yF3T+0Jr/WxmGI45O//Ynm99rN6Cmzn8EMN0IODonYzTtuecZXit1XZ4jnvIaQpDiUDbOkL0aQlHMPdjsC+5ow6ftVXLssC1TqvtAroRvuD58766AFNm7ZG67EBgfnIS8ZTh26U1Zd0FXwDfU2wETMTRVGLpmz7JPHsvjL9tkLUd1hyEigWo/CzBwEoLpyxvj2Y/VryItmZU9390cY1R4qGeF3jLeqT6zk0BXNY5JBFpnCD8X1TkukUQprNOi/MfZl9yu0DMVgbb5uN874ZVB8mMlh1jf6bEiTXkgnwZMVNrtP5NTu7u6xZUxDf84+bMx53rPPhj32JcQzcP2hgFfa18GWsjWMP594jp8slokV79L4WGJQCiXKWLHGNSw6rL+FviyCbyDyiAiMnfe4PSSoDLzYdQACt7tKCVSnH5xQvU5VV+pzVfAEcfQ8/63683PZnyho6EYpqvvw486GwZBQpLFhsB4LQ+YJKdzDW2hOqGX98PjboK3IFapu1RaTmxPnZWZmcsbK4g2b7BZ/QVrPViStUn90FZgYkbOlEfh+Rk2tuUtraXgw5Wpop3Nui1f+mUvG4WQQU/llxSqL7lMkX3gcVCnyeSYcW2SsE7Bv/bsA00d6CbNvkxNg26xKJTYiEMdZ5ycND373EJeq3EXbELXvlmtH28kZ0lHOc+CQ/6D8qB/Zu2ACvYwTCeQW9x8uWa9S21+Nnm41aNDgoEIq4D7g/wL/wo9i4JIvYL0wIVJkJJlHkdVxXGC/ReQzlHkx/k5ybkx7hDehTJqzqtvNNPqoDnVptnNBAjQXxueiAaBvn8ZWA+O59PC+lzPUGTagstlAfRlQP+gw8wfZkqqcQq/d9Kj1yY8RDLHikiNm76zYcl7UAH111qtYyxRoyATSi5gMZ/dThCrn5TbTa7FSZRAdRyjWnXOI9fts+k+0BFXeVKziilfrGyx6bqE9KLlqNicfmLiml027bOZv2qhitgQ6ljoWw595an6RnBzud0vX9OwgqUVzI70+rAX+Ru9rYATATocVfRmoFzvXPxsQvsMxYbt4S1irV93sGFw2RZrhYstVGo/3kPxx+NRo6x2X3yWGEmhL26I6GucchE/tIszHkCorSgGy3bga8QZb0NBihPqqvbJxHQdVz65O/7TN0a19jO/NHTm4zlsZn+8r+2v6+aushtRIiN+xUAoZeCpQrGgZ4JLhI8LRVonjFTwk1bxbvDonXNxiaBb0ErUxAwOEV0dqk5o4CIXtiYpwyGFPCSN/HJrr2h/PdM6VEBMSFhP1yF6VzMa/8/8YSeTH8ybx4nB9uB4nHTc/jH4V8Fg17vDnxzD8cDnRUddOoDR7WXFSMgR+VEBvyoRbySvDsG1KZ9xBZhpFeC/RqfDEMVqRu7wqxs+a8CwgNKpfVtuzMtrqBSjEHCKG3cMUbQ9JDfJOdon3HAFRpOyMbErjTYAQvKmiXcKUZTmwk7DdcMdlWYfbPZjSw7JWbY9JOwi7RuQcWZd7NU8wrYUBA4mlfCgIeFdbpVB07pjlLnMfNasnoLn+WR68JBNYHGRF3yDzXraPoRyM4lGpXtKE4GSOD5SdASrUe/Y/JMArC6NF3VzRbm9pGcWwwrh7Sx75DPf6qk5JtvH7dXlv6SFJhYp49XDv04amnbuI5zv8K3Sp7hpfmZI9bPzP+66XE3RgDOCWClbQNk54/zvAzjmggl++nFPkfnlr/v7nOnzkCw0e0xt8BOHWtOYNvxsXE9x8eHI/Xv/Sze+9GdHA5DKLfrxmNqyP+WtOmpMd2IESqRN24SqQ5WkEOWtBCfiG34YQBjT+KQmTdKeqXqLe4BUjyFijMje9xUmvPKJJLZu/4uMDllnaNSsScZLOV4BHBRgxvG0nIZUm712sYISHKlLEB7wUQ2kWQIJnqJIfoUetIPRp8WjQ5mBCOeA+4P+C/4MRjJ6pdBkATzM1sOGOMxHlTCPoCFPpkvK0cdeL3KEEgQRi8kSsNSnzkAWheFQeMMbMhS9UDSp8BlUdE6JAZZ3UJ8lZt/7SdRobsCmhvjBp4fXzomiqwwUkThPyrDT8b4O09n726RTglU/2GQwLdDVGSBprCNWf08PAMe8X/qC1b5PeBoKB1ed8jhj0WvCGgpj8e8dW4i2nk9we9Fw01cNVVQCMi3rFp+sgZl6fUJFEzdK9ZxE7jINq+x/QT08HDowPJnmvxja1hEC51Qu3ed2Ht7tyfbvjim5bcno29YSvuIcclIeDyt8QkL4//2E6IFPRX4hTnhSs2JYQ5yIGum+C6HKDKPOXiR+Nc39PvHXEnzX18kUVx/KlP6ABc6Hr9BjSoHeuUx+9sEU29ZiiisdJlAKu+RyDbwNX8TT23iAqU7dHlUv1i20G+kDwZvfUbDvmI2AvafEXoYwmbp4S+JCJB412XZkAuwAIYP+WHr+H1bpZ0m/hJZGuIQIT2Pd8Ev9Vlhafeum2iHd+BBv9kqj3dy/dqi2v9aAXbi4KT5ICnxdvV80pQa51/8dRJIPmeC8hiW/t0twtjEUWMMOUIA5qmx487bknUsuRKvbJqVOsbAN0hTVk7IuilpRPpyVEkVUZdr3Snl2TPG3rUw4sj0fHlMkowtSHm6r6dd50mO3n8V2p5GHxau+EkvBfCEi/C0D03xDKycDTqHddw5prwtR/WrcX/xcnw8NUt5oM6XFjN82uvXGceRDiEPvrJHEo8Ga0PJaoyBKDQHDjZZ+VXWKtlXVKEeD7mul1bfNAh7pX+BSUSzyyFWyx1Ujj8WW9ZwZBrWP3C95uhPCuIg850oT5Q+kTKmK9pdu6LSxMpfRLbaF7f8eYzG4iznDOVbwjWwa0N80CUNkfUGe0ceW0tLNG4b4tpOxLbech8h6EEORKsES4Mnflr+PPK8OzIT8JGCwr3Mcok5gzdOEAYSE0+z/P9wIibqr44jIJ8fGFsESTUZecwKPZ/bsSFz8R91P54CTtkNuT5zq1+ECphKKs+7p5344QnoSMVdTOtl34Dd5ibcKLLOQ/N+XpUQEvUtlkQU4w8UOwnaIJkvrmYHv6FFDIk9D6wyNgq/jfdA9TRpbsLqywsfXf6z4cBfGReyhqxB7Cn/Vn/XEpTigrAHZUXGInl2NfUVN3KaTzKco/cxLF+CcV7/OVdDarwVtMJ0W86ujQ8aBCSOA+wPWSGWyaag91G0VrG54VTOv9teP5Nb3FFDtft+vKMZBV/GNVGy8gQ2+WqWaX3afCAy9wsXddjNhuihwzcX3GfTPkUwL4Q2pFET2up4S1vcPFAslMhhqw5FyaUB/gzumz6Q3NjG6bUB1NVXJNAGQ9yhhnFHFy5ZocD0vC7oG6w5h67Iegghtjn/3FRz4gHNd/Eb5jwz86zGwDQsGLh29LvCDrPnfi+jfkkO06YrHfF7GEyWZjMBC8UAtYDjqt9FVqRxlmlB79sf5obWsYt//dFafFldj84ZB/6AZIyWvtFxu0FG5MFfH7h3qS/1JrlKhnDq8Vn5ROhCwuLn53Ly6m/q1M2L4TMXX1gmKIXzFx6jrsWEZh60W4vO5fGHHfV3jUl1wiwxZyOsT4KVtD0RgDpuXJbdLhBYLfCYQWg0OIvkzqNY2zdHp5DVRK3VuqymxhMOeaRHPx8EOOCVKcSP+rfSSjjGRLAE8UfeLtxD0SCMpLqptqymLXQG2NIFKKqyyEynukqDa/psahtg9m2yG0P3a5UC3T+kxAK86hJqNW24JvXh/KZukkhvA+JsN00FwSoj+VnQogrXtBLrsSVenqT+eoxczVOJVf2bAClp3LpfQQcBw26Fb2TnUPRRw+e/5SbahAxaiyi28RcsRWr68RywgtbKp8ojJQ/RblgqaXyaCfRWTc8lIQz9/pbaEt5C7eiTYECeRr9ytM45U/ubkKcIfL4gO/GgotwXhkubzPD7wlwHZCWiALarO71833ImRiXIl5KPdeAWAAHT1SeSmvQ5uZz+0xOP7eJA/zwQzpPU0yaJpgHkVzY5tbX3A4uWzPONyNtEvJh1YGeEOxHVHKCuz2KCRmx/gGUPlXAdTxfqNrT+qUmI8cpm20olbk0QKALZ0+rNU3FSyAlzdS0Z+ktbIyQdl8YJe9v4xF44XlSq+I5gOc+VGdH5Y4I30w6G7VfSMQIUNb9rCF3fbSoU15g6cN8bYXlY115LTwFUO1RGDVpYQZRafRkJk+HTFHhBcTCkg3GznGIs00JB+sxDhe6WfJKID/KchSe89jAhvEMjKKJO8CY4h5YX5E70q6SU0AXnKZavCpoOUaQO4NawppzAmXRJqgIed9NUWo9Hr10XD0HVWC+xD0L+5haryDSApdLW4P2S4ZoiMFXO9Nqxi601XOMrKnGZfUvXqzVTinq7s7OCP5x6X/Nn1LiK0b8bWLJ++QlrhRQnoPTPxq0EuQ/fSmsL+nQoUa9kAZAP1FTTaL6aFsPEX/yucCiwMzH3DGrijQ9aBCV+A+4P8EfwR1bqYp2qqt5S0GnjCOJdudGdyXNh+gxlTIVjim/g/kC0cb0Q3QNR19uFDm0gAzkBGKmsugOF2oNSW7JNw0IjHA8fEvF60hSFAblZwLIFlNP3fC7KZt5ALl4WH7SzrbWKU1XfescLbs9HkLKyO9UDAlkSfVRJ0Dz2lJ0kqTjlCnruVQasZqs0boKC35fC4viqGbYIWuvkOIFtcKXyTvHb90KGfGekq9SPfyFNGw/kwlehWNM638euww682j3nFr9jl/S9tHCHPb3qcvMil2D2jpDgyuXtpu+IZQQXY7UO7+GXnvy6+AfJSxIazWZeMRugQjpdAPbuRqz6emvJRIYk+WTjiuhVSyKyco9PSTgafBluBkWfVPZIwnfo+OZEEXXdIfO35MzK50k878Izfhli3Ygk5CD414r4YaQUkk1OXGsfVd4K24eTqk7m/lx7dmP44fRirjZDnw5r4zwGAf9fvkTOulSaPu2WpVWAkiTYliT9eel8wZylUTy1dHC6nRUkiedjY00hki195xIJg8zaLcURPzhH7O/HFQWZXaMTvXEzWgio27kTcKlj+Mhsps9nQnNpzm7gUj/aQvFd1NxczzEfprcz6IIRI7NAnOeir40e16uMcNV0J/li44xMdQRji2QGmAXTL+2ZeDWtnc8T8ilcxi7mu3tYTcIgd6azGHYxWmrgh7/DCzBMPxFAL7kQLveG9ktbr0JhjqVMDfm1vQ2qUqcZaZuPEWieSpJZgegVmNED+7Tn/R70BtcZIhUv/XVHfYIkneTkQJPLUGNyOkWaNUjJ+Wez2BHdpnbKf/MIa33ell1xEUn9bcuhtBdzAj4kh3eiAUtfeyCNrZC3yztYbBwHV/so5NBl1watsf3H9d8iwQbSs59bjuO7ABtBawntualVD0mq4Se8CwzMpMpZIoZ2nrwSmxvAZ57Mui9t5hAR1thgH/KTNjuw7bTanbP+3PA8Y01IS91xWBR3NOh1zm5xQzeP+1cHiK3At2i+t6Dx9oYEmB0H3EptOSR0B9wR6/xaCcq7ZKbOYujh3B8tjFUCBZBb4KWXBkniimUJkCwRCWihwUff6RbO9FojCgO+0KhPwlmeXlowiiSCLYJs06Za3jL2JFLCVUWGH4LyNvnGnvH/KMJD5xdgGPIi215Lsfn73I+Znlic6gU6WNXkJjNHolNW9Tjrqox5MsRySyO04m6w4ombBxgHwuDHl3FVc8jdkMhyJOiQFIokEPTSIZk3WxYBcYsmyN1lSCqwnPGHfAbbHoEwcBFI+jybppU23vDj73YC2lGvYo0O+gQmcgPuD/Q7/ENVuaYnmb9dMPPKgc7d4Jor+6EzDazr14g9F3f7rnF33cwXMATQnhnkIAg1uBMlGXlZ5FiEtLu5NX/9vP8hYwiatsW6DXIHOKHjEaRC2EzS9MlBx/xqy41ZtxcmHx3e410s7GOO3BrXEfd34mGeuY7lHahEekhJEAAqzAxca3rJ3YRpRLApd3hqvCsmmRL5mT+fltB4/M/ywgWPnmJpTog/Z25dwWuHzqOICVhI0VgyhgMlERhwJqE9Fm5tt5kpNds+w7m2IJnmcMRpSpnFuzs09OvEtVoAFDWkPwHemAkhBwbVK8A+vSmSRzGzQGroRKenAnPJNCwD9041P8LgY2RvQau1k+fuCoyJTGSFSgBpnSPqCHL8z1qAtgQYaMbLBBgj2inIRaZHtqdni26wlFas7HiKt29WOVDqKKHb+qKAuRuIkUK2rakNhbdOM8k7o4/tTJcYaqaJDDyzSor16UcUovaayfkanK5uNDFPiI85wrx4Oiqql7JQiYMO78krvbFNI/dxHhJELbQwrJrVQKeP+yQKbsie89jrUMwrcedEFFSwT8gZ1bFYw4Fq3kl60BJfEPWTh9xs3PnEkwgI6+c60x9+5+c24OnWdgxArup6P9ZQoHOnn+tlhkxPV3yjk5akieSldkp9EZ7m7GWFulduLZJRsRdmlTezo8Y7eUcxt89adCKp9nFGzmdjgO2fTXPJkG+Kp5eqQnjBpVPKUUNPIyymIlW8dNDkCXPVBasDROEHaC9bA3zYeSbNsKaY5srxppJSG3RVnXcnv4riay0HDomfiEmLMj6GZzMWyfvNCLRoDKIjLHyfNBR6LQCq4HDNgVNvVb5A17qxJpltxIG2Y+8kDFbVSkzVqmRv/svqKOuX6l1mdDKGidXaCNrvz7V2L0trY26N9OPmmscrXXWFROGHqxLmOeCq7vd9IDGqYVDfuUZwtoGKVy5ZteobMJHMV38xX2Jb5hl7ua20l0QQasz0TQ0fHBj6hXbabO7D2je/2NuBPdP728Jrgwr/XcibN2MP2b3VIA/dq/0rbZlEJl0w+PqTG4VCiwTFfUt0HboU56qbeFTIZetApRKT0rEL6ZiT/M58s6et+gj2g9S97iCT85rO8n6q7fKapa7MmTvIFCZkQp3vox7okbadf4Tq+QdGaJ22Zsx/e/ivXuyfEDfdaNoFdgLH3/gM6kECgImAxtDhXYEWvgOR60YzoXhbML3h3DocaDjXqaFKspz0b/FsCqtJDLb2mTWGaKOZCFLlk6aNDxoEJ14D7A9W7OyEJMZhXh2zIPOXeQazGFif/0Li79A5MOHU955WWrl6Q68PB42NiuDGZxK9Ow216ARLhcycf1NOEywAWM1g8Tco4thCJGpWVavAWzbUV62u8KpqW5cb20AOKWBHPjvhOd9LQg7G1TMFQ2u/f30Ym2UB2W8aC7fqsovebEVARnBduxC9QarES4e5qGPcvUZOt8hTHUnu10Kgz2iBTVVWly9UGVGIPhejfQRCV/ix0ahNV904WqJBLcKy8NtREs5Gh08/kP+OzcbKi7E52Wn4e2xrTRusdpd+yrf9x81OS8Tm+arHBTQ0QVctzTaRKwcMcxL6MRPUwiYMu3GK08OA0HgS9HUe6SjEu7QprN58uNFI1+8lzQUbAl+30FCvy9SQwEjpAuJ7yRgHzCExR7JZdPAfN1DMlWuhleCubJ1zu1jpIe9U8pAlS4rmVQoDY34xR08/4ZKUSsF7zkQVhaXQc5I1R3su51hdvdyAivLnAIGN+Ih28f6WgAdpnP8aLvbhkQrPq0bMS1M7CCs4Oh0OdIfaCOCTN2Z4JFx823y1uxjUtvjgcHbVR2YxxGzLGFCwr0kAdIAka7QP6Ib3I5noMxlnn8VNsv3hQ9Qjxa8jJ+40zlVHe3CleN7xSmGw8BBeNkusnTLjD8hy6rcsU16oJB80gSLPI0KyqZnRncJ6/t7t/TBYOrta04iOk9owyi40ZTiWjpcK54xRRoR164CG0gxUA4baR491qywkEHzEB7lHKrQsOPSeB5LEyYlt+f5NSIMHFs4Z5cRs3QQmZ+kxkQk0Q3Hm8AU26qQB8wBzE/rjGRL+GKI5cAW8yQELrn9oSYYNN4qSeo3aFUjwKzPDXyE2eXy/fTh3mR3xXnoePOfcLyLQOto6Tx0lqxbpF+xTHxvGHhjXvtfT3tRz+bRn3Ufs1f3qy1cX0XputPvyXzjKAF7ebexoNkgJDJlJq7luR6K21fAswGRLU9SJh5l1U0eYyFp0saXpqK0RqRv+qE/1sY5+zC7ql6FLdPavjXHgiFxYg+VQs4LmiuHir8p4ZbRLwhv7l6H2s9esmSvRylqOBB8xCV83Lw77bQWyRGVcd6moR3FTqQoXAZnATip4gaYkyXgLcbzozts8Mmvh6KTA/y8oUlI3ArjwzjhU9USTcp8IgUkfaAyOCVqqqclKK8Rf5yWCD4UGEwIJejleTLH4RR17iMLeXI7Ip0viYaxbfTJHi5kX5nG99VWFKXS7pPDX0q4qja2pSkXZ8jKaTq8bJl+60Jn5juy6bgm718KND5YEKE4D7g/8T/BLWNxxuOT10TrPZqX70UuDrgtKIb+sr1K25SyU0FEgNl9hM9FBY33dd505tiW/U+mGGnMLdBdn+lY5+v4sEMVHOaNL6Ye5zZiZoM7TyUZIbNqkHBlregDpNcLJPXf8BF71V72rT6Camo4Pg57L1l/KZuANRTFD5IrOoLwyJxAYpIhY3duAeWR3ixUjLtwWuhK9j47Lm43/pFgMQg3gmq5zIIsZiyTH1IXAAt5zBw74VdxOSp4Z5XH3hRaqj0mhDUNV8IcsADkCeohXvWmTsQ6HDmGhlogGFOds/b6yGBKO0Mzs5i+lb7grV+3QUjF9BCbmgmonaHRVh3W5K4rjN2kEe3Fd6TfTZC5rDvbg/4guMVvGuK8xEWft8mDWfW8af44XPliYLniQ9oSmaB0ajgQB5DYkfnE99EDLL+gXDOrLo4B4VdkJ2tsoarO3x1krR9Y6//+Wmd81S5+EzIRgvBpPmt5PNKdIMC/O3QoqYP+xljgM3WnWroXAGO1oKgOCyvsqsfsyyn1MDx8vZcoMooneIeUzHZgefM1e4Ks8FcDIzOqcAizlDN+bMD3H+ZaPXw+7umH4Da8HUVsDxFZSaf5D8LYmGb7Y80ralsYzvCL+WXt64jNYhbSvrjxIxPhHR3Hgj8Knqs0f25UPwwTHfSleQS7k6C6Z16znZzid/YC71pNg7ZYacDO3Hlw57QAqDNpqN4W6kHZGWmVDTz+NMCPXXrwcj9WQWXr+tZenNZ4egS2R8KzQR/n9S2Ok2m+n11afnDmfI+Yz3FhjHYEKuXYAZnrqvlyVESA6rzjWkH5KxGIGpL2k9clCQ49tUnXuqxlpPizP/aAK47ANw1NTu/ShxdY7GWF1wKCilzSeQWX3z1le5DPXfTJLCu4Wb+1XYe+ybTZtmeokf6k8H/6TF0IJhmEMTPc9LLmNA2bLlbs6lrl3/PlPNTd078h9BVFxvpyotP+ssQ0rLMfJ0TEvtWRRyNqToXS22jXC7tczSLH8PbJxHy99C8sRQ7MS3rnPH6PZFMA2nb2/Em3Q9kgIxLSv0hVTT27JU6FSkaEBaYhtZ2i58HKe4yThIGf0Rj2P24XkqK14rfSuX8Jr/NOlAhAjBymuGFYihPcTVC82b58wCyYfx4I9T21+Jf+risczScVDLtDCRTTA2H85iDt4rNPV1ZNuM65vELakX1kPJQT4sL6iuulSU4llpmHGAbso8okKtpU50F9Dl9YsWNsEAh4MG30irs6cAoqB6CP/eBiQjZMSR9O24l2jDMxTjvROvvbskj/09/XZSerQUwI44dm9ix/J0jDvd+C+hM/ejRDuBCk+A+4P8I/0U339uuJ8PsL3vxaDYmXP4Q59CMyQzKCI1/Z6aBkLjxF1leXkZz/Ubl3mIQS7QliZ5Ajf7tVN54QXdhZ0Y5rVI+u/bw4VZ8hmJr0LtQpP+OgFYBmoZVFiqHcoUxE3X/bRZsak94PJiiiajK4zzh33qZruxORMfxG9qEugdSSBQ4zTMNQZO91QPNAN0IyW/GR0u75TfHWk/e0VMp+jPwqTXqgYOiV/YeOw1T9X+F+cJH7qxPM87qqBm6BypttiMBpPNfTtO21/bfR8/rCWrsRsSL896JiIYvpTeO2Sosqp9LYPkT//S+ruLjZl0e9MdAnLKFjSuwy9oyttB+3DPh7XC5G90g6eaU1VeknpVSuwv9IUNwYIQliVetYsKdl/VSuKGTXQRRy7Ar0k0TyIsxOjozvTw2cwHWh4wl6YR4jm6lATleYzuzglVU8lasfnt70v1F0MK9leZ3SWV8/Kg1lb58Ubo2zYuGS3Z7fIcgXUGt1c+AdAU6y+Et8cSrecc6338tHOsyLawvP3X/ir7EVvMplNoxJbu2Wy/9zlNHN9TI3qH5DCOuUYZVsmRq482QvONQY6zGyI/xjS9DNSjGW6vWw5AQFITnHQPvpY1woP00xfbpS0NHj36I1F2NgNAmhtzCHZWdtjAjwVQvESmf95px9fUJVF0XlPwhVC2odQEHggEkqW8EClhu5W9R+LAWfcmIiBuXsWPaeVwoD8CqhAeeV3T9jYp7ODhXol1jmC9ytI8oNCYUOK6tvkDWeLRBoWBIFCtxrF4pIRO3eXwXBp4djdAP9iGjVwN9gEaXyvhiiXrZP50EMrZDnU5YdTuRqEnS4VshmzjWUWQQAypTPqLwtsklTu4QRxF6IhYmOd59Hqe1PdpOgYye9rghPQhT3Vcydm+/0Pv9vVTiwrxpCEx4m9MXyQEuEvdTA0W3vM75nmL+JiMCoPB5i5Fa37ohnnLjWK5rPvWQs2sUua15ovPTE1oRo5Jzio1FuyV/RfPpfQO8eQSFFstmxrKds9hK53QRf/qCC5rIDgEQHf2DE3fGPDaOHDZWvd3KYPTsN4q5JDfPxYtGsreeE/4UoBDNjG/8nCLt1igQMLiz2qD304Kjtsmxv+FJSja4ntktrB2TVmvjTmWDzrPc15NyMJUlnREQd8fyCcu3MC4Xmfn6f4hIiw77e5vN+NwDzEsuzsUnQGbYiQgfUJwqkCmLVDX338uTuIyoufAcpL1b/buxwWrY9dH+e4oWZwCoQuMJGAcvMqte/Z/B34UKSzMcfPegKIZ2Ptiklwub3rtst5uUiA1So7eoJ/+kbf/u7Ln8+DXatvJQU+ORWoklXzUAQLd0hUtYq4D0PEg6WIAzRevuEAws/aZZkmRAHw2BRVnP3aAANlBcZMN5PakvACvzzN0rKaD1IhQe5s5+847fRgHNUFM9OmjQ8iBCouA+4P/Df8Y1kqWE49uFCybBx0O12I/ayazwvCzgcznli4dVdMwP+FlazIIqXiKGrCmVm6l4Wc0oEurS6e8oly5Cgu+Ogtb4mb5tNAe0SZW8cjssM/nORNI+5TuUQIBLKsx5SKQYnt7jJEA2Sk/R6wHzDK0lnsxXrYQsBXJLiBAOzbM3OkorbfuN0MQ2+Glvoh8gJS2kmdMWX3lnN5ZsHqqNo4waBp4O1P48USVpNtc/N+V4gXKKusO3gQDBKF09alfpkpNyz2VDjkr1hfIFgO3GQcEpHBjoPSmsi9cgQQ1E5td4W5ffQukmEEMypg947TsJDTzByRKlscHh9TNF4eFAMZ18wkyv5UwPAd/8KRnBBGTkFQJZrcLzotPkztiI7vUm/070wIW3f/KkS0bOTM9NH8mQH1pSmts8tZNXRuqkJgdFftOwFCX2YrhtEpNMLJP2fus2xJ8nKh3Sekq4kuVHCVmrkoEbZ3aA2bF5Ht4YGUqyeqOHP/l4FJb3nacHFp5r0Q/Mlz385WLbhfcWKdrw4XitBIHgevJVlm8sLh1T0rnTfLt7vsZ6krKmtmafeolgdQiguV8wvUES4/b+bSgCBL9DQwN8GlI1O50d04nQPfHu0oeWvU3WUhtRahWHThmOHCFcR5NmKvlcOtWR4u4iZczIA9qe3r+nGTtd4qX0t/yxk+FEor2K+NYbeO57W+ODTfjgaqBMr6WxaTPY8tm5yxU41b1QbP60BDjP0r9KLTWw7WmRhQOFLMWLe+YsTJdhiwXYyFhpm7WyfEFFYWucLfLj5f96TVaipvX+x371bnTdi59W2FPYQ6tj6amzfri9yXGmUtfegItuHJmPwVS1UqgHDQ0f9mz4xrcf91bH9gvGVG/csB8/dZQ2mLV8p8/BSH7mzRUuHwZft4FHzhbgtyaXiXzebnh+bZn2GdWzM5FLKdcZ7RhgahiBkBxkVeOx2yhjFy3rlYiSis0G2AS2a/5tAxzIcwBBzSawuFcXNSqTRQFXYo6CJLxcW3gx6GueTG4PANSRDoHdRik2faGjwhS4smb0nQZ2U2uHAzlQTOFd8w+tJskG6+UcztZwokH83wPr8wHVJc5ZWkbhNGL44OZOuT6B6frnTdnodEhFXxto5Pf6p8uufHzbtQ9/9WodzNrA0ZaBM4FGmlNGhyROFwUXzVixwBDidmKUi0DBo4XSEiD3zXfd6z0xeJ/6Fmun7lSK9p+YiYUGZ7notLQbS1dEJyU1aOXKkPyJCGxRW1msdW6EDMabH6WOyURSYFiBpV5/6NDgYEKx4D7g/0L/woJT8g0UZLEsvK9CG8KFeIaz+k6ePxNJ5eJqdf8SQ4FH1n9os2Bw5Hy+mmhN/BfCo+GeCDfnVpN65tZX6b3ZTwMMJLSL9O71h9Fw+J3lMhJQcVFKklx/fNFXO1NcSRZFPRQTdm3EdRhN2d1MoWPyOQRVCowJRMhFjdLLcJlvSPKgSUvE7EHVX3QuwvRGpgzHD9rkDRepQrNuL9/hXTpfBVjnw/mn8GQlBX3do3cXTdAAdaZj7tsRLYxjnfnIQ84OmAtU+l0u8rMLGaB7gs3dLbelFIeK0Mc7DOQvjDfHgtMR0wkGwxBR9fV8U+OIIoI9uMYzVEyVqwHahjwWNDDnYSRgnChwE91Rh+QWrgWLRBu/eFT/JSGgzpRtJ3x088r0fOo0V7mVqJAHDZCtAmVrZ8uyMQF/4k27d/QXxHhIG4ewcYvD9zTi/86CYM6RX+XVSH/k62XfzUI4CoFwC3F0zyvvm/fDAgRgATxyOhJg46obaWREOYtxo6zuu92xmp3VgV4JWnmFS+B/fDgty0R6Opb/V5jH2zRY4KLH+vhXXPMO4qIJoLIOLXolxrpeQbDGNTHYIRPxsm07PhUlBNjn77mpd7ArpKSjBsIIcBbboBqn+rAc9YGMIUbMfPMuNuhemU3YNPWRcEK9TgyIJkWhA/+B1vx2K0mvTye/oGcv4QfXZNAdPPH47JJjEpujGy+38mwAHp+FO31pnspxpMfokV7i0jkliEyYKbi1bVF+LrNDFyMn3Q6REy7qGwv+oDXi1Jk66WVrYhhKxPtc9bti7gnOz7YRebmq+v9GEfkvYJdNz+Ypt3vp7/v5Hn7FcMf5HMumHqXrnmtExc1Gz+iQ2Zt/GgNrQCisOEV7rGPRbMT6Ve1mKjac8ifPYB7vi3c5r0EGAfCmbnMUofvkO9Qu4Xtz4gatEV4qBTFW02whfPuIXe4HbuxTofOiZwxa5SqPSlTnZ+ATG84HbmRBkazr7wTFrvEWT7i8+HBFO3j+meDPqqYGCm49FHViWbwHCxxVhO71YhC5Nnm48YXSblSeTH5fSQ6Pyz+pFc5AG5unUwllFXJtEbSbnzN1uqJ6NFGpfWNG0oWNMRHatTrNGliMEeNePcBvfAG95s8RurCN3E9kdObn0aRU2lpXgTMGsOawIZ/fJ5y16vKgi5KkrnEpdckzt1/1Z7LuqNDiYELA4D7g/4L/AtCxjFb0fF5mnEPsvmvhAvqeVQcc8RjxuBhgpuh0TZA2qI3m3psK01m74O8HEDHoYvjhDknxb/aubDIiievAfJCjgCFAIANx7cMKfgsUidRKmjfgozTd7celjhQk5BG2s0jFZ1KvcmPr+AUzvkQXbIaonzpFDXSPG86ERhFGQnie/+IcYzwkie2YBMQWlV06WEnWCgVltP7qbt/lZPOmOm2idl/wRnOK6IDSHSuzD0MPs4NlLJ1XQScN2REHhbc1Mr9NxKgNPl5Kg82ttritlAOprnsBdf6D4Lwu0dIsrHDl9g7pEBa8fn/SgWH+XK7K6i+deOCAjeOZmM81pm/PjXvA6+W6O/LGlCgNGH5E2v5d2Cfub2hB5Lmwl3B+u/+h0IgDDau+9j6ertEPI7O9yIZeksgeIiWuVyIeaEd8tjqcKs2bZkzu/JMxu5CATshLYVcFSYlBzgCSymeKKyJoN66ZCC6nZG8jTAZTbSVbNkmqRZu293xVb1hut8p2xW2GmgCOKr8t1P+OamXlH7SDkydImQVLJkjIkSDeM5CRswaLBk0IbFNbM54vWrhLk122YFkhODc5TtV/4sP5IjBuxKHap1YNQDCO/8QE/+YyR5bPyo5TnIj0kDw8SfiGPra5TjbV+TjYi56pnZVwV5MCcrJ9XOiXbOLhaGTagMRHAX+3wO6m3eCSFncGDv7VMlDmBJrQTXzrB8yFsvO8n9WPIrjUd/j/oTXrl1fOMFOb0s7IVbSg/WhNjjugLbud2ez1CDiJTX8TLLiFgEk1HVDLER19RVH9Bd6oYJ8ZqzSjAQcJ37vNjswCNssS5Lkj6W8Cua0tpVY/cW14OAr6jrUrmmmMtcJUERjpd3K68ivbtVnGEoP0P24yeBUrde8GdNGN71ihxFxuQQ15cWctujhhb171Ea/o/d+Yf9wo/xleiuuT/bZYlPM92dWWYBSiOS2DvYZZ1hdI16la9hEUAjic0VLAjviilRKfSZMwv1mgS9+c/cF6tPCT4zDt1Exibp49LJ5susVJLqVZZU540crkrdkhJpne+wyDdJLYyhxuXY+ROj3+A6fKkSoLpcmc9gF7lz7dVCltPIMqY7gVRY/SR9HWfof5S6MbGoEMonPi/FNcISItOsvC1xRKSWWxthL3icWG2lQ7JFic7Mf5nl3yuW0xOEpQzS0qTGxbJBZTiSzo0QogQs/gPuD/BH9IzPzRo2UjVBYfFtOhIk59aBsHSgYl6le1vHtjTqwD4YCap+koOm4VsWJ5vp/PlBShvO58Ppsr/MTGfEZWimpTJ3ZcE8revYODt3uTkQZEcr230JdCh4vhLDJTxuBy+ZDFupetxDgfF+X429qODAXnc2sz9479EpQFvb429SAhClNfLlQxYCuRtIJu2OORXJs27OzVUEQQpJXq8Plq4294fgLVoTGFxeH110y6Yi4yakYAJvzJCgxq4zrJAinUl3bp9YDAuX9/SJk5SLsKdT0mMqEuhQU6e1EAzcoS0BBAyx4QGxuFvxZC0P2WMpJxezENVhHhq69k6AAOmkCfN98pbYCk1XpbdMcjDMPnsJaIDsSI4pLrTX67yVsdJVHyqt1U0apCdPwKUQ3fVMEcKyw4dl0Io66O22nbRZsfwHE/J7835BNIqeP9ASKIAnjS1eaIJDRB70n7QZoja8LlkM+Y3mber9QCYFSrzR3nnnZvaGbjCxL5lzAHUkT1IAkSOVdMfXYFHsOxWKqISkJaURSmQ9vxHVTc5XFihmirCQyovRPIupzN7DVRJRwPQEnueDrWdblNqCdkkjF3qzCBV2SUK7lgR+bX+Z0heaQRzlBANxjUAJ0tHM/31pH0vvF/58i5Qs/XlpsF6XDPV9iOfDo1FyWvqmTpIqMPC8yW7yQm3NSkGzDQmMjcS5WMkVkPREMQIqG8GjffCBDRSHoCbwvk6feYB7AChLe5NixEUZMS0icqXrOez3Hn4NbTvukGuvjMkjdhkoNCaVQUw6aZJS7wkuKiSszSy9F7zucZ/9o/agCxd/hb6jRbIRvTbi44PCKt90dRr9qiDCicwP5uThCY6J/EDhyL8q6UBX0+bLmM02q0osDCFi47BJfekWFq2E6bfU6w6mG4JZFphh5AjvtnLqrGeB+xFvqj+T00pqD1JyMV/zCEDmJMtri2CDHWUreyR5U35433aJWtr4FwNVXd+KCm8z/xS9Qig8gm3GtH44g1Kidz0KWAH9zvLuqPZDB4zA54OY541zvVCmXXhzQDiHOSbDrW9TqUl2JGzgcRWq6IEK9ObR5kp+clZtEFpZ0+QLs8IXebuCAyUw+WbPM1gTkSEZLsWuehvel5AYwOI98R+xMPZ9Oy0ZRhJuNC98fATQNmEForsOMQcza6BF8M1Lbs+L91933q/l+2L2ETdeicourm0xcVwvk+3bZUA5oFNI52eNdNEASakKSLXOVcL6rhIx/masd0yXw8LabAgjuceNE/VZ1pQf6rrwX0MzuU+45xwoPa7Ork7sij1n4jiM0g2GlrvRB5qQfaF30toopMfA3fhVckMuD0WNIe2AafAGf0VyT7d/FKPDiU82UMZfA6EHS6ye2xL44L2KAWfuHMFSldDMZ1HMI+dqJFe+jRKyBC3uA+4P8H/8o1o3TEmq8jyPQaHFwVboi2Y4iJXLZXd3lp0MAF1DZpB4A/DY8h2s64wdMpIoa3PZ+FBLELKaIftoJQ1iGIWiSp6+qgSQ5yBDs8hFKPH/Ib9wWkDPWIITFAY06dRNE2fjTTaWy5QZw1/cfn1i2Z8SjZvqmgAYCm+P2pYzLP69nC+sDzhw/5MDwicbWXl7LJa8AwBH6dU80WPnxvVFGlW5hpQgAN0XLacyt98mBPXvQgTq4BY5cfiqleIM3MhFUdxCWdxhFkgbC9zv2+CeweOPiGjtUtTpab8CplglCJ/sgVheUvZKIJjn6kGBXREjEA76d+8dn4LI9EFSg5DUoMrdVaZr1qTq1FOU3B6sXrxJMttYFUcCHAmgyXvjdLI6Dh7AxVTkNltySfZJPMgHBzhKdYqHqzSKSYOwuYROF9Z5/u6KcXOWu+XrrAXi8m9Hj7DVgFnlTxUPEtFshSyjbO2rfFeDlvSUYTPymfWFIm9XCv5KghTOg/WSb8N+0z2qiFtKj3XWRQLrk+KY64mDOjZ7g8naJiz1GAmin6M5VcZEvIM3A1UftO/xE0HfJnVoWIXBwwowF8UxmfNPHJrKbfiIlyB2/SQ9is2Sq7TQbVb4jQuD693fwzTHmVEmbXUF7currq5wMscEYuVgabCJ/qDmqyqLpwgBMLiK1bNmRyfa7RJfsOhBD/zuBqRizR24b5uqTVyppRQ+YwpQ4QHDkwzieG6D6Jdq5yysUsNY43kpyj+zaBAG0Prg02F5iF8DIFhh4esg4WLyvG2UzDQyB3z3DYiHdsrioryQjy9CQbY3rpmR8nRl3/P9kW0qhk2vGqB9QlT+YDrMRTcWmzGE5wKGX2hRzFiFWgYRfvvhK/ZbxNOFRIKMxzRXDobaHZahyhAn23cE1xAvcU79vttUZNKubAW9IPqLVnWEV9voZ5UvNYr4ydEDeKha2I8Tcp+/D2XJ2j2gU1Yk1ijV9nOAxWBJv0BZWA4+TVKwRhcm2D4G5VZFr5h8SyHpwI0zlUMqoHWmD49TiF/VWaaVpakzo957x6GoQzzBgu/XfRW5+oFAF36cFHI6mm6D5B8y+Cf8CGdiuocsNxGd6J2GkzUcMMKe12BzyZSLHYnlCznN47ZIneaQ3VDuZGPXsL3HbQKRx8S5YcQlChP/mAfh66vUGW2XejebISZO8vNGKLLnjbtHa/AiLQhc/D4exPeD2urFh59Ok5+btpd/Z5LnzuXGGOe5qst/MMiVCY3Fvrn7AzSpSp2cNcnd1U5OLA7EvGEMDTlpyZ/q19NHcDOvBfKRgtkjfPRXSckgTCBNDBbQQbio82VYAUtXSfQcOqpHxGaj6hVKCTz2wXskqJvsUw22uRgbuXjPc0aIVy5BsrYHlPV2/Vm1XPXKhjSquA2KmEv+MGycNWAqQbtcEV9sdfUht7jjF7iBAZZdLB/TamYhKvLklesrJxU5uH1twMOFKyaTG5fT1XFI4rbY/EnQ8Az/QTEyzsLfHibYz1CoIGttRjTzjAA45LCuCBUUAElOkv29CuCaLR6Nj1mraEAaAB9UYh7Pn1LXa5gSRdcIF2eVT8zpGogBk96NDuoELt4D7g/wR/Q7VcnbavrI+aOz,,,,,,,,,,,,,,,,
