success,timeout,failed_images,failed_audio,failed_video,trial_type,trial_index,time_elapsed,internal_node_id,subject,audio_id,rt,device_id,view_history,stimulus,response,estimated_stimulus_onset
TRUE,FALSE,[],[],[],preload,0,3970,0.0-0.0,zabrw4h6qwfxfdy,zabrw4h6qwfxfdy-2024-02-16-03-37-59,,,,,,
TRUE,,,,,fullscreen,1,6912,0.0-1.0,zabrw4h6qwfxfdy,zabrw4h6qwfxfdy-2024-02-16-03-37-59,1937,,,,,
,,,,,initialize-microphone,2,53340,0.0-2.0,zabrw4h6qwfxfdy,zabrw4h6qwfxfdy-2024-02-16-03-37-59,,512992faa1847d0b593bd598fbceb4954ba0b5defb847cbbdff08280feade7da,,,,
,,,,,instructions,3,75774,0.0-3.0,zabrw4h6qwfxfdy,zabrw4h6qwfxfdy-2024-02-16-03-37-59,22432,,"[{""page_index"":0,""viewing_time"":17022},{""page_index"":1,""viewing_time"":5408}]",,,
,,,,,image-button-response,4,80278,0.0-4.0-0.0,zabrw4h6qwfxfdy,zabrw4h6qwfxfdy-2024-02-16-03-37-59,null,,,images/schemes/movie_scheme/movie_1.png,null,
,,,,,image-button-response,5,82980,0.0-4.0-1.0,zabrw4h6qwfxfdy,zabrw4h6qwfxfdy-2024-02-16-03-37-59,null,,,images/schemes/movie_scheme/movie_1.png,null,
,,,,,image-button-response,6,84782,0.0-4.0-2.0,zabrw4h6qwfxfdy,zabrw4h6qwfxfdy-2024-02-16-03-37-59,null,,,[],null,
,,,,,image-button-response,7,89285,0.0-4.0-0.1,zabrw4h6qwfxfdy,zabrw4h6qwfxfdy-2024-02-16-03-37-59,null,,,images/schemes/movie_scheme/movie_2.png,null,
,,,,,image-button-response,8,90637,0.0-4.0-1.1,zabrw4h6qwfxfdy,zabrw4h6qwfxfdy-2024-02-16-03-37-59,1350,,,images/schemes/movie_scheme/movie_2.png,0,
,,,,,image-button-response,9,92440,0.0-4.0-2.1,zabrw4h6qwfxfdy,zabrw4h6qwfxfdy-2024-02-16-03-37-59,null,,,[],null,
,,,,,image-button-response,10,96942,0.0-4.0-0.2,zabrw4h6qwfxfdy,zabrw4h6qwfxfdy-2024-02-16-03-37-59,null,,,images/schemes/movie_scheme/movie_3.png,null,
,,,,,image-button-response,11,97892,0.0-4.0-1.2,zabrw4h6qwfxfdy,zabrw4h6qwfxfdy-2024-02-16-03-37-59,949,,,images/schemes/movie_scheme/movie_3.png,0,
,,,,,image-button-response,12,99695,0.0-4.0-2.2,zabrw4h6qwfxfdy,zabrw4h6qwfxfdy-2024-02-16-03-37-59,null,,,[],null,
,,,,,image-button-response,13,104198,0.0-4.0-0.3,zabrw4h6qwfxfdy,zabrw4h6qwfxfdy-2024-02-16-03-37-59,null,,,images/schemes/movie_scheme/movie_4.png,null,
,,,,,image-button-response,14,105596,0.0-4.0-1.3,zabrw4h6qwfxfdy,zabrw4h6qwfxfdy-2024-02-16-03-37-59,1397,,,images/schemes/movie_scheme/movie_4.png,0,
,,,,,image-button-response,15,107398,0.0-4.0-2.3,zabrw4h6qwfxfdy,zabrw4h6qwfxfdy-2024-02-16-03-37-59,null,,,[],null,
,,,,,instructions,16,112805,0.0-5.0,zabrw4h6qwfxfdy,zabrw4h6qwfxfdy-2024-02-16-03-37-59,5406,,"[{""page_index"":0,""viewing_time"":3861},{""page_index"":1,""viewing_time"":1544}]",,,
,,,,,html-audio-response,17,142516,0.0-6.0,zabrw4h6qwfxfdy,zabrw4h6qwfxfdy-2024-02-16-03-37-59,14251,,,"<span style=""color: red; font-size: 24px""> NOW RECORDING</span>
        <p>Please say out loud the list of the actions you saw. The actions can be said in any order.</p>",GkXfo59ChoEBQveBAULygQRC84EIQoKEd2VibUKHgQRChYECGFOAZwH/////////FUmpZpkq17GDD0JATYCGQ2hyb21lV0GGQ2hyb21lFlSua7+uvdeBAXPFh0p/RaPSaEaDgQKGhkFfT1BVU2Oik09wdXNIZWFkAQEAAIC7AAAAAADhjbWERzuAAJ+BAWJkgSAfQ7Z1Af/////////ngQCjRBOBAACA+4P8MfwKe/fjXbXtpFkVw8xKRBiJMzboUO+axVqyB31EDn5Ae1OUOWpiMc59nxZqKRzNfJs6kk1StKF/bU/qqVqRPni5hzT85DYxpy6frgjRDpqfffTA03X0J5OxkKIEXJy4zSklMZJLYOSSCOUJwjUW+B+LmtdLPxq+BCo4n86vflwK55lAWtfx4BmPx6iCdWbyArvfqKzfZtQotZAwovysMw+AopDBOppv9JKdf+yNGk0FrhNQgByXtqOs7dAMKnbv97Hi/XTQCoXtKALYwAAAAAAAAAADEiqjJHwg3m3hQBHvkl3IOVBXeWOtwChSlsPF0Faqh5A8J0ddgSwK7HMYHU+k33PlffLRMWOIuzLY9iSq6BixO0SwT/jQ0qQm1oX/R/7Bqh6JaWeozkrxP5Zi3q5DVh+Ooms3zItmIsTknwlRlFm+ywPVPLOYXyLt6q8KopbxHbp+bRCfXjciT3MsK7EOM84QU9/NylhfFpHh94VPZRxC55JL40xih3OQvEWUrDy1Fww5Xg+qPXBuRBTiT8tcWLwHVOWJEobtX0bzODp/UJJmIROR2j8GKHwsnOs4NRRrd5aUyVChwVkZttXWH8VR4VPWRLmnfgLYbXEygEjvW+UdVEY7FX+3ZFYHrTqLR6TnAS7LveAvMF8+de58EpR/DzFiKRQGqCFXcW1F6RUv+s34kSuceDE54s88sIX77CK9U0wAxcTtd6km8XC58HwYJ1JxA/j3FzdMzhaqnMfsbN67+LHtQcfwZsWtGjxYlGX/Rrg2rPWvbWTn5Vc1P+LTHQ9IVIRWEYd+p8el4bkPB47meOTc/D1HNNepB76wkhMPXiUB9LNMp0GDUyc189+Ds6r7M8qGly6nshu4XDOCgRhRIOhNr9hj4ndrjK5XXsp1u0RU9zvaFk+mTEOhUImUczhWyfVwYKS172dNjzoJhchHFsLQoGVk/8aTch2fOYJLovLOvXazUduAwo+0m6i5Fx+7C+9EKGMY6S0sM1oz0Hll9ccOxqFMLScNfdRvsKJSVnLz0LtXBGxBiSvDkXwddunQkSbFk9O9AhR5uUjoFcycMUDT1Km7QCUIjHKBxMxzxZDZNWaFob6tqzzNn5Bl5jkjMwJvkzbW+IRnTYBZXjCLWti7tbyrpI42QCoYBbYmzLPt32pMZfdyIg2ct5Ry+me/bYHt4o6zvyT0ddShzs7WDD4/gXl9s2aQB+/HHhWFR/u5HCJjKyhKu/Wj5e96gdB8PrzxDr3ZXBMSBOA26/0k3Kwo9hMo5RQ5PVCCIx4kDeYPPGpt5Wj2C4GlDMae3GHoPZ9fgLLUGU1o8Xdhx3bQhRtgz7XO4XFb/vrz+SIXWlpIeGVudffa8CW7txEkPIQgK3vGSHViiaNDiYEAPID7g/wL/Qvxd4mKObADHLMyrXqk/oa+gOTL8iNze2IZnQriUu9y6LdC8RojyoHVA8tpTwQzYhIOs19SETMtGX0zMrwPeVBkbaL3dwV0AkFubrMewhNldKZ4/cgtVhVuaiDmbvrIYZyQWcO0SRMVJSq3Ln9K9kVVPFYGY3dgNTKPG7JyBk/57cFQkGp57LxC9DtKQpBlF9X29wfjuDxa928iUtO5W8mqYHA2j6Ta/oHNKjcBpDQAR9HkpyhXXrR1LI7mq/j/kZLX02lWCEs1cqesEKZxd0ljs/MlC2ltZ++NDr0/Oc8bVMkcX52MmFwtHnC5NTZeqFf9IY6+XL3h82Q/IJLzJxSyBth3oWyIMChzbjHt/t3NLh7EQrySAmOiZICbyku1AgXGIrWLRYZVJfBU6hTTpPfr8UIDJQQqVejHOGugEid6bGN0VYsTYfkDpnMpTBdSpiHVvQu3PDksCIx4Et+i2/90irMcQ3ynSxSImyZfQ2VJROg0NXO3PfWI+LdphU2ZhLagQmRqyQqL4r1agUSegBtMqqFByP1dPkO2di0CgbGsBzwDVva0ctppsLwB/KYuOyMnaK0z3H5D37pFbLa7NViWL9guWogljBaIbtix06u4ztKaIFCexibgfnW4Hr4ABwVX6urYxWmwIgD5jA/tWtzlVoWHxeWFSpa1Mu0PEqiNTPBKHj/B4/AKaP9Rb3y33uj1oP2lbEtMy28vg15Gca3W8X6ZUxl9lgYqhWDWjIpDQ4bNqE4qr6DZqyXTFQO7zNYFPxakc/l2AfrIQP6SvewVHfPHRq13kuUk+qhDxH/Bflnofi8E1Rcgoatm7o6I0Q9GGwjFYZuzP49wdVCaxY8cl4ejrPFLrVHlCjEGnP2u7atej9UGP9ozHQkpv8q0nTxsxbxZB6eLIHd+9hKbVZfpilqE73t46SR6fGcCmYTuNauFmKkle0PEIwaiIRmYdnn+O7F23F3StVS8+0mNkYQT2u9ItKPTztrNN1muraCyP2Uq5FjS5sj4ypafuPbOBXOzGLbpjuQWvs3aJevZBCTWDB0ceLW22cJoJLYTebKDK9omO64aC3citHi4gLaTAT6CdX5nwvF2+ITav0LdQHnRuNsIbfE3Ke4jOe87591vaGCnHJQmKey0gO2r1acBVC8ML6dM6zkrSu1oUnRIJPEkvgWQyQFv+oCJNiQHdrUEo0PCgQB4gPuD/A/8EfAFOe+DWvoGwF0UPkTK1mYnc/0u0nr9+VG5bjbD2F/ZrsfHqsW0DRJw4lBl8x6Krxj4U5EKgXE1Axp9Zm4MY1keiFafgpaNBES5h4PpFV8fEhqJV5A8nHXNuThIQ0iFVBzCrFd+ocJDZh3VfKdQ5TmuHc3pB8N2TvTLAYPpC/IUIwYRrqVPPtRVSet2m8wI2L49UI0ziP/GLw4OsGHdQiZgLti38Hp18B1y0W6GxAt5ZGyBbiKUJgQzq2chyZ0VAAZhZErBocQ7RFB/KkRxyR+77pNlRbhODK5J1W4O/g5IoZXDPR1sGocTBwAWjd62QP+ChP4o7AtuMTXmTW6P4J0NjUIMHSMDYa8cxhHOx8c6yWotjjOQOzHIydqyxSw9BrkN/cpXbntpSUSYZ9fzCbKCHESpbq0VIPBSjVFpC6GCBiK28SFdANYoKJ+86UMWASffRVYT4HXkQ9mVkVv+TssHAB93H44hS3Co3bMf0qk3lRyhccpaFG/5fWUcL0jBehG4RgG51wknMFqfMRLjV2PKt98MUQgIWeQvkYNtv+F2QpCMLmD+FPpNt+rQh2koSEU05jE8BlFOGP8nTW9AQMbKXyzuYO5CQjBh0hOYcaLi/Vw4Ggpuka+rAsniVFhC59uAF96s6uAd4dYEvZKo9hS65PlYVsXP8CAB6+2hTnLAWEYwcRvPQA5HE8khXwWRq+uJx3MHNRLd9Y9pYea1PwNj44aDwpqyiG/eTSdHyLnT0Vr82/96FNZ7tpVuy8ulacBtefNCnZinNRYyJxnVpO/FXFhe+gmXswGjYHoWNofkLRcaPCYo+oZPmQy5hheR05+zViX55gUY8FUI6a8JoWtib+7u2+TroqN09bpH3WLzrxF+K1Nfs30crStxQjx1/ayQPwEm7vRFkUEjIiJRbr6EqQenjzR1VcG/3A8S/sygHq+W/jLhJA94TaS61Zz3ezSqer4zDtHyGTMDxpy0oa83ZIbno3e5R2Ioa6l7eJnGV669oBhon9OwizrWLMPopxGJKKuBisUp0ddet9hgCuwGa9nwOjaOPGhL+wabpx+Ll9QtzWmlFMm2utECkxzY3mFo3IvQwuD6ycVzNC96ulHe+irt7shk1P4FsB4V5NssO0jLb6vhggRAdvNTMTG1Za2STGzu91p1X/KrI3926g8Fi53Ab0oCBgVIk5dHol4WEJCUQk6RC+0CaHF0p0Wh0e9DR9//THjenf8hvTL65rUpoqcafywumiJUrwT9AQ2zY12FIgxthSmjQ8aBALOA+wPwaW9DEDWkBUZh22hk2Ud284k6mpVqQBx5ITStDa5SHyJ49FjJAyLNIAq7I/XN1Z7KTuFfww5N4ba01XIoCUalcj+ojFbPp+ICK8VkWA1UYMBbwFAgj5w75qUwaEekq5FytN9VOZxJHEmudyQtRuXVReB9c2ez/j3lIZzWsv9f0bOND7bR+gIXPK5bgD9nk4MTZ1oGpDWLQocT+6TqrSRp6jYaMZZM1+A1EuVQCc6ss5IzXPkm05g2HKdxaok2T79a9MvmlP9tFNGPR3XLtnRL0P4njxOlZh8M7YHCtv2YGSUBL2KWLAFVSxS4UPd80lW4N/z55yB2Gz1gG9GIRnnGp24ULzI0w7Holwq201N0c8mzFrAz1t1NyJqYZrj7VFGrh28PyAf6ichj3h6hW46x00Hy8dFOnu0pA0xt9EUVFfAA6ks860cIQdIxc4fWGnUtzEffuuguog009YbEe3WjWkkb1oCJxtZUVkEyXx4dsX8DxsoV962me6qpZiRDpmrIyj+zgHi9ftRp0y61lB3uUm0u0au9ZHxPSgy8JN9JKkvzu6sVql/LCD/C2/CiwyWzQxvRSE2J/ilax3GXw4ssbT7z6I3pluki1Ik82dbFWQZ35LtMPklAn0W1oqkB3pBmbPLupJCBWgJn7nhxFt0rc0Ka1U/THTGaw+5N4F9M1R+cxrjECUcvNoWpcebUAxQy4b5PrsFtgLc7PfNAdV+aBJ7DwBWvBxQRuyMHHwMpfHQbaosBwrJWSysQKb6nKsDgmIlod3BH4agF9TRbfFkLmykT0nrwMboU8BWAWGJFtF+WMq9X59cr4ZKz22oTelVR557k1ohutIKvN0WZ2BUk8FJC+OKpKIfybYf0jAYJghu5CSyEDXF87hk5Krbv2G8E+hSCQZkL7dEa9d9kG3QMe3tLjPqzFQQKRIlho77kSTvTatsyI3qiQ+hg3J12WcZGhafZI3p7OPhH5zGREZycFrZtuVzKKA8sGSI8jxIlfvzP8Eq9bX6ZWjaCDipWw7CAWCNK/8tKtTceErlK11QoHB8vzH32T4A79FF4i/isabCLjGCoGzlXRes0KmjYyUwry8k/z04ussDv/RC+LOrziwwot2AJvXXLfBG+9AByoTcs+uSyxFZaEHkMbeqGw2LsiVK72ziEx6SRDRlsPTJxIcFVlZsR2n5lwNyLRsMfeyPKg83MMiFZ0YI4aY1/9WYG33Q72cnza/HRZYwV/WOss4kajUtwqoZmBaWz3r5PbdguqIbFiI+dcmch2UeKFRejQ8aBAO+A+wPxf+Za8WZbfqTzEBlEj8iYRgp0/jVDJCdMxaa1yA8hmQcyknIQDV76pQ1Exyi+IzUFLU2AiCdrUS4dOSdcL4UxKfKGv9fm9acLltPW8nQ+yBtaWHxBsj1IaV0rKaIHtuP2K99+jBPvRx0XRcfMbRzg8G1JXPt2AogthGXAtZEX5TblCoPeo/yiyr79hZW0Dwmi9ncZG9GB18VZ8d7HW/6n3H9tjVnOMQpBAGfdvvqsLbZKOImtdrLX6YYtnfu9XBZvmDe1CDS/UJpnDUn/+waZAkZckTx9aZoHB0BsRUvfPmB63eZbEK38okg90dlr2JGm8EgnW//G4Ekm5TzRSF5aiTjdptgdCKk4ksUPjFKuqnPzM+q3epUMzGaPODxC9M0KSEb0n2LTOWLoQjp0GXUPLrG33hkfcbZWZc/K+/j1GvBQiNMB/HdkaUlqRtXDUnEQZrg8ueFNmEl0lO90jBNJejrh0J9gPnWiZah2NbLBwgdmoXdsOZAmMLXenO9msEnaGA+ZmTN9m+ZX8MR1PZFSB2P9bYkFmE0wLAF4tDzb/84Rod4QsV5XqIx5GzX5E/qoxQVWhqbI4UOwWmAj6Hyp+dYECMsbazCfwHzeon3YwD5ts3owJ/u7/Nr26WB+D7GH3RL37lMqkNZdexAJV+7JyZH0LySzjFBFadpMMm/zqTvujju0Q3z4Bp7HJtaiXA5UhrwG59ixoZ6mfyjeXuBLDhyLjHmXHN49K0j2gypsGBzD5o/eYRinD+hs3lhftTR/YWDYAuGz4add5rzNd2WaeiofxOn2Tf/gHynUi5G7P4H1cVSnb6KsDQB2Jd5aRniSn+aAP1FvmJZ6dk5H4YUu8FSw2pr6jCtWKFKJjy9SeuNBlvz3+pbYQFfKn931E+5rAKiWdWJCniV01T4vvNEcEh+APysk4jNJ9osfE1ozoAFNeB7mRx2biVb+CU418SeK5yGknm/UVK+upaFA1Xq3CYy527gyvhRn9AUIu/5+t1FLs1rL0GeHuorEY+1/io63T0qCBakngOgI8l3E8hP5R5R0ceIfxEOHY42gkOzS1W6nmQIF/hFBdKe0PWkI1FZBZtVNjXsMLvNatZLJa8FsXSPCWSG2wVe/MTHCxkfzqNIhdHYJTiS4IN3AbL+yF7b/ovC3ZgF9SZgtY0EEtoEAUPZh9G46ezYH9EmFKXC2Ag6QpMtdGIyVel9c3UFhcb6JVj/OYB1Ubsoso4qiAoUREe0p7vxwEYdzeLi6GETU3l34I5XV53+7lHajgCNNlTGjQ8aBASuA+wPwVQJCq6ppg6VBh4RwAmLEXXPJdxFhBNViYqTs7DbL19HONwYzDOmzqPbN7cjTxH+1mwjKbg0Dsy5Nv1hcoJBn4yd7/7OZbqCmATyvRKerP62En4quBlI0k0p9SWA9U1iUJG+S/DoJlNbGjjvG4XYNfaNgdCKAIuv4lj8yfAdQHxfzWGx63kITI+6SWz9SeGhhL2y5c5fq+uUvl2Zo+hebie/hOd3V8rc17zLL/2R4uO1tqhnUetJDXCyALhzdh6zLUwJ1MQH+RlzikTRj5ioiizcwJ3Oa+NN/x7tswPFw3aZGi9bkNQBPpAm3bsYBg30xjsD6D1u3OKj4qKCDODmgazI4nEKDzngerbzLY7h2olU4lATEqz8NkMovdbqgcG587C4loUuZ0QR24QN6/8LpgEh707Si/1JsXkpGmLklHvACv7i6g9RMdoiRDqdagsI3eZQMdZxQR7ZEHAR4BPO3JtHVj+sREChfLPStBpvsQtNOwEC3iNwEkCPv83zbDgcRE2Leez2Dp+w0Bo1lGCG78u6S0DfMmS24GCHPqQCLKAnjx1QQhksEPcVMocT4nHhNKeMQHyDN8eGoUAmBetl0RSZjtbSEpGzCQkOfjJ4ZfO+JGLjq4IKfLOHfQQSl2diIyxpy2QULwOrVRG9I2RILS6UjWWZfGFPfv+qb6AEHHZXhmP3q5PPs/NCwiN7UwHsxkDFU06ePq0azoxFz9n6OHO5QijpEgrUF6ptqQzyMmXQ5uKJ/qz4K6i31Lzn5j0xodG/wc2mWarTkmDOOuZ45GQMX/fhJa5dgBxod3CIjowVbaFRZ6WCiIDBk/SxjD1+MYANlbudft4QAO2VGSBUR8aOeiaEvM7XAKuCI/TE9cZ5/SElxDMj7Fp7VdziPxw8ASvNUGyjhvn/k02HQZ+E9tiKg2EbpmSWcMv7z1yj2HVC0UJRq3HPOv0hJv4fr1jsSiQpbSvpo9l71xTtoSjqTgdYrns8A66GZCoFQMxz66SfC6CSLnmwEIW9ou8CgRVOHSZ5lpfZjInZOOd6VBphSshkv08BJGjZQBrV4v/w0h+bRjZd3ENuUmeTSLL/oUB2sO71qRY9H/iCXgru9P1sihoI1ez2mFRW3C2FPVD8H5DcowxvZW9+Ky5cn0YPmzZlXJIPne/LFTs7DJibar3Nfe5UbjhutJNpD4QhiK6HFTt5CcFfTq/j/UjOs2GIOYTUh11ufeV+vgCTMduW8Jje1la3gIn8hDUzzTqjnEmfQDp1UtMOyEQFPd6EpMOok9RejQ8aBAWiA+wPwF8VRtZYFtD77orrJpFwo8mXXBAeZPkdQ2s9rlyENV49Xd+heXEyNlinB12DZ2ct3rxvRCWiO/Pke85Dm8Hb59OkzcLxovSLwMOPscS3z5AweU08xjgLn1h5E/G1QItvj96NZxL67odl617rqL2q2h8xrapsjTZOqYJ0Gd2KNJdh6nTkBZnK0Kdx+xDKjgXLNWRZ9tXZS11gAudhMx0Z9rL7pNr5hpglZq/1kfmn5HqPg/r3ZpueKy2W+xYEdxhooFfDBwPyWfLUUT6mf4nfQ+XWfmYuOzCe15vNrO2e94dR4PeD7MqKz9rcZxh0c0NTpKamqDFObIKctIsZQGSg50NVDfMoo0tXpzi+LQSUH+HpYfR1LkePb5Fvn7TO3h8XHzimVqV6ehjBjfxW1sA2ktQ4/jCZ4TsX0eSYxLfCFJ/BQTmVrBCPGnT3EeTSSQGz2ItAX/eCazgfH17IuQqBBX/lSXTe4kYpy9h7MCsHI2OIu0+Gl566mUdT0VGiJsTpBUlwOAmH81ItCw4+jd0amkBLbPN9y1BWvcr32r8UvgtBCwUqn+9jSXKwxr6Krr0Jv0XVE8BI82p7D2MMGKn8c4AhVNHiBPV+ZH1s7aqPYrdX6seNsHQ3+je9pijymkchkED7H+Tre5gw0hb5IgXqtOy8FkQZbo9i2N5IEsdClVuPJTfb9N6xEmw8y0BwmlShXsuePNvYAyymPiCJlXTpF8FbEMJkEDbethMxq9VacUYXo7qCTb5hZOXJkd9/mLQW/gy97pesDAlUJIZwj0YeaKDN2/oe7rVCCFKaJ311hU0tLhf8rrizW+FzntVVCCufP3QIATdc/1LE6FSxmSRUZ8XSivOhNAtTwZYkEtZZiXY2HEc6/rb8XR1HZO+7VX3BtQeq5VvB5dXeLAPmS7uHQzH9xXN3MIRVCwd+qNEYhoVlyOGCFhG9b3bXSSJAtVqvBq8VUgLl2FCsVJu9mbyC04xpmt+pdhe8DIt4MGNIreU4lWmSNbKZoW/H7f1x619+JP7oJxm2RN+vuS64OcvhKQ2wV46PfbWqevJze2yEcr1hXXM665LWlW1EuyYJUN8bgqbSPMvBa7VXdFlQ4H3YgX2SuBAY17EASJXopjDD/+YRBntiGCgiJ6V76xIuQi7WuENKYGZtHdDCDn1kx3qudT6/MBT62cEXeX32mHonHF6P4a0fuK6THk8mg68J//Utm0E3yE6h+97M6vtTt9fPASCoUhhovuCo9Y7OTeRt6X7cFf/v2sE84hbHmT78B5x6jQ8aBAaOA+wPwVDC6DBFIMxdYj3dNa5WPZ3itu3emLutH0eZ0fQ9tHPaLdnHvUX+1x8w08du3y+0/MJkc3eis6zUUbc2YL+SOJBLhD398GJkBG5sMkTf/x/z7WuHCZIZ+f5tiutkvYfdNqoo9mUqAbY/S3bYXt1qCXNCmWwHraGVu0cbt8P31dl/7HuwIgOYBWC/iTD4P4SNwC3zIWFgGr77CK4KJXqkgxklJX7NXu6QKTahwb6CRE8kcwNApnEgauhJQR8bAdSyVRKWcmP1tc/bNdUi3spTLV3H0xdr1ikc6C26CWwOO9y+GOi99VqqNzGeCaa7QBbwuPFOuF1g31maB+Lnyn01NjeAzZJ8t9lW0Q+u3LVRfl5Nz0oECCs29MaVotg+9sdv//ljep/w71vaNY0KyQlRqX63IlJoAfqhxvsUOceIHLfGA/pvC09sz5/l3JSRQgzAeOOirZvVs6CXDhIhWh9vWKR3XzDRoi8F260LR0wYNsBc9aoNUDlxUYfspBrEnUV5HpNL3bZzfFMO1pR2ygn7THK4RDhxiPYhJ4hyeQUPvxr3iI4cGXO1y+d7AFKTZIh22IwevJ8WbGfbtrVktMFE1pQfmUK+eZnlKrVoIwU1WHTE1qIoBus8dOLCa3q+TooLu8nPkuPRFpyWnmJMLbxH91TneIt0VcvgGsA1BYc6WCHntN4X3Uuq8Q+1p8MmtenvGFr9A5pvnGy6QhswOwu+GgPr5+ra1ggrHbJEH32GRrSVotP2WDggBoVGiQVontYlwyikQh0XNVG95NBXj8Y0XBuDSFw/NJJeSXFGdIHI0xmnQKZUSbit8w0BCbs/gk6/+P9+jA+eh04t/TsKlZHcm8FJ521Bi9dYdh/3lgnlOhKQ2Tqd2JUvOCkLLrtzgD52TnOTziIAnpn5a4Mx+GRAFvPWokox7p67NMIuEysPrcnHeWSCou3WX/Ivi3xV2EwTGr5fLJMOb1XJook+CKOoUv7ON0BolmyUbAh68P5UBA5NQV1LEQpS0HxVeH47XCATWi8TQePt5pn2XqH8OUmmuDMN55HnBEtnAncZJywQkTnYkQgWH8mtDL0GbOe/HvDFtSVmjqTvbW5T0VmyyyaXEesPyMuzIFfvBLqllLtDFJ6cxyNHP4GX2JpxLGeM5phGJjw2X01wtlZ1/oZ23MllKuohYudz8Do0qV085wtn52SmKAmZ02548l0L87QekdYfFGGqZSMm+bEdO3EyOTGjP4pOVzEskEr9nIsLZj6BwSVAS34ro4GyoYpT4MghilTSjQ8aBAeCA+wPwVqhdpbNOnh5Y1gi1e5wPCl659U8Q8yKrMl1TLCiX0yGVPPAmhZ78QS9wmmXM4iv965Gm77DDeO9myoyHNUWL9mErn3AB7ee5JU5YUiv9UwpiPn9Crva0VYM8m4WFHpBmxZwrzSUDhA8LNl7CqX3CncLxQWhzIGkGYi9c2NS+dv0wxMz5L9WuHxRxsPmxTtmWjJYYenayO3Ab8QZKzNgH1DvJECpw9CZkMMC1vXVOkeSbxaXezwvyD4QgFIJ1wvCi+wEaRVk/xEcAhOf6za4AWIPi0E2An7MOZOOeaWvNT4efRGHu1qkpjgv62oWY/fciWFwZPUxH+txcrqaXGHCDrBJ2shKAmlQXkXHVJfbhZPSRP8QwyL7tXS4WsmU8squ2gmtVqechORIVDUKvDqPn7J7IQ0Rg4i9Qtf+aEPE1J/F4iXrgDD+28U3hvEM5Knt+7Ckfdf52IUHhhwgrG4EEo8Lk1bGtP+Ny84ydTOopFa1PPs/XClHdLIjTYAt/6v2VVtNEbVobHl/1SAbR88ZI6sAmV5Hjz9BdT2KnuE4qq1QE7ey1hHRFzP47DlKZplgdYbjkCD/Iqdh4K8t1QBqGeF8KfS84HiwZkCJ/cao3jDQDqT/oYV5ah+b+OucB/4kQVUJuvtmTwsLTjqwGUm3DJpxCMxbGkYVbNiIRSYsKN5iwqp+HgXQOUbeBDb4JKKA6PTILRZqxXFIvnQIvXFG0YV+ZnEW6d/PVqU67etNwrZHU1/5QCvQYq5xbqMIPWtSZYO6HaxRQDSF3DuDtUNpIgADVuVY8ROlz+JDR5NOhfxYzDZgdIKKqBDbPIuaSHySBDvZq0ohu5zGW0xOb4/cw8FGWE3SnCseZlwIvwnvRafLap3H9Kogtf2KFNUc0ytLemTHIx0CV5TMQQDnPpNEaEdetjIjvYVI9E9w7Efwdpb5CVFVfSJunDqNgxvsuckDtc5MrsqUt1PTcXnSwvgXigZ/dpwF50kzhLZ5mSIrYv5SiqexGOUV1/WLoalvYRYCnaPBkmb3/mH8DS6VsiFJ6LuPVb4IyY4Bf6J8qjxYgvI1AU02HpkeZCLq5G0CEa7BWdbLWs2wMLZX4yUmzB4iTjXgd3bUQtUehCy5e15RILc+75JoNUBwDOQ1PB71hEFenb5VHPJh4e4USOT1SmCWmBBHt+ocg+vUrOtlZhemiqdtvsdMSjW35GYIdo4MYbXjVEoqIhGHpZM8tuEYxJsvNtGwB0oHJPskYAqH9LeewfPglxjdEOIDbk/t8SmtnByujQ8aBAhyA+wPxpeUap+EmTgVDxKY8wGlVvG48qsMfAM33HDV4xeog8FakjiCYLtal3OjPL0ZsNXA2RGmYv/2fCzw87vdgNxGyuxzFNv6a3KLuIYV4xiL7DfsCz964HzuQ7WlDHC7idVUGnnqOgXPOTr6cAKmPc5mvDjpyZdqJDKUfFUWbe87ZOp6Lqw4tsSmnggRQGdqApYCF9KYSubYIcQ8oOSEdYscoiJiP0YyL+OlxkGsmIT7wyIHJjAgNrvFNJbwqJNZDoUuCU3g4t4y+QqrgkWusj256AXZzN1iyQKz5OJknSbjars9wtt3/hwRli5NXS2ECo2Kv1FM8koXJxm5jc6qQ8zmn0xHTx2FQB0UDX1x/EbYcySrAWXP6UUydZikiZzU0m1eyhPhYrTjnwFcaodBfY/FdCrUYgTkBW4UL9ZR0Bh73F/F4Z8jUA+zTr7qG3hh0sKfeStIrdMVq2ekRvprWD1Va2nd9vNFDIiayPlVpXqeG1fWIVTOEIGLSWuxoZ97lnhceTkdrm0DgGemCu6IaFoVRWlnT04XSwrcpQfYQ37VOjQ6mhGhbsaNX7L2Eq1IhIFY5TtarMFf2FEwW2jLUI/ocnjbKy5M4e0sfxj/66mCeSfuDkkGDT4oytUkTUGjLOYxDOqSdGXA4SPj13Ze0b1SxEKUeEBL1FNAcQJ8coChSdnTVEQ/NusnYThk/pd9vQMq+ypGH0nV5V/VKF5L2JGL0ZHJ7yWocLyUQgBlJmi931j70sxex0tSv3kF7yHxJ0GnhoJ1w+tCmAJ4ISfYjq0I9E3NKyYNrXuKilMF2wVnhdC678qyPpmnN4sbCULCXjkQHTM6BezdhpMg3N2rDgvcl8FSH5TnYrZez1ew8wxB+Jd/ZrZ7DnJqmn8R4lztNNgIkK3AJSN13uaSBj6Jx4Uq/sIkDCV8vgnu4JJ1gyV5I5rbu2QgjAQQrO26VdlJ1nPF/Nyf71jFIgWqq+nbOfZdsTlUBAOAKggz/XB3bDD7iTxw/aOzR6JS0z3GU9AJbnoF8g9hDS/mI01DeRySdE5I01wzbwJqIygMJpv51NnCnVFEo6O1afkjJILt9p2FdWdHDV67XNdBPa6sVpKq18jVZYEvyLcc0slK7+wC9bKxC70zbbEN0M2+BIDdJRutkePVhdJcExnRF53ZCSS+vmV4CjagRbBDvYk/L/vIPb8U4M+dO8yn0yqwBHGdnaQvoYx0CZHU4/2q6zS5uMXN+Vv19eg5k/SBDFtmWh8Kx/GoNgIZSp3umsU6Yz4EKBdOMBxWjQ8aBAliA+wPxffyA1qp54wAuMyLmq8vv/ga+pccymICMoeiSiNgss3sc4x8/26IBDoiknCWANMkAFflWPtcbd8kicYm0Q8h2tW5jhOCQSK52k9irwBIxp4L3oO0Nvo1WUgQKYC7it+K7m/rrZpdsLoARvq1XNqq5uw+ByiOOwZB71s93UzlOHRqAYMXQoqLZqNzfClHEqpG6K3NXHsGY6B6lzpDGzBMxbQaTm3RLo5Npze08W8IJfpJ7aChg50OmgyG+uf74RoJEPTQxNWGSNWI5a1zm5HWxsaQIufrJr5m3yKsAvvgXONOdrgVaJ8nnegm7Jz0z+eni1XcPwDX7iR2877VocHezWOp8uqUW3nYWRsSvU2Dwr3G3aoh2p/6usXPaqYHtsXM9yZeayMegbtOCayC94ghfkqdlB8U4sNxXfmFicP53HPBPAPJipfWDmqc/xcN2M0DllcGoIM+CcYWGkIet44hTmZTl13pLC6a5Kjct1KmJIL/uI+DtjQWzNQzC2pRBB9eiC6HrwApcFr0aCMRzWeJVogYPFH35Fy6rt/VQhVqOP2tHNP9HfeYhk1MJv2PHSnucavy/+LfalYcUZI/e+xr+vR5sJvueKAKaTpCvHNc/v9i2sw8pJov5NWMvQH7qua7zl2jDSVltx1YM8XN4u41CnRhkQUwSCmwaaXtijNrtYqNwtoZ5G2FJuLmCE8RF6bfCBlpOjyS/PCmQCBzDc1OaJljl8tW7dI5GgYTyQT34HKi1maSIGOAmJalnq4xZvgCMxiqi4KYBh9RqRAVZ7bYafiNZn9ezGWdIgtS+tuXGI4U57oAsnaIkauQqPg9zBt1vcbiEdHlshl21K+AhMxcV8X5ZQcniWgdxT3NCvzRMjDEhFESfuWnvevrEBsZyPKhxUSzz6LLhnxt+Nx/b8guGQ0z4knc1MZHRa3ISDKtkUsvLSYoEkEEe4ciQnyT+633lL5VX5XlxY3cxxFiyXtrL00ymL+g8eVNMszUwgD8jse5FNpJ3eCzFT2mi1KIHjleBPgwYmI5cc+vgr6ApNx3uGPtPOKlswG+0p7bN9nqlOFjB2B5vxZUVauQVMvMCqFxpJbfSUrfF+EZNpcBNb/jMtHwHWqlhnEWsNGyKzicfIljwHSbnNbl/anbIVfDNpnnWasfpgL3yeymJfmVgTm7fE8IDOaduMbtxUdJ/VSHHI341udTVcgf6kdnHjtEvUETxLje1tXKs2Z0pS6MgIjDF3mOoUGN/Yn7CV8Q0elzWPwqIbJITx12UQhaq9DPIZx2jQ8aBApSA+wPwVviGc8k1vzfS94FZQ4Zh8OSq4RFlPv+Kkj4axxBV4KKTpLMCJMp2eEIpp15z+hs4aLsz5GIDrvglvraB+nujRqfk2+wRBoV4Bw3ty+H2xHIDc7AeCpVYvMi61+wIF0Cc1HVXit0pg7vm3/ojUY/EWksX01guXy5OTc18C28rD2GxXey9RcvkU06xjcS8JSnp8pFdVo5sCovSk5l3bhcdRCzx9W014UlaaVuo8p0H8ZEqTBwEk6kv6ACaAP8c/yCgybSktxSZvfEHRZVoFKIEM2E3TAGcYIOdYGVbODaS0d88ogGTFMae7CZ63/eHRagH3kspI6k+gg9vYvBvlmF6qGoTIR1cPAhqUh6H1+05TxPEoRxdz7OhscAjvsCEJJ8yCZkM9Cd+IsOA2yJw7g0wtcn2gX73XLVQr5L3jxgHGfF0keBq1w33odmRdkHH8ehHDZc07cx6mKaxgbcMjaKfCJSIwmASoUUOQEUNb8dqvs+BRLcwmZGvbPMnCHsRcD4aSHBGds5x7gTNEKBTr6GwXS21lZjceKw0IF17xvTgCnUH6jOc1mUm0JLNj3U5BcBj1EjQsgb5Xj18pWNdXyWhx3wYED3NQxDqcu55boR1ZJegVyIbTH9U8wx4S8VMOgEzI9AhoWO7UcPYlZTRoIaR2hYdOt7A9hB1karxnwoRFw9BRJYTrjDh5DgTcPEJcWh4sbyBVuOg0eL79FsGEd52d1h9JKdJMWNuKMxhlSAUGiM15V6iXg860D0biEH2d+uaC+m6UEONLzFdCs7LDOiNnQ+NSsMO2Ebo0Xm50xKIdi8WYJ5EbpWi+B7ExU3rqgi/50NxnkBQpZZymZ72LXcY8FTr6pT7DILCPWhpL6692zXW78cK+9qcZPsSN0hMntdCC/K8zsWixUtop2rUTkq8DbYy/hPd9z4Pxdzi5IXkfvybgL2tZZ9KK8N3fapoGEdO+sLDNbTvGV4lrp1an26kJYyCyumgLMtHRRGejzKYKPhhzzrj7462Xbt6xDvB7OtfKlAPW4GOTLJrjOVUX98ExsPybt8gEUbvQVUoUuR0du+7iUWOXft6IL4Yo4QoExvxpCAjr63rYd68lqbcFXiPNWYNiY5sKIbrdOF4ocPiL4oaJf1c4yNtvwNQ3kUuxyjJdB4LSScvA6VHyc1vwGc7NRDNK2jzeMTg7bZHiQW2f0Jvj7BfXnYcmx2/5pg0A8td3W2NCyxt2cAiMwLlw+yYV0CO6qpOmDgu5TM6yRgLCP8nXmkeuI6phB5tEw6dhyGjQ8aBAtCA+wPwUXpmq6mYEBn+ozXbTdvpmTjbGu1pHy3W6wYreYJtuqygyD+gCZSFtGfqIzx8Z6H2RMFZUZCpJJklBZtRc4aUJ9vU9h7wAbjg3UUwBIf+p6A7f/otayNl7AtHqWJzLW74sYpGsHBoEF7Zdg4hlKtBK18SIpXDgMzKATyTOgHeHn0NkgfZLk2SwIAyzUHAUQsXSkCybLTna8+OYQPtp+RPAeqdOU4yFwFcTSmgDdS6f8IweKDxWIlFiXGdsXeXxefZUop2X69zxHnNuzhGJN4+FWfxInkyYSp7t6iZj/hKqR9uBJrrTsdqJf3LXU56jj3wTYZNuIi5JfsgD74lhxGmG+RJZSmCSl9EwQ/+heX1la+DNQPa48gI9O8oRpIYEmBfEmgZ6M+IuGe3GzDBvR7Zi3nh3bZBkOhh4G0oNAKHGvBW7oLigdJ1a81td7zJL8tZOKgV6Op8Rz6Cibd00LBSY6M28OAOpEpY+YVruC3MFAALfDyEn0OklCOXehTgGMM79f4rlUH2PHbFkw1kPrp8XwpKRYI/sedOf7+tTpMiR1YwmFuPZ+BWmLKV24u+OoQrhr9YMNCkQMe/DN4QnWwuGTy0SjgISVZF6DkDsfZ/0yubRHratAXgfXRsWY/XuccCvvjqjrYoRxiH6gEWygJxeeNPKrRkkdU67zJzhZiZ++otQ8YLJtrhgvn6NqL8AkoZkbq1ACw7ys9yt4sSbh0GE71VrSzdSsE3I9EFehEDN4sVB9w+tApHm3ik4nbpcR3+OI0+/VMz1IBu6vtlu98La5ylfXouIEN54sf3Jt2Zq1H5CAjpY1b1T21s3vvnlnAiaaX8bEBqpjouoReNYIU68FZl+fLk/BxO6tsxogBU/mDpGG0s0IFWnF/Zu0aR444CityQXsBuOGBVan/b7HbqZ2t1ivKcj0LZ39UW0LuhVndYreq5/v2qERu7PXvF0Dw55hscURSlD1/5P7t3ihJKffCZbS4HgzYJCRXLTrfFaV5DQHG380PQX6LiYUyaFzC6/qbBgc3lPVmBS5yIa1iYL5slJaNBYTAtpH1LMozLAXvV6ZDgudhhNE/9st4+8e1nONe96XlG7pYnSnQhTqMpGt59pTRcpN010kwR1qHMNmfcrdb3wf6hy7cps2tHmQMEDqO6TuvZT86BodOPZXm7lb5FqblT7Q0vLsUScuS585xtZbvDxKmsQonC/ZRASriJYmlkl+PWtjUKLn9fcfKwPB/d6vL+jkc8diwMe+mHgdKTMC+bX2OD1g1KHBrehSejQ8aBAwyA+wPwVY/QJ4jTobt7c74tkMhAWryymLWLz3PMM27uzkf9EH2+i3CWuGrIqS/z9fCzEDmYU1EyjdMngIF8x+pZv49Z5btwkAm8rZ+j0Fcegx9UNBUI3/P+WgxvLQZzpR0hJtDv1kXOTXZe33EBMaDpHyvb+jd1Xg/QxC/pxNMG2DvzxikqQqPTCmw0YwOd7xKBY4yxUPuGdK7cws20wgN2iwsA1YGpNQwza8C4hlnQsl8kyb97X1MYEyng5Fs948eFnTgANuhIaRycVeKGkLkDkQb+/2/HBvyOrj/G63JfjJn/Tgp2BTI0N7ysG+F/fmw+vrYuTMxJALjHOimBMCNqEdrFTh+Y8ytqoydRcwXnHFfziyR7u7MDVHnZ+8UKh+muwQjpNPpQVHfwWcrXEiqIBYNlA3ZSAE3ofmaKpYkNONkVHPBPRLO+5UlUTcnK3qOJJz3Z7XnHf4iIr9zARLJULOzknVhl9urol2/TRinTtJTlKZax+KN4YRZ49IoaqwWwh1BFzneT2cxfDtLNVy+8i2g1R0hMKnjHK1UF+EvXa/GdzyKxEUg1dxTp6lTXaCM8FSDnywAGg3NKfb80NmB1KF8biFdBz0zAFVTs8LHkBh7/cN+LBu4jwKDU3fjUcRjhASZZMuPUSWekRcKtLe37TiQRXz+JX0crjGGC7Lt12rVLCQCq4d6yGPUAyr4LTzfE+t9o09dhG8O+cnXi06ZvP0KX9Q76kIw7b/eXYDz5B8goJB/04Hzgca6ViueiKWyu/UQP1/47FmJIp5jsaLm9bMUZiAPPqjiDswntGMCBJMR8hCmVoKfrBBoltFssUB+Me4TbI2dgrzh++b60orfBCoUp8BlT7b6+yIVRxppNVf+MXRpPMI+zYaJLuVSv8Q84rRpd/6sz0qZzkD7gJ54YNu18Yy2QS41+dvEIVwTJvIvD/RcUUgON6ljLiEobzw3QPxBA16nAWSb8pMXajPb+hPU/X8khqx+Mtkp8+i4MAOPSghjEIV8vVD09/4Hmd6tn1kI57qOvMYZR+9pQgh6V8Rx8Hm/11gmbOo7LyldqWqM68xwf6hiAQB9G1HfemmbaGO52daekHgjWF07UaH0TR4ZTono/tnPkV2TDGzbNDdEZu7uF6cgVxNFTdcpNI17BrkUncZJJ6yfmTP3DCCgyaULerTof//LA2L18leHetZ4wFLQ1oLDOwxQ//rPgiXRH85kI6+M/01vWyDXz3qhTbclhMNZuESd1fX7krdmaJVdouiHE64/LoU7Kg6te9ndVByujQ8aBA0iA+wPxptbjgFr19FLLPaKD2lul8m8gky6VppHb05x/rFTR4Oh96+OORiKy/oFzG9zzIbJbQHfL0rWYAt/U+ZVg8xddsqWaSRiyVGnP4ZZOWkU9aXJ+rNFegP4meu8u0P5u3itZfG5pwK1ANrp4NowSlpuVk5mZpKsKTPJhJY9BfGvzuv0U1YtXiPWEOKsI3DqnXK+6KtzfGRNsypU5FDLj98w6gZLZsd2hTPWBMVu1c1wdNtVIAtIV53KdgT+xDiNi15UmvOd0ViCxTqxYdieTfH4kMoAW+nYrh2d5W57itNmgiaKQ8p3k02Igwf99p+Fp2CTXJeUr5j3em5Ep8auidkQaGy9D9CqEiEpa4dAiMtMtE1p4CV3917xKY2anymxXAVgmoM0tioQfBbT5Va/TnRHDN97jzAyoT1iS7kWtiuLnHvBRnz/i53PPG21EncSdb7g+FZEolPipkazJh0TA+7dHnQtoQegeayGICOQLXiuplx0R9nJOEJ72jYxTtDwRy0W7+VvtbbjHHYx3BaDMkRu2IZ3gKjZrspTT6ApcXU+XLBWfecORrZ6l7J41J93wptrPXTaEssWWkIuJ4DozB/fHIin5CBhfgf0QZFluVxJDy4RRWdLPG5tZ2M2dL6osCgXxmXRvcQphDy6h/04SQEQWxgwTdbRq9Ptv9q9Qd2tEl9+E1iGonmrXfhLMaGgJWGOQy79RoqPTwZmBgm+2ryLrj2PGcqZfhj81CfBo/AxBjnG//iEZWfb6BLY5Cj3NUbxMxuwR1JCU9rxqxjmXphOADbiTF8pCXN0tq93A/CcrWdqCgaeRHuD9UznFEX8iRXEHc8adpFZttTTZ3QI8g6Mm8aP9Ql3+1DrUhYFXjFtG2+jv3aQkBGrVu4l+HAM5CHpHrE4KyNqrSLtX5F7RHGwpgyVJzgRz4F/4Hl2T/0CGLyi1G71Drf5FyL2gTZw+4GyTLuOjUVWsns4o0UZ9BJwzPTx0ZVOmBF04qOF/ZbMEbfn6N68po8ueQiH7MeZkX02yJQ+o7Xw9jJhi7q+bWlU+RHw/6OT0p73+Q+YivKPUK81m3066udCsB3QNeYorhqnnDpGMo5gk+llju4fwuduOF/sH5BGPz1qSBq8IGXYx1pDLDUQCSS3cqm8IcuMERgT6V0sHufFhSb+rfj0zshziIMS7ghvX1a9EQkld6uLofnfd5Ui113HKOoNn0tGzqX2hf/C24Zk50ZVLVQivxIK9uDPAY3RKOuF/8CPZ1f0NfuoV51TU0JCmeBLrFuxr5ymjQ8aBA4SA+wPwVnZLZwcJD1ufhS7I7XNBEDvBNvKBZvg7ai1CPbyQol/ZrBLyHwlQEmx37Lf8Zelvna2iQ0nf8Z2V+YdzMmm0/NAulhhvgqti+UGQEzLXsUJr1+5qZ6H/Ve5YF/h5+/SLXuYWKUJhwZfHJa3Qvf3Y7Ts9U6cxZW0dYx72RZ0mVo3/CXfkVVHC3tC74O/zhkmakzfVhs9pLPC2DGVEr3qMYtnyMISNHiIKru7UUudXW4ev/rclh4lvP0tlllbBJT2eYsWHVpozJzwy2DVxVZfie8yjk236ytik9wrPZzC6zkW0453W+CXHMyUDTQzR6gWv9xaH9ltBYmj+8qwJFZLCUxdUxfkT7F9k1vjpUWeNndIHdyhPk+GtrkM9/7wy/JZ6SQrWiQjInZVkvYiJJNJsYmteaveYXpPf8sZszfsHIfBU/UXW53yIoUH883AzlnAAlz0z37pXzpqJ0yZ76QK6PFNI1n48jtVNTuOR7QmSJfUzaDpOojijFlKMdZcA4jT9ZXTmgbe9Z866Gg6Fi/LjYagutZqD5MsbFbW6BeyJ3uyXqXgbuIxUOhffqvuBqHGuM9+HZeNAsSa06/9N9fJhYTTXpGJGx3wMdOq926jlNtAD53TQ9wklOgEkVJWZ4NI56v15Zgv9CPcFYfwoMQS7yqL/299sigt16euqoTtWoBWj5rPh6gRdAdXV6lmP2Ua+NN+5FGRTBRiuKKYBEJZaP9zO/9xy8ZMP1T+ncoXZFoza1rSjVkY+oELgOv0x1aCYcTncgCKYSa738XSy8vMB8655btaaeAd0Mt3SI30N7EGYEFZTa0yfY44QiyVpENdDu65eQxB/mZofR7rf4Icd8YByrDQVeJFzYL1WR1eTZpYY9I/h7+OZs7ibddC+E8apR2EP3wRospY6+28GqMuQAOpvGY5bUVy9SIslYqxnG/dgpqHA4pSIpPc3LQmiFufkSSCi9028spmv+YrWEcoQek8Q+be0KRQXX4WxeJB1PA78eVaa1Q5MwV2gvboRKPhO3KB+IMgstBO8K9aXyLL/BsQjYgVTjwWtyumTguiTHlOLmDDBVnMPEPc7BGkzdWu0sojZT76HG7U5f7LLxMXPP4vrjftHgi065Dmaki5GUQtuDgM1/kmWX3Ky0i2Riya5DYh4DjKkGv7/0dth5DcPTR7gRXF7Ba5wEK2xOIRz2mcIxsuqSE/O/qCDGgxXwQ4h2/KAuYU8uQUwrVgG70RsyzwrPrAA8IjmXcYxUfHT6COVy+1sUILrwdU15XQw9yGjQ8aBA8CA+wPxdvrMc07soMpCtbDGOHPghjZ6J68BgBex271norCXfpngvB2kFrk9GN+E9sNEB6wExJZIG4T/WYz/+XaPRgM5VFLzpmP3np7VT74Z2REhjf6aDvg4XlGiLSRJ1Z5h8BQL7hvFHjLLxjn3Wj8quKM+XtWfXQRrE6OP+loy0Oksorl65M2xw8sRGzsIsb1z5z2TgPg8/Js1yrtynDC2bnQTFXEcPe/4lZKFth/PIViGETZBra2/4arJP/Xu9aGjdspFXSgXAeh1EMlN6hdL3gf33yLYEm+181pOI7i6Df85fjYTUV+SFMepW8kle/sKfT4mxaOtYQCNiiSzxK3iKihI+7YJfBS11/Bb4A0B3Lqs8tBBZboAN87BAC9t8rqu/Qwa2PBdhC6SP9gejTzPPBwMFNExesLIXaUfqCE05fL3K/Bp+kosaZnG4se/MTlvMWY/Lumj5i221v9rlqJGFVc/Hid0FOZhwafbrfocjaVNn3F2fMsa9Tpe3kiz+IpCPgnycgFVcww01KNiQ5SuZp1Cz+KVl2R+u5LQtKZ0rBONym0Ye70b7o75Bv7Nca23PSnp8Yy1VokfBgStY6j7doJRQ/Ozv3lC5/FsexXzzFJeEOtCiW6uWtewc8kVYZ9/kdOnztFbmRpkKNrj+ADeHCDu3VXmCrTIWB8lXedJswb4DH2jqkVonhqRIZxCecnRAws0rd8Q2qltyExkKbVT60gpriRkm3Yoomc/GEg7tNARiNan2h5f5px+cZPGIc3N8LSX3A0ehJMgnrq5gXIuR9/PDr7Qqu9p5tLcSZRS5es3yuL8VN8nn8GT8SlYtDcLSXaTC1xu0miRp7OqSgedJ4cv8FJibBF8YPsEXJvj+JfuNQkeAis0tLgyHihq6/+8Ts5oCRxk68s2mi0fRNLzHaDCYNo/sf8/VUuhMCFgSKopI6CHp8KrLS1kfni5u8DA8TL7+GVaphSrE4iJkw+A7xBn54U3zuznK1n4i/MPHF96Y3RZr41rfXsoOHWLqYrBzLF/6cIZYU0US3aeVk2zjdE9lDB9rdX97PvNBxyZdHj6ze3fcrzgp/tFLIWLGynz7Jzb6iAjfHVIQ9Klt2zL//h2h9CWM2XsS3LHBXhDpj4xdRMu41uk9eoqgDwdPpRcTLCyceNqIsIYw4+Abj5MgdG1yp2/GLa9aMZUdMhUPnTT+v1TJoFqyMoVxkhf941F87GDsMI6gJZEgbIZcmx02pWM2xENEvKJOz5g4Fc7iiWkmKzVYshCeKHJqN1ljCizByCjQ8aBA/yA+wPwAk49U12qzlif1AKHO/T2yS2hWcihO/99wCnCuoHOHGR2WGqkjR/yoNGc7XZGMhsQH7bBuPMNuJ7+jNsB+bVzvmuTzwYR9231+5fB963B9V5MfNgZ4XL25J9KBvAVV5P0NxL1FePBAnylIpIZX99nxwOj9ltU7vQ8yHzdox1fUt35aBD4J+xeUCYgA1a+hPSLybkaf0IqtGVY/+kGLyMpHTGOJ2YHjmoc3MECJwP1dwNjj/g9TO/PYXAS8as7KtaMb3baPAOaR3BmbT0yAagDkEv5CswMqI7+8d3r+nQyhKAQovmsNPM+fULmUk8og/GIonQilnJSV2Q6xzHXBOpGaomtLdvsJhtTcxPWfGoQu9fipvumFOOaVYPhiLiRJCBi7B5cDlSHkm7pg2aSLoiO/yBMYeVAT2Rhb6sRd2iHRfBXCX0QSCa27gwuhk9ukprZh4gOgg1wy4jjXMo7IWxYFJBxiPeXYCcxdO8I7cSPpQa5C60e+LLnmlO/x0VXwyHZUOHORIv6sAjJ+FYHPrGoTNnhs6Pqvpdwf7Q5kntkjuyjMjArwEst30kjv7R4FbA4oTGHt16y50pBrvFiKt+o7QqbrkQfMC3TXPAzxh5D3BQWEEeMd+NLMpP0BFHT6gwk9jJgU/Ua0PAJsfjJNFA6DWH1fU8N/AiF1hgHg/LLSz2x7ZweYCzpE4kjvXl81s4CoyNZ4biox2gIfa8sQ7QqE/KZboSIPsOv0THSA39Xm2QLAmkfgLZKRKqIN5p5rGv0ZZZzYMrqDUEMsoamG4Mp0t9frh++V4Rixq87yPW5TC2IagSLJ9hclaeXDSnWCLf0RgV5EtBdx0u/6CrGXIc58aLG4idmQhSE520QbpLSu1I2wcAP7PG+dUZgU23fw7zr4uh34t6A94e59sY8+XR/SBAjtPbnPjQxGw7/XnbxMAA0Az2CH3pC758akZt52AT1wCAw6X3e+ny2HWcLCnScB2GeTIDdfcqUMyhyzpJxi3RzUxvEAGhHcXH3E8Q6DjKwEIYU+m15hnnuSA6anRJDt5TL2EBBOKr/C3YJSzXAQuQ3x7+C58vZ4TZvCAfAFD0L8+76/zUFUFmPbprwcnqOapDXy4W7A6V/SrsfiQSvBzNSZp/WoFHtDyahzpIZGDfbH2egM+zgs5oxTNbIVWcbopYOvjWY/YFbtRZYAFRkUt+7WeNaG7hLWdW6EscfUezDS+CEisY9A2PzpAiu4HT3uxgLc3Vf3fXfDy5uKZp2VicaaDDa33CmYfCcebmW5xKjQ8aBBDeA+wPxgM8Dq9VGbLDWb/udypavA4a6FRSj9yOdE09L6utC+eht2yKF3hnbStYsY/yxYk6s57jkareSV8fE2kfjtflGINw4Vx/9EWGs39TaOQr7jx5CgeR6qcGBd0iv+hkH7sLjf7vdZxAk1XO3ATiZ5eVZqt2lWjmeNCw6nOoPIaLVQs/dhmasNz1bmwA0j6KG9dogFBXKLhztbq0E6glC+BY905+t4p4RiR6N872i518jVdEGzrN0G73Vj1nvh6VfGekaA7VmgGCQGPXYFxuSGB++gy9mqJVjG0QJqo32KPiioZD63rXl+3P83sReGjt3VobseqovsW46sMUzI2+q1evwn3e5I5BIs2BWcWx/8+c51uDTk6qdiXPNRosYBu87iif7qkkEvUfVGeV3JiT/16OPz1sy2aQYe+zB+tFTXjr3MPBUu5CYkCS50Thb7XAsPwqr8yqLcWD9/6cAro1NXRtvcesGbkCIgX3HvVDDF8CEu+5Z0/ObTrSLv9zMHs4MIzH1/RybDC9809yzpZXLAjyK6WN0o6LUpEtVyFUUqmP/SfVP9c2Ert2W6qMFrDdElZORTWTREcpyq4PkXiIx0D2BvllYp9YJVmgBcw4Jbut24QAHSS2FMHFq0EuUMji+ANbscJJ/DZQ5c48Rqr33d979rm93tdgwnL+toVQGjlr/5boCgSFVQoi5SfYE9Z1ZF3mzQ3q6/66mr/dOGZsd91w3gC0UFIllvbpapy5XImLv1BhjzGkpkkH7PB4TGXDdBtBJz5aUPYlFi7m3lUye+7UA5r+AZMEtamwISpvLPi6iX+eq7AgXVLc3jGMu+g3XXnnOfn5pDg9PVUYZlC4tcIch8FBF0lxrmgdak1u/NLWa6lCC4b7W2bPdSDrOhe6yJYN2JYQjffD8slaVjQ8tealW2tCX7fsgc35xpnEOuuDqXW4bk9JVQ3to7NuRIoFu7Hvbvan5hQVQl8Jcwl3+/pUWv9R5uXEC6HaW6J3MlUWcqfJcKWvWews47i55KQUSemBGg6xA3JS12uoAhPTvJA4OA8PWOh4l3aLnLviVwXzBLFl1d9W9SZokiH7TnhJJdlJO7A77hB6BpRLjVqr7TEafkPt0Hlxd1MmiLFSj4omeIfM3eHh23CR6W4u/TkkWjWQ3CSN7+S3NnWuYjxwS6HGM/OD2INFPzULHTV8tEUARfgapwn6+h2Es1iMaIiI6L4t2iyZhuXereWbx/H28mLuzBHO+YKYFs0sc9ImgO/e7sVe1kJYscW64pgwocmRqBxijQ8aBBHOA+wPwVqmLTSZze0y+yGAkMSwB2vE2JeIPQVaU7RDdMFsIDbRbLpE6GBE/18Dn9Q+5jNYj6CZGE7JpAz4X1fZx5Oes81g/Fawu4sL/RSySufFCxCwTb8Qd4onHwQy+28MV6wp+Bd9dShwbt0NNTHxv3z6yTruuQ5ug1t3IsOLAAp8HmFVsdFYsLHXx8c3zb7JTFpb4fm0tMJsirv+iOq7y4bNw+v38y00NgAZSimxt+VbGO3GwDlDW/NPeAMkgcvPRn3gcTYTWdf3x4iw3ZbfwVD7RdeS3oSTo7e4cIc2A4dOZdVQ11TDGCk7eo4eCAt1MrCXfwk/WRx9UYVGlIGYNqNTkiX2NqY56FzL4sw9yNLDowcW3qPMKn2BWIj1Z7gqlivnns6zZQFh1cn6OPFlcyAiadwRORSdgfsl0IJ3N0jIHCfFzh4kQX3qN8+0qRJkOcYPIFGPepe4j4y9x1FlY3p6I/8H6fDNrUQr8BHmP3YcW0ohtBngROD8KBVHJPPX6sGyhg7NUPNac8s5ma3vHbKU84lL78Rit5bIoGq/DZQVnen4VTkhYgf/X+78H9S98+3V88FhjaxMB1B0DKzINUDHeKa04fAzBvrhemucHD2JUGWcCudfDYflj1ZVYgn3Y7y8DhRvE090FNfCeuLMxiOc5zatgjXWBrb5Yor4fV8AoUt4wPj7H0TRxcxY2u4dFtR7Yvfgn+KpzVoyV5obbi0JEsPcY9T764IplTjkauIO74QzWtpTpvsxAyxXKhbIgTehDpVpML8Y/g/7AXjXNOOSVHWg1RFRM3ulQHVhfaeqUSopj4X8GzXM/RAiKAMMujSoHcCAC3OhftFvTt4ZrFHcR8aP+45731N8nZopxuYA/gWGmaw4WMSzn53j6NlFkeFND+Jp1lx8ddjibOX3qpFFg7HyChi8sMv7/MM87NV00vjtlIgT3h/wE9aBhXRqEZNB4q0VwgcmYqGr2O8xLI84mZThYe9rUhstEIKZacs7aEJhDD6jszGmTezxInIZpIFY0dsXaD8x0KJQ+5NSjJBoP9635wZ5VWC2UVsIdY9CICNUV/UDlDTjIV9SeI+EoLf4ZtG3UC1wGe0TIaLqUuuHbF/TRIZbu/q4WoEwas2MdcajNKnm/cMhQuySUgR/hPHwcwl53UcziIhYFD4d+h3qb1H8mQx8GwvvQBvENcxd961qf3EgI6MLTH+wssT+j8lMnCmeRFCgoCaXEVIK6p2FD3rlWAZQC8Os4sWKkG+3k8cYstH/TEIC5NxL3eI8b9xujQ8aBBK+A+wPwVH9tBVaJ9Uyc28d+jqSl08Hi/cmoUBnWTcbN03AhP2VZ+1FsdxiVukiyrvo9PaasgapESsIZwYMXXv0U8fDa1eqeq6mlU9fK4d6koyo1RaWbl7r79bsbp6GKxWXSafQ2xbgkl8tkmFTWleI3YGOJvVbSpUURZI4DMsdH+IniMyzAXz+3KFz6Sw5CbT2/9r+UUOlNoLfNBMbYxGGaIw2/I4O4fJOkDnlZhPlj8dHLOr59qZY5PYAf41fU0TSiP8Z3F/fR6bOmgb1PKxBLPh5Pu9WJUdgbwB4R/5P4n/4X1o5tZIQ5ChsxMLXstz9bQA63gIjLyMKxoyn7/AfRHMd3lRhuP8dBsUbtHhXls1sX638MhxRed4Zra7MS6tSzwioN8xZnKp6bDEWVJgEthgOCku4mhTDvfWOGTCnrI54HGfBU682N4ESwFQeghF3E/8ZxKyGej/fpF2wQ01DtawCzqudJlHnEIWiMYj3XaOWmEpwNwt+zX4VAY0Y4p9ehTTKvzDePw6vJrD5QRtdKYeUrJOyScksXBES3tqCyLdblcyjCbxDTSt29vd9RR/EToehBTUnPbPpiUOB/V1hS8auT33NNQRQkmtRPtQ02HHDVWkT9iaARdyTt/SMO7SN9om+V1OEFit83bWmYg++Qw6UClv0Omh9mwReE5DQEjhawuMnO/YB4oko2XVn/GG4Y3+2hrKSSTHvmNNJjigdqaZCTN/zPNyO0cL45Vwx95ElK2GpCmv/ZLXCIGv5eXXr+js+6HEpUdyIwztlut3GoAPqwpBm0TZcWT+x0yPwjGwQZicO/CZTTDrBgSKBLKBjx0biizM5D8oeAyTWM011Plocv8aIUa+Oi1HZ3zj1xVNcoTdq2rcuRV1DTMjXMZnOFWCEm0vR7qsQN2pRrj7XA3tMovk2H03NqN/Jd8BKtlv2Bs0LS7JsTHrDp+tCscGyIoN0o9mRE1EBeg4sZ68PeODGywnSiWo8gpDc7VZkyumm8u2MeAa1M5E1Qmr3hwrUqa43f7JRvysgFhma4iVWBhUg2eb4zdjQkwlqMeDXm6q3pdzgCI51Pj9/V6Uqsg0/JY1iT4fqipDh0RnqqT7SKFCjlhNLGAyEume2PfydKbtJFBUYuvP93lwrNB3lt6RWaV3ROPY38ma8R+HQx044ETF+weF+6JZb2jvnS4a5mTXOvNMDf0XQ5LpIwEIXVqdCmJ9Tbir/yuuPPFnA+v8oTZxUr8FpdJEx7kgRT7Hnodo0F664ox40ZEuETH1pwpN6D5xyjQ8aBBOuA+wPxdJCRMNPNA864gTXWHlYocPdGGF1Ct8UMQxf95mTL5qV8lAp5Qg6UgywcUyU3YDgX+H1n3Fn0Q3epnnY/heh3+R/8NSsaD/ZsOJOc1BW2H4FYtTh6rn72VSdTosYPYPoGi0Sk1AFLy8vNT956FN6uqNF1aMdDOfAjN8ibP7r9zf5gu/b3FZZCqfifuwUhevCMlPAl5OE24/csEZWxUmgjYf6kpKD0cUAuxcS0pEIUnoFF0XwP9BoM6VcqtMi6UJThHgJuyff/ICpPC0EBXe4JOTWbtL96s/R7oa/qApEICGVrPw5rVjhcx9vNS4cNUsdI//PdVehcb8kdCmK/bR63Nv84Ad+QX7b5YKcVloTgz/fRxLqADWPwmlv7DQDl52P+4ElE4fj1QwTMEb7IvK+6ZtaenaxwT7l0J5Wx9yL3LfBrn6ejRuaxYv4TRWDsB4Gy/d5avHp/MQPmRx7BNC+Nto76ucsheQxqr6mAVu1zHW1hbeArWeu0xcwMXnov4HTYs4jdDKwSLo5+RP26TTLdm6KDD1EVZxjEQvHgeVcTOpgGnJOXs2+m/enXLP7e/r+NM9dvVXyVwpPueSvlMBv9KhzsEk7hpD1rRcOEGggzBDo1qxAba6NR82ik+WLwVgP8z/leZrwDbQmt2fKDy0bO55upOt5rCG6UJW59FSXrtNH8ihcwRWmJZ7s8DPPdEFFYSG8ck8q30GCfKgNyGOCyIEalwbHt1xUOTJlZtmlr+a4pKM1Rw2co3+BXS/KHZAfpoF3TsyxfZMDYBbuJYOlRSG4F0nsTKt5Tudu/DV/+Dr+AN6PtejcQKLon04cOU85t9QMyCB8hVOzysWs9Rgco8FGfP/Lzw3/x1KfLF7E4TvuKWGsOiZPephQ+cjqszqhqQeRRdL9e7c7os7ReN6vhQ/pNBRC787RMkSMTud0CWH6A6OE+LbXutJfL5yjqohVDwdSnL3t/eRIzgSbD99dieMyexg1yNgPRCEQ/Kf02UNsyVpaEEthcL+AHlwZASrkFBQieXJrrwOlXWNSMoU6GuJ6n6LKFvXj9rvJ8wZe2me6d0nC1iXqh1kOLv5lHZKYf3yfNsnf+eCiwn071fWdPk7Lh+YCLt6NatUMW97ZvLK2NmHBecClhJwNcXanhWalA1YyKs64kX0Gky0RUqnpacxNaxSuggn148pEWN7vo1vh5lmMYETIVz/z1OaLT9eotpNmPNCbIcchQntKUB3d9BMkjESoRzgv60J8dJiR6kFivXoUxgE6RdRPdfrKChyOjQ8aBBSeA+wPwUEG48yIkFMOofWKFiZCHkfIds6++2juUe5ZKb/N1ztTUgnAufhznDygctSUFiG5CUUzcMc7aOBbFwNbqZM2c1Nb13V2KF+2fhk1D65dAGuX5ew2fikDOAVEO6YoZeRzo79b9USk0jTg+BI118al6AUxdYumBwqfYnB0KaKOLwSmOwt/bjC26ybCA+2s0b6H6mgo14HeR9tm6C0JScI38RdEKKuKbanXoV/tsq7X1/el2w53lJqTfJkBRmfq1SQhFWx7OWjQPio3u6e2JeFWC3RWFqQy1r3JhuVHW4L5+ol2hb5Dqn3YkOQsZMG4LNIdVFZuyBP8C1ycnS2ovVuMMnORLlAcPTK4c6KW0NzT3G81Fl3CLElUCfhJdMOpGSZGXNPDrUqD6jZnUNMDN2eeRk1sFwbKYboiqasvd9iaHPfGjzDLCQjI8Lklc8PecGmZDZk4LHPhm20lrD0kVEFRiY2V39FiCHf2dpmoD4UPBeDDgGxedTav6+Nrn01BAgm5FodNWw9X3sjYU3uLbub3IqgymLoeXCEC6gul/f1v2i6xjUowrCfIKvn2uY/XBZXz0zjY/NumEIKnTheFdIFObdOvbZBbr99kPH+FqF5/u9tlW3wAHDA6Mqoh1zj7JHwzT4E5xEc1Or7oDlSzWXrvZ3T+d9sgPxxSwvR5FN8kJaJ+LuIHWKLSQ/WrP/QaRzzOqps5c3EtGLdXGPA+u0REm1+zXElE/wkBlEAw1JpnCvonQUhg36aRar13jREdUIA3YKLJdElA2LC5byda8EGdbm0KVhlgueBoBv0GFSAMCiROp80mbdTgaU4FrjtwAcMs06514UlG0CS00nMNkI/c28XJAkORJt7KoN09PW+xw48rzzGzRB7c9/bGRQHa57QLaouZxDSZ/39ksjGb9lSlTF899b5Ly9UPeJANL2BECCfoD0QQ14l0uZJOoOlbfONGZNnezoJKavg7ydN9+7OgFifoP3X9x6P9gIJJX1C2f6BDfFoTex/lfmmvmhO2giMWlEV5JsZC4pEatTkJEksFDg5iQYNeGRw67To/vJhcAJx9znZAkgQ8jDO9b7q0Ms1KWMnMM0JSFUWUpUwEcDK4B78LsucRleiPRIlIyWH3iJ8NpG5Er5NytHwdMUwkBDJ1QtBT0jvm0Y5PH9KMO2a4yGMgAJEtL6fOLzsaa4mbrOepq0Hpi0Mx5e4QyxUxxqijLbJ+W8Tr9hE71O4zs6Pyj0zxDse9U1vZvJ3z/vs2cNkWQxpvM92qnU/Vsw/kA1zGjQ8aBBWSA+wPwVIekLwBd/SQy7j61nYjUzDhFh5W3wfzpLxLmgIZZ4wcXZ1oYMa/nzlYK2/S2qHGr8o7QUcofdrG+swCUvD5Jmc+NIN4XDn3IBHjKtampOoC6ZLKkkUnR35IsV8stfUPu+AgOGVY4EW3doM+nqOrxgPBaXBnFlablcyovwRPzePDUoKdRNQnUh+AjxoBGJs9VeuX8IBRZ6mLJsT0gyxwqSvGiWuNnmSImYA4s3IhrqPDIy5vUq7VCVQ7OyrrBrOCa3jByrnRXjNJLNUEfnbXGBw23eUKjbVbIhB5Nfd/a963K4CKj4eEkADJH2aGkUeMFmq2OBCgPPdetE3foMItsXRm2k7eYK81v4d/7lhsVk+OyBd9kRAN0NtfkD8zpzmwjUjD0G1b59mYOUpe/Dbe3gTgkgZVns3R6FiwO5ZkXLvF2sbg/MXxtlj0x1QU7/3kbzLaL1YPykfO5PBFN3VGw/3ZIAtrUhiHjy5S/DkHKZYtncnxCp07PaiMavD/qNnWstQQFibRUaw5F+s/qCPDtOIavxZwmIpMu3CCx0UMAyeXAmMXJO89qSMnagme0n6HxX2U2isUepmgr6E8+ESWVVXX8d9MFGVzhkcPD6wNiuODkKtyXL3vU10pX6YUL8uLxrKspYVlLArUsDKc51OWf1ysELzAxdwAOFhgomVR521TnU6LwPzMrI8u6/5nSwbiHWpNRh4nDBxbrXISGO9jGllOJ3p/OY8CZcpP8ixOho/ICLZqb38JRikwf4qfO4MaPZruvC1P2HSO8jr5boqjRdAhTkNXQWUm0tdjaulpDbtrrLIL5GA6zX0iPuvbYrzDPse5Tcwgdh6DaESeYhvca8FTrzbbAawvkmdBipYM7rB34WIwCPrFqD6vxVmPHW3KwKK06ZfE340rzPbfaMPmyNdlNNbctjfwpg5ETh34gLZWbbN+I3SEBwgI1C41X58MrGqkRQftSR+ZhX5yQciXlQKuhwtrmBXohvyjha+RBtCbV1JFYZTbEkOX1FIeMj4TWCmdBNR1sc0L8vpfYtFJIm3SKcU4vm1egyBZrB5kTztuPk7d5mauHzq+uqefuvI+UQ3AaOmHRMRDCN9F2wjOGsmCGxZtKprk9dCFsUPAey61Xc2lj6z+4m4unR0cTySHGyGPH0QuNtegto3PoNgJtq0KZiXkrVT3jMbfqE1SVJ3q5WDsfpt9EvBWR5fPN+Cp1/bN9WcJPuFBkwjZftf9Je7/esREvDMjhn89uyc5HqPg/rjdaEGCHS5dwIR+DBx6jQ8aBBZ+A+wPwUkqlGF812IK5OuEcMNsBn+bMg0UAZBv81YWpN/IkLFtHjH6abTLhXWe6tMwjtNFe57cP2tcSPJJiUbhDqt0t8UoitJbQQigBAiisy4fPjyJbZd+3YFFrroI7egn4nHU9Wc166RwuuyAzcxNMuvEmU/P51pSjTDvCOnf+YdVqWsI6zaClZUNBtSOp4kJeifItXxLPzFp7GLvMMSpBv4nn/hEHy1LX8uzzain8UDGbfjaPwf25VG7CKQBN2He7Noc9NC0MPeO0NvvzZguDD1k4H4lkTLC6svskEm0xqg/trrlYrkoK/NDMKsjBeUxIxQIJjvN4qa03oQMm2xlSt7QJ/nuJYWQM9uroI9qJvsMZqh6Xi0HI6uWe61o8veQ+9+XihZVh00EZQTQ1tbL7nt0ftFDUkhmXnZQk9mrAjWyVCPGAzvqnyi4/1tgUOHz+Y26nQI3xx0NY+fBawgd8O7Qp6bNZ3tENTwpI1s5kzXpJ9ZWauZmul92WUVYUuThH6QrPELVFqnxlqGINLJTVjqjMa4+fkXXxLfT32H2XS/NJDN8LE4DhTOjSWtT9bo9IJqLGpivD0CI8z6UunIzyxSkkDI2JLZ9rok32mc9LKI/Es0nzIZrw1RyzYHQhQWvKdKAAL8P5Z1lELQra/wke1fqcpvrvi3kf8CET+y0wBsxV/uB8Aaeq+2pHxuPLEkPo/AoTw//1G/2HJCVxFE1L+AOEmh98iyTpcukMhMst429Wcp8XppQ9tktQN1C3MaVuOC6giP0cJwjyE+7qs2w4v+jcSuMMRLE68XGK02TVV8CTd4AUG9OK+A9dN45e1MQUc2/eOz9fBqBS3X8d6mC/ZfUv8FFtBR2u17IJVCanQVtDVze9OxV2nIDHRLYkB2ZzG4D4XyhZPR0LtQSYnZSxdl9lTwo0SboZD+agBr4p/r7WMDQ7y6rDgjpX4Quk89zuYzSicegnSMv48sw8A9CNwHEl2QymCFPeG95ceRCSZ3qUTd6yFOpI7Ifijc/6yEElQB4EqW23R9cj6u6pUcHCbPbJMPVZmxlAQKbeBrCHskVGgI1Sv7fOIP8sAZhfpgRltS8+s2rEEklO5/Ic+H7eTeLYdHwqGTlunfcEeuYtCIP6ZdhkanJrfGVeu9958wWB8XHSqYDw+yKV1w2Uv3w7x1fz1SkWACC/e2GBexHNah/q7FEGd2K6pQhxo19JT/cZpFA1tSRV30DpKcaJmEdbC2/w7h75wkrkkQDuxeQPuF8K5ce2C8BUmZCWwdLgd2VMlSGjQ8aBBduA+wPxdsfAb9eXoVweFUj9X9ZK6xa4BZxNXFL3PDe+ghUWLyN/RAHcm5eghLeXZV0UsVJAK7gZTBJxvltrPJaJ9r6O6W8Tq+a5WIffkuFaKM6s9amCx3WcZSneWnUnVnVK5p4ZKcNC+mjPmvSYbK67/D4N/KPms5jusr47Zi+zrtA4KmpTYF/MhbZinyY3+PQclhfZFN7ieCnoio0mdUOFW9Klkg/,
zRhJv2oMTngywr5XlcOWFhULjx91QpzokvnnpiGXVbvoJw2SiOUUQfkl3hTYcx3TNWkK1U5GPks7Gq7CktE3fi3Ky58NBGiyjaLk8goHV3TGwUh1yWS26xiUrX1juGAYAVvx947AKLdXWMwH6ZNjvSvA5Bg9bgK6v5k9mbt261cx1O/CViSgvJ4MB2D/Wjm5asvITbaIbtwlJed3MfBU+YZSelThmdAhSvRot+7jJlKgkv6mdHRxso5SlrAB/Yb4t7s6kvhPB91TVAAW1CCUbu21B/iAjZi6PasBDth6qgSV73H/V+uKmE/11w+SbTI8MZAaqipFeOymy+KFlOb+HQVHGSrRX3s7Cim+TXhBHhtwXZpW81YHsohaPwjWVsBYGEQizLTBuKyh4eSzCiXZt+OWcYgUaUQ1680JgQZeXEh/+BIfy3pu3u8r1Y7KY4mUTwsXOpW/qukIp3E6l4hWTDYAqRRdA2UXMROm6o3nlI7UwFPGarfgTfm6B6pu+E9ziKaJduAHemKxoQEgAKRyPAzBlwqpp8vJU8NJarhdl1zVtbJehnBK/VIC0pJyCIhBRuO7Xm6dxqavqbNK+LKGf9y8+Bh2P+wf6QyvU+TS43ZD8pA8eBGioJHQ0Icc8aPrjcmAg8VQC06ta98rASakxyHTQirCU37Q/vkD6M0PwEhEk7PNyiFePztl2siKV/MsP3iVQ2S8S/9ONgulxLKb6tgm+9L8hHrs/svo4/ThrLcLpPMkepmkUpEDeXx9NBgSVvvLkrGDSCyhexV9y5hw5hBPk4fP83HeN3md1DLxh+ffq9LYbu0qEysTwGhNVw2AnPmD0XT17QuUU6GMfx3aHUW4JC2O/rqsnPX+DcqWWWx2srrbYikAlkpBPmSjl7WOBPoJaSpSNp9jR8GsZXTvHD/bCN5ISlYaLhtf4p8TeXNPc1myEb6qEvgLPpbmoiYcbP4J+jmEvq44Z2bIDUGyrA6WrOOHiuHxqAn5r7yHsNcJeFIsoAt6duaovkhXwdJyRV8YDDbW3LVAJTS9KV8CUC8NQR+xTEQwi94e9xyjQ8aBBheA+wPxdskRvr9lSIkCPy6WkRtDgZCfazrMOqYaXnTJzeGvrAlABZJZB1Fjbf6OX1NSyHJg/FOEyp3t2jTyAVA4VACWImycJRza2YhGsF44xRGAztzGr9eXGI5rvAvd8hHODMoeSepBb5RWdVVEKk6Zyiq79P9Hl6zk/rcwSBq105mw6OH4aWQfUskxWAA5mb6eXWVA6H0Aha3irPp7p6ob6dt+dJc2Z1t7K3HM35Tj4KJAV54kK6ZNHpVqUOlsF4rDeCNVTcrI1cGHOBisH7tRNKuVZpgCqCtb1fw0mX3Dm7pJrK4Nkg+rA4IESWEeX4VsxUQrf211I2abKbLnnSrNriD0W+JudTpeSh+bRFoJk0W+ZrsEHueLjQ4J/mkKSxpHXH0q8bPaInhXgMFikwUsPg4kXQO2gX5xb8NwECgxr0FnGvBReaGG4YCWZiWPFXEK3mO1lQq60mEDxKxTvjkr+ewR5rLeETEDwKvW3L/NuIxmPEWhi4sFOfAZrOh0TsprgoVM4BwVq5cH0iUe2oc/nG16u97MlvPsdsFj+sGyKhf5WQfb53OqwajEK918XE3wyCxh1d6kkQ5WzDb9dNKjQaGfiU83FtiLa0MQLY5TXk5GljNUxrLhSOe+xAQGnWHOIqu8F9aj3moB+YXhPNqUdwDd2XQc/Btdif1CnKRQqocAT5wFW4UubVXrILzvQgs8Gq2XNNYItQaQy/EasiU35K0iLXWzn7IIk1OCrh5gArrhQsk/6zu8IntkxiKPDksEfkF0BdPljzh8v+UWMaaaQazcSOKyQ4ev5Mf3862OaeefAhSV71bLAV9c/bQk92y1ae4y7LLaXVCAaHMVaXMDZQcu8GkwMOo2MOSj2uSkiOhPhp39pJPm5BykL3SKJRwgg12Xzpjm3eaxlZcKGeIWHflQ6exUw6vQZMtYgp7rS2tw8RPKO7xH7Y+pRL5tZkQf5sxn3IpdjvCI0R7+UWDBUU9TsNXSwmr2Rj5rx5HKdk9w6EdZC3W+bnoNE8Jq5IxAqQ97b68Vjr8xCaizFxHt8GwmsX8hNgnCkm9EY0MRxOKB48WsBCMarnuzC4lh1pGYL+usEpnF/xuc74MlDak9Cx20KSW+jWhLp18AjUQASh6DfujAqHf7a3TuBr9GRSoJn1hcNB2O8zr8rZCx2Z51qxxYuxUps9pGL1TQ4CtLiPJdP/NzMgRFbXvAlhG1zcVHdeZYFJUq1VTBJie7FlB98J+rJHBPo0YZ+sVVrRCZriD0Vq+T8WrWrQMIvDJpaRvXFxGjQ8aBBlSA+wPxffy3sC2i6YpijJQ8Kx4wYLuJDdXW1ltU/L8tNjTZ2oZpuNpXEPWlEGxd6hCQCn1stQk3qf4QDaZE4UHl1SXfal0EATZOGEkE8F74he/W+CCy6Rgnx7HrOmPljyydnTWIvu566hHSWkGlwRxIQFLzsxCx/zhqS/pZXh3rE75YsvP9O+XqXzZW1wcJ3/Nfe81g/6AhCmjI0/wZZuQek1dxgdJQeZsp/72xxS6VWWRnzQO8arhIOxp+aM+6npZqTfzvBFT/sGIxDVOdSf3dL5Zh/w4jkkWS3rtWJpwagahiabciX3uUrEw87LUB6dBCjTbfSblkhP99rXP5bObXfHE1kIZ7VEl85fB0+kLwAx7K88sM1lvyF6t7CFWwHRSjQKg2zNs43gsU09fAGxZuPMua16RmKxZJXLNYN/j3QNf3F/Gls38WO7AQnWNVPO3hsiBxBk3QbPpci7XPYpW5wez2YVkKtfQaObCVuCDGfRyD5Nah6PXF7iDyJP1ebmgvxVNkEMo5NRZFbUvA+AJaHEYA3wLYblP8oHvIlQovFkwS0Jywe5SLQas9u86pok0hHY0maZjnP4pD+y8Mx2Qf4DXIjqYpznwvUziPqrdwkg6oU5Q6Tbv0KoxsfPBrjuPz3PTjxQW93SCASTzv1CZvr0gXW7NihQ5rhNdydD6b0/BlN5EmtWd0I9bVDgysd7eOBuHB0Rk3UwtfE0MfhAiOVEGKvzxk7YplrVDDw8+ZFjOEMTX8cHfSk/mXtqlozIgDCy1t/Y+G5h2onN+HHeE8kdBxZBz5cysaXK8uH7YvzPAcdQewR/fNDO3u5CFnycbKg2BiM/v1nl6/dwfizZSnMvcu8X39GhXAw5BiPxMVY+NJFM37rLhLE/yFeSWSD0w8g2hCjvFEV9Ly9o0WYm0/pADVGsmzxqz/OtUmavZbLZp/29N7LyYPvw2cDIGnwPLbIptrn0F9QDWus274aDkteThlL3Up5FSwQzkCqU5P5V8d1PqbRr97PxMcoBEhN1VHZL/dR1wawHk9pLFj79aumrxTmJ5HdWx+N67cbc6R313A6IDdpzPtaARu7XOf6fxTsS0N/X6p6DJCxiO7KWmbgv7gnsFD5UiMJ7MzU7LRzTt0NvY5vP8e7w62/Co2kmCJLq0kOUfxqeSTgV43K8k6Kdkx0UPam6+Jw8YNUO4h5nOE/c36SNd2Hb0fnZw/HTChFliSCIgyZjXxv04verzCB9cC3iOkAReOVGqaj3Fo/moHuHkeOEv8yYHsZkIVZyG19zujQ8aBBo+A+wPxfdPwvcEDkR1vjP94+VqNv6qLh6RS7aWPvLaS3q/TqVziSKtj6XCCTi1+CnEaqrWAwvxowLXtHnQecLeDQV21oyM0uq1WqGjHlQA3tozx5IlTG6m8J8OTuaT9MnpXKtnjFITsJwfGBBDivOpeowOfq8gmLB5vBWJXfJtBTisQZUR5AvziAgPAuHEZCwzcmtTDxubYA/v3tWpY6/YrPmKyVXtIcPNdCdtp4/fqc5kkMrkIHitDmFLsdu77n1vVCDwv7rtAM6PRuk47xL7mfv/U8xBLCrvvUEHlznyR5POdmUT13JZ8KLPsOMx3NVF/7aF3LHsDWuHL2D58GoK9Zx0u7gtdJmpkLDrYahSye1vbcWb2DXZ3QDvOhN02DInzl+t7s8dlnOTBT9VOhtvv/ZjS+CtNnrRosqmhWYXcXT33F/AGudGcGrgZ6ANatLRD9r1ft2faZMZLpeKzbxwWXHc/M/vCOHr6bAwFhmuKNB2Mv/fS62jYx0IPrc6BPy4Hiibrf40KRqpok4kDpjMoecQPnAvsduXwNidX2cytPwsptdMTxyX4AwevDwlsBzwPJvR9LsCWMaLziFU55tdhBjOsal4uDo5KQm6pTBTx1BO4seHJ0wwRACpGC9MTHclCu7fHROW4SeTh2cEE8fVq8iDzcCkHWoeL/DnhmRC+6siFEfEBF3cfJuf22kAXbMLk2Bpke+f+U7euwQCdGZ26cRhfG/ZU4y+1rPkaIwQ28Vkitca1mijruilWVTABJ129EarELI4A6MGJRGoOU3uEQidRczi4F0RHTcbi7y+Ahj+QaDdzlzrv+NmDleSepcU7Sy0NwZYJ2i9bdoYUSmiDzAc48XxhqNBRZp6j39PIE1hdnoqDx9hfS8JVev+XZNBnjLyoHUNmirBghbIFD5cxb7d52HiRE4is9YLgroniudcpdKfnWLQCTsRR/GHJKYScJwQ6hHlU7XDVNP5WdsQRkqh2m5qHt/Ku5Z4TZ6sPHpBAVeK8aa4cSZkOeC461XmPoSuM5pZbV9dgUBgXy4wRTHst0bM+BuZ+11Mlhz5iV9Ns1e4Vfus4eHBi/LGBt15tIUPy96AsKuPLqcp3sLQVFckuNjS7MyRX08GtOIop6JaDeRwtvwjDCsf5pGRbH7Kz3UqD/R+jVl2E+jWa6/z9hWHjK8auFXVnPdq0pQW/uKb9gqIMUeW3ymZ29tlia+Wuy0jfvNXoWMoC5JPNAzteewhOnqeSRvwCy6ttZktC4Jq+5iEEnEnNgHy6XlNtR3mt5xqjQ8aBBsuA+wPwVJSEHOY4/ChFAGi19HRL0Cdh8nGa8vpwkB+fV85G5VLsfGWpTqeEr5DF/R8gdjiMuZxkQX6hH3mCTRQjlFv3+d/DFkq9ffFDMTMJkwlW7LzUww1ZS0iQETnUqXBz7NHfuiBrI6dWFJr/3kZmnOOgDePb48Kp476o/EMlW7t3NzKjcZrWIQmEVsc1bU1lb+6clLshwVy+NcEEZSD9xxBppRoG+w4fa3vaEt+kJzG4EYQveTY3p4jRydQJYxPceAtEHLDziQRqEJEaNazd2PUTrQPVr2fWk9wvf/hbza3z2kJL4cIlUOV8EuNJUAVj0kkIXwJBt2Pg7XiB0/DXrJYT8zc+lLptI2NDEhhyMwXHiJhklWLSfS/tlBF2RQZcg4qhFz/Ibompda+aF3XVjwbub8dOleLJgeJfn9xzr8iXUfFyRhA+kXemNj010uiwuolUM7HQdpnKhhYKSSHLw8GRpedfb8foRCu2g6banpJ/om049bbSNMtvUiLUE73ReYKHR5nOqm7ZUWlW43N1e/N+Jg7kuvNfIoV8yI28kg4IlBZuz3YynzCOwghsJYzIKJ/RvWKy/ro7uJQ5aLY5pVhZ9XWxGo0BHyP4FtsAGIVpX84CVt5vts8mS7CYYAbBmyfc1YZekx8L8cEvXldzHYcOKQpVssa/hO5hNcP+oIGvJ32ftqkRpDKzRRHG/ynBstPRdx9i/sQo4e7h4DAXgKpaK9IHvqeX59j9dvWrYOf/cV8krgsG7YvLhrRvcbg6XYqUvCdBqTiphytp8bc3cQCfDvsUcsr2A+qDF1vgyl3HF4w4D7vlFF2FzX/U4VRcbM/mNsAulX9dRjVyCRLBBOcM8FGfP/LzhCbz65Yff4clRX6a6DNf+vi3/3vcv/RfmK0U3PwgTgpRkvcs7WlpS7yhwzPDUnjTiUVAlWNGPAF2WxSCielg3WAIj5/RGY4Xvc8fZezUvC4mRcTtOtc8SGRpNtrHFSmaKXyKv2KyK9m6FTGCvwNdMRByrDD8hzwkJVFK0GH7U2DPyzonMRQx7Az/SIa3eVYgVp8GvItwmOEOw5IGsdCeOhGsvNiL7+zz068YzAfkACZ1VHDDiy2K/Q9ighOZ61LpllYUdRCAal9fOgfl4AwF6loKIrpjGOibk9bBSgRFyaPx9B+VrKqi3HUAAw5ibgzZELiVvAlOouPTN2GHDLkmaLiuUkPgHG1kmjvCujScltTP9C2+qDl5kgY5wtQCI+gMsD/IdYj8hOmpYxytS8E8ID7DYdbS/A3OBxujQ8aBBwiA+wPxfkskv34asMfvm/lAbkkoi4UVnvb9RCoAxqCO6uV61CqBEjLazbvaIbmujX7/IHh7W2vyBBA/YRRqVygorEV7asmDNTCdn4fOIEnEQQ7zYi5EV3wPXrb/qDYpgNul2QiNDlQ4fn0tKK0c4dql13+JfFdPlz4bapx6+Ht24rh8c5IUJNxHdJcXFoq+GoDRxuPG+RO57wzo6kIBIGcvCSzBeJzT1rBgQpUR+RYt224PAGjZK9s08K//UC2Vl7PGwq2XCw3dXvhetS+W+vFIUSHqqSQiwkAh4blFVX5VtyMi/PzeNG0AEMM0IISNl/PBxbP5DxbrFAyhyKMiNPcjntWdE1bZaxDG636NyhmJiCFteHNHlhvBGWqhHhsSeftPVACb1rWDkHiHra+MgwZeo2eGuoiHSVsYcLuXvfFb8HV3J/F+Jxpq8iDEaiVMGVACW3vF+9Cv99u8WHom895yTSdwwvI2fs57aYJzP62c1zFkX4BxMRWwnIxQQreYWJRce40UUnwL6tl0SgfV3p2u0vpOUO75Wisv+XeTP+MneaM9jqZATVYvfYkmxEn0RludIhnR8w+ZnccvGlQ5QPs69szWwUIL4n42FHNY95qRU/44ivlM93sjSgzCuiKL+FH31yjUChpjS9URo8SLiCZTW0u4jPTt7sJVpnKYhOJgPEqjv5DP95Nh3PfSQuucIcCYSNnzX5j5R89rFdDJ4hwTFmhKg5IjdWRKpOTRaO+h7hmbTykF0Z/Vgut+twzpAK9ycZGNP0/ndWvjjoRSKkjgm7SyUNJqKBrT65Pgcbta13oKbekjs8fiboROX7o3JoQM9qrLpK5DVhhMS2+xvFFgzvcx8GnVx1rTZfnMK9uKMqPlvkDlRNMX0Gh7gEd3S2z9aIpZ/jcLElICmk2nLdy/nQDh/P4tGq625Ul3dPpkLTS8jRYeczKbPCPKheQp23VIwDTqF8MR2UcwCEz5DgXdcNXnAeDGAUKd9eaNwljQ63gitm+D+VRcg6GFTzoSixrdpV/aytGrhTYh9njpexsxUOwcnip+jd2XwFBjA6VP2Blctm8KiHgWdbWuJhfKTkXd8w8jJf0lyiYNH+ni3vrCm6ekFXFdgyNjBnI813i7nfQGkvdh6heS0VwVikjr/0nYHrT+6GbzikksgpYtruasr6p6+iutZFSpChTFx+IiCoYyX2zo5tAyLjzHcVZl2cUyNCjhbiB5kaX3N7uRs6o9N5ZpcHgMzMI3vCYxpHVR0gP6APlw9kG1f7PFvlrj+4Z/hRSjQ8aBB0SA+wPwBHVf3ycxuN9J1dSRE09jn61xOjyZrrXVgxHofd/SCO/azl/d2WjHkNI7lT0WJAI56II9/N/gNlNuPpEQOkO1cBf3H5nNkCYudsOHeYUiCPsBeXkTFXrgiyUx1mPLhuoHhheKYB/xebZOTEv49Ytfmvug+oVWiWIMkcsOOdTgZ6fcVIYBIzY31bEG+2WRJloD7djHAvmYetLjL4tNKC36HwF+99rzZaAmySiGN+Q+G28t5MVmOxogPPG7tYLH2t6km7OJ3EAz4Q3QbjMEI4V+YRn/v4amh/RnEED47BzDufhX4e7PJKbrv8DDMI0apIvGvyDSzt6f0Lw9OuXxpLFVPV9r3xi+SbdxI5IypHVfm3a4wt2eWEeu5e8/APKewxMDcM9Vrm3uQF8i1O92eIbk7hEOgDzxXrhNlu3UgyQFDfBVf0dOq0L832iBV92PHju7isg/4ftZvzlZMlq1hmNldTX6NZoZg64VbVw+1wxY45Ty7piGm+p4gkHDzAqjXTM/G7qZTOpfMPWIxd8TnxyUMq66gdP9IDNjGrJDwqwPlTABfVvGgrbe30Q4UKThgK0DAnTBe4OO67yENI6AeEILgztAoRX2iH7pCOp4QdY/jStsqbB1kn5dW5xXe3vDVa7gkPlVKqHWA/Q8Mih4/ASCukGGF9h6oTKhbchecGOE6bstENhF/UPZW3p1Gn3qUa++Jk03Uxc/aral2sV/N2rLb805ytF2g+UdFjHBTxAQYVfH9GEUXe06vyMUFhUGY6MHG2UoFCFopj6FDehf7LCQdbUSjE6BlaRUwVmKTIXmPk7OQCUwemCfEC8ZpnyFhAkpwWVhZhdcyaQP7P1S0QUc8FB6nIG0rxtaOQhQAAdKtWEF6CJbGu98T1mmGAn1zBqcmEIuoDX9txBiXXRU9aqfvAr4mVvD9szlpRmdcs6yfy2S6xcpEjgdQurioiVVweDhpE0RwqCqnRipWQ/UBRYO5ALdZqI3LFAcEnDAw70NYp1B0Sg829eUlc0RTdkmmvydtVPDV9z+bVo57qrPQkwOHEhV3WdaBHLRWqi+nNEHrr9D3Lx7WfS3V9NXuY9RZ5EgnTP1+DBFtsRoO2+aU7vGddptduf4NfI2CyUu4dOtjlsIk+j7ZFSHm2LavzlxlrHqo0BWJlb7MwDpbAVBm6xffCQqJUvAFHHkaJuKQ2EvD7EXKy//V+Fxrl1VoFc+wqaE5YuuYYelFhoa+5j/eL+P6/L4wNctoNOt+08aw87rlo0gXBRsiJJ6bfW4mE9hFSqjQ8aBB4CA+wPwVswtM3Z3uyh5nM7louD05W2U8uvu9x5rCcFTVftInjgDBtGsRvTAR4V1s6bBOXOSUHVt3wCOwjmwqEdpf5Gf7g0BWb4elQNu+S/gKWRliESsTLyVIMIRRmoTkgj2pPPW618P3ph8FXRHc5KgPHOf4y5Tj3DdqfQXxEMMMYOXspwX3tf1D1E4+tURV8UHtuehUfu22+8FsjOrNCYn3RugFWFUoz+bT9eEzWNqz5GuhI8vxwENolm5J9vRg4QwaMlmH2qRCBlLL7pgVjWm/ebE2rrUXFA/oT5nvu9LFTfKy2Csw+ZZ/KN5AfEpXNm0nDeAYJhsd7rVQ1KMTEEf7anF700WBbCqFlwNh9hhWF841hUI5cQLhdkKg5LIUtk2cLqVGGyyiPSku+5wN5I63FEdFmeeRS5QT9ZH9TgGcF8FJPBUvAttYCrQWkD5xvUzsIn9NT68wsDZ4KO6ed6PkTKtNx1Q+cEJUaG5HaE1YNr2mEZ70xHr/T+Tc1LsIFM/VPw0vdAbYL/In37caIi/4e7ZONIK+5/p2n+XPhUk8yxlFhr3mqGizhHpuBhjxotgE2sLt6K3CRNVneKnsva+jwO9LVgpmxtdsYfy8Cj0DHRkhSWzxHaWGSUVTZKnd14tjLd6NgVFpgmSuu0cqZRZ661t6TzwzABOUKcDHKZGG15R9asCkyQYazYg+EI+01pN78ugkh62EN/j6VA810G0OoxRggt2zwhKoEftFeHiyQFA7fHNeXZK+/2iQpt3MXZFv7k90OMJ8jftKhZbO1cR9hY4HOfzrk1xajbGS1vMJZh4VkQo40Ij8QiTv3T0oBVxSNYeoFX8bAdNqU5aLg6pjIUj8Xxmb8mEFmO+23I6tkkI1pa9NfOrn1dEBI3oCVkG8FNZmDwpxr2/VAzMO+RCUbpT/Tt0O8LNUgjHH3AK7EQwgijpD0o2BRBY4ZQhZd9klwPvqLXA+zkOz011dZhNiOcyncyKwcKCzV51pV1mJqci5+XKW9biPbXJtW2SKLVGo6YgxrHUAhbwAZ7tB4k6BWrmrvSC0OzRsTJnBQN/xRs8hpAXlC2PtNNpFqBIQEo8zbjxg/0EYztSw0VrhBlYBVC1+wnqtD+uQo5dMx+F+3sfBrG2ZF+hm15l0tamRWgtjfCu7AYVlFriXsBzd8skm+W1oEpF8IgsLvhNdTF9mp0xVFgbvq96kQ2jKTJEN7M/6jr56teDNIkVwlzR8BrUts6ridi1hXBxT1+8MJ1t+M7Gp4zeSE0D2G65qvOKLXONdSWjQ8aBB7yA+wPwUnaAtTP9TAXDSl0UX6YsHjsKIJhGC0aJ6KmFyKuIpqGEp/qyjkCG5F2HFKhsCRJwfa75VVJm940OSyoWIOlRqu5gxykd2Aqwv1sqhTSfU8YEjtRyltu+ANpG8hLBu7/n+zJJbomFurPXbJqG2AJch7lD5gR3ibhpxzchhH93oF9Eit1I2gFJ403iNgtpI+kgfVzPJyY7tddKMAv7ZCUk9qr1ef5bEP0AFrKzR29CQCs+rV6MJfxYsUjMaWbnhElDIHeVSBF3JmM/BJfmi7lU7+VYNDNuii/W1x2tJUhq2VBK0w7PgGQSrZeg3Qxs1o2Ox+CLKeBoNS8/Jzng+hDZht9D2ysyrRyo210YOA1E+wpz6rD51+zXvO5PdQMAAXJWUnDiqzvgNtS205cmyWn6gxUC2aPvjYaUPUTRsFCVGPBXD43zu62/HKLV38+H1/G5qy9qfo1FNa7QL0qev1nIGQ2cInFRbSQwOEewURLgWprGaPapNbVeSDxVZaJRVrHrIFyRYxEL3fVRZLLugGBb8CHdAXGA8i/x/71ZQoXfkyWatuZlJCR8fSLy+1sD1LRcH/v8Jmbr3AAR3JLK+5KlN/CJY0ddqlDLsNJF88RtHzbVpmYAvode6GvoTkXH4eTfKuDEcjx6aVAH1s+LWHVjNwPPup4o2EMT8Aei++NMjcjOHTq3bKzPnXgxTtfay6VPOFMk6bT+1coGXrSy/Yz/iM5JtVQgSpCApVQ0qURWP8rFT+zA0QFO5tWjK4FqzcEh8N8g/uGPv0xoASTvgNg3F9/K05b1y1Ok1YiL6+DZVvyDQI12ukhelEeK1n2/deYvRNwaBvhR1sFXMzWfZocg8XJPjNILC/ICoWueOMjrdo9U7cjxwQbOTJGLniiwwFvhsUkMOA52FI3UeX0no7VkRCwG11YHV23ZXGzG5r/7BR2vy+IDee5u5I0fU6JLfdEZwpeLBNadzP2joW9Bga3iWzEp0++Yd23rxvUOqrDrfhBF6qfkB2MzkURYq63vl/PfdZj3Uw0uF+b8T2w6QbAM+Cw6LynIVoyHF1C8gKGRUBZoF7u5XKTtnVc2MTrpNNzHmbBLROsFxO792OrAxRn2XCJFV4liEnXFOv+SdcEP4+h1OLikrKr1qjkQDp6PSePy74m2S8SpqBko3/fwR5mn8aK2+nF/4SAxnDH/OSKK5n6kUrDu19Cwy5SgvMNg22YoSk0MOi0Lz4VOYQ0/jThL7MkgwDM96h48JRZCrSDHlqZzFlaH8G/JTdSvl1UI9yGjQ8aBB/eA+wPxok6ayyLVRT3nUUQWiWxdnuyFUO6OoAqAYuXEJp6NCfyNJrd9HWvDwPv1DjwJiMT4ZQWzOQw9vE/6vmITpZ4O1iXjb2Bo7eChHETtuNtW043GbCj2QEs/qQzHfwrnx3wpXCIzQNInOA8Fh/Iu/K3Zt8MRyU34SLkCp8w48hfR6HUv4VvnDbaIKTSzBPkg7Wv5CPJfHk7wqsj/NEgfzJ0YMCbi/aXypbs9knSoBKyI71VgPfzlj62h/NnMnkpScXB+P06K7V3h+j+sZZj90Y1KxX/f1aGbQY5KU4sGVMsEwyplG8DDr+A0hBse3nBUPdmDnLFpfIWllciJMD337oOel5k8RZBELrATWY8ZaVBJqbetk1wPSvvPMfojsk7svma+TvxnEc9joou/AXWcADMxqLpteRxHPojTsueHh+/3I/BUu+oFGZ8kK+wOV6DKWqCaVmbkT+IlPqVhTsW8hGWRQgwojThkxwWjwOy7G+BUzrcid1AVx9o7powofOccMYGMRf59iIbhnqyV2bAHcobySw1NDiZz7WG4VRDLfOLerK/8WSnY95cf3oox4u4fM3KA5XicsdFWIFNj2PXtXcxwuxp9nQkKYeBWOBBv2vIPm8u7CJ11uHChsTAR/3lwH/U3GNUNho0308SwDjeaqMs2W7H1QPN+1B7sMsaYvnfdoNM8BfQ4TLDsqefZ9P3tLiBrJiH4kaWhGuYLezZR0VgywLikER2mr7oNZ8ifmyBURYdCNCOyFNGiNObak0ehjHqX1fdtDBeQlnsPjWkS6Vj0vYg7pHFmuiHc9hcNDZgq0nekQr4DZBHOTH1mNO4zqSL5BxGi7elPmUYDElyZdYUY8E+zoRj2JGhuxQW11luzkLj5pUknkXhszll/3eUlTVNeL4eUhk+2bhZSA+OEIPktZgoudlJMqJ6C4ZKWnFfFwpQ5CzxkBYoZdYVmFYYwCnP0FguLaeGBzWO2D1N1t9XTanSZ3KSp9uWfbPzzoDTISlzlWCDsqIbZ2YUW1/9lXBIJWYxS3UL1zdt7rDhOqASQetLMzCeZE8zq/N9zAC9YYLdh5ePgGZ/7jOdr0eixVKrqiZWttbZJayBy8akwflXnbXm3N+FBHSQAANdarQA3viVAHnjsbNiPs+pSNnG8xo65KvShH+BhrKdfEfMj39LyzGTVCjSAnAMdpIB1Btvprw0oeszqLDHtJbJLT/qQgPwEGHqLn/DAeya8lJLxL9NmztBHnMkuUUG9AXP3/u6Ktqj6xIGVll6XgHy2HnAFFRejQ8aBCDSA+wPwF9k/2/MVBVkqOfPcymV7RoJSY+1CM849nhqYul0IAkXKcc3J8TQqQdK0nbvjbtVLytE4UWw3zp6aS41D0fqN4F6o9tG8GBT6XQuXFMy1NOUgyxC2UfI1/GpjjvhjkzNhW02fUwoRLTLbL0/cZSRiRnz3gTsP1HF4H7GREuL4QzVG6arqpxxdp/5rK4k8F5KiqpIv5mwmhBcS8XCD7TqSPLOfmbp9Ptssx565sAJkenJt5Xhh+NrkTGRmVqmpO3xfTLkw8QMm4rXztXCVN4f1rOQdBTYtAMQOU6bxwOUdv+wViggKaRsA9L5/lnd4w3vzATZSKZ7/JCfjeqgUiKuXLot4DZF2c3gt8T77b1dDqDUk3QaG5K0zP6OP9lw5XM2GH08npBkMk35gvZ8n8UE4cD1eaQBBj3V3OJ/kLVSFCfBP5MB869vUwoXsY38dsKV20Lj5wch32278MhAAlLOTQ0SjoXbdUIgE+/oIpRskrDHKbXxx3k6gqE+6ZLwZ+MHtGCBGgPHg2kRfSxy/mlhEYSSMc7BLFRq2tQDP3CygtIFJDjPKeOuBnp/ZR0VO68ktU4+ixUOjvMNgEoq6ppz29zk5HOMpxEwxnJ5k/uVKzdQuiwD2s3Ulbx3xBwnSr9VvIhJAU5k5bcghbsk3qUitLpwbxPNd0X3yWLd9I+T2lMhTd5IL+kkysqc2q93hpGwgM5itqmL+3ks3cY6mIoLNnCkHdmj751Ac77WXHtI3mWXzrYx+SczoR+7BuYzFx5BPsDQnGwCgB0vrF/Ao4OUD1Hd8MJZ/9xfMpnRrhoqjkEua3laXkpKz2n3giZIQzxKzw242Hkdug2oIOgEBKoUU8FcOvmc+s2M+F7DgE7xOY48sSpDAcMc+N5DfznPexTyCt0kg+XiBbnpbGkjTt8QG5YvbrRaIta2gQZnZh1IgXHAETEDUbF1St/Qieh9yobGCnCkYMCDbcP0yjAvscHwTtuWx5LrXnt0NE0CA/ecM6q1U/EBwhRyhB3RfYmqBufMZE3ipCkTy2UixBkQdLYbSPFaXt34kc+EpfITCw11L8GnUV/6OT7UAJqz4hJnKAbyrv3xgdKcbqt6RPxrKdQvyqJr0e73g8qb4skZnCLaIquuYbTY4sCw+WbHSaXaPsV0jIOXArl2aaD2a3BA+z2DvHaBI1Yyqnyp+9Tkx01FDPQ3BxVP8C8eca6rFwaloqOA2GJvy+EA+GI9g0N6PiEQdpESzuwbV+rMa9dYSPljWUtp0e1aQ0S7JCe8KO4cIBUWjQ8aBCG+A+wPxf8BVWLP1WgidOiYVWfFG684UyVp7o0y7sRevtZaEfwYggyx6g/5u5Tbl/Z3nDVfxrBQKcUzhd+BAo0L/bzNZ/wq4NjGuublL638niZgjzeefue3QcpfsvITTLcLpO9DzkJMk2G6N6oCcILddjOzGzLXYovGTYmv4zlLOahYAl5cDoPZqob5rBsEAT/68KZuybTY6/WNQK1coCl8+XbOsRiMjyjXCrAX07sJVhdxSCI8vxRbxsA/QzEpDGJv9yNG/16md6XQUklTLZhfBXRJF+9esriWAxKdythDn1jdx6SWHd3vn2LYnAMezXrxOW84cNzoMpyjgBhKUBco8nSKnzpatlChsWrFQ9DfAhEfraoPvOvuwYUg7E+djxGZeO0DdVfADKP5xtGeNhTEO4Agd/kIHI+ywcHe582qRm7X1FvBT4UcVArDgMyhwIHzRZ8HLeqaw0Ojrp5E6Pbq9hU/TJaVcE8FtYiM8I5wwM+nLNOw1aYgkPGUTB2HoNe4nzTraGpoP2Bm5MzBNpWQoLfeBpxo8b31ym+t7kNnwBN3wR+BDemf9R0+aGTFXxUiSKGWRJO4RHwAyboKb8hgV4sU76gct+Fm9/3yKDkqPLz9hsOke13hUgeWD2Be3Npa6akn6a3ebBbrZGTdFmRllL7uQnWmBV39gbqT9AWiQm6nhs3DekL6zz0rPmNmmP/AqbJoCkYZLieAeNkNcY+P4NEG/V7aba4wjL+DdewAmpGZlMK6SZMMQLyvJEkvYxONZFxfd3qfEMnsCIzcBxnLKOZHRKol26Sjy42/mLVHHHG7WJ4krvym+XQE66xI0DBV1CoMyJW7JOoc+lbNxFdS9K5U18FWZTeeBW3NilPptT2ovc/QUNrFFnstF0zAwFOAFYr0SpVKFBO4b146ff5ejmsLbN3Q8Ybm/GqLHeoacbtp0VCuDFCh7djR8+Ts8dw6dhx6lF50htVqcEJz/T6DuvPnlhcyk3rt0cUTVaobqOhxmLOwRLFZ8KvHIt7DFqOUc7WnQH54ff4+Yi1L8MoItQdyQMa6aBZaoqNqVYJpSYmq3A6XWqb0onNqspZRvjPGUysqEtMhWALDoLqdT95gO3Jf7cbwB1T51NvkOm4f2WKBYNOVt+p4hu7yA7Xok77BuPpS+itiJLkiJJ8Ue9LBaNED1RUSicQQuv9G05FgLoNqXG9Rtzumr1RrjK+Q9Q3PVGReuTSe/+1epFz9JWAbHB/ZrfekvzIpmJx2Y17fTeUmLT7CEUWkHKGymoktDuRoQBySjQ8aBCKyA+wPxppnG04QN4XPZzN0Zu3Ij+8RBnrDw+CfCdP6wJCMg6rb+u1WnOx4JE9NPPD2i5BFbsGg10tB6G18i3VUmbWkNbsX6c0T8Y9DRb16feOhvc4FqqGfkgGVmJ0o2mOAJTp9hx2xc2lnRww/4jrNEZb931DkEzCGAfRTLq/M7M5GqwkHHlUfhyeShzjk/k3pmFJ6gZvqAm00hce16gXxojLUp62TLa5d0bjk8RtWnispNmdE/eMOJtg2jxsDKwI1+rlaAj2daPlq0lGemqsz9WFww+Cm9SYLFt5+o3X/I+53nKut9Dupo3Vdc9mafZj79mC83siUpocJGLSU6tjoDdwHia9tstLHgKVudJb0eDteGFvxUhnacLiLFJBp0IRpK41iYIumiiDc3VlrlMcDTrjtmIVVJDsLQf5dhwrxR+mf3E/F8eWDJFPU2YxkQJ9rzbYD/lKyd5je0S1UlEGhWiyKjf0aEvCaVFJ34pdbMENgpDCqbAI2qdxi/FZLRAVRlA137LPsDhbJkuHS1fqmdFcOJiBLEGnJQz0ILVhVVpGKDXe4jfNamFmLfrzfxeV5TmT38jlpBbWYX/Oew/NKpIQYZKHZKEp6vcQmSgD/TBlE/ne4Dr61z/wGkZQqWVwOyi6KRZtTojzJx1v3wDsTsSP3Bdt1mPQMv+EM7e7PkPzOTrwwG9ctwAKIcMZiCbIonLrJy7VKllS0zJyLZgB+QjY1nir6zZ3L9WUV6qKQb0guGGOm+9WyDb9N9Wb1T31gBDORyhX0+yaqqORvyCLk43Cny3XokqpjqXJAzWt3SvwVCHiJgHpFaQxkqSKWbjTm5l4Qck2Psq0cumZEQgSEl6fca8X09J0w5Rh1qqtK83kA6M9UAVpdv4wICcu/3mYT8pQwGkppo4Rdv++Hgv67THy4yKy7fsmKuQDt8jUxh6V8epPQ/esfr1oVnn58pGOxhA8SQTqocDtx/YTsPkv7y8nfTvX+qhOlBv91WaeWklDGUO0x53isKWrL4tQEiV2y/kjM5UNEGTzY320xjrXG5+/0LvlxRXZyj1GukL3SBsb2KA2w9p2AR9MSyOFRL5MCzocoFSTxIBSmVTeb0Yv+dwJKj1+Wd8JN95XJMWin54hcZdNg5JxWSZaavGEYxome5jpvMWWDS4W861UlxiPwr2YH0DVQIYLwz9VAGaBI9KCQb/xt1nhc871Wt3jYK0tzh959yAJDKZDQdq3VT4jgAwZqZSanIFunzda5wZNIgPSt1NVOTUglt8a2nZiJxOo1YdySjQ8aBCOeA+wPwVq/9ZImzeJvWdi72zItI0vXlTYH40ZW9EzqHzMhiqi4jmfhhWd6zW4OPHznu/dk/du/myU4XpclXZv54tLZhTLRfh4BqMj+T1cBltXVhUlRINvYpaRkdF4KQtkP8hh4xqJZZonLGp/bD4xfDXoVn0EveA4r6RE3VzHFV3IIe4rI5Y14+sZpUh6/IC7rHfz6qj+OiYsDzP29YhNwjtwM50A4i3/Xm+9vT6pGj5RFRtMQMVdzr6Ub8Gn/WR5svdUdQS7v3wWrxl/FF0zXfqLE+zh48t9Zklgn+DISi3itDqotZNEdeMFDsM0eiCgu98+F6ImfDDjHrGy2XFHNVegn9AXn664GNNa+3yKL8Y1wACgAxvz6oWFYrkJTyQ6WYS8hLTnP1C0WhiOADhLkABsoevHPLPZtfQLozYXrzwHCHIvBWZfnJnVVgXYyqFRz+05fvZrIW9IjzkeSo7Q+zlR/H7r3rv3iYYGy2EcCUAXi0tWWNRF7yGyHORsY69xzdNvys1x+/4WrGB+41VcHtatI/ujmvRS59hBBlIFHXwW3MPvKbst86SXXgHEC1OiMSEH5Or00gj8aBd8fjR5ITQKuUuV9rnihoDgyqA6vTksm67V86PzU7AxRq+KwKTc1bKheA4axIqNgU1Rf+o5vwBbgBUy34/Aafhc8AppfBRoTRzx+R+Ojt3xOVXq+LCkuwlxTgOXNQda/tKTDOvOSzvNG4ozh8+IfdASP+I5TwIjG9NkupNoUzy1ddmD7JLsnFdd+k6LlsgV2tNUHXeJC56PPh27NTwK0sJyoXGhX2i8jRXGrrUh/oU7GQ7DV9P9ox0MUwMoYJ2phvwMCydXY22pch8XJjh1CdOZEnEpPUl3JEdWGG5iRdIPS+tl1R+tPs5TASwLsvZsxUuytLZS2Nm6OG2bttnPms45Wige7iULHc7iNSzOBctXwi1Jn156SkCeYoxCh9Zd9qZ8e+6PQ26Ihvns8R1MJVHENV/OQTeCAZhyBK0p0W8r36MFwU3pkp/8c+HnmNLKrRAfQQ5oXnRsd6ngHmt9XCsDDkwPZ1XL57izfIhYQHfI1uBKdNlQd1huCAh1WMURpzsTCa3h7ULWkBHiqxHDas9rcdH5etBh2aXKzkEYrRB5Tvpy6Pc8t+7FvWzT+OIoEa7wDjCRTnOJh2V2UJrCbRqo9vTnlWNkIaKqtonrV/XYc9KL0oU3jH1iJRFn5eTX38/Z/gxdE5fAlfIuxYZoDKtB1t05I9H9WuNSZDPlahEIGZNxYy94E2ZyWjQ8aBCSSA+wPwaeDjlOSca5F55acF172fG/HHeoI5ubol79lNMpFlX2s1a4oAbOnKfatK2iEwZUHkXghucMi+Pw9N3nPAxFgRUN79Pjb6J60a0Kk/+dovhLeLBJUwKry+xI2xRehLZyE24jlq0k4u0TzUcjZUnIdFCRsW75EhPj/E2nYQG+0uB0Fq0oDnxVJMIysRYdX0wBghCsIPkTv1e/B4qqXtkap2baxCxHPReeJLqrk4kczCWvEJSsxrnpZv6BXzjzowRl64ch3M2tmLq6husSZycGFYKGy6YeQpTZJe2+Boo+A+UokhSggjgWzSuIPpfgjPPuVB3gacia+4CAevAQQC9N/Od0J6WT/OiO/jTIbHG8tPL/BQRNTkhXccj5P1vIcxb1cnceDEHl/EMO/ct5CCSPHSrSXRLUZBtgbFzH4YHzAnGvF0ZXEgPZSiK9Rn9ATbcD61M6q4h9kN3u3pzyTksqtjK4281i6JKBIn6qXRP3Xw/haHTRS2LV7SSNb2PEAdy6WqZU1NqLxrinHvqIj/oLdkPIEa/T9LoTRZqSrWc51L9q4TtybivlemvbLpLWUmpoANu8HPS1d9R+UWG5gFbPbddJo06bm05rxxCcvzTrLLfrAoerUH/BLlxxye98i6gNKLD7KJFXKri6TKPDhBqRqiRh5mNJszzi+CGeE23AUYHbhF7CO4icUFQhk98lvL3P7QchoET6ZuUe7xnKXLq4dlXhZ6WvfdgAlLTPWQnr/TquLu2FG7/sNrx+Xjnnl/ISXe0heMhE4vRRTv0aiq/of1m/oAIl2yeaCLsBFdOjfu8Umws8UMFzZoq+6mda2npG9wZlck9pBcy2Yd5GXdV+ca8FbuguKA0cLrEpMTdr3qtF92TQANmgoTDng7nihTA1qwQj7YdnZSuRBe7dJrlfkO0W6Vv5R3G5AzLcCkLYO5BXbWoF15BoBFCMcRHN33nKneNiBRh8K+kRIa3MGREZUF/UCRE/9Xm1bPGFevAP98PR+Qv1Tby/KJHZv+d9feR21yYNFehv8ZYtP6W7dk5A5OoGhok1PPxJ2VXc0EUYW6mSWj9hArvGrFkGtwyn5KEkO89Bz0N4PPBz0oXwotfD38q541vdcR3ckursarAPRJD4cgJTQjuCeP0it2otPRoDj42jsMnlLvpBB/PVfkqYNK1MyLjpw3pCHhtAD4yD21RG4y3dGfm1JGe/psp0u2bo3Xqz4oF3kBNG5p6QcJF9/CPM2CHefj1PB+fpE1mWiPVnWOmvmm2V6J1NLlHO0MByOjQ8aBCWCA+wPwVWfZIZBrXIuBc9hDClfhlm8bFLaxlmgghwYDz5UZiJLIvi2Ae2sZZNLWmR3v8A5kTrbnxGFjJAX9TwvORiWV7IR+hsl0Nugvhwa0ojUd4Ez2UmqD1SU09QyWwNnLSSsNN+qOauZ78ZDjE8BuQm4EVqPaefL/zNuRBfgWFk0SSfOhlDm1QKDFeSTlfNeqXQQrkWax8HyPHBJIak9Fa4vsibnLezytnD33jJ8cSvqyJP9N7zczczFiVzAVL4Yp8mAfZfYiyNBOci32pSUThmemY5+Dar2A6dfcLoODX2H6uk3IssB3nYiDvVmHMt8P+enrfq+4ch0Aru7YC54CwGQBUZZvIfC0uxl4HPL6v97k/jR6CNEUB8lBCsOVJ6GtqHDWAl96thaqspZTFiQ2kCZ3YuORQCo3c5hrX3uSA3+XMfGBA7qekW27TD2iglNcbrAZFx7CxdErkjRVs7ls9gxAcrs+FoBCMH4J1Zd3JvGmgIVZlk5iJ0t+c5pz1Kvb1CS4R5PIY/q4D8GS4wcqXSWb0+27+XtNwryc+eZC4GvjMNiFrvdBq7iXxDroEqiZvWwJ/db1zPZ+2RcHb7rJIAe4pWzfS3rAEa/eIFQ0ZW9jUJ3pN+M4Anf+fw/Q4ihGyUo7V5Ilm1z87zmKTONNcslhA3W+A1Qga0oi6CWHLFt5uMIo9O4hkbLYsNOOzw+x/ZIeR+KjLkPBcD9ix4c62LEuDXV+XqmYM+Ui5c4oEU3Bd8xi+ioQaEI+qC83F0Ppc1t7xfYWw8qJJl1yKnfEHqhzzl4WFFKdLvtzSkmcVxZ/bAjD/fb9zhgMQRWb31kuupRiMixUERh8vI52oHPPcWcf8aPqzen71snhCM8f1zCSIZ/QBlMI0OJv5pdD3piNPeXmIynNfaiWqZSIcV6bFONbGwI84TUsvt2Z0H46Q3ANlQJbCR76UqRq82LxzXcFsI4AKWNkZTHrbgQWSA8Z91OZZ990VZTLh16QvQpfpH9Wh2E/YR3Nic9Y9EIAV7Vd2FSKZFCGRVe+08drqVcWaUF0z2/FUXYAUit7f91NcedpbTnrtt63bzoKSxg6D9A1vwhJhIuODWF/rVbWqb7KdgsU9qB4TF/nIBUgGCWB0DvmuiwK/wS+UVvghq/rkwpDNzQZKgGVB1hMuASnnexFxT3Tik7htRdvWmwcbelG+2lZHxK2Kz0StwbjWyBzkBJdjUeGFjtQv0FQLdaXoU+gtDtk2H36kUKBZZ8zDMx9649XimEu+Y2rkL9E4+5Mc26U90KjQ8aBCZyA+wPwVLIOLZcic/3OmT2qIFesxPbcBP0IsTLjj+jISs/LAT+IUE/jsvRMIYbdJp9NkSSUCIDJGk6ckr9gZhT7jXIxs8+hZi9nWZxVloEnnoN64AXWT5eVTqMqb5r4R63sPtrtD0dmOU8Bmgv9yAjYfI0SMzspEgqRMZmfnjENHpA+EJwt0/AnLzu1K3x2JwrklB+H68p2HSx7CHpmzmwY2ZsdDYj8yjwXjlOjMP8ayKxZovoXlv5VloOrQtb7QQa33ivb5728uubkGoOTJeqGYIjHzsRpQzIElEwTJtSr4hGIedlugr3qIPd2eXCdVU2Qqo2zh39xMkcgEAG7Al2eXg1zI3ub5msM+tEGEDJn66PKBt6S62N28yToROTUov0S01XjUuG9p2SGlTt4zVz0CIs7TkSgF3tYbqtWKzo2Qt8VAvBSSqAaf9QCYrelzrmuOZ8ku3gA4w8AiUF+yHnb4TnuD2TQpGKJX0bmT1uy+l9s7nZX34KJhFBmSjAnSykMfG1aVWwf8iECx6wPkwawAYxPKRCnxjIOZQlg3Uq/ezKSrRFwTAVRi4P4qGN0HxBekfTRXkbxucTANjjCNrAFzqEuFAKeUPofkc/uN06qC1FfkqkvQlwkF7iePqh9gUcxvTreniBan2F0RmN8O5GEaNCJqdAX0QwUF76r5CeCt3Fh+DpM7gX/HFx/aTfKzBHHTkyOaVKpreHy6+eWsdQBzJrH0PQVvwsVFAyv4vtuq0L9p1SRuqH9pNDQKWMlkjRaCLZrwyOGpa++rlNNN9fXHhnQkOrhMRODNpkUtxhz9ygaxOFx3fMBFFzZWFtTND0xhN+PtFr4v99xt1OVWNBYi4Ub8FSHdyj+vr4+ND0rHOD4d2Ov6HoxjuBTiLPpsN5hJtqkpr4KrbrnTOrZ5d3WfWsr+0fnAC210mQuExhFJatVh2BL6bL00NgreXUOhwQKdcdZ2yQYq8W2XwthN363SKESaw75riuyu99sCqLj7kuaHjjdGBxOWZ5Rrvd61pdWrG7hTIplfDfMdEP3I/eBokIe1ROOUhJepIUczONwaRm4i71vqOivUBfrPvl8OglFOT/B+DpoYVedVfTnstqIXfXWnSr4IFzsuqUXt8fXyMV2ehMcv57BXv8xceuSx4IzfbOJ5rV2g7hxcF9iPIkavQxU6VyKn3GIf6uTS/NecfwH/IzOmyWvAww8z9AYwQPVS6LzYVNzYQQmKAFioocfbw1iKUpIkMzP1BohjY2QbGnrH1Dy5QggsV26Ly5cHeWaFSyjQ8aBCdeA+wPwBTG3qaf9Dn98khn0SYKdnHgzNfg3gqSWSmtnWhvOLXQd+1pX5K0U5ru2g24JoDYPVjTSC/KXBfoLTYIh06p2s57ti97mcqglnWb9hRBg9PE4sYNfVSJu7EUqghfmU9sF8FhMvTfD6SXHx308tSrjHiomxVDNHRoPaPBKcWKnHbqkhjfBMV7mxgFlS3UoBm6L0eDXKSmoP9nFkzePtrbgfUxfKV37y30ZFA1PeDFsEpmJS6ye/oSsNyFZjIceNlm/T0r/iAIGo2ch4sgnBY2Oro5kfBllpNdrMT7auNFGL5zNYSADPrdzIoy3utnl54QJHYBSqFJckTHnJlEnv98EvSjeOPVEsJlm3CPwDWYJL6uuES+3BHTvY093/gZQ4wegV21r/mywGVtSA88bJqIglGvcYxrJXrlznCYlt2gFNfBUsNtk6lIr8yN+weKC3Z1ULsO+DZ53f4tgh77v8Tk4NitGzIlEm4xfbNpyn0bNZL3fz5GWaMrc+y/xnQybI+ZyDEL3pOwx/kZWlicJ919/0vTTGloafqpqHAeKofpz5evKOcZ1DpCk3DFgMuDDzpUDZGcAnR26k1tNfECI7SGGHFu1uH/rORuDKgDYcF5QjKaNabqNJoMaX7YP2qrh0rZ5olzrrWIGuV9Sj4s2VTUCpgYrhCIk0WWwYfe4LbevrW8UvCRpp8Z4PS1ECm3QMD9qoppzvMb/3dII3P+Hrnqfkf038HdKf3t9759ur4UUgiGm+Wli8gwc4fvlssbTk+9SBRfJBZ0KQf5XpU6+ZWDwgAJGn4HkFJAYW+UowbnIVX9VlTaeq/R3YUJb69ufIn9X2rVXvQ5ytLTzESK8JYUh8FCQqqz4MTZz5YcVodLj/QMtVsISrgPxcAgLC3dMy3T8DsTJ4DrhnauQ/+aHwKiYCm3QoX5t4anwsIe4G9k6uF3TIJk3VoCiSl6eZfQBa/5OYv3Ylb2MRJ7BiN/z1R8PCOez0rlVI7z3za+7C5ttCAImutaqJ4Zk803u5BlO9WyZnBX1EFVSp5zUPJ0RLsPpyOVNgEZykleZU4NeWHHbG8ZOccbEZEwqwVA3eQ0QGG846gfje5wkdFiEstMYBFZFz3sHWTLmnbllz5+FK4jZLkoAe4ux76SYMxWdwa7RZVH5MLPJLfYTaTjPy4esYNzB7S/lRbahqNLXOUWSIXJO+TjRj9U22+t0igN5JHJ2tymIqu3qF/vyS9+Qn/b9wmS+BN8ZOHDaNJtBj4ipXOjwq9gsgC3CaZBmOb+qKl8mhQWjQ82BChSA+4P/EfwR8Gk24iJqXTvPMsd2U/AsqqhnP1Ha03BGruxgTwhquBmXqVUafKFSLy6WxL/JjRuRyF/kK6gQbLTqJRlZAob+FVi9VME33YuhL1BTjynpNUvLO/Da7+1NOxDBgT23v4oce9WeP1ooET5CZyZBO8xqIg4ug9MJLAWBG6M2ClMCZ/6Xuyeyh+Lw+LYfTSsgLb+QcWVjfy2s7Spg4ByJkl/E7Uv9WF85WcXt0f3TRY9HXUzpfz1wZo9VOW+y2zVyl/gLJxfy6aR7wXKCLwLDeDwcAiw+IXu79gc3YWXKqDSq0osvPsNCBQYDDz0qXHj/D0CBjBzY94ZVhomA/yYj/cVWmurwvPeUiaVxYu7Acogedn3iCZ/4lMhWX+mBPrQc4CHYhSwRjtSX6X1jLZmxfvMxjYG5+PfWWWd/kJvVHb0ecd8/FQ3wWxdRkfR+bWzzYWe7ektXq7G0VOsAscxtD3K5P3KRHd9RawxfbgxLH95WlLnU6h1hGovuVwSZxcvWvQ5tgQVPsTUvBM9J9Opm2AEL/ZdJoCa+r2MLIaCec34sTzQydL4rTdMGt9sfXpbC+xgvfS+Oe/wN+VOy4ANGtKQhHifs5mwzlhqTRmVsN9qtG2d5LUE+zS4DSefqGGKnnB4piOlrHSOg5z4Dp/C04oSGGlWUuKc+Lkj5APIQ8FJ/G4r22agmn2MxHhd8bGGmAVTy5Uh32x89U+AlQdetx08i/IKMsWlph/Rx1begkYq6I1ydxBxDOBcA+QzTkxsuylyNZBn5vBlK1Q7ozJgiodC9QlBCaeE2GOXcvE2xKDMWaFDsy9v8DPOkvggwJ3xzSuyuuVXCWz0sGfkIXMSSuqYqSzmHJfBQI574leD8FZTiBmyqod1wXboO0rPmae8YcSQceTKDSbPwqcVXU8wdIlKl7ZCIvvMPnSeR7TpYW8MCA/o4VZXf7LDrDFh5grrVNyQ1gu59NnJSxw8svx+s6UUEp4g4HFFI8WttPnJnmqMpIU78heConAdLE9v291LnmY78NdQMHPIhk9Tfu6qIbJFUAp34gMsmpHwaUYK1RAEflj6OtqJ4sQU9Ca+NEMnR8htq300PhiX/gmn2saNtdnFvGSrR3Hu0fQb6NLmQholqJ75rFTCGzdfzr4L8zpZqin4oGv5XXb5fdbEAJgRgAks7vI1p2w8aRY+LpZkcfb78cnTxX0Uhwyp+oqE0U2sRCVwHTNV3COZvcTJlLARBiGTzeO26IXGwOWRThxhh1xjUbOykuh0xTeLD1vmAnWN3n01UjoUao0PHgQpPgPuD/hD/EPBQLXnk4NVtfzMhqygGJWIdJU4F7Ti7NkJ6yTrnWmaiDg2L0jpHTI4ovouMdao3jsv21YBsSXGCdPGm7D8nbySkqd/3v5PK7nkhQsmvlSY5SoJ30uMmJliWcjMznoeslggBJDduDT+gGPROESwu4+Cm25BEjc61mYRxElgWaD8TXgmIsJDZ7ysK4MhxeyfXJMCOWxMawZ6TcMQZ8SJhkCQFnjNDjU8PywfC+5RuC+7wDDAy3vrV0lU8ZEVOyC2J+oxgY1jWY2/j8z/v7AJ/lR9KmVsueJNwh2L/HhB//tRPo9WUFb7bqYCRl8zps60jhA/jhP+MDOQVYedN5DG0ijIVYPp2BNHD40/6CpRg+b3pvJ2xw+zKRo/1bY425xDP8cMh5oRiqKSyI+nPxfQ1UuIJBZkc/absnPlLXhAlAPF96Z/zImFhGwxv3a9adlio3i7O3hMNeZ/aRq3NHTW7TrCepAPuQfR1HIxRzX0PV09+7oCV0A132VVBWcjklGoZCs0M253JW+A6lFpic8c4BkKN9FS1k4fT1zfZBohfFt2o6DCzLt1aBQ4NwyU4ZA86w/TyVo98n5GT8kEgNFeJ4J5afabJa83wwa42tOYLWJPsIF1X9cFDYOh1XgjyjyJeJlNu4sKFMbehUeWh3C24o5nA3D39DKXbf/24j3WGC5LOEapUs8bNdds8XulSqrPg9X8f5oLL9zjL4TxwiL6o6ftML4/AksCVCO5H8wVT7ebsgRKqJ5pVThFdl5uWc830/ogB0Awj5hvL7cuTM+b/6obuPqRydaVcyChjdat7urQ27sh8PBdYEbgYwHjGAS43/pvPSU12keC/RP9rdRnwT5u5Bx7BDGA8Qpa95iygDIsubK7VHKj+AF8RIayQzcCq7Lief7hg+3IsJgt/GSxBNqRCoKfw/qqkVbk80EzrInYGrUzWYCZRt+q0wQs1aWwNjvk1Im+50lELQffMbXluSwNRmx8nRDwVvFpX1a9rXJVpROeZv/jWTx0Pme96SR4MZ/HH27cMUQZ2w7HwuXrrfqSUGOdG36Pm3jcw+/oPZWchV8HTgeFPJLEn2w4yBzMLCk6kS0gN6NEgMCSuBtz+gJOOTvh9YnuuQjKzpYV0RuFTTiOIwZNtwiS5eHvTk92/ked5/mm6kBsZ+Py0xRRpw362e79lOKdo/ffiL9lNkzIz/WyI5WbUf1TeJgGgxGFwB/6i9sGhS1DGTZiSO00pbUxfItM4a2sU52vu5yuFGicS20YQoMpEOuErpGAFKKNDxoEKi4D7A/BWjoq3WpMySX5kHijdDhC5GguFX5W+joQntpyrSZMmWgIC07MBA98PNPGvGlLs+/ixluRZJQr4DbzwDGLjCB/tbFMLuDjVumC3430dTzg/GA4JxNHvEq2i8PrFHg37Had8I4aT7Zxlp5KS6H7E3WhgNFg3G+78/RN3ABnIWGrAmwgiMswYWYvfMpTzWZugo1qsnVfbNRZB29PFZW2Qz24MNHzt8dShQM2J2YjFWln0JggHzYexixSn+2RTr5ZIlIBF+yfcy3y94EKPoxvBbO1S2RASWy3mXrny2oR3wzQQ1wm18oMAu5R45hkLJwUjBo4F/L7NhsyYrZxLVlSBEbq8OfeJWaJN71ALsZFguejz+1O5i+TuvaAuRvCIxVsAPuua1SDswWttnINVDbaNirGsPPwbMQ4+toPaxK46/pUg8XRQorWrDbuL9B1nYoq2xb6SLVZ5v56H7mYcRherTeTt5jdT0EzB2GOXfiot3/bMEB6f24onCd+fHzIJGIPbo6I834APQT5f0IxHqcU7aCiOYPwPfHSd7jxrZV5wS3rgsQJleec2MZnVRL0vuGhSZdEvRixUSDe8uEK5jzP/vjsmP8N5Xw5DFsuPMnlVTaAii03Neq73xQCcSp4UNIy1mguu916ECf+mu4NAjMjSvucVaNeuPp5pnYKa4wCVl36dxp24gDoxa2KlfvZ+qJa+8uFA58ClHkFraFjnOCcd2QtCYLcovHf+1zpKclaqspk11QuGZsdcdO2DC0lWN1xOxGIxr8nm2yGdkgDg5c7Rchy5zyDWUR8rIGJytsccPPlNDPzCZd9Ej85UWNstQHPPMBDstFQqKX1Hdyhn2vSmdRvwVWf269ZwxrxS2dQh/5e9uATyT243wZGOvk/sRGsCxqOxvIK0Kj/f5TmG4ROOPWFXxL3cRBh5TfPpSeNGoQ21+EAZmYQjiaOLMX5/z89IIAb67Umt0TUu9HGlyb0RYzL6B2BBlPw2T2I681JgGJ7bWjcS1mRu0YGaBSeigfptBWSv8dMx8hlFYpiBmwa+ydSfR6uS3ezMvDjgqD27lk5DuYBSkrdN6DMRHBkX3oBwiRZdSE4aHD3DjAfm2xLjm+gBhZGuSwc9ai8tGtbLni+zZla9Vxl672tcBOedM3TKf8E9ApxGzH7fx3gN75t7sf5/QGtccaHEExI9G4IM0IItANJB3K4vpbsHykYTwSRGaEDZCtzrqRIcu1JiBAFGsnVKg53CCRouo/P3VJs+LrPO9BnkagEfT9c2XBIgI8yFM6NDxoEKx4D7A/Gh4X3BQB4qltZVyn6zXrZOEYXXnbYGK8st3CIbpsJahGvtvRlBPS7reJPt1X816ZAnnoWHAQNzXW/kWPGvdWD3d2+9S+P9XPGSpsCVTFeXzGUo/QnG6aLeshjzAQGYoWwbCCtmFqmiZHMFaHyy0j+DA1eA5+T88MreknrxAos+SGFJSsJKYFh2eFSAYlIN3SKf+qWWTT8zwIPsMkfmU7rYDPEe0xo6/i977hXiM3kooKEdqY1qTwlC2R9Nv/4GvuwNNDhfNdjNObOGXuhyW/iZ09WTFEINjJLo04HG/PPKSJIv1YkipIYDpJHvsosACKfFzyLuvdlEQazLaR6fGG2GhWems/Tjua6W5caJEKB309v3Syod46fNSf2jzc3luPnkjoKqmBunI06DeUlCNzHyBuadp4E+WNQ4RvOai3Ue8FF5/zwHLZYtk/grcZ2zao63YP06giuvckGr43jhlEL17ujq03BTftiENG6GiFpGf4Xd02ME6Tx958GkjTLzEaXcR8dnggevsHqLCa4K0Icb/7ewhCHU49OrNTImZQ5xh0Fs7y+NNV5u2ld1hbGhv0TpGTHp/OF8mZQ6sceekKLSHBIdjeYFBlVpmBN0ZaFT/O/VWrPwQR09eGEmmIpKvjjNL1FmctclMnyIdAInHsmHixRtnuD5WYy2oRE3dlX1nafRsrhZ6v2brEEENLj2qpDvS5j4h4uFKrAm0eEdJ/PSTbFyh+RXPNtxHyU0W2qi0LfaSAYHyZrxbq/FlNlfwUZW+4j9Biqp10D3v3W/dK1qec5vFWtOblm1SJohyvcUHrHCdK7pWjFP6fPn5ttxbwghqyVDR2yFLkFxcafDlRPwUkZECVU+Tu+2A7UtWJdsv1v+bU9BH22MZLWkTkM/wBue4gQo4VCPkFy/0fmKVcPpTtoflRueW0ftXSeY7bSFffMnedaiGIp1qjyX+0vtixM5oatFrAbM6Avs+TSCzIG+Tpoj3H5OdTbHx7fJ6Dh+RTIC66aV1XFvfMJuFKAG55obo1+3Zf1t4vPcX4YtclrQRocmA3JlJWQVtWwbcj8mZ6+fETTTm/rVJ9VhJSOPMg7lYSoAkn12UtzyybRqUiR6tIMKMhEH8ReUi47iLdK1AUVn+EpBpRqYfVbDJcDKdpAX7sqDkDgRJkYR+jaZaLTPXLIn1YyIsKaohbZ7HbOrlb/JfaBOebX6Ez5VEv+P8dZv0sQcDWtCJUNs542VkkRT8MagKn1pXRdC5Rv32urzcdHioZpYbYhzjdpaMsKFKaNDxoELBID7A/BQTU4kUGj4dssyvbpL2HlT7jCteeHPmGnYUeaeggIVwHTARWoPSUQTD6VLY2P98gj9TVRkYmhUp9T9cTTCuvJ+LTo10IhXRqFVU7GYS0Ph4K4Bk7u58UJUS2SaQ0NRSI9nlgsYUg8MiTC6Hzr+96Pmb2E6xH9FXq4GDXDRZ3RayzyCJUgyaGUcJwrf5meTL5VzGGmEBwA9ZBvWQBAquXsBeO1t2ZIJvqO3M1Pk1k5j5Lf0w9u0qBqmeqfi8DHyOYakw0bJrUsjeiFFD77YXhKbPh2Kl/pVISwOrwhjLX8dbTiqJb+/xBAGSbvX/imQRtwuXKFWGQ9CulFCvTQ3UiaRs4hfJ3pIusBj2RaaZ4eOL96y6spbOqEpy2zQg8cILNdn2RbwjVSGsObN/AvgNyA06aZDVo+A1k94Ye7WDgUZ8FSUg2zLGDznxzGEscU+ZWbc/Taki5mHyJ+RLxkU3TnHGCPXXxJysBC5Dge+CSEv+76DiwMaE+5QgGSZ8ShaDEFosBnkPcA1UUrxnrgl39Eskwdh0U08m5jrzqzCUEnGxxOqYomTxQycEGGtywbc0Sqqj4YhY2p9uBSz/IYJJC17nozRvGx39JhLS80G/ZjFmhFZxMwWxfj6OOWLpipvfmLg8djDtSioZhn/Hdibz9wqWtOeW5GPBU3UXr7bwOsyp5KGn05Axpa8rHuqX5wHq7y4tJ7k9fsFS7uwAUGze73/BHGotpiVO57KrDGy/dywAoaqaH/gp8uZJtMbMaOv1ivYC5edA8JZKL+E1rDdMQ7EfTKWoULJfSA+ubO6xxC45379AjFnIuWG12Rd3J6Cq0qL/h0BYE2ELNsYMJzeBQHxo9jdiv2R3aYYS1X8JnJ1z1cXBc75j03irEK/a6q7cRTmcT2Z8WeFW11nPTHpDGLuHCKmxtRxseFa1VjXGNFs5G2Cg8d+fhvPZcponLsMnyIjRcweWSAFy+rcbnqV8v8zaE0NIuPqHtyllg2T39qBk/xFGhilnIwGDfm6N7eg9NKFuMIJNwH6Y3KXM3IMSkfeB/AbblnaK8GQ9YzuiHi830EMSQjqo0VRE9iu3HzxDnXl8EUtw5TwTVtz028C2QSNGTJ77a6ofuUK2cMqKJN7dsoJEXlq2Plk3jL+KRrhLD8qjUushzXM8s4UuyNH78ZxRwLdZXlzdddBr0oCKTo4V7WDzNsUofjhcRB0ZkaJ+2ehLU10ZXNdxyZIRd769i8w4kHJsE07vJdwSaNHJnX5NNimnKEngIqb/WnDg5P1DaNDzYELQID7g/0R/BHwa7TupRX3eonjvjdMwvWo/WAZmjZWggRwEabguTv0X8T6QU5AAiaOxuZiqVKvMBcX4tCfevyr69SJ/i0DKH1JR0lQxPpwuoVPTBrpg18UTs0HU5lBR4n+K/SQwBr8kTcCjkZFtLJqW5bqeVaKzNf+6rzVZDFLTfq5kwKebChNAKYFO01/zZQkr+FG986I4gVDeSiAV2eoZN2ckMDn3spgG10cDYfXhbLKQtuM3amYyLki4PkzLZIWmIl0PY8MOfqLGmBCjE+AroUMdkq734XT65xFK9Ra2V+3g85ACSSHnKNU1pFk0eDlNqPiAPGHzkpJBJM/js2ws4qJetp90oBcDoYzVW/UsoIwcqpdBm81q9KDtxNRX5UyZh9EyNg2RQiw9WL2zabSR1Y4sM4lAVcGagwmI1RavtukoBsxkJHHFTrwVP88MyEJyFpnirIUxnXeh9kHbS6habnt2yxuRz2tRyyCJD3Vba/V4PXSwC6brX5hZ0HrwGRAOg0111UOeWwrtMFzFHANXn+G1vjyZ6fZ0y+eq8LACvPTu41112CEfBaQBQC47u33fA9v5VPMglJV6RuW7LBbQrrZEvVqi++mr+YrHIwxp9Cf0NExWq90mTxqPXnwfzSbaJkp+yuvsWUXSuEdhQ6qA2QngX0Hij59XjhhYojILXHpXiLxpsFxkdq8sTDBR45HVm+2C5UAxjKgdUPaFVtw/LK8uXGU4AQ6qQvftcez67eRDxvFl9vMBY88Km87iZNjz/bxNzyeOp666i/vc8ybCTB6ddPPuCtM99yx47sjmpkGtpHOE2lrcRuy531j1XSGasulQuMk5EUJCRd17VFIXplRnymulDsVHfBWzkYccFhY/W8x32hzPidgnI7hJWNQMq1XL0QY07VnzvSzRGchHrET3rYmm4kp18S1QVMX6zktrnjbGMlSpMSs68/p0F+bRGny5DZZ+yk8EJmH3GRYgFSA22f7cD0V1nP1uIR6ZWLEIfnvIQJLyU2eA4d1TK6NhnjZoFAaXQQLq+fFFuGgGnEwXR1S9kHxM3u8Et1GmZUvNu3g1aj2O6FLodwrw3L2+LFDK2KYht/ASTkOl4RRMGufSgH4LqWxLqd4Nlg+JlXsvAMEss/3E4yoAaOEdajzMtBJtZylrcKohgZzF6Vn/EixR6f3e8cdwAfOiSDTXu22UL5sv1eqiQyf3jaNmBBgvywkPZR8hY55XrvZ3Hn5YFLEXoTy1XQU16ONBNn6nyCpEPIOhQpnNbsg/x2DplXL7z/XpFmXX2lbBSSjQ8eBC3uA+4P/EP4Q8aKrBV4GAheXUSBvE365i7J7Bs1ts1o6Pxy09QQpv1UHlaqovQ03ZoN0dcrgIL2QqPF8Bf2lc7kiLouvEhStvFyV8apyWk1jBVV3I5wZ3kjge7c9TQbrYKYDafFe0tg73XLpFzfi5AZmiHcY9++b2upAHjB2OimSzOZZDQ8o/h5kU3fQl7u6hiQzhhCV1bi0Y4W1iotA/aszzP1dZZgAXSL17zhRHLD5AiCzXOEkHDS1KsONNRbmnGRRHg0PlTDq3iaxSpH/N50rT0kWBzFvIzactMc7YxfyJY/um9j5PqvLVrTyMirFklqBMK329n4btKv5hiX0FzocGUQrYsNt4FoffsmATpKEUjGETnurVOVkUDpf8R9v7rOD6vae9BOHdLN2oYSz4yyo8ML8kl7v//R94hNZf5lnj2vuSIP1JPF2yeWBI6Sogq9aewOCvcLIwpEILBepFL+UES0BmI9WdD/PXRZe/7DjtzVyREsGAE0pVx4EftpNC5s/bKAXhksZa/J4mnf4N++WAJELSRv3lNAkqFIMwhre8uiH09P1cpJ/MPV/tQL6XoJH8Xgv1QQBA1hCLbTycB8+uPRSinMpAurrep4x2q9EDhv561VJ9PhKhPPsp6IG+O6gizqXYaS9NrzBWC3Ke7wMJz3itgvWCfMkJiX20Z1cW6yHh3lEVpwzqOtWjJPjj2SsfO4XfvGTP1zEqTlpJ9+yi7+76T9jwNMDnsL8nvh4WFakbMBvl3NRKUyGpQDbLUZik4Djt2KuMVXtUd9MxQsH9z9SuH5PdVChXtUkOS3WVbBPMfNGeKbvxlY7RfqeDhYI2ID8LI14QDdgP5VL1zl+28R1HfBRe0b/xqAsdMkFYCjlOHBr0ZyKQBuKq1Q9+coH8AIPpi7lhz/7LC+tNwPyPS5xpgz3vSDLVbVaWHifoYl07kRF2lKwjJvxTsrGpOhU5GJDTWMSiwoDFLzkRnviRqzjqiu5bV9pPL7Ah99MpFSgNIofmUUSdvL6fVRQo/UU5WBZKLMRNA9yxK4qeKNimt2DxD30Gngu6MmQJlFMv6cJPxvDH1/GkCKUQQluIbV25EgnKY6WzKBENJTrflqKYD7n2EkVnxFD8kB2dS1F2pkvS/S3pXjkJKoF+vhsBqQ9Kfy/2mHdngwugBs9Bs1kquQYTKT7uqeb2Y5txm8m5sEjjV8UnVALIUNS+v5XghSem4Mc9siXuzhQLAkTmL4WWPh9Omkadh4PATgaZ4/i+eMoQnDLtbSDN0iQvINbxCF+gxURo0PGgQu4gPsD8FaUc2YMv8ORSMypf0f4sCpFRZTjIeMFaA9KPIrqHSxjLrPTW7TwDdF5ANQNBxXwAYDpFRr1meFXPtt4FszM1ju+8l0yoVJeQEri8OIIbendCjWXcOQ8wHP+7nq3i753ZNBG6uyJWbnnQsiMxx5MSeC2ADR5VarStZGVtIwbUkojjIpmbPYXDvUDtJUqYtzWE2Xwbpq+YLcTZuIACmDmAMCCgV1/uEG0w9IhIvCrNwi0xsniMu061wZzHhHkXd0zHOKpVyoKdnGi+KHgnx79a6cBhvx1T9yMYk1o4VOaQGDbCrq9jdil+FU4HHOf5+Ev+bTAi6dl0s9jPhntOXn9TdmmHcxPz3ZkGAKMvbfXBd/Ief7ojK47UtEbnaQsx6SvkMsCoRpYfxJTCPAUDYitJ3r2VBYSX121Y9LUloO+hQnwUkYBe5ZVvC2BfMRzqU8u60LmSlNkNQ/H6B8Ou4+/n28PMs0JBiPNlJ3uVhKBO/cujOk8D8iH/LsiBLUwnUlS/1iUp+zt0id+BrsVDzxqIspy/q0uOaHTqnF77XUtnQYESZ5W/FQbTK3QHiDiiwzOFV+6QoBYcm37o7w9BGz8UNRIhoPf/9eA6hRyRjUq1ABkByjcVT3TiOvohEFRZoFwlePGYqVJ/qUfR1x,,,,,,,,,,,,,,,,
