success,timeout,failed_images,failed_audio,failed_video,trial_type,trial_index,time_elapsed,internal_node_id,subject,audio_id,rt,device_id,view_history,stimulus,response,estimated_stimulus_onset
TRUE,FALSE,[],[],[],preload,0,3443,0.0-0.0,puweefsfd658k9k,puweefsfd658k9k-2024-04-14-17-17-57,,,,,,
TRUE,,,,,fullscreen,1,14363,0.0-1.0,puweefsfd658k9k,puweefsfd658k9k-2024-04-14-17-17-57,9905,,,,,
,,,,,initialize-microphone,2,22318,0.0-2.0,puweefsfd658k9k,puweefsfd658k9k-2024-04-14-17-17-57,,4f05d5552e7053d2fd2b6925debf0e4b4410a3f7eafa034b282fd57f2eef8c58,,,,
,,,,,instructions,3,31956,0.0-3.0,puweefsfd658k9k,puweefsfd658k9k-2024-04-14-17-17-57,9638,,"[{""page_index"":0,""viewing_time"":1336},{""page_index"":1,""viewing_time"":8302}]",,,
,,,,,image-button-response,4,36459,0.0-4.0-0.0,puweefsfd658k9k,puweefsfd658k9k-2024-04-14-17-17-57,null,,,images/instructions/movie_1.png,null,
,,,,,image-button-response,5,39162,0.0-4.0-1.0,puweefsfd658k9k,puweefsfd658k9k-2024-04-14-17-17-57,null,,,images/instructions/movie_1.png,null,
,,,,,image-button-response,6,40963,0.0-4.0-2.0,puweefsfd658k9k,puweefsfd658k9k-2024-04-14-17-17-57,null,,,[],null,
,,,,,image-button-response,7,45465,0.0-4.0-0.1,puweefsfd658k9k,puweefsfd658k9k-2024-04-14-17-17-57,null,,,images/instructions/movie_2.png,null,
,,,,,image-button-response,8,46403,0.0-4.0-1.1,puweefsfd658k9k,puweefsfd658k9k-2024-04-14-17-17-57,938,,,images/instructions/movie_2.png,0,
,,,,,image-button-response,9,48205,0.0-4.0-2.1,puweefsfd658k9k,puweefsfd658k9k-2024-04-14-17-17-57,null,,,[],null,
,,,,,image-button-response,10,52708,0.0-4.0-0.2,puweefsfd658k9k,puweefsfd658k9k-2024-04-14-17-17-57,null,,,images/instructions/movie_3.png,null,
,,,,,image-button-response,11,53453,0.0-4.0-1.2,puweefsfd658k9k,puweefsfd658k9k-2024-04-14-17-17-57,744,,,images/instructions/movie_3.png,0,
,,,,,image-button-response,12,55255,0.0-4.0-2.2,puweefsfd658k9k,puweefsfd658k9k-2024-04-14-17-17-57,null,,,[],null,
,,,,,image-button-response,13,59757,0.0-4.0-0.3,puweefsfd658k9k,puweefsfd658k9k-2024-04-14-17-17-57,null,,,images/instructions/movie_4.png,null,
,,,,,image-button-response,14,60566,0.0-4.0-1.3,puweefsfd658k9k,puweefsfd658k9k-2024-04-14-17-17-57,808,,,images/instructions/movie_4.png,0,
,,,,,image-button-response,15,62368,0.0-4.0-2.3,puweefsfd658k9k,puweefsfd658k9k-2024-04-14-17-17-57,null,,,[],null,
,,,,,instructions,16,67763,0.0-5.0,puweefsfd658k9k,puweefsfd658k9k-2024-04-14-17-17-57,5395,,"[{""page_index"":0,""viewing_time"":4265},{""page_index"":1,""viewing_time"":1130}]",,,
,,,,,html-audio-response,17,106606,0.0-6.0,puweefsfd658k9k,puweefsfd658k9k-2024-04-14-17-17-57,2261,,,"<span style=""color: red; font-size: 24px""> NOW RECORDING</span>
        <p>Please say out loud the list of the actions you saw. The actions can be said in any order.</p>",GkXfo59ChoEBQveBAULygQRC84EIQoKEd2VibUKHgQRChYECGFOAZwH/////////FUmpZpkq17GDD0JATYCGQ2hyb21lV0GGQ2hyb21lFlSua7+uvdeBAXPFh5cRezOt0kODgQKGhkFfT1BVU2Oik09wdXNIZWFkAQEAAIC7AAAAAADhjbWERzuAAJ+BAWJkgSAfQ7Z1Af/////////ngQCjRBuBAACA+4P+MvwKe/SFErTSVneqf46M1gauX/4+ZskNZtTrAjzDFDe4sjt5BGLIs+p9FxVRPIin5CadrHYcMrOMr9IqqOHz+c3d69toDX38SC0fz6cGHx7zuR/bd24p0M+Ap0/D+bBkKgw0idvrgdo04cMLL7SvjhaFUnHFVNv7Is1szWjbBRffI6nEKJ2myRe9y5mtGkejZQixMOlPMXH9P+VN5WsyZhs0tl/OQVwvQUkUqJcakcfJ72kvpCc+K/6/4dTEHyTJmqBxJrzeC++u3kfJyHJ6QbXIWgAAAAAAAAAHuj3mehop8TIY/E8p8GpshxR8PGhiVRJR8w40nQaV0ZzBPHuvPQL/pidlInfvYwObFAebtdH6csDgDMK9HtATcmXk/lAoqGSwhTheI1obtYjOqPsqIF23uHlFNlQZ/nEK0Q5XALNNIbv0JCvrS03HFeuKOR4hc1E7EKJhtLuo0i+TKK5AAgrUoPaox4awkHloWJI1K+6izVZ1P4a071wYOemmNcHCxWGGzyFKQszj3fgCxPIAYjqtZ5HPng/PihNxx5CEKtGX4WA2hIHlAyRbt4hAbSlKdfQ5MqNGtpMQBsMFdLVIW5SYz8HGdqFDY20kNzfLZSLcCr94Xvy8gmUxIMEZAuNSLXfLxUKh7RFxo37YE+MJM1TnXY6q6uzTqvMQ3N6qTKORz/qG3g0SR/P7GDZ+v6zFo/CRvbERDP2rV6E/UAZW6nqGvf6q/aAX7g55sT7Iq2rUi1oML1EEqXlQAOsknvGZ7m4CCcXCH3GNccr0E0G3HFvIQ5/Zk7Ex69f/Uj0EveVEcudn7HTEGACV4ZxrU2t0yG+OJV+8Xpkp8j3Ynm1r56meVuQSb/5eEYvckYrWnDRx48vhHdMCeXZyOWKZszlJIkXo8qtCtTPf9HHsTAkBk7NV41K8L6QfHUigYgZ09xTygxhkd1RdwoPsLsxE+Yo7bVF478JrAgWzu83BudwhwlTTS9lcofmZhbnA9exR06bHlpuJkF9qF6985Ik6gs9CNXBYtdGmAWrgstEiYyTx4wjkMmhxQhunzKYryte74MY6OG3COvOgCvHf1E04NJnhhoEQA7Xc7qwTz/tZr71KJhaZBDsLhFERgzyfvk9S8nrCJA6vO3p9X5inNwFQFsNAR2aVrnNhFW1A5EwfcgwhwCnF1YEzLwMb3gCEq0cXEvlrqZQM1wqAhxbDvBxrxFpB29V4EFKYIMOTvfK0FImWpldles1GDugI9XgctLaGOGKFn/p4EBIRoB701JxGdILDLyVX4eWb4xgpl3oyH3VyQTnoPSM+q/dm0T3Wd2tJAIzr3ba3ldmy1XtoWhFmgsrgLZF2XQHjpBNZ7Q8CPj8A4fRdARB+UJHvb69m2rTI8sG2U/Xko0OBgQA7gPuD/wr8C7F2DwKlNWhVo+A+b1cav6MVSxOS1fPd31VNjkZBjbFmBJR9HLW2QnUmxNz3cIPPUmLQgYWJRoV2IxIGp2yEr39OsqgJgkFA9HRHCNDM1l26s6f63PoJ4WMxDBltmaqd2DbGitCmOF9FtdpD6xn+6NKruES2o1MNhFeTY439bTQD+B0Wi7pEdsUomAYERiVym1WZOyv4abaGWxnF4yWRZJecZSSSqxoHHZj98ImZrQ3oNaktZ5lFqRPydJ795S4YoBtZ656b/KJ6/v8ts1PZ82ypnyCttaBPx9xYUYY/KTmzrglLzqLXzXBsJrmfzrS1kImKVcAYcXRYehjiPZJKirC0QVTGsmGz89VvJORCEF+xuo7ABZv34TNJUqG89mjSfz23xuXf9F1TDpW+Q4ryfXtjTWMN0gvGnxX9KtJcXTmSMiOCdfZEb8tmgSWbnL6trwuB1Bh8IddIMsoNtZYaoBFakoOQVWVhu9BPgbOFQWWvkRQJOrTA4AIIS3wABNTBSH/ecIcvOG5wbiTAOEjVdqil0Otkn4rl2NIX0CQmWhwLIKF2orcVDmOwQp2SyusInPQRr1zKeGYDxVYBF/my+5IOMSJp4HLt3aNbJ+LRH98NPq9iGCpuGidiejQ2yObrB0b/E4yFSoU0+RNqjgmZBl2vScfr4d/u4I6bZxsDAyR6rj8yp7gcnFeM8K6/jSmYAlanM+yuk3gY7R/VIdx4vffUtAWyAdCwclnmOu45kCc+mMavlDDSsivZBLVi5tuin7tqVA2KUMmuCTGbGRanR0+uTgOBK1vKJ7JADnjeayRSPH+ttEsly2FCxrH6q32Z47qMZWHh/0s0OgRD0vS+KOFWMHwVjyDg35RJnrFhArMryODTBSAHXg4gl/n/SVQOS9tjNwoVltaa2wae37s+h5flvSEfvC13mO6xBqLWTjm76WRCQPM8ZS7TNkdSytb+1QcQsVgre1xqm8tYN9P+d9iarIi76tCd6ECp4Nu1CRXKgXC+rjdza1xOFMo6x4vbQuctyFChxDIv/NR4ZNmSPpGEVGz4m7mNSnFg5HazEsWg/NVkTpf//zwqis8BOsiGoXT9ZtoHuvtBK4oqtnahQwDypQuyVilnSPmsGJT4tjQKWTwZ38nyldvginxp//S5fo3jLVotUconE2thWdNiKK3XAAMgTtnXo0PCgQB3gPuD/A/8ET8rsrmWwQim2f096FPCFf7tUPY6gsYgHmlQJAslskNXCboUNaKS+2xsdj9VsnCtIKI84z9WNie02sPHtxnoqwvfMG9fcpXELjaJQPiKwngJMkslLHnhiW6qtYRHZU5Vj7Xa1S6mwgaJUnd0czjK5AcSekWizMhH9rE+sQcpmVcG3RT99bXvFpkHwAqk5V5ehRa5uwnKb8RuL9vT8YtLvwsOCgDSML8NfB/SaDcsUwrwenFXscq/EcAXhFe3JcPs1GWds3vT2xqTTIiaJ4nP64CoPhsZapowRFayoTiK2hHzmO8LuyHsYlBqvYNy5/xmcGNSoxotH1fH2dP1FfyMgYKPAeYdOV+6B2V9L0oBDWtCZv5s2gCek9kocbwwAA8lwMhLWHIJDRRbWycphdy+DRU/1JJo+y8w6FI3WgLLxSNb6XkXUFiDQxhkW+wrxxMiE0dTRvUKi17o0SQ7RF+YTCIoW1CJVrxw+XBy/EagLiC95W0sOiajd8GZ1SwJO2qkur0BnnnDzapisWSuFMgRjjwRYvLfxyu44087/pXy6ZhiJvDB3x9o0KcBrN4Hhtanpgoq3b0kOiFvLEqfrVFxa9k27Xx2fG3jEpN1inKrGpvtmb9PhLFYsjjcTucahfdqjktvHailQGfbpModZB+Pq1YCbgq0yOmtMaL9kt4XYFWWyGgyjuibij1jFhA9TGr5Ak7pRWzEt8CPaGM5Jfc3PWDxjcYutJ2tw4Gx3E5xnSMPf7epk2IQRKcDKgtYGbu+X1YoE1/0AfV42z5xPhAmx99uXqHXg2mbXV39EDQpZbVdCCV8Tcxz0Gyd4Uj679aUsiF6ILcJIBLvPxZKdWHTe9J7vDDsCdkx8PT7RiEkpbdRP+O2UNA8rx23X5mkNHGZsPo8x1IalTQsuTgT8/08Dtf0JZIimFTz6c5FtAGDbl0pkdUEb7Q987skQpPgVIiL7Ud5SlPTTmzPzLgBBUC7HirspJN0Cvz3ZhbLknPDRddFlo0EdCpCyycbF8kPiaOdpHq6ZwZYB/0U6BthpVWTIPaR2O38NoXLQfQno/rlBytR1XdO/njU4uNg5AbcCe7uR5eB46acib0fYZosy60rxXGbkStQWXWyV3zRMW9MrwEUobVKCG019/yL4akJHqOpyL0Yea1DWjaD5A9/WGLJs8H55X0NtZlSAGMU6hiIBjB7U3hxpXBf9s490D1jaAzPovhKNMuPzj2wd4tVsurQf7yz6VLlmys2O9CTpo0ResRkOSeXrXYMGTSjQ8aBALOA+wM/OlJMXEXqx9kc2b4TtVNBuu50tAi1dVVDNuZ7GjERtKeX2F3dazjnj7MpWn7+VjYMQhlnunJ+YXbCbl0Pnh3JUQCSqTs3Jm07iROiEl2wmfCQEhvNamiSGR7wCCDhsVUIYRrm+btyU+MiofwW0JPtlrtO6DvX1nI2yf1GhAPJJdPOHPy+MhLimh9aiZB+d5lx5oOEWq/nJLSbE/EarBqMG+CW94xCbcpUksHOrd/oLhYeE2etMMg3p9ORe+8c+yCLsXaDv7CGd7iMdnwGuM2pi8I9aQ6hwS6K/a8dJreKY3DeSzFd4Sf7qMCxqA+sY1VB8YJYy6CaIryk11wIwE6NO1AjnmoEgktDbmWa+Dcf6ZsrC6aSK1NRWkNdYlbuH5XwFGUKzySkveCKJKyMqA37eTc9m1n6t1A9/39piXTUWEB8Db4tD8cr7xGDMKAjgLKPIK8O9br9ElKBG//qOzbYN5ElG6FMKGJaIhUTFkmBCi5BRZbc7ZXjqlQuA3ZsnefQN8qlYHD3CBGfhxjDbKFi5pk//ME34i6mZoXDBpHpWDV7L207iZtMzkI4ncxdaDrtbq6w92lGhtv/8bJMgSWV1l6r5bdsNn6zx6xkn7a7feAAr1Ms2iZ7k8ydJxxFZkIfFyq2zW24OMGIsXtV/s5PE0leCsG2BICtwdTeEP8WjaQDEu2m8lhqoF4RQ6gKkakQuWYBWpO+xSZMvO2AeAnK2IgB9qnG/3AYqOluN3IcwKxFsFCzxyOkLvgtz1fVJdgv203lRTeZuoXQoW81psj6GTWY97Dhj+RF6RkkvXrguWQkyuoNKHwJyfzT02tm0XIv8uR15wOKYi5v4zbgwbO4P7AayQYcxlAJPjnBrtyBD4IVDBT8LiI4YpsbZ9QS4DqgUvgedTHfHa7dRnQErH+meY+727e28TwJUOM1ytvZHGHz8kFnzTI8x0Wl+3QE6iIiBD2k7xZM2xLFg3l/ovbI3YO7lYLI3OAJEmzt37nXVct4s58weDc+ET4mYex6z68WR2V/Cv5iuU0uMpr3Etv/EX0jSOqQCXj1OykmSQV1tQVUUBnDIeV7rCdbCKEkLuDLLRgeY7bflQNBOXNO2tQ5yAxBmxqlCUjG6c+SKcqKrw55N9w8QoBS9Ctm2uhIPCGTCgUZQMGEJGpScBsuAGU5lRQ8g4roK9rWZlvJXaeAyTGvxMmfxnaQ/01WtGHcY+WMw6EwZZp7claD2S0zL6JC7gOesnB18uwI2m7c5jZuwCdWm8QBnlQ0f/iegU9437CjQ8aBAO+A+wNSMlSlB/mjPr07BeIeoQ88pHi/66FGqJ+O4mJIdYQPy+eoCY5JvHQMxLO/UEBd7/1pA7GbcQZ/nw210sB0SF4H7TsmOBuE7GQ7nWxJ+ry9iD/Qbhq1dA7G2DXu0KhP/dneIRq/xtlnk8h9Q+vZuYRpEdUdh5vJE55/BVtsGOYR78wYYsvvoWyHakkiX4lq9xAmp4J209Js/WXCKgsINIuinAWBIpBoRksGkwxpdTW1Kre5354R1rZsxTvpeFbjOWi3nzryowAfJnifjZV0Jz5aZabqux5Z//fzoakpT77PZ09O8ddmyaA3wgXZstZp97Tpb97uyZsEVvFvgABbHfexvKuinbOtd/Xk2GjuBSdMdvlYrIGSJ1ng5/yaPk/My+kAzlerDNRDkUaj2h82qangSDM+sUjgR3ppzmtZbEebLj8TyUy/QPPfHCpoZNbBeHpQgciyViWD8wSaTL5oF4ZUQGvQM3g0FLdEvM+y6viJbvE8I6W1/EMhwcZeRcwq5vtrQIQSCFEs3S6DZXYsA+jUZ4otKisRuxQRXxAheQoPzRtYdhl4ahnjpjD4fVK5ceKSZrwOf2z1To3sGKQfa23PZj7OlZPmWDt6Wq9znfIJ8ANaaLwpr3E+caxE01hQWumRBVn8shLA7jtNtDKn/zd5wVDVjsujOaqFjRSIiUOroD7LBV9Oak+KCS4x/ir6xvxXtDfZTZrNrqdGTMNb0pyM8yQv8mGdN5FR2+GnQo3mvY30X+g235ymO3qgxqJyp5TBMJr3z07HfS6gALfChtRhRvo947olv39FC+ixMUtykWXmoOAzPuZpi4W1DhJGupC+ItZiwun6qUe+pwsm/xD4T7ol1B566EjqLZYaQn644pKhfUHHDWmFmDB+OjVY1FjszupJcIR/5QQsmDtYs/D9owzZmPQ7pUixITdCcDvE7Oi79EBHzk2leOB8jUVtIzbuPrrcsSi+lMiWz4Qg4QArRDOdiHW0Ib1cCYJylC18t/2djD9SED4M64N7cpaeEtPEAZX3AAPUYXQdyzMyifXrPW5hue0fMRdsccPwLp9sob/CftQ54JVK6iKK5hdwhz2L4imJxIp8h9QNkitMrOv4WArXn5lb2GtW8RyyzUUlcGt1nlctS7cjiehqe23/NOjN22SQs6lH9XWP/QymtZGUoOfs7k2m2prNdCALK3q90cjpIAzKrBA+rOlKtqGcDTqVhZDSQqM58ujrOVSCMRIgat6p5sUbp4orShdJ6P9Yo2Tr0kOnDaKpwIMsBHZTJ1qjQ8aBASyA+wNAcngUxWebYH1oD2SsKferD9Pmc9LsBKmtlFA4cLsbU57lhlSs5J67M2GyIVRD2iERD/LwFJFKWRy7wn2EuxgF2J9I4UP1tAx053t7f/GkKyyTXnA2uUq9zOx5KPib+THHPrsJGrsv7YZhiaTVjHcCL9YfgRoi4y3wb2+OCTdrf5MphLqoDhoH0iRdrb0bgPsi4MZEvi4ChhGF2qlDxSC/z0CDlBijwHgJijIitR1lFQAMFP127T5TlXvre8gRMwILaeGIsQvp9wzET3cqAzm6Hf8azJOnODmwUcemfxaQ1B6WsgDfuGKtF3nIEUWn3v2GzSTat75lQ5KXa+IzpbCiVOUZKTNiQT2Fr6nXsHAlmgd+FWDIOSL4bcD95Qy06ktwgIBF4BNQOOmz+kuVZ4dqLjQGCSs58LFojDNjQM5C01AZD0howArkmmR8uJnTM+cpqy048lQf/Lx4K4avbccr0GJnkuIUzDl4/uAGtbjNyBBqiTIbtdQhOanswRzRDeEbbTvnYM7oz1Q1UJBqplxrj85mxDsjRPSCIAhC2TFeLfL62hdneFFhuWGbPH7ELRTbp0lzKNYVrKPjVVsZHxS4BDzw89vTY7dP3Av/gYW0p4VlNOxOKq4E3CwJgoEl6+swsoBDksJ+xA2AhPwMGuVWxes5AfSgwgfG0xPe0rx9zm0oLvumrFbUIOEKSHsOGvqKPyFjQaFsFvvsv7TQoPZyFeOWGJxYYC1ysU/EZUVzH/OQ1RlZKCVE3HcV/+rOYcaSeMVwFQBDKOpMEwyHm6gJcoFXpOQ7q4G6/fFUHYe/BQdYjlTnyunCD7La20CRLSMWNerC0x0oKT6z7FGyJaGPUBe1kwr471CRxY3T3GeWiaxltbdyRs+gpc+3jlJ2/M7sJS0Tn+STEgHWd/Db5Ezk5JA1WQxBVpC1/B6DrzPkThU/8z/Yv+GrX/1Oj3KHqdSigf+mrH2KB68nUEYobIhKkL+4Jc0E6ntFWFMe8agEZtPJkgRa0B2Nhpzv+xJ6d9hPcSZrhZ1dafJ40xFHEQROA0PhbFlRl5Jv1aRoxVyf3NFtkZglmp3JwmFKaCz/FdadL7ghjvgJZNkLqqx+cE6JgANYW7RLCRuCUiR7ionvLnWTkyk05wqKYaiiVs/VlkpxOK/on2KrCYUMWQ3mlhH6sEMtEes+T2s0pU6+QECzQ4IyMDsWE9HauQS2KLtOjrlU0/W9UuSKTt9SSFIVfHRLLIOPdyOm8khFL6t7fRNTD/1+fRsowLKswzSMnBpWzG2jQ8aBAWeA+wNSRc08yQfiFsN/Wq9mYpoxH5aHikfzpkd9WqldxWjHTVQEf71EchpGZBzkBXk+GWEQUFj3bELkKb78BOeXejlrHkwZ4uZ+zXcTHcPdtxsofMVviH7EMGftbC4JKJTel0ja7pTrmEioWX231fL9r/GQhznt/iDWQpToTH/iLoqZN/CHGedAvQPAEUlFjQoH5CqmPuOR+hlZan//kHOiglcP3SuD79nK4dTmsvZUAReJ40VNTnyBB3eJvs+VtIK9WkgmZ2cXb1C3HH6YNk6QXvBVFwpko9woxdCW3cDwO07BZlvulbd9do442bHKgmSmApLZXWTVL2d+GcYMQR5zRLCt/T3jM31X9jZ/t8m5SNvU33E+koZStU63bk2xAjqAWpZCQ11DF25aN5boI+np1DVriWrAMOe/sKG5+vVH0UUdt6+7wpiltCQj7eRQ/sk2Hud/X6cRPDpRj2ihSuHe+V+CMogC10lQG6o+uynL2Vd0DFkT94wpgcrcTvNeNfm4nyFB/Daw/N5S0McIYda299TzKKhChZvSLodcMJ0MY3Jwr1siy4R2Spm5Bthxd3ReUvrdqssSwsJLrzpNakV+AEQLPv1Qpyzj7coADzjQp285PbrZctHTNQPpkf7jCvlWGDIqapKbkO4K882+euwsjMKAbyN8MtVSO1ZAqa5MxVPC1GCfFB4KKY9aPmuXhQtGvcd5Ox6Afrb/Fmsm4e+IfitMvxG5aK04WvqY4dawa+6H0QsOWkYoF5WyaNcBB1rRq1gTH1JTdROqrHA5hpX4cgMwytrHW+WritYiZeTadMIcjlFu22oLkV8go/yXGFiX9Rcb0QYgDkatBEPamF3DcLSlQCpcfn/P/68LS9E63AB46hZZGKkrW9RZzcouhEhq4DGwqO41cy/OhvWAITIKxP8ghwZn9QzgjC5no5kGtr60FK0B5rTV00HESvC+PC9BeDRGJDl0VmvL/q19w4mYQhGg6oqFTB66vFISc51d1xaBASpJwOyyhtHn2knzXyI9UXZwJeo/H2GSNlKBFO3MWertLpqt9UUpEhZI0TyUiCSWvVopR6wku43pSob8XHUO4gS3M1X7j6NJWNiX+l8Rkn66NKRe9X9PpnicGMeOLJfGSn+tROS3gFP2It6O8l2XRNbqqh1aVmDdL5438FStYrKz7/9bVpEa54czrovwBIC5H/y7TvilOlKaW10gC2+TDGbwDL5muw/scmkMM0hww/sJSaMC1hygxwMOF8Qtt3+F5h7KZYPD2t6lz8iD9sdcOdCjQ8aBAaSA+wNRGOgpHkU8Mxp62NfQGZuXQA0oL/ICmhl59r0HhKR7NoacNQ1rX/hbJKibWw/PXueuoA7WnTxjefkcNJo+g7Sbu9cZ79F+MvWiD3khueLa+UgaEjCeQRqy/I/YT7Z8eVO1pN+8l9vlTQvVVGiYW1TVvXTd1wcZFQG29pV+woSAMZmWfs6qf8MR3BlDB/qgXVSENFAxYMDB9uIuchHNjcS7TSS3FSprSVDw9onlPbuS6xHsExCDhbhdWItpcYzJ1nDy6GsX7K2gSdq+hQbp9/6DtliM32DXQDffC0DWnoxzH7KdtZiy2egdh/JY2Mpjg0bJ97t2fgos3DmuZcB230ggiAh1gYOvkdYxd8F3HXuerx1kgHWNd5xGKnnqrOW0dKZeStuvZKTpdQ3BgoMxt/SnFsJOApqhonFHXjHjc9sIb0Dp9LzvIY4aEUEtYKa1IWfHTwMeCPQ0H+V7gHR0iO9ykH20mkfbl42PPU6om7iMG7ssiRXMRyV5A3o64pCozTIf4wQk00OjnkDsClzetn1dDia7RwoPZYdkeD/lxk6SCEcHidbG6UuYDXEUsTcrI19C54SRQ2fxBeXRsQPwjDf0p3nU+k+GhX2MvbCNbPLFtCXq1J/4+zMdc7K778foLh3tWqxVPwp8rgxLzywKup6VJmwX5MyeJurpTX5rwaWI83p7e4Hf216k2kyZw3fYQJAgopBYsStBmizDR70Q2WiMpSwXFlHOuWCZ90zGwgWN7wwqa+Wmpa0SOH1D5J7mTvvvYe07nhMXipKnPDV/SQQlq2B8GAvw2mUM8iMTRdUqewsXzBtitqh27Fg5IBjik/WROEhD7QjktYu07ZNJRCZihackbWD1Rs34DKZDONYhZpN4RaIyki/8MQQW7HpJfTwT30SeCi+FSnNBO/0mOLQ2cimQ2OHh55Fkl4IxIgUinhaTpvNg8Xis6kIRfAOKkH65f66vUetJGDnKmeARRkubRtC8+RHMRxKvx0dzvMWltnH5SQaEKDwK/KlUyZ5puTUUpdLc830cyg+jFNhW8hSwugpwjAuOtPhOSvZQSSXNIJkx8v4omTO2lhPOXCkAoDvVwC9C3KtPKJDSmne2vSHM/S4KOF9SjMzDkhfEhkUSNav5bKn/Au0OBTGqq5O9qjHpa/2oYFQeSEtBVDBQ9Ezz3nY4unZ9QOGwZBUgnWhdX95hSKw9Lv/3SjzgdXEK5y62Ww7lhLDTWhp3YOO6OHjVOI4f5e0YReLEli6/lpVGvmGER/w5dFW27QNdQE+yPDKjQ8aBAd+A+wOG2JJZybRkXDyOB1am1caPHwDng7NX/N2Gg61pL85LuBnMEGHQteFFfuJ0hfegCtp5LHQI5XKKNYPqPUyEDvctepN3YmO3iRysQLib4NVuNWryKzcW2FhH9xDkrSwwvmhS0zs+jgx1IgMFt8gTZ6OsKMVtnNPQfkrgg4GBIPf3ZIBBIgfmU1hQaU0KB2Oaqi9QTuFtjc0Wdphym0c9zfpPNBZ2Kmapd3ymatPOyR2RcOx5m+Zi1UC2jA4MldgBuqxnVjbIXaxkEpNGtSHwmRxCV9wonVVKAxyVZh0/BI4k2xW+09Qo2cSLNdbAeoQxNWVNpoPnasaoPBUKiOJOUMGVzPV+lx4FNm7oDbB2mOr+LhVynfWNcP0E7dNI8WNtxuQNpPGezIoUN6YjsievEe4/PvUBb/w6J+AfTFwdBUZeM0Q6wP82zpaX9UVpIJdJlGj4u+s3d8a6ur+jmtebbh3Qk7OAfATdpq/eVbWz1SAfIQnVylnejZxmtHmVSH+pqTSTUR4/fip8MvoDuRpvGcj1Y9LeuqQncWl4IwSZRCgAUVXhwnsjiwHwfm1HPFOthIQsX3/zgW+XxJhZF+MI83Ak4OZuJxM8/SNEMPidp0hmAWzvNgT4/+oYLmFixEBIJU1URO+SMUZiAQG5S6aw8pv52xvtUVfdOBTPLVxS+sdid+3W7uJBP/eMsbmhjJG5nbGvnXREiowmbsC3qKYRPsbsVWjEhNiQhlQ3mAzsArYz+tcgjJEprPgcGdMABnbhVn5X0XxoMWYu7SyCjA//4XqNyQADudGfRlwssSATNbF/XNjcjGlXtAMwDCi0A4uEvXL4ht1Im4HhzaAJeM9kiBY6nBD8pYLRhUtLfgYjE33kWlyiGPfsS+4KlzwbmsGIm5bdtkukSAjnLl7M0uykvAbr7jq6DquMJEo3du9ZQGDZeW/Vimkm3yNc9OeHkej0wAEv1kCfMIq1idwjfZC4OHCf+fykSTAXC+Es9Jh8JemRtUROMlk0Ykobr1pMSQ4fgZqAeK5W70RmTnRdJnf1ZwBnlkz7eEeiESWo98o0nPQ6HHqVn7T2i2TtNfvv1HhNCYihzY/OK20R6BZ+8CCL9kRL165WJest3KU76YpkO9srSNp5RYR7ynct8LOMJEYQ/B4dTGDQk/9QUqgwcIsDl0jPVWAD/JoxitNGiRgl/ob2RykPl5UFUTObdf9ZEGdSxqA+9CwkgOGtrcMs6NwWYGS7gwUTLXQT2nuhZs7245QtDRWM7HRRuZlQob9S0dzGcZqjQ8aBAhuA+wObBaC5vOC05u8yOOZe5GoV/BUV+YEWe4WvLXAEpkv2xjKmryUO3a2tR6AcXhKCS58IYW1U9VE8hSvSnp3wI6zKW8zH8sFN/fRcE1KeRvCLAyJxo4fI/4nmdTD7fHFyaH9sLFWkImo8R9fkwQ4tuAEVvNkW9COgWaph3ZTgWuGOUXHNFt7k624K3R6edsXPE+T6mrzqYrbh+meAu406PgaoQGO1HUWgGti8k18YBTlEgzfwMEsdndqv9JeNaKjGhCvViiD5B/ZI8VGMJy7YZepLYb6RtaQ6IBUOXD2NnFhzTYYcvLOTlCq7PaDRJ5HiJ4XTJA6qY9ynAYj0rceQ4tjPePyJ43B6EPPgmCbeNwGA9gEDYadxfNrgN+7v1FSD33SWn7oNam/TlQD0MV7545fGa/W4LORfgOsGGpEc4IJ0Ok/aGgfXvujQ21f3e/Y/z7ShyGA6yFs1LEnnDuo7x3oXy7OiXn4lkEzj3vMM1duYNbBmGaYk0R8bUI3o7srRBvJC7XoDytRW4PfGI3kukhwgTh8kFBKDRPbYMRkfYmvOZIdVS/1L7DQWxuub+ERhZzlkZ640iQTbrQIfIuauvgxN59HyLEYvQJ+DUpP7d27EampeHKSI3QULUDXyT80VIBgwePgCY/67qJqIyjfwFkbKtA9gefMmLDeX6hgHLRmJh9tyHkCj9skGTtjq7R4oADjWgHfXenfGtOomM3dDU5bxMeyjEknOoYLEhi034Xb22Dz+gzYAqcfF7d4lVVwX2mwwuFzaOU5mVWWgQPICxYrPHIMf6GKl0Y8J9fShUvaCzyY9CvcbYYOxWClKmUQ/fSyu4fHxS/vTf5TYMwCs+FmPP0prLls/AGMAj+8bLAweIzXCz2OtK+qpSOhlN7bvxDw3Fk6Bo4WM1uDuxHf+E93cvXZZ+b7AgDnGExj2cL/GNeRP64R7AIXU/ZmKwW5pQLTUTIuh5qPDhnj8beecwwfcgMojdD3UWuJPcJpwF+KjYvkF9ocTbZmV3pi9ucR/7jrp7zCv8o1KeDqTRDtke6irkPND2oFebfmIzrtlZM/Bxp463L5H5JMpW9nvDX6QY04tEVFmKWrTGHJDFSUaHAqnzOfSJSDdW7dfISw3/smtwtNWYFaZCXc/YT5tf5lnQokIG1tsPxwg0WRM8DGdP60mVJBh+lyVoVzoD87Idcs618LT5FUrIsAzRpCQxJPjZXiQ5ijriITEjWwVqkdEFljf0tr5Fw97tnhIGmHlsuCUnZaI68TrFEl8x+A3JgfddwyjQ8aBAleA+wMasPo5BjW1lmQSvFhRUfmGzKRsG43ZsKYPvErY063FYyye1CFHxc//LjtbQRl1kDb9r1TGMinX7AdAR9OawzeIYTVTc5ImlBCREYlqd2hYsaTnoPvzkLoHdRbJXcq12wNwos8y8qGXv48E61bz4YFb6TG0mvVwJNfzWqD0LqR2dnX1Al0RAOwDFHGmbFRJI31tTGUMrA1JyZ9JTnd4sa/O4o3RKp/Zb+F+Bc+Ki9JyX8XO9xw030s2UkQmxAN19CEBa/WA40qwELX7hXQ67v1OtnDMfmotqb50I9SOGcKneoi8UP1Qf1LXjgXlVVYXZChE3fManaum3ZDbm7rDMQgwCE5yKVWDlzf4PfQluYB8GgZETYStTIqwndgoqO5Me875qspBzzv169mraPKfCArbB8NswOfP2PpZZfwf2RfsQBgv0z/c9OG9iszYmmaNBf7pQbETHGZjwsD8wImwYkDABfYLTHz16K2UPhKGnWxkmjCzUwzdAPjzmRu68/2Gz9IDNe/F7ONtoPgFEqAAqmRQnWMCtw4r+HZyqx0gds6s2FJkRTHLM9JNtyBuiGKO06Y9R8atAGa9909XSNrkub2kTNf+Sgmz2ixJFHNeuofteaX0aibHepP8FKaWLukh9VuA+jyw4XKJSy40qNlSdYKuyIvFph3vPFyW8m3qLX8FG9VgzEEZxGzpVDPHZesjqP+wH9II8q8sX091p7eoQ6cmbso+jX5wfQNM1WRfdVDj+V2Ry5CTsmAaqzo6ENGJ4j6W3eHpv2TdjP/qkqENX0/K3o52JgQgKED6GEFRfvGpK86wm8XkoCNWABNFg59H1Qfs04/c+jgLvm3+L13QJBpWGwGptrfoQ3yeIZNig8y8k5BHEJrAyG6ikb7bxqELwjA8eHszCGDdswawP7NJon8mEn2Nn/tISMBdlyiemQIvdJb3zoxOjKfRLpFrJ0BK2tOUSyPzvlXI5oOPH4biOmqxr/+7mmGtlNz6fTKjP2AtJ9Ov0a+qGbtBaXGqWX7Zd7E8j1jEhrhrDe5pl4n9Ds0Ic//JqIwocoL9/CZC7vvUF3Q59NRnirt8pcEXFTC7RqmCvD7LExz2Mn7DIugljRFOai0hmHqbirgaK3ZeNz6gj5Onz1UslnoFH6VOdBoJflCjinPBokPzLbDlX+s6/lStndRpa6dADJukBO3Tg/kQQXtIpDreEmLR0wt4RPtYfWmmV/mrjPMqAWQAZ9oyGWZFm6v51KL7xmIhxmRNCzmeWoQaXxXx4lR7a1eUqpUyy/GjQ8aBApOA+wNQwCBkgyGgL5J0gZ32Gbdz84atapIYbGB5b2oE84avTtN1ozwfpJyyGfNuqbYHDvB/yKp/ajkSBNtA96OSo6OiprUd6QjxyBeyntiB7hJOyctS7lyw+nMhtVze01twjjwepO393a37WbAHggr4djBS0wajJcwhNenYrBXMKOyG0O47i5oCwsXoSYa/MQckW3RVVVqQ2n1tWndOjnwtUXAdT1law9pRR54Nsh/VSIIhYuw9+oQxkjutUWyU5IhH3p1SfWhz0EGcfBPoKY7iO64EfvyohPCGhKhMzRjiGqOqO3C10akzgDGL7T8ZBCc6nRlaSoOqNeAaRAWoblFv39bSvgq/BJYhZx9xitq37KVhX+4ehuuUbfBTitoKFKlVILdpHCrYgDJJ3ByLp7LOwEJ6NJBFPeW96jajgaftZw1Tzz9yKogBv5G4PQ54faxNO14LGxGYIO8ksFkYLWOQhfpabqcAYjTWG84dchlb4WjEyOLorrbBcRhiGGvbYSCWJcw4I/q6CIS3VWlSgpxDRdbvHuMHYyjuDUdm/f8X07iHPzAMwbIqURmNVse3hwKx7XNHitO1dXsgvme874cFSY/AxdOfkePdxqZcMAm9gbCAP6Za9fteEqoki+2xTvgCO9iP2ooNMMBMAFvEZVe8EMR7M2NzyNzEjV4n5rjcpKRQqyDhaNPWHK+1MkuVxKyadwlTlbrTOZpfV46JXDGoFGWcd0p5B76IEuk2lRxxg5yp7xRm7VNDEDrnXqbfObNdUM7HubR12nryZlukcScXWo8sa1G068A9ErTI9odjXsLeoQTxtb/q08JTTNzwIR1KxX8ldrobn/PIWSOV+834wuMbURaBPrr4A0j88HVhZa8U09sieqxSAeI3DVDW7jxDwNOI8vayAxMHs6d5thvqMJPfC3Ry09Wkr9dMJ3zkPIyw+KD2w3jU+1iHtk7/8dFj+MIgmGL9D4rMS+S4CdR2+E7YczIyOeZw4cj4+BcVEiaKOYS9l7+UrxQ1KvAm4VUNecpBquG472af7K41ypiG1c03wDzIj3lpeX6zaOyHhI0pgN6kZ5tT3SqBwDg6uozTHo3FC3FmVAeUbaLQAX3uAW+d1p5gwLDYWq7VtjtcyH1L+VzBQiGukCUTAg2/CfoyudpvM6m6fhMEqhUr/PjKBo1/u0Po31XhQi/mBCUth39ci+kBAIfwFVpgzRUmr8kD5PCrVHAlxcieX4+rTiKjQkvCXCmZ1lhhMO39lRBZT2Z6i1p5skTPeQKtgqqfyqvI7m+jQ8aBAs+A+wMasNK1wz+S/mkeTaSjB56IviUqP9eLHK9gee2DgnGbtJIpmi17zoKZXHXUrHVgZ2AdqX0v06mQUjtEJtovTeo10w4mqWLHiMK/6k6wNH4eyHCp6jiZ83WAz75hfz8V7CY5Ge5ppaYVHLxkLgpZF0oDg/P3Os3MroQ2TdqPYFoFGq+tlWwVQPVFy0AqbMMWWmA4Gsw0fFQP0qfcMHmyNkM1fqBsPLFdbZzjaLcqu9rmpR7+lm/09I99Qa/3UX8FW5j2xe2ZbNAJU2xBAekBPfNewb1PX2EbP0XtxHw9UIpaSg0TMIbM8grw0oNy8siFf4AM1YZatNO9P+Y4vv5HEG86kwfiy8F2qwwkcCJCQ4NUlxjQOpGbZ53itXMLrgTMpkr8l6cdfYWWJzGeTYkQQFHP3oIdiRX/zmS5Ta0YsNsTsD62JtWd42sUvSsz5aQkliNEl7byHVfR4In6fKtbXVcVQPXLEjfGziocXSzEKrP9OLqZKeNFRCM9zdRGfe+Nu9GI8no5ZxjhFRxRet4pA5yu5hSMHTv14bTLyg+WI7zBIaX2zNBA7IrPeJH9ReseXU7lSqf/LKv69vt7GB/+oIoCoXlhX8kya5XalUPzqkeXcRyw4zEAUFQUlIRu9AAAvsiBvj3NcquieuoRSwGDwItYwc/ENitvtw78OfPAdkYFqRnReCrE3zdAp+PqREo4hCQUb+Ab4erlsDakSl7IB+l2pDsHqP0uFlLwv4vvC1pCMOksb3B6ZEOc83EqKGa/OBcY6GQqUv9pRiPyCNn+NhvPAPB/NMOf52MzswhJeQBqHEZxc3pRkbjzQ4txXYzztcwa0MeFpyD89hRSvPpdya/7P0u+y2rO12e9SU7jJ8pcGVoviyb9nsEZn8X1p6VlERkHIv5cMOP5hJUJJq8BAp4wL1zPlJfktLCQlEiV4w72vRKNefV+Je8z2V7mn07DHnsNf6w+T4EbqccnwPBDBhNge8y3UDK6fbgs2PO3eLfbiRestyKoe3eH2SacEupIvlAw6lcFHLu47tDCE+cAcWg9XUK45koNGv5mObmQU2es8EBgZ3OI1g0yEWZVzCcbYdl7OWP74SFOaEkxfhszzc9KuNX12vbO98nz4fW7e0Si5aTlueGujKefAY3RxOpVAApz6/5G09SBuxvpvXmhQvf+uT/HcyCf8nRU2pMfoLCxRasy48pBVOIkkQ8RAUbbakHx4jVgxxSH9Ncsxlub99QYr5Ah7HQ8G/DOluSuKIkbG00I/+2/uxalLq4jof2X7pujQ8aBAwuA+wND9BMRLBmL4wFDb5OXtiP/+zRSUnBS68MvfoEMyCKUGscorxIfzPd6fuepOf1sRhAWO/IreRz8n2mlv3xrB065aTzgownUpvQC3jZyYTR1hHQoxwS/mcHJQplpv0DLxK1oL1i4ZzQXgCxL1i5WJBU1tKjh5Y2iKnTClrzopJvUNWrSXFlRtYtgoiVhILhNQhfMCtCNhgFb+6tL7Jv/r3C53jXZp9dUDwdMjxp96TyHk8/SGYy0BCkzUobStgei5IBdPGpfUUPnNu2eKHL2ILdK+P/DO/SgPzYwm6HQGV2DgIShZp8NXj2Kbx9OOCWbAx0UTXEkAq0SvIIqCeM3P5+3cFfop9ki6+4hW2kpqTsHF3jjhyPKcvlVgINVpSc/8wYZ7PHthwPKWgyFpdcUiI1cAbSmV7ibMDjBM5leJCqPdj/WfJYDCCY87njDKqpDmoJ/5GMIbmobHQ3teR6IcKEM2x3i2HUgOvSlypKw5EMYy6a/BjDL0zaaR1S7qWYwNum1iB5MHAbvRCslxIN8IHHtJ9R+hAUDRCzFMg8BWN66vi2CtmS7TCQw94tZ6xRRbdCSk9j4gRaDuqSNLIZ+62iqF0OEb7LcA1KhJH0Su514MoFqpEJCLTp84Y4cfRzsB6rA4TGsmvMuRALvc9TVfyGwYkoOxXeG5u0BcrDinm0q4qHkFUSA8rBQ6eZbYwoZvR1uUYLYWJ6Yd/8f44Hpga6eg0mxGywAn4zUbr1XBogP6fsDfE9GpiHL2Z42MeL4YNFUWn0mCC5TQXRGO9AhJ2vf/6uqUeZ003JZmKI9lV4J37DFr+tUyCG2ppngvcomQ+uIwS0YFbtY7gPsGi9JIhj92wRMH8xXZsPIUxO4cPa5CzLGXZ4QLdbatjmpkZNfOj4PpUHa7DWB0Y7Yi+mSl5hgfTlKnWgv+x2d1fMILdXJ91fTNOWcYzDuBvAM1kAl0BsADLzxUPhrfLuJpHpAZurH1ujXuZjqp12r3Ffrr7XMuOiuCUSksal+vSFNoEU1TBIBagVnaNSabmqaWgikNzv0qipe1y+dkVhdpey0WMiEPVw4EW2CiEAGXekCfl/oFnDgftClvUzVK3osQx3HdwGAjwHNLmFjpfDlBVbRWTEeNZ/C0z2i56HMvgcORVXMHnHXXmt+oHkrs6cvyFLlkNrL8VmFfWefFXlirGucOx7m1n1xIw3BsINOyDABfMhcVnrpAx66DkMj6UTulDaKKgpAdZCl/vV7iUbT4VoE5+zdapOcndnKCea2/530ns1nYeujQ8aBA0iA+wNAO5Kzkm40kdy7VGRl/lWgYZWMblneOw2yNeSdX1tbEqXHNEz4de7x9vnZZEpqsBvWgW5K+7pxNkEREz6xK2FDtcluTR1ZEflJ2UIb45s2LM8Gzt2i52t/10a/JR88zdvg2SC7jQHRY1XirqdfSGZPb8Scb9MJ/5kImcq/wiQ6/T0GGjfq0CT9aM+gDs2TtLLHIee2jhIIy0VV4uGO94bbcF5Pgtsv6dCaXKQtFmdh+B5g3f3CPNosGnyIT2O062l2X8V/W43ek7XjCB5RPqgM7mpChiH7zB8W0UUNZ6ZeZ9HK/YriWJFsJ9pW+iKU2n2QTzVr70c5VoqhAJgEO3hGRqqqqa5NT0LWG/O7xPYgZZB/aijFRDK1spS3fqIM95yHHZj0/5W/lIDJRHEfHbQdjQme0VPLcqzzZjDWphU9XE++WHg0NXHubf5pfPCvZuMXMsR1ix2MOzxmvLgoQBHJiY9GSo5WVpaZtX/riFrn3dyHr6RSvth+xQ11Lpbs0QM9rbNe8az05jZDmnbvHCvcqnbOr66b8AH2I2QM2oe5AC2pHqxP4cMGkWKuvxP2pxyeul6zqAGqKsoEhCDbhMHw2YalY/Q+yGrBf+DxEnSpMklJoCGWhs2XHEg8vkSGEhv0zgweHuUG/Xh/ew01L8RXLMJUf6n4X031Yy2d0iWUE0HVMsKANuLubX1vg10f64DGW/XOKdXdgGUjNH9D1oGvqc7eDQAMYXnPIw29Jp+5ZxNPmJ3GLajS2ym3Qq0881xFOlJ5R1/NV9pI8zCB1k/6NI8bbvNk1bOv/WCyQE59xmBda9I4CGCO5UX/THdE3jNkWZLp2A/qpU9MGmdOYHXcRC88Y+OfwISHG0N7A9c7FVznC+GD29HkIF//+3e3PHJpSzLiUicFn1DbVrramqiyoe49RuNb0AT6OEmqH+KkHaJjCSzjKsmzLbwuvyR85hFgGbplzCw0tpiSKTMK65oL5S3WpOFYBceeH13tX2IkpM5/gykqnDyJBLAB3784EhmlbR2I6lUA9+hbXPQw3mWssEVqGRCv8WqU7y7ZmYFfZ0lry/jli/bZ8xGCrdknBLYYHWDkOyhOQQzfm0PqUh38AbK+2HeoBwhWWAhv2LS0gQoedel9HCLRohmBPSPxCAjPfAE4KnOffbhkJB5lv3QoQfKU5ZOTCpuN9BJMB0ZVUw2PACW6AZX7oHWqRZxQb827oDsadHAxce2VF8Plg7tapQXjxf+X5086/tK+I91t7eBKupMW++Zl+ifkcrT5EFKjQ8aBA4SA+wM89uxVGa6D1FWJVVjJivOVKAriRw2WYpK6jU/aoXrRhpnC+14N8TSntbDSvp7LC5gTfIWyfrasDCcVUcIwUVUHHwMuG6qE+s85FS3dQX/IYFUszQlLHynd/M5QV41lZn8lWypgscQ469v6p7z6Rfg3GxC+rDd8GoydCp1UQvtZXZSiN6J9DPZvnJ7sscfoHs+KM0mgElWpvj1wBVf7JaAzuGyBNeq+uwCV7An997sJeG6ao/JwDP1ayftkThKM6g0AKCLhl/DditcI3Jb2H33IJfehWnEkwRniGziIokdDXSnwXaApk/kIej3XRf81dzTXtyUv+6nDxhUDziJKWPWvC+NjhtR/w3/TYWJ1pKL+2s2qbfim+gp4Shfr4G0wK65iL3LEmrwB1d2Ncb5pNzFdPbxWVQKmvlToInDCcmOiWD+ob78LRH3Gf/SsCBuT4iVBcFtw85fq/xM6czWvfyqzDCtrqm6LSNpbeMVeYaH6Gm/vBpmaspY5m474JoTSShL0I1tpw9q65JwTMJl0IotLAM02sbfvm1NfGEUvf4GZYgLRGgD1bfrBEiTle+wj8bAH++3hJoYOBuu3+ucQphGt4YoFWTtng4rV01DOQDlEhU/x8WmQV8yHjU4fw5f3RT4eLN/0bHxq7fUvunBdTH0AjxQ4Fll76O7b6N3FQGQFLD3QOdQmQDG+7jH9S6/n2rdAv7J1aiIRODeFqnjeIj7U4wnZ1yUQeamEHipHTf+Txv/pCSa8VPfbHUQCP7Sp+ux+tUte1Y9Nyj0EWaq7Tmhd0IYQf9SI7tI93hlzEGdNYMZ6w9ejPhUf6bCWFB8YQsG1dZQSW83ysLZvdUWR2s10PzF2gp6dtAEO8AGeux3gaoTDF32zLdT8u6MpawQJxN8WhSihNL63ALAFkQV/+jp6ULE3deyMrHyd7MIJNI6NoKmDJ+IGn8xu1INY5iHNElSbfR+Hiuo176kwvN9D5H85q8Ji3roAwEIePVEfbSvLDP1OImmGj4PZGOlP1DEfCL3zQfrrfAutuMYDvj3kEVn4JEXfG/XVn5XP15+FUWf1KfMAnFwW9BNoWMIExZJv9FdlTTX2zT7XLWK5522vDSBuVfKk9OPzUkySAcVrVN0vfOa3VftmCHgJXBrhssOAJTKsfNMbz627m3fw2YhOG6tIIfU5WrXzxrmoDIx2lLs1t9llWpMQn6ugdUqdS/zHwP6/k+1ytUgtb4lQWt6KfVmJMVl6A92s+if9i7OW77hhTWlGayhiMu5pIIARUZgnvGKjQ8aBA7+A+wM8vycYbhjLx0za44Rnim2GH0DBdEyy55sJwVA+Kvvn7TQz8GHwWJ00a0byuiK3bi5Rx3s+JW59stOic4Mltk5d7gigAj/xA9FmMw9htWHKw15jA6cuPwPGzeh1UKshMG8Y5g8im1NZ3oOaoPrhZoXt+Bc7z/SS81T4GJCK2xLRFErJ+pXIgizhcXiXkBGlHETtwopYIJqBjohywPGnS9zAQ50AMeDmDRnytIPBxKh3rcSIGoy0KcifJsF6v88vd1QmCUoLQRH134moq5rFwM1MOKhhz6/DWZFo31w18yCvY8Kvxk0atMr9z58UqhbaoPApPpuNoggb45JeGbX1TFVfHeTNyAW07ukePMNzlJKCjPgcEhgpeO/MDd/zXKenQE6lYgJvrhz7ROReFIw2lRO+fl9HRcPqkKkMMtsuitfcBj8PEDLKArc96vlR71RAcE7CBToi4OdQbPZHH73nl4gbaPpV547XVepEIKkeQ2JpcbgRLaVKrJcV88fZYKj6R5zDbhlAB6H0D8JbPdz1cATpm8fg2YnoZipAxnZOOoBy6J3IlPs6B/6u63mXlVuGm6iwOcMSsxPd5IDk7nHM91O6nncU6+H5iCDvln6JMI8sdi4Qv7ZHUA2Gr9ADwVngc90gxEXxo9wegHgEtH0wUx09kVTBFjJ2wunSuZAfMKec3/1Jyb1pE8waCItyxDTI8+Ibwjlmfw5hcRyJCKzXLODwC2JQM3cw/DsALup3oZF8efI5Pt09jWLAfbicp7u7AvluD2ESa4Vk/lpK+kLhKLeC+k6FFUpwJIwogjRGZ9Wqkspqs5s0bK+VihwZABGUNNgJX0eckOXtW5zcrjLYcYm5UxmJyLRgKmjVnkHH9afz6v8hX/FWgIfeYGLsTbeTj/mYeQPUbmEyCF1XBck6H5k6JaywwRlHK8Gv+PD1b2vaLzhS7MMEn/u0Ti2tU/d2Wt1YyqBH0SxNhQ8buSOVIOxcPxVKThjxym8qrDUhaqs1TKdhQMMkrezGo/A3Eny5USZl+p07s/foabsVE/OYcTULbpxEFaw2SyHEksaep30AgYOkpm6N7FTdsiWFvjuooKR1pjDh8hXUEgW/fZljE+ZfQjbjsL6XyQdwUjw35h7hRixVfeyw6sQ2GcHswRyztlCl2W1wruMfazn8nUviHLBLNw84GCBSkktVYwVC6N34h+cALGAABJyoa6VImcvOnoLSh72nNrxxQ4R4EXFxfZl8WoxfqLD3tgo4Rtx9+1yaNbdBVS7eIMCuEQi6+gdCoU+jQ8aBA/yA+wNQr1FX4cI0SV55Wvrhe5MOwEUQi2VlXUWE8LO5QGvaYulbluCa+J35QwnGQQVr0fQWiEa+wJvCN19nNDYKb44To7p+XS9WpDwaznC1VfgPYpAel2lmWVvIIzxilzmVr7rd5fdi0keRPN6MLwMgR1Ef6jCoGh9GKLUVWG2Y9I+/CPU++hYa16qXiQEhYfuhBwA+hc+ikcnO8cZWW6ehMvcJ3uQqj5Hq1W85s3PqKM2tDBSyB+641J3/uLEcSYdYeKLuRsV6wuLg73A0VRab52c2UqtfWgYcp292e+ZqRGERU3KOO/z0zGWyPwdjbRL4NzJIOwa8IMrwzcGxuoTTT0EZDs7untTbjWMwGLgy9IA2+GloeD69QYrzxCYUCao4WxVZV8rR8i5UsaLf9A4dLoGeSlb97XbAmGDvPqYreSKm0j89smCFP3WR4h/X7E4CAJs54Do+IYj2q5PU+2cT18o5Y5sMIBjl3StsyYwzT1GXfBxuPWN7E1bRinqM3/0gqOAZnZm4w5S4gd4N1GY2TYzycl6L5H1W2fwdSchIa4T+K7/mw5QO4Fo4uhfypfEHYfTkVMJ1d9aww8MBxbMJM7/kYtd+jjOCw/HHGwKd9fxy0Q2LkVX7lz4JrNSYLFfKHpPL+C6N2enAXuH3oJJqWes6jumUFL3BQv8GLbpJic/X7+6gVorK+ntCvk0Cde6/NYvHff9htcMxozAzMBBWjp+NIxI4lbekCsHrxg78NxuznZjXfjwn69WOYkW/lZs2BgsZSAsCVuY+0MmZ1b8uWOaocwSyC2N8poiT8Z10LOTN1cqloy/PvYPCokeOVfHcy8vnQfz0KBllcqU/Qy+kMFKJPyE/MY1Z3NQY+4MJ5qRD4CUUmufQu3+zU94psUrjmfEBIIPUH1u+nJfNCI9wScTsCaQyGU3JEYabSc8CQyRJDuvcmgoj0gCSJKtHATcbEaNRyRiwitaDYRUWka/e/Q4+nwnJbVWJ0hiH4oZ/rSWRLMerLq1DY/NTJjRBS+fXkCBw8LeEKY8MsbuZ/QGoKhNuYUHgNVlwfRtVtv3JCl6cgI9TrgTKTuozc3j2IgP6oXyu8Qm5951HH2m+yt6T/62IcfbFwh6hEGFz/Nr6N1VXh9UnaknJYLJ3embFcoxYWcI5Ygy9BNwsItqeSkKAfBcHr/1KAP+tBbsBOBTpCgqdziMH0U9+BaR1LcjIXJ9zE1W+IIQBu4XmnNU7dWuTGPOkCPE+8XFpfKUuuyaVmgBpYpFQT2S/XoyxwbPmJnwryx6jQ8aBBDeA+wNAOS0km9oQVh3dLHEBvCmh594pWvhTEOFm5lzkOIHa+7VDShFX+yBVfo2mS+OGEFnnLxcazt75gDou3qPOfpdiNQEstLqVK2Q2fUzMHmFiyep4D6sCElaS8DiOI8ESVQkphJoJ+sPuP9f4IUn6crYAngtYROsLGyutQagWCcSiCHD6r5RYboOxmI0djP03ubeeV7uQXOdcgeLHtDK8lQohHgUhjizMtSH1WqWOwNYewguIx2mdypDhM5s3sK3DfSuHoB7YI1kx2N7cECQOvOEkPfTnrbSQkn/rgwuh25sJ3F5q7GqUZFBwb0HA8uyrb0uGAoCwwxv5huDAKG3KQ5O69+tEPv1Af2SaQSJalFKRi+qJ1V5tCEO8MO6FpEGgOfpSQgnpcnZLilf7lh/F4B+lNAu1/lYc9FKg3UVJUE0PGEEu3+qvC+/VTYLV88XHwjTKhYQZTd6EsFMaT+4OntjAorXy/0J0H0QyvBzDPPNhFID/kBmmk7SEBNoMmUiqSixmQwJOJps6X2C3YslvDDt/gkXYKkdry2XMWqC9h1WdQqrNWn778To6ToMiy+iZNCjzrUIRx/Mm382Layt5zoVUQdas/Dc5sckQv4V016y9CRgtdWinFCJ0bRZunHJZzI4zO/vvoz54dLH8EiAXuJSq9qYBZ2DD8j/0i8pYLiIm5ifVMdZ5Ejy4Lf4mNNrJ3kaRMNNBmNiHxb7WEdNolycWYfrH6NUEDviPGJpNGqHFomBamMyGev8sUA7hYwfbGNKQhuDxVaJ4hzSlpgJSsHBizTzTid65u1Rx2mH9EVyhK7K2M1JAPLTdNY1ozQrBK0FJb1p2XXhbWB0c7fAg9+owUNCYogYWmRiEr9WzShnRFO9kYgEaOuVAtQs21XbSPnkpIptRtWHKYKgSNzLCoU81pHHH4tNUo+ghmAZdWlx5zz35vj0vWv5IH9XVWoMy9VQO6ab/tBY20k8Rp+TOHeDrzAIK1Pe6k7PF7H4oyz5UoaDGjaf4zw+pRp3U8LEMUgx8UbfFeNGFCp68hOCIVm+0JhFkRH5oNuFmXl5vTBi6fhxiG04yCFxEBn/vtfk4Dtn9gQHFUEOREIom5DKp5ntaqopkK754/rJGgfvixcdhsqNaWSYhBWRRZSalFRaULOsiT24zGpPKAC4w9AwH9wxc0+8D4UYsFBq5CYIvRTSbkQcz/AcBYqDPaS18wR2357QWYlFjbeL3tEAumVHXmxGYJHHF+7mbbrolXlrhydAiL75XfoJdBJ00fDF1Ev1QMaOjQ8aBBHOA+wNELz+X5mS6vxxFl2mQKZBYyya060kd39DstZj1h/IO/w2GWTOy0lwaFHQ5qCZxdUVrDjPsa+LUN9s6Mj+sg1t1eT/SpXSKxkM5qdrvY9hhsmdOVGzmPv9AC4GV5gLEn9OVJ3CIKTNfsHQxHIsCkYfabBwo0PAN6JrUIefTrijbLN9KiQpwXgGd1KsX/vQN0RcODypN8flvlaG3ZemZobAUUeDSlLtB7OeDkl/zRMcrDxPjdulX5aZNCqugg1uVi1hQEHJkk+j8dXVIsOSHaSh8Q+i8FU/oWYm7LGNxBi1i7sqwYyrHEM2eRboBk/Uv7u+VPObnyoWGNtrWcnF0SEZmz5sUWOAuY/o+Zuza9wZRRhACvFMv/HG/dg1PnOaGh9mLpbV0vxAHVM6I4djHBwNcARvtpnp5grJSaiAEO4zwvD8PEDLHflOxmFfgzLFUHRXw4mBDyrEwcqi4C7NSEj5o2pMuc9Pj6yYZBbLLvXirFymMmTsoiXnee4a+63zZ6SdCtYbJZRQdH6jkwrqF5Ct/upX0v/5NUbRaFjkQwMRhBQpKWsKktShx0untfBWpIhrwO1w2HTX3KYcnnCQxDsCQbBVYNZtCfD4eB1OvLuFno6HBC38LdaOyxNXjgqMsQKWJwO2xPbwpUY40vSgYhbPXqf4zrjysxtFA0jWIcSR5idGxdXVn1qpkBKnITGkKgHmlG/C3e/m6Nin8pdwu7GJasso2vlHdWrHLNz58jcuPXTU7LGZBS6W9nIygHX8BgteN9zNdccvZ43acvLSf6kpzy1sqG0yC5ZvqyN4Ge7u1YMuurZ3e0+ZEXKn4oGr7nvNE5jwa+PndQ5frrSnTLk2sPyKOJT+Yj5jntJII0Q6UXL2R4UpOyDRNvUgrVAtIU+eIvIA3FUzWH6I8OYegAn/cFRIh/a083il4mKEvQS3MvlsxrR9ye31FyR5DJHolstCjW4cccAXPY3l7dupogBKM07wlk/r6JDYYsPhMXVjhNcG/u6UNykJqECcx8EDyF4iEh0Y1oajmaWPferIhcNh5DiDo1eQ8Gm6LVPl4Y2J23C8BA1TqeORqvmPbxW4mnepWu4aJm8/qlwYlguU3RIP+JkELLxEXWcWlWNkFVSIWpLStDDlkbinf/UumDlXRMZTIPWDjTvNomaomoAY/TOlD7iBT2yirzxLkGzUXs+dx+PV8hR6RBEI8mGkYDSFVBSq1Jt8Pubs/SMMTej4RbeRomXaUG7kJgpRdXJhSucoy5ZqPSHSN9BlaoA441zXcEGujQ8aBBK+A+wPab/gapJi6E9W27x5SyVXAnK7PFQAVZhpHVLFUagujpRX5NJWPiRiyCDuIC6ryl/4exnhI8vRbsql9hogBnYyJ1DgB5v1ng5+KyKBXoaSUK4R0fOKVAXxFf855y3gu/D6II+ZTYd/ddv3nn3kH9H3XyZ2NxUhz4p4L5+oTpYH82WnGIRrgwZGbU571LnT1RoecsfYtSQttaQdJQ0CbKqChg+PQ1/rhbGaDsoaDd/mt15xUUzS44tM+gyWIifztyqutTsf6AVcpzZZ9I6bEO2y6s7cSckH/6Dp/CWyPuZkoe4S2cbSAdn6TBiUNerXP47bWjiAm2mmJlFGFmS/O7WjXixxEwhDKI36yQj7khHy1NKvP5proutSP/vTZtqpoTREA4OQp86QFEWzCdsHlwtpnhbj7NY2ysu3QqcS5hvqJ2z8PDatVim4OZZgrY9EGQz4WQe7N2EOH7kVT5AuyUgxvZKwxamzuRNJq6an+dAT8EBeJz3Egp4g1F5HGh0ODVpIQ8yggKXcrg6VeIJWMeZ4c4VyKAPaSPfPhHT4UD+0SFGskrq6cKTtK17QwR1hyYCCjKllsNPNf17NO1kjlxatPRERcxKrV7Amwqq2dcTh941IDtXLJKiivI5qFPH+s7gUkZ0DSrbA0TkSMDlpZVwoAFK2dhttdbjh797rsGvNYREyXHp1qtZUGOzKRjan9UecgaZOn82cgpZz43WrAWD8iSfs/06hK6AbC13zNJQ6e3MEyMsgSi8j9P84GsqqKmAJ/d6eBoYjQWI6ArvqULx7msKHWKtpWOkxKa1xoTeMe+Tir47d8BqfAzSuU0/FM21nOR+o6utDoye7tX3xkSOupPxhpqQoKv8OztMBvK9Xc6Lhto74tBZBO2aC/3c9AjXskpFLppaiTW1D/A4XBerGPCEQQe7iiidCD0Ag+fsFfKQ53K+3FZSE8BJ7D5B/Obn+7pLmDO+MPfjAWhbvOwavci9kfPN3HMPpnGcaPjZccjH7e603xkEBgLl+oL1PA8zPYVFL3vbTKc3s9xR6LNWLFLR9vQVpE0JUWllEt3lRtOfnias3XiptdlxyRCSu9fmbQVVZMfLLv/S0aXCvggU1riQ1IM9SG+HfJUs7MEpu0fTtyD1SWCBhi+R3uVZH4HXAXRZl5vNzh5gx8alh8TrE+FlxcWWueqbJPeUf/SCP9zktzEXOxYoamMJwcyNk9taA3UDN4EfZWXQtO/HAHgLi/Ym9ifU55iSQv40kDP72Kz/9tfDkTgjrwd4WpeVJnWhWjQ8aBBOuA+wNELyj1SOZ6Zji4uweI2EZgehIAUWbCqscn2202wLHqtIOlkEARteVo1tFZR6JTH116hSSKhXV8Vud5IVLvW0rxaVmCri4VtzJTCiyBF/Rec3QYKJ5pKkHPVM4ZyAPX/JC7IrF3HjAwsJOoXJawoh2I6HX6/0LtRE6vEblsvns6Uq2L/bM3NwqYCVDymc2QtgdlP5VomG8Jyy4f/wRjHvIk1p1Mz/QOU9exGEEq2IpsS+Gip5f5G+ZsiJqK+6jw58Of6EzW3P1Zu+3XME22SuVUX9G0w/u95c0z2vt+LQgC45Nf0qwSTrheB6WC3+xWpLHEgpIEslzNB2zngXxOR/ew6b+rH1B4orX4afYJYqH9wemRHqmM/Kxtu9mLNE+PePzr2NhERMvZvOo95wTpauMmlK8hLDV6Kqy+c17vjdS06T84Mzf3W1ShOdUR5zFFLt+uiVfRntfLilrMbpU2JA5jg6ZEEv9JwXfiO49aS4Ocj6GfFsInQxe+L+5T9aVkB6c8fIUR8a1nyJpMkqV447IxFuWZ4mHlw+ssmAjK7IPDWrvqILW2pALfC8W92eIGYM6Jjd06jcKV23Np1MPB4dJIp6wZNUE+i5vfr6vOjVtybi+ncMwF+NBJuFfMFlE/vBhL26UqHxM9TMxyno2DZ/OvwHj1YWNbFOwSO9/tNdVW4ck0GE4D3F0NtioYr+dwDDN29vDGnjQVaix+vGfOuf7bJ/NA0Wp2X4qJetyQM6+Tlk7g8DOue+Cyr2/4kOQRSeAJIfp5r9sKpUnwKB85QnFP9/pCF+2He7AEBFi2vqpkhUUak1xqHabZsBZhopgHgCUzWhs94x77Mp1LqwUdLGcxT6K6TlIID8qMRpBFfaBmYlvCqeoq1zRNti0l8WF+R82EGB1MHY06lcBW1/86xL647RCwXOUy+xXNDqH7Wgi/XFJbQaTWM+rB8tJMzRyQhEmvcewwbe/8FXRYEZahUny+t3YoD5LzYQBxzu6vsGZICVpTl1ZdEiiKFdXAj27n/l2ZiQPWJ1s//Mtz96XD0kZmvRV0AWPzuUVwNDbOIEApU0Sxeg0rnjKUKmU962i+WLalA1dyGxeUqSezVxpfqYJu6V9AI+FeAVLI5nRISTG9Wwe3RxwTZKEYictaA5603ejrCkopgqg0ow4bZ470Tzn18ydc/51uymELXjMfI004Jwc5xV+e3Kpa6XCC4LxP1Go4y7A/A/FgF1/hxsGqUHMnVQeLnPp6eJB+YmnFbmg02ACgeRYCpd00h3lzhGJSihOjQ8aBBSeA+wNQLtIafXC74hvNv1Hkj8UtBQo4mVuWzFGX4gFh0lgbjGLjXCwG79b/KTRGw1yEzjORQznBjzOoYhk0Wyqcj3CHjiJN6gWhiIUafHFafvSMGf02hTM9onO6+/z+GA+XpLRwoCQPkvuB63mpQGJRCBzu4fRu+3uRA73OuExilOEumLJ4uMdAI5JpzcGqWInlq2EALwzNL7lt6ThsTuiVgB/SP+uRjAYenh442JqUvy9WoE6gEnro1FPe/h2/s9WoM8gJBpdkrBQEac4F6cr79tZTD6C9F6D0NvVTBR5kDXLUtlSkNRdUboMNNaIFkIYJCSEZMIeOGdPlf0syUssD15iioGdx0PoyEyYdYUA7V4ktJfb8xIrCeUSVhUYfHnHtXHd3idwkGbUdeCZjzcNgP5bAZSrqVOF5NlJd2WYtJ5ixFxrpW35zg6TH6cfsU+jazXVUnfw3zhd6zAICaH5oSmNJIY0iJN/B4Ehb5UsozzJJt5bxEhGzwwyp38/uqsrW8LDVu867ljHcSzi67lR/cXD32vnxjW8GX88YlwF0rfVaxmw3HvqmMDxrppe/O9FrQ776OfLmjvdYStuWn0DmA3AbajP+6GV5SA7UFaCZeWYqvVMsdiW9wpTyO1bVwqp+MiRMVG7hKWjhOTWAzF2lSEhprPnWMNG55dwPQJxTTHkvyYysUteTELgreZD2JDR8wgwfieFOT9FZalf6Ms/CgVHGqzoPf46ddsyH4SLoDZfOF9Qr8mTn2xIPDHBZqMqQDhnsa30BlXFE0e82pVxw1Vp1UfWGc3IR2E/JlSbUhOk3G23rp4lNl3D+98srV+y3zThLxA0uZB67UjkU8T2Lkt/gRDIFoBIlyr1vVsIVc1t8UWW/MW0d8xQ0RkbMarXk1mFjk55cxtQ9w/T5iXXgTNVSl3TKug+jUWjIM1gkyPJepsoJj7eozZ/Vvvc37YE+HQm8nFYYy9HZAhc5PBEGhw8CIaO2sXtWyBJdoi9geVwxXQfPWurFsobBH302vmqZbFlnzF+SUCn6doz8hhwGRsaOEzhSEcYlRm66Ioqotp9wp/IDuDZS9XbiPecj/hmiABZMgvzJKv50GB/+tqZRBwBSnlqnupy1aMKI8aF40RhVtGMU1QkTTuaI8hxX7zJelDXUUWm1imUS/+MufAX//uNBiZOjf471Tz9z5+DJQ1aG5QoayC1d6KdGWlwfVhC5Q4GYJMpa40DTCzu0mqb0G6CApr6RbpB/kgoXUHBoQGJSCEtsXvzXU7axVBQmtL/xYLWjQ8aBBWOA+wNPoPlh3BZ2NnEomy7Dm+moKaRGpmT5xQpNCVgi/qYtUnyYyRCrxWRBbd6SS5Rqh0Ynfk//HbyIY6R8Y+OQaEK0mPGi2MPs2da9eXvmuIys9pKj/EecXnOcHsecfK2GUftx2N3Ffy71Yk0r+Gwfo2lZc25y3zJB+cfLwVbUKgSggjniYsPps7bIvmX9h2J2KJX/17Lk7yyjBBks3/o76mTLpNODHiBFQtfuM0dgb/xjhYixc7GB8YxjPNmc+5InCei03YqXUkpSVB7LWd0ZXveZuY+ZrkKHnkvrZC6Z55jiNS3+baaIJSsovXXRH1iMWEg3Zf1Qxk72qsON4wDvWzziVxZ/geZ82XVeh3c238Fiqh0IOrrcJyKjuqBxw7fDrPCKcRZhRNA2VREW+oOhEZoSMhoS4+YmHLj73suri4NiqUP28H5vNfQsKsxxGhD9OP9HO8boWYfFI/sWljqJqdldGxt+PZKLlSxI9guR1rfKT6pO8ml1BlBIoL2HqjyCQlr70N060Mj7in1VRD6gIk16U3B88lHaNFMXtf1CuaKKKI8fr+417Zd+ajagcQTsUsrnJRM/WhNXuSQyIUtIaDs3SH5nVsBbSZltWtSCTuhYtHfu/h3/xHna22NOmxyOMh7kqjHey1WYokokpQ6eTe7O57LgoXGMRVrdTzmwJQlkSgEF8PN7zTAdbxMlUVb0BzNFhzbqNPoz6kaNlDGcYOBUcxnPOmHC1T4rt+hIcoCPXd0ziDi7AhC16ASEdGS9a6yv/4o00fQwjlfsZ4nI0BGq9Md+qk6qNT7l29eRw6dOyPnOHgUNxagv84m2DXL5tXf/GlAADyGMcg0CcbdbJuN5T9VBGgcdA+1olLQMys8ddPspYvsZVVLvK2P4QdJsCPCec3oq+xQZ8EHUro4CIQdsZjMKk8IPTpvICxOkL6nNldlPywXr0/gJu9tjI43FF9P0Pu44h7N6MCxX/TQpoPA8tmwqxRcIg09ntqPSIHptIBL83hnfjbv1nzCfI4JgHoIb7ph3nz2w5RUGqEZh9weF+L/DEMPQSyP6kL/QUAcezHP+9XQ9HbKGbF7MNNAr1JSGHVqPc599qScEXZYZy2F3pM3cy9OSraF626AyGe820S40ht9y3NBwxkSaMNrwuYRINfjfix0rvxpH9iHtB6autVTpC6UNIwK5oOwQKC78xq+PoTPXr7u23HlumrVLSbq+GjZrmu3GwryXiZNnzYj6+ImsnSN2JC5puJgcaooDBYWVfv3LqnrtkPQm7b9yV1OjQ8aBBZ+A+wM9dPnRVW8GIUyyA76ypedTXp4Rz8sgVpJjMjoZboJIZTp7+Mn0a6ENsWlhv/KRGr+huNcqg4ww5G7eAk/YDbAH2NEZAQaangLh0FL9czud+H2ZyPf9V2tIiiaI1sMk58//zL1m1XsD+R7Kv9jjHQ+fLKMI8z2Fs2oU8ijfiz5R4EZ90g5u1eJJhtCQnP6eKUqYXa7W0OEDLGG0llMtdkpRH5JP3gF+hmjJZG+iRdgU07wZBOmPBalApivH7JgJu113pGz9IsaiS6fUA7c2sXbsbR0aMY7727Ssdq4uq2Btg02PpD2SUSAoGPkVuIit5fMdCTeJswe7z33uHObLmkyKUz9bjcYBe0wqIaOWHi5t82ilIsrl8ZJ+2FFgmBCAbW+sHTyl/eXOwGzIdhjGixRdvCy98PFlYqlcSsXqDh2kwz/IkKPWZ0q+rpkUd+VlKAt7GUl8SKhXNvfXvrzCehpU3dwjMj7Pp2pLfuMea83P35kH79Oreswcdh5xk3fm8ycgBeYmYr8NmmvmDPd/DUI+uuSPJ7v4wPXmURAHZ+6o+62S1Z20tEyKo82EV2NjKXs6E4flPA3fBXQ6SRM1n3FW9gjPH1WMwB9BhXa7coSsLN68aC40ECVr+SwYBeUw/UVCiixJcBZh7Qk7K1HGhOQyBVrWla6j15mj1O5r8tOjczzDr6HQH2zZgnHvsjGR/WHXOX7+27jzEcizKU5Y0sy0r16XjXPPb1z2YVj1ZAVTr1Jq0DRHnjr1JFHO0nA+tuk/1TtGoAjfS8gzwVL6Ta3ws4JOUbQyqOJ+PTsr3kK134VHnaZKnJaDJARhMrpuqDomrf8O5AkGYfGrMLQEuxAsbB+Gq22mnLDCIuanfOxYhjIcMpwP5CaRnUxFANMAXjGmN0fFDwGn50sYy32l2jPXmEz8FDPJcWia47Z5NbUZCxKxQIV7XWFr21flWhFkDRsnF8XqiD/Y3LFaDffyiDkRROhwYhbYPiAAGz1EI6+apUw9nkWtoZ7LHoj7Dd7r7rxEk8VgLOu1l5xS1k4reIhOTV0TKwmAxjI7qr5LYdMatJa+wXRJbT56chaa5J8DzDFUJVM+dkXgD3IbH6hYRItHQqAc9X3vyMdbidUPQIDyF2s3qHNGU2xl3YEkxB5mp1RKqY/5fZW1N3pUab26TshXb8MB3Is8sqbi27Iuz1kSqr/ea0QIz/CSF5y//+iU5cG7Nfpr2w0ESuoW1D99+ZCTb119gimOcPiVGx+fFW9ce8gH4TbOUR9hBRE3m8Se8aKjQ8qBBduA+4P+EfwRUysNKPIzdUNoWinD5+5E0Wb5VrhR+lDAvqMNxnY2bsSN0a/8hsB732BMzFWqO1vFl7w7Bf38BEgQ2AXGNW3F2CQV3RHVOsxKjDHATyfTYIxHqWcWtsCdHcG6QdGxmRZNYLrk+G1apWaJr6LqhisgiKXos1LfzYeMEreQ9XauGN+zrW2DrvPCCxYZhmFvcYTyONY0rfK/1PSwIZOJtTF,
"nUYVufPvvCbk37o52kUAl5uYJESjRNnoArhLGIrjexg9gHZcRR8Au0/ivPi3WGQA+n2sni6ZvFzDVNXMpvH7yTfdiYQOtiDHc0U5Ud/cU9Q/awsXWhVO1SgpUc3fu/U9ZtDMSalNf1CEQhRUSfFLdHNQblPqup/6d9jbe33cyDfpswRpcpQJJkO/gSx7RJnCkffHoayzfddvZ1JZN2WDauzohVIvWn7n5anC0vR/fDAXKRftz2Bql1QsXFwvgd7Un5Q99nCuEuGSJ36+8cNR08Wy9oIGLPrFkm5CIo3AXTQrC7lwh6ZSMbkK8DwaqE+ytVxcg2b4cR1VY86mHHYZUMutwX1Epi6dnIaqfTYavqAMcOrZmtFwU2HtJAjYLNXBtRjRjTDGngx/PA8A0uvAcMNkV6FKJ3rjH9agnEmPGW2PLugWX/VH9x4A58BPwxOOzlZfwHoS5NVG4wrHtWMI3i7jwiQ3vSPWlTbYWdMFKceD72l+SUBT6AMPRKr1CMdS3NOlkLoGmesVykl3NuSy5uifYR8D0VBtxTkFhUWlVn19bm98iNj2RxZpJTSrVDzUOR0UnaswdkUSkJiHTgAXMA2UKd4Hl+sKbxM+rdN+zboASzc59AEGlHIDdn+9qPC73/7yPRD5FG+AH3w44G32c1c+jSSdYS/HGADlinTH1Mcl8YV+uR5Ib03WPaX9OMID24h+jTnO7OVTNeVg1XsU8SfxiMlMAFrALhyDBiSBijgtXhY9e4KFQkhfHoiVNDezrtdzliuuMgN2EkIrU07Blq8LrWdXrPg3QT0FvdNXUxx5ptLzIVkrU0cbFvyJuJarELXu+2uEUfGucoCjE8odu70qfqXB1UwOFePjm8Ynp7sBx5OrGUUrMpBRxq3n4iB6qCmIp2t9NY3gQr7c7a6qWLeCEM5qJsGIy2jWmFNvR/DfpuD0A7brUHCnhk9+gsDbaLIaeEUwAygjQVRgvDCeN0SMG7QjvaNL08lzZNkmcIaIhFg7fcTtRHFz+bJbctX8VOYQMrpW8npa1Ax0aUld45OuT+IitGESNqoboqNC+2FBo0PGgQYYgPsD2piOaLEsF3jhXJDjLd9rT6kOdGRvYEOp8oYVz2lZu8ugHvefMDOPND7m2PtMgg6EHFHoN4wh8cTmoYU0lU1VgPpwoMbJRw4wBBqg8W1n15du9tESI8fZ5fNKrXbf91V3GfAdJOdhDFYwNV3ls4RBZwgoeboKgloIxy+vdkLk8d1TgLM144ZuTgnYqtWNAPNM3KBp6tQTekWOYgUd+zogN9MdMzVLXWT/y8Od9zGeo+cxFh4LLgeTxTFKs34pA4VJ77gFK0imubfU7uZ5nsPrjFNQ5gJWUnNBxfvjjHXM6h0I7g4EQkw8G0kXxeKR8eYUhEocMS5JX+P/ykVtgyCgJ8TlWWV3fv7AGpPvstmNchXldDjACSp58SlQ64QO+uxZND+8IehJUypOSJp84vzxAm47VkXwQab6uc8vHCalydI7jdRYjp4smIDupn+YLGULLdZIjTAjZEhIk3mBeA7Y5jD+IuXLLYHqJ1A412/yxMxXTX3uxRpnbCp0v/J39JKpTDUuQQ2t7uPKNVD8+rhmnBgMf91kNzWy/NP09gRLhjCLv00YQYVkAaQPSq2fEBXNzGyLUQ+tuuikg462he8YIRI3BjHwI96+A5vXcrcKYFcux2MjRi0YHsDegjKw7W9SMfh7Nt/6MCqDoaUKWgiGxvtKG4Dpux/0Hi99fTzC+yNNOGqBlR/JzYX4O3GnTP2p1WUEgBnGixorlf9Vt/MiqEgqF28bdO6Q4bKFI2pcVdrrtXwj45m0wBQSKj4R3uESDE4MxMYd/0CllllkMZ3IebvKySpr17S/QXCDs7m6O4N7vb26a13G5fvaEk/lt+EbRhVdYTz07q2cZ0Jje84cClAG5AA+JWjEkRjp7W6vYoGabWQ3R8K4GS+JG/Taya+L5TDLojIdzV/aCuIpur9Km3JZQAn3HT2CRff3r/+TkeYJ3hO7kteZyslxoO1iYRleSuoL2cRUjkOdf4tNa85DU2/snX68UuHItli/bzoV1yeOo6Pri076LUMyaX7qWcgK+9Cdj7O8Kn1sM1WDv3JtIyz6yGuiNxEvcguF70Y1SiLCQc3+WiFTDJ9VtcpN6kUsdslLeWRSsBgB0fQ8fekYBftdaf2Atktt22hbeyQMGhscwELBANYwPw941UhmQm3X8esAc+jPKhVHHIPeXQT0/aFf1izUdQN0j+eR20dHE0IpvPSB8S0tQMKHSzWcAHwqhxQfsVSlWRCO0/zy4xFykOELHcbhGYabBypVDaDL+C8qTXO41WzW+diKfPguSVbmo0PGgQZTgPsDREqM78lnRZxdRFPibO/cwFTz0ZQGN0jgZcwHC7Dpq/OIZq3UL7Y2YyceH6hkUHmkaI8OUgHBgDG9+AXkKiLdvDexVQqcOif3Drnw2trwkuxDgLMNiR//s2erypeLaBTCTjOf9NgGKk7moBJHvwbYJDQt7woUhmBglW1Rq5xkqLItx3DJg5KAI3RMPRZDhH2pP8XB0XZgFOcYm9CPSglvDqGcTwnlnDLht4QOoQpnNQG3SaKxwqZvnd5FG5YQpmIFD7G32MN3QQGdZiLurxxaqA4iCAwXgRfJzvOvKaLmfCnf51fMKUB2QmCIYjries5li0Fr46JIvw16Ikbjl7YtcIzXJKPT45NaGMhY9Z4L8PT6KicQ7HkvNsYjG6K+eIh7PJ3ahlaEaa2wbiZPx4pLmL+yXnAKbVglx/uyk8Hx4NwiP6ZlvsOovTtmkJW1/NmWojwXHe1NF72RWFL4XZn5CpT7cLhQirLXVSZztwveF7K8/5WQ8CHk7afKDfD91zYZhnhNMhqFSsGTlwUyWiAYEd8fSVe1yZn45Sl5HC6Oh6bfsP7OU1etcSGIJvGM+AMm3UHEPxZCgIxH7sdrGm7ndz9qmZIC0y1OB5m8Ireo/Iuwr4DhcWofl4tKxt6+d30nNDRWYknY0GNf+mj17Zufnn8lm1MDmbEOpCEKkhDml9iWreHjEx6LG3eyMNHya7+SMZlwuGXG5uwZ02m33IP5DRWFDdtFflm4FH3Iw4AvrU4zRyCZKAcpZ4MzrUeMcU51p9rSbIWhMy53LRlK5EkDmWFJj2Rh31POde8QgN8ggNRaoCMURahyqmg3vf6Q++Vw3XuCLXBQkE+YtZ4RMIpl0EBwK04l8hhZejAeXNz5BWr/2r2FJZfq/RHMdvQpwJVCLe6Zadv/2Q1ypic6NnEtng77DhGkoEABlmZW0YoyzzT9gHDWHDdHlwxwzZHEhAw0uMQl1eTw+I2Nxxxa+It049wc22dhWAG3MidaqBeRaT0LBrGG02qbVUOyj3Rgz359LTlFuiyZr412LVxE0cpvVbLk4Sew3LQI33G65eUsWBpKxdMdM0Y4aqcUWsLjKanpeZHt+QLEoH9hpuX2waj2v6ZnHzDCvSlrpOCdZ+PHAsVQ+w882nqI9UKck9T5lnGEFhwpxG/UoXdLeYISHyQoM0i8mAayGed9Vc29amv0+SjGdutPFfDdQ0mwPEd8UW1KJ3drz8/JvGDZcyPBspqUvhGDJ1eB2j3arVSUcW28YcJ1ydmOXQWKrbqB3PNoiAc9o0PGgQaQgPsDT9//uug9fqlMc77g/Hx4cJnfUxINatsopnEEX43EapLagDqncQamF2Iq4UOzRbINfYjvib9U425+otFsw9jckCE6pp/wJERVD8teE8+Pqg9SdEXWEFNQaoTSpnEge7hVfJPmElffVHZr5xrluR60zYC4V6SI75xl5fVQ9sOBWHvSq156HvxKckK0IGocZwyGoScI9YiwStyrobKTEsiHj9ncnh0/trpIEQcODawdbuX1GGJTE5Ih1Sc3Tns1sp/CNrbjBvi1lCybm7Gtdd4qofOEGaPefTr0WnNKIsjPFrzBEK2pY11Bkebh356vy3iiexBSC2YTUa87wF3CA5YblDMBN6EJNbapV0dLebojg1l3YHmmaF2dcRiaxN7ZjlNZGrbRJ7TfjpWMsjNIA0oGWovMt/RrpBxOzdWz1eCMjiZQFbCptEqCYkS+X3rVeghdh2Fr0hX7fT7bdKRxQ6vT1ZJCkAQBB2p0fUr4Kftd3T/JhpbS8tA8h4fGwjbuWgxUoO1HzuafkcPV4M6+S9NydQdF4uaKCryK9QcqI8zyQ+TKZuApUauhlDw+fqF+/kVSp4pXSxhSHoi3cX18hsoBrPfQ+PL9sdnWI7qwI5g06O2pIihrkmM/dnJA+r7Z05e4aIQC/6kipGdU6ward1GmdAYh18wiE7HWAjm/UkByy31tUQLMbMj33H9gIiO3JHIpjhKVKM7BO+Mz6KmS2kOr48Zu6GJo+H9HlwEGjam0QFhVjm8xvTV1Zpkifsha2iPeulhsQO15Fy7cOiNExGDgvkzpkOL7eiZJQb9Z2oeVDZoDlcNy/rcx2Iwh+OTM1yv9LZ2eHQjLQWESMwapxJDO7T+T8HbKE/bRU8XuUc0BoeihFEvOI8+jBVPizCKwHDtftOP+ash/RCU9wBohvNeP1cAUnigafMwXbK9kEEjeHrGnsJe6bOqpUqBYKGq/dpo+m80IYvfaUbwZEaVQE62Ebr0dxp1mL1lbmPtN8T17kVwxA/Mfw2dLQYuVEDL2EEcnohjAwzKbFXxb723B1pCtRLtjmQw2CaFhhjZG1PZvU6L6VSJW8hplRF992vYH0B+9YPduMwbLQZ6hqtSQo1kezO5NCDleZs8dsgAP7pIsNxAOkaZvD8HmVvtZVy4xr4uWHKUb0juicjT9gVJrXri482v4JrnGoMY0refKFJ284+zr+X5QT+ewkK1qXuzzj3RXlQuJoyDPecuJrw84fGaqhFhmihs/kGPR60zaypjoEqBVjbYYqBjjNIF1rvdsNo5jo0PGgQbLgPsDPW0xzx/GzFB7yzA+b9uTRSHXiQhipKjKkEK7Ahedm4fpSAD5loT5LLWfEdQGRJVcZs5TDk7Y3kTLPVPWGvxhiEayp+zOIHaHJBxWtSERGePOQQjRCzm1asFeIxr0oFOdqDBVnG81YvX/iV1QGpRUIdwQd6uATcfav3q3zmxsoWs9CMesCSNNmJi2n+DCG8yz+pPGz5/wp6rqIh0g0Hg+eAdP1h8haELtQDkZFIme1Yc9DAHbFxAweBiiOKzGTGnKmrBKM+qBT/92v69PJgDNUwGIOTCSQ42Hp1UGkNbchf0LejKtJg0OtQcDeX65toGSXKuq8h3cnXTuHBswh2i/sD6CD1hwc7J7VtbH+koqFXreUCngvo14h/aHL2XwxF0vFoRU07C6axdHsns67njWhBn3M/Rdvvapd/fKzUt671bYMGln3WxM9AsGWbSCpD09M9Y6ILUhLeWGwom5XBz9JzLT5H470Z6oo5nfucUCAMoi0eeYhvuRE8ePS2Ud6SJnWIeYvNHE5ilz+c5rs+L3puZLOMHqLDVqa2cyEJsKoke7FyR2Y9PWcDsy3HaFvYpW2XWs8PjEPXpod8P1QPHF++xFFlZ2H05xBbPq86DkwEPmd6Eg0TQzCBBhHlGXt1c01t1LZcVBkm26qb92CZyF7dtB+tXDMENoMAqjtRwljPEBYSyS7RwgK24X0b8UaxmunJxKNc3I/2OAvinPBCRAjx31JJLcVoTO4WWQ67JDX31juSeE0t6SCyvDzkRVlfPhUv+MwNeWkM56iSZK6M7MFe9s7T93djOPOu+x4UEEA6mmBii9AaV5MM5VZzgS+ap+F4ZjyAIbxzz5HkDooAmKz0/Y5HZi5QhfDUiqtma/rTJrArPv5amxA3wIi6lHrqUb1vbDV0wU/wNsw/WRNt3u3ejnR8/ABTDssL7+mulSabPGbSJ6kVzTP+D41AoY+eSbSoj7JJkN3GgdRCpFLdQYFPuvmrPkuzI5EW96WJ4aGMliSBjLu5j036ZHcL6WaVGuQyjkcdP2Q/N9FFwCijez1L8IaZHupIrxRgV5tcAqOgd75ClDkczpIJET7LZgyfFvYalWrSMMnAeqqowWDI6YOmzvgEeKoH5p0zuE6hychdtH+AY6yQ1TcotJ7sfJNoiJVtPsx4wYOdt2gqKWRDoUSPlsubVxDGnR3i5ttt3Y6VxyfjdavD3b+WX22XIxmYVq1kPHPSwCTtvzJ8xEYCiXdySBcsKfDbeeYct2ifzdjaeNhQS8niNSNw5IZXSQhP5Yo0PKgQcHgPuD/BH9ERsEgOTYB97rjpyCxLKa3a1l/L7/VBIYpno/0/EKn8Y5a1sK56sqGQZzj//loKGRlRGs78VMMAHR51E9Ny2mpn7I+83V609q8vOz5ou5j3BFhaK20ZfTvwNEPlzy3gAPYaAvkc6rvLmLrbSmHNBsXXpLcBqUPOm6K7mJ+IodJsjG5buibuCK3FKfNRmDNyVqs50MnAro+c9WiAIBnyORdgp810NWSXkncH/pBk44bYL6G98VT8ij4w4xwn+A9IEm2P6ExsmSiHo9uYfoAX/kvUjUDJisCk0CHa/6MRRGRZ5Mr2FmklTySm0yx5DLNwKf/2yqrwwJjxzUGt8iZmuV+llvg4JaWmqekcqPZulyadweNE2xP6YMUSJkVuhzbQ+gBaY0ef6UzJrYZvehy1oH0/Ozf8mE4MJi9p1e8jbUR9i4QrTFM9R9L/38jrUT95H8nMg/Ng2y6kHABESd7R8XGXhjr0RSgCflyt8tWs27XQ+a8D3ryn9ZoiwvGGVlilO7luN+byMe+f6YscXFtI2tqQ9+7kefYfJoBQkC/uVn63si6MsdkSZqVCVZIs2eCKYzp0JqCt22ubenH8SMwNoVwVjVppL/lTtjfnEQQYBAA648HtJGoiZf4Kh1xAQmxQKQItOr93waWorm5X3niP0+JgOR2BJrkqGBI5NeWLnmiMN8QSd/mfi4OGwi0ZrIQf1i+NGS+bdSaxmyJBjfhGkZByKfXTuBgHtbX9IP1L04uDNbHM7njrEJGBSc4lo/scOPBvIT3WU4qgh8i6K53WbqGCidPUXpByfWfKdLVcHysPMzX8n+/TpEJsYq2vQApY2XAFRPHQqZfEGVQu1HvqKp/5oMxR1tONlGJ0sQqNWKH+FmQQ4e7oZG77NjLa+qxxFNPfJv9zosnjPE3PJkCed59MnRs065WhQi9gOLiSJLbMhdv+e6FaSVd5q/jhIhg2RmaEzT45o9ibI1gL/Ld6mZQqM6EB21waxrdVjUuLhUDGmQnJXY4XdSF9XaHbjdZJfvrxspMkkDpooUVceWZujnzOh52axHfrIBH7lb5bOPLdGswK/vaxZcfvFmMmoH8LxiMvLgQUYUBFIwhGMUk7quGx/uX6PpatRNGw7ir7Qu7anefnE9OtWjiEysztKhlZCxF8v72BINVZQzDNTG/b6OWoRKcr/ervowBUV9ICVFOAGDmv9DEg4lvgc4CNcDQ/suaB1GBr+e3oMraoCBYhS+hNuqhe9ie//EW192plt2wUAUd/fvZa0cP+7bZxOmoPMOX6NDxoEHQ4D7Azw78O3J80zmU/CkI1dhDokAOH3AWisNcrJOk1ako4ihHGAMZyQEUS+HWVkkFoQCtejiwERYFYzkAax4jmybY+Kjzo/i0qOLyZh+cMPgpEjMdOLuB5mJXFuv7D2KEilLSWtjrSxAPI0nL26dn2OxsIyrzwPQ3FoHj73va3gDbMoSIJc04LkOGnPiEOqgYTphMHaCxJHBkGTegK+WFFLv1BhNfMkxdCGb3ecPQmz1XeTokwlQ5qPceuXknm9La/4v9OS0g3o7nkfMU603C1kYicZTYwxZkHZ6857ZJe73PbPUvDmNZJSaXd1ELsT4VnYo+ZgRcFgjj7px4n2sgfa0YlvqZJv+0cAmwSObJuVtIMo8jnOypOqRP0EjjIb1DJi1LIEOKRmmKSraO2nTHNW/jVhxM5WkSHKVunWzJYy5hOhGQMY/AVfc+YXOSkBM33ZvHwYy/4ZMWZgJpohjRIyV2XVP+TOwmi7Jpyy5sbRCJZcwZM3MhgAWXy5imBswRMZgJ5kEIj+mv6cxfxolxKBsPb6Ri4P3jx3kXtoScyji/l5v5HfARjawZS+MKbxNywndmTGrq06tMa0oUmPHm7bnS+xZkf82n6bHwFX0c/dsqFGoN1SU/nQe4oqFHH+ZSSUmIHZuI7YLYj59BdaOCO3ocRuS6FwKegMLmGeGVugrt4ZrBSpHBCs2eug2u64FTv91QCcPttFWRHfUAhpentjoUILznhmZv0bqp7eYt1sS8ZFLnLjr0+IljL6ohjOelctx4T/Rd4R4r0UNAgO8tKDzxoNtzmnF3vBfUnaKc+bbYk4BGvlvDUzrXr1qmR8O6yGRd2pPFekC9c5xyJtpl4ljMihRGcHzlP+4bKGmGL3Uk5kwRZVC0p5GrCg/C2+tW0+9RsPZa6ID57IM7hkQKUapgIABT62c5g4FXUyFHqDBeqPpIU3bI2Ta+Cg2U/2zMCnyEK3aDrfUfeoU2j/AXLYaKQPl4EvvIhhg4KCmiqwfbvyad+FmngoaE/RQ/8TorzTtYaX/fB8a/E6fCX8P3W3aKBBoG2YSNr0NNMl6jAIOFUuf/g+b6XKau8h5EEvJSGSDtlOv8JuOftzkQF4ZtlE156VwQc0dhJugqk8TjvZaVVz1xGc+KphDHd+z9GVy4BY5+BIEv6HtFyOCBR4sP9Q9VK+/OfA+Gsu2FLzhNRoS7kHar9V56FK3E8JwsriEtMDJZga734YNTCDMSzr5pbeIYi8DGp55BAlQxI2d+LnSpXf3csorVmAASwIu6xVcjIQ6AaNDxoEHf4D7AxlBZJV8tH6YFiRiVU9E8AFXlaoqyPMtuf0XGVuJ7tolJBhlMsu5YD/rpOxN/BbXOhEm2c1t1BrIrVGJSrNtmHgH0126TES/KcP43ov8fe0Y9YlhMAt1J3I51cljNssVd1p5nR1XeF7VKVpbyV2GgGP93VxV4qbqmF01MGK1oHXSkIraNBjb5kQSydSsdtUgswyMnt8MQGLGhsDyeQAC2pnLa4eC5ii0gKe71RvGLMSNfFGqzUjYKCurxMaBAOo9PkonH7FADAJ/Kp3bfavyOSDFKX2LoaB8v5bgkWy+YS0xnfHGWN9FXGskkR1YVKioSRC2HrbeuPL+Md21oPjCgedJdbCmmEY9Tf3EV6WMIPf8Zh6mlNpYHPJ+BSYAwsb3YK+hGweJKuBg73G1jdkxXapK1y2uUgzb4PLeu3biUSCIUIyAB1pQNj9z87k+AZtDk9Yf8P+m6QE32IF89r00W8IuELHzCL44hb5Y7KeeGiJrntbLfo3SrH5VRcU5xqdv86GVwo1uj75xEbHhUfGTDTsoUgZCXyYh7lYbOU02sjXNXAMIWuSmVaaTdxFouZDm3WF7M7GirGC2NXu3GVOl1pXgmgtaNc0xeh98qAEWKJxgf4PvrES2wVarQn2VWZiVrj9TilApDGyzXrW3A7/40a1mnncSjhihW/TFaBpWvrSM8zX/r+8AqVJaItrIP+UxJEws86DP/MZggtK19O572OSSSt/UJSERK38osQwKSNwGb8WMraGY4ulaL1GS/9R9ixPdOTxDrZNy029OtioDTXTcp+kMAtT01hWrOJTlPS7phpMicQh1AIS4NkNTiwckM2pLM7CWGKl1NfC/c1ky67NQKm44S53Rl/h+cwB9MvdORoUq67fOKv/Spr0E2nopGa3mct48/05gsIooOro6s6vLKA3BassCNBmvxUU9BrW9VXMHaczGC5Jmp5Ap4lgYXHphnjjrKYSaJEQ9hAlq2V2TVfYRFrZXzgk0iqS5APdRQZjJ0QLvRccsulmQiwWCcj0AOLNbkv2FSYrFbHoCuB3SibhWMh4aNFhYn2ex6GtLDCdb365E+b7nxXw6mTfsaQyaH0ilgKZ/Xt1ki8wOVB08VpH8ZeuYtuUyO35mfO8foOaQ0BQ03Dai1VCVe4L+5Nr6SPStIi6pXGJgtzUHRHZ552K3TmXGThztLSv+bjixX4QfCs62dIa9tnk2Ke4OGtLgWEw7WKCjrj2ZvfQGbBzCkFy+pYl0RUu7Qdc+ARoOFgn/xBWIBNUw8FVKEPk2raNDxoEHu4D7Az+VobvhgZlP6x5pc1jmCVe+AwQi4z04CWWBHDL0HpHRoQRoB3Y3EBdMt6wHA8kWRP03BCh4VmVVR7v1tSQY6r9FVoUeDwdgomHTJfQWfn3J3oiGfJdy2Hxjds6dQXsiKxOIWIvbJuhv1fDMByUpBS7eo0vLyFGVfvsYl9PZDyGHihaoZQCzQUqzJbBUWp8R2tVEb2ckmq7lw6v33kH5vaDLOmFfNNyeuhU2ndciJRkRRgiMzqIYenisxU0TK1sbwNomBRRhh19DymagpVh5aQbJqqC+DnuAOU+DfnmFS2GbMGjmvJAunhhAMOkhNRBgb/80j2OUQAMgDuSABBot8v7oqAtvqhrVmJ55Ua2T7fkZ3q/6XANnobs/E137KGNsMEE9dKGtbi0vEvXeAiiiwsRWMNiywopDhjDFo3cDXVdZPyMY1WzDTNkdaGohQXQcmHBgoHIVq2z96CvQCaJa4y1928eOBOw3BfCYda6xr5AoME/ubLsIYnjRqPcr4WWYvfhyFBN7mQkdCaRv7RbLJAZ5SiS5LiHICAqLv3MXGU6kBkzIMwHJOKWYuioa8kqSXKFGSfCTvmewXdrT6v6mkA7oRAxEyO4COSm7UfP4+bzyyneVeDt1OzGq3JM1Vcb8Lrnbp8xCFZeY5QWnJQt+9FJmbHiYEEuxc8YD1P1R7kxtB2Apafx3SW97NuNptHDjoyolxDplRP4XxhwdPdQLCorfrF/OrSZHsb9Sl+nMOBWb1B2LcJ2DDjJZAApJKtK+s2vHl6BDMlc4Jx78aN6hzuPhc5VJgLPNjoR9iAc0sYl/sMmW9h5V10j49icbSS9kZtqFeGISlSJ5VlIqAIXGSHFPvwwG+zkMoVat8GtUFYRMHe05xAyKSamhFF2HK75/u5W1y7cw6KzYWbk2slZqsBLyr09BvgIuYHa47GvbwK8SCEtc6zVjhnypfl6JOg/XKF2nDsHdR1jLvHzTLxT1BAysI57EsHxsA7n9fA4xsHLDfKVXxayKaNrkXVHQhf6/ceHWG0MJMlYbD95iRGQ51PLN1YV1NMZPCzTRB502s/7npdNuIXXcRx9Fs7DcmMkcHE5KSUa+13Rbn5GNpKH3nIIoXKeVnD+TkFaEfb7P5M2UXkkMMUnbPpqhaaxgG+pH3UtxkmL9t5QyZF0d07HEj/qg+wMwo/KhURoZM7KPbFjV1i2gT/nIsEv/JJ3aOvDEXbzSpyTD+kiC+3eqhXjcfL05+Y5b/8vHtlOK43MBpGP5mPaFvFlEDNR5sUb4kvTM7KNDxoEH94D7A0Dp3/EcPJdCVma6SyAPs5vrNWYXAz+I0mJsUcHP6fXk8hxNXK1hFmUdia+lBErxCvklrte0Z8Tz80CTm8IsLAr5u3z+Vl2A0AdasbqSbW/MCxQ0qd/NyKpBpzE33vJeVKC5UYUUDTeLl5zw0SK0YYuglPiluZEoA+CeS5sotan2AKiWvHPkbagGEvah8wDLuvFiJfOlboaxlGe/XdEA/JKOgPxpa44I/8ZzZE6qoscHA68pzl1Bp+lLKM10bnpdh4gcKuu2CzBpddTiceUHTQD3uUlMDb76JvuRpgQBuV5Gd6yTzs5LDOOX5n/HDIGyDiQ6vivkL8PXqvzzbZ1D2GT3AMyZ+GH17PnCB+ta+hygfR59aUB5wis9TNhLQQOnQ1G2jo+oFKPryHo1S/VZ1Kid+EEnEKypUbIh8Y3LpCQbUqn2xJMo/S7eu9/z26eFDR8nBvSBnGNIsqCtVdV/CAIOS1T4PuNOnUO4Cm7orp8kwtdy8te2AbucUJOQvrtjkIsxiiQbkh8rG9SoC3Qq6eeOnN7Q4EISQ5vtR0mTO1XNNPWxU5oeTkp7QbhjBap/4d44M2aA7Wf1fXWpT4ROG+N8R8CKKSKTGWl3BQATBCiEeoCSrwRB7HQgbxwk0Mrxs5TQEqx+jAF5X6z9wmPlX8tCSlgoCwSGFyuVBkO3EszKlTeKfmP83y9RxOvL+2mTXJHcW7PDTGXjEXQylb16Jh3bgVJSpnafcQ7l9rsV2VD4Z9C/GIRAPl8i23g+iC+jMMkl3xik7gsy0so39Zp8sXOoOcDY/hYBTKRyJjrNYh/0sIfScQFnxofBPtTByharZte6JqdTwNBy/KV3qI/FQQVEOzEzKL09ItK+ng3Sg8NhGUQpkqFChuj2IeEg+cQwRLATtgKnokyBj5qEPOFks/FbuY6emR1kM1I0BUV/mYyhFqW9LHaebpOgJzlR+1/uh5N5JsWQNGk4flQfR6VFiTw5zjBz3sb3rXEf6LMDcMXYhKI1CY3az3b+6+iSN8p1jAU8wwkOIRpdC/epFraF2aLCM0Kl5k4dwbVZ4r9uMkeQHemyqxit9YanWEntEw5XJatKVSS7JjAkH/0nrdAQa9/0b0pWTg1OLSJeTNnSIR57JFoeBdDbIje9YRioKtYJ/bzgTgjnjHg1o/FhpGVYZANo5jzGuvT0fyOzefGY9jRefwDPb1j51vVH+d3CfMCKu0ETUEjcnUiHb5iqMf2qr71L0QQHI7NDedMI2tviiuArfGlkq/4Ii3cysmFdsE2KrKNDxoEIM4D7A1sIDa4nmmXVccb5U4ZfOA5ceVyDDtwaryElYoKWXfcOGYiohln95PUwvnoMhYxoMyKM+v63LkKTtMfsmJkhEx5aQdRVlFXjbuqeIEkcSAUtK0WcEKGhwzjxdENE0z3tsJiSmEMuw/n88h6wBa7SQBGKsunHonTOvullelM7216q8fpU1tkuwR6kWM0As6EUMCmLh/V0TjiIMQxnIfWb/duy7QBY+ZCGAJ3UFqN3T5l69yE6RLwinVcv5wkU5GYd7x0+cB2c4JT2ua47jeQyf7x4mMWuIyxSyNZjBz5TXbrDDB4a7KAK0QHt0Qo+zX0iUqyM5lNCw4yG3fxhxnOp8+knSpMJtRdOTGOPXZCfzsU0W3U5cvPDAZwkXHF7ooqVnRrNr153y0z6MtXp+xq+LL1iqvX3KAx9vu/S2lQcYlJXUMUmmlsHDKJPiI2yY4NXVy73WpWIik2s5eyRVshChnbHBxo10qLPICr+ivWlY00tds4mM2fIKIqhD2Z9pTvJmQ3sonSZst27i9VxqHKyfthm5nCgyfkh2hwYW7P9b7kHgE8qP3SStAsm2f3IeDFmf8Cx8baSl3+ERzri8PddF0ebHzm4nMZezwD3+AJ3EBc9whf1O1AFX92Ox/rFxQvvxwyAWGkqv9wl41GGWFcPgdilm0RZvCXhxiT5uSRXICSaljjLQZC6E8phEb1rTHMWdekI+AcO7J8ajClFJ2U0AeQei7rH3e+UotfT/q56DIoRESQHhKnD+6oymOF5SlUGm2KrhpaYDPTxdRA5pN1rM7owepiu5k5nP4ZUyLsjp/0xn85RsG3cbytgpVoCjr/U3Dr82I1zkb9grYDumXFCmf5A2nDcSIwDingqor67qhL1tCGUcvLka0D5m5fsmdHm/bs1p0qQYu4esF2aRPRdS8W1AepyjeY0XE/CGiKpCB/a8zmpb528By36FVxZ59vmK4rC89NZG6DITK31eyBVuz6w4VVgBXIJYRcVOFXWPC36+fttwUe2lEMgj+OPfQR7nRnw2XlwyEhOd86fjGKMklKgG+8VMD3Roin9afPdxgixA9FqZguGfBB1upCxPpc+OIiuo8HIzDzHOtdf/vmR6MhbmPM4lu6IbVhYOA46d6ukb0l7rysmoaKiTjC4lNgDpddEC8PJjpAo1O2MkaC7GZxWorOFqRW3p3s+pSoTqaAnehWweOY1EBgG9R0NBdlH4/PDeF+V3vpEJ5sWc5JJtWXK7NlFWVy/4yfyddwcTJ1asj095xbxvHkwWhT5NW5ScaNDxoEIb4D7AyJcXAooK6qD5NwN7Lm5J/oeTWLBM41aD9H8odpUGlklYwSGgtytlIiG3ye27V6XRI7wcgFg/9vVUM1+iEJ5DaraeIzYAjS66UCSJxn8xQEugBZVL/S5fczEdk5+M0h8HAc59HOlmG/pp0+FXLEbSxTvjH9x2LY1XjFC6czfsOxcKyRWIqXFOlH0roIJQKibQU9n3HfE+sKHRMgCzijIYpR7utwu1w1xYs2EYWsjIpsTww6dsYoJkuNdsI4f5qaqAE0YUH7iLj9Db/IMI5E0Pmf4usSC6PRk87XbkbCMXaS+6Wu7om1Eo1fusTYDtkQaE403XoN7pup2QFwGv8TWHwupnfsxVRitM7CzXGTj8gf7S8X+4n5WifuRUnhUd9JaWRRQAFXn5eiQVq6ge8qgfiW2JKxHYBqZfYylPDh4UqEyQIvK7eNBIFmbIiz4tr8wdW2XnOUrDEArC+jLIczJJu/Rn1ntqozl9ZdS1yHh2Y9XcAhr/IhUMcC7LkZ1GTDRHq7RNZpahqdLQOIP1okqcIhHjGxZiOK12WpAJqRoeMJ83Vl9CtE0iZTaLVuuZx4mURT/eQHZCavD6J12sKquB3xP3xZTPiBaK7Jfu8UiUBp/yhz5v7Bhlxy270K1muFiaO6B1NGr3EBNkAasKRI3URYCdn9Pd3LVKitjRYVoxeCBRC8FJoMvyBit8SYQMNgc6Rgq9duqkrkyQ3+tNNkGWreTcLj/PcWk1gLOAUqiWsPqBcyTcYTEgRfqf+VB/UxAAY1sTCiv3GhzsROt1V/2LMNII8nlTyZsCJU6g+8GuppJx9ri9Ckx483E41VQ+Ma5Rcn97Igw+zk95exwib5fgbJPpz7GqMgHBBE6IWTg3rnbJdZ51czrCnFQHydeBzf5o2Bn89BzAvxWeYQK3Z08Kshxg2Mk1u80qSKe68gp7D2jGggpiDD+NQso9UDFnji8KdRIn+QcJTGrAWofptGpHdphi74jJgSOz8zMUnHhDID71jkKx6tFv6iU6Fykjz21h6Ucz5oM4AexirLGx/fssQGP+Ah0VfIuh9ZgjCu2P/fXhYk61QPxaK+1Hfew+Thjh8n6SSTr130uWeKeIoxIhS4WRfC2TpkBHHw5HkApBjIrsAioEX+oF83wDHWNTDNDeyu97lKTrhPm/aFgGaEhUsIMw3XaZ47O1LKR/ievafAYh0QuFKN2ZNVWfzD7ir/oVJTdVJEe5Xwe7yaQPLF3Ht2Q1/kh2R1Kb8mvuIlWKEKeFF0GLGCd3vqpEwd5t3GXOaND/YEIq4D7g/wR/BHxTc7LPDbk1m7vbxjgqIykm71P2XlZpUC1xpX+F7/9yV62Xrx9sb/kijU4Fp1ZTfGJ3vDLnj46AxuAxYDzoqg8tANHULLkM288znEvtCHOViG1nDtcx2BwaBibfsP/b6+MIjfshVVX9dr7L5/XbTmysK2Yt6d435T0cVwgxzSM2ZLTe+enKo2ccMfikGyVrJ+hmwBO0G9qW+0dbrCh0otd2w+/mgh8pBtZz2JSGB7zp10WNzTNh/FMFnJo6ulaWiI5uJMLatwoNH3Av8c0rOcZB7pQ9HwMZx2chnMveogLrye8d8cp5EtvPhA7GnXQWv10edc8BZobr0OoouOhnrC2nJqGa5UV28PnfG+hAfWZTZ+nT9i1VIflN8E0bwtnHrrdaabrgGH0K23nN6kTAeoTwf1+4sWuHrsVOUpvfS/C1T82dwBYw/ftihnKB/QqNY+YO8jBYy7DGygYM5XzeHoJh1ZWnjU0CjQTyBLCbZQ8GbzG2snleXmZrX88/x2oYmQbouW8WS1i0GEjvnrRs6FttBg/sne9ipi/6/uNF8o/gWaMBm+HvjuhwQEg2o57BI1/wve20gTwZzRA5ACnrWfbZ7030bA7XAa4t5b13xzB5B/XLGgR8rRypLUtTPpSvLh1pt2W4oHWSU/uEUHx1mlzQ+Guvao0ZdEnPAEaJC7/dQvBHkFkKA5Z28RHejTYXMJbMZfnhc4D6qvMlPRUlt9ZZwCjMCtWdIqYJrlP1PcfV7MGgmXJLtAYIaLv533AbCPmwWKTIAQnXKt+PAXfzz0DenC/mWL1yb685NP7H/jfjrnEEwLkjcbtakwtpyGbBkrWpuJQz4UuseHk5jSmNWcBPxFFeFphS+oh+5TVRXDE3IAyLiY7frUOw6eRRHQZ53/vkscb0d4rRT/l2HEU97q6fDaEuYpjmxw3E55yDucM93ouzL5/TTlRl0h8M+ZRI4o5iMzkzn5KVfRNYjWYXQNSPds9Z1fuzUUcpxIySykdXwV8wFK32yODOcKW312+fF0KehFwOny59pSrHmlkrFid1L4VLINIvY/JtnyCrLduDLwnVF6AZ0amYeUWofZS9fQGjBQoAZBOUgNLPdz//EvGwzHtZdksyceQG/RFMqDLhN8fUsSxApVzX9XVtFvB6MYIXKRirFT3vt/xCFY71U+Cv6i/p3zbaUcc49BvyeMia/R9/psiXJ/GOJTAZPbhSMXKGU8rNZwg75uob/BlIjP+xfcZTbA86HFNFVyuV4h6wbQGi/m6ykrBuey9AvhwgY573OSVfqt/RgTYRAi/OKKGlJIXvnNlOWugmpr4n94bumILbhqf44SvgD3zWTln9H/SS6A=""",8,,,,,,,,,,,,,,,
,,,,,instructions,18,107737,0.0-7.0,puweefsfd658k9k,puweefsfd658k9k-2024-04-14-17-17-57,1129,,"[{""page_index"":0,""viewing_time"":1128}]",,,
,,,,,image-button-response,19,112239,0.0-8.0-0.0,puweefsfd658k9k,puweefsfd658k9k-2024-04-14-17-17-57,null,,,images/schemes/flight_scheme/flight_2.png,null,
,,,,,image-button-response,20,114942,0.0-8.0-1.0,puweefsfd658k9k,puweefsfd658k9k-2024-04-14-17-17-57,null,,,images/schemes/flight_scheme/flight_2.png,null,
,,,,,image-button-response,21,116743,0.0-8.0-2.0,puweefsfd658k9k,puweefsfd658k9k-2024-04-14-17-17-57,null,,,[],null,
,,,,,image-button-response,22,121245,0.0-8.0-0.1,puweefsfd658k9k,puweefsfd658k9k-2024-04-14-17-17-57,null,,,images/schemes/flight_scheme/flight_8.png,null,
,,,,,image-button-response,23,121974,0.0-8.0-1.1,puweefsfd658k9k,puweefsfd658k9k-2024-04-14-17-17-57,728,,,images/schemes/flight_scheme/flight_8.png,1,
,,,,,image-button-response,24,123775,0.0-8.0-2.1,puweefsfd658k9k,puweefsfd658k9k-2024-04-14-17-17-57,null,,,[],null,
,,,,,image-button-response,25,128276,0.0-8.0-0.2,puweefsfd658k9k,puweefsfd658k9k-2024-04-14-17-17-57,null,,,images/schemes/flight_scheme/flight_7.png,null,
,,,,,image-button-response,26,129040,0.0-8.0-1.2,puweefsfd658k9k,puweefsfd658k9k-2024-04-14-17-17-57,763,,,images/schemes/flight_scheme/flight_7.png,1,
,,,,,image-button-response,27,130842,0.0-8.0-2.2,puweefsfd658k9k,puweefsfd658k9k-2024-04-14-17-17-57,null,,,[],null,
,,,,,image-button-response,28,135344,0.0-8.0-0.3,puweefsfd658k9k,puweefsfd658k9k-2024-04-14-17-17-57,null,,,images/schemes/flight_scheme/flight_10.png,null,
,,,,,image-button-response,29,136106,0.0-8.0-1.3,puweefsfd658k9k,puweefsfd658k9k-2024-04-14-17-17-57,762,,,images/schemes/flight_scheme/flight_10.png,0,
,,,,,image-button-response,30,137907,0.0-8.0-2.3,puweefsfd658k9k,puweefsfd658k9k-2024-04-14-17-17-57,null,,,[],null,
,,,,,image-button-response,31,142409,0.0-8.0-0.4,puweefsfd658k9k,puweefsfd658k9k-2024-04-14-17-17-57,null,,,images/schemes/flight_scheme/flight_5.png,null,
,,,,,image-button-response,32,143616,0.0-8.0-1.4,puweefsfd658k9k,puweefsfd658k9k-2024-04-14-17-17-57,1205,,,images/schemes/flight_scheme/flight_5.png,0,
,,,,,image-button-response,33,145418,0.0-8.0-2.4,puweefsfd658k9k,puweefsfd658k9k-2024-04-14-17-17-57,null,,,[],null,
,,,,,image-button-response,34,149920,0.0-8.0-0.5,puweefsfd658k9k,puweefsfd658k9k-2024-04-14-17-17-57,null,,,images/schemes/flight_scheme/flight_4.png,null,
,,,,,image-button-response,35,150709,0.0-8.0-1.5,puweefsfd658k9k,puweefsfd658k9k-2024-04-14-17-17-57,788,,,images/schemes/flight_scheme/flight_4.png,0,
,,,,,image-button-response,36,152510,0.0-8.0-2.5,puweefsfd658k9k,puweefsfd658k9k-2024-04-14-17-17-57,null,,,[],null,
,,,,,image-button-response,37,157011,0.0-8.0-0.6,puweefsfd658k9k,puweefsfd658k9k-2024-04-14-17-17-57,null,,,images/schemes/flight_scheme/flight_6.png,null,
,,,,,image-button-response,38,158086,0.0-8.0-1.6,puweefsfd658k9k,puweefsfd658k9k-2024-04-14-17-17-57,1075,,,images/schemes/flight_scheme/flight_6.png,1,
,,,,,image-button-response,39,159888,0.0-8.0-2.6,puweefsfd658k9k,puweefsfd658k9k-2024-04-14-17-17-57,null,,,[],null,
,,,,,image-button-response,40,164390,0.0-8.0-0.7,puweefsfd658k9k,puweefsfd658k9k-2024-04-14-17-17-57,null,,,images/schemes/flight_scheme/flight_3.png,null,
,,,,,image-button-response,41,165861,0.0-8.0-1.7,puweefsfd658k9k,puweefsfd658k9k-2024-04-14-17-17-57,1471,,,images/schemes/flight_scheme/flight_3.png,0,
,,,,,image-button-response,42,167663,0.0-8.0-2.7,puweefsfd658k9k,puweefsfd658k9k-2024-04-14-17-17-57,null,,,[],null,
,,,,,image-button-response,43,172164,0.0-8.0-0.8,puweefsfd658k9k,puweefsfd658k9k-2024-04-14-17-17-57,null,,,images/schemes/flight_scheme/flight_1.png,null,
,,,,,image-button-response,44,173296,0.0-8.0-1.8,puweefsfd658k9k,puweefsfd658k9k-2024-04-14-17-17-57,1130,,,images/schemes/flight_scheme/flight_1.png,0,
,,,,,image-button-response,45,175097,0.0-8.0-2.8,puweefsfd658k9k,puweefsfd658k9k-2024-04-14-17-17-57,null,,,[],null,
,,,,,image-button-response,46,179599,0.0-8.0-0.9,puweefsfd658k9k,puweefsfd658k9k-2024-04-14-17-17-57,null,,,images/schemes/flight_scheme/flight_9.png,null,
,,,,,image-button-response,47,180307,0.0-8.0-1.9,puweefsfd658k9k,puweefsfd658k9k-2024-04-14-17-17-57,707,,,images/schemes/flight_scheme/flight_9.png,0,
,,,,,image-button-response,48,182124,0.0-8.0-2.9,puweefsfd658k9k,puweefsfd658k9k-2024-04-14-17-17-57,null,,,[],null,
,,,,,html-audio-response,49,194733,0.0-9.0,puweefsfd658k9k,puweefsfd658k9k-2024-04-14-17-17-57,1751,,,"<span style=""color: red; font-size: 24px""> NOW RECORDING</span>
        <p>Please say out loud the list of the actions you saw. The actions can be said in any order.</p>",GkXfo59ChoEBQveBAULygQRC84EIQoKEd2VibUKHgQRChYECGFOAZwH/////////FUmpZpkq17GDD0JATYCGQ2hyb21lV0GGQ2hyb21lFlSua7+uvdeBAXPFh6ocF4/f+u6DgQKGhkFfT1BVU2Oik09wdXNIZWFkAQEAAIC7AAAAAADhjbWERzuAAJ+BAWJkgSAfQ7Z1Af/////////ngQCjRBaBAACA+4P8Mv8Jeb3e9bINf4zJsGihAPi1tk7GSVS4n2PcTLFQugsuZuc8lBkajwoxMoSTPDzUo0S77GAOH76adBSKAcQAYr+7p7Usay1alxU4tcqeilrUdJXo3OgcKMrZIHHmuaRHSJ7EsWV1DqV26TQy5g7kWH92F0iwrZyk0wdNJlAd1MJDuotiY9UkbgZ3plAt74DTKrRBZ9Z2Jy0MqvWiAd8wzSho0beib3PhpJJ0zsqocUsMxTZho6dzP1vSgI2m5zzoL2UyChs6wnn5gAAAAAAAAAAAA52Nv18CeIGTtbp7FKQW2a94/5waAKM2Zk/AYdQ+/kcIu8cXrfQjXt1IWTVPw1DP/0E1JzUb2lYcFQbS2lOtasruAC/0cqjk+o94vMynjZoRCORMorzdGlsF24FGpquvbg3ujAMlbX1klcGf6oi+ybeR4su8JOTNJf6qn57f4Tm7k9eGK8HV0eMSTpZoZ8xviV5aO5O8zUoWd1zjkWEVpbJr5Lh5//hC9aBW22SQ9uzoXUYmJk/logJY+GFCjCE57kPhniKkSoVf0kdhMRIw90484q49k+ern+Llcjpn89pm3xg17TEltzsIUgyuirWMn3iMPL1AOiIgoAalR4X+dZL4hUrzaXJyotIVGehL13knuCpUc4ChHKZgareX6b7ubHGOufDbpuGq3xFcMwbFyId701QByt9986nf3VNsVPB39IpKS4i2YJH+LMrFx94D+vnLsEQQiWf9VIIoXovaBQd9VhrBlkTL1GA1IDt15vpkZBoEtXtR3dZ3OdxG9s4zm4CB48lIFj3FqK/L767sb7Zq/vgpurvBApjJhLZYBstghnEXd7/PIyyLSCXwlQU5p3X0RbnhlC7fH9SPvGJWO7K6iiQPvgKNr+Zn9Jmc7ObG38XY5MiAKROYxkPi/3k1RRsLlsWxV6I6HCXSjlirXCvtoaYV8tWubgN/4LYdY8SJp23OlH52MGLsCZNihNyJ8ES3PNzMTtkTgsTCueAa13Z9yTdBT+TRIte4SwvQxxx6Zfhgk617lMWFWlQ2ixIMF0BwfUEfuA8KopDuiJH+MdZRsQy9PEohEkNgUe8ACXc2iAaAh/eGeHfih7F/WbLY2TQqhPpw8kWKp+Uis822ZknBlbVR0x73lWTQWMROCoR0AvHwLebIl6TC9AKX5Hf0Y28kZml3pl7TiVJN+z8FMy2oTFHZ3iAUsA3QraU7C2yTy7ToF/T7qowxq230/q5RiaxEztBxTs/ykmgd0xq4WEDLsw29b+LGNZOiHyWqAdEKwtP9DVIo2HtF27aZ/IZIwOL7VhOMh4H3U+CpPWYe/DgdFHGcJi+0k2rEs8h95bfBVKKWEie+QV4xEH/0kNDehc/QT8OkAObcB/QbkqNDf4EAPID7g/0K/wo7nLsf1LPWWZ87MWRyAToUmU0rhCMWYmqAsi+xhEQri5N34xZ2H759IDgsPLkSpBSOX6R9CTEvCsUzY7s27Bnvfts7INFPnFPeZXVSK3JTjNEmXRtlN+32J6xVGP251Q0eXJXcVNCoT5oiPauJiswXq3h8rv2ZZWJZ5cr5DL4XzEe46UJwkGPdPChALMvSC9ka+KM12cXLDZ/xr/fXR0y1H7JpsgGH1lxgqKbupu/qfVphZUuoytBgXYaoFcVbbSwrxae1vc56+MsaGjUgFVo8mrSYVOCp+39D+JsXg/rf0/L9rxjgE4cu7DXdp3Rbmtut3GG9ImOBrSWiOflwBM7/k7eT3ePbd4VXS2l39w58fHQiSY4RZ1AUSR1RCDPFcjHgiOxkjkLHlWQbJY4x3m9a6EhVdngOrlUEuUZ51jl2diizBkHhrDMT6dEtVuiKZtFWEiRZdKTuYUJTZYtoGr1YFvHXm5pojL/O7gQ//3uBLtDGbxlKCIrL8dWyfnjvYrFioqvxuXPhupSJwz+NKi0S3e1m2fQZUSl+LYiMdq+wDI9nneelrQEs978Kas9nDowhZ9YQVCwGnvUb5/dsSb4bwUJvtR0NfKWLLh0NyOYcOIGyA9z7iMfPRZlo9pB2daUYPxrK/ay+U7a4yovNXxpiQfqA9M26SkprLwAur3CQD1k658ysnVCRrfQAB3Shbldk0tGpMYETorisFFo/3xm1eoztZQGKnQoD2tpb6OF5ppJkQFBENJ/O4v15alqqj9Ianq2/mUob4X05ts8cFYUxko/CVE9U47gnfogxp0JFBq9BUXGA2tI9MPgvX2mLML5z8WWhTidFklYAx876EiMnXovxE9INEQL3987f8FoIRKdGWUdQLJLVvdlc3Ujjnd4tGBEMe1hINZEY+SEBrHsOjxMz3O/2j4Zc6HMbXKsu1gkIHTyCHlLIx094vmyVyUkjq/SRlOlrKeOQW75CezuvdhybQpXGicxww6ehE9UJk9tS1NoYABDl6w5kzEvokcdQQFrDwos+SePeMvD3Lu8Z9DPQm2BughyAwOTgczqn/vVf6aaxktHUsG387XHj56+qJNG5CDogfZ4mmPQNOO64PBo2qwcuURD9uOksfJ4hJTvoXHdnZSttWUQqOcAC95VYz7B8xqm64IKyufFqjAe14G8OlDKjQ8mBAHiA+4P/EPwRIzS3gRQN0qS4Ug7cDYH3uCCFUgLOEYfORfhSqIwj4Zx0Ssdei/pTC/xIWUmAERE3x1+7Bc2AIJVrfE87JNxRR6hL4C3QKKEjtxDK66tdxYUw5QDygyXBRNQTWiodWsx5BHgQg07x1bqlGpRY5n+6c6A2HRE4sMtlr7ccrKEiW1luXVrvG59QueeHo5MLsYmOLMnmTMhGrLe4z3edBQennExaYMKqjgkb+4cNmcnFwEx/22DyLF075TVXYvSVrktl364qRURUyiZNAdsTT9SXybk33S+nl7XG4QXO21LKHSLxUexiCLS7+7KIeIoYRK8ltvijSe+4w/XR3GFfXrCWrgO8p5eNRLuERQkfsjdsq1wRQKcolBQNdtqjFgNfnakjNHwUCc3krnLQ44l6j8CRUaUHPpDP8gauheJaLpK4eEDrqhQwQVU12qNNiXTOTpj6GPEsDPOXv8jAXb22706+OBmQEy43nCPvgO2+iEFM2kRk/b0cdevF6JnmUbjWOWrp+q0+X4OoFTzBP+S4F1I2p03PfV2sjBlGOp4YlBvOKyMAl0GP31jgNEtryGL+b/6yShpWabsQt9nKywTM9wvw53neZFfGA5IkNbfFk/iSQ3pNkJrqMxftzZW0ujJBo7dNlZo2mf8TwVGIC12jCpE5UtnLXKhTK07CQ1RAIk0ZvgESM3Lyr9mjwFSvPs+6t9QBN2YzoYpP4LyADaCaZ3FZScWg9U8uyy7UVmpSrVQcMVQHcRz2+U+8PgMp7pGSz5y0HipimTNV1NkDiXztBLSyB9mWl6h4uVvt4uoJTx53+Agj1I97djghdDk0XdOATidYKMhDSr9xh7uNKmWqPc7sIj3JQ1b6OUHf0XYfBTba9I5zp/v77TaopgGmXrbRnMHK1RQvfxOSVeZZduclz1sq+7Mr4mPEsnsmenRE0avwWuOAMPs7NeQYf9QZDLv7ZikKoYSv7BtlLLztxc//P86ztM+dQD1Qsc5By6lUE369wQEt8jx6bM1mpM1R/U5kUKJTiaZ7Lr9Cwwip4q700Zn88IJImBiP4tETJa5+qOSbwUeOT3BjoCnypJ4OuEcl9np8DYWODBW47N9niipNs55WIuvUhHcm4Dm9jXiLBCPDlXkXZ7NFKcJaqzq+OmrrwRQtR4WotmMx/+C1rDnZ0E5kDIaOqhd5zlw7Xeri7S/mt8/LIMuyvOq1Fryh/7EcWgjR60vIbcX8yX90gHTNtUwTFiv6TEjDaSCiZNL+nKXHkfCrl/DkeYtMRAfzJOt4ZzCjQ8aBALOA+wMYxeKAxpgCbpagSrGEY4UtSCFHBA5R2LUrmpUs9jjJsR0zlp4dOyp7j4rkIuP6TPaOmI3O4lzNO7rIA6ocwq1EkFDAx+u5yUNYdJy4LtbgahrepTzL4hUzG2UA80ucMA++JmffDKga9S/a0pbhZcjaIXOD9c8d4wvRH0VVJ3XYn40vzQLSQNTQAJ3y8zuUKB67oIje2jUrWZd1FkxyLMXo8nRS9TDSoFqlXLTBCjxlfiEbWqB+4k2mhBEvULLoTp7zmMOmZ7E9t2INSNcKuaK+X2+m9zo+Koe4EYqn+eIlIRBqM9h5kwkt6bAYMe0shee7fE5Csd7l6x6nqWVmu/cA0WaxtOmQw5873FaGZYVMcSxApwsfq+LSGO2gNx/ryjlwW2ck+OGwQ0apGF8ACif8on5M0669KQxBt7Zlfsl+ota/gG8bT8Adfedyrz+Cds37HbczdI/a9j0RuL1hCsi7AeZbcOt0Zg/oLp2Xu7FVjU19scgmXwll/Tg7VeNTGb59IYE8rrwhzTEcdos4V0FrtzpwR2Jim0Hb4E/m58DtJAeP+h6mkmM7jfVcpbxcw5dfgZ7XtgW1GfB/i1jMg2Z6aPT6SGoLVC5uTkOJXeDK4upQmfjJsV77V58v0HQ9yD9REdEw9HT+dj7O0mgiLrPKPg1aWWPAegVFGe6hGpd/M/XRnmSEOmTiPTV/bfwuIyYlxJxEwNMeNKG9iIafCSmR9IYwu4jfD8tceKZRmk4yzHRUWVTTuwJbeBmKSzeYkUlJF7Tn7tLjU3KhlbrfXq2L8OoD7rH5UtBIISYY8xKkCFwHWdCpg3tTdFPIkMAV8kf8SXtoJNCWJCs56RuzF+HjQnAMUmirMhGSANe7TQICLGiLOPgC8N/zorwrcP1mwu/fmAVELlAE5+yF4rA9K6Z394mfoRGe9uXqrUPdK8wRJ6PM9MY2yZR9SnYYoeXqneXYCeoboOt2FdY2cWCbJqUnoV6XUrb47HvHif04G8azIl1n5Bh16ETP0l2W2qHUo0VXdyOsVnTpc3+bCy/dk8eR8TkHGssvrRToKieEf+N++gSTJMIHc4sP4XiUt7jX4l8RgM/qt8ox8jrl0YVSG5pDutmvaDpLnexzDtygckgMNeV3bIbGPBroaUkoI5OtPAy24+qaEPcVGpg52dgGjBARM+w+jDYjZGF/yRzhI0A3RbIkHaZlL8rbr4N8PBOZj4kNIpBuWXnUYEPmKiiQFrWnhf1k8r9xQfDvecnAjiZ81CgQC7J51DEOQZtk276e0QejQ8aBAO+A+wM7r+NzQu56tpFHOhG/oduv8QC3nDP1wxw8TGeDxBJYc41OsAVMz9djOXm5CjWHL7uT8IqF5Jq5T2KuKOI39dDwmxpYIV4Ic8uoc7ihGZPMBgbi86l28hEYhqydjiyXT/Syv0Tqc/BgSpVPqDPFoDzqr5q/w4B/GyzjJX008IrryW9tDe6jjJ0PIobcZrpq6L5zR5nuQ29/mCiPgCYFY+80Aszb40UcCwEeu1ufQf0ptrHizuhs1G19EqQXNjcrqoWURGSs+IQzrDo/Vygp+DIg0vYX6XfO07kb967aBzEiwUuMR3NsfZaPOgogk89YjwCiFzvawTBHTIjotvpC3NkUl5XRBoCWybjvo/ObhyUUdZTXZErcCA3GUnSN3hFU9UTRvrh4bxiaLH6WlAgdJFBMBWnjVR5Dh9W4l32u96HLKURK7vkoULr09eCY1Di+X37BQ1yyo7wWTOsa3HxcFBlLOcaM/cR33UpSh6yN+WG47bIB9j2zsghoMziCqY+ZKKV5tEsIqCZpY28ByXhxJMnk/yMo1h2xISuHkIYlovH+qoE3ecv4TMLB0Z4Bq/4c0LZlF2Jbv5spCC24oWvYsfoCtYqYVNp/0QI7S+a2Bt6vtSLPHr+ZpuSRGFAMtraRx0W9OT2rGtksuMZjl+h4ddTecvzGPLdrZ1d3eTaCffZrw/RRSIOIWcwvx09Bn1Di+/l4aNLbRXtrwfxXbTRnA6Gq6PVjd4j8RpU57oSIRcaEsPtkM0GDAKpo82SdK5dQt5WD+oeyhGVjc72/db7z69HOGkpr3We5T3eAqRsfsmuH5OooU5RIcSdGwqqywjU37mC9ybrwqymx7KXCpoi6m5u7PEDA9hHRSiz1pZ/BmoVLgej/67pMUPHbo9rCJdatIYVrBcOSBESByJXkxxeX8GlnqZN8IZ8NAPrQyXIR1ywz20a4/IvH8lxgoNJ9aPDbRQKJBPaPIRY6ONlOFDluaCoyD4/CCoASMdwnBcI34E2gVoW9gx6op9k0jHSUNOEK2SXAYgccBGwI4oS/2VfLP35W+ZHnLbEac8p0HkRgUYQjk9cVCc51oFHdMckiHd4bklmNJ9SSorI57hIr957DuDqiXklwjRYDCLRta5tYzSvyzudqIbvcnYW87AC57GkLMphbNry3zlRDce9iWrETsqldtRnLQIjjTSzZJ9KQl1DX50jKhAEBf/reZBpIlnB1dNVkwRnPwN/NbnLFL5V9EPidkpEZ3KSFRS9Afqj7JWZbasgb9gEtkVupnW98Tx+aHIajQ8aBASyA+wNTEEOJ5CaoMFaIBIuFiyNswE7vrzdgaL5iGe6z6ZvJRbvVrVxMYJ9vgLRvKWq9ccPPHlqlGpx03CjcSHLfyrKW9gRT8ecwScShcpN3sX7Q3NPr04IeMdLWR3FwaL7ODvfggDx+gSzPiQM780yRHDH0bXA/tnaC/bRNyZc0ZlpbU5eO9lSDXMeqF465jVrddKxFnHWQJ5HmqGcdgc45l4KRc3T0tGoUXRpDdb+wk64r14ctjt+h5FOzR5vUGh+WO3Tsqj5fFHjKxB+qkKYIBPWgbGoqjw4BqTIDr7OyEcSFqxaBXzFQ0ILorGeAaXONJTMdGx9+dYv8LpPZTEYgm+oWropqSF2RJ8x9WGQxBJlIOA5X+knBdYsAGLtvad0MlObLilrBEBnq7syCWZpyeKNYD70bmNgdxgeYGPjz9ifc4xOGuGv0gELx5hJ8ln6fC704D8d5hgbF1kHbGraFqVrA3AZLLw3jqMVnXOFFB/310929iQSGfzoe/q2Wske0X5OanKd5iqriuCH0JVWauLv+NDM7eTx7Tribqtv5kGAeVU3KMRWfiHOvjeZx8gAToNSUGTRx3C0lYNjVSeDlyl4O0DEVMYgBk4cU45ktN+IndgxB8mbf06TnW55btDHNHA/FzeB0bTTmTUbkyGRaAnCRe8PW2jGxOVyaNLj0A4/aFt2QfvrrTc95sWywguJk8htomCHo1M/uVBIUg5nRIHgs/HhwhsfrBENodnwWI/+Y0EjkLKxyMl5FC+oRb+jRbFaoNMQX28YvSfBZMgByr02CJ/CLQtN61GAw5FK/G2AaUcflr5jtmliY25CYmr0apHOgjdlKK6lBsAGnmy8H27ieOz8DDks9DGkjUGozpujEq7uYObfOkVxhje9Qx+/WxBhLBBWxc1PT9IuXetXNG1tjpxhLI85IUHMMinkiceWyJTKJiogsUwIUuKV8EPRrUWpHctbcwr2k95cqGG93GhByViuFxRQIfyJz5S+eiM2Ys/N/NYuVW1lhRrHvzBQzQkSaXVaK9AFLHXRHAVIUms4R2bpKcr+f+icNV31L3S3RtNKkKm7oiTL21Y2nVp3xU30VnbjpoB59qSKz5IiMSBDEOrZRV6vAW3QW1ZdXkpk60VKrOSY4XWswISXK/4VYkgbPYr8elu3oNZdGaHuF6ifMkNzKe579Y6FOmFqpCSK1kHEkNUNDrC9mmGMP7GHRVDVXJ9AC8MaMFOBi7mQDqAo9oFYyAbf/tGauVz2WdcS0Vd4TFS/M0PGxI9ovWIv/HLijQ8aBAWeA+wM/vRbBiZb8r5J6DbF6vA/5F8y2Q0t9iG/GMGXMdyemllhFXgzXokzh6V1mJoGi8yxJdMz94ecjNuBswdvzQL4VE0giFIgYd9x5ldYtZt79Gsr9rS7vXLOamdr+mw8GcVjZ2Hf3Rp/TdwbiD7fQPv2Ik3VN1p8idXaNyv9np3UtZ2BXdNkT5hYuCZ2WdCj+x4LYCgBBdGEZqpmsj4vbxrSjJnPQpI0ep9cxqFSfWdIDw/tbLMw6E42JMcTEhINlUTOuh5+P1ycNpHx9LIFl3CODt7DONLsa5wz+04NfDNZdqRr9rs2cHDvq5iSfuit3E0ALAF4QbaNw3H9nvnLbzH74qveBAnYY/RuiKP14lx4aveIhbIotWHn73gD/q4AWknoi/11EgEMni4bwPE28xjMIn9wpEsPYaK2/OkZiRtV2Rj5MlfC6IniKKd7AO1hbBG3/w3OiKCS5HTpEXdytQALtyBpnh2xKSS9adL1I31IbOWobTiUNIzlrstCaRmgcRkRuXjuKIDJLC3lADG+yuJ+LpUoip0xDgqgi24ZkQVg237csLMH0Msq4eeeVmtqKjHmNA2k6oPpmX8bS6ys5fulG0o5Gm0ytNjM+kR1YsUXjYNZNICOrQ7z0t+Ng10CsQFc8UVJqVgQv2Atoz+gZrxPd91whYo3zEzXlPhGCj3iM6eoQRKnPYoV9i0PrzH9yUgmfzjnJuQ0jIJHewhul0XsTHBHgbBFfguUD9xxoRiS756W4sKEToRN6vloKOD4W/a4ezNDqqFZWDE7zj+7S8KV2jPET7Y4Z47+BN/6bSwwjXFaIVZRLP9e7xLEFDfJKJNPMiGolsYTrmtsRU6VBxUQGPYkLBtifmipI1BpDGEZV1Jff48JTL6LdoPnigZ8ES9t61GFSWI5wx4e0ZLOrwymebO/7Swpob5B7fO0tcWiT3UL8L06Cdim5zC7wOisQOPU0XZNmR4oZB1mxqsilHksiRd3aWN2Q1QjStlABqk8tobrYbq+FUEhmcYPMw/GTIWBtzF0PAeoudxu7qLE5N1wq3yj6GslIBCCjrhSoZ2mXwEdcYDpPgCeiAJgDvXKfoWh8VBgMpzk470yu3v65PSgg+kZD+bpVvSK1QRBK806mMxMjqH+eUTrr20ZLSec6SFr7BsWWlA+oYSFvCPgc4exmFkWTEZiDImoQN8QKLIyAxXQMeKYzF/OUQjXnTUYCsUVh3+UJuvos4a0Df8mWwpp3uEEfI1HGbrzGs3E2WI4mR5FaUgQ9VlONz4OGVgeHJ5yjQ8aBAaOA+wNSf1ZlmZxoR75KMqJRGuktsn7rM0a/i0L1W4wyXEZ5hPCwsr7aspom8ipkIJalcs9StDn1nm8vfqq1fwMi+vTvfFJUXmEHY6GAE8Tr+rzQvOmsSpjN7IW5xtN4qBPTSu/YMhFq2HGpfeflXyxUzweNgsArFS06wNlMtr7L/AkmHo6i27IAKB19VRpm6MVw1Ltns6xJAe67ZTQE3xro7Z8wZb6ANrZ1qkOrvCniV+eBNeC4Z1qbVlA0XFwyfAJvsA22iGRUc+QImxW/EyRh1HbVCoSr/oWqJa8URHqJO+7drSLWL/8ZIp7JLwa70+tppbfkdRwyRbK6SYLEcEVUoV7bPMk5qeZIFBqeB/PMBq0g8f1WNGV2+lvQwbWFrCpW/5ncDahOMM4xahExICW5zKOZLhYKO7K8kdEgxEiPFrggvTtLCh+/zf2WJptZfweBbzzh6JuJyMVGfVeHxYDkCee8Zm8GiDEe9yKsrQeD3yVX+LAZy3NmkAu+sAnsLui7MAYH06Gc4guIYEGcFUK3tm8YluHknNIbWCYJv0Yb6rPQewkHv6ISynKMPWD1oRytNolXlp3Y2ZbsrVEBBW6xNKbLW2ceWEDdNcA5oR4oSiNmhi2yVZehOrZwFKv/oXvoL9jTgChWY/VAlJ13mZkChO6IbbqhAYkgOUrcYgHCr+UYWTmdMHObu+ZS4kIkjHlqf8BJnKnanY7M1hF0hncpSq/ISClXj1OEw6qqVzuRjPW6E2kflUjzfG5pd3lh2IjuOanRHiMrXEXBLWVMztfpDGY4PSTcuoaBmc0f+wDfjdIjUBSvRNGb772/ktmxeBtFhF6GgGjJUO9tMF1vLejUu1kPPI3UbV5qfYDDwtY+Sqm6CAUpsgt29zO1/0Ti8hUeKR58a6NTxyhb+hXKUruGVXYDuYSJlmGX/+O5Mza9WB1cm0jp5sdtCtw4kFWKSGf+nAzwsbiyJ9UWJsZo9iT4a5CHc42HpdFovyFE2m3iGnpRuP37oKc0u0SpE0X0B8veLIapnGPIIGfWOCCBPyJdCtDp2bD9pgn5katCrQPWKfcwKrILmZstNV/itSnGwELrWKjB8ICV/7hANm92/SM7up2+8XZF1Ape87Ahep+mikPI8+aidRwaikvzjtdAZS8hggRzS3SDFUSGMQ1cjVfXYuBzvFT6EEN9pOTidrlwEnYoKyIh69eKWpfMeAr7jvtEWIRwG8xAhxFDlHks8A+PMmqCylVgOgY0FPrp3bc1OB0gzS76wYzN9TE7rHMD7/FPwzSjQ8aBAeCA+wM+UO6wnn2PC1GKroOXYumwW/FE0N5jW0Y0su840IGRKBqt8xZpFCfYUNuhJJiRrDCP8xhStbPtcq/Weiub3jKtf28mpiIrnCHJzfltZnV62Ur56yXt/+id57uDIeV4HAz9nxXOI1ghNQaiq8dzgPAOdtSzmxJrkENz3bVKJmEBe0vCk8pdkqKa0bw19erAuZx767/ilo4+SUQxfkdWioF8ta0OvQ9VgzNZY+rgR8g0ylHdA/UE0kN5CsbA20BAvUPcd4twK9oLkXQnVWUM8BoVqYWw9OtCYplZfl9u1pyLZrPNAlq1/xIITNu9Tz2d8cnLOTBJcy30+KTyMcbMTS1Sy1h59QGw2Fy0OyS8s6zGXhj1XVYYrMpHOMoz0IaQyA8VL2rkj7SZ9fgMo8bLPxJprm2EFy/WHkOGpS3dbyY83hG0bew2EDC3YQ+Xumgp552dIvALU/Qn60xlVnCSvbkuIZFLRYPmApKRU2DMx77LbeBclbHdjdfAPS4liTbNNaYIDuOTOehAqcXdXR6pz/yxeR6oo+Zs2mwZMSDV3Py/d/tmHja6l8Pi1Nxf26JjgVmvWgcfb2G45gdkvYqDv/32W/2Ec3tMnaJbkvt8ZPOgwFXW/kqljmGQ82jYS+ch1kxGlQBfUdX2KkctszVIUuM+zRqQtKFuCqDqhje6gXYvQITgIAtBSaaVBEv7Q3ti7PbtbUOL9MquwMvwgFHdY7QDKHawadmHzQbfRcTGHvPjNBMpMxKH0oeRucy7ToFm8gnvWVWiZHezr0238MdUla8bsItbd27F2vEyOc4ha1nyJiBdsmpHIFSScljBmXwEgzvrPkruRFXUMPnLNJY0JKSDQ5BZKmaxQd3q08NMtl0A+BcJP6vEL5Ws/DE8iNLQivvBN6wlw4ZVAvrFrJzSA6jPtBuZHtNHCoCCjB68Ob53ibiNya+w+qDhzTPb76u5Ae+ivPnjw7+dRlRA6A2I2HW55bVqyDGql4kJV1nPjfX9+PY3dftB5vkx5RzzhM7wu7IZyFjW4OSLxpipPHrKg5veAH1r7pWUKW/9ph2jxD7nikM2z4Rpjs9SR9lSndz9YXiB5OKko1AiHySFq6UlvwPsAwwq6XGVOYu3mUu8Me3mQp70qBdAk/W6bR+jeMC7vnZl37M5qCi3yzHEfhHiGD+aO4YeYn41kD1f8Phs8joh3gFXOWnTjPLpOBjoq62FaQmumB/0e0/ktC7RhDdVWVo0TfeTC/2FDt5rzj47XLBofVqkhqycxfnmYqN5XJm22E2jQ8aBAhuA+wMYNNM0c3ioOCyA3JTL5pg8rKJBI0dFT3TdxFxFWrJbH7EZ5aHR7lOQJElp2vHMLzSIz5JBD9uj0t15/5w8Acnx8yXxD1yz5xrJqeMmroBAMSS4DvLEO0x717yo9I43bpJQ95gXyeh7zVYjpPUZEad7ERhapNdHWzz/U9wALoPk2gouGNpqS893zrncRLPSQG3S0YqWLfLxg0FUx5l737wXBnb6+tbUKZuRSOQqAKswxn3BOs2n6PjLf9DWDxeY6YqNygpJfOU6URMm6f7jcJ3AMRV7/85kP/H88Y/J7MS6FrHSZ+PMqH02TL8Opq2RuKfyikwhQGpQT/Cst0aNgRT2J+gNkVYYsco/4Kx1sHbUPtHZ25e8NxgmkrVBdqCyJ5+I2+q4OoXF+aR4anay+BPJyPh0j4RO2s30Czhr4ae7KhjGJfQvsS2a0nlgumfgjVUDWKarUQLyXlCNCUxRL85G1o1Zw2QkrMhkQFQ3WJXFE5x4Ko7LDB1hlMExXRvypRIHV/MZJDcgWHqoDazI5k+CfQBJQGCdGb3BZMtVNuP30wNFlEbEwfpx3bZ3lRRbrhyObASlUO14s3sCo+3vslJbU9eKO3ehOmOnVpHUXVQ+iA2aGPKCp3eoE4wXiy6F22wZx3nOlXoSfeGeaoZ1MbzXayrOAwcPNbjqkPn/4+l4u67mhhQChf7MbMMrjdHqC3odMBLst/pLRaQRA0Cna+cTYJ0nSYfO2gEkcuD2QUbtP+MoTZYavf6LAvRNSpp1SVNvvkNgh8li5rKyKExlfeBKXSxJH1X0UaXNVmdil39CIgX8GEZDwLAEumtgX+28M6rLJ5L8Tcz+4ESGSQs1ENTtGxv1jzQyegh1Ib2QbKSv2q69oeuyCa6yr8mI1SSWNhoNzwgpKnZnoSEHG9xuhyoS3qR0+pQJDBFgpQI3pApLj3IctvZak5X0PmKdPvL9lXBKSmlkRTc9kFV1R6F55gw4w4Hu2l7IGq0PuR5hr6SkZeJ59/cgNHc8aVK980CaH5EtFadRDGLSME8UaBjbsRaj/7bxBKmk1K3wzgAHHbgg61nbCNfNrmrzIX+ReX/BbzpnZ36HDsnPtObqBtqPOcmZdEsSGgRnV1dsD3oExsJWdS0w8m5dk5dCXoVP+qYyupXk3KXqJSFMGV1u9m2m71BhPebX2RPTH73UqDbY9sXtiUWtHEXD4v0qgpPRTibghBLj7u95x6Fl+E11xp5XFo05Ox56nC2si4i0uv6zT74D3tTqzAciTKLDQOdCJPDedbajQ8aBAleA+wPXWC9yYy+hAmL01BVjYjouySsIpbT4nvYRbNZiuUmbZFmA1b9IHeL5ho+Xil9nhkRJd52Q2WyAYVLHh79gjHzMRxBANBWo2bRxq7ZIiB4g9/eVJMTvayJPhzay6HGERCvlOv45vajJMcZJYAAp2P4ffUKC9lG6sodEthDhhp+QCNKcz+BkVvW7hfReBgv0s99bP1hbIELLdpFDFTlJM5W+7zoRK0Pgny28d3fMu3TV+qLM0oyKeVX/KJY+zCnFdOneZ2HbOUyD8LtqjE7IJ8YrxYvl+reSDhmrqYOqK8aUlDHf79B/KDjzSWKrmBMxKitcfiSftxnytkltjBgYw4n5SzHUPvO9TsFjBtoq7HfR+ZkAGFfmZwUNneWaHpefsY9Mj0esO2OBhKIf9OeYcVK//RgKf6KKkeWbEYA8lwNB6ddbIzvZlFo9PPQ4jp2NcHULIW5cFglIipQTP6446JNl7mQF4Wf2DN+0ICDWtRdfZQIjL3KnKyyG5EpDxeS1UUHnlnMuZdbxzgjInpJ0N+VhVHZi07Xi/dtP3xPm1A9QPNZ9aPIrsJBPSngXm8PXyM2L2LpkUlU5oIKHROv+KjKTqs6xttIKYvj3SOUjzLKA4qhKHdL5/pP1K8LNrrEKBrW8+FgBp08e/MfTX0CK2rp2uZOJSFHircxufbNSZIFv/lvRtiIuDbntnktDSHqQ+BSBkueJ9ewquTGzoZbARI2cP4kP2qVSJHStU+D/Zuv8O70WTpmNx2q1jXovYckpK6MEwOGeuvq1RLBFvcO4WqDS/qoBaG9XIv8/NnF2dP6bbkRO/yvOgh2Ol3Uu7ZatY2YMUHhxuVYpfkC4IIY/zNnZIwrmGY+bhzk1e7mvqbxQzaudp0sTvHlp5E1KgORKCtt1BOjqQqESGIH2+4uWu/iIXsrG2wkZY0xo3rI4lPBkPgGIOysiWvWcoTL6T7ocWaUXZm8FW9yUzh006Z5xZywi/xK4LtHIAnSsshCaET4dS+JqiUWiTSsM65mbpEoqF/e0jtbB6J+5Pag/YVsXPO7e5Ju00li/y6j43kSipYemPcQjBoKVZwKeC8mMBTaNEr+Ct1tvgv3Sy/9uDGNokCFXsrb4UlpEPkYG/an5SEWyw59aT5+oROQk2VpB9AZ7NA27vyBN33NCHVaQnSQ1IEqXfLw957ItHBHxPWdjZnefkypZoWCNQOxi6BJoRBL9RQTuB13Qce7BiSFsJR8PR7M8/4dUOjYe1HjraICfhgVtGE8z6ntNp7/pihpksb+iGGyjQ8aBApOA+wMY6LxgVxSNze9ZDhcYEDNtoMWUvgVI1cyfK14He037dtDEbDPWVJudRZDg5mXcmIjTmDmMpHAnaDZy50IxhZWDRCaffjvHTkRb7DMSdTw5RxTgeuiDX/JJI/aOQ5lbMStsVXjX87ZytPcirj0lRaP4EhRgrtXyKZwUYEBf5U9UQa2zkKpksId/Vxu6/FjCfroQVceevzqX2yjS0ir80Ji/BT9NduG8VFtXbou+aWSh/LCoD29j/4cDdxUVyCKA6u93zkbtvpNi/yDtjpI1HDEYiZyjVELfHornDr4nSbxxvpRcgQFXxYa24elfa3L/S/RiPCIWsc80f1mRawzKFN/Kg7KRBtz07l5o0QPbzQ7GX4rwC6KreFESdsPgk9Bdt+gOT7WXxrFvhohufT7zN2T2p3ZVz8w7U2OCxxoMnvMVuDxOuMdeX4NJBjPSW8BjWOxlISOP/yZ6Sgrh4alFNtK+IBPiaNzWCpwiIIWuj1m+iQ79r8wzlvabHVxIKzDe+HuvU9eoU+75Cd8h8WWIaYTgLRbMU2HkrauZCHvjaZ9tolWpjoE+DTiMdS37Pu9jCsrUpSxj38108A2+/ByueGr0p78MsyHQkX+O8Bcr1dgTQcPIDAEH9RMsk2/xLuEAuEoOQT6ke1u8TgJQaACB5MkNBiB5G02yiRUDIBuxI05WqC+a8MaW0Um1vPi433+WZtpcSRkEW77yneICyOkRPjcwdeIjA9jXtEQ83MBRWLyXAmo6ZfJl4Y/X8wwjsGAljzw3LccFj0NUZCAOY5vkoZfbzAK+InFyWeQXn0sTMHW+gpO+mMRqJEOH5G/YKFF/o/Jg+lQLQOFn5pHpI6kW+osQPZYGC8Ib7x/sh7Qo0lBnMM+VcbYdFzH4cf9OIkeSoKjwzouzZJ0fxhc4S+rVo5ZnFgUTIunu8q32hxIb4j1nEVZC+8WZ3qbklnHazo0l5NYy7HXxNIxDtrZDBF3A1w0FRv5fGFGDrimEZlPzv21FMLN0r7IOrsAk8lzvPDROq+U4On6ZqTcLcDpezhQXhffOJYAw/zjrUdsWZ7/E5fYXpGN4xA6uGmgfNXF2GqThvWLC+iV7tRqFx/Qxhn5vxlsYncVz/r9D7kcRlUjOfNG5hxHPcFZW3ittLB7y8Y8WvN0XVm3OAf2ChwqCn9JSWtRCPSS3XoYpdwMAs7NmiySy7KnKyWHMQ8u/NsKMuV+Zph4VeYui7n+lytkWw3Xj4jmGn0CgssQ4SJiGVF5H0eAKPPsKwTN2H+XopYIavld9XdSjQ8aBAs+A+wMTdq7zIuLQ0I5VPFXmsg3IhOievO7ffXE3H57p5dcMjvEmEGkQAfO8mEGnyUlo2wOnAiHdy5yvH4w2OJlzPf52+D/ODrroZ9nyP/Ig0XMAdhHIyCDcldgEU/H8BCPtJe/nJxPVFrNwR5xwwKWhemmPk7FGSMQNlgRt+WHnp53wj3G/ik1HwYl5sQGLqW55w2637X2nQLwCL9sw4Jh2eyTLCNPgDvODeodrIfh1CtjFZ7OKw4Rt+wtH222pWp/Fp3FiqQ5rz1s+xGov5kM8YqoUe6a8R2VqwMf09LSX9cGf+I8a0HghBInlOTABV1F5X9kdbtV2YcrDu5c0gChj8LlqRLbggtJBOOa2lX1IThJSVMIcgvjczntXVI6i9jEIr9WMngNtMVJqAeKU7iOVbO5iYRURW65NSi/spOXDmJ6qQ1KPnXyvLXj5KY7s81kQoXY2aR3cxVuzkEr7MB+sskE1WUlpwUL70Aa2a/huY9F5u5Btxn1IC3dXfPUHLEO8Wa8o89Sq5AjiX38md8N8ebF+JSSXH2aay/gvQoKjIyPnpyI5nVFUjaTDN8q21ScKAb0heICQED2VVivIVV2ntO9tdYwDUqr5Q8LS3TDpKLeqTSy/6Bwwmh7Txytg2H3D8T05Qcd7YMgcReHQL52bKftSTVwPC40cEvjPYafXQCyMhuMIeLrNdHxubbVCJ9JCQ1p4Yz96B9cQ3DHX52QytJHzYaj2IfUe7OJSFNY6qnEwUHkQjMpXAmOT/qMFoq4DlZSZWme5xgl/GJPjdfqEsb6VA2GJEsfdM2DxDLq711HBPWwUwA2xQED/C8EONSg8RVeNzyzxBnSQ9XfGpkKSjozmIwsu2gA6zw5NSuAtI0lNyGpLT75b38PnWsUwUT5La9+H3NKdGgQSx+yQkyItJnGi0Yq2NNt4qb9VB11ngFOhkIe6H+e0mXjzrtfxLDc1JdOGlT2053n70Z3vDUHXb6Qy5KtQPkYe6eACI82jht9MiW13qfWGCZR3noWNDKmxJqM+uF0n0WThDuZorEtM/xyRCWLuPREsE+CAMOACQhm/Eig3hMBAmJlRA/OwjcHdtTR1deQbaTonkUiK6e0WRuzJJRwE0iD573zLx+xdFxOC2N1rhCjt2Aquwa3gr/XJ2KcWOAOyIvpS9WvWNs6OA3+5iW7RopYp+y1H+LmMREcYmZI0GTdezWJnZ5YZ/TuRsWJ4scyfOuv0aHqG2XqsQHV5oCCO/d7Y5Ev7LZJjUxo1Cx2I2FObRFtkYtb1mcDmVOWjQ8aBAwuA+wM7PuocIpdCfpFCTzNMuInLSDo8iyn7lpbOm5mvne4yy2SrOx5bY14OBAd5IuJ8NvFkhwH5Qc4hfqB54W9BkB4PF0NbrYQD9oMrrn5hFUOWY7Vrg3p3wBCYzULplst4SWX+Gzo/6uww9KWC9TGAnW1RAbWlDx4XIOkxwKCww7ShiaPpi9OH6I5mnz88wddTNq7LeM25lQPaiO9MKWsMZ8b9rRwsBJ2DlY5SJSxgaZloZBu0o29w3gQ7gfrL/KV2CWdp9WFWF0ldYXmdfmElBcvFCUt1v42Uu75e7gJor54WHS8Niz6a7HCxNpo8PyysbAAIXpqQ+YVpj7vozUm9J9lI1XYiN0+V1nU1Et7/yJ+CaG5vXtL3+kAIk36Fa3cEPnDG9B6ga9dnw4BOUEfJC/AsPE2e1IT5Ez5TphTiTrm7dj0xi/Vrn8jcq/uKdUbBXvgHmOBzj7nMiYXkTRq00wD0P5pZE3p7EooXJsqWq4OSWREXf1Vxdr1+BP4yy4mKq7anExMlmwOWXZcyvsTkCDWm+W2yn0jfhN4dQ5ufBE/p67TG+vGcdfruPuaDsQHhSWhBRzVY7KZ0HNPUZE/tSlZzjORC6/qdjDbK40lN8j2PqBcEjj+GdCIHW+JtrjhjZwt6up8hOc3x1Gi5AWueGD5tP3byV+1zlaufdzeRVxeD9Jq4lDkSbsnflOvOt6zBRyBBkiAc+VC/H2OYDj3pmIYUGeQCRAmncTEILLQDSxZgKE5//4jtxdeeOESrIJwqjeVop9o3fQ1kNTBv1mzD/5nzMTJra5lxPns6hZNpgtnfxxHO9wo2gRDHdtB3BXHLqXBUeKd7+g2q5C3FPYtjiAWcPYea+Ml/og33xGQ+slsd5whmuaM5EGA4QDTzLHUvE/JWVgEA4E/5Uzj2F0cQMS2KgmGqk2YeevmtfE4nf4BMISkjgFQ4tJN2eK3ULCcrgPr5jZwf5TuMTVHcFTTx85aD9485LjwFMsjmGVKju0c7DidhsM0f91ERSUAW5H67MY2NGDLywldG7IQ8pliCiTRvFZ+bWG5nIWYFMi7cJTp5KJThWLVEExZkKYba4eT31W0MRjb89cKLAXSIftObKJR5ps2bNUP1ssgN37wA4j2kTGBTKDVjj4/5Hfr5g7rtrN3eGOPNP+rlyPHLc+EtfVpYDmbdHT5Od4db4qd2EJJvUboPTB4cSPI0PUnfhtNohWmu+3BQqU2uOYR94POkIb1nIayqzeH+9FmSx5pZ8slxdYky58RDcI5CMYANh/Td2P6jQ8aBA0eA+wM7wdh2JcORoOkiPnGmajOKd3UJ8bylN9ARJjKuQp9eL6n6u1hNyxDyan2LtDkCZPH7TnXnaUCtd2WPXqAQIOBOwlK0dzSo5mR4dZArKIU0I2mRJ+gVfJGK4cP1vqq2D5YNdsBciBpZR9RTek/Jf57nx0GEtiZTkk6KMFPwIhl/xkYC2NZrqtqky8DVO+YmER+P3bY/Nz68BK+8nmmAXXTCkI0KeThclRFjLr7xWl11MICr4wL2igntMgTmvq4D+RC/9utbCxb4uT2JJo8TlNUY0Iyy/buLh8JJd14hYRDa06sJjZP8t0AGG/lCJd0v+jtziwZYenqLnRBcAwerOKuRvjZ+dDBB+7v/RNjoGLJWbQKb/+zSy2AorJ3nwpF3rd0RjyHyMnmXpXXk2YSVi4KW9CyJ3hQdmKrcZwxU3diIrRzZcPLSptveRM80sBTH4iEtNhZzk24FdhYubX3BuLn+bX/luirJ46tsEStCCFj1bAAZf1krg0coRXh7Y1ACFu4MCIiyML5Ot9sZHfG3cTQVqilM3Xhmcdj1UYCOhUz+GxfeXwI64qKKTE2YvoBd6V2Mig45/iiI5mgvSpgVH+3Iu2uyUqhwR+QB19UzI6mFmWNjUYQnEaRTTGxXX/AAF4q/wmI6MIV9oZWbd2oWEB/rNW6BKCyfWZ1pvdBmhpN74pj5p1PhQfpTSGY07g6lJGnbN1sV1MXmado7lK3JYgryY3S6P0AbUwvTudkURjapJHfUtR11bRyvehuWe3XV19XYsvoOabYnPSdhZJo6ysMK7a+H9fdbAmh6v/M8+NjM/EgxT8csQ/lUvijZna3rXF5F7OTe5VgT0EdO6Z1pDk+1EZBDGPa6UUKCg+EeNrD/0jWODTDyfe70LXoX43NKa0gce2D1uIpOlaa//4kUfTUAIOl6nhz+5tGD6ExyTE4n7OEMg7n+Fwrloh5qWeaEBXX5LUvzmziHWn4Fe2wDyYjdaAlpwOzGb4/Zx2FcO4m+MbyHHiy0nRfSBp8FsvpALggdQidKSHFEro8NQHEu5iSOYnG9WRccicqw9EwUdrhS4ExoyZuHXwyAA8I/2D+1QZXGxx8uLT3NdH8wSeuigCdZxbBxZWlW8Hozpx5p3gtjZN3MyYl/XXew9BktrNJsMWMe/XLlZdSHXaqFgZh+xkuSrywPE571uMcjuHvcCZeKLt4234M5oA5DYX2531yoL0ntWFto2SeSm94+M9nlfqhu57semyCnYf0GkyEsgRtSf0lqY9ElMfYhYJFJfe99JfOjQ8aBA4OA+wMFgZrzEXkbjOgNr4XJ38oLtCwTM1iAFXQ7zgsmTH4LfhG7t3q9rplOO06mexIKwRGNghdzHkofTd55vmZg4xqZV8bsICFRi9dZlRLNkeWVOrIRSrEV3CiNqM4W4cco+pwtkDjgIvftownTxKP3HikzDeEP2ga+B94HfmpPU8Lf46+BdnPgk5L3ON7M9SLCOg5xDSilXaU+Zi8698Lbj0TKtWi6e3xj2H4tVKsilyKFofErEq5FRLwPRpcKAz8Up2Ij9TSutEl7SGr+QEjCuoa7vbH+7VGY95WuPUIdcVpOMYEVqnZbAxMOZoAgDPicJJRvKbV1FN0SQpHGpC93cDxAu6wQmL+Hn+kee03sizqkrnkmC/63wrB2v38MCqAp2jEMhMnS2V0v8wJPulqD44CsSvp3JGbFBxvRGatKslc8dBI0SW5mrME2SgI9Dj0i5Ee/UjgLEF7jTQBgx1WTpZ/Tnfz2938M0LSd2673GMpEjGjKDgEzkVOforedNlP7tspDx6l3W4QjJY8s7Ka0fImJPnwup5bSV+xMT2Ja/ovsqa+wQ+TNxFVURWDkoJM+RXXJQuHSaP/CK1hs2Bx+tfsT2MiQuquBm/4rLVl3Ei8kRYsInyc6vpnKFGEl93NVhfond++3fESBUduSkL+kR5gIWEza58NIUnz1Orq3xtI2B0scX6l8Mzsjiuq1ckuAzQ6bEFxnW8NlsmQHPxyc4c6eonHad+W24AwsfHZl5EtyP1q/lyh7xPSJQQC7VXEjSlox4IVl44O6n5PVdECJiHoZAJENDskGtoRiIP0LgKaAPJUtt3ZPFd5TdnAu7eonPDH2IahVug4ZJ64Hs4xX1PN1DesbnCx8mIaKrNNtk99K4orclijAXeA85P8pBa8y1CRhXd/9qBGa411xA3hVON2ETpkEj6qnmX4RWEkELJqH8z046ECgu+v0MNJOdnRlYF6mjDGQ1X/58osvtfBRaSWMlplpwJ3TXiKUl1wkubL3tdCtb/lkozUmpVA054IsiS+IzbgvJvLejVTlTHkjm00727DEpzYAWDZsqSKsEIDid3sxyt8L7NfD3L567S3JOgeXUwmzf/vo8ZQ+PlfIUNVIw3K749eGiGYoizyn0H8V8DheHKRvQpP1nkE457sC+1sSDwWTwwQkddHuOdltl3YD64CaeB4sOuBDZ5mXpBzvOGsORFjygjUyo5CfI2jad2b1glQyb8r68KJhQHIrrj6stxvxMnE7nvQdsvEfpf0xkbiyJJQxyoQXDUG26Zhr+6+jQ8aBA8CA+wMiWF6jLk3oyQbVkPquhXB979EyfUwa3N3GM8MW73Ve2Jbv2mXlibJepsRppPeAN5AB5oi3YrMfWtiOvj1USRq4geUkJ2SsW3SuXi/c3JLNkFWXiRFZ4cQO3qkTfDyqq1pUyEY6ipeEPwH/qf5zWC9MQ7iTKi0YDBRfKvyib+Njl7D9PLDc9sNNACnhnot1ddhGj8CiFoI2oUCUo/KcjP3fE7WkFe4PjzTEjDPlXQbBsvbYF3OaFCuyE9RwgQJ25/aVdtk7yKBjT7wo4wAlnvgjgl+gPKmBIv+7mSGhpkEJTGyQCn7vcU2yWWt/qEaqrkNdPaPBkf6fcge1ssPIOD1IFtaUEmdmTVw25jdTe77rdTKeLmCpPmIJ2pk0Epf8d3+KXJMZg69gGFm6ibbc0KVypkG457GzmCEC59mrjAeZtxSF++7Di8TGYFrR++xaDGaUOaD/R9m9rdSTXFE5js3sB9Y2SOT2mD5D2LZeFmrEKLw/TyTv0C6zfE2pFPxtFbFmYYEwY9Wsd8DxE7bKVnRdRZns/QSXTlkkqc9gVzVQldYKV6IMIvQv/ZY0FVcjttFHAlWY2xwhtR5eOTVimPOIC/iHNwMLrmEPAFybeU3hGczPGAgGL8Wi1zVvH1EFEIIK6aGcm/TVx3tfbo2ENrOZ05VK4MmIvond2MMDKo4svMFYS1daNvrfcNExwWZLAzam9HNGW8D2y5y9jd2j9TwwBU6kuDQ7bAJMPt7cS6+PIlfKMGaBCI20FFgyqyDVugWjPIqH9QoK6u9wAX8izQAMXPjH1WBADWSrZja2k6H/XSMzp2xmVxyyYKfA40MkRMZ1selgMWWWYl7HuzX/bXvwIxsPUXKzzW1GLO/yl//43o0IYZv5nxnv1fNBeyhDFk14FAerClaU/f72bG53xnOt1Ncv9hnSVa81qwIBVoEIyzNMRta1w8YXOs4DN9yn4Wa7JWU72P9dpmiEl2vAZ5AEzmxuC/ry13p7+PF5XZ3UXmbbMpAgSDFv54JfnG/6HbpgG31lV0qlMnDSbU/QkNSMzZxTx9kBDT2dOgIFoHNyHcEueOW1zchz1Ao+K1mL9+Qwxov6BZq9dORZIHBWveUGRm8HrF1jEdpsWNY8ClqOVqwbyTENeIwpe3bs28P8Id2Iqh3cnnGT5HRs0HRymevvmu/V0aWkkG1lcmIGZjlO+VOFbbJ5BtFYZZ5QIuoYuFBjHLXgOlii184ahqXGvttaB7aDb+p0tLZ4q9Oi1fIe/ZJKa0cVq83fhi9IOBm74T2jQ8aBA/uA+wMinb2KyL/f2ZOLG+u9UDIAjXb5nEodFoJxgjuQq2CA6RsXKbau8s1w4jFT+qBeQCbUioXXTaQBHQJioao9EMpKZ+CbgON+j4v1o8uZugQEGHCPuN5/8aK03lWeypRcLgw1TmB4gIdR8g+nX7Hi7uSiJONNjmcGbt+DgXRXZWUi/zYWv3kWtEySoHeT3Scu5mEKHxrOO5MgHp4jXmgDFPjxw33KLLLAUjxux81NsIrCaGuzk7+ONfvPUo0oxkfCDtuf+zVmEOeJCo4KRDJvZtmWXCp2WrDMVyQfib8tdK/cGZksQ3cmPTPi7ucBz1+QzDMp1gpYnNXHO2Ws5zz3LSANfJUdV/9q5gNQJYON3VdvEb4V4Pmj/DzUJuo/L2VRSzxyYJdKCYnTjh2L/NXM2ZS8DOFjnsrPuhMQZrohzRxpv+wO2Lvmv1hAA8G4bfIyhEm+Bn0zRGnrSYipvar0gOGf+r/d4NvjNRRDhaKWbbwT/K/BtceJh+3tzYTZ67V3k1ZLHfaqUzZIAakSCyyjAFOHEbZqeteqFlD0jo0XE3BAMBtHTDLMUnkfXSJxgp1UmBVAtTmEhgXTCJMqsfTTzNnTTH9So7g2+H9BTWEqAZWFDUZznR0FydAlfbDhNMCJhFKe/ij+McNucBUq/QPiMsOvgaKF4OtMqUU1R0rjR0PWe0/Wp5L15xcoY07B2toMfUgVQYW22JPa8hxKwfC11dbU7d1VGr9CAz4F+/amnYMtETLSHy8HKRVTND0Sw/OdE261xDyy2OWjK9T8iD/hC0frU/1VkjUvHz4A0MoyVp5LNK4LWvLqer1xWMNpiVZxhZfIcELRfSWzbVGVavvFCsPEB9fabxgGvuqE7JEUhPZuuzjMhHeGaGDTJG/3mRnod4L97y/SzICgtzrveT99W6lrxgBMh2Zn4IBZPCphFt9DBkw6R+o+Y3d4c1bZqjDvjPQw38ZU/7apSDfguF1Ky7Vn9qQbpTYATSShhGSTzj3X96pd1rxlFpBn3hsbfNzBjFKaVoYk30f5MxYu60BjWLa7MoQ7owvLFFquvKzoY4G9aadamljMp1KE42kKaWpDeKQTBYt7ilBn2av3RkBxGwDgnDOnEvhrfH6VesGsJlbr+38k/qppOMgStuWcdOW7HUe8GpTwENuJ4ZvAQVaAVVtdSBehEUylQ3ZLt2r/5Wm2KhasAv1ZHgQzc5/RH7f3QdLMZ4oZ44ipSKP6xWkIDFV+0E+z1JOGie1iDpTn+rlN2zNe0vKlIKgYpBQ7l8F8cHijQ8aBBDeA+wPV2DHCRBeZGV4vfxZlTefS4mvUmley9UFKVEIm3Lu3rTlbd3z61AuskjK/l/oCX5Ezgnk7rFQdkN0MKrrMwDpJ4Fg/SlQAc8318holrO2ng7id5jwDyGc/8IvL1om5Z3Om8en3rXS7ikpA3AfJjiJIFSBR6DbMC8kBxWCfL7kJJQc2ShOC2upLnheUm/KlY5Mnf86I7Ur+h+Jv5Q1N0U7GVZur1ouIbUao06iUa9Xj96Tz0smBbmjhRsFHcKilo0Z3Zl89O4BXq/vTzQrI+XV6yoIjk+UxdZFCue0Mp7EdRSafRyVB7av08uawnyjewCPD8Wpd1om5t9RsdzLnFrx9/ir2IjM0R0CcOH95GptJNtcr7kapDxiXh/GMLHVjZSfMAXCgPAzgepDe8xrHtYiRECfQ0ykelzcDWeDlZBUC49a/gTThgc1cZ/zkNbB6Nf0mKQx8wD1ERoSGbHv0dqYOU49IlkJTI9iebUUUFGbQ0viG9NSSGLT2IiSXO5uqgFguyPEpRyX6+Wl7vau3VsQMfubCnIutvHK5y5P1RwdkPLipriYhwJenvBorNqxkIItnnEO5zOJqfIaacGg3SZ7Ww8FBIuaf8Qn5vahQHlmUH1LrxoG64g/xC6awNxNz9D2FjQS6m9WBrEAHMHA3Nv52U/dgJfdkgvSVEgQcnXcuSF2QvKvlePzhmaSOcneX9yfAw7aFNjNiIKue1DrikfbDZxVwcxxcKNQq5+BBrCI8yKtBzW/K1Ot9NEbJ0XiedYJzY1xzlhGPGfcEsYO7ydj8suWTYz/f26fA5F4nMy51xW0jnzW+270G5dZkiwPAYvAH8VS93hlTaCmmOC4EBSrt1gImScf+9hilvRFXXs/e+IQTtP+hIn9fygsEBq6zD3Hgx6cVIWSOZB2eKbJgJo4uoKBGuiyLOwOSzGqca6bmlzZfzNEI5BoJlTjWBLhYqGh9uenzB1rqxqkrDqPA5jiLuTWs6PuNWoxqt7PL0TwD+u3G5EMza65zpz47zTV2wBVaOCf+mo1Ua7i8YZd+RbjdT/XQLzxF/vN66iaOz0mFfmN4MeEcXQwtZP6q0a4y1VfzGcOftNG7Sl3vpllh99yZM7W/3Drlu0VliWcy1+a72M7IUWYvXOH2VSR6z1+HBtTOpP8y5KtLGSFgeFIi39q8OqLmTUO/F57KknzVIkL7p2zCJQiYrMKQNDaW9F3DLMlIYZ8GjCsyR1HNAp7nbCsM5p4nvIWk5oAFxTqtVotUuLF8j7lD7+10VZCSlRqyEtajQ8aBBHOA+wPW9TgMvTARKBYurhFKO+TS+tXhrA1smTXQfg3bhfH53CqdZU83A7ttm0rgk77xvirwPtBB4s52BFD2E2bSCYGH9g7IoH9D0Cc/v9xrH5ugC7B5b1lGlRuMA/AmiTXesXJmaYE5cMdgOilNTBQEYG5+GKuYugwguOEJhqt7gbpcwjGMGo5kqifYdd/oB5CBshQSD8eVtS5RXk1m56heiOKJ0IjhdLdaPIa/gPn1l/FqLyzT6DpNTz0zdZD/uUbjvfp2lyCrxEbNjgwVksmLHvyZWr+9k4Tc/D/fwVKi9GzuZSKltKYNG9CEmegH6u45W+mM4f2v3O0XzyIFTYHNjFq9BwePk757k5RyABzeqVwWPq7m52fgC+3mDMxLvFSrYp0giTvXLx8usanGQOle8s9zfx8djWJBzthclL3MWOYj9deWGCyXK4CBuEdM94aLH/uNcnw8qv2YgxIn/3WzBT5qyWMxkte6Hq9ZjpuKUA3ks+yB3tmhLPiTyftlvCJEOA7WokiAwaBPg5d+g/vA3LkOsi27ypG0qM+dOp9keizsgZz/+890ZpdcFukF3yT6031egbbmy7REc5q0Pdu93iNq4gQfaLk1RDIDAbklKIlgGBaBbYSBg80s1nrVkIg7MH2yAtQch9Alwdl749kgsVOfCyKKeLeRiVHqASjydA/ZHHgmWz4G+vskM1erd/1UnQdjWuWmOYtbn8BL7EW1OvdGKUeZP87plnB8VvIPeWEU78ytAoW9gw5lhyWhF3XMdT6yDr8y3YYBQUDknRxrShD30c44eDLBoehKC6V/EZR7Brahps8nzw0EMTsQ5Xh+nDX/Hrzo0BvTEq4IgL/r36vV11lBFkgQRkGzujrAxMEkjbH280Z/aLLHdwobz6ulEhsIqoC1MnavfN8zBr1YQP/93IR1s4ETbOh0zaL87JvUvWpfhfM1BS8Xw/3cG7w1Lxoi5g+TOPZ4R+z+7jTSYSx5X0AdzuLzw0GRPF8aMGaeIy3FZGmcJnGCoOYMpbVZg4RVuSkcEvRozOulzZ3jZdjZ6Eqwvc6/vOn2z1pdrqxWy1SQh4PQy8byOXjeXfWq9SIaO4ahlb1nOCEAcIoAj84yP4sqmDYVAkMlNM2sMGr+KriKh8fQhSeg1kdPIwx9vn3Kasb/3wSABDUlFYhB/zxTteoM1PkAf1I5JhjNzXVokwo0PtoO5obP1OcWoQev52cPHWzzUrc05vCMbNxpOjf0iRUMYOnKxOAKP75H3tNAt1m92Auiku6ZJKIJsKRdY8WjQ8aBBK+A+wM9JtbQ00SwnBDZAp0qUENr5aFuRbULMlxAI2O0Pf+lHcfIGQNBiNcAM9c7mB2O4Sm+GYhsZuF/60+0slk8k1yNFtg8Ul4MB3O0IKFZMpqlH6iWsKJM/mVf2J7Es0a4g8lPLmXSB0JYIC5l/nb7aJufvUKTAtAYNra2n/+wq0iAsU0eKNgtGnLXtFZB72S11MjqMQXK8uuIVnKVymmJ4E8grzVGjlitK1FTTG7GguF2G+a5oDGIvDiu1gbAsYzxD9H8pTYU9YSWjusm1cbWC35WLw7rGOQ8/K2GZrhrLhoQkb1G3mY6WrfS3GT/Nruq4dhW2d4hevbxsozc+aJAmQfO6EO132d6vco5ZKrE5MbysteUucKMLXp9wcLbE8l4jx5+wyWO8pfCvi6Ye5O28JRQ8tpNtqjWSmYsCaI0eqjZhjs/PQ2dQUJsFShPEg9RsIIxHpYIdoJ1q+tAJEgd/JTiSOsCiseUFo/aZ1Zlf17VmrnfV26gz1KzpiR8Bg184YchHSTK7nXaEWAd1mgVzrmpBTnWGSP0JwTtmyKmluGVKaPyxgAhMrS6D/GIe8Ax/VW2VZI0qjeumjWvFs8clH+vfri1kV37EJasCXhESiIUqzUelF4qUnDOx+wGQTBEiBlWGtr7//jAm8xI4NIbtKp4kh4EbrjXBv2XliBj5Nf2uvMucMticQZMB2rHjYC90XmqVs+xJVJIx9527Y653x4MhQGTy+bOh8e651kE2zaT3OHbAIiCfCdRhoH4qL5NhjsCkP4dZXBLxqMJ5LAXcyKmgTIwDSvQIW3jD9KzlMgjL2F19xWfOt0cA3BwZYVbg9Z6DUCpywDLtSDphWoM8o+uQn0u9GLYVeQE10o050yYnIY8tHGnzVfIc/5qolarbYgQqbkxusff2xGRKYSGzWt/D4iQFYdyEZ2eHWvD+TlRZdvBQD3UnQG8Z5AYELYK2R15PyVpQioR6jAHiGmTEYYWH1J9T/GrftDwDiMdRlHig5WJKUcygTq9rPQsILrh2lOfpD8N8nqA6WyPba8PDdLBoPjb4ioG9wsJ2t9ZN2SWY1Yw0kSwSabllMlP8vbFz/H7RdK4vNJW2rCkpFQ0ZSUcglz5QGvkdCeU+N4jrDuo/PJ0XBqFBbx6nz/Ud5oyiowMUwXr93C8LzqAXVVbiCHdbln76/8jhAo/Ljemtvp0YmYml1hpUvsURHyRO4iYMpy2N24tsVqngapaNWIhaKS8Vgw4QMa3lAQQo4aQF0fLWwgpcSEZfgRe+3cct3Vrh4WjQ8aBBOuA+wNAye12N5CLaHVZEQVUXgnHAwKf38bPURyWyzl1tVnr5DHcikpZpi5RbZZSMaKISI32NHLmVsKhZ3Mc7voJ4AaBEeAXJvN/D814JM75IqvADS2p2c5I4aBdE10iPR9BsjjymAN69bEh0UQhAOHcALIGb+HwLAK3aAtEnED5/AMLOE96k3Bs9FXHf5s1c10C2A90mVqcrQdsUcEBRJb70IGKhbDMxGUE3ODLdqeNiDmaTNnQA1D39ae2Jk7mtIDIRs9wNjkTWQQVvnhyPWjkpUckFLubHhBYMjlEriAB1FtNXTI5eUOO8MhDTlCy80ER6+UmET0XLlQu//X9UCKA2PE7bu5RHBP5TCf8Vzr2Qak+71OfFjlR+Bc4p6o8bndbJHNjixhUetFWgem6GVsWIccOyayp0laKigd0JyAYHrxJdDxFOq6X2zQXOSxiUT/XHMpwHYysG47UoFk4rjrw2lDSqhbd7iudBQFqcRQjrWa6b6mUUBiZcvgbhkxOd/JXjWPoqUQIY86QIItwAXW2UdE1wzRhQJR7PJgxent77iyjI5W0dCfdYy9+42JSFCW+TRYJghg1cZO0+1+gmqvVc9tgdTSm873qIDbyltWx+QOjSHCzIi8h+E22GZ0y3MHLFoaT2ylbpeBBnFYiF54LbEZnhWkRsazs83qyIVW8Sf7Lff84wuWcOIOFopdo6CDzuyDwEuA3ZZFa1qaFwV0p1L48vtgXNsiHfxckK4PJf5+1EUcVEAdyd8ahSw23ml2Li1GBQxXOPRsYFALnCzSVV8cYrIL3ID/ElJX/IlZpqwrpezIjojy+M4W09TwEUFqvfTdxuuVpnSSbxzKIAOcPmN+UE8UumCKYJ2OhkquxoHrtFLQdH1zSaNmQMU48GdwCQ60baqG5kR3NA1ois/PwSjySx+kTnEHg/ddy31JfpncgevVJpg7Gn6A1Yz4gQ12Mpt0ODo671nXEllPPn0iVExxVApGuK6NuaLruKS7D1yeEhEYxcAlKsfebHBvnYwrJOGmU5w4BQk5FReilTAwfERUFXpRjfF405Cwrd+zmdRLYMEzcdnmz4MXpO0NCGsM4gF/gjBNqyVkNgEWA5ZRCTiNxn3/LHAQ2SGjmZKNNZAy8/zz/+p/sONXQ0xD4nUr8bDkjrQa7ZBKFT18XfzJesijUE7QJ7/xJu97Q8FMJs0SYf0dPJt1nPyDdv9U354O/rJaj70MvQQ4bShcrJVobZL1rGhC6mbH8LocA8gk8BS3qYIt97xbnXB0gS8e05suARiSjQ8aBBSeA+wNrsTJfXgJM/ipRYDGCzFftUnEaEZXZQcz8B2pgO0LSrxsNV7Wki08Ytcn4xu0Sz+awSfePjYJPwXld7da4qo95lShes8f8e54TQCKFT6PfAFTvD/t3hJyxKTQ5hFI1CoqVUTcB73QYVxvBebU4owPHE3pUss6ulYJPm00yMLguT460nT6OkPQSZFGv9Lw4fdof7lWH2m1iUe5CsdPUj+iER7LJeLWi5B96jNVzeUBqBNKMEy3dKDF4XP/E//SbJJCdmnM3rry0aGC06zubFsb326Am7oK1DcTp9KFkI0nNF5HfwrCwWbjqT4u6n+RIW5S+w95R36Gk8Rrtr4ceTtdL3Mb9s3lzHLyGrYx6j4PfIeOSnxEJV9UAlVorPc7sY3zsk6jvYVsfrg37lXCaPA3Dh02n/PoNUrJjrmKZNG8qajtLbage/dkHXOpwhpy3C/5+YZrHujnYl7Vl9UJ7bCXmqhurlxxjqBS0eCpNm+HmcYZb91acj28DirfXwkFV1ZUfEyh+Gc5Zc6KeYdKRIgndSbGMIXL5wdy12qBt1SXAmYGDw5/0g2VO148tAmondNIGUMstZ/cxllIxT5eTqWsR+Q4jTpP3iDeaBjbFHwGXrOAifuOEpYY2FTwtwoZrZpGuKL5tUzJ5SbFOUljHUvmTvFTpdPldjYBWMO9JjdX4SKzo/AZkkBS/XCjxknrfJTE66ZLn751C6a5Jukww6AwygHdyJih3rq+/6XRk55voWzwKUKmD/c198EDQlt8XlGGfAWn+3jlyHeqpJNDm3LtzNvOqksR621ft1LZ/klIUSBraZduqnGHIy5h6MbPYqjPPUCzSgNmX9iY+yj//FhTP75s29YeVLp9dE3vOYaPbK6FarX9Wqx5hb6HDERIgm9dEyUxCDL5CfkwIRTzz5xFvPoce3faYfkzhGNvxx+U9T8L0WT99tKCIY0U63PDLVMlBNqx1vxxa7II/4FuZ1G6mNyoY+kPoiIfyw/oRJIEf3w1pnjPDdQTa1BE+Drc4lPL53HLFBhNN3dBCXbzmwGk7lg3zSCYzMtN1t4RPB7ZZlikK2diVtdPFN2ZW/E/A7rk3hReRIJfa8ir/dfq+liwEM/PqHSVPNKssCLOaJ13UMnVqs6Fof77bxQ2KHXPB3EN75/oKOrY7V3oq1jBYelSfkcpoobAloun5SA4QURbocvcJ96+o4WJfOeMo4abyyodr9anPf6bxCbQXfopKbynPmKTGfijq7uZH+ZqvMIGodAHpgiAlkKF/qq0p9XVFk9GjQ8aBBWSA+wMZQow0hgoOLGoTJga0igufDPoXrfWEsELYqpGBPhG9A4kviztJvAcwqO/+h1IuUW3LxHb9YC9ms3qiuQq/vs4X9nNRj6CmXXhHC3fpf9//kNmfQh3rn03cF9E/Amso3z7/SJWKt6cWy0raxZhJtlabdoBYsMmVV5rssF4/FPYVpNj22m33SprIF3CqaOwNicLS8XhoBgqOuB9rm9xs8pKLOTbsDMsL1B+TCr7imRhK/IXzvq3evznRE1dwV8Z7dajZaMd1ifvb9p+hm+zjzx2RGYcSmB52j3ANy3mJ/pxtAKyE779/FyMzKA9Ei6nwrYxO4K/EdvWXiDM7Df5SbyUnkUgy3EyINviwsjTJQGLscuLxj3vulvLwj6cds/lES4ECYPcIMA3ntPhp1UalH0HRof4VWaXuG87+eo0Rl63MqxhDPTLu4BReCmmQEnrF69URGaRBoy823BdC+E/xuZLpEkUtGFBaSEbTfmFT1QicE3CMpTrJSytYmnliBCRRM5Ql/pjGU4WPQ0fGQkn9mUHRAd53FgnRXVW1c+ysVN+1wY52Vd31OqZcsYcW6KUTb7CoT/RYYH13/axRk9aDXfXc2VGQxMOxmxLPtzTTvv8NdKWl9VqEN1t1ArXCD6vf3rc5yYvUBzEYpnzi8oANqxE0WWAJUAVg6+Je1LzRsVwtYaupmHILa8jVuGLgPhEMNVpIPfWhpczTBpOYUF6ozfVUiBqWogY9ojO1aqDIGUgArfDJrce5KmZu5MLHbcmzbnKrCIDTovq4PHWUjKX7J1pnlxyjdelvom0cCCoiqzOZ/pWUyaj98nxS0Abip6jOtkFi8J8qyk/MEC2+cC1TGNlZQnVmL2T2Dd1w8we0HfgQNRYyUm4ijPpEzTtPfxwpUjl0e/Stdj3rrtdlUI5FC/6JnOo4+rb/8RdjMU+w0PeG2EwyTp1vGo8xdLq6BUC7x//ULbeygVBkBShbYDcNU3bR4MnRrnQ+roE6ZTYNo2P4Gz7satePQEIq0uv+DaCeRKQuae2UjZMYUvgwdgJRpH7X9JcMG/q6DUDY5RGa5GsBxS1PyjvAKL8k58nyNRrsxm38H76z4y2VGS2QVHSVFiENeGHXx4+qpjGES99MV2DGBlhzHskLPv5ucr+jbmWw5P4Y/q1ZERsI+xGfmgGj8LYSZ0Zidj0hcVT1zFCy/sGxsSWIxP97vdyrYhQ1ZLaC0iCyhj3hVzc3sBuUAhvjA7AchAX3IZgAmlrNBV2wCYgd4jUaSZHKrKxglajy1N0C8K+jQ8aBBaCA+wM7qmCcEW+0+42gGqva9t/RjCoR2y0jthCL63BeJYQ4v7fzEEe2ZgxSuYVlkKZ82JoQXrlDWBLoL3OU696MZOEsBLcyvFMIJ7oIGFI+Igk/emBC2RbHJlb3srSDoY9tJXFNywL/6kop6joAdQEKKAFAIKbgaRqshsgkXZormhg6iplatIw68VCGaZU/HwVWzWALb9S5Yyp+NPZl2QvvU7GY3RDdnbrzZAnYKyIMkNiavGy0K2yBt2OLMRnrlSwpwC/jIRn1+dNSELKC4pvkrDM0tUm23qBt2X0+5GrH0pmXhwA1TAW8A0T2X+Y4EJP0YxKO6eug/s0ly81fwiettgrnEUtVw2s3iExxtIA8IZodz1lumUfArq2SktLl4War7Phv8sfrHVTjPnKFe5gQociGY9/fr/TdtaEZpFFOzox68iMt4n/mU7M+Ith+BRYKase1xl/tVgCPN6dOlhgjvWvEJmOrJjfza8f+m+VypQmN4fnnJyml06OUc9GUwLl6vbubx+yLwYrULV84ifcn0MeZWYi0M0TuiRGWTsfaW6zq2oFWuAGLJ5u/HOUACnL+ANDF4RkJkJVbRnDUJaClvhU31LDCV56zvNKUKzDMsE+WCy6MGoAIXAon36HxcLFbHQ4gqfzL67yfLzU+Q/UOOzcEJbB1e9BC27ZWFuvm1bjyl2+Uc+hc4cUGwP2UEqmJmtEL7yeHagpBppNIkVjKsFfPHgxTHm4oBBIjEYRO1BP8JvgZkDGQ11GTYvdGlqUBM83Phusp7fUv5IFZg1FI4cxZ2Qf9Vj6J6MGeiLHVa5D+rLoYqlcvMOa6j4IT1M+ZUWuVazhNr9lKCdZLv4el2b6AQs0igtbLJDZcQx6ldDlyCCAA5wAmDR0hwtyLFphqdDjpe/pmgmNi2UkzpsgtCRyAf6YdvxAIQHK8NZc9L/Ddu2PInSPuUxDCNRDjl7LweAKXySqWNPpx66dslUYsQTrMlx37EiQewbydMEZM0twriny9txEPslH8Liws6jbKGBtP36lyiQNX248sBUXvsHylTPXd5HWjJ7EANjaQHzgI4jojUBiFejn1AfFVUuN9DMpozp6ps81W4xSRj1wb/G9EXvtrmHggalb8oBAQddkcbhfrGYz4gVJUhQE6qubg9bjeap5+6dEyk/oB044sYrxJENoSrfUBai4UsQJjw/+dyTov2SMreQzVVuQy7Wjt/1C0qt6PSvNA3LePejnJUUYjblIZYSjWRTb78QUal5wL34NHFL2u924gCJ/UtZ6KIYOjQ8aBBdyA+wM7PS+basaxHrZw6gQafxbrVV/dpBGg0ut69nEr+2BWQ6ZOGv8ggx929R7w3tI3Wiy8NC28VBM2ZaBtHNdNq2IFVE1vFI2Y8WRurjqdQwAH3rPVBRnXYNndlsekB7yy9Q+1CEuJNTpemkurHDmbc4r2YgBiPqJH7G7aKAhOHR6tOghv37RMMqigp3beTOMV1TSjQ0uPaMxihX9IV2wi1PPcyQ8,
"nJQkY3MAzgQ9bRUnPyQg5SCGfYsA+bzrSay7yEBZ8a3p6/gW8H2+xxbblF7Tpv1nWDjysAHJloPZeN8rpa8bW1476q/6VPZg+ZqsSt32x2znHybJZSfBE/sMt7d6MNyijApJya3VH0AzVlT7EZ94NNXC7gKVXHCu9GxWl0blHwWFenUgO/9VoIcQPI1eFTXgC+ujxEGZBNfPMfDct0C3v3kW7H4VMAtSvoN8c7Ljtr9fExXJgJ5uaWGqvrxwdU9blxyKhM6I7clsyacmTdDNXq4Js0mMzGc21X3f71uDqA33V0Y578gf7aV41nv6rqsO/3j7ztTCy1gq9E12InjZGEZDvZkNIoDYHhuA5GZ/lrKP2yy7/dMO44KgEh6O+N7htDcZ67NngmNcnRgz2VQNBSk/qCPBuL1DWxegdE97zVBAcxOYTk17XJmgctV0IVdvyaHrzz6UJLa4539l9B2QUzOfcs+CR0XsrBWCr7aq5iUmPYKkMdBPDjEzNkOITp65WAhb7VbD66uKChOmomLgEjJRDYtmgluKFGKcctGg0WdyKZdQjyIkDtWIWYHKRl2ObYextBIP+V0YpukRjh21pUvI21yZTkYFhS9MnOgBT3r/Km2fvzzEzi7yjiqCO1dwIXA3ka8FnivJpU/MwTavE2oM2+A0+36kbs7kxH1jkyrcb5KZQXyw4Jz1lSJfS/5dnz9W3287faumRICTDTxbtrPtyxZvJsHgddIIxwM7Ws41C4zJIdCPrB2/q4w2WHhnkHPSvEuTyeUuccRXnb5MVXMdg99ExRs0ajwy9Jlz/i6ZID6Z9sAGPvAaZJNVFLOWOVarAErIaxlocIzHx6OwDZruYSeZFj8HrXsVAMPrW3EDIL7FBi3hP1Xrwp5udeQeUNT3yHsUyjp54S8+QK4Xx+flvxWyMUTp8d0pYYiHerqQ0Z6fo56GQcMPJJ9zvEL8X2e9+0rOo0dKj4sfb8XuVf1yPQrNHCo0vZNJVUrz2w4+KHyiyhDZv+k5tB80s5Oh08MsNU0KpCgtruC7vUW+5UDLodfVA4H/aCIhgjKjQ8aBBheA+wNAsBw2JSUpG1jkcnkNLndlNr91dHtyU0L+vmPZalSeFIGPSZAt8Zavc1ZsM78CaHrjHaR92ev1PsEX9NQ+nMfem1Icsb5jT8Ls9peReRFI/Utm2tUdbXiCxqBlljTqKSgnBdrL+3kqzevKI7Yo7JrCzxaoR2iLf9McZwpafYozHFV9NF1/UdRlbP5AXtmgZfknVccXjsv9KoQxG7Eegr8qKriHChiVC3t1CaEuwloWcoyBoPtuvmdqUDKUSsefz/7NVI+VlcRd1Ch5ZFs57bbeKTGQw5l98i4W2kavGencYm+xetjvsfzSzc+nBiYIwD4eixkoMiD7vMKHzh0MQFMIa72rrmocMYC/3v1jcsq37qDPGnoYzQC+BZ3eJKQ17mu3I2VscrMAijT+xYXtoCiuu7cfBH9p0A494/vWQto4Mz1vDE0n4DZalCEMn6/siLm15dwunWWUlc1O384BUyVHmFviaoZs5FUVj8ni26IBFWGl69m5fpUKi0rrXtZCUWgMUQIoXe/aYQurSoAsMxjwwyCwpp5vqd8kWJRlfnSGLO8koH8rKOVJkN2gx1l0iiQRmnY79qDb1cViTCtidxtljW1YsZKhifQBt7o+AAbtxsepgOTmN3pDP2+JF4nQrDXq+miqBzSnCESt3fS6EKYtkoo1YYG9mS29rWJ5nVvTSIXTbrdv/H3keU80AoQAU0HJgQaVupcNmz5zWSBdGAyhRFtNASXyrzWPy+k/kKSuMz7JCgQST6RBWbXsngf+RDdPqgseacfu/F6VrKvL2+EQ3pC+63eGmC49MF9HhCKXI/Z+XzKgCweImo2jX6Ppbip8ldSOakGNdAy1V9QjMMfdB5vDfLP3z19pe0p+eMKlgzQMmeG0ZwdB8HYytoor3mnAfrRIa8PUxGQ8bAi5qYmWlMpOhvxolwdpdojpH8YLAMjXbujszGdjSZWCvOepw2CDvTh/KOlCRHS8xLHcRmm5mcqOADoYH+ajOT4JxM1KQ1dNfo94jSw/7ymBuKh4DpBFlcmkf5yU95W0hcbOBuV7bED1mWMe8oyPyg3iVRYfF3j6gG/JYDAik86anOigJTgAavqQ1HYnCDpa/b89qzJbxaTdsbNI4TExfx+Y61B61rfd7piDuk3tZeMCABIzsZ14Gu+oXtccZakBvyoTVWqLsf9MHMHDAX9VV0KS9TMXHOzVwMSxRZphep9ypis1fVicv59TUMXAl7RMoe/PH6icDXeWHvQHdeYYiyzAe+n8MggWZslkaSt7OXDWsjm5DNCjQ8aBBlOA+wMZROjwic0Ascm/jkmzmxJgJ8y+LmgdpYQ+/JWTCy4lQGF1ylP7ncqMLj0oIMKXDcontLTW+Tkgx6k11MHKgQG5UREkJJPx9yBkboNmG71B+aBkHQRMkSlCqS/KocjbBsgzvK3kLwh12Yf4YrxCdfcH4enrgqJE3OYZCiu7yVmwpjdxy6Ps0GrreMyDsn9CcFRk+Yt7juwjyizFb8jQUResquJF0lNrXkSjNNLN2J+UAbWkPs0nN55Oo0x9EiSFsAfT+tZgQarqi4qo6H3S9NyTXx/NSMWlTrR4s+5E+u/R351dPaJB0jpseV/i5lk7vm/bXEMzAVlsEwb/JsWiwc1lSo82nVwr2ciHBu8gTUOkMWMxmfBjyEuOd1/2W1jbBFEcWY4Kt9GTeLB5f51jJjAnSopumRg4cddze68MUpJbs1AqYIa5pKiwB0EjBK4jFLP/jxcnFftcsDr+lp8xJzZdhS0aaChpeN+yOu6Vw6nHB0UMDe4EPrgRt93xgt12drKXszm4ZTbzGSVhcz1o4YVxp8LQvRKtfC/7n7bayt5UVfM5xLZzsriQDHfZjD6l+rZDxlPbzvnJnmzvmAn/83c+mAs7tPkhobvjEaWVZzDKmdGI3Opbl/tNYdZ4ivM0B8vqo+2oKS9Atj+ieCrIE85s5gE1JRFkQac4Rh1a1RLMUQSXctQjQfjsdcD74jA1w/ET/WDt272DEOxq8MYv7o6b70r5NIJf4qoBQ/m/q4z6gFd6/SkyQeNuoDXJAGbFb/2Ah6hzeyuCP8LoU/6IsZLN6wWb/mWLUbUEUEIr4ULuyLzJqXnV2rvVgYYi+BCBxi/xTaLe3mjZDbvyew01v0/uQsRli+ITi9k6XmiJmCwMazVf3khG4aOdbq9x95jrgHZBDirVtu08+yWy2QvbShX9f4sA0CreWB5tNk+lr5umsKZpZunsi7D2Ob77MRVKRJQL1Ov/i4GyyDTaxfRIfKSHPgk9bAHpkRFrV2W8Xj9D7zksTbEERRry1NhwK18zZ86CLxte+q7Mjuzx+LDvB9pTPb9c69SLMkhseB1VaRnMdmUoT+TqlK9EnAe2muceGROzm2yK8fjKEGKhRYSzILJUeLqKCkoJPva/VuC1ku4CQw4rgc1bPxFMWCqhwF+8mam1GyDu31uuSupr77oYd1wivWI9IEvtf90LwCFJwUHCZRddl2KGMhADscqxwxT4/izN3vs/3PZK6T5ZxFk7kG9wmooG+Yi2fhaheXUADG8HSUANpM7p5jBV0hfAVXO4Ls6jRESBBo+A+4P8Ef8VhUk6ReTKb4Buw0i9rhxEByPANIvnV7SoN+lEsuePlSe5G4vv8qJbsKnbihIUeuh04Y6pF3AarJXfXTa9K8DVE6CMs8OdEq3JQXxhgD9EGL7Sw85ouBx+FHRaxf33uP4VQneODy2nfQwTWFBuY/CpBhtmNmhKVNfyccJ+IHuosmD90DE07QW8kYT6WFAEWW3YFH65Cz9EfDEafyR5w8Kfj/SsRkYuSrqTyD+c8FFdpML8P3L8inoFBmZ7pZe6JhrKYroK4cFaQHLWMZT7RKWg9Ubpuf0oWmOzFBl3x9SxuYh3tKYrzn6HrDd+i0nLla7S3XvRaWXnfMUyPeCrz0KAq3iIdDFantwE45HfryQ3lK45ZQESRbbzBs3OF3T19LJZN9KZdeFImIi+P/hnuNEzXTNnJrYbrYKusimBgvnP1CQYNhEv1JZZNEE29Qcmy2HczP+b23U/ZXQOu4LNGuuXxo4n9G0JSUJEp5f6mte4YK/0pFDlCycglyxsDQoK42VQoge4AYfY8uMiJy3/+ETY9ulxsc7Vt1ASaoe/VnGRxCATVcL01Zo+WPZyT/VoVDiVjhztpxo+7lBAFfnvKTFHzLNiwAwxDDUuC01e7IAT3XyBW6jBxpBOi5LQkllbOHz4z9dl+7Cp67Ul64urLXOanTTZYOMSKK5GQmDGW7MDGKUQWLUK6BMNnoaeeEMNc86z4BoKSDaVe17jQZZHKMzwGvyRttx+Ly1NLgtv+ELtLkGnJClzuX/ASQNlZb1IcVo/yNqwQzjx27Q/A2U4/pRrjgEMBENOX9btc3MT9zo8cgKjgKCOFnp9GktzJGhYR4iTlyAvvfRwQIlI4WPJbW8EC5+6+ltKCHyNirWR2pxQOyHhug12CgB0oZbwQJZi0r9ANsDpFvUYSTIoxSOaoy9DFw9FHTh2Hmvq3Hzk2ZLVN6VnLfAvn2pM+pO6nfeP9zadSlCKFahOXgq8QhYrRpWIFDKbLF+WxSk6O2joSoc4MYIyTGCi7MxQw2i88pIo9Eztr7v1PQwGE/BVOWzCD9KSSf4p5tZNErPQ1I1YqFaMTlDTGJuFuJftEeg59lP+bCWqVI6aM3HFK3x6a9QC2MWG7p8dkA71hqfj1m/nGGk2szuy9NK/UfwWYC5BgZu6l/yTQbWtxYvUv+DJt8//ZwV/nF8YtSrpJblvjpCHqLSWXQpM2wPgOmjY69hhuoS1Ud80EjlfD3N4ZLR5II4T6s1uVNiR9dW/YQFzJ1pZCBA2EPjD14mJ3lz4aGuGcVlBTlmXkmbnoCzasMDor1X8St05C3GVbG1pjf+coDkfieKZLQO5EUL+JT4A3WA1/3HKXBgYelaXD/nOtaErJ3y1NIJSD//7keJ8F7gxOZWyE+S2zITZ7jknAimVnVZ3EFGWw3mAeclKlNTg2Rt9Qzfnq3z4Asa6wnu6+E1QuG2jQ7qBBsyA+4P/D/8PhWULYePhsbodj3K+wGQgXvexJhe0pQgB0VZAeXKxgGWUss+exp1+4mbadvtUED6rWR5UIDFzu/Ux6ZJzx3JG9ChZwbvvyki7SWDhhOmYS2ZYNF+3YrF601FfLgVgT8hzpFQmy6FWHUdrYO41iAx7aODJHSjPkg7jR2WxR6lrZKv0X96OqUuQ/mCOjTx7RUvYZGMu7fV7Kwv0STXJkHywJ6utqfrxxly7s5CRp1S/26pGunGO0GrqD+7tEwf+duo0eGSLvdJTmI7BVSxpG9UnDDnAyhMmxVaXb7sE1dM2Rx2dFXM6C2n736y9UVCCGBN4JxRorBNH7YWtv2OMyegV0dvnlQ7/fQ99K8iG2QvT8+AMl9dwjj+jGqsJB95kdZNAao3a//6E9eEBjvr2MM5QV9JJbiaoyghEWwA3gS+pJuLv6j/S94Zp2rB0F279E9fVJFlIUnh6asxkqwai5qDA6YsHlSSnjm9Qv416elGc6JvLL0+6wZOJ8N/615mI8LFtlf3Yw8xigGwAkGlo93m11UB6VSylgINVfsCW390B0iEzjAtOyFZNaoXoSEvdQ+iMpQ9Z9WrpnlSqd2tkr2QEQkRf5Vip0W7DaeF6ETdvEi0fY3PoCJ0Ss+XQ8WHrUlyprn1k9jPwMPA/nDvcwV3jkipHO69JJRH8Z7R+wNK8gvGd/Bv1cCsaDidUA2UC+oFBsnZg1G0jU+ScviKHlBzRHZYbXnHn8zEOaUOvej2pmTxiI9UXDlgsNHR+yUDzIS4KUqbuJBHjie4OtBs4NgkUByiQfdVKf29TOtDFwzllwhu6z0CiYUGw8evuBDevjrmn8NZJkyE2B9tBqDWRcVFQqt+F3w4x/e4D5HtNgJ2+vF7IDuXR8oETH1b6QYV4ngIpQIpvoI4bUTjTy8duqTGdneE6DoDPINFxFPKwtjCuzqQ/nAsptw+kybHW48SZQ6MPex0PUm7BUYSG3hta2caFyrXbE4Q8+2AAR0sxZ35Q4HZp3+STY8cJXc9DLwLqg0XLCf+CLUjGnapBrp6vrljDvyWIAuF6WXb0pU4Gsd3aFlPFGVUlsJwq0EmSGTAc1sgT2gMaAO6Ecp/KOZ6Xc/g3OV4Y1Hjw0DaGx+XIMm6jlJ0ysalH/AxETGbFIZFY3kGLwUJ+4SBpO1rsE0iewt+NGgNVi9AzYVHRrvcfU+z7i4MMUJ5eCURAwd41J4LvbTcv9t1OqwdtYauIgwfqtpmHwoP9KuAuxBSZnKiTg8vO5Qg=""",2,,,,,,,,,,,,,,,
,,,,,image-button-response,50,199235,0.0-10.0-0.0,puweefsfd658k9k,puweefsfd658k9k-2024-04-14-17-17-57,null,,,images/celebs/timeline_1/3_Patrick_Stewart.png,null,
,,,,,image-button-response,51,201936,0.0-10.0-1.0,puweefsfd658k9k,puweefsfd658k9k-2024-04-14-17-17-57,null,,,images/celebs/timeline_1/3_Patrick_Stewart.png,null,
,,,,,image-button-response,52,203737,0.0-10.0-2.0,puweefsfd658k9k,puweefsfd658k9k-2024-04-14-17-17-57,null,,,[],null,
,,,,,image-button-response,53,208239,0.0-10.0-0.1,puweefsfd658k9k,puweefsfd658k9k-2024-04-14-17-17-57,null,,,images/celebs/timeline_1/10_Jennifer_Lawrence.png,null,
,,,,,image-button-response,54,209050,0.0-10.0-1.1,puweefsfd658k9k,puweefsfd658k9k-2024-04-14-17-17-57,809,,,images/celebs/timeline_1/10_Jennifer_Lawrence.png,0,
,,,,,image-button-response,55,210851,0.0-10.0-2.1,puweefsfd658k9k,puweefsfd658k9k-2024-04-14-17-17-57,null,,,[],null,
,,,,,image-button-response,56,215352,0.0-10.0-0.2,puweefsfd658k9k,puweefsfd658k9k-2024-04-14-17-17-57,null,,,images/celebs/timeline_1/1_Clint_Eastwood.png,null,
,,,,,image-button-response,57,216529,0.0-10.0-1.2,puweefsfd658k9k,puweefsfd658k9k-2024-04-14-17-17-57,1175,,,images/celebs/timeline_1/1_Clint_Eastwood.png,0,
,,,,,image-button-response,58,218330,0.0-10.0-2.2,puweefsfd658k9k,puweefsfd658k9k-2024-04-14-17-17-57,null,,,[],null,
,,,,,image-button-response,59,222833,0.0-10.0-0.3,puweefsfd658k9k,puweefsfd658k9k-2024-04-14-17-17-57,null,,,images/celebs/timeline_1/12_Halle_Bailey.png,null,
,,,,,image-button-response,60,223623,0.0-10.0-1.3,puweefsfd658k9k,puweefsfd658k9k-2024-04-14-17-17-57,790,,,images/celebs/timeline_1/12_Halle_Bailey.png,1,
,,,,,image-button-response,61,225424,0.0-10.0-2.3,puweefsfd658k9k,puweefsfd658k9k-2024-04-14-17-17-57,null,,,[],null,
,,,,,image-button-response,62,229925,0.0-10.0-0.4,puweefsfd658k9k,puweefsfd658k9k-2024-04-14-17-17-57,null,,,images/celebs/timeline_1/9_Kristen_Bell.png,null,
,,,,,image-button-response,63,230850,0.0-10.0-1.4,puweefsfd658k9k,puweefsfd658k9k-2024-04-14-17-17-57,923,,,images/celebs/timeline_1/9_Kristen_Bell.png,0,
,,,,,image-button-response,64,232652,0.0-10.0-2.4,puweefsfd658k9k,puweefsfd658k9k-2024-04-14-17-17-57,null,,,[],null,
,,,,,image-button-response,65,237154,0.0-10.0-0.5,puweefsfd658k9k,puweefsfd658k9k-2024-04-14-17-17-57,null,,,images/celebs/timeline_1/4_Stevie_Wonder.png,null,
,,,,,image-button-response,66,238105,0.0-10.0-1.5,puweefsfd658k9k,puweefsfd658k9k-2024-04-14-17-17-57,950,,,images/celebs/timeline_1/4_Stevie_Wonder.png,0,
,,,,,image-button-response,67,239907,0.0-10.0-2.5,puweefsfd658k9k,puweefsfd658k9k-2024-04-14-17-17-57,null,,,[],null,
,,,,,image-button-response,68,244409,0.0-10.0-0.6,puweefsfd658k9k,puweefsfd658k9k-2024-04-14-17-17-57,null,,,images/celebs/timeline_1/7_Tina_Fey.png,null,
,,,,,image-button-response,69,245303,0.0-10.0-1.6,puweefsfd658k9k,puweefsfd658k9k-2024-04-14-17-17-57,893,,,images/celebs/timeline_1/7_Tina_Fey.png,0,
,,,,,image-button-response,70,247104,0.0-10.0-2.6,puweefsfd658k9k,puweefsfd658k9k-2024-04-14-17-17-57,null,,,[],null,
,,,,,image-button-response,71,251605,0.0-10.0-0.7,puweefsfd658k9k,puweefsfd658k9k-2024-04-14-17-17-57,null,,,images/celebs/timeline_1/11_Timothee_Chalamet.png,null,
,,,,,image-button-response,72,252566,0.0-10.0-1.7,puweefsfd658k9k,puweefsfd658k9k-2024-04-14-17-17-57,960,,,images/celebs/timeline_1/11_Timothee_Chalamet.png,0,
,,,,,image-button-response,73,254367,0.0-10.0-2.7,puweefsfd658k9k,puweefsfd658k9k-2024-04-14-17-17-57,null,,,[],null,
,,,,,image-button-response,74,258869,0.0-10.0-0.8,puweefsfd658k9k,puweefsfd658k9k-2024-04-14-17-17-57,null,,,images/celebs/timeline_1/2_Julie_Andrews.png,null,
,,,,,image-button-response,75,259963,0.0-10.0-1.8,puweefsfd658k9k,puweefsfd658k9k-2024-04-14-17-17-57,1093,,,images/celebs/timeline_1/2_Julie_Andrews.png,0,
