success,timeout,failed_images,failed_audio,failed_video,trial_type,trial_index,time_elapsed,internal_node_id,subject,audio_id,rt,device_id,view_history,stimulus,response,estimated_stimulus_onset
TRUE,FALSE,[],[],[],preload,0,443,0.0-0.0,360d0bvn6l5dhjm,360d0bvn6l5dhjm-2024-04-14-17-16-44,,,,,,
TRUE,,,,,fullscreen,1,2633,0.0-1.0,360d0bvn6l5dhjm,360d0bvn6l5dhjm-2024-04-14-17-16-44,1189,,,,,
,,,,,initialize-microphone,2,5301,0.0-2.0,360d0bvn6l5dhjm,360d0bvn6l5dhjm-2024-04-14-17-16-44,,e17f7747bd05488f2e02a63e071002b1743245fd6d9f45c3345dd3402a676114,,,,
,,,,,instructions,3,10029,0.0-3.0,360d0bvn6l5dhjm,360d0bvn6l5dhjm-2024-04-14-17-16-44,4728,,"[{""page_index"":0,""viewing_time"":982},{""page_index"":1,""viewing_time"":3745}]",,,
,,,,,image-button-response,4,14540,0.0-4.0-0.0,360d0bvn6l5dhjm,360d0bvn6l5dhjm-2024-04-14-17-16-44,null,,,images/instructions/movie_1.png,null,
,,,,,image-button-response,5,16925,0.0-4.0-1.0,360d0bvn6l5dhjm,360d0bvn6l5dhjm-2024-04-14-17-16-44,2383,,,images/instructions/movie_1.png,1,
,,,,,image-button-response,6,18730,0.0-4.0-2.0,360d0bvn6l5dhjm,360d0bvn6l5dhjm-2024-04-14-17-16-44,null,,,[],null,
,,,,,image-button-response,7,23233,0.0-4.0-0.1,360d0bvn6l5dhjm,360d0bvn6l5dhjm-2024-04-14-17-16-44,null,,,images/instructions/movie_2.png,null,
,,,,,image-button-response,8,24574,0.0-4.0-1.1,360d0bvn6l5dhjm,360d0bvn6l5dhjm-2024-04-14-17-16-44,1340,,,images/instructions/movie_2.png,0,
,,,,,image-button-response,9,26380,0.0-4.0-2.1,360d0bvn6l5dhjm,360d0bvn6l5dhjm-2024-04-14-17-16-44,null,,,[],null,
,,,,,image-button-response,10,30893,0.0-4.0-0.2,360d0bvn6l5dhjm,360d0bvn6l5dhjm-2024-04-14-17-16-44,null,,,images/instructions/movie_3.png,null,
,,,,,image-button-response,11,32058,0.0-4.0-1.2,360d0bvn6l5dhjm,360d0bvn6l5dhjm-2024-04-14-17-16-44,1164,,,images/instructions/movie_3.png,0,
,,,,,image-button-response,12,33868,0.0-4.0-2.2,360d0bvn6l5dhjm,360d0bvn6l5dhjm-2024-04-14-17-16-44,null,,,[],null,
,,,,,image-button-response,13,38378,0.0-4.0-0.3,360d0bvn6l5dhjm,360d0bvn6l5dhjm-2024-04-14-17-16-44,null,,,images/instructions/movie_4.png,null,
,,,,,image-button-response,14,39656,0.0-4.0-1.3,360d0bvn6l5dhjm,360d0bvn6l5dhjm-2024-04-14-17-16-44,1276,,,images/instructions/movie_4.png,0,
,,,,,image-button-response,15,41467,0.0-4.0-2.3,360d0bvn6l5dhjm,360d0bvn6l5dhjm-2024-04-14-17-16-44,null,,,[],null,
,,,,,instructions,16,48108,0.0-5.0,360d0bvn6l5dhjm,360d0bvn6l5dhjm-2024-04-14-17-16-44,6640,,"[{""page_index"":0,""viewing_time"":5683},{""page_index"":1,""viewing_time"":957}]",,,
,,,,,html-audio-response,17,76084,0.0-6.0,360d0bvn6l5dhjm,360d0bvn6l5dhjm-2024-04-14-17-16-44,9432,,,"<span style=""color: red; font-size: 24px""> NOW RECORDING</span>
        <p>Please say out loud the list of the actions you saw. The actions can be said in any order.</p>",GkXfo59ChoEBQveBAULygQRC84EIQoKEd2VibUKHgQRChYECGFOAZwH/////////FUmpZpkq17GDD0JATYCGQ2hyb21lV0GGQ2hyb21lFlSua7+uvdeBAXPFh+JF0Tl2xruDgQKGhkFfT1BVU2Oik09wdXNIZWFkAQEAAIC7AAAAAADhjbWERzuAAJ+BAWJkgSAfQ7Z1Af/////////ngQCjRBuBAACA+4P8Mf0LfezlPrFNdto/28AS9qBDpjDtaqrPvUIR+Wes6dBW+EfFZwbfP6p/Yvyxtxasx/hS3z8xDWR08dauxM8SQB1taJ1ipn/vUYWvyUSMqVauDMPkIJYWrgDkub2iY3F+FcBzWU2OjsL21GDJwU+/ETzZtbtskW9o8qO7rTz/fnWp9fCa971lAYdhPwVsoaoImwg2x7o+tBPF1YikJNXIQ5CF410vbwgJzS2xDn5H7u6IeT4vp9KmzH3rQajDfd4MIXVeAvQcgLCfqHxXxpu0LXRNYgAAAAAAAAAGqoJ3A5ji8pM1f7qrKf7WTC7Wjm61SJ7m8/9/6aKDND6Yc8RT/Ch+8VFxAnj/y8ip/JbtfhEYfgFsYIwbgxE8mQsJQ3Lq8UPR5r/V8OSaMWt8Offaya+ogsEE4MNiE2A05WcOCj6t1/f2qCnL95cnDy5fEpT8xfQ4gSohqttPCdOxIL2OFbUriXCp+QiakJjn4VL4maAdg2VI9tUvgMQHJ0H8zcaI1MO3jVfoFU/T7nJtPR5eTJp5j8GVWX3gBqjOJb1l29A9tPZx0BH2ahrmCH9PlsfjwBsxiQCzQfnTNv/2Ia5SW8FxBF3pAve6MlNeuYR9bxOXV3Uy91dDElhjpG056Qq6/AuYC/Ux27WIYkGlrqXWK7253hiNBtTje+a3lo12KfVvdd2KOYR6E5/p8AOUmDIFGnMwklV5KaJm6urotd1Il5fuHlAkJIf2Fw9WX1hlI8eDazoZ8HU5A7mAAMOHC/0TPhrzwDW/vUwGoGVo9171tfJ5l2IVE0HZLtwagnCd/20sic8vwM6/N9REJIuykIPJU3Mqc6XB5kdPAEba2vfLholdm+9AbWjJJlNIW7wYzvQJRbSEP5Vp2uefUpd7xAZt/EEOTUdj9hhkeWcaJzubWD1rsDgkezp35jC+yemgpIaN2YeRTpexS1y5Q68O5iAvA9WpkoxRj3g68UyIMNM5iqOl423YV80j32nYZFtAa1anqVJR42iwXCEkU4d8daveuWwOGI1b45wWib5OcOuifYLnhmQLIZQgmpT9XGBW1gW0+2M/F4z7/Fgb6J4xP9c54/Ru7o4f/KxiZJQLp38yOUuRGXoofn1xnmrBo8eZyYj8vme6e1bAHi4LH2zuYHl3305wfid0q/jVLRidyqtE7Xavjj4+mWMuV2uan7tDCDPX60XLJP+QgUf1Nu4proJrv9cut0kgBn9EZ4gM9NHKB0CsKwid9DNBQUrREMlHgq95PBudzSMqfo5A7eRDYNgNo1bdKTBcph3cywqd5fQgXmmXOu+tA3vc0s5r/xxgw2d6VSL9aie7x0b4TOzWI5z+SZM1JH83XMm2wFluj82YID6ByqIzCSd8tPzr/AW1A/kRKQy+o0N/gQA8gPuD/Qr8C14/0LyAD5z+nMpTBP1Y5jSRX63XAoeM8xVv4LA9D8sU3Hs6Ii89yPM7YIkZqhgCmwCFQDpAsidgWy2sXsVix3lioRnsWJFCaQZmkR9II8f9MejO94wpxCsLC5xfWa3h+88/bXVUqSS4OKoPML9FIKlOkZx7Yt1IEP3Bbc3BlQpNxk0zyBA4bC349lNzowmOcf7YkKizF8z3Jjwjp3XkoSTU5pxpYFP6CnKTct/Q3+5sf9Q8TmxlyBNVMvKLRUfIqP+dwjqMVNUDIshkAUFBVYhfGceSrecBiMg+MhCNA2ljpnrmvpmFKfsP1C2JpGv6D2aA2CRQT3hmgTIipbMej87LS4eUnv4zOqwPxKJyFyTjUEs7mrGNLyiHxRy6Mg6hkFqM70RXXkOumgyOEBcUpCNaUCFzBfJWkCobs0j2NY5AerVWOLHUTRVycy+zsBQBkfkVR94wIXg+ykkHwxf4Z0I9nz9+pm7NwWQ1MBSgSSzPthrEIbMZ+loXISo5Bkj3LhZxbuvZ5QN9jatUZpJXSz8vI5g6zs9jg9+RAhLFFHrdqrPciI87VEMo9ylLG8qc4Gw7u8H01GmDW7kttPgM0TXXsmVix5LWDncyccAmabKJUcX7h0+YEIJDBCdySzV9yeoP3wlVT3bNbr0nLR9YJzPcfO5dneRmZ0UOte0Xrld1oij7mEkvkTi2PWEdusYzS/V9N+BeJIZngA5OCWOkNDHgAufGsWJuy88C2Cdfdhojy5Buio/o8YNN3U4lUHMMpKjOlk/BTEmP+D1TO2tebxKGs6SxHQORhhazzAA4sj5CyIU5QI272+08dn+3XTg6Jk4sGuDnsJUInBv8Uz/8KecWGnoJPly/qaMol7oy20bCQC4igI8D9XhbHixwH+kIoIF+hEMWPWUobmEilbzA7UjH7Hm+nxrHuTNe3TZafIgjpkLAFgS+5aPHa59kXI7gY/9hl5wpPvsjNLrkTNAVTf0YeKyYRirO4IzL5pHgW5RLmHBwicgOwo4HrienNG3So/6XSdcqSChf4Esn1YzMSbzkpRFh9CVDRJAWuGKCwnEh3d/kZcgHxMX93gIZPku9cD5vKCzWegveTQ1nOpZ/7N0puOS4blJ7t+7gPr4wz4qdbhVWjlbYeACPJ7fviQYyIf1m4snkOe5IqYSAnAZJ4CzvBi7QKKNDxIEAeID7g/4P/BFgAesWIEowpdGR+Uwto/IuOboL5SJXUzr8xlt41QDkLK2lJPUW2TqGZjtIubWaI4LDkviO2eOfPpgsJfZ7dRQ0EpOKVjvoRlqMMgcCRMolE4Xwpqk5l+eQ2r9L4WsUiwkZI5giv7AqCuOhcHI07/24yEGCdR6eCci6xD+7qboF4vzIb2G+yM9ZNw7Fq/mixduUGI3ZsF1b55C0iOpfxu46+gL+aiTsrgKkZRmuhC1ES4NZPPZy5ZYDRx/ggWTcNAaDL+NqcSuQIyXvBv7FFxDwdKWQbaZ9Vg16mxsGlBfreyxAnjjpxCO5BRb2dzUTMRDCf1YVn4o54Ac5hwkDvaOlJhlckflQbRdBMxTBUmZ8SoSlQDuSgyCX41dhx1KSCBoVc4EwxV0807eBaW8kNzRM85B6mv8Hml6gjF5N1HxGoXun2NBMVQhGeVCe89nazUhNHgAWlVNA3j18zCuYChSom7RKFjGOQYm8IfBBbb3Fbk4RLDJ1hqCHasZ0Ne6VqjgWPq97o5K5CArw184m1yEFuXONANsDbPxdJWBFb9Ge+Vix3jc+slC6p61mO9jy4qDlSTH/KUZ2+p3Hxv9kRn7sQbwCLqYL3UXDCNDngHHpfc7L3BHW0xMJW0s3irON/bDa6zmv+CHMaDpNQVMdy0h8pPLs6d9xeW6p32Y7Cgw37/HMxYVD3l525tR2BL1Wo+XGCsWhdYF20ZSgkHLSNSV/DH6aEYul8/St8UrzoWJ51J4qrn43OrMMLAWVLRMfoSh9K0w6DGllNM+JLD1tyz3y79fp3UecAgDTvarRvXwB6Z5yVpu13D+eetGn9abb1IQo0eZVkCM2yRPeXm8EhwzhiBLpzPcfqIPiYG1SQKTXU7qxuO7sOrzDzUnAsjb15+xnNznJygDXLWp95cmaH8xb449FdYfMKt+AehAFwxbP9Xtot1zYx8zybKljjjy3eI9+aHDaqd/UHzhfI3hDPLWSoSo7T2YSKvIsQO+FbGbSJmEK6B2SneHbaN5FsWu9OkXK62UQE8m8YP8gwXMt/Yy404MndSbxm5J0a5foourf9cH9159kmIj/2IBqcpWarpXLjS5rDLsXIqqCU1EaWriIMyPlrrcMsMaufronlMqwK2OqPa+R9T9QApalLQKDxOr72mBsaNp99EPpl15sGm5Vv9QqnZHWm4VGFnxaTkupb9qPVLX2A8agOdS02LiluaY4Vb+YujtxGRrKWNSPR12N2CLkhF/Ny9u7e2gk+YsDDn6wxCo9uzhb8JqjQ8aBALSA+wNgIt8j9g7B+yUWOX4uKDQ9BKnpT69XfjnYqMq+q3o2HQwltT31C2XgmpuKAdWqxJP0DhMoLrp5Hr2oUGVMaGTu/AiX9Iz9yLlJ97l9zFWkrzqdi4nf0BHriOCJkNSsIhfnTAewMQns2WnSYsPUaSgkhArDAN84C8lERtTj7rF9+nZuAZO5AZ4csJ58PZ+LelFethNZrsNKaFk1sWsbqVE10JEa9PtQydDcRXYyt9gZaPXcMp9lSflV7Xtq2hnpCA+aZb2HsC6aYrSQ9CkRstpmvwQGZn7pIytlgLcK54RoVYJ+YIayim3vljLUVpEPVKFnFeEij+5EJHjazL1PPmznESVG+vaE3rlZgOTMTNoDT9kn5kceY+mBO0VtlEOIamiz66q0jNoiXy5jKdUT2YyKxot+onj6V7KlNxelxtMsN17I8/a9Fl0cFdPFszxWHzHC+1pPB66A0V6CB/kjiTE4M3xAQMHIHW7sUvnpuhehpfP+CqeJm8TpX9M9zxdrtKEjghgdLiCAEGx0QdtnLwojuKlYCURakh/+k/F5Jbs2qAoL3o0VPHag75ij4hP2oEYXFzHFb8GpDx+iPGDu/Diwvw4eCzVDImlznxnfu4cyuGGOKah6YVIHBlnca1d/uIdwvI772KJFk1lUN8RFPcq/dQ1nfYsJZpiDG+21Tzy7CKneFAdiEllcLzftZLSXtgNcaCWHr7VxCi8sWunNIxTwGkEk2zR3vxqBlJGnybNLhvlCFBmFEXwSU3J9cp9jqeu3RdhMqXbCG6kN0c+kmDzilyvrnn9VmC/GknlWOUID1nLg0gbW/dfCaiqtXAVM20kevCMzjyByIZZTzAoFmScuXge3VEMbn5Ka6xPA0B7UG7FTayGB7XukbtFwxeZrJR9yw1+m6NrplwK49x2bjO5x26aJVNNhB4gDcGJ1IObOJ/9eYr2B4+FzL8fBTpbrXHt3fKj9va4fgKbblP4MKAJ5q1UC1R+g9bgJMNRyfFJ4hlPEICtCHZGMRmF6bvcpZm/vh8BARnhprnVX4nJzkvoxI+G6bZPHIteuB8BxSe0NX7by9LrmowZNh0eTupqXHfh2PIetspO4hNEeGsofJAsSm3iB8YxBTnv6yfLt0GApcGw7asOoEH8IqWjmU36WuSs26Pm4qsFZnl9arQ1HaRWV1r2xdHgj6yJdBNpYy5C9bTik8oXa6OeOii1Viy4D8V14wtJrY+LUnipmaXzqCdy80DEiS7g5PbcZhvFpYlQozn1rubApqlXBtSclyr6L7E6jQ8aBAPCA+wNeByN8Dv4xUHYEAetIZ4yZpYfEdA5eMEEBiL+vuvax9rsiK9yugNhNy/jzATjsv/Aa7Blpvi5pZSZgTVxynvsvWnNic/j8bsOjJ7jj8BnwJFlJve3J2iBENNwYmblk1iwcLg7NNFkbiMZxdEHiTE9qef1/tleQ+129WgKVQX515/CUuPT+0EhkcyDNoroaL/4zUcsfAvzYwkBs+qfVvsidjSDDhSAscESFFBV97UIDhSbRh/B7vqqx/o6w000bQEsxAG1zw0zkmQ4eWkIVbB6uxLtVZiOIOKW8vLtRICK5yE1t/1XKTeWSgk8bEW/cm/+H857w63QbP2vxQFhzvYiYJZ6G99EttUirVbJRzS9LJBSNxewknSPI7VBwD4DOHC0xURPPKRlf232VFDlNwDoE5ThQv8twkyCUNYIHRm8v7l4RdJcY8WDkkX8h2aLsrNKzf7ToqHFdMdPksQGHJo9yvKWMq5Narj5QhghyLAWtT+2i215do8Yg9caUvb7abYEoU0IrVcLw7EQPkDoM0F7evvMV260mKkCkxqKXXJxbyMVjQS4kpUpv0cLHhoQn7elXf/u+weHPjJx5m0MpNchfLw3GZVyFziM1QEMMRXPDkWF8VQXI4kIF02hPEsqKmHuIVoLkvpgN/JN9opiHWLNmLYPhbBZtFUOuZADv2DavKAHBrG+RauPExqT9pS9oofjqjK3bgi9bFZ3iKcVvsd/K6ABB+BLIh8Ra/F4UN48SPhbZvVRKcp8HukdWzIQ3Xgjf/aqZoopV/yRVK5AzsYvjwhYS/N3AitNrWr8nn3lNXQYzE66avR+iZjkVgiMxLcD6Tu7ReIHsNeVsjCJwLxGKXgkaPqKhr6GK4cO5UNkV095OUhaLOrDe0LicKyYi9yyhQwmPSa2tOe7Ep+ZQ1ai3wWu86dQGhe+ShNSbqQEteeUCRUoLlySi6FBz9oKm4tgR/X2pLWytP0vSAq5XuNEcZP/UlYgNpu+MxyhOtVghXUZ9YTcxNpCRYEm7mVxG4zDjKVOWC34dD36bFtx7XRVGoev6ffBEvxSqW9d+3EFUMOt6sAU4yD6ykOEuSJMwQlkz6JH6w35PJ5jtS6kMGRfXbxZnp7ORESwCUR0gVl6Wy+XZ8mUauC0egEwcUX/skCOXceZ/GCvBFTfgX/8sEd0eLWtReZE0AauEQQfSPlq1St6wPfR1EYbgcDKIRqbW2+goafW1QItHG6b0hw1lX1ygx1Clt43cy3UUs3FSoZhkxFWTvgmQY1ePrPoV5rdsL1OjQ8aBASyA+wNePYc+l7PaeFK1ec4iAL8CecToLZVJ31QH92rJAEGAGQYYK7Wyb5AdfpKl1pViENs9Q5Y4rYbtUsdGTBonUrs34pUykgsutwhU1fOLjlwN70IcUl/CeTjzrR0fpvS9tHe5gMIuuFn1mvLkX7JxyhAHQgW9MUN5Bu7XuApeb3UvpklCs1yU//EnLFRdGCEnC3RWhlA4BH3Vi/99giYwkwfBQRalzwEZVY6JV3Zh9MNeTOoS3QGni3b2sTGEogrct0BK4k2NVGzbx9PwSqD8fQCnX9e2MfwieLTuzCsH5ScUVlgUO4irEBeV47omfNEradFEFzXqGfGSD9rHPJCWOy0Jyb6b5KbqHFnOhPJBS5WgtpPBtZsKocNf9fFAWPylYTjEBRfNeKiCwsk/38EfTYF+CJwP9q7wgR7UJi9/x1YLFF4JKiOgXyRoI/DQQUJosNtvcRCPdxFdaLt3XgGYw+ciwRb2nAiMgqjn5cN3ScU8M5my5bHPdO89HRgqzCmqYWKISWBINM01STAymNWE6heFPiSCsJltu0diBGdjCBLsw/A1IPcdNghuA3TaGRDXkaiNZERXxRuWQyXZK/hHXRcOWE0g9LGEzrPJyBM+yQz4UEOQq4o5HIeiJTOCvyF8B/7VVGLazUIlyEfhL6RbuoUIdndAxi6baC3wnLNPuC/yJ4q28hwSMji9dTF+S7aimd4hjnoD1UklOmw3BbLMnxtl1FCS4Kv5SxQtM4y1RRkhan5MYrf7CdXOo6dKrAkY37hEhmAxlao4V3WDk1S7qyQaF0dMmScAw6XDdDzKOdz8tqDdXhcJZ/NBOm8anO+ZU58Jw3RLe3HeopI6ZRocjVaKXglboaaKzOKkNOozvqCIlce3z+Iuo6ctaVZCSImHyiaP3pP9jsuil1ta9jw/rzxyqxfXsh98ot08XmlYPbA08AdIV7y86UEKYQHETy4fR4GR58E7fCO/piRlvIwCE68nSltvAW1EdpoqHOdlLbrkXsAUU9oplOmfBoCp6L2KGUSg0jaFVKqSw24mhSE+9rGS7qeVO4uBygTUjVPOGJ/45R6P/M84xpAAOnwljkeoElpljPtaOVoHIVbbaUslYao+OHFXzrHu8gkQvMSU1WN0Txj7K0S4dNGxH3eriy/PgtuV47n/upiPWow1BbHhgpAWF1mv75CnGwG28xLglPS9PuqZv3HP3xHZ2tcqxZQ86NpHoWjqT41JX1j1AdroKBVKnh4g2d+ZgAMCvXm5IHl5d8w+AXgB6rwwlyY79zydOxGjQ8aBAWiA+wNd7v71qtMzn8e4iLqQsqcfMdJwP4utyEkJcfrinPx2DKI2csmbsx/z9FHEfqNTeSZvl8IsRbuTlCnlrhe8IAYEd09AOddQc4yzBGr6+1vmBdtJS2b70wbY6AwU8JO6fNb+LPH86Qs1c926a9uzTuWIQ81PGTj2sM9ZPGKBCsQf2M/33FzbT82gmgMoeFD86b1/7skXnMyN2JKgyw2I4yyBfrRiLI/2zl1F6TmgrUjmvKUkIo5YDSpPZLn8L820SBrccxgYNnWp8U27wpaOfOQS+Cqj1ae0+yWsR4rCzhZo+zLluc3Ui1W5/oRAjcl829GAmAoMzGFDHmJBTsmgyW1zlve6funtmcfXCo6bb6tyt8OzFWRYDO35JjTBSdFza/KWE2RVtlThLLmLALQphhewemFhSv/zaMC0hIPwxgMsElszmO6eD0byFJf+wwgtSDnj4/PnAaAlC/gXpRuLci/asO0Mv91pgLaEx5KqkF7ZtyYoMbbJ93RbJrjMEWOi/xk55oSwH1917LvgddmClTWvWI7aUsxaISS5gPKb5hZja4+624CyaORhQ/Z/O4yhQ5DdSLX5O9WsiQ6wg6iF4Rrol0bgZUso1l3NUIZhURgzLVqFP/6vKwepCn7eWaKbddOh4AUgU5bmSZZpEzGbhRUBOENxrgCUV3h6iY2xUXsosI2RrfKnjjOWjGXk1zr1vw1rkG8oTwxJhSMGTEZVPBeawnE2y5ws79rTwicvL0CXJPtTGdhTYqYxAtsqJFT7sURB+fne5gAhJX55pnw5IFN8dNnuvrt9xhm5GrUCrKrEuE9GBO5R3HPjmJF8Kz3745oCM1QMnWrmNMYapZwsa1iOXj+uFKYfP2TPwDk4uEEMTVaDNpwkqTPD3KE8POI5K03q1dHRPzRR2met9EdiUDPA2n1dg894VWPqJDWJwu+y4bUz8ud7RJ7EXuXziKiAPShxG9vlg6UMzlCz2TNiE6F0rR9ka3wTJ8s7xPE7/Daj0xbqvbHHC1xPpmNwOmEs7VaHQ6S6gk/LbT9xaS4xNuZrxzPRUq1FEX5uF+xXj0gaMOqVLBKu6Lq9Y6QriUJ2szAX/czROO8zAMb9vDUU/a6+aujm69Kpeeo2izEZytI+T3U6VIT9Dc6cNEvUmOVCpSKSTzghsIdU85V0MsgxVyOL8WklNh9BH28whQPFU+8ma+gdDAaq2x24DV8R1RHIZCa7gzmCvEOnQcjm+gc6Ech8lL2PhjvJCXz/0/7xFMLubYrKQdx3m+HEEikCRmzRJUKjQ8aBAaSA+wNeCiuMftWQiaxQMJrAzGLJC22yX9LsLwAERYnEMzWKFhzDdKpTiDC5drusDiREcInKHvKVo9++DjGrNUnsr0bmA8D2aY6T9EUwiU8A3jgmBHkfGYK02ZKcjpjpJ80uOAuzahN9K1VD4cX6velbIbSTUGg6FUV0XyCx4pPeZkWp1RkTUlG9faKrltOR09mLhyb8/cDW9TWHlt9EvOyfhluHjHYQMkCgnnm3p0KOS2Do+ZoE6L2EuDVeDrgjVVrMbpbhDUBuYNk0s2Nzq01lgLSR38mb7MyUMGO4fmBj0R66nBBjkW0F4bLxH0O2Ab51lkcDx/bIg6xIvnndt4lFaEB60Lgu2agI0Mpx5fBNtIJEqT00j8Yi3M81WJkzUIw2CuiopBni3Alkm8PZlEQylZVnZbue+7aJbg62MUX5846LxGBcZmXaJp6uY8/j+z3r1MC6k2xZX9PbLi5u7X8RVfZfih6tsnHJ1e3A4ptwMqWkqNpOumXVDPpWSSHrV8EtJwlnwG1GwZ02BauSxF9vGi6JOXclfMb8JaPGFlymLAmoOM7whzRF/jpfwMpGlY2mmt0OWtVVEvhW2/bh4OksQTKS8jHGbgB7ImWVQrqMEUlMb/FB6OSs7tVi+HNUu3u47e1GRRgDEE2456Hpgy/k0Xs5q5IRvaV2ZgmEzRynvuIrl9E5Fekvyk870Wqg8fCWVbat3kP4ghZ7ZCO3I3hNSIA+E+qGkoaFNznw/uqePFreBaJ5oMXuJkNbaBKrsT37pJ0XNc7CVPkqWcF4PtWMf7z9kH5Db0kE78yil0DRBJHggb2NJD2IJYAvmj7swtJVsiIZpbAMh3kEssR53OdJ8LGTYAFVXU88067/b+Zaqqlq1QMwUC7H7D/pgdtIxrsitOT8mot3xfJHls8YUabjS46tS0bjxnMPCpIL0o5R9ClQKkyJTVZ8WOq8VeE9OERZb9pDvKX84HeUxt3p1oavb2sr5bW98v09dMcxipxzPCAKzTJS5f/cPlK3LXQSanTPaVW4hLDNvSWUmD/2gnkt//eXpItUrPYwDoIPHRvq6w+jmJWPLUy7aJuZJ2pZuPEIklwh0GSrlzYCLvpcJUbsH1WvkUBdSYULVKA2OOcXeBcMKG8LU8YqN7hRsnPxIH13wo83MOeEn/M+Ymj3xXwC9JVcwYXYeI07ksBckOmWarrBMzrAknVGn57yApNUJw1NPVtVzEUzcdPxriQKF8icXAmOhDD0meQeM9Z2st9UAQvuGjjLRmL78TWx0bjuJkHzTPGjQ8aBAeCA+wNd7//FPe/Z2liayciWykU0giGodpSlO0OYeWV3n1E8qKYjJVp1b9uw9klt+vmvUijRGZYTlH6Ztm+nL8/c7JXITGvxomk+Tcjweye299tG6y8qfbF6o13Tj3vanEBoEP6W3HRAk4eHREXPFsLBl5DzyotcleUT0PQlrVahGeXnzJiWpsCs9q9RmT2+XlzHQFwneO6J9iHE7TRPtGrFtoEmnUoN40y0yp68EctYFPC4ImxOCXPPH367xVFlRnASOis9kNkDV0rm4LeHmlX3tLUjgZIPWHZsm4ja05T6NYxxzG9homJhqvPXUyTAYMGQmAQD4f/4ys+paAmgYBZee0/9Vkbmu04gcmEnVS1bUmSEQHIuEvgwOqzvxoa+wxNh6oeiWdXozmFixxt4T3UQBgEbbhIX66v3JR+oTEUfLQASxVszLO59lac+T62/UlHGdEGYI0lfSc+JNecVxjBYinI+s5CUE0By7CYjRjR4bfxdqnQtydMDQeLboe08LltDnFpYdd3VYAduaET4IUjkPqP6tJDEzW4cyMW9ormKc6c1y5JZghHp0ItsiSIKAD7L7emfFvhwJW2fPh/hVlKtjY/zFy188+0kQs8N3KdO77rae8noz2Xj5tLEIa4g4E2spkZ3SuzS7IOx/uez9BGsNMZtG2fauUUDAf+d4Ar0DcqPnlA4AeqdLPOxQc2mw2OEdTG+zYzhcdjU+YokLAxigrKxgIjOVwutPboSECkEPtbRmK9HkE1JQyhXSE3UHoY4fMl2vJMjXyPaoOFUuzWzadKtZOaUeKlGOae/oY4qv3qOZn+NpEsB+dCD004mv11FqijwBfj5fNmgMMN254jCqIxbXkSxb8xQreaJZzHD/hmoxg90/H7k/JVNMEPbnE6X+TTPUfoUH9qc9Dxt2whWXoDFpTby6gifcP8lqS2+hk8ojD1UCXQg84rqXcfFNGVrsWmvAkgc3nzl1Z/qhyYeHbDFSV7V1J0BofttLY/drmkmyTCh+BT9TypL5RSMqx4FeGoy260HXohrB1o4vcUTBMMdKy/Ls9+HlyjGkGyRv0+61SKjR5fSEq39qfHkZuW4R4IEZATwH0TT90b60LIgtsMZbkE5chKSKv06H0JAT+ROXK6STWPnY3XQ7HeaTTZwccbuqTdQJB5jSxA5uabm/H7CGeyaQ3pohf0MKITso2HHxpR0ikbze3QK9LJ0NqBOEyMraOT3qjICQbfIjRFs9yiphnTQFtZ8Bh7CY0xTnu41rp+2muZ+3Kwyswe+IzOC/X+jQ8aBAhyA+wNaXfgCWNg+NeyOmrf+rCmTKJ0Bh7p7/6XwzPrGYCh5AEM1fqyop72CFYBI5JMr4kC6N9RxZktoZBxGx/cvZd/ZrhCU7vi5D/NE/xtJhHOL4THnG0uTXzx0Nce197EOaFrKzBqnGtwFIGK79sittCHr24MO+cWIPMqt4O107DwXaz/537q7/a8iN/RlSLbYGZD6DoTVCs4XW4KkG97bYjvAhgR4oLaR29JCTiW3qN0n6GXwuBkrg3Kvin5OIsfZPy4UgSHB3OnbKMv9Wqi8ldw7oMqb/dEZ1c5jOQ3ZdDgcOF9Q6XExlO2Fzp5lDzuOxOZ7cL/5Tf8/TwnI0C4BDHwdwRA6DV+BmCr6Qxzuk6Iy1dhrMAcc4fF9/C2RHW5fiWYPT0ONP0UZUKmpvmb0TfQ9kFUndbEImy/MjFtIn7jvAV4/uPl/8kAGFdeXiHt/8ySFA9yxVBTlEEWHdEGeQ1oeyQ8Wl1aRtmc68yTRgyeI7ifBRt2pxmsn/gPE1GIQZyNxES6OqU9JKpJglrD0V7IC37++n8VQYrXywOmqdYTffCHuUGDhN4JWTOT7Ft6vk8G9Rubkt4XLbKQy5K0jaDJuDj0P1cQSkKKrDeNudLg2c3bHQrWphbGAVnSXlcCHh0gCsLVpWgZXBR8iLPURq0POTgZzTiBbgQ2eGdo8n9Eq0JxLzmFVGB/Wmz5ZlXA0D7A2/eiArUWK9E2j+IM8+o9JakP/HHnkaHVKLUIritDHcuHaLXxvsIBEtwKWnG7zpbOsozn1uPggYQwL81XJXVOrvQAiXKVwZBJrHLSQYQRIJgBdaWnbGjtrpTert5gERUAzFj2PqfZnkaJ1a9VSQPj1YBjyhKThWB9oCWlHy80hi7jfS2NuO75vW1ZjhXn30YquMBxK1mHy8vSv/fnI5SJTbhLu+dgVz4Ur+cPI/ew/xJYc33bD4MPzWq6UgndvA85SDRLbY8xphErRuBvD4g8c95S4J7QH4XfC1Y2+auzwH99J1wU5zZgRSfpi0GDDorlOcMvPRR8tI4jizj+PHplpMioLV8pLJOfng05cK85WR402raMRQeYjvUGt8zQNiJ103/rGd/YxPnp6JpR8/kBfhrQZ6ptwporAOjqO1gH4Jn2MjA8X3lagVzALFLNiJnCovwqZYK/Era7dUry20oGFK3aIRK/sWqH/QOyIXxH4wfUX+Wx+g7qKHxXdrxvibrKSnKN4ngWgF0ItnbzI3+wujgrAyPdVYwJioZt16zow1jBHnt2AR+zAgOWb/nKc5++jQ8aBAliA+wNeVTPFHxhD5vnnf/T767M4czMM2MnMjZRhV974UTRxttFtQdarWtn6csIjRbdkEZE2709jTLKSPrxeUvL0Fbt6qFLAi6jULrlf4O40WARVQyUigwVgIpFXWeBL2cLQbBRjhKwZLt2+m5cOQhyami33XEt6JpAm6bpJsyGos9Xac3fZvIL9KK6dnY8E6rJpIHyMBFf0D/l7LCYO3hCITdpqT+lzDakYXFosMdPAVS61lkwXcSqjQFRcbvE8JI/mn3OO34bPpZZM8Cmbo91+dC8vn+bPPV6imDxm14oMgDvfAUoQH7sJ7KFx8hPT1060c6/Q2vF2J/KjpW2ZGBAI67tIfCcyjt/Jgs0M3Ytqm6b2jUWJyi3QzWC5/E00yULodMC3QB1cR4ToQw1XlpnbV8o1XaZFFKN8CUeudK+QxYQJfV5EKIZZbIrQtFykr+XgIUhKtdt+9K5Lwe1K6i+yoJn+nSFMDP3MVZUarCMg11GQRv/Ar43AThL5OOZvI9K/gjJySACjYYH6CVVKEzb8kFzvv1zN6qkuW7AGyEfMDBlWo6vhZ7KGEOP2ptBu2wdQ0Ci6rIB0zyWIUvQ78ZApvfq01szFNDBowM4GfD63zNf+EMUyOqg4e2lfqd/GsvvEeL8l3+TSlY/s7pLS84NfXY9SmSmQSPmyvo/Yo0jM9dOHWuXlqFpj/SZMlE1hiWIUrAzZJy97fekDKrVx74+vnFzyYX/gLT+qxLyf/bHW+d3gnNeMx0ANbloNY0UkYAxvaoh2X2sp4I9m41iQwU+pQkVYyvFGXdhKbQ++DlJFMzXlwDXj2/QdA8WeDLi61qHwrpaT5K3+7YhGsrBZaX9pE1oqXkPE99g56ydaBHbQdjUOOCp0E4ZNRGEM8unVPpDOY04RHOoQH4gBG00m64KqViw9TjgSlkK957THBPm6psA/RHVf5WWUoi74x1Il5IlxyyzkS9elsS+iPmJWzP4dOuz/5dalJi8i7wKckppHMkKxMpjWWJox2QtgDW7O25FXf6NwfwfRb7PUuDKh79jV5yCWC9T4apNsaEAngHw1rZYOBIdznZfvMWSRB8DjzKhrHhlwUSR+CgMRo6JzaA9cQ4esFWRQjFfBpaImpEh684Fd3RGbP1yJIYb1yVQZozGAkFGgxBCX8ZngFsZeVPN6h0Q82Y2/7f3O8gMbyCdnq3qpk2MSk3yuBIS2l5M671bZ1fVHkjl84CPOTaMA70LontLJXcFPMKBUZbTsQbSPZCy08qcynrWYBMMvx3ZFrz1MxKijQ8aBApSA+wNgGNVT3n98k+sNf0WJHQaTay0rQfupWFt+JiJu3NZc3Vt2tJ3LMHEuMUiBgq4OgFVHt3mhUnjNJofC60lg1smJMR4mIppGamA87ZEa8ICauncDW4RXmtokdq6ptQ5WV4DFwM4Wzfxw4z26oeFQYN7DCV9qQ1YgG5udGsIHSrbcGd2LL6zg0papD81xwFK11dfWG8Zx3oAFE+Yx335q9StOSKGfQsvF9eTB/Plyd4b+H4rf2hNfsqQZizbV6Uaa12E7JeTIXLAIS6zBzoBUFbLZ+/3tY2GaFeoHI2q7Nq+KlfX+G077pJ+turJfNUebpNM79qoAnjBRXzWegjH8P3f1y/342IfHyd0QLhbasOcJJTR0tDbDngxvgHlqKYoiw2LbD9d8vREShUGKlcVDuJVprjFXTGMx/CKiFSJj4kFD/2ABdHPYKfws7NSXw2ns7feFaO+R0YwtyRRBai8pHfFXau9mAmc//g2TKNwDXkrfoIzdCPOrzjwm69VN9Tv0dJ484/uY+JIo2DL1dOHypVmFQ5aYZ8LZdToOAeoD2uHOh6LvK3lW/u5r99cavXDxSbWoSW6aBt0iQq3FItDjKcALMP+/EOgbv1ZjEAvbVBBllvT9LwOH8u5eDggzGl6UgB2NTjgAB7fvQbqliQ7BG/BcXRQsmRZBqMk2JCgj8lufBo5Olbp1ft3zRjizfpjWfBqc5QNY/Z11VMG9i+3+A31RaD/YWtrIVWOGMuO7254OoZOh0TkRz1Hdjz9cfSkgSdotJ/uhoIjYVdSDuueepN7TU5T1IdlQBdMc9u+P9Z4ymbJL4xnYLlYKO0loexfrng1orYVTc8jJodTGyATP66SOWmWw/tqF8xFYrWlbKV/m0kBWX/JxOBSHnk2/tC7GHb3+S6gaqMjW69WA/DQvoV87gHmSOQyA8RyC6jlCrcP1CrxvOtxyB5icnIPUYXnhpgG3FQim/tzUfqGWPkx1ZY7ss+sah5jfKF1VB2NrSG3GoyCW72GfFBnRU0NHByg5o+nhQ22nMMl5IEnS7Pwosp1REdnDMTqWL3GCatpg4zCg2YpzJJ3GfvDdr8sTCvuzbCgmHLTnHZN3KsMVThmYB3LhgTdXNwj4cB+JBudJ62M0+v93faFu/PDHbkVlJ7W/+SxKeXhXfD3WxlFoanO1QeQ7zWdiOpdMJZ/i7qoYDm7eA08z5h0KHop6IBs/cw8dAWVPGi9nFpSOMUIBq7UBUK8RnOT8+lq4Xw7Yrlncufvp+bQa6N/5ro8f6UhhMi09nJGjQ8aBAtCA+wNaZP0KqwJ/58TYjPYIqdJMpyyLnzPinjWY2s7DF+TLpWubDTidcX9PKY6tGQqqUl6O4T+pVesAX2qvCSAvanw/ih4ghY9R5Fb90dRoxrPCpQj3Vk0u29d3M1gqQcm1Sdd5SEeGXD21IB+FoQ1N7yK15GbRCnzPPOtRDRTlJX4haJuiqWuD7KK8Rz7msaT7hWftmkmPyPOJbMBVOy/3iX6Om5LBJf6S2go93tah+zNMyn31DiAhWzAsQueUtrR79gTwOhtzTpyoOwTTdM10YiGezZ9ak9K+8soFG4lokrQnlwCQU+zeP8npkbaYvEUbMi7g35z8uCluBX0xEyJ3ml67KdEIp1VJPirPVrNbprgoCb3wKSPwYbGUeTAs+c8m7oGSsQ/Iiqu69PeSjUhuxs17PgBThT58/0KGXEgNTGfKimAJORHl+kISRVNPVcP7X/dwlkp4IiQzlrZKhgEHZxlvZvQ35OddcdOKzoflNkWr2ZEiM3YeYi48OBQWeRZ7YNHNF5dTTynZSAWt6RAJnmRiKDUpiHjhZ7BoztK3EphkNwW26O+Kd0iVaXdN8clABFDIobBKCyZ3pOI937JAWRuVpSaidBD1VUjtF8lzt9k6ByFY/JtPm3GBlTIeA6Cs/fPo+y4ELGI06gxo5R/L0s/NsRTcg7zt6rzwjyqSbuSoc+4sb7451qvCbzOD8Cujq8Q2Ih+fkDG+QP/A0N2Cplzbo85CNqboMma+lKoWM4JIkumkzgoSEOUF9U2dYXGu6yYzQ45tOUvwHmFzVhO0eEqUR5bgZeQHTq4yxF4n8Np3JnNpZom1r9mqfjRw3fNdgVZskyDhkvR2oPAkac4ur5GdYBSxh2vivglYI7Aah5nwobV4Fy71J1H/zQvKAJKIOT0c5G4r/ohFq1EkQPE8cPCDRhM1CNRg5S4FUjLIwP992JAYOfhfvwQbpG06EQEhSLUNLHxOOn9Ex6Ra5hVToZ5kjoAxJscdka5qXEo3IoXlWz59pz9KzIXwfCWJkIoFHoTsAhSM9rvjY5ldev8SUu1DDH2zJs+rsjQEiCVP9j8ZQFM07WiZf4xmNND7AphPayo7TQtvb1TL+UFf+k1H9kUiLoVqebAkICBTKARUd/Fh0kT6/BBXnOet7/jEJYUGZ7tBKIlVNXUrru1dwpiVaeOD2l9gaeqczYMSvcI2uYNQeX7x0SXgYywTRl351rD/LMOk8mNsXbMyuG99dYXZGsNZXB3dp9oYjJxhM84rVP7TTuDL7OZcBKCwpzpdWickL1+jQ8aBAwyA+wNeRameh6jh3Cm8Z5NK517ogZj5PIvXEy95BSEGhKP1I+NJep9sOOykfcXDSEL79lYeBh8wVbaUas3tvrC59oeT8VmuUEInckrdseQAuIIxgV85LETqC+M0/uOrcRAu7sEd44x4tc/nBR90okVPPFideO/2rPTSkqIgjF5jm1UomopQWGL2cQ4658ch/22swomzu1k9LKCCMYLvQYbKf8NnqjyVKcNWxRHEG0drJkFdYTONi1+5CTUIeKv6SnWtnaUgB5sfg7CEdd9Vdd+2PcaGYbnYakFKTFU+QcUEb4R1QtgNqTipW3JT4XaR/i3rGl7OvZk0kbR6u9y7j0T69sHH1z+m5NweZq5kGtxhkC8TzSSvkrLaGDHu1Zg0OdF0ZSFM9NRvyeNkU+ORcJ6texnlmnd0PNXYCCB+Mv6ComMskWAC1iKdHb6VU+uyUh3M0xxOc8bZnlnYcgosNB9z2Ia44DB0/zeP5UTwaePCk4pc9L0ZaUVTgHQzQdnRtItZxAcqEIdv8tEPyFCSb5FgeCCGHLASgWgcQTBWvqVOWj2ifIbT0lvu66vcVBt7gDaNSstw6WzgvLiix6ObJXm3Pt2iWG0DDGJUrQvb8saVZtmotnsZ7kIm+RTwyWYDuJJcEm1GQvCB6nk5zBZ7S9rW1Zm69Ikl9lnPPkwXd3VeZ4NR+9i8rlhsAwnsMX3G3lA7B6VuByU2CY9Yci3VV7UmBnhTf1cD43+Gvmsu4siNcaDGVN0auvIdTNoq2r/wd23+De7znnla2/E/7G/XD2Ni8O9cn/pkO4tcSX7G4Rc9g231h03Qwr+0WcKjNYr1iB3VnvxwBN9PcmrMofpHWaL0oiTGYBOthFU7WVhIusuZQGjZqFFSyXQWBnJOoYyXmKDfmjuoYGiePVYxtz3QPa+EOvlUa6qN3NKrTtA8zs4ioSxMGENnCScmN0WjlPrAKtYdhbfOO9qij70fMthLS+gkYx7mb5nlzm8mGv43igHOyMfNwhnSbkpVhUGWMxuxK4mhdeQs6rH80Nj8GuLpANORRxNnGZNXg1Ee3y801nslYDQLCZMxZRKbh5ZTJFZCioVtTKTfkS1r9BI0nPxRp7BkI+8kJeYtoAdyvsGlNmxcBj6Iq/jwVzuqhQPtFqm8uYOuLXHwTgDZStAtYXJjakSgI7oJP7q1dx+jp/f2uDclCqk3ddqDV2JT6x8iR4gEEoXB0SXrqvUhbhGfYCthhcX6gqQW9cvqDn2CJslJjG+uSMWACLEHvE7KKuouVISjkamTemqjQ8aBA0iA+wNd6qyjXtt/zbl6VjjQ3Gn2x+UtvD0DvnCZXv54bkZhmmJlnLYN1E8xXCSUmMIV8mB3kcu9C8HPYhdLWIZqxNnTXKL3z+ouptFqdxUDbRPfCJXDjk6ik11Pm19vWDr746mwfVIzwlOCEmgM0lAtLPHTcoWbdU2LAywKcVvULsRvonErI7gnGiLL8OEGeDzaw3r47aN5+2CmN0Ag/pBvMot4CJy2SIij55HXv31558FOhN34uC4sxihk65K5ZTnUg4CcZ/yzn3531nRBlLWYR/kRaCIZVfJuOXhCghofha4zhzzIkfw8/IFgs5f8nvVTPDAYOYAy+K99Q22HLoIX+Sp9YndQOLPKbDVhgH9YqFrq/hXHbrhKa0ALPfAjRQVxemwRVY4e2V6nSMoYFSShmNdYgQ+VgndXr8K0ZkaTI/ZSh1pmpXDnUFPirVFQO/Cd3Rhjs4m2tzXDTQxwaHENXi0NhT5DgpmZZrCbb2LgUmPLdk3TMVW5eybCzOFXOjQrbblPB/U7Y9/xjt2bvwy+1tx4WWT9TE9ychUTaCItKkbirjutv1QKvakZuJQRM39j0lD/seP/95Sn/LgPrgsnKRQz4JmlXLuxf9xMIco2Y09s8v8Dct8vuB15IfYqavXjHci5BHlfRMGMioNfL1M/2KXBYNao6+yD5A0eEmaK5IO6Hl/SFxjpuGN3APnMx/n4xdus6drUtnjYRK8jJ/XIxkaI1nh/fKK6NMghL/j/q2xsLo3+OpVzkjxxDjUw7DowEouTwmooQ5W2/ncu4L+jbnV7fNqnPcGQS+pEOk0rcvsCwye8gBaI2MKKMgpKdXYE6TgeuL6W5I2Ej8REcAHFETtRXml7BkXzQhBeQU182GZlJe83zWo+hDZhFZWWd1iWF+VU661T1ThmzPQ/EjyqwCLoJ7w+h65s7CSv3swSICHbg5mQl8tzzjVJeLQYseT4jBwLQnxPRme/XuqkaFRaSD01dN4JLejoCwl0Xyvt982zdr0NtrETcMf1AC7+RWwjOisnZrQQfackz3hX05r950OsbedQqMBadVoP5rXtV3ANuYua21icxbiOXFiyaXCzgQmf+2wJaY2WSpEpyGyrH8VR9z5OUeT6KTmDq1G4BDkFks17KGnrQGB2ekn0TBqmn8jLPSTtygWiUT/8kPaFVssUgNtFnyGuZM17phU2eFGw90nGg180rffkQ9SKVI3PYACOSU9vhcjJGos7gO65d6S6ILMDVcQUzKza98mwkGDuUdljHJAXbdlE5CX7xiyj8jajQ8aBA4SA+wNeRc5VwalhaccZiN6kElDXtDE3lIq33lEgqAvW04dPisIKg4jQ4wQFjlBh4B9u5M/wo7iy8FU7YFOaElYw4G8p74VVqYG6B2P7RfQNQt9LHkW1cNV+0TD0vZ1pTL0o6dURlcpuNkOnMkdeqd0klNJDWFK5numzpbYxj0houWFgOOLEV5DWI7C3hyZegTWppASnywpMu1Y3ohuR5HWoLlY/t/4u8ZgFO+qRXepML8AedOdb3L4WLns4rpnnOzhnBookUD4qM05YP6i20NRP+LAtiHNgjdHB5p0jjIZJo/3dRzc8cF8RRAtzEuZoHOU9gi//vh7wuMopnZBHqM86ThzqbUX8RF+oJoGINrZwbrjhBSDEpZoHe5vAEPjf3hMRt+fDl+8r4WMCA7buINgIKr5U3fOoVIzBuC/HVqmZlJln9GAH3/Wgxs25AXf0TzgGCvPrtUzQxBaXFS85kxD/NIeG89OBKi0jqqBB+vOFacPQUE3nZ04+8Lf/JBmuKYZ9UtsyeHlAFvVulu6ThdhlYkxAnGwUZf0EGw92cUWm+XNA3lI6jnbogOtOGcXFrO9OQhQJZS+/jXpRvQb8tLV9b+sApM9lim5aUJnJk+sx61nkY/ay8fcv8r2DF0xwWK46qRiTw1SlXZICvRaTimtKEjl6p2DMPGiPv5jRmUwVYgW7QFr17dbUw8Sf3OMiGLrPOGVagSTCaypFthLnnulL2lsF/KcRvi0OL+m/RSfKgNqojg9mCZW6wWtpQneC9oUnm/wzYuKG7+fpO5DhHm/eH919yEYtVHLuWKCkNpa3jiOwWY4R6lWrIe1TxzMy7DsrvXWtDnC/rxnO/9FrQFfhimsvXfAAbTXdH4SDg5+j4Y3YjGGzsCB4871BPLGRA3neFjkx85lxuOCDzkoOZ2+GF0Y9aR5FmgY6M1YkcIH50cdItdRNbU2vF7emcooQAOKLmQNlI+YzGqqa2vImSs/7FtwbKZU97MVQfyfhxosph71Rac8tZXFv/ZlZofh5kaG2FxvEQBRcIpPmFNLwccQ2JWZdOR08Lu+X+KymJwagSIXg93edZIcjQ/1yCviL+rChgoceouDV/vOtmtZqLqzYhWp9LPMgFo7O/LwiFpGvipFudBm9N4svtOU88/UQnh7INk6jQkQGBRETJGsVoMYAjGGQkwD8KxzIppHQ9ibnB8i8TlyusNVogb/O2Y41Hs0psaJNm5TyKz7Fd9gLh95vxGeKI4rHdXv1HVsuB5XmcDVxrdOLUhG6tFdFxxcmR9wySIejQ8aBA8CA+wNeQODpIdsYxT80jQPNm0Eu4j5v9VW8O6CAx6M9qXyiNwPVMBwMruJM/46bNyKFj31ZYcNFxpKUsCrLro8brvaodPXBg5tO7FFcpD5P0VcbGWHs//dnPq/DLkvGPA2ol4dNwTXlNKuv5b5hi4utjmLZtE44yj9Ht0PQI+KHbwZwmW8QnkNDDRWsx1kNsJsYKX7scvaxbxXPrPBoAz+o1aixEwInFonjouFJMxi/dMmduLm7X5k4Gk5hcerGSvoD0bLSwhYFoTvD2Wao+784I4653P2cwHmPS4q8wtLx9GJrkCfTBToJuhZvRrMTeYlVSROHC2mxEybRB+cJC3QgiRXn1HM8d78gLNavfaK9Hh5X1mJbkSfS9Jxs+uKnGS3C2SHQFr8bQXprihZP4qMj8wVaSR5yyosNQp62C+KrHqjI0F5kZdBlXpq+9DaYRepLvGqbn9i2LNLfv/Pj9P3ZcoStUMpbHPA+LzuvpE8SGLPnn6D8MWnjZnm8HgRavfdtKEFIYhwBUQ57a2/x8thV9Gp4qSOfRvfwJOIv/JXZZFbKKF/UYhFIRJmmu2kv1vd3eGjE1jcFSdsQ0Nm+j1XU/K4v1ZQ/SGlyAGYpS5rG70Tl6qWjuY6B5neDiS24j6Y7P37A9rUpjqL66ObgrJVVJSyGAfEF3SzyCJ4YNieXl79NG8doVCRYIVCWprd47OOqgWDmIMU8DP+4u9NjEWZa2KRdI7zpwxmpjYYHrwkyQLA/cb55fnOe1/Nd9+DZ8S6YaAQMHoIC4D7VohvguazqHzOk5JxCr1Bt8RpZALNZFKoGgWakmC0i0UFGFeqf0nx4eDIwyiZ31Aj9opdDhOQjrxmlXj+ti3abhv4LMXcvAipRtznOAcAuM68qz/FJ6ax0RU1iJ82472GY2xnKKQ0lMxdzA8Ixc+m90lQT7DvnZ7wGZavdsbLrfrkCF5vgW/o8h6bdDEuiqSGUJbVASv6N/AwX4DVgGD1dbQcItrujddw4wu/ndBGVC5zZPUyXXTXKVOl6W+FJe7MpBDYP18FYQ7IRuteX5UM1rxcc+EBNZkoajNdja84DTaX12+0GLnYjj6L7OODPGwmqDC+pYxPsWhRj8RxqffQHbzJKNHFCav2hN9nl96kGsL19Ewmg7P50LD9R4EK0y4lFmFPOHeIuTcpRKfwSTx/gtzB4KJ/nJ+Gr/bja69MQP6gQh54Mi0I6dQpJA/e7imoKnDS44OulvtDLNw2I5ixPcki8K+v6FW5fkhXhJIBoaMmxwyggext4atSjQ8aBA/uA+wNd6ls5OG0RRewMSd3OjlG5YyFGRSk/o/YdQWSfKhHk5GuNqV5oRyIENI4wqYYI29LoiPaqpTbP25F/CVw1vr9tAu8Xd58LIr96X2LKvgEQo3WEAPHU+X+IYkdtzeg39MCIbduEoTcJBov69+1JNvIzDEjAU+po1u+M942NCPFX9Kbe1H9HjApXxY6/T+gn4tWJZvDSsawZMjcIjLREbMg+ozKMvWwBelmUaQshP27KSLEZAe4PZxcnwFu2OzPN48SkTaDCJFKpTpLztl1v93YwR8vo9ckyqfovhVqU3cUXG7bbC2fFDZHXepcOCvDH3/nxrjQIs0tZyrKMpt50+gKC45MAilfu8HZh0Q9AR4RTqDJNmRUgOFmsWIPbW3bQPSIBvzKwSgVl/tP0iBKlqx3srVrbXoAHu6/WZZtVnJd4X13fv3yNL2vwMljsCzucUDqT4ApnXK4uyGoHPawdrK77E1VNegvfy/LZJS/rUT9ZfmFA5mkncV6k7AeR73/3Afx+b6rEE2Q4efVg/VAhnodpe1ubpMbeVxYivjx/+wrcRn76rYayMcpET528UmtIZm1hKNumKHSV61HvZ1GjmiIo/xODwe9lyfY2LO5Kh543kKtvmS9wNlQDdKmbVpkjl+OdqNDOOEYZMboF8BHb0ockVgIy5je3rQ6La/c87TWXXaA14n5uC1HibqoWm+c3v9Z1sKtRBqZB86hcgxGA6HLK6NiQmHM2qFOAHnURc5CJky/DiKbl3iFYQfOMO4cL+t7NuGwLjNpzfdmLdXBEYomeSRxgCFCndPI7Ma/zLOMJW7fcr3v1GcsFRC3W4yF2NJTPGuuAo66nteBfx3v16eBmXkOxhgcRRRtsdknGnFoTiSOR0rOW2cq51Rkb4F2RYtD2Z/7Oqm5LOQUKxo9BW3ALdoNXGIJm1NuYMl/Oma3464OVu+bE53N7TWamyS8WkEevmJwJJgrw3gBzb8Jmd+B67vbqExO7sSzY1Uwz9eVSkikmTDw9fpDBhW1B9MdAzK6zXKgJpHRb9uXnfuqU796w8JtPAffvwtJZMXZD7bVOHN8/PWLkquuxiN0xj1OE6vmxOlJruIS2pHkDgD8aV+KIxaoGdDWKyA4ibPiKbRuIxSrLzr1E9rd3Eo7PCk7dtc8JJorR1ZjrkpX3PUyWvY1TPG5+8wBZ/8O3/bsq/gz667awM1TNF/bfmOD7dj+p6WNYZiGlD2vCEh6F5lTfFHr86lCLlb4224v53OCtzGgeTscm87Hz9rOe1fkkScJYwV2jQ8aBBDeA+wNeRGJXs0AwMqkHSD/CIxBvFNBjez5Eqydx9LmvF9GRSzS4NQ7a9k1NiwfHI1XuEHSA1VAJdR6vuFLiFP/iJhEUwsmwRa6k2UT6EVc8WSgUPFZYt0HsGKFVrx37JKdfaoaPAypvAEsq+k+H5O4/ZZS4umXBXw9eEnvivG25sjL6HXPx24MAzSHFNV7EWHuj8WdwD5s5LJUpqp7Un8V41M+9bH7ZjdOLVjsHQtNErVcCVi9hOJnxv2TnxRilyKcXS2jwweuHxKXuCMQj+VhlcdpjEGOnGRpS0MxIyewHX38snjpA4pyXyclT2DEIj/FSrX669CFJyN0OLeD39MY5YUyRVX4tL8U5CP36V8biX4nsEhXSowc1cXYZO/dqOXTfEg57bfe77pum2hA+JYTgRW7Kc4hRP4R5uiG0dEekCPIEdF5AegWGc8hOsBC77CnXBAtr/JXBiuNkcaMYnoExB4d3MVZFywD14ErFJtISE5DLV1X4Hk/zpekflGwpN3gImVYn82SlMoeHlRLT/40tucZm6fKuBSxloslopPPcr+hKKOzv3DIyjZdhHjDUpeNMP/XMMN62+onzaOIeY4VrvmreQ65/1XHrptkn9/ZQxMixyNuK9lvdIUM5A7gNfa0y/x2nUhprnYBkM6AyGpDFdCr6XGfIkVhBdTdQw17oXDtr7T32JFY5wxwVY/GUIsm+z7x+m3oa1dqXmtVbaIZ7GnA/hw9hj9PCjedNDBuG8cowLOkvKHb2oBJ5ZUBN0iZPQD+vjQFqVQ90wfE1Slp+u9yDQDo7cX7brZ4EBQ/aLr9vQAjpOxTfJwRdYRcw7KP92C7m6rJ2Vt0SMLUlnF53738pXsBZx8mG36OSWUQlD7H6EfmB7xPdzzXRF8K4Tq7C9CiuLJQoJjpUSOk8tsBNdWQJoDk+HzGkvgaLS/skjzf5esmiOYcr3HAzFIVQVqi1QeRXbZYdsnMA/+BwJflxxy0ifH08GjuguPQjdTzoEdVxxSe7Bm8okOxCZNfwK2GA00GXn6xR9bU7KCGGB/QIscHUHBk35zDrjP5wOoMhGPhTBl1xM9Fp52eHEhLwOrrM+9PmKYT3seYEJ2U38o7g67ru4JwFulzyM4F8+ECwZbsk7ZPTYKqZYOTJY3arVxGyHNb6ot29lIR1wJdfV6iqZ4015ZnnrRvL3zZQY2RRSeGg79oxFRg410jDfQmcPHIBd1wcjk6bu1stGq9vEp6aIDy0n26Hy8G8qwujJoOr8K5rQ4pXqkpfe3cv9WdD37urX/mjQ8aBBHOA+wNeRCt9vSMp4Fkeq4ftthr7rw8gmo3WfusSFWl9DHix9JOGJn1Xyhdvyo29tx0wPDqw/pQ5de8d94AeFDu7F6i9z+/ojMVaegtNaeyBxeh8FLxvmgwnm8ElppiETM8868mvRLnFNfczT+hzomEastxrj6dAz+zk7n81wxVkerfbNjZJzFvrITdUbBYvvrVSPWsM0M3laoHJ/FDw4qrD597EZD+WHsk6VZh8dK1O5rFxV54xlBz3VUk3UFGJlMCZPuS8pu115onCkipP9zYdI/i/Xa2MP2HDP9jWDhn9A590Ul444vTCpCnhVASWd3rwIcjc1WB+Ewm7RT72XFdmldtTCuiRelzNY50nucVOzhNcUeGgpiFKvh5G0YMPHklMBkvQsQU4slp/JLbj0iynm6PhMy5F5ZMNtjGmNFe4nOEZOmA26SzjVuS8nRbWE6HBkAltzEPYCWly8s1ZcmOd8j6WWi7FcLwttDHaJze/Lxvst49RBCQB+Jm6Q8m8ohegtI9kWNNlpoC4AxvmjhQq3+z34zuearu9v5dmutJMPPW9fYNeiVvqB1Je7Ei5HNa0EDebVejEU0byMUReuMNZNhnUQcXTJBFVrpZBzr46548GRCjsByRZXz9eBQCMZFJu0UnLHx98sli9zpnXxDZg3GIXIslKivAc84WQ3v+CwYPH59XGpO9B42wlyXm9M2mxVu27fPQAef2UvGCfcD52veZRJ9PGlSMST/Ua7ZOrjPbBrZBzEgi/cDJmUUgYNDjZOGfbNTCo8SoPFVT7whQKfdp0ZTlgMw+DiUGnNX//8AP1T2nooJxsVaks1Y6SNohsTb1fBFVgYwOyIqQuGYcTCvPtYAh0ZJF6INshBaVicSNZ1g0ZsxN72OQn/UEmeA4nbBchKv1+gBbzMyXObDFGXlLKRyNKI6+LuI+gjE+PuRJD/85BY89gbbacoitSgddZWTQmgRQEZ/0HfoBrZnm66U5AgCB9i7PBSj/EClRJb1dZw+JuQI7kJuyiiXZ0vJuZiGVhEUVli2RLtHuWoODpo+EHoXe1R7Rmfsh/hWQo6IGXKj2E5X8pu+bCE3Y+qk7EDquft1xPoG8/WxjRkQIyu4llYwjXIz3SAXFYdAw2hATjUKjA3aFajvR4ejTb8mr3TgU9+1d9UvwyQMPd/1VqqDreWbAKQwudfM+GTImTQ5zH8KmShdjZQpkQQ2uyfl9TjlDSt9S+f+hwr1ab4pTtvVwnykYbgoxcWL23HdDynZ3H6vhg/IRkAB0wsvZWuEk9fOWjQ8aBBK+A+wNeRdhfD0g0FzLCPFyw6rkFvXXDz3eK/dU+9WWmPrxyypj/LZZpebwz3HmKvRFQ1SMCnmFwxDAZsdIqP3yBB+RLWUjeU4RbuBoXAppd1Id3YEI4f0f6IFPipN3IX5F3I/0JS/yRnIfk2grinyLSsv8J0VHgywNked6+HNzAEC3t9Lk+dSkxQRIMXn5hjxFtafoCTO2T3Xb2RLHt/pEth+40iFWXTEFTIG2+UWMXDD4X4P6WDp+Adcu0k+/9xP6oPYYxZTe2onsqDwPxg7NAQe0ktVKz1/BfYzcnAtgb14jqIvnoTsa7Ah7MTrQ3VQ4afUbWmiCn4s+p8y2+X7RcBv76W91bd+AeYAAFlCcIBfTi9OfhT/33GUoN6rrX0mk26jOvyf/fWxs/UHf1quOTyTsiBDZN1jC/YCKyZ4d6v9z/E1tKUTvodiawye28tB/uIGGXZUBJarjNMsrgDXJDZkFMOGvIvQm0xZRiaThFqk96vk4iEYUFnup34Iuti46jui+OrJD5sxsw1QDeDGukCa8i9R97CXtbNOpMHLtRdA3OWb4azKfV6q5msXySriwlmUHDiyNdo6UyAZYlGSadL96f146sVGlwi0jCJ653lDAO2g/25nBzv1KtlAc6oW0YS4B8C/y8kv7UxkfTkR9vpbWOOQZbL5Uv85z5GzX+kLJ2uTfN8KRq+LzzqY7Sb6rzfkGded5RNrUz0jWRNMJp8sHRBrRBRrsEPE84r/uZ84ijboS2rFrr7/jsEeejV7Eo4lC/jSWdR2TlVqRTPQOCKKlVp1pjdUoqN0/Xdp6sPOZJ5CZKvYPGq6iTmOt0SSRuX0ZtsHIoTT5jj4bmZf3JuoB4XkUkA+irOR7my3r/kBiclXSgeAXhb48C61PwuvOl0M3RzzjvJaTXoydLyLE9romeotvUSsO0Nh2Y6yVT0UU3nxpcntKF52XXjmdZkIVR04is+mWAazt2BtE5/h7lDHWPEfrOk+ESNVXQylB+sJtNRMWNq7bKu7c8sv/w/92BgAlMAkxa398xKXxwmtwNFyA0iGeToWWoSqx3w+9HXeeMQvSEhshee4Y/nWFn+ga+xx/mhT4Pe4/A+DHMp2euILUjkM1BukeCv3tiAeHohvdSsBndzwga6AxY6pc46tFZ5UgiJ3sXmOiCYdreBsXgIwZ5v82rqc+UxR+XGZtCCSk/MQJOmavUpoMCnfyWfOIpIRZ/MdX2mDL20W66OULk9tAeVfzeTSVdic5ZuKCWQNFkLbEqKAAo9qtCtBYlhWIbHHWjQ8aBBOuA+wNeRbWPRxNq9Sd+9f+Ji7zRXgFsGRTTfInzdSjPm/bmzLbUt2vjIwvKZgNXj1YtLhrzNFlrMZ5vduoU0xBDf+M8RNA2WqSVjUPKTgh7XxFFxvle9Hmf7XnPlHizvKT8x9aAXxzExv0nws3BMJV9JTgh+p6NdQSGXf5nmM4AjIVjqXthTgEfc6bq4NhXSMOqWVBP7yTBbKGQ7pMvbyTH50L4E6t+MbPzv5PVTDQEqiWVhL7MiKP74szk1Gna9hikcZOBva+5EBY2wTY0f50ob6nEWQlikxs8Q9JPuVr0CDzzxKD3dfReBrcOImBoR1yY8SGbRuoxYhClngoa7Qoa15HpmiLHuajvDPz/Rs6CdLczpybwDWgLD3jj3tdCLyjV6CzcMa+jIyf+xEnho5yXKD78igb8q9eBObQmG4gq46hZLV5FBsWo3o2TArygvrvrdo9EZTeiyEcq+cdoInnCStvgjoSSe66Z7W/SGJD86qVrNTOjo7hErv278ifvJXRh/7EMhaLroizJqZ/Wxp0DaIeFnq6yASpFs8RFt0oTZcUBGDI3NzIvuAA5VEkC98XlPARYElBmOCF+HTJTi123ckjiERVNJVkV/CEOQCIAPz8bMtpB8Hd+LZlP9q/RXjnTD3WG27lIfhJJexMFkafXTHN3gKabO/D9isbyXRpYet5aeISpYVhm1urU8Sn2pUPMtXN9vCy/AW5t+RloNdoHyuYwz3W0IOYwuMbSHjyYDVGCm5AFACuQj53qNddhnqVI6itQqug5Qm0HW62+x6j8V1rIUF0w+sYhlzZDsuN/x2fNElNjY9phuVh6btxrapfbG9OB82j4yc0AsrYXOXVjHTSqXg1Dx2Lw+csVFrkITg5ypyMdY7/udrhWXjSsh36cJ11qJo4/a9MbSvZ2AFd0MS59Ndwb1fanZ/X9b/0A7JtZ3DlxwWDY2SzdILxkCsVgJwBSVE+zaOEW3kN6zRNMBGVZQ1944mBHabhkxEDNuVnil+vR/lf7rI/kHXAE0rVtpTGT7QbbG7uHlnH6rUWnLcnVk5fhm/uD4Sf+TOiTK4IihHXyBOmwuNqkQmZoliZ+ybxFuGHVVoNwzJQcZOJsIfz5fWDTuw4G5qR7luG0y6SLk6pi0ZBDeJPBEN1CXryyXXQxdg15e3P+BZfY9jPl8IRxip+5ZY4u1qrWm3LMtz22JQFBFjSj9+B6JMTQprEGpxcQHUuR4icrXTwGiIeZwGrDTkYYzn/14A/yncqvZXjEDkBU6wx5XWDAsZpWWotHflCjQ8aBBSeA+wNeEHZyc02RBRHujAE61cqM5aH9BwGidVknOoHdmcwuByGlJPfpXVsjVS+D05j3ovxwHxhy2jIlP3FzZtZtPxPsUmgIQg/YHraJ2vVReXkS5nBZf8cdCHubRdbqB63VEtwC5YwacbtOms1byGycWadPTKZTSJZzmVJo2aTwpd/EOVswtdEnYqbGsiUEQ8HnWR5sH6yy2uuTT+IvigJZaT9Z3hcb9NCr7nmV3wDHZK/1GRKMZD2lh/gg1VdX/vVyDI9ogPfq56Ah/i2uBPc598tDVPe5h2hdX/s4pLNuitmvhW6+TPeZTZaaqAXIeN2zDmA+RNmbRYJ0yzFYHhBfifOlvSFwhULXdkUvWGUnfzpcYhgTyiKzqY5qoE90scTwr6ZZ/jkrA0sTtiSz4xLaQTgDhognwm14pnqUWj3n4x9rSF5NCV7R5zLtGE+uR4xsviPq7QXW5L8z0oeeYHRalgI3xdvCFXm6E53ck6a8b4tO3l8xXyQiOd/375fMjzmnh7/JgdlDXQIw6gI1PEKSTypt4laDzndy9i5G7gk2yvb+BtNOYSX7KfO7tQtUTovrKMUg/dOmYhQQzp2uUO+CBoCX5El6v4PlM8PHDq7NJ4KsxPDwgGMo73LDRThvLmdlq0fGR+DcqBxlsu92BUzWQCYSA5ZQKx1K34xCypxrEopdvII1s2sVyW1BMyYktR1QqkU4aeOVmWUOo/X5vYZ6KddspWAoNBaogp1e4oKd0JeNd1oJ5UzWe3aNCvILeSLIDocvnbWDdpx2yGyPZRbbqpByXZsvjTtUbxnGmz3NATIvzRcpgs9V12UhnY3lzRyiJxg+b/gHzSwcMtZV3AHVYp0JXj+DLCBfe2zIfnI95sDjVaVMV/rbgOhj/Djy8ijbh8DrUWLA0vLIHTx1c6qK8u2zLHeTSJmwMPGCpDErCQwxcDwJQQMd4JjkI71TyZ5yFHPY24ei7xjUBzMd+kOS3fidrjBTdR1rEA9PRm0eEZauYSXXwJkfv128v/0nRVdBvO8QDjVqSP04i4lgDDF4j2eBkekZ2wcfcRbr//b0AakU9VL3nri/LDXob9LshJ3NKvGGmud1HpOLaw+oS100U/l8gLFq+G+j9P1/FbO2/zYLq595hPJDTf8JA+U5KB9WrcdauQkf5ZOWTkXlXOGaRlCyw4MtUBX6cWpXmz84LLp6of2QSqYKjD7lI5lJb/2O2NzhkvwJcP+VEcuPwLGZxKiBhiwyGAlhJCJpiBqohsov+OiacWUAA9QwxSeDT5sPBJ2jQ8aBBWOA+wNeZGkbUV99GXUBGr4Od6NaN5CvXC5zNrARPQICOke4oHeohKY1adrOjxdfhxdDO9X8qsfxElC8YJlNw7C0I+6luQ6nbrZOkKZ+kvE7JkaEpo6iemq4NaIF6n//XlrZGqmIGatEGJWsg0cNLrMdkZXvZLcZ/bxIVEv4bCeqHXRYbOAnlURyn777WR4BGrvMIfFGFjkO1BFx8jI/yzbN6nLZATeffzoiPIFLyThw53SlXve3+cF6KEpuQ8vFk/E7SkDvn6XXGmw9VD1Jj6yIlLHs+a7bILqxLuXcOLwTNjdup3FLW23m/fGl/dJWUxkKpqMaBqrU+uV2Z7y1WiDUlyKqYMNiz2jGjd/bzpKQBX2iIF4MMfmISXXwJpHXe6Gid+9vLABEWdJuXYZKOk7X0/rM/8t7cR0VTiBgRkO1LgSzBFpDAVaJlzFhIM6T4yrdKwC7Wx0WgdmLvUqZZM5VocOki/NZj3OKj7VDYW/ZPMYjLi7vcGC6BPou2xnwD6HOoH6ZjVgsUe4U1upHUeWLWdTJygQ6Tr87cXqt5/q38g+CyVjA/Q3egDEVzctTWIR3rBbvyw+4gQN/Kt0xXl7uZ1PQjBfuyOwL1IE90EK7m+xJJay+F3sP8rcdMPwv7vNw4P8BOZeKdSig7XtKdvCv/kETsEJlUXrwl+c66DdaSKN2Yoxek6QrAvhouIQq5+K9Bu92QtOFT3aWtagolwi6vl1SUIz/CZOD4dKiyFg9D6mKr2h/BDDIfo3M85zmtIqd9GooPsrIaI0d0PWjOmE0RB/DFs8pOnm52aVNrENqABZi0j/U4hfzI+4JQBXBVUHmSwYG+4hcYGQsMvX4ZwnC31wFXepcIyNq0G3oJiXO0QdqbU6whbF2SgQTOFTqjHlkft0tgyiilFXfa1GVuB8Rmt10VgBDh+gGX5wH82xywcpo0gIytm7y0dxC/8yL9YsEMCS6U3Kb0jdaKmilcjKappL3siVSx9uRRlHxjb04HAwa+V9O3Utqch7d0YN8ycFv7xB8gCnMC8L1UQSbyuhQLpVSd5ilxBHdUNwv8PPAu6XqGHZmTIwYSrDMwho8/OQqYDw1plgcF+AxzUh8Ds7ZcdDuHgnLOeRxdpQ8SaijBL1aljqAucWOIyNQ7v/42hpvXzdmT8ekhKFwzv++Ey2dxXDrBdz6oyZ7oGrZcL6frjvNsRD/RF9QoHbxAV5sckdo5yGDTAXRr7SaxDjkhlQ6zpNJAFfGPxiUVD+oklgDxAeUUUm17tpfnRJB5lyJdqZZClSjQ8aBBZ+A+wNeBzlLFLC9ixuRb91ZbLif/y2t+5Gp3AKMpSgGXWDXepSzcgOKVcsJe22WEaINptDa1WW+ND7wevBJwSmCKfplFB1K9W54a7VrYfzkuK5ikzsNwWt29pWWFSkzTH17A0hACvTAMoDvDatPivpqwiYgPW8rW+jS+DaUvqAKx0YFYhbcYFW0URC72vyPW0lUe1dajHDADNKet0bQv3SrGGaylOXY+wnJ3TMpA6dSHB5PCBjQIKdafTZf8JhdxaqfhbJvmf7hiBcppjkoHe8PGA9p235KkTNVX4Zh9SYmAK4iLwkerf0VWkAckDQ7r69Q4skxM7DwkLEqr094SCFUm04SZ/Nh+yODid0UVG7JFglWgV/UmYqFQumii2MWuq3wj3WkQ3imhUc0ChOspuUXU74sRBxBoszZLSDmamFwHPvFHmA2plpGlvxl4F6PKXqlA3lBKdRWq94OLl1nbaU38QpY5DZ2nU81mLppR6Kdqt8pZPKA65lCa0P94UUkgrW4tX4i11IwrkfSp2UYnJRaLE9WiJoH7TjNQoXwrP3D4L43aFrjy3CGSy49YzGZyfR8aHF/4cu2oVcbtGjp5gRAhiak87WJoEGbnIe43N5N5QlehwF4XN+v4NjmGiOpFxG2aWT7IDs6EqBMT3kI3Xf2pHb392mEdwTaEnmt57rGex+u6sjNHNBVL7BydgY8N7UDabgp+ZZvryRDM26Z9noNpn+5V4KacLCqCKUiUoE6Y6MJs1xCD3hfqL94eSLHlAyY/ubpTAFYCkr3k8MeleycnGIKLQE91wzZ9fxrak+bGOBfV/bIALMRBVIAMR0o7cKFRk+XrBsK5SkJwpVnW5YFjqwsXkXOvkTr0khzRhKr0i9Lv5S6bvaQgBCo1+3gKoGiyRDvH2w6t7gOl4GY2arBbKd0MoBH+FbEIzWJ+Hfo2bFxDLSdG5NR+zOv7+Z2BSY3xKhYQ5uHyoPPfc/cum+fNbXZAVnw5dlDy3h9Ej+ycF5+dWNj651oZI2ieeFqzwcIHB8N2rZ+cRA+/856knYs6I1DmHSX9lLOIzQK82/ziJ3J+AbUf+Lwyy94cy23m+uq28mGdxs/q50TVkXF34EhC0D4Z4tmb1d3re/jI+h3wM2kWGQY7C1yG4m3+Q9tyrQmu0kzOvfFmNGBYDkfh6okk4Mjq30n1a7KSY5iZ0RUdG6+7Vq2tcokOas2z1XuWyDOOvQOn9MYf+J2R1HAAMqQJ7296GZLpH9L2VCkC0oqgOXrfDk/JD1iunav9DZuRtqREpyjQ8aBBduA+wNeCGFbnjuDkaymWN54tz6d+N3K3i9WTpV0M2LG1D/p/dB1eRzpJcTPROGOh/juvEpyT9jRGrvfkMdMWKJ3e1yN0sdrjzVnC0AuSLPdrRFquaXpjadP8ou9AEA4d6LJeFS48+PUZjxaZHz5SilJIU3t+ihc0gFxork2ObbKqJAV0uosznALrFIKhCNaAN0/5r5pVRMkeMQUKDZxUEtBQweTmSL,
03dt3GVwZJv+RUjKIf7RX+9u9he9eue3PsHnusoROQslDjvExDJnSW4yuByqaDQddh52Px2yCq+V7QxxixwcWWz1FtWXOEwB3PbCLq6EDDT4vLtF7Lb/Om3GgxtDy1bGxlekRBF+/7rwfEPNnqBhOt3IScp124d1hEotqAgET1k5jZL+rRkf8JhM+FiktGj0MgTrQEG0Itlgqf2e2VtKVQGM+rDjlZtPSRU/4SEh61IA4VbU9fw0NCb4Ya41+gYqQ1uX5zHgJSiMIn7iGGZ7KAKLFAod0rn7yzJmdpwPRFxe7cAPyss9BgmWyhI+XwTtfbaiboJ69hPRFyFzG6PYn1zJUKw5XNWLORqp7B3lXvoVOMj4+2OyjRxVrziw5GQc8Dei/6fxMXL0WTW+wFjRexTh8ES2gD5wVm2hvyvDTdVF8vceKp8BiMOyMhe/adGdFiAhWQ3Z8Ul+s5Alkh8pRm0a3tzL3JOuuwFpysXjuug5yMeH1mWSA5dNnSS9GG7Be/mWIDrJxmUWLWTbA5DN6R/OJi1d697asMGy2p7xdFJ4xgavrg7DB+WO+L/y4eFoeTFSZp8Ss4unptsdkx6RgBGmLoc6eC8N9QbVKhjCvBG68JAmn7c3QkNgv4k4Xd+xAxtPzihE9+PiNxRVs4uX4+4tuDx9ldBEfCs6dB5kjcap2r4ulrg+wkiSwNpcWYgCBxbIVMCFxOKEDCOrh2GG8pbi/dhwogQfdDVlJnQHBbolWrP/1VU8XFWT9oKDAFfiKnGxv3mnp4TPu4VADmG46q324JSlZGBnWKKYeU9QhnbeJEULU9v43hST2Ao1/ST2zgo0ujC9hEQHmk3lRKrYACtd+HxsGpJSk+Qq1CHJba5XOmwvoM0Dde6k0RFtCMGDiXZwsxX54CORgemSYPZQvSkYX0c7ZTTgfNZT8eCX0DHJ96vpPWsAxZJrlq8vD/AyTkXUS+BvkTRovGIFa1ZYD7Gd/NCiMWlHsxt4j/YoG1u6wLoxgsPOCnWx/mUbVYbhJz7+WDJsnXK2f0u82wKHDue5Emiy8DZtul5EewqjQ8aBBhiA+wNecBrCv7nZftf/YoXB5DPf82H3jtEcqSswxE7UMrYDARjZirIVVvX2W6yP/6OWBcD4wGtQ+5/z+nCOsLkDn7LO+8VVXelbrmcP6xw3C6fnqo835lQokeILB0J2c30kTsMyJKRJa081Esa4ZasK/gdmgyOdJ5O6PtEoneVNAeq9ZoxDAsz0AXEvxGZUgADLKLWunFiZLREeBot7L1ObvRYiV7pgvJrUwNt7TDbEa++HcpARAEGkJ6PiXbNAa2B4TcJevHelJsMEJAL9rERs7XzBSWvLycuxVYkHZi9g7glOpHQQWusukTvUFtQBhJBbOOoqUjSkhx410XNhlmY/Nctpngz02nmO6g5UAckUpHr0IxereScIb2KgzgiXo7O3NAN5FFWBg+FugefhX1OZwu8syX4i5BbsibRBDtK6yHEKJVowZSvZX0HD8naTJJ+gqEJR5FRMTlDmYCcYNJ63EgwL2SQakO2TgMdRdzdq6EN5xzcKLjke1BUNnRaQMjinXldTzTz3IRbqXAvRLdPSBgsTIcPFyyXTTCM0qNAZbKE7wFDhs1A2jhzqI1CsoEbV+Smdnzzc04BT3wqlIUT2t8868FtbnBUanAGh0p8Y1yGLZV8g5Vj9kd9opRqmMmlxy5UzxO+S8aOnCUJvBKIZ1k2yAeMzAQZ60KSBJbksRTOzHCd//ULs1QRNAJtfXvH23pMwk7efXyWlrFynJLpy+4r2LmG96cl3Bma46VmFu43ylQLIvgm0RlrMZeuQ9GDt2p01PAn+J05EVRe4Q0zfIeG5imPKec2Kt1EjnIwgS2ujTgGVQb/n1f87g4GN4tN6v8565nYcjEGHw4dxinToiOJZU8/KZPc8brroNzG53mELXR0nlY1TjjzYs1NZmRnIwY6WqiqD0ZqhOXrhXd1cn2EPj1XAXn5ZqONt+6weyeJaSZKYoahxKjqQV+mcB/+ZrPZiJEA2YPhPn0BhOIfo1XIj0rVLPeuD6NujVQr6jP4+9vPXtAF2OfV6YB3HomAKXpy7MyugkY9FuuugTGn4K7mEJcWcW89smG4L6oQWcM0L1GUA6FRFZXqYmICgzfR43EIiugT6iOYaD8EyhpyhkB+SWxgV3LoUeFi2neSeCMKSF8Vf36Hrl2NwqXM80KQU3NLJoVtXTpmiH8MdooayHPZw9O94Qz8VcAJ9gCw3dz62FtBos+FQJ/WbPfNlnftT+asD5Vinj7mfxZzKPs512W+34QT3JD3jpCFAU+n4EIw5pqpjQUwEupdsiVpp2CZa1NCjQ8aBBlSA+wNeRILLQ2cAHcle/SpKdFOLPIY2Cng6zLYVwPaR9eSzpHd56Mmhlz1ALrOt3UOt9xndN+0zvzaO2qug8tJPLbTL/HsA2qFfPZsr0fZLkYEKb3SrKqHCWKs6oyVsIZsC1znBQGh+mDjCBFGYQUWP/WhCuFPjUCrgThHuzyLHmUvvc6V6R6X2b/DkO7OfyRCqK4lP7XaKqHtc/shXhVbdleUdSBbQUnEGSyvg3XkMUtLHpd1RZS4u13rPOYQkKUYMNjsZKpyydioSuWrZeptjYlA1IXaXgx0iWguRrKKnEQNLef6rwG6O42UZxF4rqTcmEM0Z5ab4J4rcMnCrOYYm0n2RGKZJ5T65Ge7t86j/NFjpuxbjb6qOJi4SU5epIsfeWWDDRFMpnDqMCUkYZhCf5JV9ecEKDb5C+ol8WTPjRzGodV5DsW0MHa3KrOkfxmqRrC+LSgnrYeayMvsBQ95sqUc1zl/ib5A7JPtIlVpom++xFsCcWrx71rUlK2EA6lgLpeqkPIng5fPDgeUMwmWjLDUgwfJ4S/nHcDki0g3qOFJRtBPVWJ3984UDm80Y8wsDheO5molnkfK7LIAht8G08KyLXhSYG9cXQ4gcxF3BDOE1SSJMDeZT8VXEXwKezC3XLumuv6DLGq1/ZzTgbk3CmmyM1WPilHrrbW8XXHKtsz71uJ5QCQ+1xtYx+oMk6635osDI9dsJKx89UJrBtMR32eALIZlPVp53u0KGUafXxmXDWMt2vF+6pP2h157R1NS/FEZOK/6zCatKBH0HrcuWafGYoIFiaL432IHg8jICVwwxyWZ83iYc6+jv6c51al2wqk4wchthW+OsSg62BBfZU8y3Xm22e6jxqOKWIphyEmsnkkiSBzQlKTlhZacut4Mop3/O2v1qEYfAYIHT6haQgzHBDRFfsC/fxOPo07YQ/gDrJ9Itqz7E+iIaNU/FGuH3pANva4CCAn5hYlRY8O2RetQHivyPseisRB1DSICPtKywEOdaaExFfXRREB+9qC4m4YqTgZq3HREModBlMKFkBt7oxjfo6OS9FdiVkZY5sVKwWYO11If3c1EMQuIDWN1CUQQzRTW+Yea7lL1PFHw1AVzaRTdDK9SLi1X++BJtHaGVtKLY1GWucnzcBKZ3aJlBaxGuRN1Fww8/Bxmfkv+p3N6SuZYoMQRm3AGYFGaKhQKHj9C5QCdyqQX8efiaFzn9Suh0Nr/fgTk4oKkDvs/SMrUA8kbic8AD8X1u3yb3icTo6uh3n7KBmxP6eRultIKSbGGjQ8aBBpCA+wNeQGublmZe6WsT1aWfk2eXPmCu8OK9bB1H4NGpkzcYI/5NcWXQZTk5iEfVrsjXK1C4j3aWKQWfaIlqgZHVIBNDVPVtN4sGrVtbjHUlL2I+N4HN5Od5LZbkuaAZ6Rrb2LzcB8adMgk4dh+fTuH1a7GK076DU9UKpFE8hukpmz7LoVzqOUMK7pPUMNRi49qKaUFmlA32u71KZ7KsV8e3J2IJ4SwpiWIMkxUklrz1wFSOl8BattQPvnT9UZub3BEt2PkM1sCTtKxn2qHtEjTPcwhxjIOxquVtDgR8xkQ1batyc8kYxJp6feGX1qMdUvDgCg5+q0HPceXFAYgeCj5hsV2baPUzF8USxz3vJiUzeKh8Ec8O1ljoc4BO6oft6T8QvZPFjUtLHBUAgyNcgPqxSXqdemLJgqxGwWqMYb3cDedme15FWm8Z8glknntkROXyeQb8A3H+bxqAnJCYF1PuDTYZeRV15JCJ7hCtHnfisMPJdsenFkNlQ27WLDwY6e1lShlT10C1Kuuh/udZkylxg51d5xeMiWlPbQd0N2g1ujCPfpmr6vWic/FjIdJstztnX1q7Bmp1umy38dcGB+E6xepzPcsX8o8jTphtlYjJvQItcl3A4wHqIPp8UU+Vz12Pa3FYNu+mDbAYibGqFcpHIc5bCcaaP8NuD8M3wOTfS/5YV/xd7oCb8DElxLaA3a3D2PzwTfCmE2ftyz2vRec/uOhWVNCLVYToJ14pqF3I63wJv4bhKQhFmoFeuYA+NLuqFHrtejUlLWpHANItxBBztPcvBY8XFh+LKGLRWdn/XmIe5+qgpGNQsONkxoeVX31NGkDnwe5RGXsj5vpL/pIZwaTkXmixwTmLc2k4EUXCku+xbCBBAXlEICborVOHZMg0oGUjRpGJB0sitM3hQ7761MMiKM8B5jztVb8uEfZEFPvnKYvK+/nl9/Kwlj5qK0h/1xatoyhdq+27WZogkQxr9DKmkFvRPl8QcRKEDwd9lbg3ae/D5WLUbkmB01Ee49bZPbhvyPnfuKgWGOeL3+KxRhc2jlAb3TGDZBWHK9AkS1wxF31lq6qynJjTp/2kEVCp5ZCHRd0D1rAGYH8qqyq5TmHLtMd7e0q92Wa8zglHjHiP5V9+FSgupnw5HlyNZYtIVHReK96EJWQb8dcBOpl+BUypKVJSIT4l7KbnLFGDwS5+jP231rqnKP2LOJh0YD4dbrpaRmazdaVGkcRi9kUy3sDh55tKS+vf9IC4xYRb3rr/IwiAr7aSIrtrgDin8mlykt+jQ8aBBsyA+wNeCVbdNhJSTGWLz3QB8fAWGyDP+Y6F9lmYTYoDOf6c9NYUwYixo7D0OQvle0VJ/IhAggI0enbZoyvFcTbhL1BMcXQvx5WDxAPdN/XDINwif/EGdlZLGf/jBd6OlCdmh7iFwOOh5VYltm5IMh0wrkHBhcjE3NvqpTGwDe/Lvt62x0VRtJ5Vl1FxdF9vFTq0DrxfRxPng2Z8v7HZmX4adrxlsb2fSmAQcYblt1Sv5ejRZ/KxqASZToCEmrTxojigt5DTz+hKmMNpGK1mVG5LKN+LPs1ktx9EpUsCubmMNUH96xmV6IDvjNXJhh3TSh1hGRkYnWTan53kRZTcwT33ro1w1Wp0mSJrpVxmXDHbWGZ7NxRbXGQBP54OiF8UdAN9yEgplflGC4nCk03uZ0u3gDzqzXFqkHz39o1nbgRKjKC5AF5O6+UQ1RHLnK8Rz8Hi+NG2enQLjTWDxzYQrqcUBoRxItZFs6bKJZVWr2mKsYedu7GsYfakhnNLHuuZD6BPgo9HN/ob2wYgY5FgzwkPmmsCLQw6Doh2VI1KYV2XzohaDQyW2ZElQdq+PC5c1sDEVXPwDdBIt6CVOvUnf8oRFETNt0BpE9WxA/FWtKpbgXepzuUmPR42TCyF05rQHv55uFJ5f9iqHKOJtr6Wj4J9MWcKQ8Vtz34yMF/zmhvmp+2nC22DWpQkaqOE8Acm//tLCxs0h48z9EWwa3w3W2mL3O86iZpOBOPKYhZhEtxrf19h0ewjkhihkn5NzyHOJVzVrfkhQoaP4RyXfudzB/5fGcFHwCe0AGj2jRGI+PoA3qZqFfYz7G1bpB81MLNFIbWHxSMZU5CQalQJWXppY6/vo7PWWkJ55FacqgjH/pKGmqnIo0rbHzzpTHwz9Lhz2QXdQwnTO9N4coQEqUdwy5g8tI66P5O8vN5VOv/GkTc/U1YEu0VUf0EXWcbEL3D+jK3f74Z1wHehp+G+f5unims5GnshQcgO3uijzINDDG4XmW77/lG1r7UaE1Fx57qmF/1feFA18ML2zU5DKG6WH1wanrpq9iIBuM8cIpHEPzDakGQaaWNSrLwk+2Ih0xhBLuhbDHqxxpyxU5QPpO4nrHipsix/HY/9Tcm+QgRUcskdWpjJbACsmn85NW3E3YuDqBK1j5pGclNU0/+xQiiji2JDft2uu2DBkYDvle57lHpI4AB+n9BlhV4inkQGIcBloG7jIhvSbwPbeDguRsWh3nsGHPl/SoG9Wa7e/yudv6gV/ITvhHk+V/hAPH5rDA9fQBCxroCjQ8aBBwiA+wNeTe2GwuJtUeK6nX4P7hkLKYkYuLYd6IBDMwVOTtd3jmoGg2zq4Dm5iwGpcDdeEDWkc85B4J8eIGrOb0Ugl70mRsltGlfAG+bgRbpbGzglYWwA6Uowt7ULKJdxl2BkzSCuRWYpAKVi1tBcuTU0HkGJEDh9P2MmNp4ue8x/mVljKI6PCZGjbvcJa1OhKk3ZE3MZFsFQ0TuXVMB2rkG4A60t/SlZXKCYxQgx1oXImzoRjkBV5P5VGDKTGG8K1e1G+PhdRmRQFoJKRylRevkmJwEzLgdvqPJYAxlF8N2aB7QJsuXn1dHCVdjgs76N8YtTId/9jtDJ86ibSvqHHwgrA0nhKQ5HgdnTRPkfmmAL1vips3RGa1bjKQUFm/PcwFOJ+zTsPS7+txAWX13eROUQovkLUEWrXzANw+wIFiySCH6heF5NiVlk/gcr4TykShxC8CNe4Dgse9O/K9gsOywnQG0mLSc6UKzQufEQHlpNpVKdx5dleSJ+8tqq5rWEESr/TwmnL2Fhu/ZUVUqb7mQ+HfPsBdZ5cdAkCtIYcTeeqD4gDTV60kkjh3RjDdr1fX4fiVptyhvDbbxdRJfWTXtyGNvo8zVsLJ0+7oLvwXaUHzXnEDfP+QCuI8dPQU0qhdKTDcfPP+ktWb0nZ7wtv/v8INAFDnp2aa96ErkpJtwkeFB+iE7JoYaaqrrXZj8zYdtrwGN787Rb5G36p87tirMw3rrW5SN7D9dixPOjziPNLzZG3dcTpYVB18iDZMXV/A96zJbH1FVc4qidjc1WlYBp34NldKQTWENL+Sx1cJ9gvRCDg0vu3ZHTVTk2GQHNq3KUXTGy2XL9fRKRfCBIbEeWgjy5YDbU0PpbLGExRm+y0D2F0Iqmaa8G5ljHazLSgnC8lPBDGNOh0gTqyoUwxcHrD59YuAV8m9ztAheDWNACd1k0YpHxU2V/RbHR2/HUgA36QN4KSgZpgeUNwbhw8j2Wibfab8D5AY4met29i9ceH/aknpz5UbvbK10/WCOhIbReraVt1uzwxfXuIHpVJe0tyeY0G8cbpa5+15nDD8DBYUb6Zw9Nlvbco2jydGe2RhdtfgJCW/4bujZGl8U/qEefBz2wWzYJCrNj0f+ZZosJOAkHS34/MIdmKDSGuBQArSjeJKGmezNoc9ZjmBw3MZEqXon4J/QAkrQUB7t4LR7glDmN9f2m/AaJZXoSAWuutFT4o2n2j2pK9mmyTVUKWcIHP810dCEr1kweBAW+DJ+uNN6bQkwrdnrd8HoKOGfA9eHdCyyjQ8aBB0SA+wNgQrrXL4xh0nO82Q4jmrzuEa4F0v6+peumG7doHNt/5hl1cCDYNIF7kHR6V4rpEKxTawc0vehL6/lwO6X02tgDA2JfQQBApbIsXCcWly6UKQ/Z/xhK/G9a4Dzn0u6EAlye6pVT/zoNLD61qsdjzjVUKcAUK7hmaLk1ZOrp+hUXZvxcG298nLV5cbSz2ocCYIwqfhx8a795QMpi86Tr3QTCRGHimIbu5+iDpGDqkcXkHLdS0DXdMbZaKGtJAuKNfGR8u79YgUgayX163jiYcMh3InEFbSfPfkjaNiiJDlz3KSC9LJswGvHa3sWVkEYPfHW7GxldYVreTPzOeJ4aQtxVzd+OM1gSB77XSN63QUd0i5HuudrFIjjJX/uI9snBPlaJ4KRMpLdFIdkq1/9dz1gsHsLEHyeFUNb7LUwYWB0eNF5EKesRgfJBbL0Lwf0GekvKSYCAaT1JgrVPBTy0DOwwcCzufmKqvYUfYhLOx8/tme5NW18rcIkhN2XCTgJYJ03HqHhkSsnRBCF6yxAyt68VnOAswiV4QEfACSZAaPqoLxcDJ9ZbH7m6gTrSiyNS7XNvJU4tztWmZr4ChYH5/fmEfxXbJ2RoG8hPyD2rd77WViqsk9oROxZ1AHHvXqLSQD3AnctQIG+fcPBTKwmCuK2jdWcn+4miIZyuwwSJI6AmjMtoY5hIlE76gzV2QSRWaoNXR3NbJz1pUikezXFkgn8j7HYo5bkwjYS8IMEJtq2s1Gyc7sF1SRLmMk99iH1gtk/CjoyVFqrXR21hHFwTcU2YsTGE594+et9wYNpR2zy8AbQTv+qSuBURheqZ45y5dvV02Us3FCZv6Ch7h4GnWAmYXdoTtQACcBLLPlwS0E8LhB1bOseRJNxFuMWZsrhJ8TMV4pg0rY3QPhXB4FWIn9m+ynPKzhnw3zkkyeG/IAnPgftjyjiuFXN0HRnzGTr2Q+NgNnpXAYwR99WsbTPjl2vQjUeQi6RH9+4Of7UQ6MM8qqX2TMRRKV5zfSJ4hNlxJu8LYW/0XBL7dWwKTZtBK98+Qe0AcGjXIusE5ZMO7f5AMXrfM8TRiY1khdnpD5Ixo2D8RfDcA6v0Ik9Sl/6hreyFxRHoojSWvGMJiHVG7cajrJgR3Zsrc7PxE0Gkqur/OLXHGu0pa5McFQaSqcF8hxGx0f9OXPXj/fID4U/2j9g3Sa9U7LNIZYovRvxdpiJMX+bUJ3eb5r1X7jUCCG3TzajM/b/0G/oTBO5iL/i+gfNxkNkX6fnBez5n9vmd+cdjIAGjQ8aBB4CA+wNvjEQfzh41+xflkMXyVnHWdftSHrwVfRORh5NZzOon8BMTJvYZ3H0QoD0hH2jo7Iy161sG8sQ7BYkb/OJHM9wKVRarP16QaSdcVstnOwOnWduZoZ+rjzGZ0IjouDNo7Sf1LnA02jZ/kEvRlYpDeobviVQf0PSFMNfBjUVXYRHQxKrYpNklYXigUgNjm2ZhukLbGGG0aWg7nHzkP//GbyFR7JjVtMEy14+Paa6okDecLFOUmCvyarMd1FTUH3oXAKMiIRYxx5rU6OvmoG7LpXWNVBNuG53hMhTX9wxgH6FwmuQKSyOadNMqH0YP6bmUvY1SrYnFDn4N/teYOQ+uzxiUm69Ca9Wm14tfNNnkwLejKQcw8CkhMHbgmgN98GuK51tyIHbdO2Kap5LSHfPPDXtrKYS5IsQUFa9DaHHvwrKPjl3xEDLqPKyi75uN4s/tdRKUOA48HoR9VfsP9uebWPQAkct0ZCRlZw/iW2aPIzWE85mbIXCXVEr1Is8r/pzcKaFbFZcV3qm0VlST97diyNDB9ZYhQYdiNHLpjNjzsIiZHMAEPA5AWB3F6kdL4t+DH9INrU0CfjtoVRTIWbk0nyIFUWNfYN4DqlBgpcuxEAVSlZecoih4ZFOQ8cDFmcwZki+1JTpjddZ1FgJM/RC4CSKBsrcURrrJHn6ezdVpmt4w/sRQPC/HSh44JPwToe1NF5htCNvzVHZvsWS4uoW5GQDdxXflU/MVimqyY4pcGFJuqr4QMascrYE+oMn2WuNjMvs0GWHJN5Q1Bvno4tb5++RBVTVWw9KLDt9G1xMTNzXID7hop4AoAN8KyNMhq/qz6oiSE3FPM+Q/jApsbhw1SoqEXd+xCRIvfPvxCr/Wg9V636xM61tmTbDhMtzReWSUs+S4n4wHriXcEcqCOSJzPxK8KfCaLr0KqT8s6OdfyA50/dgDtxT05fLsP0phqm7OSV0FUVDH2IN4fEikOxHhyWVPa9bpuIrc0WGjh/8/T26AaRX/e/4mbnqgzMLtjYsOGCfi+HEZ8Bq+TRKWOdOi+RWPvt3XLEfDG0uWNYkfxEcEGcYW8M4jLwXDNppaS9wpVxOjzF1adFdTGoMLKHKdQNHmN6ekSbXaiy0tjafy12//UyqKk2N7FQgFOOAOrU9X22T54SKif8rqd7sFxleCRBAW5NaZt4lSLNDFu4dc/TcyUWjIXJ/D9CEWb7zls3WeryoiVoiZgHwFtrF/E3eiPbQV/Kz3xN3rfTsmb11MuUyiBCMhrSDK8/p7TJyBsToL6CyjQ8aBB7yA+wNeRXVzfPpIxeNLT3eoJCzoOQwVvdr5lwtpQw1/WDQlCAQtFdfBVz8kaNrFGRSryn9CFbzc7lG5Z6PvFua0UCBeYnb+YJGmke1mw8MYcEGFK1ewUieIGdlbmjvaZ1IUitEfzMChOQW0UNNTwChzmo48KjGh2VH76nSuq8QYRaWOuPBFadBIsdxRilJKS9GzbgCIFpLfohe363egLVB4Et6tMSNPFMohCoZDqMlS4D4zrx/ke9UA0uuK/Gimsnyu3yfHbBloubdU9n03EUFOZ2C8LF3cwWa4/VwAXW1/fzQhLsC0HFgBM1fIcrhYyhdLToGHhhrfKGqHhNIYtcjMdhUCVjVEcmToKvF8A8f/++xaITY28//JBfGEi5H5kisuToqeQl8S1Ri33eOOvkLSJvjdubmUgzz1w/X6SjHMNG9oo15BATiorzP+TfCUD1OUCC0aWlO459W/h0fIExmR9M4Do5AhEcmJBND1dVJlPMovZZABqklH/zy7EaBfNIOLbZMumx63lO9OhdwY9Ye0lpOZNLwhBKuOBptg/dc7fGFEUMd+1d1eoeyszxJr1ZhSAJuWVqLQz+7pBv+pSm8wYbzqXvwrS18Mbk59tcJoFBEg/ncZ5byiQvJr/iRmAO2enOmdsS/lkFjGLiP1x8FasS3X2HgcFMFoOKvmQWnoWMe6xJaHQwyO7pUa8MBdy9xN2z5Rtx8iwMMArQpqSgOjulyzRc05UC5gqiOmdOtbezLYh5eR3pzHSovVH5t17RN0M/Gqhh0C+xiGzks9kZPXJgROV2TjRSp025bGSxDkiybWvq3FdhxrKLaJHj4qZU1EAzX92Rzu9tciaytcjrB23nTrWmaJOHDnryAoB1yfk6/jXg2UNFDroMz3ln9UEyhTdz3R37K+4Er9EalK1Uoe4r0NgRQpUeDocukYnqVQm69XDgXMozezCkdQp9mdLq5LHA/kfSy+FNWLUCfJ9ooIWBr3DvrwEyFPF+9rtk79L4EwJG7WqV0+wvYaZWXwe1x5PEHC1wuI/V5eMGAjj50Vi6jVkNfrKeeL1sFxtnQAXIDZOT4szz5cWX55BAv1QuUE6u9CIIZky6qskWlasyzRjrZxj7hurd4dGIW0FUkcIaxPaKwjPA9I3ITZEpStOmYv4v95tlOcN058jfmVwfv64uF7eEJufj33AVulv4Rejym8syBhPNuG8Ucdr5uwNf1DaSRtFTv7y8srBysVueLDyG8BwWE2JTMcE/YvQuBqEkzwxVhs9zAtKYBn+l87+0vumSSjQ8aBB/iA+wNTvfmPqDcvhxcsTfFn2HosPoUUrLzeDGrdDJ3nkY2ClFoauBcR+CrpQwCkEUt28auGNdav9jw2Po1hYb7GCIs+iCwC1zAZXv36z25H72foYRVEGVHH/uNdmCSDmVKiFKLyT/0IY7We1ioYB3F58lMoMmP5HKhq+XXFiGx28RjB0kTXHawAZ2zYKlNoznZebQ3o5V3mFAWzCc0OjE7GoSaqI/lKFRU+Nt3Y2379j5ozG/iumOsrdEtrCAbpfWhDICmAWJ5hhW2bcooBHRuyuUcNC0W1sIi09JN0FuahKRkdgHZu4ZomzpfTqbzLRVOP5LT3NuZCqqmPTqw494vdwWFZmnUrgujBQw91e8LUJl4JCif+PGHTugfxyRpJ2iThaRiT3O8UecGaIcA7SDpPX2xq/O360TFFuH5wom4eZF8mYl5EoT0t8MllzXYF+X9i49Nv9t6N1vGKrMiCce0uLeF8LgP2G4+WfIYwgNFau0EkBOjWwoN57gLwIfxRHDzbayho2f6fZv2V5yN7LCAxnlJPvSUJRQCnB+bb9z9qPW/zsYc9JoUsE6XGoG9LHbsESUNtOPIwT+UyaU+K8eVSiu0HliDd6r7F54LlmoAtNN8lREWo5GppAOMShoNkIIgzYiwy+0w/l8Cuy5xNNf/BNW0CF64+xdy5yuC5vE6xiFgRiff+buEBf3qR+z3LtzCjhfgRJfhKVPtQXpRknnxuxRaFrtIphPxBrw7zta6aFM/ot8rBvysLjBTnezd4+7GjmPBG/M/oZvfIF5hfDq+LiN9ENpkEK7KMPi1mJ9CJpBVyjMJbrR96wxijzHVYc21MNDlB04AMlt7s+yfpx1EuQNWSXmKD0Bul6UYMAKABbFhZM01r0S1cyAb4E5CjThzfcvrIHLiu95w1lIy3T8VNFUsN6laJmtog2i4e0UoWw+Sj3orruhkGvOw5aklyUqM27E7XCD+k6l2owfyUUmppprPLggzS6QfbDYFkIpVtjoZRC5MgRPA1YHDN3kabGwLZdYLjG199pqiS9k7p6PrZZWyfRNWZpg7m7QjUa+Usu/RAOVl2jaCc2D786XWmGw+9UGU05x52UCFLgf+Fll5tArYniKl2zEZqDRk2tdasKQkc1FR765Y1ek8j0TRyZNcL+NY2oO8/EqZznScV67Uau4j+wg7CK65PiYywgqqXaCMKtBeKmHEjACnMyBhdC8ixMIdR6TS+4p6pWaC0thv42E0gNAtXCX3rjEeS7rdMiA6izz3gqcvt8XN9TYhgQwkjYWujQ8aBCDSA+wNbQ/OgjFQfNSo7YlJ+4p4Ep/BSF13OZh4Wnm6crKCgvBl1DRB4h2LdPJbfbzA4a4eFCotxqBoVzN6hV131/IxtiC1PHRAH2SnFcRBjmGRhVB0RGzochAPI2eSHhaG5dbRua+5Ql9dTjL2nKirSTCIiyWaOg+oAkRw6z7JitQyhp0m1OKIhrbUThTHV5uzmAq4c3DhTE6XmK0w3mGOVxXtp4XQmgKMNREdsEwLaiRDhIKvJqepf+dHx53JeZ1XqxK/TmARaDoIVuhLVK5REwL9Bz2e4yoyJURzXBqD0pifTZiCXGhCaKIROFe7qadFmQHB1KA2jAxb5PbcEZeivRU982Mqyh3R5PsIvQpoUOXZhZKm86xZslw+AU+M/bnUcn6+6dAOhPn0hvqsDKP/gjm9JiibmmmRrzmn2bSlsRPhJqFPPyk9VwLV+IQlmKnQVLGxrtxGwPRns4MqTLgyDMEFsNIwGeWKL+Tl7OCHwQyxVqicHzC3iOcBX9YOa6aF2p2XV8+h3ulg0vINUYtyPoq0wvpxo2czWonT0SCICpa6umziFa/ZRamMsGJEgD81Mwuabjfn5zYh7oEHwu2Szidb9Ge8aPhE5z71cc6lA0VVbjo/gOYnbc5sn4YFNuNa4gaOPkQvWDKMIKzHXkOiI36jksRkhPlmB6JGmXPWlyOzYk15ULYTJxu7UN8EkiGv9DW3zihFTFRwTbwIdkotkvswkWH3Zuog0HaXkI5DxffT+qLSebZHNwQj8qEQzxULiT6KvA68vdD6KJ0AIax5U/msoG8Ekici4TrpvD70cphJvbbxBvydyKgu7gkB7yoxHA8bEnYyj6ITJGwtQf7OE/PDAWzD31EaUakAVHAoynCozvHEr3MutZ9ZxVBnNErIMfVrmdQ8sSqy2Mpy21sLzLfk6TZiW2J4RT719Uhexv2xIxI49JQn4SpxgVV2SbtM4+Z7OJOE0igPWBS4JBjUvffVkRkN5G4BxYY53YB/CCOQO7Mxvjr2gqCslhs17JO2sT4zOHMJ8REThhaxSYTPkQSUxs+thFKOsBwF+i45iPhG2AqKHQq6UUhS2uSkrlAa6r46Dsm1wxLjdL62VB0bBjfwsN8QwIuQMbx8938lqp4wkd0s0if8bvBPzE2adFLUkAnpMRTsRGGlFkJfDZAdC+bOwtJKnzxmABr4sPzL7hmZ+sI0Q0DvbstsYXYxNRs6spieSi2J7OcEkFNLjeLo8+GtMUaeHt2jrxJPc3mAHp/sbFujcQi+cem3dKRiV5jubhPyjQ8aBCG+A+wNeByZ0wEvR2xXhsCt4OLHte0JptkzxhsIqbCNxtQCPSqstwx6jc3OMGVOmFvr2syZ2KGfddZ6Gth873sf2QgC0jecNHWbuU5ByA1xJmlgnDZevoFalzCCg4UZnLXug/ta/8WEZB1iiZrD6HZjw7MRXrPYI8hDbGXLfrhyIeEU/LXKDQSk5XD3j8jNLA8SKRXZddhFno8L31/sIwSpVrZsY1lejSc5e7riEHrwMiSGcx9Iui+/vquC/d5uO3Og8CVgg012RBNeQgfwr/D6VPMQYyhohCxG8VtrXKW41jHjt78XluJtrchuVDXR+zengDvCeNsXhkvL27A4jLfdmZAJdHaCGhQS7DrYabFpDoaXT//5hjFAAgN0A0+s3xjev8o9eJ6Q2v73PEJRBI2rJ3AzQorWbSTzgY3wflsyyB8wpCV5jfTbAuYNRwo5bfe7LlkVd4TtebnJUw59EQr9WdNLxkgZVIlobUZ0cTWlRiHyEq/fVrrf0lCj1+nYTyiGiDG64QWTtqE5MxPctE2ZN1yc2GUtvL6ajvkbjxqsLRCDDAoce5joYMbRZusYaPnXXWGKiMoA9iuQucxWuse3xYFAfhahzIb1rXHBh6fOdOwu+KhMSdLVTGBihpcjPmj7jrjA4hvAzuhFB2pXnrMdvU+qIfOvh8A8T9dAwnAKkr4cRaKsdf6jURq1iTmOY4iwgeJwEg7Ih7pvnPBW3jk/hur5Bo+qZnGsrCFsWgYfGLoq/6icL+jgoKJACZXk0HIzie8e2isNnftWbZN7GdHW24iblJ0r/tm1OERK/Zo0Itr9VEeJtF224NPWfz9odS4Ce4vpq0UEB/ymQd/YHYg7w/avNXmP+AhomTRABdp6Q/mMn2rHez4BdAmsB2wEobU5CFZNE5XKpinansSth93SBDFlxCIpqC6d2V+kFNg/gNJu7HbKfCQXhNHzKTGAoEtwswSm+i06Ptm2JDjdvRL8bE/QA8VcidJljfxR6SZk7DbHd6cCAM+kS7Z/mw7bo1jbzjpv/Z3FNhW4n1mylBAP3M4l1sI/ej+uYKM4C4XlredVVNKWvf25FUSwDWf6XaQ8BfYmLg4CNdP2zjwdT9yQDNDLG+cCUAIRwGHTepaWU6H3CtT5l3PVuRR5+siuv9rGMgSzT6TVXMgSzB5m37cVuj+XoQqgdBB3mZ2nNwHEL1PE7/VqQU31aJRDjwug9sEsFUFvUfnuJ4+ElqmZf3eNs9AMSQ4zPNO1qh7DRIOjfIZadSwDhpGkUnh36D4k+Q2Ghu7CjQ8aBCKuA+wNeNMB9uJf/lhNO/Pz2wXamqfpnNyWntyFcInNUNCAMLwihGrO8Qvmol9ghMgc0fjrEsUTw4kWRW8ZYuvIUt7OI7kEuXbb09zU89uxk0LZNyBZxErFUqHvOdemS+u6vIOpjXGu0G/gMfQ3N6yxIGeXyuYUIXiA6om171rKxqfdYyw3GrXySJhDXFpauujJ5mnYJG/8N2z3yhclU2+bcX/zTh+79/WPeN27pR2sNC0UtuMwxxvBzwNmfg2+Iq+D4fsfu5IoGtin7/CfbdAmU2rK4XLs3Px+yfkdjGiqL9Pmpcm1jOyUl0+0jf27FOJ4r8rw2PDMX1MAg69oFGQCXUVPlnQ9nAwLDb7iT2I5PmsYk3B7PA0Z+9ZkTQMpn0/ME9I7vjxFMFe+kUkqhNEt5ESFecpmuIfPKYftbRWXTUKit9GAB6veSHCc6Ag0h5NiuZfG2BABvg0fSI8kohm1083hr34vPi8QhDceDtgJje6DkjJYBOeetAJZprblRKr6ANzHokYrkAZ4wH5yHDJd3iZimMCtV7D7h10CKTnWmMLar8Dn/SAJucGu+HM1ctqxWbcoVH/OXfshlcuaWf9f0F1PbT8WxUFhlRKuT1xmdPi/x+vT98ti2q9cK3m9QZIc7nNRuUkDtNMdglTvdu/tbCX1SFFyX21F56NW3Nk/je3S5skMv943zTV3N6h80Bpf0MrMGSmVdP7vsDCy4VK7upWlIGacPEVFcYXrtP9cybKVTA/DXqlu28e8qIpbKwh+/sMVMKW3NCTpi4mULrMMMLjVyvY4sFcJL6uOFk/YYzRghJL5eAHItmfnB3+GA8WzakHg34gPTAs8z2Sw9oLi13uz/XgQqQqaW7pG6+jdJ67AM4S7kQouFMxuaaTNzNXnjlEw22fivpoLG9UPp3Byjhan85Md9QCFHbZeJYHA8AiMMvMZkxC0hLqd5AqBdNfxsF9/JV+GXQBqnWFyq13SNlGowmxlv9Xm3aY8TGvVOcX0rwW6MJfDFr+hsbmlYRsfY3FBcTKK0GhUvz55AfBatmso4ybaWMKx1qdSBe+rPW8LJ6fEfMAMtNoQhOfTwzEdDPAEyMzsKolD/BPk+si8JUGktKnJLTJuQUEACiHZWOvw7v9Pc/4T1Siq3Yaz0zFOTRC12nJxWiGB1IaPK7l3/sETk0Fg83TbYlwAORvLe+FzL61x3uOW7vcgaa7OtKbzPyFZ0aI6ZoOnz8SfDegnc/BaSMiK8Yn+ZRJrGFM25Ewv1Ys0WT9oKXpwOntPWRUR7a8WjQ8aBCOeA+wNgWCe+sTQOeOrKqFU/ETEhVXa4YsFTVpLR7tj1IkULTG6Gj9AZFW9s6KcIu1Lqt5+/MvV9o9G7tWinHr/uCNOO3VO0S1izzjjJCVeg1EJEOznqs+sDvBnt7MqJ0knsrsbiSH1lgTWp6NQSoDZFxxhrVh8DQjVaRnYo8RVIiInVunHHfg9iN1Q+yen5XaT+aCVSnlOFHY1dLcTBDHG4i01N25R0OBKd1zdlD6SdF9AEzAwDVbPGPskOUcsfSKtSxK18u4p0ygOMzT8xS1nlR44MigpULIgjWzcbLy/K8PFD0dKYkYptQ1C1cT+ds1iQU01HjwUQGtMokysgEGLPYgcKpeo+9SjJ1ErlzxgIwLVsdCGnkDJ0k6r27gmQuhxeaE7pvMYO1Y6CFlnws2xivxBcp9D1DIvKqf1qa0f0KQdpH14QOwydKJ9u2Pte5ODHNrlRe+SmCEh/Q4TOG1/jju9uhDkIVVFo0tom8IRWt9MSwnc1sONKW+p/Mk4D2mb4rYaJR1xiLQ64wLzkd8ndWjcLto6dMxCxo8lkWsc7JWzCbXCnEkRbqLL2CLJfk3uR6qcYsWgDBV2UsYFKWFONg6s1q+UhcJE/Rmq/vecIlIRvpSbyLCuCIaTy0ZP1Lw5hBM31x8Jp99CyZf/8ERFnn9sXcTHSBcNHfogPNDwK+FZElVvGy/f5Wj1yd1vPPmQUXYA5UC0JKEpdgWm9DgKMNs8bWL0PMECl+VXXXrRPJli0oXeJIcB84wo6fW8NnHxsZN2Q//qG2pTyXJaiXZluhRi6wzn24yrFWycAp8GP67ARARejKrOj0KCnXOYCHNb6p2XG/oZAU2J92iprJmFJra8BXggQuGKGuFFoNDPaMWgAxpQIZ54KqCXvc09h6wnlGpMJ+aY2JJkEb0VAa9EvKSSm5+hEyOLYaSbWlOBeQwinXMpyIs44YitL8QAFMuPNSGUrAVpf6ajeb4sNu5+2aosShBIbUEWt+c9QQABys4WF5/lOPEMooCLU0PO6DoOaA3OlX1NQrHKJqZOevmQeayqHmRPqCR2YWnF5abIrTonOls+MxIJ+x7Fkgge5Oh1WMrLjeDjslFPqlotG097cUoLHf9n4qI6WG592z5GOjFMbQ3wKBV/1ivymaPXyBTKa5ht+p0Z5lLasgtZB+HNRXFQqQpz9k+HFWuIiqq5M6DuKiIrAy4qFEnKsNXUI3vEMTYyW+frvlUKuzj6UNXlu3ZAg4XAHDyVTCXc7MSBbhzY8eEoJKGok8VLcfmbrBw6AgV2jQ8aBCSOA+wNbREcJ1bMdGrChlZ+2NOy0hHJmde65grkD5xuCwRQFhoYM0YvV8FpHEsqpByegvZ4Z1oxZx+s1zG4uNlWn4LOnMQ6BUq4ZWcG2q5ObxGWTuNawU/HY/iYFWO9ioX46+VqW20Zm5D6VtyWMMfNl0RUL65lEsfJrnpL1Mmjx68tn05MmMNmNIkM77pJnlorvBVtsW8zHk1gfyww/Coo5iGx8zY+ybqvfVPvUiC8xWE/lWIY60DENzu+lR4qjcEwmwL2pe6jOfSECa0Ek23NdYqSTlaxh+61LldZXB8HeErXkuqpdYJfBt/XagJgz/kSHL6yqtjCigTw4lOyU7ZxmsY02RLt6QRBptel0StUowpDJU6cXyV7d0xe1lJFFX109bBKOH/o0l9Tk7wd6hn4atiaqGA2aa137wAttcmU5RoBlsFqfNIJm2sVPvM1TpZQ/+yBxxq7z0LoxqMzbqSohOoYCb4NmoKGj5R/Ag1VefrObCe7ENaugnV6RUVvLerwCS9r2GiSP10MhnT9Y6Pmjnhzn9QSQK1W8DiaEblh9a10ayoQKNJ6DfBPod5hHC1W/RdVzUPWxyIyyh7hFXTqO2MHpyJI1IYLz6yuY4/PbuyFHyEXpL/5pMy8i0r0Eg4iwRSiNPK4Wx4CYJWGEW9df+gMDWDpY4f7foNav/r7Rt8r0vUOmKLORTLeQtpueQN0I9on9ay5WZjbMJ3gn6TL28oXxVDFyO0yS5+nqJr/bmjJo04YfwyPc6I9/9kxht2KGcAVeFq5gtd1/ZvwhGoe54IZ92WYnz8EGn/ayW8mUnqk1osiSpksJNctRMNnkDdT6hnNNIMQJcfAw2l1MW9S0N1DZXlyQZRoN8w6JTAQ1hIjiBy/ZdvWGPeD4ifqKRzHYUCtjB63DZ9AAfI9yM+1/irEpzsM3o/9m1EPcBcfkuJmdfA/+iudniNp0IE2DwjgWKYQzPnK2Ljd/gL5ABX0BvrjUKG+UhG9C+5bJYcJkjbFX3zUYekeI7HkOkqbtajGhLvhbn+whRsRgp29wo11XK4wmcd5TFNzA8KZuXL0AY5jBiRuQmU10QHDXfEwYWxRw9gNw8aRArKQn78m2ZNcsn0Nj0BwF29Co1TTXVhB95cXzZP3I+ahXYv9TUn07B5MepAuZNiv2OjztT7kZ9+B5VLRKXnTLGDSRLli5zR0qCiV8z5jrPswZo89tJ7rouW6EGptQp/z5MKNtkHl8NbvLQQJKZ72rM9zLbIed4tMzJeOvhLYjJyoh/yvucVtHrwggPROjQ8aBCV+A+wNeQ7FskRR5/qKuvwUPeL9OE/W0tbI0xMo/dwDNLjIyYQmn1CIU8K5e0z2eX8cb1qNLnSZvNc1oZ9nVGYYIDy1wJU5e++sSqqCZJPZGj64+aSM3jNiqt9X+DNwnWlkYOf6nZZrf1/J+PH/WohhKMKRXURHQ6IZA1bribN/no1Xf20Jzn7pS92HrxEVZtUJqmWkGdo0XEeMVD1oH3jEKqWrB+OZefWx+pY625xCtLTxkGl1ohXCGRt3jkJbVmBdprMSJtKr2QH5KAWErSqE4OzBEbS4bCMWszc3NQ0EXbP7JoOzZhbKgGx9ftUMDlIXgAeEH+hecVOoWMhdZHyLNkfWkd38UDTBoELNv31CaaQbF6OkD+r+sXKBJc+3j+0y4cMadNa0GEGWEwnncITZT8qVrvTIfVbq/sFtpRsBK4XBFmlsyuKlrkkCHkHzq1JlB/c9QVhjvN0KCwLWFXi+9fO/qW2Y6nNeWVTOMXsJEDZh5pzx8sSzF6KzOy7CFsRAFbXajvv8mZpqBMGS38K99kIrvzIBDO6pL4Wg2wycYkzc+8V/Ac8bB1wi0MqxkH075Y4GS3En7QzMJblHk428AUkLa2gunmRlsL9I4Ccy8ODeZqR4p3OhNe6Ydq4mcPlKlENbrtJPxvmqIdMY3O0JL5OiCubFUiGRIvaEPMiDzyM/+Cebcdp11zH61x2284qeU+Et+f7/Sy2OULqfu+3yGhFBEA7XcbZ7Jf7qdj6r3yxFRnNc1t/3eei36wBnxU6+5tIjnru9niVH/o3NIMIFVEImTuAH5cFyJ/Slj8EyvXuLkl5Oen6Gky2N2NIb4zTNUjjkqRiQOor8I+SZZPZsfcT17WkI2Iobcb2AIshhn7kQYcPojTycZkyZtxa1hh9MZZ19mRUcnT9jSOApJ/MI5igdB6weqciMGQHpnNVAln1GMQ1qsqPmc1jAO5zBemvCIZLndwx40RyqepDL4RUyJ5TtE0EPZ5vOCB2hZeEfm17+JgzMD9lGqf+yYMUZuIbfgB4JRGH8bqWgHFUtLangZ7Th6Ii7Oay83MCDgGFrQIUjxoRWA8y3JVBZGGwiSxlJ3mA50YztzuxTPyqADhw1WLq93S5OLrbp474Shu+JgT2p63lG6Q61vQYaMb05CrNKnMt46I5UMQvS17sIThQp5ci3P7jE4qkm51TExaGhgAo18WpE5wtRMAnkIeP0NGydXyitaSvYe2g/k/0TgVYxEaW9iiuQSBXN3ELm1s9ld8W6CFx6v9kou/i7aYjdLdQuVqhGjQ8aBCZuA+wNaRI6dvVZMFlkDmtUgkauWTwU3hygMqK726f4j4wXheZTY1QCnJuXe5QiaqwZ0NXXUjJuG6F3wjH3WlT/w1EJwAj7YQaWaTtAEb7Qn/RU9ZcXbzz5HeuZFrmrVnI81O3AOsbOhWhECUVraUeh9OMgv7tElObj/i2u5ZWcEXt0MwzGRuU1YpNbmLEp0v85JkJbWvi9cOSF9ZA2cb1yDWJDKLsKVNzCdWwHnLdqTTs5VW7cQaJB5FEKkNyqmqfQ6TRhp63fDnApE8xmB8hHYAYIfi/M4Hnb5AVUuhB37v63FBBXB9IqN3Hat1IO2IvLwvcTcZu/T8y9Skup5pj7iu6MpDhWb+6UbMt1ZwCe9wJQYtXRHNLLK4O5GbavQyPvOVCc0qLh2vXLLauXPksYikjCsG0N3M79EcYw8ycQGreTOaVp0x1O/asL/1XV1Cbjl5/+QRvTxOmvHiEtJaoBAJq6NbeDtsVf4Xqz3MdXHAEK2STo2an0EtByYXY+OwMy2uIlEtZOOKJhoMf1pUztQ0+sNwYMXExGi6k4aMVa4nE/UM9NGQN75pqAi5aPm5hu1Ka274QLdDHjY4ATw4DtIxlB9PJYOAODJtKFN4hm0zRNR8hb3j2KXuFfliEf3bWs9L8qF0DDkp/enUDJF3JFltDMMUsekJlZecs4UdM2ckyOr7bTs67N6bcc0+hcSMqfBiduM1PWjbw/qwWi78+yxgcItyDwfrwHBmMk2aL0VypmVsKsUhizmA5AsPGOal2UgmXBERag/S12lrvj6GI1OeT1FLHfLS3g6MFH0NXcdzIh7x8AiU2cTjXMi8rEeSjy1psuYaRuYO15JD4d/nijBriGZWiEqitNhG2M1UrMqyxcm8K+qFW2jhYjlUJIUWSbrt76OdAuJDJ9LOk4NnZvJi1m14ffHr0MiYG7XLWJmC89IpaQy096swNx7B0VUpHm3e9fQ/otwAJre8TtATfAyIPpd2R7Og56ddw6vrOrbXb3RzwiX8PuYOGf3sKPhllIM5ry1zp1plnyQrfsKuBjSe8PCeRTFj9H7inFD+Jq16YJIBDuC4C/q1W6sOWWaSarpKVXpmJdS8k2fwga3day7OI1lRbmmTg97javb74692dR60lKAfgKL+sEUpM2TpgIKs3TiBem7GDvie1pRQWZJsJZfxRyk27cWYzHoOgfu2hHgymy40feQM5VfWMuknaA1SwAHGP8nwlrZUXh1eHpD+xGWg+rJgrSSrXYSGlFIbE1BqQYxMjn9Wwx8XwdR8qLREhijQ8aBCdeA+wNgGJtMwZMhojmM5NRn3ER72GyN52s4fKZluV8AvICpPHLI+6k2BLaR3vPy2RVAyYhvQ/iBvA9YXRR42wti0WGxb4OQanlhktscTMBG1wQ53KQHGuD+pbc5Lo4Uy+S1+H2H+3kkGnvQZ6KzEBroA+tZj8ckiNdLEx5NxbOmiynYs7eeANwzU8m4OipRSg/cH45hQhLdvn6mVtbmc6qZymA3tKq5AWtIVvJOlQC31dko9El5X9X6Eii3/wxFr/9auxbHVwaxMA/cQ7SvWHE3lOtsHP3Qw6PjOLROqS/rF1FCgct7d+mSntHVTFTDBaEQbStWNp1+HDOEqGmdz0zkUt74zyhOTjgt1IcItceCvnCQZVgOkKVciUOiU9MOF+up8V3JXFwTcFcs4E2r8qISZ/87nqT9oUqDxNtte5wmR/tT8l5vsbhFKZHUso27TX6rjVnkLDZHBKRyzXA4fYe1OjqmwqMbmSawaP8ZzEAJadj4pJlxK5wBNJ5RTXa6A74YxIaz6o/60uLnTQwejbGU4LwilR3p4g6KaCAfoyM6YArHmi95LvvGoM/PaGhBOZjW/mch/ujavMr1DQQMeKQjCwXIwt+Ihwr0J5bdIEhfv4yvWOxrIdziV1fTevuPDdn5uOK77fGpvSWXlh+GtSgVidIvDudFmCX0FLkPv1cBnMF4es6UbgGakIwr0IYVU1rTrGfUZv9uVMq+vRBN5nq6Bt8c5nFXCpsIcMn3pMf0ys7W/ekhIk+y3LMBl3RTwfcjuaeVa1uIgVI8Kc1evc5JIsA6WKL18t7XL5BPVb0bUbtbKDBfBhnTNPDxfX3hdDgFfJAgu1IYAM1NeTxnQbsK2BQ9WmUsQSq6VAf+wdgUuVd6I3B9r+OzSWSOM9R0eMF7xbHKLmIqZjN4d6WExqlmRp/3NmH/ngyyPv7Wc/fmZGke0fcnJylWZpsonbb+RGhrOEYnXnjH2ErW8iZsUN25bkbsxOp23GhoIeuS1IKyjZ4zfRXd9BNAAns43Epz4PzPpEPJE4KOSSh5XX7xxHPk7CdU1IW0zlkTy4+WQ4MyyCjZPMVw6KzROPkGnBoBETpPc0sD4fFKMP3AyOKFKD+P14brmDNh3a0VKzaPDt4YBZ4tYMrCNzzFOBud23aH6S0UjI3GAGI9qcboiqSIzbiatRJSXiF2++xfOEaVCPE3B2bwNG8n4Kz51hLUxzlMWokO3eZILcC4ib//oVNz+D/l75dSBLsiveMCejZ+h3J4PD0yqXb+MOqnpsEOrnpr+hnJ50OjQ8aBChOA+wNgGbEsjYrqaEA9uCgjPjig5XZU0MBW6h5JUQUS+Xze3A411EZNv9YakcqRghgqa5ujVhgA6TL8r89RlAyLHoRzjLcXghYrJzqP2QQ1d2Wr1whThOYsPBzJ8NEXF5Jh7+fryDBHoZs1Fr68DvJmWMRX6PwPKOTOKnht0q9LDyxPZmLq0XGpillAD9S5ZEDDm5WfHJ5QOMD4/ZvYLv/4jrh9HjljiJI5bPFY1bSHtNZ8tojKyQ5Rzy0jgOrgkGWJsvrxIsnK15JTsMzz8fCZazME+/x7lmOqrgwAVpnSP7iid17bQwJC4cjLEKxT9DWTeKDc43+lxQtyuWdhiFqGeTB2atSM9SOKnnxhiZEkSNY5YfQkZQhLpMLKbtZtXJt+yUKcLsbo8vemMEdcHmsP1r34KZbfxbXa4/xNXx3EwfdoMmBZjGWDbza8Dip2Iu//6A9sv6htkotAjsEjQrlDwYFz+oLsZqUYeilsx8iwqkzdFjiNzjW+DqmMongZTRdkhwd/2HY4TM8bdsncxiG73UeXV0djC9ejeGXzAlc+dGJ5u0ZJhzeRKzxuRE+v1sk7Xz9jBCTnAmoInrevpUcmAB7OsDz+QrpjWHOMR0vvsBSplPjG3flg+X+DzUiqr74g1A0uzu3EMUW++HNuqSejxTbIVm9OtAaiJIAyLvLHaDqGI5NQDZ2ZF4Cr6BmTYloO76Sgux5hb0pTfxH38qxwOIAImRvj6EaOMZhLZH+/n6BDtxuR+vs/YtIYCCnsRJr0B4+4zRjmZkwVAR+OQK7iZcnFjqRFo28w9mDVFuTd74OS6OBRhg4Qh859Yj6jInWlHXXkyVp7hpWw5+uXQkTWIFqOWbOmkMJPWmJPcuwuWFoIAQWbKFpcySJSVYKVtVxxlfCBb693tB0U7Orh8AYpKJBvNFu6aX6vwy1dTLaZdck6Auqv1pCjiS1/1PSK7XxMjzf9sB7gwj5YgTSyB54V28I0CBXOzAHUQ0B8P8MQd4uAajFctf6tzlydi4jgWs6mu7wmOAzFcwC1WUQUn/+bDJhbAApd7pkQT1YTy/q3xPQ7ugtGGTVogrPwcgLJY6hjFmAObn5yM0s0O2ziiESTunChz7S2q8uN/J2uKEdx2wzNQH5XNYhM3WoaJc9eO2qaKXgdyaXlKKr3/8tfPMZQLHezAqwEy6R5vVECD0btJXXZ+K4vNN0CqQNATflzj+pijQl5+L9Khw+tSrSC8Th7EtM1iaHi74qFOJJKU/IyAq5VAigj7VLO4yWQfH2oR1RBgGyjQ8aBCk+A+wNaRK9Zok/g1G8LVVwjrtkNATlaft9JASsstX55ZIvxp8rBGgOnxlBQV1Fc/YVsCL62iAEX3Y3gm4lQ37+LPvCK8drfFlJMTpc6Q+aZmaSIqV79C5sihfubKdD1KNkoyZbyE5So+bw7wfmPvmDlxe5wyrVpTNH3q2C+NVrOFBeDeLH/kFzgQFUx0l6gC/3Mjr6URwqgjeERScLtA0OjMf17ZYspUOwopk+S/94yyaTLtOYFBehO5hwGF0YarSW8ssJjPAe5zoTs8J/CQ7zbRePowmW40HI5hmWvn7g6J9fWUVIcTLJQ5dEgcG+KcDiqunS5lQP41kNA1pHonttc6HMpcJdL8+eBbg8+YJ+QJ/TfLsX4/Cjikh8Z3BBE3xRtjfdNeSx13kYpRh/BQBotru2KeypzCBUcPYsaeEYuI7JIK15iXohA3ldh/TIkVmb3lNLtjJBqZM1v7uD9KtTBhZghpcvZnDehpnHkWcJGb5GDfXHCsck7dTeZqRF2Nr1homfNZqR5H6d0pfV8SClxd6gI+e2A0MXLceiXrNpKNN7DsNBsJIC8Qb7m1rV0kxwC4JIhpuUAFB+mBpeP+xycB8FMRlHsGLdklgTKbwO60YtKJaeR+bYapzjLaGx4YLJVjdN8CrSoK3HVZbQHvbxO8HPUJ+zOPr5gqhrY3mCL0B9nQ+396pRnA2mcTnW9StlGOXPYU2Kg/dHU9tDU6DEmwhvqohvPYmnor26bIVITOGk1b3bpufITF7I3QBr8HR2amrvjyiZfBWVYycashnefYLoaDnnVrjgba5A+pwA8Ege7rZE04oxCSjxcJ2dokMIFxfCCGYEBgPyWDIJ1pdZJ4nXZXkR4AsFjBS8p7XFpTsQ+jpMTZu+K8p//oniM9hL7bHQuL+N2rFbDPC6gG4qjI8N+hEIpnsp2ubjoqLURCR49j5kIB4ufLwT3M/i5abgqaarHCXX0K0ZAiLLTihRGg59l+Ro16tG/HWbHY12Vm1eOGCrMJpyHWt8RYTwYSHwbcuNlwisuBqVfCNn1in2sg48ABkZf37XCzUsMjlB77eMGlnFp9MxKoQkgKNWQkOnU4o99lYbKxuOvNj9gp5kQrYpKJkJyekooFCHvGnP4BLUJfNslA/LFMkSBo6tTXX/dNo8c7D2clrLYUa4X72R1Bz52roCCjYY8z+kfqAE2dz50QUni1K3g+tCNKieCea5OxSqLQkWMxPNt3GmwhADy8VIWDLQ6VOs7ughvtBOiamFbCyMl2iwIphP9E/nJW7mQmR6jQ8aBCouA+wNabq3c1K346sOyBkJHKrnRgp9Z23qoQAHMswDFG6HCz89fpVH++KOcc6NLoutXNS662h7lRKXAEQhTf8wxwZR0H5ysbCOdjNEJ/8Su9eypdtSf1W5TJpgn2sWLgi4NflhLEKki0T/RyVKuk1cyO7FfmlP3ks5p05QYOJospB3FER+jKYfaml/qr04a3tVwSHMJ0I5QECNwWAyjMwSFx4Jqqj55/yZYQ52UPgEbt07+KhG2xfpVLfEbPVm8mKYaJe8ObCC++kBPR/j9oMw+1TZ6C8y9bWS32Jz8Zc7+O+y6a8YIbhLLT8N/cK/aJmPheIWlQTw2TS63uHha3M1X9+udzlXfu5MlX3ND4JcXfB9xUG8/D7z5+DKXoShBQUeT9UxyFpLgXvxhoCjIKBk1fvxOW4BGUfk1o2fuePLGt8ea3FpkAKl3NFWDwXFF/5IBymXPwrmS0UQr6xNl0HDZKkih3Dbwq0oWnxGHIg6zceeEJWtgnukaKeegZaSUWfFYknIEtXi4x4lO45L+n/uHU3H31ss8zAXkOQp0kLr9Sf85TWZII2arQiwj2gu17quYea8/LG6OHFXerWA4eeylte2WHer+I3TK2Vcbqbr2ciINB6f1V3efaBY52CFFgBs2aNwG528vUYELVoP2znfA93EDQNn0jMLvw42EsJSfN29F5waqJmLSBw/pooEkauarsb4FErf1ROVio2xLvGa4kfzO6Og8ghfKn8r3oq3FOh7+3hCZHk18XsaxKLDA0ZvfC1INWD42Hvw/WzvXm+Fw8jbDXchTP06nRXo42Eqn+G0TTgHzlopKFW82diRbl8qvqvb4oGrsNhhy/077Zf/awi1gXmNttrok20EteBg7f8CUF4nQqDKqewwMZv6cPQfweH0HZdGBTpysqORS91jvesme2c9lD0I36Uix2+HVVzFOtVVAqDaCCALvmlpgvPz3XpbQTQh9KfoTpGIHHLQQyRE2MIhmqqKfdDa98mFXNBdpS+r1i4A9NvlIzxehcKdbk2xmfsmg48jtWgDxTJUbBUkO3KFZTwoElm7REwxhQwIm+Pba+Qsb2jpPmHXOV8GAZc+Y3nPh3lvFYZo9J8eVrDoUVOiRhyrgO2T8BuTBP1uqOsNixmUygPYI0pP7jgISK6O3E3SV5iiYLXnb4CAxqC0hkTnx8dZ3am5ZL6MEHdQE+4aCaw9hVq+urJH/HuYAafNSrAAgZh46p7i3OIgu0M+InVz9yVsWJ11SQMk3+UI5ii0bVYrJ5yVsDU2NE6pp1b+jQ8aBCseA+wNeY/Xg9bc+46vVPebW44yLvr0i5DABBqCANuQl4u9FUZxGR3CrUvMMP2pBJyCExeZygX5nXNbIN24ZYNkVTV5cFz5148Lf4nOSyhfMP5IXhESMTU2Clrypsp4z38WTBXzBdrOrKhTUjiYB9PFTfKByP4O71deehnkgFR+ybsabjjKmki+aIz2I5NMfjVd8kmIjV9EQWygCFJpMZukMB5Fpge7vRnZ5AGXSRSLWNscoj6ILSabxM7M7DGo4lEnanyw/TTFyNf5AWkKbRnbJHWjiKd9ICKWlm0sYmWgCSJAzJmTwL5IcPNQwX3tY053DKzVwIhWM4+T0Rw4Q98Im/txLydo+nbTSJxk/IgsnyWEFso3SBQN/0bYa1pc0pzt9b963dw63pSNZD153X3xpIlSnGVa1lIT8uHxcHSFR8LHtrF4H24B+BkCQVh1I7WzJ+YiS5Uz6CObFLuGOtWvtS/oRfRxk9/cx/9szYvEFS8t7e46VsJwgESy1EkIHv/jeUgavKfTWy9372cLFCYo83WcwQXFmi0SSnNjWMB1gt54GRZwtOYKcBVMDBH4O+stGpBWqGJOzZNhcjYEIk/yC6oVKTRXkCOEl9uBb8faAoQ4iT2j0EFICH+//VaMmDlofjtP+V6U9VE++5KfoBCCszZpQZKbmENN5QCnJsmEW2mOwOh10dXx5VLNhNCSHhwO/pzKKYGXsyu3cjjefyS/THpeMiKmHb4GoYm8LPWvfnf3FFe+B73weBkMfVUOGOTj+Gt8g/PWNtqhUOj/Mtt9EaahQa8gtVg0hH9QmUl//d20FiGBtC2Th7+211YzRzPoeBIeWHp3IkrZ+/BuKAXNIkGsbWmUwCNA7HY47oWT1i14gEVWb6Zsu4b4egDUJgrjvqHpmRcPil+v9WAMAFtahueVJfyXX6WlywMsY0eKxpGr26aOQImDfnW22c1LbAcl9kQ1kk8/rl7bzvTO+2VbT9lL2arUvbypT50mCNc2UWdCgpT/eAW9P3VKZw7DHESU2QxZMFssq8pyxL3dnp0y7WN0EVoedl/gqyGXcT+bubxKLhOqdcjSTuDoJJ6nSvuVbpmr2s9NpJnmsQlkaOxEXAylyoCw2YEQkwXkdwFbtXUjqUSv9bh9XkqS/YSGkcEmXzENxx3nd8+sarpeTBwvqAmdouUl2/PF26M2GHhxB/3mzEA4NFctOd2a1Ha131TspFXtwFLDbC7GaiTkehrUWGIzmngCwOs/BlYvWR9gI0y/K9zA4zExZlrP2fJfv8gsA05SjQ8aBCwOA+wNaPwJKBWhEMnLJKlsPurgITTaPZZz8fZYHxO1pB1mc3y9XLwqv8I1u0HtCvBsLMPBz5OjCEyo8fmAOVOEWEJU+HjWnvsIyXjmsfSucSgZHGVy+8U5zmOPKsX62oLEc5ftT+Ai15oa2dRork/vHG9DCN8MhUVcDzTPMS7PK1iD4tpI1oxiEvItnCSm8B1/cQ+vW/72kOLub2Y9ehzjoHSHl4slrg6Z8CWY8lK/3VbUSpoH227qPGAsyjhyndvYeI9mYgR7xBygttrhz8BRwLSSIEYrLKzYuaNId+CkajGMonjdWZU7YoQVuyLSkMxA0hRq2ifFDkE0XUsxG2NJhtWn4bI0d52fipxj0W3i/O3p2zsryUcRc1K7h6FsTp88gDNWeEKaHusxHczsbjCcJw6qCnPkCcKlW3JA56Iu6hLkqUFs0iKrtuoXFdyjxkENo0I9PbVc/NnXoHhI74tRRvSbNgz5LFncYjwKSFPoyA7KGnrIRRVQBfd/COxPiQsIGlka9AvkeAOJNav0P5mwY9qVkVw1bIvSeGu5ZRD8SyO6fJGoZAtziBzMQ8mFzv5bNkegHSPMAmmi2zeRXpFcmoWXxC0Jn1ctaewPyASgEloXjGGWPy/5OtpiGju8V77jZdfk1VzhS2CENX5bkmLWT5GjwvvinBGQDFeAl2EtBaCdMv6kYjWuuSZjrKtsbCvz4ZKwXn244s+OQcSVzyTwCK3lY9gvlFQaZHLU8gimEOctLZRJHrj7K0THQ7K2tY72CfaoUwBu5ZZ0SnESlTV/NXgWu6xw+m+PEfVKFtYsyzUMd8jwjryhT5I5a98fJ2jEkAgod33U9wgx//GBrb6Puaib6XsijolkYiRXALzJLlnzb4fk69MMN2QU0RpIcjOkRsqy3MfoOHO6wuno9wmycyiWJ6EEw4CNWDtMnILzfIX4SW4biLpMA3CeuRqJ/m72TYh6ccbGVb944lz8CYtUzNU9v7MYly+uTY6wEhNNzGWHnSXTI9XFhu+UdaXDxClueosFEtAAKeL2jdr2CqBgBYSWTy7DPp1Py2useoq76nOOsReVgVgWExexxfQumK71/RunSurHQZxi8bk1MCijutwzYfzFE4JNGZtCe5AKnZV08t9iVzegMIOW5mANm3fuzCRmG+Np8zLLVOrSCaR+c+PNVhMpI8zMaxEYkCP7I/PSNh3Qy//Y5wmlQcUSJRAWjMxIEYEcOfwdziivvQZpSnza/hV2+1ty2gw/C8OB87IoJhMFRaZhnLMxpXWNgt9XSmhujQ8aBCz+A+wNaXcFgTcCD0ZpGrEvBhpV6Q6ytfL6unScbxEZP0i11zEejO1LVOqHsjLbAyPnku1+L/zKq8UoRmADHwwXI/zU1yGz5/IVe23Xehob8x1m7sWZd9d0ljxDaKWmdW4wto9SiR4m2+4Xdmn6ReLcZghC4xnOOhLajUcWjzdg+/2Vk8qH99p1iZKvVWOuPPnkTRa5mt4pIYoZTSZZdsWnb1xunfy11AfEqXaGVmFC/jQ/4bh2zEHkez7YHCxe2tpZCIJmyaAIU53zWAxcq4ZSqS1Utp+gkgjNG1AbMCjKEy0vJw/pZGRSvuBe5s07/H/hsnevkYkazoARSdNqdExZik5uchZNgVL1qffy8I+eQLGkt6wY+Fsh7NbO9xSxpQH3w6MQYJDi0UH1sV6vor3ut9ArsMynIjENvtP4fS3d+lnhnxF5oXkH0n1C/aFq+Y08+bRtg/aaEo4rxfczXoXZNQCJGkOH0UOSsRH1faV7lRkl3aMxqEFysVVgq0HcT+jLj5rgzIjtaM9sAuHOFud/ZISryA2tf8RjaPC9xLzArEVdnX6dccWR8+N69gT/s2WcY4j3F7TKW+rTsacurjCLRWDX3dL31g6v+2KzbRlYStrjTKjWiwJZwVi8NN0WmIifWVt2AhW3/PlsPpxepqATtO7DB0E3qbLMwBdDDOuM+kW0B9/lVLZcT7xpMoaXqdo9HW7oscwtaVv6moWJMeDikocC0GV8wi6D6fusqYLiJpEKFSeV7r1Rwr/OjCFIYQjwn6Xq/p7vdOqnoiYDqjX5r5wZCeBbFExuCndy9Bh1SJ9/9pv8rxNGno2wwKrAPA12wqD+0YVmjEACPeysdRflG9cQ6WnATynuQ3Y+cx0RDioqhXxeALm8JFV7I6LQfzn+VTftUJZLbdapaguAmnbGqIpgFyFXIGkQ2NAplgIU+q2PfVIWlL0yvOTC2ev39k5E7kGRmYxB8pVmE/6cHp9gWV0sEQxAdr3I2oJwrYrQVv16ndI7k/UC4AER14DT8ZfJ4YrnheUVWPHB8iZ7bgALR4spqAvoZa/hyqqeyMMh3LSL2wDxd36UxvhgynokqeixTXhuM6s903lbM+770iEfu7qUeFFXy24rzLKc0jt/OUboDFPogpNdun4XMajirtW3WkCU/QOoBAGEaAEVr7Qmb0UnG418/3EYZCEWfFt59gNKHM5MiHILC+0AiUu+byO+TRSTz9W2rFluCBBqeONE3/9ibhy2Sscc+paz+cXmnfG7e0McDD8K4SF5uK4JnJKRem1KjQ9KBC3uA+4P+Ef8RW0sNCnxBuV9Txpj4b5Hq3pEWjiIFXi8rUyfc0gOeCH4vRUVdx4xxZuDxZu4xBjmEuKcsTOWM1ysaw2R/yXdN8iNBw14UHJR0NS/+KbnppT2ZOLnCeYdnEwH4wUHigpxIQlnIUNAexpaoBV7I/r6meIasoo/gMHvtKTVYgHKx3GPGE2QsbMChOKBSMTvOJ8KzhnyPZdziGIdkpVkn6wlM64kxPHbf52BKU3p0MapMeoVP7PHbAkFS0x+xBEZw4GnGvlDuXaF0VU9nP+mdxq8eW7VHnMyBZVpqld/Kw5SJsFGFQu1KXuPB46ZRm97m41nPQ3TJkQ5hfNcO35IfBu6TYlBCjhstYGtDwBv01I3gSNGVj3hGnkzjy2SGLl67Y6IOPQx8oj6l0FXDS3QXv6oJjGOmSyHX5AwAh46Ua3gGdWiud2A4q4w41TVgi5v7r9In1MBJHeEB5iKS/a8ZODbDbEHQTgPY2ZxX4oY7YLssn7wHO+zs9/LEljY71AcDQnTtCsOFKgIUBgi5r9PYoxUosA6w7stgvof3j7Hp9LV4JssYQNk5ysplFqOUcBu2UQkBS/rpXc3UVMLA5gVX5rZEuyD9eO0tHaAac8Y0ybo7HlO8m9XKKI9Qae1rURYKfEycSS+vsrZT4+OeqJJAAVnBvlX/dc+c4wuuOBsvLjZGM4XHw3P5Fub99Tj9P3/H5t0kYXc1IbAbXKCHW4JzrT0lGHvJiEHpD/abiD0gZbiFsYizlikfcjToSlN2QnZpmsqUA5plp7FEMaoQpLSwC/VxVDNrWUPB/YaJQUdHeX+AIvyhbEsWkKnztNpXe+F1OGRkFLw2Vo1CYCCq0BoHsGZikmUNwwn1WzgtZ965JDyOkZbreA0uOeA+E5WWNkc9bw+0JGee5YGIsv9To+ZF1PAsGvIHWZrRsURyquVEEYKzWQyIOLI4vBqK0CymJyU/k3UzLYHqaHBHXzPsFtfY8KntbM/MYiEEVHA1aCyJAMcQQK+SiXl/ZEAzpsE7N/Qj5F8oadhhcMikMDayDudC0l8xuzHkRkHyj7PAlTtb2F8xN3EJdfDsZW/pwflMguUKL+/Jg8gg54H3CxGRMTulFTqkla1PICQFlAn1kfranizTssxDzO/+Tmq3NP/erFyiF9AOtRJIu2bdZXJ9cY+s69OvUFMQeYOtke+6r4FDhuc91Xo0Wix9oeesJVe2lIrkuMGOsPkVzmHjT2gWTUbzmyOvjxcoCVSGiujEwuDVCsWPxJS6C+Sm+JTlorXOGMbhVix2gTHP1xsvOD+jQ9GBC7eA+4P/Ef0RsjKgDfLK2K0MjY3iFc/ohI+aDXl38/8NX4NkD/Zy5rTXA4RF42CtDiVq5wnyR+y4aQWZxiVdFu++1dD9qAQV+fxdtUMqI2rfl9od9YvS9Gx28h8LZpy+bHERxIvlHK6FB4iN9cMyolc5lVNZCC/tRfiAsWviyXvWZeNAnl1Wr8nmzqp1UtcYVIaFGRNMVAOr+iK3ZU19jJQZoCUUPsfcltHQIAwt4ckx/MwWip+DJAgEj+uFBkvx/Q2xZtH6NPOq6GWSd4b3WjjXBP7wfDzxhibt6Kr1XWgTTfCqJ5OETkRpAlvaVSejRKjZ7gPXwzy8nl76qsOEfjbZHoliDRZTP8tzWlwteB1V5F7jd4yjNOvl3aUGdGfEzLO80FZoyhvV5cjU3pxnfnJIHAfY/oTW6PiNPHt5epZPl+ja/DNsPV34wIJgC0PtzWc2g2cQzkT/0SXHEg6WnSabi2KHlSh6vRS3XcQ+wO95xnoyFT2lJSgiJD0FU1PqCijEXs+lrgvBjnwOxgeZN7KG9MJL+yvsLO4BKwWKvivjWTrTPEoPjMITmJ+ThpK6hgM8DHEyvraG0cmb59ggnSlFGuUHu4ubQ958+LeMp3c1Qg9ely3Y0TlfQPLQ43JF6mcY0/w1/rtKmspXn0Ln6h8hEFB,,,,,,,,,,,,,,,,
