"success","timeout","failed_images","failed_audio","failed_video","trial_type","trial_index","time_elapsed","internal_node_id","subject","audio_id","rt","device_id","view_history","stimulus","response","estimated_stimulus_onset"
"true","false","[]","[]","[]","preload","0","1638","0.0-0.0","fkxadncd7dq2df4","fkxadncd7dq2df4-2024-02-16-03-40-11","","","","","",""
"true","","","","","fullscreen","1","5121","0.0-1.0","fkxadncd7dq2df4","fkxadncd7dq2df4-2024-02-16-03-40-11","2474","","","","",""
"","","","","","initialize-microphone","2","10675","0.0-2.0","fkxadncd7dq2df4","fkxadncd7dq2df4-2024-02-16-03-40-11","","eca4d230d738e979652facc9d950213d7793054c5cbf864ef4a537b9b22af3d1","","","",""
"","","","","","instructions","3","13905","0.0-3.0","fkxadncd7dq2df4","fkxadncd7dq2df4-2024-02-16-03-40-11","3229","","[{""page_index"":0,""viewing_time"":907},{""page_index"":1,""viewing_time"":2322}]","","",""
"","","","","","image-button-response","4","18411","0.0-4.0-0.0","fkxadncd7dq2df4","fkxadncd7dq2df4-2024-02-16-03-40-11","null","","","images/schemes/movie_scheme/movie_1.png","null",""
"","","","","","image-button-response","5","20329","0.0-4.0-1.0","fkxadncd7dq2df4","fkxadncd7dq2df4-2024-02-16-03-40-11","1916","","","images/schemes/movie_scheme/movie_1.png","1",""
"","","","","","image-button-response","6","22141","0.0-4.0-2.0","fkxadncd7dq2df4","fkxadncd7dq2df4-2024-02-16-03-40-11","null","","","[]","null",""
"","","","","","image-button-response","7","26651","0.0-4.0-0.1","fkxadncd7dq2df4","fkxadncd7dq2df4-2024-02-16-03-40-11","null","","","images/schemes/movie_scheme/movie_2.png","null",""
"","","","","","image-button-response","8","27974","0.0-4.0-1.1","fkxadncd7dq2df4","fkxadncd7dq2df4-2024-02-16-03-40-11","1322","","","images/schemes/movie_scheme/movie_2.png","0",""
"","","","","","image-button-response","9","29779","0.0-4.0-2.1","fkxadncd7dq2df4","fkxadncd7dq2df4-2024-02-16-03-40-11","null","","","[]","null",""
"","","","","","image-button-response","10","34285","0.0-4.0-0.2","fkxadncd7dq2df4","fkxadncd7dq2df4-2024-02-16-03-40-11","null","","","images/schemes/movie_scheme/movie_3.png","null",""
"","","","","","image-button-response","11","35321","0.0-4.0-1.2","fkxadncd7dq2df4","fkxadncd7dq2df4-2024-02-16-03-40-11","1034","","","images/schemes/movie_scheme/movie_3.png","0",""
"","","","","","image-button-response","12","37131","0.0-4.0-2.2","fkxadncd7dq2df4","fkxadncd7dq2df4-2024-02-16-03-40-11","null","","","[]","null",""
"","","","","","image-button-response","13","41634","0.0-4.0-0.3","fkxadncd7dq2df4","fkxadncd7dq2df4-2024-02-16-03-40-11","null","","","images/schemes/movie_scheme/movie_4.png","null",""
"","","","","","image-button-response","14","42868","0.0-4.0-1.3","fkxadncd7dq2df4","fkxadncd7dq2df4-2024-02-16-03-40-11","1233","","","images/schemes/movie_scheme/movie_4.png","0",""
"","","","","","image-button-response","15","44673","0.0-4.0-2.3","fkxadncd7dq2df4","fkxadncd7dq2df4-2024-02-16-03-40-11","null","","","[]","null",""
"","","","","","instructions","16","50524","0.0-5.0","fkxadncd7dq2df4","fkxadncd7dq2df4-2024-02-16-03-40-11","5850","","[{""page_index"":0,""viewing_time"":5097},{""page_index"":1,""viewing_time"":753}]","","",""
"","","","","","html-audio-response","17","96415","0.0-6.0","fkxadncd7dq2df4","fkxadncd7dq2df4-2024-02-16-03-40-11","1338","","","<span style=""color: red; font-size: 24px""> NOW RECORDING</span>
        <p>Please say out loud the list of the actions you saw. The actions can be said in any order.</p>","GkXfo59ChoEBQveBAULygQRC84EIQoKEd2VibUKHgQRChYECGFOAZwH/////////FUmpZpkq17GDD0JATYCGQ2hyb21lV0GGQ2hyb21lFlSua7+uvdeBAXPFh86nhSFW1lSDgQKGhkFfT1BVU2Oik09wdXNIZWFkAQEAAIC7AAAAAADhjbWERzuAAJ+BAWJkgSAfQ7Z1Af/////////ngQCjRB2BAACA+4P/Mv4KffkP5TTV3+Z+ggFuHTINp9Dg40ziNRqzcIgISodi6end7Tsc6ziOdGWxH3UKJNvqz6ECVoE6Utv9L7mneJUXWmRD0/CIMogVBubwaatzJ4oi0SuJAviC+ruYKaue6oFnrii8erqGQLVGtgB0cYIAKl1kj7rSLmgw47jhLvNdBcY2DUAHRz6MpFD4kowENDSqw7UdL9z1StxurJnRXYZiV6AR/L8OIq0leipoXCRL7SS1q2JToFBN9jR2xV2KU8mdCiU00/va6s6zrz2YZcp+6BVYabOD2tZd2Scn0AAAAAAAAAADVH4kwZYGc71Suyv5lvjMoIGAWz5AqZRXTEj3/R5w45Bw7mmlrLknXWk4gkS4dZBHTAlF3Gdup6h1rRRMbaA6xfYdhuhdm1+96yn9F2HjJCOOlazjlwUjBCLt7aPWfNWLMjliCzDv8XHSuGQryd+ErTF4flYX+Mw2FyfM9mXqvTIvDSYvUmG3ISjnOGnE878bFx78wRN9NwnbYpC/X2oij9yGKNmQTvUVxkPTf93X1cU5abl7WGfMdTJFONAtsx5yZ29yLtmDBZD35RNxJJ7tgQYNkGyhJuho6zWHo3rYxCJpLKVgGq6ZTD307/b++l0FKWFlgPpXhTuIxDH3KgjelyhQOsHJ2bAvFiACjnd7zZJ3qdG6cMRxOmOpF5mdRwwUtQ9UGjVRgAGqS7LNY7diQjyzhQPC6irj/UnageWC8M7hleSt/sPI/5YA8tmLSGNVYnaIvh5lpIDZGBDWPZhukNNdDZx2Tchi1zllFVMegYIt0EZgwedrAgFsON1hLPVWtQPCYAhpVQcyRHcopHD6fx8EXnrn+l+72x16VnvY/PgEg94Vhq3X5wLxVpjFyXacpcIiW1eoK5Ob5fxuYG+Rry1HIP1g6Ekl90hlbv/y8RtKJSDTyBBUA/pBNRGNV8rJXd2kHlzsckyoIAnucw8PpR8eMHwaOVSi8O96eHY7m+sTrPpI0mJEWldgOQEhFPmfHcYIo/Cw96Kf8wn+Vt6Ug4LEgZEDOdQkk6YFGJSHWAY/300tPijxAl4roUr43ucXZ9cWTFt+r2e1vFzSL4hheaQyAD3snYfUZEOpTrqNNkZS+I6V4cHVE1jOIqz1qH6+OqdVLPSWifKWesskg4+mceF02u3grXi3N10woTx+BQoFeNvb96BoooUVql7LpI79XxJJ2+kqa2sh4kgqskhtE/rlEkFd28WSHw4kpM280l/ROki3Usn2qycYXRQgMHvg4AhS2NZOzqxxl7my/xqeiwnFNoVHR2Y1XkdaNBa7VdXCteVklGap4uWZGqqp1zh/XCySZgYu/qIQe5gV95vTRMchVn9kp6xY2qAahVVxBeclIxP+GkNteHTWL7U4chujQ4GBADyA+4P+Cv8KYRabrfg70d3nNvHTxihw3XSzSDF06VhGIhkhNZNJ/nIBIBdv4onzS1sBy4kC/BR2hNAfuQfZ58x8jicPqP3PzV5KteIaofILHGHdj+K9n3i3e4Gc5QatqsJC1J8vYXNkoHw/bH/n0Tkb8yxNRHqNZln495Q4bnEzQW0ORrgR+buPnB7JTUGi8aFEMSo43is8LXzQ6anr/kvGXBIdHTlJVMb/9KJFJasUgFO3jjEJE4cafAYlxkWcC6wb+tak7o9WPcvRSUKGry6eHStPdZaaR1TK7XVLZPezpjHsOUanOn6WqZVQMfVpw9a+ulxHfmT5WAT8HRUN33byedh79JoRA7H9xJFMBeUsNWjMwsWQsP0HDq1/KZTtG7CdHDUv2pMH76JDuqJ8YDnLk/s/zN2UDeozbCkQ6edwez8b+hCE+UPuNYkeQg9kSzozOJwx/K9gwzrdOfM/C7lHHbgEhM5bsdjenUJ1LTQo81xOLDL/Sfbv/laRTVlfpk4d+Ia3amwSJ7pyWa+O/1Q+scgRX89kSeXbXbFXjz/nIfXQXCj/NdnrKV+xGViGieKCcN7m+7mcOc8K26cycA76eWU2JGxpr97XQ6ymgl1xe+o2QOPdVYEFPT/x2yU3SgqiaIFnz3CSfxr+Qx6fw8r8/vdHdz5gE8sX+Hdl/oSgAXRgMSJqLi99Gecy1obj53sYjWfz+CTYAJQsVG8l62E/jgbceIYhPEvmP/F0vIUr+D9Ek3Zgr1Di+I2fSN+3f3HPd3miwnn0R1cnazUDTWWR91Zofl6+cTSQTv31s6Ru4k1YpoEsuThRk99WzqvaN+QMQhJGw16cl3yq2MyRZ9aphjLsMpQzNXV6OH6pUFWsqQT+uge7MZj4Y6KQXH7taaz+FIO34jiCEnynXZFy8wSuSgRDrdFeXR2s4dDXHTvBqhCX//CkUhT0U2QIp+kntGNwW2PS1LMJgqTv92VZYnwZT8VzdcJeB65aH85HiKbuTBVgJc4M4XPW2OScbtvuWa2kzjR1LzIwS6ochnmta99MBZcnHq0kcFttylLjSljkr/qbJSTLMm+mvgBVKsU+ZOrP9D6YZyh4odHoDXlPm1NZZrDfc2sQ0TYAA/Qs/4ULJgDQF4R30uW1Tfdx+Ldmc+shyWXTdT6ZcVkiQvqi12k9x09C60XehwhmEN9StzCjQ8CBAHiA+4P+DvwRYDm6Dr+xxY1b8+dRbfDkfK1o134/K89DswVKwZdyUsDOa3D5zaaH5cM0/AqZuZ6df8jvwn8hJtt80LlLrcn7faln2XZvbrt7pa4Ur6nuy9NyPDzhlgiZHqmD4yCAS5SaKotrZeipvlkF3E+vSIg604LLl4hi8xVkVyzTs8ag3YihSwCKHnCmb0sq1jomNFZdKQ5rPXtVhRaYn8LI2n4BQcUAYqSEkBaVxfpiDYNMuALK44K2HORnUQGr6zaHurbhuyXwG/bIm+o8ifZJBnUi1yRtu9auIL6+RReSFKH1j0wTguzAnAlb3hlDhMCoSMN7ME1ypq7VPJnXR1Xrq+8OaeEj/oNpwhAqjYlqG131GSh7kOruGYM/wvfLQdV8vSYhVCek7NegjdyjAZNJgbQOXOxMFZngJGBqBhnkzVzh93tRFCkxyirMkx45TWuI+4qwhP2n1tNVxeinW/55sRa7X13cdFys/G/MH73K9ERNTXbuIo9kuj620rkmDQoME/8spRE6wPToRk0qqgMJz+luDNcYAyW+ijzK7VSA8q0L9/XMmxBkT8E9Cw4Qt/ia7DeY4Sb3s7mGmNIRXLT4jDMTllsVHMdNzAopqAkJeIurcz4xA9td0wkPd6jreg29y78z/AMBG4L9Slicxc8wsWAe4oxzIOO8zcNJm4tKCBMd70219Fm0FY0FuRDfKUebJQy8XhfBSclQnoPhsB3PQwQ+H1bFanJmjM3Pl9rhd7egggnbKTN1fZ2wHnan+WMXiUgTygXf+prB3ko7wAIkpi2z324uOpL29Zod+q0KdQdKbG/PW2soQA+YkIAPzeVywWx5bQGVEer8YQqDOUCZrq+HzvDWbEjw6Er0pu7tf1onaSiQ5F/nc4Ymno612h4hH3BQVomvt4FYq5+XoPxyA+C86McbspctlgKtmBw51IQpTPhfQMsnLP/NeLpZfB7yMEcwuaYZWD+FD8bzdnA1Ut6W0GPhGKKjw0N0vVDTJPhztxQsX9jgJkd/9x3BvKU+tLl2ptCOcglsV9bi/iahJ8dUf/c+HgCQbGNh5/hDvTvg/c3WQZ5Fb0D/9MSd9LffHhrpzDJ9fzih0z6NBQavL0z1EU7a1WOXHn6Vi6gB++zqsI0MmMSu2APD6uqNbApTPXzTYQMuF7spvcTUwALzU6W0MWcopoR2yuQaTQD1CnP6SclwbklaEu1ZUzFN2/5M3DId4Ns4GH+s2Lw3/XrwLPUYbmleCtbjRejCer0UhDyggheBDeLPxp2jQ8aBALOA+wNgJ9Tqvdx5xlqaA7NDmcH1yWNqqlQzpw8EuXwRMBN2XubGhCLktQSOqVol9Wld0hGaBqMV+VdxzMzzrcH+d1IUOMGGWR5LiIJOLrMzA6Ol8oaCgu2KreEeNJJIEC/k7rBCHiFdanetz7MO1sFR6iifptAo8EnZgS5ROyV8SDxo8h8pfa4H09u27APrq0uOs7sxKAbjyzjF3XQnwsq1bch/sykz5kD911R6KDsmAHXlaHg5ZAZABwb2smIhnQvlp45M1KDKXrvqUi/JShPCGBzCIZ/UaQ4w+SU1yIVw7N6NiQew7Qyx9YJ0v9PNA+3Eh+jaK/9vVEBo0qirvXRlXnvc98fMYC7Uupuzq77IOL2uuS3fE7wzVqHoZo7gf3y/Qel42N/kYwEli8U/RJZcDxq2e4pLLn6T0j5Rm85647D4g2BIDWohMnFi8/nWdE0800xcgpS5USGWlBnoWvs3SvFVjOJ4ghw/vkTYtV0cTbfI3tr1YpBoTXg7tIafJSxSVzd4um+LCG54RYMGt3D4rbQBnX3UX+DaMQ0bLa6zYoI22nGtZLgoqobs4KGxYvEi7yisGgo0MnHPvrN6bYP1EwuVspjaz73Vdsy4VlUtwLRm1Yn2au98uoQMVwiYX386JpE2UIFgZZ6soBpoO+E6ZMC7GFH8UVGqKY/k14XoEsl8Htksvd3MwCHbOfz5cmZdA7INPKneXk9b4omafw3XoAniX4QnU5kee20AcVeptbuvKPe/ZjLWQwBFnL9Q8rmgMymsnteBjzrrzZuayStq/3bn9pej4lRe3RtvkQC5WmRtgwt6SH//aNvUiXIeczGPOah9O6i3wiU9sXzcquBYu4HyYDjiYI1swxaXmCowAqDn/QVWRTLQF04POevAxsZn3Ttje9mIUsRrQay/C27lkDhqP437OtCpDqWVwSudQyHztTdLLzMGLNDCkM6sBG/s3BAgk8Fkd53pqBCngMz9UYxfookR0mNxzgw5nYsxgfw4x/bu+XcBTcU7FMGmS2I9lWOjSZxeWlouyA3FNeEsUE5eAGA05XJVpnAOobHE5A+jw/P5myOdtZ0p3+YZ24lFqPGIU0rIPGoVrRZc00oTvLofKaiplas/b8Je0ah16FsbWmk9KuW4Gi0wpObjc3NcFoeBgwjPboK6xuvRLSJ8uHuXGKV1YOhRNNLBSGKDktHWyQ3pDw1zk722YLyCt5gt9+G1A8MZnCCv3qQhzDjwAwtIDk7lR557cO5vvmfhRwxCR9P2+y6FGJRET/Ir4oT6eS6jQ8aBAO+A+wNhGJCueKQSbuBKbh0az0q0UfHDqSHYXJ3Lb4JzlHIt0G6zy5ol7P3+26gFqhHvGwhYDO6vwN5pLinrqK+FOy2npolKETCu7K86p0X4WRj9aVp/k2OBzNV2JBg5ArBiqny4ghBbCpM0LQWJoZEMV12OTNvvcWOSuNthW9NW/MBPRXQDGiLjrrnv0eJ6JVRp+tK/zByyKQCR1zbplCf96qrzyEha1E50DdXRsCP2sTLIjgpyfTWlIi2BuLOH6o4QJ6mVwrsQDEEX1k7LjxSDcM4W3vbGE7jn4xbcGU7rqJ3D+/l/LkfDEa4R0BItAyqT6IkYbsFKA3XMmdiK9e3guEfsEadU5EHU95xexasdwMffOypIhELskW3gtnIASch9/WRWUlg+sSPu+qLmoQOnLthOiYgXA628tAldVqP3st6BH2EUiNYDY5YRkl8dzTDIHKOKXxUSK73ga7jbnD1ts5Cy0XDa27BIonkK0YuC66nOWEZN185eHyCsmqTKWniXTos6iZsdMLZFEDv+bCQ24gN3F0MFhzJ4oGL/fm2omFqmbnEN2XpmRTJTufQtHiItQjrL+hwWrUCYKjK0Pfdt/9vU0Q/OkC6gEPygGo/G1NWCTBXE6dEX24x+cGe5fbf8vU/0rHWf70EhJNMeRdH9cPdwTp8w84H/kZcrnJzzAtMjopPZLAmFD9UAUyiZY5GSriopTmRbCkae/yLV/xAzuaClfSwrboVluw9mMwp3cR+pmsvFg+3NmqX6bIPt/lEbcmp7E63SgVWbVDDw1UQq1RIaG/cuFnntd8zhZI4IZKoYtvxfObzLKRMg8OsbesfvwUJh1c2MhWJNQWF2SANcGGe+YCh259wBBdzyWFyvBSWsqSs4VeeGU7lqGrHCOcVq1anU0cPEOGjnI2N+BSjwVfSSuh3lKPp/abboIXFJjW0FBHKNItM1Bi4q1TXH4LhHlrYDwOVWN9Jc/6CAL2YJUGarQP+Lkf76sQuOsoXE7QUrfY4yRpkG1DUn1D8QahQXc946plMyCH9uercVTbKIZREGP4wKP54OR1S+g10pG36QlOOhSatkQD3iFKyHq5/eZ3m7KCk3tnzEy7Ghl30/yD8inXfXtrpVL+Yzm50keoxZBVIG+LRfESX/5iU3oYCuZ4pLRBQHD//2PuFMpdoGrzsRiV9qrmNHAyb73FJPY3JV6QaS/SUI+Lo7tf2R+yx9lbLFRHVPKhNTI1R/65hIEMOasywcNxzinkWXrnz+gpzRfA7n2bUB928vfeiioFBqOIWjQ8aBASuA+wNgPTkxzx+wtzSByeVLGeZFWwu/+oNX0vRo07427PfSokS+7NuGrZLOt5VplrmS4BBUP5ufVJelR3PWdfryILHE92mBpXKiQyg95XwzpDxKlutkAH4c/+Az1TIagnAQIHvYEjdFP39l3CQVVfNdSqP7SjPBVwQ1d9clBbcMUbHlv7pPbww9FuCBmgxlJCA/BNQ65mukV6CCoGgChSaNxg2wJpH774BuvfsQ4TlKA+xdxuzflK+rSdpoWttknVQyfyBz2TBogRV/Mm4glvwR8/vuWT5TmQDq198WPYAQHrHJkao1ZJZby6MSX6rVLEMwAvuQNX1Q092aX7tn52EgaYyWokSOS3Bnyb/Dzf3hi3SR8SEIXQn3PjaeoSdPX7BPS38Co+XfstpBFSwcWxFB7n0/wxzPQkAcDhsNN2U9guUOSGA6vhAr0UEbp6U6t+M8zzPMGkM3mqQcqXg32zUguD15Dd/dFKcx3vEOSlfd8K9sUXtpA5EWrcp7qv8jJf+ZdlhiCfSfznNdBWT//9xuBa1xUfk99ELwjKxZkvqLhBxjFOnvlP/3KE0C8UJFTUBLZoQk+t5nLhA4maoux0bAnlcYIn83kc1WhleocnsRZi0zovIxgwsWh/bgxqcxBj39ZvWderEGb2tp4cqCqLG38I7xvEAnDwuJVzAl//TIN20mxUdyV3qipRE+03+qPTsRNKUH7I/xhWTtzMu83UQXbsNWvJeIcMKsMyUwnrQ6Vq7LjPkmbbf4OBJSJ2po86MxvWcXNTfmyPZi0p1HdKB1Ypqlhty1Z0slP4Bjmz/RN5D72qwXaTzzim37ydqz9copaYeEnNP8lSwWxrHNH3VdTWTvYCdkhb+/e+6URGC9NOnccSoIAddl/Qe+xNLOIDND7eE/FZA+TswT9mlfCgKOjYNKJvciX8w/DzEM6+5ughlLAZV372Ba+Frf1z6qifSCSDRpyVkNhFmq6cyrow4eg9DPYp5Kb18CGWUSYKViOuNCJ/7jGTPt+kOGgZ8he66WCM9R6oKqzZjqoLAjPvXMsoeLeCm+ljpFE+AcYP/ogdWz0LvJSoPKKapuRqPmBeSL28udORItEgq9xsHnhdhLi2xDrJpimrD/SMDhiYIYTOFk8b9PLcxfiLfgAmi6ZphrmTS+4vqOrJ14o0p2oPJcc5IaSj9/wF57tYZS4PByJS6sLpxRrrSS6jXnejvon6pz0ckiF/0qxl8Gw83Tnfg8JeNN86xfwaCgZ9BnynlLlXue7/E08iaUA/AuTprURZvKusCjQ8aBAWeA+wNhHbgKSh2GZoWpFhaWzRSutzHJIYAOBkFAJXjyFiUOggQsJUHwmwMo0s4C2mjFYYzHlZKrpk+T5lhl5E3VzE3ZM+4hZbpq8qBwQuY0ORJeq//9+/nNrYGeYXEiDVqi012/dXQFflbAZTWF1Xc7Wink9ddVggaijYAV7z+PUUp/POr63kSzxueWXlJP6/Iw4/YohnRFcgKoHPhQo6KnVl1npWRPJFHQd0mOjiU/r5r4/ZXhfbjJbVtEwmgRH4myCCpF7b3K2K23J4GphQam5HxYrdX0AQekTQMdC8l3k9/lFb4P6E+2qksMfjA10NHCtsTVNis3D+zMd2gC9xWQfm0gMBo8ei5F519gUGJg87DiWaOXkCXxOH7PncSXpea9hTwh2Px1xIoMSkhAgwjuOEF2MRkS3fsjQRkMuaHyFWPs2mEYI6S0d4QFptuRLJH0vC+TOqfUJhg43pNEk96LKE/ifg/QycWDzs6YyXNTPFNt7PS3SefsdwwdZTEV5U7m2vLAgynEuVY9h4CjGzJO1hr/ARyf63CXOFPfiiug70YciZrnSj9aiq3of4YRUpJ34Aqg/vIGgWwdiPA5nXvqhdHr8y3ym2nf4QIQsFIh7rhcxT7rkZmdgMhtXyC5LTjoT8B/WC4+MY1lczDfvEcxR9rObOMgRp+PYiOoYQALEo3/I+z3lxzh5QEo5nXaLjpA+kgm0uymnMXXp+J98TtRCGtySouwDud+E7xN3MFWj0eQYjzTNE+qGSFtGQ0ki5cdMi6gt7yJ6xZQNzSui8loQwJhkdhc2E/+5LTAas0Ku79sKcxwOD/dFUnMk7uKu4VGraYmwUsqJHmLwKBYJdxJaeB0YR290zhFhe39kbHSbYJED+5HdeGHim+j+zrIZPHq0TmcCd/G7XmGxOOKY/wTZqsoVbLR2qpc6tW6hLme5GpYtSNgQOC/fKfFSlpBV+1oJP2vhAXPRtR7ibWcx7eO5xtgUvxHhsEvM42TgA7myBphbKbovr4vx/422EukKnt+B5frbCHp0QwVeqpQzZ5YUfgTmdWRGxdWDRhgoxLysfVb+AydV7ltk6vlwUXHucVgr8HrG0R974v74zUUvftbvW9yF4zDRj5OIWQ6BhN0+mV7mIy2FZeaVYMr6FyNgxCyJJxkPID9e8JFjuFF0sIPIY+zkNDl3uU3hYS6YfUrP5J1AnxoUa2PS4xu4BUj8+NaNtKGFF59bon92n1Fy3dNL1igU+xL6Yj2b6KE+BtHR5XAdX7l/f+cmYwcQc7Lhr9kqeGjQ8aBAaOA+wNhCiD2YZUp5SU6IL045Rfs8TrbZS4EhYJgXPsMOGL1kkFps+U4Z/NSgSiMjhM61H+OrzDpnUmZumHdscJXc4th5QCbv9wF8/cRSMihPTcF1Dcc47yj6uSPXL1nS0Rzn6kUUoLrl50drk2eSpM37enMARbgPNRzmjmhmoXB7H91NK7rjlgVZaoQetj4I/USs/bjfgshGlVww3W7dkd4+ogCsvZmDwtIr02tmhTkGC3LNUXUYfZLYoFj2gzIR4jba+ie3Yapub/oSOYMWFiOwCYkcz6Z5KtpROYg3FtnECREYKdWoZ19ofl8+gBKsL1mqyq8hxlhy53J2CMfTNbkcL/0OAnG6oflfzdL+qU98Sr7/NPsPcNVWpHFS9CLvVtcdQ+5+BTTRnxS2z/9ULDwh0EDkel+w3zDd8SujFjGVfkk72EW5pd2Wv6CZRcQECSU7+9tTf/zZPDuI3trkskaMYYXLi1heWt9DNz9e4c7tP9GAs2rw1mP3NPOcos8wGw+utTbLrYQAdN74Eixi9cMgHWORwzwDepv1t7zebK0IlWoIKrGJKqhqhvzcYupPjcLn+GW76q+lK5sJBeSpeUKi9Y4RuZ2S4jIdNSlSKktUzOEU4iCeinjT7A/GIw/NkQVEL5Kp5Qk2i27HERJNKtLIUEC+rMtKPJhKriscBMr675ytgPMn5obAfkCtIjQ6xMEotSPf1DPYDH/ClkSZvPR2g2YD4eoIZ+oy+N5kDB+6HKzfYtliqgNNvQe8u8ku4LUScOh1RgkSFzLzsmCITBnTeMlebg9wkJ0YZsf1vy9+P2rd4gVBmYvmm+/F0CHUHHeoBsfDKSKoxLoHT+brhbkSaBzYR2Asc9HUfJOO+Zpbkvw9ncLBxigYQBEZnSAYlOiNY9Hvby/uEWL7j1c4IEtIqjUQm9uK434fhSA5XLGIQc0cukl4gWzFLkYXW1il8taZcRSZtMLQYbUDs3alrInRya2DWKGLt8T+n8V+6jW+DeceLcrypKEXdRs9nd60ddAyO+Pg25uJcmA1EoI/AGU2OvIJOJXAus/Q3MTqGPZzanGn09rMmtmizhsddLbXlH/Pdd5crQQSfAwHr5t4I96zOZZ0+crzNv5doGW/7JoD+QHhLRAAEFUDOUDzUpLixKWsDhaTiqkgUqDvApzYnbClRJlqxUyb7kBPc1c4xE2+A/igWclKVEY9dL73vz26h7xbGN1iOgYhEIiR3h80n6G5sKsGP2qjsJ/aoJxjUnGNEkdtWuzFbvq+O6a+PAZkRdvXYujQ8aBAd+A+wNgO10H9IaIep3gIYFqtC0ppq9nZn8rieRleLwzZC/eWuwtpiJ5qFQMXjp9W6tMWLu38Cm0RkGWzo+QLTDeFnGIiHfig2Xzz6jcU6KC5V8QZNdm2zuQ9Vm5EtVtdJdoOoVuEn3yk3/LfiDXxa6/q7a/GPyZTmXhN6U0p2XAdTQvkXkceTOnEsM/WpwBQboWyQ9pdRuR6FYNzBeUrcxuXW9cgYNN2vdidXx+iyD1tjuaLyQDmtuHxcUHL69PTa9Yn/qd1Nid5csy4KBIHInbnwxnmwz9abe/rjojZVptaX6MO6TPCiNh1pPQ5u8Y+rzVVQtjPgRJOxIoZPj0UoSoGScC+PB3uFtoJufbl4BesoXRSmHdxqoYeJgqqTgteSDTqc0TUzT4bWm8RVnzVCgR1jnm1TqzjiGuxtLB+7jKVgcTjWA9ZV/EHjKAsFGTlDPFD/FkOgvIfBSm/ekhsAFdgNyyrMsfUXvxtgop4SxY8nE0A9dyMXkbINoXdumAD6VGbQznlDQWdICK4rslBK1ZQZM3l41znWfFpcXuIz6l7wLQUP0CZ0pyog3RBcgoRKGbLGOYyORjhK+NbFbeM2c6VwmvhQd7i/0cVOUmjM5EWDIe3q8MSNOskrNQkkWKJYB0Nw5Pz4Ich11X1TPayTX1hPpcyV+CVaNCgO2PDkrCzw8wrQI6FH3dA9n8AyhqJtmRL0pyEG3BwBFsafj6oR0QsaoGRuJrwufEWMuMJ0RiTLVx7tJabqvKNrwDkZYPU7lLvWUK8pFAcmITaCrwDIvAjyAdLOyxAEq+F2n490SO4eM+jB0yE4AI3J66JH1yPpIOJ7Oi+AfuGLSWrm/Orrq7Pb9cYDyC22eTk5fPPq76mmXQsbq+uN/A1Kw2+Ujkdw2jJ3Z12btTMSDmynluo5oLPRGBcilXWH900YA78Cnpc8w2blYEz0NOAChFn+qfSToBYElIZr2bq/lYLWUNMoMjNmmd/pq/Nq/HbPX4iOH+DNWASZPWo1eKKeTPXBDHukm+5/qa+W37OBSIYJvg0SiRXa70b4lRmkg1miYSV0VfNnkx4OtoLF8gDMKk4dpP+UFwJ0vlLJ+E99Z1G62qZrvjqOOUzwueR9OJBaMIFAFqDUVww8kQLUG+eNia5vG0jvTWAqvLb9XVHCfXZpcsfsMKytLEt5zMWsAoWW60y7tFzy3WadDDTIJmsUO4wrlgD7iyLAdRoPw/vayzxMa00ELw2+AwQbjyMLCTLho//tm7pRt96e4lEI91ilUMJvSFYHg9qMmjQ8aBAhuA+wNgSCLVRvhDV/x5lNj6ez4x3F3wtLThzwit8fchLFdrErxeyuLO520vCxe0Rtvc6kaMQo2oGucW6G9lWvSwSrSlQnGnrrE0ih6JSfg3aVWZq/GOHUOIRhJWYjt86dzzHMXTv/AJZnLMlQiWI8keoKyGmlYK8yABwRE4nlssAb614FJVUqJRpfKCK9VnwmJNoLp9DKoqgWGE9bHhT7esj5mpja+BBN/KfNrsELRQrJNZfMQ2ZrNGXQ5TbjIWhsgu19SKMi+FgEEgAMot2Co/DLknElqPfgoosYwgqk5UlbsgXUb6v7bgdTyCLJl+8hgg6FVotGnYplF53d4v0FhtmAIEj0qIU8BhhT3xtuAbVIHbBQQ7/OuXdsLQSMDkd034iGv4SRScL4R8djLrqf6KxO9a/0BvSaH0a9eO/z2YeekxsmEJm36UzYZgBWmajA2ggO16RvxSXVoI3n/s4fZMa2CnHddLmDtYsJiZZBiUe6BAsfhP5aOTih22145FkOFCvoIIkerSr1kLBOda5G5fCwBu0Yrv6isThBU4cwppVHEa+GU6YhD8dknHFBPh4FVmZ4ZkU9hMQU4t1jBPPTpvwSl1uA98M9lcNqfJ0/FpUu/K5oa/6Yot06sshjwj2/nzMl4HwMYgFvYLzxS8LOQjb5eKOCpvZLNWPDHjQ2Kg0cyr2dKfl1MxNINkwOZWXyKmlf14DuRUUWNFppv7zF7mqGg4U30mlQ/BSSfwXdei7pJzlramb2PoGrKdBm23YOC9sXFLNwmBwvak+CIbopQb3T2C5+xW6q/eI8GNjZAoS4iOLrvYra0mgczVLD70Gt4Q0tIUfMMSPAQ8rULN9TA7i6NnYQycKt0uBLuyE206NJivTLCjPltQiN9ALWTdsO7rCHyA7rF3UxLEi5ev8gfWCSQJI/QdqoGIVsVCNXKtOTdpm17Y97CJuSoixWjuT/oVxheOis/U/jJNHOwiqVmRqMDH2/uaOmefW3r2RSczeiuQFct2rYTn5me4QDaSOz1Z8V8jqpqa9JaEa8bRt3Rx/+X9O3lCSE3Tg2IDn2+GDziGatvMm7P/UPHGpaa9be4sPf0J5npuuc6F3kT7DCKPHTxeB+gm7vU8hb7cCBTSD7TXiLpEOfYOhOxS767zBCydtNBeSBAiH/p7G5Yum24bX6crfJsTtOBEx011P84ww473ulFTCqzOsQ8u7pCFXGOtfXm/Riw3/kkEe7lVa10dCnUfeC3YLIFM9wsy470ZaFfr/w/prxbXDqnUjfQD6h63WY+jQ8aBAleA+wNgMcr0674D+f8u+FCP69w4S28wLMM+HauLpidr1WGweIvLSprQk+DdV3n+OTWKcROEWjGESNL7Y53QgSYIba34ZDc2RnJyr7ZpoUlvZI7wPUi7ctSIzIIqQkcnn1bu4VPfcVkuKSmwaXbeldnCkv6y2r4H4io34kRne2fZ8/1TCpNpzt8d/ItC9Qdt0vZiqDGstuMzQoprW7K+4KHdADLXfOk6f2SASy76lre/akYazWJbRX448aPTr2187cEyBtI9dCdJkCw2V5HgenEHTnXCqDQLDYPWcbmMuHnW+69BJfmAB2UjnQWd8AqS+v0mos9g+yysd3YAhIQ0cCMIjkDwl+Sh3f8aJz7LtGs++s0f6kmt5D1m/ZiMlRzLcdEsIGFQXa2wIcNJd2Dghn4G5pFWtEtVpeUYnNKgbeG3GRFiHmA9pYBCHFexnQ8KnwDiYCVZfkMd6AToeA5s1DfBvfZ8IXfwYjXYCPGwZ3iIGUhx0HpQgmJnp7yIfKCqhpy/1XmnPXgH5YvgIAq6dv94PX1dkxRQc1p6qParSdBjrq2mDUclhr6ouve5s0C+GQ9LWTya3XK43y4ZPgCdapInPeNP+7qquJvM6kT3mcSj5RSi9+e0T95lR1zse+g7uAkF0JgKrHNamzSBK2AFYZyKPXZKOoAdsDQ054KxVEbsTYHge6eViwW0y9xJ0Zs3xT/Q7hSTLUVEIgFzy1Jg0QGB9qif/ZJRtQxl446At3KWuoQjEdachSWwYpsBMop1koflcP7mj5sc9u8lVhu4bsQURK8/rkV37U32XhnK2XwmBcaPA8JmLJlXgDTd3qRLn7/pAkzE7FeWJ0v6n4HteF2JBSFuYR7NG86nmsLMuJC21nRKfsSnZhIwqrBuK6Rm6UW2key5Z6XFsAczSbYebZ+ikokM+Co6hY/KFj96CVJWulPNZQlxrjsYV544RkSywPUZpIXdywZU+RINnSgKXmFptZuls/3LGvLrskmux0nqxzVbgFrmZiXf7F0ShfIRN6HhuTFgMBOGGUoCPsAml99rP22rIMdyEZfrYVnNHqNtqqCQolKCH5lAl8t9s3Ffa07jav5TBXpezidTbF2+kwhnTIf8RR1RRHQo+ZXYcKg3qTXs+t8NjCSyw3jj4Wd1rO/wbt89sjn+FUTx20he1WnsNLNZy901Qn/vxpVVNg91iQXS6XTJDio2/cPFf0NFvx1eV+SHVZsScHNObI3HspuRGE87r4uZANRrS1wWq95YnnAd0qmCjmojEq8cNkiCAMGV0fOjQ8aBApOA+wNhBTGo6BVxuEyG8INbKlnqTSmIfXpSHpRCtdCFnLEcoJoQivI/+qs6sqCSTeWVKp3yzUFH1diZ3h+TmIW5zjNsXfcFFVYY2DQFUKV//IvHuPneUR0WbnhdRlVdmX2t6/qf2UF6VkUS9B4wTmemO7QlaDpLLH3FJxPoudf61Mv6x8KacLNFDYrHAqTYFTDbFZvrbzKhCTF44N1Css0NBd1TF1gEOC/bHYrxFYvdt7JhI3XRXqd3KCr37mzUL67nXevcdzMZ2wmnJHq7zPrx0ykmy/TQ/tf80e0iQEva24gBSmZ6U9POEd0eGm3A6zYlL53rl5MK1TLaA/Ah3EwuANOmRHzCYZ2aMQiMqE9FyrREykH1qE6jrfJ+ZukvXg95eyGLyn7ZmnvxlgBTgRrCqyQyccbC4me2eMLDvrYVdXJUBGA5AiMK1Q2xHdfp7703HHFRvK7AyDlLujjjDA85gIOWYW2q6S4buBp7hLyZ10sipoa20R7/oLHOQOybfpbjN6G2gRsnvsvLoyNeP1CC5TLpWXfBJpVhkUDKfIoTD3fKTyT1yMO4kSuRx/51a9rNgk1avJ8Vps1HamPOh0o2FTURQOcXkVsWvOBjCEN7mTKZw+4bGdyXJhL7Qqvx/TPSC12qbdRJCAnjw2g8x6HEhf/eebi93rhrsg1p5CRXgmXmX6VrPGy7hjimT6ixX0NNBVWu6ZhXX9MF+znwNa9sXM2apo9JFeLZc1M2Q1wtrvesUzhVUY13iul3IWNBy3fhvEEeOSqL5O3SLwa9YRuWWWD32dzFFFQWK2SxC3CfEmhWmoeevKh4sH1/HPWcmjqg9iSVwvCkU3tNQG7H7oFHcTw3YDkBeSIehVthnoyoZrN9MTTkGwtihD/iQuq40XoAsZYHQYUFR16zXmEyExVp5YtL7Fo1rPOx6Qgke8ZAxE35qq7zQXTvyRJ7DlFMpm8CYBVJ4XNcBj5/MPfa1yLTdVLO1y2qEY04SAnqkbhc/zPp8f2wQZdjvqPQBKXzFic1eqkFNmtdz2QapyYvVI6Gm7ouNsDsfVGNT9xpueIhQO/5aV32BIVjB/xcsYPqM75wGiDkgyRRg9hp90KSeIivAEJdG+MsxAZ1hmzRF3ThmUpotRw0ggjFjXODvJ65nktJVVT0T5WJpv+3qMgAl0PSmjOoJ87VRsyyo8loY9/YR4Tt1EjtdUZHAnhnwoDvYduG1cyN03yi4CeTtZ69l+8aK9eJPFMxGVh38s8PMtkuYVAMveFZXFISektRS7+Uh0M6Yv2jQ8aBAs+A+wNgPJMyCjU9NY+ZWOc+94Vnw5jKzcXN22nyAblHheObMmJQCWQIHbEmG9g7TF8Oi3jZVCg1v0DJqK+VLhy/EwxmwExzOiWf1ppaz0XjWR3KUfKl+PN9UAZPBBx11r8ShCTfTs68sHVS/utber/CuLH35KAPr6HoM+6+wwnhmkaUtx/nyqdHxbYz8tIis9uBSqFCIYVGqEwEZefGQg0psYDgbbCHxdEQIU8rDsWDV7VoP/Ki0LzPPdkPAjgYC06N4dd7lt/aV8KwVbyV2cv/BHw1SuJ27jEMMRtLIOq9MWCPJK7K6lkza3GWbswBe18xz0t4aRCoCzhFo6zTY1Y6aWYUtkX/J/GIZOyNqJX1Q/tiCmxzi3GUa0TcBqsQA9zWQB+PVxc8pDY2RznZcvT1JEqDZk9wwzNm4q1jY0GvtCJNbGEMhQNKZ7nIK6kHEoUWMP83lvtcAI2tfkOhYGNmCjfXF1DPOV/4QbGF2N0w4KQqU+yXTYn0QGvodinvjlN9lpmkHvXglMnMZ2BjAdifuN7spfoMcxAJ0051YQnjRk+n+t8ZX/rI7MJ/5vW+arzImdSUG0jwX11V/beIkJEvbQMme++8kST9E2qL06K4UJxr4UPde6HMtR3ZINq5fsOEdwGjlDwPKLS2EAk7FaJuGoVzgSCzCvAb+SAaHnjaM3pRac8KJ0S3kgLBCvupGo4ceCRFT4h3+H0vbm4uOS560mDrMX7CLe45/4bILgsTXQJp2ds6+9gYG4ys2TPNapsBxXiGtOhHZYr4FVL+Emgm0Se51BYUjSYWShS3N1hOlCmwFxrUMgnOPjaV4JUpS78hZyynkGJCHSqro1/OpoldVsTnYEegDcqysTLVLBceBn3IZKQlW/PhO99nu/ops1y+fsMHSl6N4NT31EKHg1vkkNJMqd7S7q964021sxBMNnPqEUe8MiJmwxEsPw6aXt866ER7deSCZA0KG5iwCz6ZasqLmXNQ/XztIhUz4JQWi6EhbmogENnp+d4jGuOd11t/8zgMsmNi3diKiZltS9ozmb6Vdm45sXh74c9pGLJO8y7bcdmT1Bsd+LMUQSyMdcnf+WOOqBpJ7DVDWnFPOycFfYUJQJot/Pld7c9FFnauL7/a2ah7ztsCDNp++gwSkcUfngCvccIkXQpxktkEP2p7B1t71ofKYRydp+TdinAxTu6Q/Aur1VoD/UzckOYZ12j5y5cC1SGasVlEwJEZXYO6ArAWnWtzb1YWTe9C84AVTu23exua2LQZ5T1Tbkup6idhG2GjQ8aBAwuA+wNgO16ysZs/Ae29J/DwST+5M9HI+0XPXB7RfyqQFGohyPy5r9yYBl73NYQKx259k6QCtyX5KrGTaPP4zWsX9QiDeVS1G5OBNuP6cPsHrg01CMOAw8oX81fuwIK8w9z0DXDWlK8ifnoFEJbf4GaXJRitdLdpKlmU8hGqFjH1Q5nR/yu0ZCtpfP9l86BRKfyIqGD5Ojz4xaDlWta22rDZuTCWmPzxTNnyoSyQ6+ULraaZ7avCrQYiEovY99m6mAoBHduTTe6fGQIqlw8SbOZE0L422vk9HBtH9zQ7CJqs6yRchsL8S83ub8PdKxpaYMaaVDgChuQAedGK2qmjuZTLI1chPA1h+qwlkg5E+AQr+44cV4+yz9MPGQ4qV7MIRNisj1EXUnZveAW9qq/iRzXO2tQ7mvrSVfhUdFGA+8cYjg6tr2AxyB2hMvdENxtorgIEW54NeqzUMZFjE8WuSUCV1yl5EZGyKD/y05i116/B447EtWnTNoD70+V3s9ErBnsBOth1/9AhniXQZi01zE8dQeDn0CkkCKbbKUkz5DXIjqMgrpir8A6M/09mVsP6dgC6JAIemkcvonfm+Xy8YR3bUuFagaNGCc12HgsTNcvrzcZN6LTYFnXvUIyPALfyuCw84ih5+Wsm+VieDRe2P3W75G0/KYNKXvPeT0nuFRApUN/2TgFwvKuSQexaopCcWrcUpgGNVtEHgS3+9G8xlSeXhJM5AzSPWECytOy3sawTfiaelR0HM7sJcRziZWvW2oQsfsegPhfn1c4oOuqdY49tl5ucT+lfC9eIWfjw6xo2eCuwZvdfPc6rNimvvuZ+XQhA3xHkblk2oSnq0dCg4HLQf2o/YCiE2OnIKjBEbIby2++uscEUL5+fAE9tVNvAV1FEr2EyL3ETE35wytHzy5FT4zI5F43Lb+1uJLNRE4kMTno8BnoJNzWHgXuqUsvSHVyLbzD2NcQ9BxViHJOzTc0Fbe546AllTYqR0pA2TGsLiFNpYxQJ2wXOMNZAzDZZsMIY//dnSuc5lndRhqTVnjLxfHRDK2h4Sq9orjQDGa2YfDa4tVUsQMG+kpQtVe5abbZMaZshmvEFbRTN0kmg0k6n19jxH+Z2YwSHY7OVlO8nUW2CFR5RLzvfes+G4/uOl0Zm8HzQVqRfPP82o4/KZAImUjImJ9eNib5suMrt8YaEMwF/8pcZbVr69ltpyTBcwwjV68xXl8b5NSTOm+E3BaLvVDdOLDKr6+NiBDLw3737kyYcl/IS/EqLK34vpQ1uR8IwuMyjQ8aBA0eA+wNe3AYgD5cNmpRfzD/z46/T7H+4BVTL9MXAjPVNdhJInG0e3uUgpvnfzG/NhtXOToiQDUvFjNKYFkupegZtYWkqS7yzmXB55bN6V60pgN74AZ0n7LzouVE4OSokMS3e8/jfQVaZMoDo+StFxkdWO7g+YjtPNnq3PY9mN9XidwVxWFyQu3W+9/VHbASQj/EIBb4jzVXPjnTmR9TEYjFGxEVEQMi54JUOGL4seAl/DRJbaHLimLPvfDraTPJRSzhfZ350PMfjqkkDlO1wQbpePyPcTf0DC28wB5L6tASKJ/M2h7f9kAqZkxAkUWmlKiYsJNwmUu8r1pmzk6rMzauAxXdlVMOq8Os7dtVvK6a5yUQO6EelXnjsa7skWMghH0dcE/tdcUubfdIS4LwSGEf3Ihun2Pw0mpuJybJhqbG7GH5HO2AogpcdgJuoEZ71pAirS7feq2xMCYJMd1YYOoBFyJ/oO++wzgIFwkDzF3K4UwOkw+fG2oHIW+Y7WDZ1+kp9GmQeJ/RD/QiyKHocwqzzLjnBZjVSm7y3kOxWir9nZKuVb3GS+7PS76tcRTCOIPPXW9l6VLTWHdBuKM/LK9QjHNeDp9CcmQfFv/9hdZ7ili+f0lqIQr3m89zdBUcNs3E36OSfeIKxj0hNV5Gj5lD3/owTmSviAinUMaDGFzz1+H+lgENYEhkwKngWkVSUhkHkPolZGmdvG1e9xHlcHQncCtQnuMetZhZIUOU8hBmr/KmkpblDdBwQS84MaJtkauYkDUqPTdd2HP40VLQ0vx1ApPFxViE4sDe8Uk3hIUcvG6blh9xFecu92CZ+wXmn52cvgWIFM/uSIDzU4X+ovu9MnDmMYRTnKzDqceR43EaR9q14/RrztRN1AzZZrS+xAAWNbynLR3rP9DNumodkrm6HmRL2DtoAHm2ZFwHybe8Wb6HId7Ym5fUXcqAleSAM97phcpr4RTJXhI/55Bmaeik3UKQAqxGpJpj4Zy3kcWnOHe3jeW2QizjQeOb56j5oZdRtNqwC0CzURJuq1GpDMJOGgnf3tni51ggB+0FLEuV3m87GW+FJZpJRngjtS6tj5KnC8dMC/2twW3AGqbFFk9yIkEldpysBLrk3xg0HQ2z7AtpG2FdYjqEZXZlNlhG012FnGjeQyU7P5v/HL+epnNG2GNU6Aru/PUPnHUT7gUsnCPjuuZjXYUwlWgze26SZ4+to481pt/AiJqRbQThDETmA4ww0R30BUQvC4pwTy0wbLnodqhyZrr6Y+kl8Y7a4PkrmQpqjQ8aBA4OA+wNgPVfZXuOXea1Xnpk2RK0VKXYzKveuo37blqJGIBSjUcBvv2q8rBdlou7EldOA63/IcwCLV+oDa2P4h0PdzNGmjU9v2FYbsfxneDygtsUTfkRnYtHOzGlvm9n6YEgJYs3wr5cMN6OdHTgieytYBJXWbLxkYElgjrJ/qWiETfy6N34F3NzrDmB6DAViDXlBYRrrg8hRl4Carl6jIHbk0urNjfGwtyC/83yjyOMHRuv610A+eixS5liZbQHSueLFbhlBfUtpJUl9x2uzbfMGw8fExGB94Kc3nIw+YALy2HYWFBhZwwAKUyG/GULRusxXBN06vw4lYyNcnUmLByghFtB56RoVQGUEv/4JDEvaBlcdTGz+N5V+GA64h7j0ISxJSnSXEMGNdNZxVgWdO8qI/QfIYDcspRQf3tGii6WPSEkazmA43u7qNBcabSJiI38HajFs11ffGOwBg2HyCMSZT6AyfMafKYult6PZPN1gWEigyJElqcBEhQpsJ4fvQjk+cUNpy+wTiRVOgl49yXLPl1eVecUGLQqpRoWWYTEdNp+QMLGUd1AyI7VMjDQDAK1UqaK1My+cRniK2F5DOIA/R/kO9+YqBMwG+iZPOkhFxkLp9u15cj2Xd7dg9RPgI9MJFzC4qP6haNaRyWxKi4l8hsck9ub3nuK6tHW/B9EusPcPiRAMmSQfiHf64yFz/dWBaE1ASn0Wt0P5LLUFU7Il3Vu9eLnImRQ6ZbDQJH3RXZIJXyvihPDmY0xz8nvLo+R7WEyAkCr501pp3b9ylVVMWn/xzoOzodIqb91bA7Rtn6PL/XMX7nI7TjKnior/KbyOZ0UZ6XKpYCAnwSs3Q6BglUrgYQyOMAioyYEloY/Ueg5rT+VlsaEz2XcR1GT2UlCuR50XVLtSkkNj6JuEwx+kBV4n06nacu4Ocd6A39RcYPPUpiELEAt5rK83dkZcHauiCS9L1zSNLrR3Dgle80MS+snZVpxRMBuyLZsdyHmWk5rxDOQAYmXRy5OYC01SFZMcr/hh4qm/K5nc4HvdXVyImxI1kfI6EvwXZEgMOIzAFgHH8blpiX6hCTte2XmZE7nd0lKXuu5nhWCWuSi+/5ir7lpKYXmldY6jkhvMXN6G22tvpNmy2wrI8JKI3sKo3+YzBjs5Ouh4aGm1UxDoZefW+KzZkyNLNp0pyuY+y/OgW/CEVFhC04t04229Z25Tz99IJL1bQ948C8FMWvCa0Y1Hktfi0on1STP1ZNlVdrP2k0PZF9myJHDffM29b+zE+dFlSRKjQ8aBA7+A+wNhBCmIOtxXoThDL8lecfH1dYE2Z9bfL+NhtrHlEvrffI7Y5XFYjVt9GBtnTPvKIf5QnQ5FRB59WZyottL/AIiJF4EmKRv/vSRGX1Hhzuv5WNJZBWf78s5Px3/1qqvF/trKmBX5Ju52dFhTJg7EaA2kDRfBtVA2r9JLxuvxV8vkaMVbb7N8oKIQBnA+gSG9/OCqKON8SBJuau5z61Vnfr8rwjTyUUMRMJUIGVh6d2KNgiu7Inj6D6q7nTW5Jo1cc9zlEaZsQ/3KClTXCC4y9LbKtgRn79ErId7X7KfnRsIB1F+Y/fqrzhCOHT1JFss63JaGc69V62De+Exp2o+5dUTtdyKa1YuGMva3G/RbkJsYAEV7LJ8CTI2ktbjLG0m4xXrSr3fCOJGGjvHkl7K8EfRM9N/csXQ21uVxy66xA6eYNWEaLHuizQkOwRQknJtaLHRZf6LSg8E8zd8tEV4F/+q7EqNJwMDVG7WIqRQz84wQ3qT+Wio4OgjukzlCuD2Ten0eEN2CyZuosfjB18DNoTidRT7gVZhYxxDGyDLFc+/Wj89hvS2AW6birZJ9ZM3rgB0KUvrlMBS7t84j2XO1sI6wc+dRgj41IrkNmMwtv7WkFOB7o1Ahz42fcwjTWgQ9I+D8R/Fo0VAwgHGYQZ6VB8SCQOmXfu26UGLP32hbRdX04eR8gxczUMjMcDZudDLoNVEAlvRxyMPFDiEcDoeKJLZHrQrutPH54rTVfymnHg34LtykOnqdLVKEof7gZ5IPu8Vmd8mEfyTRgfDSkIxE14rLwbrQn3EHnh/ECqYc5aYzXaWKe6gYpeIJvIalm7ceFMTkVOyT0jsg+hpUPlXiB8YjYQycNpKZJVT8Lq8hL96VU/pRDm4H2Zt5FEtXvybFYEHw+8HfJ5Mua+70Hqc5k60VYfiu/d7f/ygZAVEiX2dFszLhUHKMW1UDPTsorRObMNUdY+/G9bMVYQuFTN2OH97FXyA/q+MVr6idzZHLJcP9YRMlc99+5ss6hKh8xH2J5whUCZ0d9CBtg1ZHPABs/0mUCzw1VQjwK0n4S42iK5q/9Hmcby5jS9Fi0ZlbJhECje9L7cLYjMvz/XqwCZr/v0kb3YBm5nrQ0MKkFfQA3ajZ1+bqQSMeETGVkRRSwfiSEFUFAJ7X3j1wX1KvmXADxfnChUsyqBRCmSUxqgZ7s3mgWj+13oPx1prFFXpVnmTO5mEEerCUI4ebH4kqxN9ju5P8m6NNsO8Ipv4jtNXYZIyuhklizDjZDsLWqTMiFqwpqw+jQ92BA/uA+4P8Ef0XYR8V54W30oWbPfqDnfxqhiBiE9+qmgm7Gf+/Xihv1o3Kbh8hi8L/8CJdr+f0f3ru1jE7W1g7euYXYVxGv04QVMbyFQBjjhz/YtFHIhJvKykPQBQKDwFyRYytmXV5FxiZYOtU2Uf+mI+gs8vEB4ATJ9fzlyuHIyEFZqOJbg1U2ZkWtYmowS1GiKsZQ+g3gH7BhzEDPGIC/eF6lVNEFaltD7yst3Iq3WcFRDuZIQ4UBUyDXm5nxG3meJ/faxLsJ7dRWWQcru4Uh8MwHuSOdz6rT3N6+NW5hYy2shbpJOr9xdYjDjUq0UXY2ek6CSarIFe+1jmbnBQBfBC1gMh1CRl0Yd/+Hzj2/qvRHohREVyRynFMb6kYaqlcLn+w4j0AmbJO4thKKrcBjfZtyi1q7GvN+jZ16uVU9lUOSsdAnG4dM21hFvobaW0orq+UdLwP1Rs7DeetKLkpdk19ny9moLzM/Ygm/K2TWOdB6Pn+7H6I1xpli1lKcjT8ZDthvGVTsyW4Yl2p0EG5MFRLvTypAXQpsgiJyxWThvVvna5RSvgWJESrBCDc8mVjO0f5cohmCA+bORaxcyQz/aU2TnUYS/iK1ND1vx4l+iodDT6jtSJqZLh9gPXB1+Kbs/YSnJitK6CSiuo7DFqbEQ6IbIyIebnY6/ct0xpa/kimYAx8n98B1F+R/fufGt4rXeQbNP9rgqJrrZm7RWuR4PUtvmmmzN2Ccxy+/JH81qHA4CdClA03+KTzMV7+z+xhpt6V/0FMI16NCfW2/a22akE3Cio9TJdrknAcfu2iQ372toZpv6aV+rxd+VmaVBbLVtUsZGRC0iv1jnIM0nrvvUycwvIwBnzj2/3YvQf8inVxNcWJ0XKOR+t7g52GDeBm2CRgOSQlabLMqzNbd/o0CyWNY3f4pWMlw7LKaH8fQC52kO+Xk8FTAQvX5cr8Cz/5DoS6hWVOHiXaK2Iz/PkB8q8pybXGITnpun0lGyRla/s8ZvEskwZmDWXFCver8MNqK9MwO6ldCOy3RefraFFimLrk5VoWgzKQHeUup7HAbDQFUugpnqIh8rWxf3XICxi3e6BcaXi0DWLhaxWvMn/qBF2olLgG+Ml1tqadHgnm32x77i+6BFIcQc+ImImEI5J8kmn3t4dNnYyRXPT9bnQgiiUdCtbJP9v4Dpt2h253VmpFRN4hXZ4WCmIABczF2XuVvT/lQOYBJqxkdjz+4uaIyenISOhnEjeb4yMq4hMPRWSGGW7Oqk4XZcZ3eI+rTyLUoot7Afr3KhKHXWIjccmb6DzxdGFp12w/p7jb6KNDvYEEN4D7g/wQ/BDdacoTsa8PrZavQiOw7Oyeh1gYJPUMIu4o+jsVvSVAu9XWbcyABTQWYDXDtHeuiP13wHqTNJ6LxE9tybCSqF7ye/JmLE9d76DwJx+dB7UpgjAepdfYj8l3D6qK3LyqUrcwQWfcEp8L0V5IsEA+xiDPtDaDOdpjSK9t2DCIemqE7u1oBuUCchIKRNkK7OxdBnMhQuv0e/DcwQYAAqP/J5flRqZlawbmPfRefqLt2Y7WZi3B2bHYLXRvFjqI6kyzs4HFmwyK2BRMVJGcBqp0JN9eMNSCLRuvU9AYx0iWPfIqH2/Dr7XGqII/qLL5ekhnweGwObq+CoEMgOMIfzBOVGjxzQ4uHoaEcC1KSQrOKjegTFTW2cjd+qVEy5uScW5mz+rq6AGr19WqFx7PCNWIKqqAXeOmu2Rw66ljM4HhYTGOqby9UPdOiWKZ08yMqaRpQkJYW/d+woBh5X0T58XFQ+7+sWWIHh2Lm3PzqRGVAre9V8QElD3qoNc50Prf8XHkGzaNMRJoC9rnCWRr80Vyvm0Ilv7JU82M5qFACk1Wrz3m+8Wz2kkz7KFkrkFz+luCV+MNGV14HJE8OQgrVNL5eqUeCO+8EmE0OVivAouUabUfJnszIzGQT2ywIISV+KGLpbmkRuoJwZ/zs2wm9L2XLzW61/Xcckz0iH1DcrYPWiOnqVwfxzcw5iLBTc/1A58ZvZm/o1N8yzRoypwJHRUo1Ifjm4pO733RcItv3WxUIm6ID+uUtLKg/noe/wCvAHWdvyuZelRs17ZS3TRIwCqzWcqW/NaWiQZnqTEb+/Y/I1eF9xMBC4pTEjlALRQ5NrEN1q+V5QuPqITnz2AnZemNsdjT5xTG4Ar6jfse1ZVlgsfINDlM2Y5sA4RIGo94TzFkwP8xIMI1gkO7HJdM4SXTiA7L4X6zP/2BTJ7du4WVQEpj79hoetsnWX+Ikco8amRZzVGAIqwq0cdS+umUs00ADJluK/dkzngxIiagsyLwRXkUMrGFXK4i+1d824K8Ptjl7RrZxQRgXiyPpK6lT3MUGzKvNpYrFdJVNaWsJpr1viwgxjs0WA+OXcq2releAw6kyVXxsW9HVAcOVuul6mzKlHuNbkS89GQ2RELm6UuTkIhcM1SyPkzWp1zt1jal/bmTzqFyGeMArOoRocW2fXGUIZgjtpZQSgvRBzzj4CUDyxyhjyBgGf3kFqQJLCCv7NAYoW398dFpWd9KXNYfom+TB9JDENQk1c1so2c0gTTosU3DNxtQtKNDxIEEc4D7g/4P/BFbTb12vcXxcCH/JbQMOn9V8HXiYrmdT7FEJk1DZyajXsr/29ZnuYVLqDwXgE+e6FobwCQaH2QRjwwOhrPK6wbNwBpYaW5zsOiX8Us3PMlwzjmxk4jlBn2u/4Iy87ETPdjzvAzqG476/oMuQBWW+TwjME16ojk6jY76pXBUSWDieB+usmeDA0AVmMdC4IsdM63foZpzhVLpeVhutFwSdGI7u6I7teFwnxqp/2QyHnNNXvgW2zcPqDEWQJx20bX5O/rscjg7T5PEdG+SjAPk4fJjQEqcfzpW7jcJpnEDDRCNx91vHOLHhexa2By0YuFmNReaXc7IkiNvBEDqe6JCpUlu/YlwC/A7Fg6bRkpVElx66EUcG7A+OnxJp0I7yFRBH3txRkiSY7MZ5ZvhaUfnidtp3dfpROC/QhW1S2BHl94YLad3kCbz4C1VIwt68LdSugmWl9ywx0JuRgcV+qAXkRl5AjfdT6+NrMOseHchBmgA9B2cuvSYb4T9FCbKLMLuKwrdzzpBENjr7amJO5MtpmJUgrMIw0g5whkyFNF+Jdms95I3qOQxOcrWYewFHsAlz4C3DUnYuCMlmdyggVOoXu+NDE4SDpmodMmplpWovwMFzWIsOQ6MORMaYFsroXNLYcIZjvLPgo58fCaf24LmEIVREVdpty72A4FQrD2OrS2pkbfYIfzgZcGVX95L2AD5crAgAF6UvkEt2gQBseujAOl8H9ega8csJ6tM8X9cVRZuKRZX8YDbf3SgqM/O65h5I3MIVhJZeWTSeD20S+KJeYT6vz0BG5Ig4c0zg8WQWkZESmD/vQ2PMhOCp1gBp0jQ0aB5MD7rLgIpyb3mYBKJQoeNHZLPIFg8MiWQpZOqy6M3SvnSc6ImnXpaOIl8sOuPsZZRBB24TpfnVp9u2hyVO/UPLM26Qo2Uu4XsTPmNIq33ONPQlRvJKmvOOofrc0n1Q6BdE9VqXWoYpg6cd+67h/n/5BrRYPesbrpZmUU1MjFgKkwUNEG6qlRoZUAmTLlTpQrosLhDu8PM6ra1wNT57gYLqNw90StZ9UOQSksHQnst9gbAvtLukRFFRfMFHCOtuciGcuDqriXt4MUMOnxldtnH6GroBG7OoSnwh79rUULEYkCaLkumnTwF3skbl9GCAAyO3jfHE8Mn/p/cWNyBspXHhavickVuo/NMLJJwAQkuZDswTky06gtE0gs6YtXtEJzqOtzvmtEbpMw/sqsh590NuZ/LsNSI88JzUx2UK9HlliRCi8kL/Z0j0RyjQ8aBBK+A+wNgObdKVFL6+EpTF75647GWbQXzQqzMnpWeZqGEtdSVOqUUSRlUcjJrk5e7QAqlGinZSpfVfy5bSgfKf8+xgPg4HI/hbdGNU+r57/fD2f008ApxsFdFQVoQKyBTmVbfy+P/3/WT5KbeWeVOFbt4QXbFhkVRWW3zK1fsSkNVYw0Vsw20gbMIYL7IVG8Jnpypd6zyEW8WVy8VQxSRGurU3T1Z+JU5YqSRroFSTu487oCBlj7OxoJGwsTVA1+poqCeLA6cKxEIE74ThEXotLx0unlE3bzn6EUql3VBKakMe7J27ITsxTjxrxSMKj0xmcNHQO4JUPu5HYEaOfXDximT+6xkeRVpVUhQoR7j//v0JS4rjsJJtjgeWyiWtWHw7KYpw2lFnfTYxd6BqdgCbfaUd0wOOBw8uBmw4JsOGoHwawtCmWA9MyLjZ18pvIbBn7/IY+V/crBJg2P0fJm9OozkTtQ9CV5arCOehyhNSrfkXraaiJTvt7aFzele1UnfEnVJjz/YpfLcUrAIJCWEviN7CngEogN/Ef8CD0rTdKxLJgP2vf6MgwzZqlehEyHG55hwufkq9mQxwJrGFzT82NAKGnW8ZhkBUZhHrrrNa2SbCzwvzh8PxNrZCwpF/LACC9l0mPjhUosl1tdu1dTMrm6qkV3AOIUm0uD1ejUVS/p1e/oIUEVQ6hg1WPfA1PtOOPbgfjyjHX1cWJat4+dV6ROqUwQe3mlfT91RQ75kcAhUMEhsEU5Ev0wy0P+YECxWcif3ZksJdwnYfojyfky27Ozi2dcqXVih1oItZgE+RQRxt6bexzDP2KpoGmXbWZbj+ma36ZLgZqbsFE6q0uVM7S3/RysXYDnyXcCVQoCVq042L2yDLWN6xGo+iCCXmGk4B/i2s8WkXmlAvPpyIwCcMPMNMNOaa9X6kxHFrW32bzoe2Bmdr3eto8TkGd5OliFIGXv8KKaH8ecvhqUkhq8OHA8M9OXCcJJzeOuhmz0fiGp6DhbtIkMgWoSisBFVSIk++xn0DBbKf3plfEFEu9FdYUTn02QFkK0n3w1xafmS04le1JVjFcofFw9Y+wFWUqvjzx3ip0KX/37q8XMu7aoo0tGKNSCJe/NvOZzHwmZP7henaI0GMbsMbfKp8qlPqJuyW9Z5qFEkwzOhvwGTL88AvdAQ13rckEvPMhoUluBtv0gJIzB9zcYPxeZ7pP5igiJPv4a3pDynKsuwzWYEiYYwxIHL/nxkVLxvIaQOVVVM2Aj6Ij/NBTQs1Y7Vb93UdJ5jAALc61ijQ8aBBOuA+wNhCgMQ1zsr1rHo94RY4V7ctQewgZN2kQPhw8iDQhu5JWt3pUdep9JDIqTIcQiLleRP6+c3QzqQKOkI6qarJtpn54/cRhtE0Ljp3ycQP9+lSsRAwwnoR4QWKoE+6E3tBVvc/vFX0Gulq8MLYsoT78ibLAG1Ckw/+5zsYSWRQPxbYqwLS1ag3moC085jtmc1It+uxP39EJlJAsLNWJLLct1SClLGx4jR9Y6RQ2/N07nClOuI7zvf8/4banWniOcvFh/3lR6le0pdefMjkOAOFz8x0oIn2XJM60klWK8w47eNV6AP03ZMYHfAgCrodWfuevRFaCmuBqfmDYPQESd4xZ0aoSItvw8SsNGEoSDsM7k4xH+oQA5rvPiFXpUqVdooQO0NlXqJCZQXA0fOmxy4ju76rXf4AlAo14Ml3hRld2nLeGEMvBLYMyXUuFc/hBun8O4Ch8a1HATtR7ga/+uglYQK+TuOtHPH20hb+YCbUFVuVObvKD6ALw3KLHHh7uRh/eMw0QFmgbEFvEDTV73HbEsWV9/xhfY2Qkheu5+8lJX1DmCsTsXdNpeoJZ5NOV1ZFWCp/WxYWK9itzL7n+x9d7NFfdyLaKhe4T8Aqf6HPius6nUSNDo4U/hIJTPjHJP0L8nacAn8M7eeSI1P/xlVbv54fqQzrCOyNBIMUkQf7uolCy4K6C0KK2jgBpi7fUPLOH4UaB2wCqaxHdyNwyIEFaQTaFH/C7tA4XzJXD6M4fJani5zhBx5fPSSw5CF+VcXOfv1ycMcH+8PV/jpPLCZPJ0DcOb+tePYpdLsKP4ztyEB4k0MtBfUWChTvWkDuuRG6kn/F0Un/p5UQl6IY8Xnge8cYRSHPr+G+AuVRLYMaG7VbiXSC5GzvGYLY9WhcdtSEdmifstEa1Cc7ilvCvhWDcYMogeDaY0VQ36tCLmqO5HqmnZkgZMkx0xt3qT5/PqazfMEZBtTAD91xkuQUV1a0+N3pIwlCFzJW8GJU+jPXZ1nH4q5hHPjrS4J/uFP0UHlaHPLTGoE1W9vOHoHYiibnWSqKHuK8XDvGak81E1uJi7+8ea29cSLRZVIIvdujXodPcrw1j8mIuwWvEswnyHpbtlBKolUZQyCcUbahlujJfVp2zLvg/+vsjp+9LH32WW9rK3j2YWc3FWaPzcUKk3URHtyOyuDzQ97HjN6UdiZPd96sYr/YC1bhxr7eMt7ZBYDdlfTvrK/+P5Qcv7SNiFMkYkMhfU+bqtMIMwHrTs4YBHfByPdfQ2F8oCdWZlD07Xdj9WjQ8aBBSeA+wNgSBaBUvpSJgiQZ3wPgdiL+EvzMQtwXykbL7cp7rHwvcFlLIrj55Mu9RRiIBgrpnD9j4tSzdxPAnYwbtiIuXij0o0DNw8niBuW+Lc0DKTX87Wd/PBScG/01p2JT7qi3Lwh5CUY348SY2xGIUYfCNO9ZpTJ+WHmwNFEoN/YhQhdrB/OE4qOktwMKURfFBnKqQo1ih9MDW2py3HPDhR9jlbBqRzw0tOy5GyHkY7q2hqUfkGf1YhUsoa+Vo1PcZv7x4H9YVmG6r7eQQxaZUh/6qmauAzMySN99i3PdDfgbuQJme73csJ3LmbctXsk5Bs8gM68FT0Ln6xlVJvF/fKcjg6aoKmSaZTTD53dXQhUDEsOCNhRYVdoTk6sz6Ux0CogBTAV44DAHBkzWbmGArttWmxugZ/+IBvzIlDEreHZWFExvWAnajEZHG+wJLanBbuQofB0dTUFUZDQvX7iEpgusTIuHChDt5NmkT8q1fqwV22r6bpWVWiThnYqr7XTJg9aaqipyflVGf4O8cUA/qUqsZrH00XzjFv1yO7/FtHjY2KssMcp094xJlbk0RZ+0a3jonbvWNqDi1T5R+NUEgjgty9kSrCcUVCZ6Aw4wvw5AvKLDxvdjMtRV2cqL5EAtmSCTp24JYhC01CW0GpJhL2ivpt4f3Y/XdWpDnkwj4UgRPlw14ChTgnj0KmuA/MhgzTSIaJefAfSnJ85E3afAOqnrEoqfkNxmq9P+RkAVlbc/aJ+e22uTG3dC459LafYFXRds+OGq4q9H0iFLWQy4kh0Q2jcIMKJ7EgsEyTQnBfyB2hjmIg5UpZbZe4ajWJgoX2CkqL+1+fD5aC61XHf1/wQRbmZXnVe0Oluo5Myl7veQBnlu5XVL93uBtSVzegJ85zNGTvEWJaMUOyn0soLrgRukzXuUY7cgwMmouienykdlp1XAVv8U3J0MSDCqFyyJzYT03mxn60YzwzzvQKK8Q7E6bB4gs+bumqgzOPcWGLNlLfuRR3tSBxkDdV3MnobP0uZxPu4eoH9E2AjMH7Axg1QEDfnFNV+AiDcjURULPdrggmNTyhUa7A6jxrNRB5NhKu4SmYHksNQLRBQCG28aasLD0QOaftdgoWiaIzIMbZatewUzTTrna8iUNlq+Ft3B5Jn4cNsnp6mntuNdWBvoajgVouMP1q86VAn3gIapVneLhPJ6UsyZaGiUifIolAcgbmsxJFyPQeY1EXx0WnMavGGWyRtTJUN+jz9RvXS2Miv5jN4p6DZhtfI9j2+piFI26niak4=","1"
"","","","","","instructions","18","97337","0.0-7.0","fkxadncd7dq2df4","fkxadncd7dq2df4-2024-02-16-03-40-11","919","","[{""page_index"":0,""viewing_time"":918}]","","",""
"","","","","","image-button-response","19","101847","0.0-8.0-0.0","fkxadncd7dq2df4","fkxadncd7dq2df4-2024-02-16-03-40-11","null","","","images/schemes/supermarket_scheme/supermarket_1.png","null",""
"","","","","","image-button-response","20","103095","0.0-8.0-1.0","fkxadncd7dq2df4","fkxadncd7dq2df4-2024-02-16-03-40-11","1247","","","images/schemes/supermarket_scheme/supermarket_1.png","1",""
"","","","","","image-button-response","21","104903","0.0-8.0-2.0","fkxadncd7dq2df4","fkxadncd7dq2df4-2024-02-16-03-40-11","null","","","[]","null",""
"","","","","","image-button-response","22","109405","0.0-8.0-0.1","fkxadncd7dq2df4","fkxadncd7dq2df4-2024-02-16-03-40-11","null","","","images/schemes/supermarket_scheme/supermarket_2.png","null",""
"","","","","","image-button-response","23","110385","0.0-8.0-1.1","fkxadncd7dq2df4","fkxadncd7dq2df4-2024-02-16-03-40-11","979","","","images/schemes/supermarket_scheme/supermarket_2.png","1",""
"","","","","","image-button-response","24","112190","0.0-8.0-2.1","fkxadncd7dq2df4","fkxadncd7dq2df4-2024-02-16-03-40-11","null","","","[]","null",""
"","","","","","image-button-response","25","116695","0.0-8.0-0.2","fkxadncd7dq2df4","fkxadncd7dq2df4-2024-02-16-03-40-11","null","","","images/schemes/supermarket_scheme/supermarket_3.png","null",""
"","","","","","image-button-response","26","117893","0.0-8.0-1.2","fkxadncd7dq2df4","fkxadncd7dq2df4-2024-02-16-03-40-11","1197","","","images/schemes/supermarket_scheme/supermarket_3.png","1",""
"","","","","","image-button-response","27","119697","0.0-8.0-2.2","fkxadncd7dq2df4","fkxadncd7dq2df4-2024-02-16-03-40-11","null","","","[]","null",""
"","","","","","image-button-response","28","124207","0.0-8.0-0.3","fkxadncd7dq2df4","fkxadncd7dq2df4-2024-02-16-03-40-11","null","","","images/schemes/supermarket_scheme/supermarket_4.png","null",""
"","","","","","image-button-response","29","126862","0.0-8.0-1.3","fkxadncd7dq2df4","fkxadncd7dq2df4-2024-02-16-03-40-11","2654","","","images/schemes/supermarket_scheme/supermarket_4.png","0",""
"","","","","","image-button-response","30","128671","0.0-8.0-2.3","fkxadncd7dq2df4","fkxadncd7dq2df4-2024-02-16-03-40-11","null","","","[]","null",""
"","","","","","image-button-response","31","133175","0.0-8.0-0.4","fkxadncd7dq2df4","fkxadncd7dq2df4-2024-02-16-03-40-11","null","","","images/schemes/supermarket_scheme/supermarket_5.png","null",""
"","","","","","image-button-response","32","134690","0.0-8.0-1.4","fkxadncd7dq2df4","fkxadncd7dq2df4-2024-02-16-03-40-11","1514","","","images/schemes/supermarket_scheme/supermarket_5.png","1",""
"","","","","","image-button-response","33","136496","0.0-8.0-2.4","fkxadncd7dq2df4","fkxadncd7dq2df4-2024-02-16-03-40-11","null","","","[]","null",""
"","","","","","image-button-response","34","141007","0.0-8.0-0.5","fkxadncd7dq2df4","fkxadncd7dq2df4-2024-02-16-03-40-11","null","","","images/schemes/supermarket_scheme/supermarket_6.png","null",""
"","","","","","image-button-response","35","141878","0.0-8.0-1.5","fkxadncd7dq2df4","fkxadncd7dq2df4-2024-02-16-03-40-11","870","","","images/schemes/supermarket_scheme/supermarket_6.png","0",""
"","","","","","image-button-response","36","143687","0.0-8.0-2.5","fkxadncd7dq2df4","fkxadncd7dq2df4-2024-02-16-03-40-11","null","","","[]","null",""
"","","","","","image-button-response","37","148191","0.0-8.0-0.6","fkxadncd7dq2df4","fkxadncd7dq2df4-2024-02-16-03-40-11","null","","","images/schemes/supermarket_scheme/supermarket_7.png","null",""
"","","","","","image-button-response","38","149126","0.0-8.0-1.6","fkxadncd7dq2df4","fkxadncd7dq2df4-2024-02-16-03-40-11","934","","","images/schemes/supermarket_scheme/supermarket_7.png","0",""
"","","","","","image-button-response","39","150935","0.0-8.0-2.6","fkxadncd7dq2df4","fkxadncd7dq2df4-2024-02-16-03-40-11","null","","","[]","null",""
"","","","","","image-button-response","40","155443","0.0-8.0-0.7","fkxadncd7dq2df4","fkxadncd7dq2df4-2024-02-16-03-40-11","null","","","images/schemes/supermarket_scheme/supermarket_8.png","null",""
"","","","","","image-button-response","41","156213","0.0-8.0-1.7","fkxadncd7dq2df4","fkxadncd7dq2df4-2024-02-16-03-40-11","769","","","images/schemes/supermarket_scheme/supermarket_8.png","0",""
"","","","","","image-button-response","42","158025","0.0-8.0-2.7","fkxadncd7dq2df4","fkxadncd7dq2df4-2024-02-16-03-40-11","null","","","[]","null",""
"","","","","","image-button-response","43","162535","0.0-8.0-0.8","fkxadncd7dq2df4","fkxadncd7dq2df4-2024-02-16-03-40-11","null","","","images/schemes/supermarket_scheme/supermarket_9.png","null",""
"","","","","","image-button-response","44","163305","0.0-8.0-1.8","fkxadncd7dq2df4","fkxadncd7dq2df4-2024-02-16-03-40-11","768","","","images/schemes/supermarket_scheme/supermarket_9.png","0",""
"","","","","","image-button-response","45","165115","0.0-8.0-2.8","fkxadncd7dq2df4","fkxadncd7dq2df4-2024-02-16-03-40-11","null","","","[]","null",""
"","","","","","image-button-response","46","169626","0.0-8.0-0.9","fkxadncd7dq2df4","fkxadncd7dq2df4-2024-02-16-03-40-11","null","","","images/schemes/supermarket_scheme/supermarket_10.png","null",""
"","","","","","image-button-response","47","171895","0.0-8.0-1.9","fkxadncd7dq2df4","fkxadncd7dq2df4-2024-02-16-03-40-11","2268","","","images/schemes/supermarket_scheme/supermarket_10.png","1",""
"","","","","","image-button-response","48","173705","0.0-8.0-2.9","fkxadncd7dq2df4","fkxadncd7dq2df4-2024-02-16-03-40-11","null","","","[]","null",""
"","","","","","html-audio-response","49","202444","0.0-9.0","fkxadncd7dq2df4","fkxadncd7dq2df4-2024-02-16-03-40-11","2262","","","<span style=""color: red; font-size: 24px""> NOW RECORDING</span>
        <p>Please say out loud the list of the actions you saw. The actions can be said in any order.</p>","GkXfo59ChoEBQveBAULygQRC84EIQoKEd2VibUKHgQRChYECGFOAZwH/////////FUmpZpkq17GDD0JATYCGQ2hyb21lV0GGQ2hyb21lFlSua7+uvdeBAXPFh7hOoCBliGWDgQKGhkFfT1BVU2Oik09wdXNIZWFkAQEAAIC7AAAAAADhjbWERzuAAJ+BAWJkgSAfQ7Z1Af/////////ngQCjRBqBAACA+4P+Mv0Kf+6DxpObUefVWlb2HELJMLMWLF5E+gmjIRxHdQSXMwEq9DDlSZNxOR8BouoCDXmUh6qbJZY0cW51RK0v3qvbVY5m0N0TR3QH2WDG7T3f4zo09YXmGyQtaNUExZ8kyQQwQTSOQIdv+K+77I58pAkJ6/v3BhOKCdWCyOf6YPeEGdaCyo5ZATrxSOvKDx9IPmrEQpE3RD4dJikBwPuAsZ0uJXjiPkZu1pUIDg+IbUN3+rpvcMGdAaLc9h6nKesJQVr7xA+S6gbG68xTMh44AAAAAAAAAAAADUg5wLqWjQpdKmViTYPhQcr5IabiUtU5FPjPF2Gn1li01VRAFaqjUkkgHt8A2/BnwSF/d/qC8TcLoU0LEwcRbGkkC7z1BOWyWt/+hnJzT2qHjVe0OtlC2L1EuL09ibV/9eDs1C5RTQazfz6O1VrGH5ZEvYn31E0+bqZOiSQDMa29SWHJkQW2vFqO3Cpy/hiWyoTm4Gd3NSX8EIPkD3IemYhKprp0F/KRa1Oezyy2fADovW4B9ZJae52NM+GhwYhtedbSHS91cvbq5wsfU6bGTUqZDj0IHHakZVD101sziaY3w5CYEiItGfE796KOmLuAK2F/t2basXOzpzPSzsxTod+6ZmiWbNuL/5Q6920g0RStU/1Lgape9OAwDOSpicRvsZs8lFeA3K3zqHu5+8YDNSj0QLgYr+0UncG0ty/JAGoDLGDEA4KkDLtihcgGs5rpvSSSvg5zX1ytsnkpAtT9Waz24risbTlW5zxcX5q+ssEv4LkDceBMoI3csaHVNtyi2jxhgNFsvsj6cKIYls+ybgexkeml8yciOzIgulNvNOgvOEyIvItx6a+Lr4FvZB//wwpWDe/hr7Q55AIFgMaxburaVVJpKhgSVlalJ8PxsncH9SFGK8E6+hxrQeKrcZ6BqwsPOZ2QaJ8Vjlp7T0CCCFI4LymZGm98QyD8PIyo2rePLSq4t6/vdcAg3ekaZggqDPVH48/XYR3pwXBZmkq5vWfNjNVp5/MhGwMQ/vb6bkRhxrG1VVSnTXshJr+Zv46XPvkY0Yh9NXPKzsi6WqafctbTzUMWCTC9DCYI3NVZsrptQRXbVebKogNNOEVRXCmUeKfXoQO/x29CqYvjdTJFx3NSD+UtCaRuzovN9uk9tvBOUzt5KafQzxpnzMxAWFOSM/LxPBkNAYdus25eLrxR8wkQZW7tDWuK6HZ5D96hKYXiShmQXeb9cs5URi4dZzEv0q7TznhoxqKST6CNMEPJ+KfW75oHEMPU/EeOijO57rNDpRsU4aV3d2d8f7PVrFzobaR+44fMOq0xz2TtEDR1Dwnnaqm9OKCC1WpnKKmNd0jeWa4EGZtlGadK76BabskQ26l4qKtMOfmv2YajQ4GBADyA+4P/Cv8KYD+aTdj7zsq50RZ0bC4WHxGgQjsLCGtfLIjQCGdYORpRtcoWuF8gbDKyS33FwdyTCHoR1/W0mCDswlFKPXbB5Q7iV+5qd2EYeDgDx61tyya5ODakdqVw7HO57PQ8wfDFfHydQdRBau5uTVDZXOyJxOWw2kN7YukVBu//vaM9Ydzc9OaePkD7+UHKnn3lb896fpSwHLHTmNB2BgdIfbHdTNB95lPkAPqKBklkYt2T/5sUp5AwXA/ucTSj6Zq74hJEsjjc2HcszL8wAv3xm1q3DW3Uh5vA1AUEhp/dq7qpr+WNZFuVEVR9spI7likN/0ZwaBRdIH+scgxmDRJVgUmu+T3CiHpD6RntbbBMJo79gKuLCf5/xgCdvdx9uAYbZGhn4SAJ8LUu6WEJ+7sGbqKnRNCM3YHEagQKg10dXxL5KZZkbhy9UldQYqwpTqnnnqFh3MlkMrcbyRIy1mrA3AsLlnjv22G0c0d7C/Zhr/cqBP2mB8QoO807kqTlSHrt9QT9OSJmerEYKgoxLc1UJbFFlA0nzgw5U2R5tyqNsszKJg9OOew42uUCySaCac9jTuSY6XJegq2sbLZ0OB59rzLz+UtQ+FToat+d7Ck9GPi6Ac1TiICqzkVc0WB5suSXVi5BLYUjvCafIJc3BT8PJQstyczw22x0y9OCBNzYfnbQjnfqCp8rE6MJ0rFb3h8OM+CsvY/ck/3603xja5AYUPit71kDP8LIW0y2fLMu36DkCpNgeaejf+hJim8hcxtfUlhqOgZiKxeo5BH60tDTduphFGlzituWWKrrvAP3/hOFaQl3CMKYGv1avHxen4wWwZcYu8pCb83r0QqIYfjAr/fHfyuf6+p7d1h+Blk1YuwQbLz1Oj4++nR+C9bTUq+Ll/k47f8g8iS12TpCd0rFpteFvjGn3IOEoZZKPVTBA8+ndI4qaLef+7vBRNg2Ne0rrDAenczf0EFvaayaWBiMICDesnEpWs0vSyQACn7CrFZTjVT+VD84YOmoWn3ZESQoPheguNBFkVRYazFDgxrzQ1CGK1SLYwoPPLvVmaKgR9+rvrNauiJpa5M9BA2DloomwYe0Hfh1qVrAmboiI/60oovQqaNGcxl1xGPuWcbHn0Qk6DVB3dV4ig2C1/APioJmrPQ4wUaKWWpvDe04PEpwfjaBZ04h5vR7ZtGjQ8OBAHiA+4P9D/wRYD2KqoaECVEqyySBLL3jcTk+Sgw5oQsriuInoHACrca4f+Bz89fg7BtPN/FNh95cwVMhwlw/3sKIkjNlbe1JpgWkvYgkor9lk8nxP0E6keRpufXZhuicXjwZ5u1Asx5uL7ZFnUTem1/zdfK2StJCAktkm2Xn7T4LN8d6A6ZtiPLCLO8xZJmSNDvZOlIlt5yNWGxZPh3+d23MkR3vHwavBw3KSXJ/qiI4F+slUMO5BDarSDtX/ngMtGO/LrA2QpRfKuxlsuCl+0YuaLeZJAy/ixUYk5Xq0/tFKPzzIEwMnkmfmG7LeWrriele/sPyVVqQqNxq+OQb82HHR9dhgczLwR+QHovmiBBD3x2dmOq7/KdEx0f2mfeJrghW/oAb32EVy2yXaLE/XTVwS1MSYY5XUwKHUZrn/acYY2BqZ6cD+FkpdRUje6eWcTiOQD/BCdmLaxZ3FwIXjjgmis98SrS7K7k7CnX3XJ2FZ31JhENrCNUvQ7UsJq0+l6n3h1prsY7elHY2bjLvHgOUGVCxTBWi7HjaA53LVM59QjjXI3OYy3YyXDzno1+qay5XHQ/xTFdtx3kUanCeyWSHBtN2a7l1SZ1NustHScdwDLYX5qvWR3ZnyfmnHnmueloT9W7H+9hB1Wlfn8lkWMcIVuBViFtPzEU5udzDG86jSib+kopXzbzC47syx0SassZF690fZVPsrxtZ8D9jBepqZmk1KGE9iDY5kFagud6hqb84KFLWJXA56V9VnNAZIpVZeC/l/z1RzcT6xxT/yRlG0xzHqHSeMD8W8BCa0KMJV1ObLUsRDcsjBNthBtkS8qhKQcgGhVFUmL/1gW2j/O6qYRqM8CUn71ezQaRYYQPbBDsWJiF8W3zeIWSO5NX0dib/CgPAl6ldx3ItwWfRXZibfSkGNAOdSqtSIIGprE5GacIrsFGz5TrLCtua2f/snyE8liFnUCqHMRwaWw3TofM/1jFgPJNdndpdhvdR3U5zgFLqyvHg+1pc6TIgm/fn4uk2ShSoi6BB8nIIh5ZppYF/W4hPMwbHQgZQCyNk0zTyUIcqitgyXtyzxg0GF5/Ahn7bKSyIfxwUIZeRLLaMqY2SVP4U40DX+NOioCDXZFkfZTlQsDhBwcghBlTSD+s38uL4mG7tea+tvKZ3a+KUfK4Qk7eDx9dyVMns+0h3+YKHHcwlTWqSqaL7SfF0KYdNUDAC6bS2NnN7/YMMu8OTi18937NeqsjFhgqw2vfx2gCn9Y0s8O8Hiwct6xNjRw2PwA6jQ8aBALSA+wNhGqH+AMdnvwK8e22atyLFtx0CyJoeLdQ3s4zZpgzOLGqRU+c4uVGbt27F2YEo+I1t+ee0Z/MX/DVhIPA9i2Clnw8Z+vr4Et/7SI8IuNInNjKi1YLoNE1lrpXc7aOn0+om7rnRI+rVEIq0QTIuNUyUqVcgz3SwR0c2o/zS4WzfYdaVrQC98gu21MWtJP7PHU/t4xcr6HNm/reMTTDDQqPSKw8wy5t4VQiRtujqQdLaHBm+SpWpGmrgDUYxbVcd0HGsHJebE2NVVtQLBWxYU7RkE6h+YiBnnaD+sIDo//7rtofR5M1HANClV0g+00XvUUG+WleIrB6K7vltElRjC+GEpZyj6VZsQQ1tYs3o9IZCpfsTb02+N15Tu7r2xI7PVY347gOtCCIPQVR0gHYrslG6ekAGr5cKYFnx3416NSXJHWA7AegS0xUO1FBk7hSeh+5SraS/xGhbcTYT2aMnEoL1KPukTblAsBMSx1Ya0kahWl9/5WoVmWOktX3xkatEYK3bMXa/4LOtYlX/g2cBFN8JkHWzJWeoc8u6TZTAgZ0mtqEpplE5LW94KDXYNhzmOybI2qVmldxaf0pNPr0/yx2h+HMhE5ls4ziZEQyME/QScAA/PwkAzODxzlWT2swjnCFqtHGRkt/kZRPhQ8E6C4Oi00P7AdY/3aYV1b3MNdu+TSKc3/b5N8oeLxBjiXFr+DRi3rSlCsmUxHnW7psNIje52SBGGDiGPuZGBEc91Quy8NPTq5F6AL084uUQ8R78X5MwqHuBMlcm1XzOipdExiTzhqwil87WJCcqGHxbwZlWZ16WL5aN1zRe2uTZn94Z/CdSw43T/Qr+GuTTrJmSSBZRYYnvwuvsN0a6S6KOxVj14oLiX+t0Du0wRWAB24c8+CD8qFhMXTNcDk+vlkZhvEY7q1OZJTMNGvu2+yzv1w2lpQprNPVV1IoYT75ysfL/IZzjPUiymRHrYNCo2JZfdCQ9rwCGPkoA9Osi2wdWpt8ejP0UXZ2rkZybErQyVR+63GDOCKCQbmDATJN1nKljNAL9tfGiAbJl6+GOAU3Irbx+Ax6to0yzw2ABIHv8UOSYnNKMYWQXV0R0D1MnvpF8yoYiCI822fPsZibgq/tfn3CCkE1U+i+FX0glTrQhXSpKPjieiosXVgnBt+HDb4XLSzwIeEt6EvpArAwmtVa2X8HxiAuTeZAEDFaYmbuU0Mrd40XJj1kgbtS8nl/4nXrfABRnq5U7RRfQ5rU3DWIjdO8QEovcgAEUZqH59hKIHLPqAnejQ8aBAPCA+wNhGKwQpwsZhcd+Qyb6shYG75YANQKd4WqTSS56K+H3crUgK/EgKWhnbi70eHbLuETa/6QIzQXc5IZs20CD3AKjakxwi5fO3enNekAQhjdYESP460xLK3nsOY3U7q/8i1eIHIWwsjyYZId8Vv3GMZsYj2TV41cdhJgugTF+KL597UJbhVGWMXQWJ2nEAd3t5fP1oFUDeZpnllUqSz57gHNvZq+KddWy02pTHoiRGsLLEROahrnY6Kk/Zk515qEcQ5JavmmTjE/DezWc8TnTY5XzVfrNlpoJp7wh3ZxShKCiGrn+cS0KtUw8F9P2MOblvtqBeE8Ws52tj4XNLcVQn4uQUukY68xgotSuWothd+2PtTJ/S7H4Iu3Wsm49a+zSPeryrTlYzp+ZXlF+EEbzlBi6y2btA2NdbQj6Ik8AaMak7WBtO0NZpJ++M++JA+1l5rVc+laIeroYGTEjnENut5BPU8Yhfen0LNQH5Mp2U9glr/p5DqCEl8yOdyqtFZO3MLKnFNdWVrLRxVUrOhjLqjQ8ydSFsj/pLMpI4AYCgJDlxx7athMJvfWOYJp++zHlDOY9Sko/AmytitG6H3x+W6gjhSsdoNXNpJIpvAMWpH/4z+DckeqMEiv9wxsT/EBsBNBflbEmWvzZQhmHKAbAwVpF2hKrWS+uJL7gbsmsy13YHBwiDuCdE6SPyZvDi5PblY1m2jhdqerBULU6/1OoSQhnts77LvtUGaArB3nDgWcaoMaxbndl7JReCA8ox32wG9Aw559aAqJU0WJjV0xErgktqPVr8C1TdAnjIl7cheRSQUGuXnxzRw2asn0eViXt7E4BooW9wMMRudgu28FfiBd8YDnSGhOVW2AQukL+cXdnpTSe7OD60ipBaHGN5nU/pBcRiXRM32vuAjhBE2AC0wnnerGuYiT1CTPaVj4jZ5zd0Oib2NjcWUVIk5BrvL3llGjInX14le1+xloC5GuskCCk5uygzF0bGZquWeL/pJ/N3UIwau7Ck3dm7hj5iNy617kxI9xr2pmnrrRC8yrfh1xuMwOF42nK/T71OMpg8ffr0EjKOoftvHlx88UxMCNnYoOZpBhSy8vbUZ+EqFzodMBPUNSEgxCGfaLmf4rfqazPyVjtURqgumRnCpz1ZEztdJFo2a/QtTIbl43Yojgm9iQrk8aWKIfan3G52CpqTTXo88tssR6kG/W+VQ40tFhQpoSdTGYJEpZSRwtQlGLLiItRHj/vmA2oC1oisgg2UiXpbs/CbJxqY3PMBNYkA3W1ROCjQ8aBASyA+wNhGk20OBKBJ+TFNB2CghqznDoBAbE7iKWObcWt7nqVT1RtGWdhQP/zdpW0LEjlovJ/Vg4ENZWXV5zNxBf/sx96AxQ97au4T1kewQIA9UEEHy1wpjQIKSmrZ29dfCgpOAjz4gmvUOmpjJvw3EnBpbye5+h/cyqB0LiuyZn9xzf8xlK5VkjhpXZfmTYrhVBT2H88aAopZ0FmHEPcFjP1HihZ6ODKzpc8zC721DtR+70+WoyFzJi6R96saRzUl6+c+bbmFwlFOaev0AFGTn6UjCzM5BGpbmSUKO+6vRATyXBKhCxzcvE1PpLVTg6OF4R+xnJ9u0mlWIBsKxxxEBbRXyNxAZ262A1mmqL8JlFmDbh+Os227zNaB13nJw6CL8jCCxBvaVA4a6UCdZo4JiFOibwx+Zb9oYNuzMzUz/PoFfmeIWAz5C0vfWCN2jzCF+FVAIFQMf94b69drwMpQlHZNjW1kCZD8hWtOCvKGXpG+0rHp7ZgmzEM2KOVxPA3NZ6u7y6cd6ub1AIkha0zQGkTyoyyzf2RXaMjis38lz2RtRWgPIZVf+0O5nJoXMarNIvSgKV6M/K5JRKm3EXnUNgKTfrU6uDMzdLA6cV0gtgY6gmloXsZUynR/41GzTXnXCSZVVsxZw+ibmuPK2r4Zj8UEimaai78cZfgl8iUuob1dUYYoDwrA1PW16zvhkq3Kvq+7dAVU1wtbIlA+M6LjQoHQUtfgUGSGyJP6DCmrQUcz14lVUPj8END8ARHH+KFSEhl64GMiJzSIxe/yvf9FEOhikOeDRhMS7sOqFFmvmO9C8qULFYR3oSGtaacjr57Go4Y1K/bjtHQuUPEvAofykzirgwgYDscFeMgymJtmIPv24yVcoMpUFly/N4Zwrcb17D4OECBHGPTXD91qT5ayvI+QuHxFeG9Ojvd8Ozi7F5p2wh/UMjZ1RfCY7W3ZqnxLG+J6RRcGItKh8nTt7qrcmA+M4ceaFqlb6qfpWySPwJXrCJa7Htay7rGm5V41As+vk1ZMnmKNj/JfWqIgcGJB+zo3j7P7z8t7bw+sylHt4OBJ5d5wfRZFymtHt0f2Eh/xvzPvm6L7+fSIOrKXl9ptEss1Jvbuzih235SNpRQ/Ty06/NShJlh71g/vbpUxE7cn1VgxxZOJHAvY6bbuzrcZ+ThywQAwqnXn6l87c2nP60ZdN1REis62NaXHFMhz07DP+Cpsu9DtlvfookhWtYafTR7nvVASnNNkZA7F6sdgxhxIEZekag9qb41NMj79xDkaOnmRUijQ8aBAWiA+wNgaM17lfAfn7Z1Xlqyx6qdYzPUA7GE2D3Vgqiwaot0+5s4mwU3/sNBRXqaN43rhqX48CV7A9uQ84L3r2+Jk7q5PJmtSUJu9U3+78VYSqr7FD0vEm6Oi5iU+Xkm2jHhRF6/hH40/xbSkF10oGA0qNOdOj6fgXI3Y5VuzMW3lK7KNHdo8wYWxS8P31/uO1XJZPSZsi0P5VIOU9XM8MjsahDAVCxzkXUE+hySx1/mCJXyF1Y5Zn419JEeVZf69LB+PnY94eyg6FNIUfYQDYXmRq2xLNMeCIm1EjZ+xPg9sOI8OKS+l7V4gIUKg8kRSWjI3UIvduRuu46c2jGjyk2y7O3KMTDRq4kjDhJsdA126jC2waI6wIn5mjXAYOIABeIab32tMIGFAZcWXcUjgmwCgsO9humlQLEukCfVAz0u8PT5aWE0CT31BsSuey3lfraMr1aJoD84vxt+rsyfT8C43Ry+EDW9reitUdwB5VkdRcBeEGsjmiqcZtgyYVeH8wNipAlHQdJHSX141nLe6G//k6faguPN5vdvk4H4RdYcPjXok5mrA6QvgzAjtv9n+QS2ph5HoAQjUJwnLUgpNX51AcsucgDNGH/azFWnWLC//FAfwXxJeok7MtkK/HVq/pN0Aat9Kh+BYUrlDOU/ITVYysIG8hXOqjLEFJ/0q63PcMrbO6OFbO53SFeO9OOg8hmIMsGll4gTsjsrfQCZPrrIQbYFuZdB0stMuqMZ6qJ5Qq+2yoMSkv9R9lNHj3ohmhw7QVgVo/JQjLxhVyY4a5DcwAde12WsmEVaQkptqnMu1uycISJwnzHy+30FktuauXdrouWSrVX/DeX9aPokn0WeKSP8YXq9m/Ij0zNJigSQgtrn/jzcEF74zOpbrY4vaMCsGCsP2ZjP4AtVO2WyX8WXrATuRQ+5PLKTToZHNbY669sBu8Wsr5p8Iq5XqRa3zE9mQaeBKV87rLM8en8Oc1+Ualg+KcGuZhTLTubXX2fTLTg/3VsmjjzW4r5WekKxwu8rROLEsl3HZNinFvnFk92ljAA5tnwv0S/ARZHt0OYq01Itzgve6/MbVSrelSBY90mN+pztGVok2uBy6O36bct7qRUGI27S4X+bhRI10lD7cMLogqN88bkAeQO3SR6guRs+kk3qk5G4Feu/mJIjivHVzPMNF8qeqxzXi59Ya4c2i5YwkgFIoL02RPJrlK/Yy8haMJy159MiCs9zcRpscnKEsjrITowBYZlg/tV1JN3E4wgufeeQmSgUXAyY8rrRxRFI2iejQ8aBAaSA+wNgbSjWamOXsFTmsLHs7JbagWkEPSymV49feeU8fQH2tSFNGBOwgpv8W7HCjszlOAKGuL58ezqt5MZXFPxRos3fcJ2VVS0Yd6VvQTiKzf6WYet5WH8vVYauUqr8bL/LoZ8HF74EEpFmU3B5Icz59dtQOWpns6xOxIzABz7uuGjoUgo2Ok75wXy7ZZz0wjw4aFwZhHe8yruHbAw4cOPFrfdLxTWgUidkLO6qOMNfcXziMWdrM941C/viRcc9dkRSaIjLCeV41l1SjT4KPrMcA9FhzG7RSTU004weQ1jITG7zOz9gvSiIiEWLNIjhpygvkeGxth226xPT9uQ+6jJ3kBYj7te4i2epcczoOFZ7LNAMUGXxXwgeYMwMaQa+cU1kvd5w8lFT+Uxt5DvDJuVy7mw6qtBXOgQaiXfKEE82H7u2qGEXbclluGrLepEfG0jXe+G2kQMXbw1lFDq35gjO7c1+SX6+YYPr6bAnnHkvUz5/4Szs8xyFHM3jguWwZKHsU8VyvdKFbbMUYeU7QQVsStI5XqDcib3W+Xmkm6UpBrm9adasf8FXUhdgEFgzs3qE85yHdCcOZZEGystudgawt+MaDWXP71D2W+v9qZDGiWqLG+c4vWBaqzLPgcr+liMxmOUwzMsDUIXLmlSrbQsY55kHP9oNZgeF4PloxK0+8QrQj6wS1kp6g0VOLIEU8kXgPwGmw5DTQewwhfr8yJS8teB87wr+sYypp6yCA0bodK7N1KrOGw/PV4hCehpYE38gIVx5fnnc1Fy96zbzEIaD9nTXLEoxzBTZLfreBdp77Dux811zjqYG6RpRjBwsz9+kkgZ2ZeNPaXc8pAsUI2y9M+rSYRilhLaQaenzDa6Ud8QWIluf+Rn3E+46voHcnpqzUufTyqusmEwsf6D7hn2+TSyAtbNtg4bMaD2b+UfXPtNWXDmXGyqTZf/Xe7JOIs9GPpNVKv9tXCElqafHpDgSIlPEGCUKy/4LzUCF7+bqTd7r6dZNSv6yzRyp/TButQZ8df3zBJsmVdLEKfGH6K+Uvs4xGKW5QWAiWP/iAQsuOkyevnnjx4W2Y8xOD/W0vNC/ZdBS/f5wDxUK0/LxOt6SGjapnGrMteTLI5OkHaDwtTCcuMc2zsOzBp+01rJnZxp+9eBZMSyWqul+i/fPrXhTAh9zotWw57ElfnvUNKdEvjZLO5d/o31+LxI24yEuBFQvMEMn/IH3IOsm7NhGZIdzmj8iPd1AVZYJKQAgiGVtVAuC7ZfnGF6NEAiIBhE1ZfFnE4qjQ8aBAeCA+wNgPYocijvww9W5XHbunmM/lmVrdsxq4spR6jQpVWi2Bt/d+6Z24IKhDBVFMGGX9/mtSXe7HN34sf2ZxNNsxDx6W2jt8jScCy1ZJUO2r+Ef72YxsyVCKzrBB/wfmf+C4KReZTDQ6OwG4xo2ILRQSvk7fBQ7TIfFJJxUj/+rzNrgHy4JcIjbjHUwWaodWP8KwjFzKWbLk2OuOwF/gJxKX+Seo+owhxEvVrouHpw0Z03vQtmd95Dl9WnuEcaQUuSa+lV8RIifnbLNB2OhpIHoGp6Dqm46mWKHRwLR1JNQkC8zFUFQ+3GJoszhPglPVoy7erwwAzYiHXHHMUjVMuIjWQ5CLWvfzoFjNU/QruXfH0WV4h2uaAAuqMj+uXVOmy9926SlLK4HKIYfJKbLC1t/0hRhfBsRGYEc5orT3v+FKWhMGWEM2n/RHmrMpaMH2gQU9OnPkL6YYrtfV+uUf8PdjDlHextXMrqiDuNN2tP7zyRVNah99SQqil31dGKYX+aRKF2YN3hMWfKJCZGIUEpnI2N+eqzME3IWUwbJ/gSlecwG9+giLYcmHBPdhH9pJzN6zIiIO91TIQ2x/BjHtM8Xz2vRF9jka+zRp3OTnvBdt5aCCnE1g+4E8bQ+ZVVFS8Uw0pHPVfyEHqEqn3IlcvuepPdGVi4kRa8yhdqaTqSUTLTIUG1f6TJbcxsnwS8A2IN5FXbS+S8tgetcH65S+8TWy5khimgegUWkUmCQmj6PGAM3vQKL3AX1BqNXoXg6dW8fVWcY5Ql7PKPKEI5C7N7GYr6CfWzC9GKK5DbiMLcCaIU13ceMyO9iSMZai2BLVK9AQAqk3pX49aFA8kesD5YfNKhHYRTxrt83+hcqdeNwJVvnUf3MOG+iVTpB/XZvgUg/FQdFlrAejQ5qzMuyXHF2VDMgMRd7M+0GKXc1vodTyTugo2ycECXLaJuATc0laDRAaYvFF6gOxHvVSjbG9tLl6EyGuFpWC9OxsfNIVsuu+Ys1GgMsBKLez1H7C/d5QXzZEOqaSqspIhFwDcFDV40ODI7+KA4t3Y4KhVP9DkpLgoYeEdrRz2j9adr9yElXiVytrDw6V0h8OfbYj0Qo16S3vS3UP+efEX28wLvbLmXiCM2Y7mL4QxLM/gw6qsOY6M9ajMK48vAP/6+/X+yVK5H48Gm2HB3nJMKlD97lUDeFVdke4xAIywTjlwwxKgkUFQ6JVkMIPUPV12xJVkRsu4DI1rkH+O3OsFWGj8QnwnbWIgaP/VPVIzqyIJmH2QEdR1aJRSajQ8aBAhyA+wNgR6HtrF9gY2zsohhiQID4q3I31U4JNB29VPlWKlNAuBEx4KW5j+qXAMhXzUl07QgQxItCBqlL97gBR31J11S6CuCAZrZgIKwZyLYdaBP+f9bprpBTHsk2mQ+Vy/EAnBvFwLVlhrhp9TeJC+M3Hb/N1PBJaJoRv3I6b8AYSMjEdB0iT7TZieeCvLE/gELpzuEXJs3zmKy6IhVIwqO8nLoiNqQiAeHe76W9apiFkgyKv3ZLv5vBg81osKzCk2bHoCr9FOXNUIjlAA43eyWyiEyGbbHWuynAHffpOzueyyr0MbN60ByYi9xrYvWyCJGN6kuid9COzYikoLiiWCoXntqjZb2dPu80UoUTpCCx0Mkd0qIKonNmvvKB5J9avR70PjSQDsdmuO3+j0+hrDJhh9ihv5lz49cpRJ4Hgiho4gdv2WBIPmXTmyHS6wuOj5AKeHEPN+2fAbxRGfBbFUM0jKpQiCyilmMho1wmNGa2zbg5jmQa29zzPWQKSTxbTiprPxtowCBay4ApRdYP8gMDruzenqlLPDm4h3rhxZ7ujjLByDJjty13v1MCqApAu2jP89kWMIKNGxhb7TR/a7yLW59GrddLhQd8vjoK7hBKlZGP0o3bWPxp4qD53fTdlK5oRy0PHrWxM7SGGzO6fLXx9epoW6Fb0w27S7b7gRum2v3UrQDxLPgETnsjHtg4yF6MAXxq/DESsM5XgtYibcdIw+V0OpZ2izdyCQ1LMG/ytF6Gh8w1kYWJan4PTiamMYE0j7Dsh+03g66P3Pf17d6ypzLyOkXMgYwxEQU/3rIIpiwlIqM6fwXCnRtZfedzyZQIO5p4C0R69+ueBODTDyvWZpqkYRhJ7JdqeaTMjraVbi6xaMcIargwK9wArkboWab56qh31ZJDhRs3NLxjzXHRd9Ph+FIJ/61aJu2BFfQxHxJhfaReMLKGI+qYr1fX5DTqz3NZn0JGdzcbiTceIncAnYnE/fUqnudOBJVhWpOzmZUqIdJkyZxC2fCKT5Cy/J61DbO2CYGKpJYBgOQzlCau8wfIZNfCIR3Hfu0uDUUdRq1ILKcUppnVsv/ZSo1aKEp5v3Z9HrNXlsgr+S8Sv9u3ZqkJ8JCGZsuz0R/8TBHqOmkjI1Jr2Kk4v5JB3JgYYjE9+Y3qjEpNnG47bfeihdmDbftzYueDgYj8ysCsI9GXh3dnEKPMNRGXuOog5NfXMy6vOUkvFlJKyMyaNzHUN0PC7LkNIHMLvDnYSwlF27MOso62CpMPrCiieqsMCfIRg/zZNLSjQ8aBAliA+wNgan/QzY05+Kg1yTg6Jp6NDZxUVLMwdoBDl2pcfWh+dba1zLgdLACsdqQ7kBQ/Wy7ByvtLBBtgxplsreWsTHv859IYTUt57smi+/rRoKerrefYqM8QQTe6MyJUOjiJ70WyzJCI1UHD7n54EA++48tdYwOc9ruRQDZuHKzwbJqaXRfuqbLruX8RvJNsuKSP/LD/Pz6Bmxo2o8D5Unnrrme7khkYiqnFXK8yVEP+4N5yuzqKJrmmv9kmr+fBw12oio/uBWh0+9PCFbSHot1LLSvP0WvajOFb63J2hsUkJ3bXDMyWdkrQzLLsWISz9MKik0ndcfRMRfdAgsHXlCD7fS03hcAWO1/WWAwgAiZ6OF0ap0X/KoMSJ2zNRQONkWRTWnkJnq6O+TSnN9q3HKBuuMlYUxR8E0cY+++2hKq6L8baqWEYXIyDSAyVmijmOnQ7lsZSVWJz5m+rr1LWbYA1XudpQsyRPP69nDJpuXLEZL21rJwwqbOEITHLHLv9M/ehonGm5RkFO9T76GmOC8OQGMltSJzwcohItHPUzRy2gXVQ62+SXE2Ifo8S730jFqPu9khHzXMmptb7++U88lf8kLD3Bi4mIoZb2WzUcAeTycLyWFN8hZk4J6cA4htBEn+G8GO8UPTGQu2+GPAjUBG5fQ8Y8qhpobeHI95SoC2uP4KfPsb9ALMoLI4IxWbEknOviV5+vo+kVgfbop5UBpB3jC488hCqiWFMxJRieyAslzHhK8b+rPXaHjSSQrb/dWGnOXHHmPeJ0N5X3gF/1UXVlFXBCkjWftVV5qHxBaXa1/05CCYxynTtw3Cm1dswucOnXK6CG4P4BoEwDhQCamj4MlBvYR9bkeQ1esPJarLZV6W+P2X8b3yThAU5XP/GhgmH/3hCcqrtBRzOUyUAuGp0tQSh+mX7vHBYIGnKRZGvmCvyqfmE4sueizarWWeStCUXdlwN73H8rH/PddjKv84DmrjZAniA/zFUXzFkllD7639xIafuK01wrHVPz9zfVR2+3C/aS0Agbpx40cb+6oo9CUfezMx0sB08aN53wdDigm4UXSoQg+APT/w1CidCX67q8oNAX+nIAVjR62Y7DFuH5msJSjnpNhHxg1ouDXLIO5o16a4BUxP5znFKSsTI98JCXneYsaClnqvlgTWKc1C4YCR1zEmoh0OG5wV3Xco3Y2KOzkBg2Pvaxg20ErL1ObdOFof/z56bk2WvaNEtvJktGay4DcsR65+1hF6LUTIkpqChn7JCKqh/C+CHpsdEdS6bYdKjQ8aBApOA+wNgOwH9KGwZEuzhUFiaCUA13j7XC57KrPAy4dilyWr+Rs9mcefNQ+HKB3y7oLoRcBDNYbE0ugWFIOB/fLK++mdK2O3p6gF4Eg6X907NY3YmxGZTcV2GOjINybWt7dhzqP1knpWvPBVvEWJlS4pC+fQpexb9hGDNGAis0GnqtIPTqrS+VX+JNOj+2I2R4wWQWY79Vm+HtstcQBIlU8q6/vaBRJjSaTLxpPqZqt6mhBw33nwjBMFjScrOMmr5lIj44n3yVAeJfr7yZK5UTPGOCAWMrH0P4b2gr5ZqZztgCU/gSxgGUIJ33Uu1K7uNt++YKq/5wYFw/YHUf+LuBhVB2RJMVQis0Ugq/wDwMQmGkRtBFrI38Sk4P4jN7UK4OvDDnoqKvAvPFEegRs/3sfKII3JttvLyFPBj8o8YSKbtZ1AcsmEdvCZu/JCGnbHn/Yd8Em/BLxG/z/S13dNs1A6Jk9wtR9zSe+xvhi3CAE92QL8g5COBkaRNLFxt4YgOdTW8sx0WJFElbOAjzAtteTJDKZ065jVG4DwaeqzrB6UneSAQL19tSYpYDSlMW0tYJZWXRJgIboekjOvZ+Jqb9eApfwqRd47pt18iphDHQcJTDnkF7w57PLoUZQbqoC4nXhUxEUlhEeXRO6nlp14nEpfhqUIJNHY7eGzwK6MgPrOvj/k14J0TKGoKKRYmIRdQkVHabh2nsYiKHBhIdje6GAxoFFHAdqYlAVVechtDVblyP14nMTh7oDfP3Wy4X8SHojDi1v3gEKJS2G5o2eEMvQK37/yAWcZliCgKiub1Oj0Yez6r29j9q2IdCO7MI/8rT+IsQ2k2j1r69M99lvOuHMxG9S2vYRhaH9A9Zv28ojEOroPIHt2i+y3uM79gXsYbPwusM2eJyBoX4bj3pc9yxsOuJ40f5EJGr9DnYII1PLyPSzsKA76tfs7yQ3bYAdpjODZYUe2EFegnlR4lvwDXagQVC04gh4VsBDDQX68udnfcY0yDm8v0nrzNxaKKMKl9eTjEiPeb0d9ld4/lPxiLWfx1hfWyIGjpW3abk9xQlXnxiw+bVbdhdhyF7xOLHYAdc6fLq4778vV0NoV/KTQ3tSBxbLbS6m3LCBXobLLl7nboybXMemGVpi0GT+6nlTfCZVtMp90phnCaB/XzvPHC6sGrsfCN6eZKZtrQAFpm59wgAxQe575dzwymftuLBBLGYC4ARfPFqqK3w5OLr6WwCDNECJMeh9cyW6XEEKq1ius0Hfzsz9/OhPnTBvsJ6CH1ENemGqujQ8aBAs+A+wNhj9ecHYoZTNIh75AQZFRlk+l+fAAJHf16LhJxVzu3b5Mzk4tyDrxjlYlzOE6hFy2NGWJat0217VCSdSi1zDj4scZHvNbxg/oGOoy2zXcq+jFOxY9XPq/RFCe1UMPsvCh0EjEsc2PwwGHcl7b56f1uHy6KkR5PxUTO+xGUIHtIYyt9s8BcKE/OXuRrCeHGIXPEdWYGJsj6p40R+DHg07QRQm4qmfBMZCaBiOcz9WrH2agljhYa/nMNzmrdxRq66oZRMQ02cphjt5IoKuVMF3Xvu0TfLRaHYlP0Sa9hBHFDFgNJWwPvoDr/j6OuhXJ74IWrTNheJ0OzSTUmAu/Ls1szDDNp3acd0388LqDRGqWSzmGsyrRMcGXcYW1dpGnOOaOaksUOFTkvl0qUxb+K7k69GuaxAELEk2f5CEAfk5xxD2EaS+QgZtFFXOo+nZQ7GGTjCIMTNf9gOSrMrOnalKuIfkjykUIzoTgs360iteSRJqGv4maO8Z7tGAkXe8XHwCeVQmr64gy+E69WNTv3iIY22bg1oV+aU+DfxCU1/domF2No/rtYwESLkQHh9ioUEJcu94XHNZGqEyIKLbKvSJIDG3ZNfSZUeDcTsXrtKzeOAd+E6BbdfFRbsrsz3fjtEjuViSxjSvcixd0z7yJyIju9Sm0QEl3JC6s0UOnam1ngex/EFCtZL5unk9NYSG0RSoapVD4Bk8Kn+u9OXdO6RCvB7DQeq1GLbBJPy1PyCo6QMZCGiV27q3TWMM2lGAfBnS1tbmRZDGdUsQ2RUVyAuTXKqja4h0EBcphowWDIZ91Kwre8KYRwrRqKCMqV8pL7qiyKs/MtSwbkGywiMnruef4+YX0VTYGIxxk86yzaX74xZRGOolubKOKC3HSo2T+yQqFukXZj+evesXYwvEpjnUs7topZTSPoYU757wL56zn18IJoXjv8LkkjKzT4ohcfZGNfXdd2Q8wYwDvar7M1sk/Uy6tOb4IswK/dQm/RO5pjSFIC/R97D3vjSwuJcOkVP3CInLtq9PRjx9xO1bwHz7b7uQgIe1hsFqiD8+W9ML5avNT0aK38XaKS37G8cmBhWZyQcU42+Jse1XVoRtevHFnv1qVzGbHDwql2RCtHSVp4HMKAw2vvtN9Ks1p1TeI0B1hsBnES+wRDtJt63NC7M2rhw/suQwdkSBi0dagqltCN6JTH+pZ5ihKSfL2yhP5j1sFD2sunX6gWUsmzwde0jpZTR2GgdK2NJ7tlUxz9HkG7/Bhbj4rtylf1xeTCcYeecl6jQ8aBAwuA+wNhHeGFmHnDd11G9YJ+GIoxGcay3PWWAM2KGx++efl+NiWdNZLJLbGtxcgS3p+aTbc3TN9TaY8kJIniv7vToGVfYfWOWQ8GmrBhPVbnAGwp99Kqo3mGy/4AECeTOON/pWeZOS4WqFtrj0mjMUnuaiUZiymul4I7FxLIWL9wUkntlNeAgNs1xRdLHTkPNAdYOQgFyuJWvDdCH1piTtVmE53GwqJa1ahyNp7tCSeHNaeJJB1L81prVPsFYkoL2cVb55DZajOGkMAReH6XT6II4Oe+ySxzChig7LhktLTNJp0rBT8cRgtZjjal6QTL9kn11DbKxCbZz0tXGkHZHCPLOyJNrjAlo8kPjM+vCuYBQGYXKggxTcdN7KUZ20zCuwML/fHPc95teoTSnh5IwHeeAEdS/su8L2S8zKjpByc5iMoqY2F6wGbVrL/uoNR1RpS00gN0xtS5r42SIPQVa7m1SCWvL2chqcplH5SlnFxaZcyxhHw/Eh5dWxg9M35iqdPqb09ukrnj6b6c3l0B15A3uYYIKMkqnFJLrPxJ/G87ukwqDkQHvJ2lx2YbXn73zjCRnVC27WJ++G8S2OP7HkWZv3MpVivm1gbhWUeOhJ9CqqWOiL1buQA8SIDEs8PsOjhS7vY7FH72qhaUxQW5RIzQMnI760F1GrhU/xnGslnH0gOgiIjwds9Kkn0jnR+27DJCXScFSSJyB2GBY/u8iTfMfxr8LJ38IXtyuiImdMbtHIJbafpy2IN+3JQZ6G9HU7/ZhvvMh1d3lIVtx8aaye0LluxCEaJW2lGZZBjDVu63FuvWL/XaEGyovguE3Ayu/tLoL+zYG+bJ41RoDDSUPbYlJ0ZVYRUhHEbHKSZgW1ZG6dvjrxDqYoO82mLNfRxS3t1Poe1ehQDQtDtn6DONZVlB/kd74g5GdESgy4KKBtq0lJPWt5AstFVb+AazwhPPt+0YyVV0pxfyUOlfAR8Qd76TWrk9bXMexlU57sBrRVWNxQ1Q14rA/epWK7rTruzTuzzJRsLI/IcbfQh4e0vftUrQJRMU836xDqZhkDx/dO8tKntTU9C6tgqyN2xb2Q/4bsItokeqi2WEJfuzsB51Ttzfd7sSC2Y4n75H2CJMZTUU9IjPpbHJObgfIO2636DFgm78NUfiZPTMkGnR5ZGi3qh0E8lLVmy3afsHWIEElNm2KssSqXss8fDxGljKOeeSwtbwunKcb8kA8v2d72PI6VBr0Zp5W7azC32DSKhq39kpNCg5VtLU6VWQwI+J6lEFcit/0U6jQ9iBA0eA+4P8Ef0WYRUPlF3Ze/8OmDOQSFHekj6fLhPUNLtDulqr9lyQTxJcIhHUpkt70nKDV9t7eBbH7t/6gRiB87UvqcidC5LENhRlUxUQVg5JF8wvoFyn+yr/+9xKCnKfBIMMyqAwk5cS3M9qkjPga94W45cNUTjDPwJ9G5yzPuJkHSTLI2o4+RIjiDSWUmDgO/auwZwsp1e0AKfc59H5mlyekWbW4kx+Pbq1K99oJGQnZG+DcfTIEjqhOdMgK5FH0HRRODIzgzC1arPcuv+5xn18nT7pB+filiou8Ob0gBg2CMSdL8N4q+EYKgvA1ypkq7fbniL7sHNj41C7a7flVbz8XkcA/RJQW2IHNp3+1/poNFNCBEdCVujKBzfv2Ot7n4Lm9sCJuRpGaB4D32OeiYaZFk/LC+6vCJDIKPQyDPr49uJaIjKMVZVgJ+buW/3ycyT3LitKRXG8WGTXLkIvONyj2j/AFQCR5vX0ATsbtuLGYW1Sng2EuZIVzJiENam/v7EOEaR1B8p6rA7ZBjka8nSFEet9qWz1oFdIGRSnrEIXMY8sG9J2Er2mn3UqBcYqBc3en9tMxt0otnAyytWEaDHgLSRob2CxVzT8V78pbsJg+kAHNLnd/LGgNAacpBAIRR7SuaiDOqpYII2JKUa7rg6a0irjh6Tz7h2rC6sUVAAQa4tW8sCFG9A2KqbZn9ClXHVUUP63bCWiRp6Xe87sLYkp06YVOsee8QWBApL5ULnQofEywGSMmJSOX2wPM/fdYuNB+DDgw60BRywfhYVNOi1PzddhO+h3W7UhVILJYCtbZ+AGnguYVwnMVz/IY+JoYzTfDdoujEOn2LnflRk6FDDC/FjaMcIHtGTTdWKw3NrRIwqeMhnaVrbQmqntAWAos+z/xmrQfgNomx+dbh+ujPzVeSY7DcDuZ2UYeCTl+14lCfyTw2vmLgszcaPquFYPdCaL5OjEU6UAs8yocZdNb4rIpfyD/NXX4BKLNEm9NZc/iZKbQcdQRet8eNYAUWUdA51Dk9w/YPrRySh6GCOo/abgOwXyk5l7GEMSU2EDL3DjNFrmkP6oDZaDuOp/Lcot9PopLt6uxb9+EWQXSBmPAztk4Sya8u7r/B5r4pXWAklZgJokF7mpzhOPFvJAnZC3rQ6ILaEOsHmLmcN4wA+OzO37nXXYok/+4M+N6fU/vUE15T58AddWeXRRCc9U0AN0owGl3duN76SLjA8K1jjHtkch/K1OyBkwAhTSJkdfNC4ugeD4m2ksFrM6wzFqC1nK8RQqj7L6PAz7jh0qIOO/HjnHwqw20IijQ7yBA4OA+4P9D/0PYQrkve9RILtsW48wZUwiGsKuS5AF7MvyWR1xjkQ0UWOI/CHkduD5Vt3GcKeZrjeRqt16EiGK5tk5RN+mYfqNSXkv+e/3PbNV9tCh49whM/C4rcTvdqrTUwQuVN4x8tKQijPndqiRtq36z3guHuDIwFMNm4X6gp/pNQ69+uEilmD9aKxcMXvCbOuGoz4akPKiphfKPqa4pbu304KjsR8jgszDxYAV3XpUSDluPHIonoYhhaw9lc/uad62mTEbPbqkkeZjBPnbEvJJtgwtJqkGRnzmYsMwDDxMN8eSGuS3J1a5lOLWrOsJGM0MFnMixhjl3p3LAdHGpzWosQtvBwa/TTOy5DuLKKti5zPmABcgEQjwbnsUtL/i7wYr5CuhT4nhjNGjwcG0OoTmG84THCwGGWwHiNwgMp2692ELNjrMIFIRR1LXh1Ot5HbF8AQkPhnHJnhe3uSCVjsWsdBiqs0Du/AFg9UloUfLQs5SBb74nT4q560EhI+83EGnhonbKCBgk7W+qDFT7U6kwQRG911ySTgZZKu2yEb0ooXdevEmUrQv0IeJm1UYZWCv/yCYWyHdIqiMb5nobC0xV8ZjJldFP1hdd4ki62wrlFf3SACEPeFvahBxG4bV/iHfw/p4HJitojhtjcvJdrQA1t2Al5jFxt4DvdDYlw13nzZShRTaRnkpg8d+l86wDsm6YuCBe+Pf3kI+Ia69K6d3amJAYqo8NWGIhYwGVhg6O0nPVcugB1JBv6r2FazdbseIslUrD5Nk2gBs0TUXBNJYJjcY/hiSCgRQGnUvNIZThVD7VkDHSHFzbZ87LxVX/pciPD5JyIB9Cs1hGKkxqP3yHiA9AybpOvmzxRtjBAfgELkqET3k5Juq7d/QJhbbhZ3C2LvpYmScc1Boreptiar46mFxDKt5Zf8qbI+Dx+52ZuQ0u4wnvkTdxf0iFfDmjRC0fSPjJ+jxf/aaAgVzAbkmJb57mii0ev5512JgooDIQQqw5QMYhakgYPYNWn5Vs93GHF8XQReQuTP8LSaNohJ1Gy0rN0bjW8FcAqS9DYL1fBh76wTU5eflhOFV9aAkwuxcLlmUq+Mkx89XWJa4+nQz8tCUcEqeawL425LIO9o3AOGMyDzoWmC2BVGweEewjtfuhbmAS84D1cIdq5JkwLPiwgXad2p+pU2SWjktbmWR7Eb8TusvXj+3fhTYJEUcvCceDv4gdcaOZCRPs/KU4hA/yKVg/VLumS2lT5HLATOONRwLH1U96XIYaaNDxoEDv4D7A2A7BoZceuD4aUaiqVwUg1hwC1N5MpssKvh3Mb1KNw1/kmC6AXTsdU+mHQ3q0Y0eXdmn0NZu2umb4VLzmKV9UrBUvJ+HWKDo8VaOqrfYVovUCvkgz/NsIJjbZBLFj76YYpl4x5e90mPAn0xnn2RmVW24Z26CnP1NOKx0r4VapY+BPA713UP0mVmpEaySs0ydgeKYoUa4K3th3BsDvR0vdHrvGg4JZQmqtinI6uRuXtgFq2I3aWQdR/KK9Q96XNepGgeyCeH5gXxIzKuBf9IvVjKptfcHnyyMZMNEIDwCV+87ghWQLNLcSxypGI9sWXNL0dZsUFaAC6klpNdcL+X+LdBqi1JscsJfIR4vGCv6zHWjJFT37G8PsFtky6Gs6IXfJumzEycK0KkeaB8b4CF2t2Usg0aT0ydl6fcA+sx+GzFUYEezBCeH/0YQhTwcBIKbgPLlv+0nBGAgmd9o0Z9tvTjJh1XD7wgWtKCybOadWgvJ4uCsAjWQg3cThME0RJ7+PwSqum1Isp2zOECgjU8Ij6IkrzazTsXHoG1fQgR5ubEsuVMG94sABzbtz5JYMxU45nNZpNtWeXCgdWtX5iQ2XfnOiNnkfYtAFML/DY+7e0jpxbt0xWzUcBH57t3W2ft7NzNEQT0MQqNnfyHuYZXcPmCjOqRVQCVw7ffEGjv1P8xJCuSoWj9AWx+cEUtrQ8gC6iroG9RuGJbauY2nunsXShW2LZm8AP7j4wvrDoJFMz5iYzQLoT3/4NDCrxV4OtkhLrp7ylB7wT4z36VGeiCo5FR1q74w08/iIDEreB0qnfs5tZy7dC+tMmq76D5iKRtJz/CWIQimkYoI9pAdXQgAf+thFQc1xgXXUz3P1VaIbgvsGgaiARwHaNEW/ZeGpqPx0BVU+6+gKHYfppX23m26xaLX/BJOvZD60FK/rbTDaAU1tLIsC7tEOxJPgAjoqF5OfQFBVmWnExKYhJjiKMr2meerP/SbJfjqk/GYsXi2CqBq0gIJUeIWPPvY/3W3NRaoLkKyacfVXVH1OJ6o+f3uix1wtunNNAclyQxBDsdvltW/K9p0aUCBU/SgtO/ubC6aoWKll6FvhW81X+kSkeejW+/96LxNP/gAIcxKrWIwkkonhKibAeTeN4hvF8qFogUqtqqByc9eFY1peDNxF93QEquBJjQ92tWSKc1vD6IkeugPL1xaBfp8aPdTiXscikWUu7+X8wd07Bj6pcWXDp6us7Sjvn0itNK7vLpbYbsVreclKVL1Ue8S3gqrLvHLAyoryKNEOIED+4D7g/wR/BFhHw+lq5eWb7agTqev8UPpgFHV7ZRwRv0ejgnQTchiRRwC/GP1pQ19wy8g2gfNEVQOImR8YwlX5b5gCRAcVKG+dmakzynwxtmTSsMuh3QoG5uKCylp5Id7OdmGAeBnz4y6jv6XP4ZcoPSdoBhN/gbPiD+Z8YcXx9j4uCcqknPOz6R+uExeukCm5X4c8rp5VCou4vEqz6XhQ1xxeEN7oWbFlMjNl5/tNvZq9nr4tg9DalqBheBq76PIixjQBjPr/UH4VzuTEatQ3I1MhEbUaU8Wt6iQ3orP13Adt6HkK2cm3yhVvCW/lBQvLrDjHUoGHYk1CjN+5oKnfm7acSH0SbBuviOWy+M7koCpq9ifkTUycasGkjqv/RSSPn1h6d4Lp1yQ4yb+DuFU+c7sgu9XA3WCDx5FFjF78JgUE52pab9jhmA9Z1gvRVjVG/kx43v/vDYtvkLIzEuiG/KTY6voUxpQGCPgjOxeIwiYaiHmXKTzC2qdgcg9DVoMa0yHPKsWu1AA6RT6fFhR3EBlZnZz/0D2jytccmLcJ5Bn1ibvDclNC9yUGnLqQpeLMm7t8zCRuEWwxVwAMli+h8mzuUVNnDUwdQsc+/wFTSOi+MWH5gnqzoQJ+eEkKb9+rBDU4TBANzod+g0bBLYfr9g2YRhg89+a9frljTZ6ncRuI/vtQSNZqDTzJL0V7JNGULsVxOCSyGQdsWSUW4PyEAboWU8CpwKKnH8elGSuTNE3B3loRcKztTR1pyMRJiR514XJ1BtHoftIZl2ZH/5xmBPosceSPISBvfP+Io4jAmPk9UAcs8ozkv+3x8NchMmADu+mbP1qj53YtX4Hu22CDQcjXKioB8I8fWbP65XDFXDMgGPemez5ieObhcrtBjJaJWvqJ7owCVQICBVM5vyBcpYuatOJm+bl6QkAj3U+UxqEy5/Oe8Iy3SL9bPZErrrPiHwpaayMe21gENvQA/2dkQexPg4nlirjlRrpb5Ah4Ny4Q3dz5yAeDJURAO8Y0KOXrhWku+HW7w8CMoxVpIILnypzVwLqKZC6HkQcQO85YZUuJxXqSvRRpvnd2XYvFh/l7omTHkf8hk1EjcBOvl+8Dfy3En/U3aGyP+SJZKsasax+MwbdthLzhxrEsMy8U4q32iAzw2xHleJnaUkWaoX7CfXazzsAgEP8MYvfdsKzTG9diD+pLqJAQbomTM2dQoFiioIkfzKEQc3PlguB/sPICKJiLMS1ryNQ6isDCcy83EjWzlViqbfSdKHbTyUGCzQM+spGBjauZCaF/SpBW+Gzu7LhXaznzZjEdVwYrWISi9Pf9c8Qs36iJN/yLwrox/FI3xw9f2hV3fSBZuzxtmRjwEguCENJpsY1H7l/98vf3GbloaCdKZfuuQ+s3vl6cWgysUxoIlldFDR31H9X+hFs8QCnVbyjJ6NEJIEEN4D7g/8U/SVgaVYgv4qyo0h69rxlfZiebIau0CHDvel7U63m5P/akgN766OuIjas/GEDaqoX44wAHQqaNo2EGNm6hY0NafScOIWbZZgpgcfDO5nYsgSjN4nAZskiRcqIputBeUP8v7L9cgTuJRzyf3PyWqtkGzcCc1g0xBUM24INSy/Xkap03ZBlpXFr5dA//wxqTuLOVfx2o5k3m46gnjdFB832TTxV79XiNZpnQsKFYdjQsuXQLiUriNdrJIe3/JtEf78UzVujnLCKzty4++dXNYQOhmMZ29dqk9g4cM6aAB7k7wqRsuaMHVDMW++SfsnI9oQLy1H2VGo2sOIVb0RvJ1Y1k/RCnPHsNaSxHPLsTJDTI45pxMhJs9la7ZtIGDImVVlYrLyArBZacMgbAdKi5jJamFH+bUnLdZNpptBkk6643aWEtAut5/14JapSlnrDRx4+q325qZWE9zCHfd5YTmarz1zrzf2vsmhDkNydMmpv/oC57XumxZ9+An+mtysmgHwTO3gfCN75QstwrChh8DfVgDcXz+MJ0QP3YhXCIW9d+L5ZdAhc+zKvM9n91vu/U12LkgcoCxsMlcBlcZGGD59yytsYTyw30eJHi8GV3zBhgvsAb+6r20XYkYUu8m747EXe6VzXpZcYFpfmyuecd5XXT8UtsJ2Y8VMEdfoIQCyI74jXsxH6kkCGSwenVRFFruxFu2QK5bZY15UDwmMGy63VjAXBhfmtkhAiFdbfs2NhiJa6JLKEM7s89cuQkgaj2EhSTHSBpOsC9YZfRdYtyDqFigNd4gV2V/JFByhASsaJBWVBFxhFy25nhWg4ATq+D7HTUVrZIyPe6CqIK2L/0SgbQ1xzmlwadeRxxoK/jnFqa7aeCilL9CzXYHGYSzA/DAB4hdVKOq5efWsrYJn/Dl4u+t1jqtzVRBueKsGns4PCumps2s0hdcR4PMklgVGb4D74hlAx9OjsM8Nz8cUQUQU3cRPTYTNhw7mwWN9CssVb8NGFg6BP611Wuc77AUAwaZeyVvdRH10ldvkxcGB1GCv3JLIU1VDgl6JJiOk81vX7im3qPO2QR3TC6wCzDi3xITJ0s9UdWc8smma+pSqSzR7E/S4hMjWJ42R1piIS8H1sSZBpmWj37e+OO1Sf6XBD3rBvLkTziU4tvC7R6yp46EjH3YoX3/ouWB51BoeP2FWxf9+Vbna/CyhFruHj7DlQX+yukBb7tph/gGlNHCSnmUJHFQVdX2dDy/RVUcttaxXBmuUd448rZR+Usb0wh2XvUptzYm/OGdQs5Oj234UUzh6UgMwHso+La/zrsDMU5pP7Ejq7mh8FKP55cmYsle03g1h91bTJXqYXxsypjoJL0Fni5ju3DclYVRaaVuZoyv4lAfakPtNX77DX8PnrMpujQ5qBBHOA+4P9DPwNYRb8WQeC8R4oQc6wWzuRDg2NQOlmDb5aqIbPAut9eruLggSstwNy1NIGBWh0C+HnNIG/4OCLakiFNeUJrG6hwkszJjqxSpajPtH/m0DikcdxXOaQAnAyrmOzLRCjwHFd3YIogdF0nFe/DHDINcGjPrulSqP1PMZeD2DfFMRT+i/cjAky45O2+LxFCFiIah+OG5MkkQWJ4wTexm+vvVHDtGygEnWU7VtMLrzvCu+gZHHoiAXv6+IPYqUj7bVu2V6sicDzFGhbHZhD804xK/CaWjqlsfG8muro4lAtsfSaYtIYLX4tGWRCt8cPC0UTul46I5fRjv3wd+dRl1N2UX+/JjGstQB5sMNMmUw5vv3+qfVBKQqjUjhpvzUhmgYTv0qV5XFq3nOTp/s/shNWl2B4NczjD/U3mX/FkcrPAZ8R25sEesc1sq8L2q0USeqRQ8X9gxx7UxgUqztN0UxXj5abu8H8TF8jcjkxTVveIbypa+tzSuAp0wNQ+JEeIOMSHnJOTkFI4e7W3HMHov2qezsD6IFLqXzLM28RN6t38nIpk/QyR7jM6rYBquK4RGRwz6kKJAM83XysYksBkesX+/FGFJu2pCHbup4cKyHbRI9Yb52bcVFV64i7/VFfNAxawB6eimtt0BWQ/eUIXkcBvAKy6JbGq9Si6jsjlwqudTYV85tsp6s0CJI9FiwEpKlExlhpQc2fj0JQ7ltycf7eLyf7W+FWb5llQEFU4+h3mMtIkShAydhlMFH7u6yEk/RHPViqaCvkox7UL8ueiT12YrZoFfpikZefXzzz1sK8HShgbF1251W5trLO4xjLaieNm9NpJT4Jrh4VoimjqIg4AxF1vnX1HlkgMZL66lrtLkUhEMdUWVAXQotVQxSk3GGAIouRSY04xK81T5OQhuxucwRxTGZjkXpuylaR1wvBZJ3yxVhynvuvfx900BVrffdIdU+6NSwAs5+I3jPTsPoTPQ68GpVCyi5zb/YYamM4c52KD+Awjf4Pfh1DBmgVQ0VW+GeJQrjBIl/fHOhPKLA2RVtkqeUX8z74Y80gnM2mqb/NlpySscFyOpwAayUgs53N7fYLBk9phnddsfzkn/UoS/yAM0KSFHpZ9QqUoYzkNF3u8MMY5AG66FDmOHZ+jSVcx5WmBjwPsOzlupK4sgcl1FLAJkWLDHjDODD05zm+4YUQM+/0UyELbWQDryBVd7pzLz90o0OGgQSvgPuD/gv/CmA9ZXFIPIX23RF+KbR7IJBaULqm0PqEOe/VlK7NaqgOQAF/GJdZ/Y4uEa1QSfHAGrHsXYgN+pLcSo2Q5lNn+Ua8ud5763ZY2RMbx64qZ2E1xmwVGtSeeSUHqY076mwEvxlx4137NsYqVhAaYAV8LfaEw/lPiDxVBUmmUfPGMwu0GF0kBn1ss6LjcDshVbnerzARpK6OsfYnx6iFZO0YD60krI+QyDSjK0uUaVomyKmogzHHROR1D/oZkUBVuoDsKpkeql4lDgu4/kx6ZsAqAzj235W63to46ylQXtCQmenJ9h5M9JdkaK0LtWUwTD0RjaRBat8w645cFdiyPUFNBE+HlTePNhDiqgtPodlrMtlBzs0Nj32YHZ2ZhAGddGOPsTBkuBgA+JW+4hJhHeKln4zSNMtn5brnHGEJTHUCWOfLKRMk1O9Y335BlEPx1my8nnY8m7YKOe/sfFA8hnxAKyj6Uh1DAuzB7y/sOkkdUsmIwrYw2TT+5q12EbIN1FAINpzNPSpX9jFTx3YBscfuNteLAUuoVaNFCNZAkjQt2MinPAHOyuEXOUDDZy+NcoRV1ys4WpA6j+82IKyywQRIFZ34U2B/7FILXHJJmpaldzpwiKgXUE+ZblTps9p5fIIgPQ4IOxLjvzYpA38wU7WUElwLo7Od7avN7sTUDMQ442GdteJMFzrzuVGqeWyNG3S5+rUtho95uafEJ80xuVYIkBxNqd+ONJj1ceVLarGNkCQ+dFCp6Lmpe46AdenVsnn+c1gooHV2z9ljiGMgI85yWhu+YR2gEdYCnFb3GGdLdP1zqLdAaeA2krg/S5j0+OGK/6grxYunyJSp/fj2gxgFo/m1U0B9pDJEaLPDUzXTOVS1Gi63Fjw5Jb16inI/uvmWK7a6Qpznw3OxiMGFolYRNovFrNfjlXyWDniyownkfU/wmUQ6FznZNkrvjCAcI2i3gP8UGNYCIvW1RHQ11X3In4vySBe8rpAYwVZwIBWVbtHRmTwc3JYVL16vq1RIY0D3ziUsx853Aq2jKuTjDuJG/+0+k3OzOktN8x7O2GOdsyTD2hkkRh81G8V5CziuKs+MvAZso/V0dPQ7v3taEE04cEIi60QDdcrDHXLpafaFJVIdlGqypSckTD8FONefZz5Iko4FD2RRv2knmcnkKde2SPb9vEQqK0gb3Tpabs+jQ6SBBOuA+4P/DvwNYDn9iqa4POoM0MxKRd6/pctUxUsE+O9LDmZ8/vCDt4ChmbPoiKNrRcreWFrtXhXpQUY9gXgKbeaeWd0uwJK/r5z2ZrdeuIyCzLSkTzzpDX8ulKRMLk2jWjNHPhxXnf7lXTwC7LL57eshhNVhmNTmNuCGGc62Q7MLTh6+VGGbFwMZNIkSp9cl7oITrGX97GfmJbyNCnitxV+uWkba+AzVq4A2E3XF3ilTmTQkHSMza9qewxkDa2tGBjr3ky2AXrUWegF6kG6BTNCDkZG8NWeR7DPX7dQdibf5WO17tJFW0KN8/Ne98fOg9uW/GfPRuc2utfh/BPWCvjzaVkwKDGzWZAAouTke7Ul3JmZsPPZV1DoUG/8jwwATfPiKL0luZ/VT3h8nTi9Xjs3cd60btI+RhgRlqBV52thhCW88n2gdlZCuIJSH+6Ku6G9KBjMEaq9dBC+hFWUzg28PNN3ULa145S6PZwiSX6hFPKKiGAdwqEmJdaOThBs4AXH0flAl7pPpJr6jX9m6qB3f9CUZE+IGpRJroPGNsOjxzdXLKYrnsXJZDRB7xjjwFgKsBR0WZpqXbCQ3gVJd+i1rAF7B6S+wmMRlbqYw0/1fsPcrBZYKewzzUfL+0RXUA0Rzequn7zF1tpy86YCRQt6xMxIGwaktVBk27WbP3RmSJt0YPtA9oKXqof3Ll6QzRkX3CT96jW/9xb0d3ijaj9mFpkVbgm/SCijUPem83MoIyfhKwLAP7lz404dhR1hvFuVX6OCTSE1Qp/xh+jleEi2oYfWd0KgLvYEmPP7VLNEp3UAxogu7BP5/gKB27nlVYQsIoIQnT5wKSD6aenWKLVNrCuZP/pqvq7zCaKoyGWeTts/oceAa7ADLePWkz/DflE+pCU7gi1WnwYdIlPStcM/LRDHgV1XRZxdjZZBXPv92cfwrDSPgLFgj5V3cAB/kexzfwcOfR7hmVwD5xVdIKS/o2pHR0EpVHeyzuEoSPo0gQO8hZreUsYjdDf9Ws310SSr7zw+NRnlnCuo6rzSyLpMnIkd35MqnYhNNlFUfhk1kcHti7Rle6S1aEKj1Nd11SObA9cYAzCgm/NYqnBSS6KwBtfD/VymJRsy5CSHLXc+Dtd/Ki3Pwh2s6ecVB5TxnZVg6oZrSFtO4/pDvskGy2pMciSPFKcQzPIPV6Ahfr4ugUn7o9kwVB99uyBUfsyaet4RS5qXAl35XCYGDKTTDECgUwqNDoYEFJ4D7g/0O/QxhGMK32wQ2Euvlf9piRiD6mKkj2YG/spx5Uyho32R7EyO5i+aalEyb7Be01QzzF/ye30w+0Lgj2nJ9TIj5ShsaLvi0JjzzDdmEIpGrJatT2YlAtm4YQ9SHNAf6UoF4y/QMhiideSbVUJUfhtna5lB68eCKpNilmJRNED+MlVN1pOGMkhKnPA1J2ttlxaWOdNAZJMuZ70NDwxkS8CFGe1/4q2msPFrA/qa5WzDNSFJInwf39Zy6Dv8O3MwFXhKgNpa//vqQkAYVTJ52v9uvVyyiI45N0XkXkp32EYDyjQ1hueb00GbH7Flf1KXX+7OULCWcCJuyNl6x7K9+O1EZQ7sf119BPDwF4IHXIV5e4GiUU1GfN/DqhOKNlR44R5YTOcy95gX7X4MWrqzZqOR61uRPUs5Y4y9hvMyFcrokSTNgqhDhVBjwGlrKF6CcY6bZaDd+cEhToJG+PX7jjeDmCfNX+MhpIe5uBUG7SqeLNsJD2DbdEJqysUQF6VJr5pHtbBA5DMhOS5KXEFk7xEjH3ilXX4f3zccZpgQF1Raub/5KSCgN0z5vvVRNR207JxpBzYQBl8cemlgGigbewhrpRLSfrZorYIe5MnvaL7gqEPffHBzRHkfOnQBgIXn9DdZ0Yt1ZrexySdXV92W7blp3tbFfFpq+2/pZVhG5mn4DN0ey1RDjCkG9qBCY+0EUFfpxI8kNYnFB2pFfY26qLoakDjAJ9ZQax76sTHBFBW0RD8v6J6wFgWV7jFdzCFG+5Phbbmm+TRxa+8oId9rKMt2+eSh0JQMe4a98+iuSXb+r9TPwzvimYRenhMwR9Z1gsmbcRY9DW5L6bEBTAJTXkoh0NuwA/KK33uIhjR/qgwQLSNYMWpTLBSbqV3a0Y5Heyvd25IBzCytxedxdVu9T19baJwKlMAZPRte/OjTVV/GjV4nHQJ0L678M9mM/JoJMZG0iAsyXiza9YOIAswnZ+KxzDFEcCxMpqkaTYQAjaNBMrV0e1zMKGbK8s1f/enfJ9YduJ3OTtJRcDb01Q2yk9x1hx2rGelPgmTVLmX2WuD+UtytcA4dBQmDLxpzbceRDqhg1jRLLEctbfURJdzRNmdZamLBxXLshIvVOMlZ1+vlmAH8y0aQ10NzmHqkuK0Nf0AItP6FXjp9DEL9mf483RSz+Auk8km1Bd26UKSZeOwjr4+8MtjcPFcmWzzNzPN90nr+rw2DcZSpvlGKeo0PFgQVjgPuD/w/8EWEYgDeN9V5nTWAu1408WXKg+IbW3SJ5zzvnrSLOAHb8YkVkljEHQNc9JpJ5qIR+PfBgPaUNEytPtpQdsq9AAxSbLDKKeL/IXIPkelYfvOFrHxRvqNcuq4bZFavJOW4lTzHMUs3aQZqe+/K8sFXPebgI4ZHH+lc515tncyyaE0OIz9MHP4QHOHxIWfAjwupgrXEBqgt7kEr4ncziEug8OtXGXTNCOrdqsVgxmuKh6PKZjK2ECxRwzpi2TCTieJp5zyOyQQnoasak8jAZ0lYVPU5iQdstbGo9DIIA6CzRfzNJBq+zPQmmg0aXtfee3m11gbWdnmeIIRHitaQdYZtrjDgH+5IuMWewimsnAA1OFZZ7uc+AcOE3ghvLn2ZQ+upVDpn9WJVVRcmOkOeakRZ1jRwCbonIJT8LwomEWGBsSO6i4si7paOXOOwRcqwLdKRR8NvWIWmYbpJ6USHZVrckbNRpa8Of8DhbIBdY/gkNbqq2Qj16YAQ0jNPDQwZLRhmDt+ShYks5+Qy053WPschMHIwOT3gnivTRIjIInavuYExcpeLbd71CTuJl8FYM9RVQXi4G80Wcv5+qHN/Sc3KgiK3zCBCZt7tuflYxdjujvCRzSypWRyEH77UOLHOUL3dwdHZpOwAuz/mx/oDqW77RmFZZEgNvasj2EL9h0zFp0xyP268SoI4IcOT3zxUIaXvAFyhY/ELJ5UG64anomO6kGvpJ2vSj8T4g1qNhzrsjsQTur+RlV8I7N/WVU/jyD3QFzoB43eGW51gDh8AJIixCFc68IPAqWFXJavqxcYpEcd57k50oiLaICUc9WxLAacQ89VkpmPLjnT/W2XxJYEhADpd0eGPs2s+Hjx8M+l/FuBgbzxHp2SmNf5g+EMcCgf/c/jGoKGiZ0R+TF1Xq4FNtH2wOG13g6HKksN67VAVNvtNrD6p7Dw7dSWO7sbF+6MSUryhKYiaXrqverqFa1b+11P+26Wk3S+hgrk9gnQkknpVhcMuIJxAnQEUrys530TSwjPOYLekthTdx92/+ToWVRYccdk4uy9X5YhPK/RenRftwwOcKYothma1Qm2WMH99iQjoF7wK4iP9qonfd7lsPFHAvcwDyb29R9uRrNLa4A0TZjQlJULNqQ3sgt6Ip/FAzmAm4++w1ZEUrt8tM1+CCu/MkcZfHuo+oHl5PyvTqU1RhCV4DEjbCg0gHPuRh5vLc7t0KIiFHiF2QJYRfPnWV7qpxk6mkmGCukSqwHQjwVl7B2NgH8/GLU6kEqkSjQ8aBBZ+A+wNgOQgPBJJo0n48ks5IeXH89WYtdBrZMhJg5z+mLAdvm6l1Nf21QPiQkI8fYLxKIm+9lq1xr/z5LL4WoN6JsVidgEPNGkG944DsfLk+hWJwFKiAVrA9euykwOnnWImvWvMXVnDq3uhTFYFTPXVPP/iZHN82jpt0phv5AhRw/85p4JnmLI/aLclR34auImrJTZCRjL9g1NRzoxkG6+EFgrRFn9KCstI6QA+SM60cYRjv5qUZgZ6Cu7+My94XomAFvEs59yNFotfkfHSI83AOEH5bGmb0nuJRr+ROKfJoWXBElo/JckYyY5Aw/tfsgQvjjHAHgNtBHpJSpJKG6cz1m1GYc0pcwXPgHGobMuXlnXZw+NYznMbOPlj85KcZKYctyiz5jdySygNfLT9bJwqEVyFuEdPAz6DLa4oGVRS7wpbYCWEXcWNDkz/Jq1E8d/dqfk6ExxpHnyRpmDSciel9/6Y2kqKkTul9nWO5HgAyhTnwnSAWgfq9KSdUs6HTLUvz1RFW/2o8RhNKEJget3k/CF1eq/+/K2E7dcI/noqvjsMCj87rM4UOd+wPz9OHdPo7nTNqRaPSVKIR9KyMLfpTk+4qSZfe8C3NBoUNe8j7tuW6W6FTIaGndHokxIqBhTT1BeM3YuErRijhmTIS7huB34/o6eAjCAD9eaDC6FWQe1vRsPQpVSM41bd7r48ORa31lDO3RZVLFlzIdYyfKe1V1WXfoCccjl95MqKiHkY9z9UUiYBF2h3QrYItkraPnidCW0W3CQyI12QzWbxe+cS4qh6WFVKaZZgnMzGvVoGq3K2HbIpqSs/5p4uWOcn3S5KDzD7l1gj22ACDCwsQ/5lcbGTvYG0v7CZpgjpmB+S1FJdxxWKKyqpOjoloSbIThC63h9uLsCpSNUcWhdftHsqgyX3158CMNGyfZiGRBRmDNdPdCmH38WVl6A4pqKI49tmvpDKXlQRa5G/adjs7G+qmCjGPdSmCHEEEox1Tgjp9HG9RvOB4+49atbcqlKjy6hg2/4nPRRo7v6utMUW0rr0rNuFAK1fxsdxfC096ypQ4+MSITJPCwuKGZKMRCI3VP+S2wCaNNH/cMSAVDxgMO1HMCNTMxBYjTNs8pzXztRcCnPNKDwCs/gfAIPPN7+heOOz76pNcWICFv8yLAeHx+/arH0tYfqzo+2XSx1vWW8GpSwc1dYTg7CVI7svZPHNGgUNdWBs3aFbVbvvpnaocRdupfqr0uE/3cWD0wO+gbttSTr7WN5/vj74eMskRAtRPkxbds2ajQ8aBBduA+wNgOUpc/AxobSFTualAbKH5wwzFemvbXcUvDY1Zm8kK2CiNqq7FOmstvMSIkfsY5IOOZI9M5M7zk1fjJDCWqGKp4QjUUxX1WXW69LGQ0eNIr393yOACXsUd8qc427oCqcyz1Xl1LXRB89sgEt/Ff0h41iNpbmyhSS4Oh9C8tVqIVlrBYKdj7T5KFzUfm/jfvwM5oaneluo/CozeQ6CtNAYzoVMqMNsUCD94SCemhUc76CKopAdvUzKz6wB2DQdQDvaZsXRnd4hhmVuO+0CVqaJ59uPQwIllM3OvDdCik8LoQwNUNjYWyb4iMLqf8CWi3k/hfQvv7mWiIcqBsP6TxmObie56P0wlv+mUZXNBnuuLAXX5CGZ4HsM+OzdzCJE13rNqbGUA4ECPg/cKjoXUe0lY9FgCPoSKXhbm/lAKEKvhcWEx16Zx+bTPNT5J/+xgVsvW31rvnXUKNMi+r8Fe9MLzPfyNImOvg23z63VXdN0B5mEAJzTPSAyehfG+rV+iEhv8emPKkmikxwDO2KHGorAje9sJ1fi708iyQY8/FjqnGY+JfrfiJgpNYKUeh/TqD4Nu9XIWeIU1pUp60nHvRQBIkuooHUbakolmt16fZb1g7pJzXccPulpxuvd66NqTpX+TBKmPy7q17QxJSViC9oLPHTf9cId4yMWsDVq6uH1+RgdiYKiN/Bta+/IAThoUiDQA2b46mXdq8RNtIn3GzHqE8YB6g7ztcLAKAC6LUHG5Qd504W9qBL75WYuZ68HMsrf5gM0T8ZO/br9jU6KOvHwyYEwqJGlc7Oz2Yln+LIKvfggts9i2KLs6sn5FepJA3T1F2a25cGdPDug2JfNlf2oNYRhP/XY41GzRNi7+/7wvSyYOq0v9pSOPhIRyhAO0UmsAFsZt0Hu90hnQf/Z3aSQUjJrUlkclg2bzsZ4vwAqKRcbmJeCttUW7mp4W1a08Dy1XlmCIAzyNuUVkSsJ+9SZUtgQYIZyOWYgMe+thxh03ZftA+H26NAs2SjTiFdgPa4PLZFuUCN1Vi58P5aIVXGBkkaqhjbXrmvjshQ9VG6wyEAupf0PkyYoF8IPhNg5b26XnYRGXxF/9wbxWFkkiXEuMAzuiBIgvOK3f1jMAxjGQk2Afi/AxmD3tMuYasVUoeA5NMGCq5hs4yHiyoQaou40AosLvc5h1bP/C1lMtXEvKDVyRHCnp1K91qMfrhbkA4RH4YRN3SWz/JQoxqpUO3NZmfANq1cLA5J54F4IXEPYZX6EYQceihPQZBuIbmiGOKGyjQ8aBBheA+wNhDL0Y62xL8E0Yz1mlFMz1U2F+EqShr1X+zoHbmKQTZek2vYgzxJSUsdIfr7pDeEYLPRC6VFTNZMRkCyz7A+jGGNThlG6LgFp91WMzGV4BFPwhK8hyRlmjTKL7QV6Q5TlrGQyjyQCJIYNyCHecR5TnRYpTUVBPlqJIre6ViK5Fs+SRPQlshusSNoKO1vJFIE0NFk/NjLNSzxcXFz4T3UqLBontyzNacDInxbTS4oo8riTJXzm5O5Gf0sZ5X0BefRD5EC33LaptnTlDQFp4VBXz+6Qskv8ajfz9uD6e2FBcaLS2hJYSpKMJk9X9nFwhVvxQwcPxHo1qZsG32e8DFIRbs/m5zj1PpV8NeDTFPj55iKw8Jm3iJ4QdBYtjMiPjPXAQhg4Jc6sd8Jbbw9fDPbcR+RG/AfJj6XsrVhMNhjj/GmEUjVdv7D9opeDQ1wRIe1WB0bv6ryCTWSAb//L9zCXwMahtPn3gtUDIE1hQWmBkj8pzrhcZ10AYbvAO5uB+/4x/VLa+rO/X+6knIqtnIVcnl6YPPExnTFlg3ESatT43gAdIcKmH3G8wx0YBSqoRibvLO0rxnAQd8i/bAt5x8QIUXq74f01YW61/F9tFftZRWFSFFtBTdRiVEMmN+LjQxUO5QiHWbc/oJ+bspg2WYnx2JZ2dqJvb3DbUFTmWCyYmm0+NjqVhLDBFjfLUGrXgGsckRX/x63jPKYbMtzsvsGqMC1LgsBqBPyisdxu3muJ+xC2yzUI2XH2yqeYkPgLhy4ssLTr5WXj7TaAEVs2ms6eUOd3f5pZfWkq8kEfkEwRMkAWDZ0XIsF68Cs2fIublOWDsJy1V+8xAKeUD2siPrvuRYR9h+Gwn90+1d1VF6pmdiFDQo+47NUpVsPBxcARMfCAtlKDmAVP9PtSUKmFmMfn1DdJDeVL1LY17UGn6XjDpeL7EdTGxbqwzN3c3rUUdRtehC09SETFzIN98PtF9TIeAczIdrLlZjfQwvn2J2pnzqbQpODMgnzA1TlprlWCxYXNdawVwQTaB7rp+kZJYEErvb9QQ+nu0qLb3cLIRQ5vYHzhCJKn6KR/saLf8bOnf7nXqB0JL3AzW5JwIkboj1ATD6zkUV85X1W0Tl7GMO2u8tIGXfSTNTJXJi2IbqJQGCBk+l7K7Lg9DBkrWNBLWRn6AFT7+WgywA3i0lQv80ZxKCEBxM56VwQodVM0vcKSuQzwTS9qpegL7yxk6mLXzwqNv6KUb/g4+RPHT+9sLklADQQw4rQAfyupZ9fBni81WAeOjQ8aBBlOA+wNgbF130Bj+HaIo8ZT90HXMoXMFZjIWFx+JvFMB6CfoPwXcyZZ3DjP8yM8aSzDLaHGNMoP9Ptk4n+0sVNIPtM+o+YcY8rK+PYXW/2Meq2bxjPgTRswfH7Y+nxur9LevdWlTPA7ta11hfKewAe3+LJNKAbtXPwnFoQhVhkv7EtZnlbdmxmXXCY++R6dUzXMiryp+WM6xHtlGv+/vwT1fwi4hWmMmyYnGeuqHoQTawsHZGeERUNTBQBkhYJG0LHTU9hpXUS8goJgTvTk+vVVGUdx4hmpjUwTlULTKLkGsE+CfIgq31Kd9qlFlBzgXSw6mNqRG2gOGdxkvWf/KgutRg1wj1zDnk9XhqLpWr4rML9zzizzN8U68tFX64x+amcuD1TlxkgBKEssqI+hoFE4AoWKackGrmzk0qHqz7S1hRtgLVWB4mF1Lt6HX1xHS9GwgsXysUPBbl406XvYZblzpxg2vgSvXLhQjBrsc3kxpScsSjLmZFwdnZFtqaJCiJuRSKgUTn4Fr9kM2xtOLS22GZQ7qmcRtBL+W+YOvChGqiwPJBXxQ4TVlUfZK2TekOV30otvX5ncIO4XBtw7GHATj56ql+MnFZUX+i5DEn4gbMurQdbErQNrhsQcbxVxxRGSBgQOL1F2GuN1Agwql3JnWeci4M6mE9U/VZsmfO020IDEzcV7OTDXgu54+VkvpEI6gqGMf6tK8F1uHWmrdyB7SU1nZWeC2ahwSQnUX+1Kl0jM06hT+5SRwW62H1AUZGteSNpXT3qS6ye5n9d3IunQNNskMqfuOO0U9g69LzwQa73RPK0vhg5/ia2t5qsLmsrC6aD/dgzRznfGFCjLHg5L1lzL2YGxJBkM4W6anGI6hs9hTG77diLooH/A38u3FWyYVvbEvhRvDahXM5tZ8nyF+r/o/cNfgB13ICst5m8R+kMZM2JwuGzvhG7gQv09gFt1f/FFR80nZgmsYBw0sMfsXczXkKYeedHRn8HMhcZLefC80xgUnXc2heXFClbO7xZ6Bx4ppI7z02Mo1d/Gio2BF+eU5QCWL89/okanMZgHqi3kzykBNwz6kfzhQCPDw3KMDZ0jOlIRfQNwQUssoScDbDDboWUxfzzm4Ys/reU/sSa3LdKM8a8ahGd4nlGrlf/RH82R/NR05D1F+YQXxVt++nOJ7TQHDBStoUzGtH8pJ060dHsB0zNNYKDK0jIEGiArSutOSW/sQvogJOXdUcBqln/SFcFxiHqNHX87km7XkRokegvfRH1OKwZ027TM73MXxXRCjQ8aBBo+A+wNhHtg9iZFOPBFAxePZ19BKuTGskJcSlbKDD1ED/9fgZLUYIJVnT9DLR+2/+Pmv84o77Ulut32ufjWGA0Y+3i7tzKv5xsJa8Ay96qoFvNoKqNVJJ7XoZ8OR5T/s20vXeNFjoWCmdcnRWFDC8cU+t2MSXaJKehrzQc8nYUi7CSDphIcifij84KizIJ4HH970I7nZ91zdosAf+k0t7Jd3gpe4yITug1b4rOe0PuZRzd1liNA/cIFuH6Ge4VlAhC90Vb9bL8Aaf5ib8TRJlsNyWa2Y9/mNrB2VJujD3QORO6fOR+Mz7ySUrYLHHzzdwRLRV8vd2hN+cRSXpLOohAO2zdwT7hMZ/tjgua6wU+R1wNpMaojlERtrvxP5erxKMW8iWafuoYti0nayfsxeRhWXNjUQF/uNzCM6PqrVEfWNsmPz92EdGwwNDwLOSSnsYI/LtYbw1netjYf3ivrcFtoJSBNVUzhonEhxFXk6pUaYvpP1q63RmL8NPk+uMMryxboCxKnJaxKa+biwyF3fR7KlkwY7PjW3hnMIbxDSZrHfsrBV0+1fDhoJJ4ZdnF1qpk9twW5/RXfQcd2XOpsKTfPPhHtiB3LRvbFyisLRMZ+4pK/fwstqB5dl4D4FKURs7Vw2yLGD9qX8+NHIlUn4UKIChQX/pXkpnfj7d30HF6Ok87xbhe8ucF2tbFkT+AoRFZH5p+WnOzWZhpVYAt5/mnEIxEnK32P1WAqSorKB5gRQr7QCjB8nE1kDdpOUHsGBb8M9LYMpf1B5BsHQ6bZXeQVTU7j4xRSCdcX6QXXtYfXvAuz9+6PgYRnIlg122ooso9ff5B2K5oaE0BTI+MPEV9ATQvXgYQQgp/O1Go3XpBDZzi6wzkizLvFvhi3iDbRgCvf2hTTmUED+X23v+qz6zbulqsvLTL+G62N4gsdCp2wC/bTu+sCyuCLT+pz+BQwkRlNfCYCD14fr+SR+DbIkbV3FbD7034NTpndPG7GgryxuhIS9xqNilxN1TbeeaTHi+vv7jg5EVaCT3pi34PTQsw6cjrdAwtRiaEx2B1p45DfLyxskK+LvSNPA17TBgBk5NR/aE8FWtZy639FGTX6NPvaNhOjH94M9jSeZ4calZR35lmOVXE6ShFZzuSldfd8Ptx8hfEbYxjo6vGwpwMKQ5eAw/KBVTj+6GhDhqQ8QuDW7W1OpvBqLLhFtADKKFyqbmUObaJeRsSgy8XwJAdqefUKrda+MBOcnUB1eEynam0ggLA05FlIY0oW4Zj2dJeIwBDrFMg6jQ8aBBsuA+wNhFI1ZLL+2U3RKv+U/RURfFGqfcAzDwf5uSc38NCSa1EIMerFAvyPyE3DNf/gDxKia1ykgWYF9hIYa9aZuuODPMVqCt3g9JMyfQmoRhRR+j7GLx9ChEi5Ur9cpkir9aJUZwTPhgTi5HuI6CZMAQetdfHEdW77cBypWeh/gHeq8BKJIt8vTdM0g0NPxYCmJNJpwjzrkZAHsbrRZ7JSamiqQ8EW1kYUra8CCC3LFaX5s4weTpnGvVitn55p3CvLRE5WXppE3JPg1zgZhZ8V00RywKeYlOCc6blObgqpgVDB8YkXaquX1PQpFOEsKAWV1SGQLeOBt0oI7N5Y3mD3tzPEsTWBFbUtvIkdYqMYwjXAxUjDy1+jddnp2sfLXcsMANFGb0OiPBeUczgdG+k44bdQKuSyasdrDM5raHpeFD+Zzg2BIQpGICmSMNb7z3pSgghQoEflxZ26gUT6/rvfx8foOdNtwQ5x0SsqVsjXsbcoxFb+zmGBlj1iARA+X+XjWfm6VHT3aKNTE97xGyn7crllekEo0sr2gs15IDUZYuauK+7+qq99+LbGftCsI4xSr8nLP0pQOFPVv3brklc2s6Z809mgkpdcf0cU8fivEEn1uOL+qmOigxiperCbXIVZYmrUchLxWDCNLveTvySFdFSP5/eXDNn2JAI7R2HUVJ9yzoa5AgCWWHMuaMveTL4ltacHzxn67NRFz47333g3nuoxwqtshD30+rSNx6w3+SV/nwAqTG35GP1xLSBjpV37abbj3nJJE5syApzoCAMnoaZcxZUFt2QuiSNkFZrJEoRjMcAFeaFSzhRDxCdwxkgsjIRkIw0vR2bmduug3JAflCxHhYR3FsEoUL1w/JgNxm+6Mjc5pLxBfsLPmrvDUH/obIHHg3yhzHKm9sb9yK1OG5K/nIKC6fsDIW1nm3IqGvfSmWiqoAZNHi2YaFMpxRXGJDDXWYKY7UCA/TDhSCQbN64xrd4aQGCuPhiosjmNjkLEHTTqVGtu4+rVnS+pUQWRo7+khd7P8rRntfrruocijlaTEv0Tw35kAvpquCDwLTKi1HqZdbHNXZfIW2stQkh3HfnapMUqaT4T5M4cDZbSFriWvFOHZtxUCb0IbySn7VSw73W22qOFsPI+XTT0czlZGYTjzIiODuyxKKDxMvaJzWMS88UPyniCJepVTEPgPnucU0yZSmPAIM1d0uqTU8rsvyyVUvxcyS1jN2Ksb+j32Ztfk+wV9drdArB30Sna6wrfBNvxKmvUVLqNZJ9MoRWPeZ5ejQ8aBBweA+wNhf7PdZ7+SqAYYna1rVkOGmeYYIdJgrcAMEgqs/4o6QMe6An7/GucDGk6BFhRbTHnM132y1JakIkHYrnBiC7cvx8ccEA6zT6uVtgOSrY0qhBgIqcEqw7OrZzKHIqoS5mjdCuThtXL0kHZyzXndmSzdHxIik6WAm9UEsWWwEaFAAg/fOSDP8oHLRcEI2KCNWxkZgS6HdES4N4A8vw3cGzpChDJ/15zazWm9kvcIbRzsVe94+qK872HS23aTEKW8baMcY4gfit/+XIwNdbJGy3G0ZnKNB23U0HenQZjZQgS8szqY3q5zDshxWLEW4hQp4AIo9vdjVR2FPX3AvGn2m2FsDtoCxOnwlYwrXnf4+YALFPjmD8unhiTujbXWEuGIc0jQZE1xY/JuHgqmD3DHflHUFNOiAEsEHa6jBFjuUNGHn2A9WPn9QrPxZ44GUbx/NikxntE9s8RnE6mbot4FYnySRha8+6BJsOQN/Pj7SLBxHPSYUqlNQbtBVtF6o/7X5gyoH9hamOrbwDQy5ng5BkMZgfEO2J1Q3luou//SnXUfWKLocW7VJpWyfgdFGj+VzC/PJd3Xaox0ZEaYqMt8bOkhBnXdxuq03dF91Cd8FX9+msjjiKWTom7E5/5vn3w8giG6W87nNECYUeCqsIkdDTHZ8rMzw8zunbsnP6EfjDyBzNb100YZiB6Dxq06GvQMbtJp2e4wXnPkjcLbAG7vevvUWW9k7c72bGIkS13E81iHBONh4UpSMf/buKUBdpg1SaLfksUYhA2USox5SKZan+VwwBSIBZbAdxy2SyJusHY2fkHNrZfPzjmV5cZFxzaamNyO40dOwn5qGSkhuYaulvwOYEgllexdOrkWWJLc3fdSWv/3uN95TmiCayh/phO6geyWkpwWbMEZCLjzccoFgh1GsxdHjxVxqLuNTGDeBMbVzR1SkOFY+UxeNae0aK2X18FnTYFj1kAN5Bvi7UsD+6PrIQjjeSsvtIOkt5zF5AodGQ/dzjR7+Y0gDz/VSQngajwOZ4OYtLJgbmhuSBihB065G+a7bsNE6xcFYwAol7MI4apIpnciyygv0svGQiVfLTrKQSBd1ijrp07cWzNA2NbvY0dmKWj9eZWdUNzN9K/vIuvttHhmWUL6qqLasb9dC6hPhLHd5Kp0JRXOx0PZXtaf0T1eMc+Hx0zC7z8fGVI344akCFARQDotMuyqkgi4sSqfO2Bp4LFTw8dvkV85C3KQnZnpWMKW89ig7thPsC7CM1vsbjWDRhdJ9iI22P0p2YOjQ8aBB0OA+wNhHb9Rx+rU/+T0G3UQNUZn6sAyl+5gh2vjQoMdzTETE2+j9j0QiQFAb6chVJ8tdcYEw4+sDcAd0IYUwiAWzfLRMEefEevHZOStqKwbQXYvP1u6cMLMvEm5JfzRu4S9eK5aJbMl05KJlBBL2PfMlr2khYsXDdjryCcbOxTxQEz08ZN0CJS9JhLwi+UMoDavbGQpesYyPmJEL55u+7arVUKnxsznIxYoLeBr3unq+xCbHLcpGO5LG8Wqd5gnNUx2cMNP8icJRn/8A4MIg43GlbMeLogu3G+6kQLQG3OCUir2lh0HqqSku6y4aoisDXiJpl6lh+Mdh6WpUtzkBsqa4s9EaTm1K2jXofaPwV/22vOVBM+mgILlnbj0QQBELXFM/HGSMqQU6T4mD+UiN6GOZM25LTeANNpiL4fy4oODRC1c1WBsYqEI/1fiisN4qrP27vv9che6Toh6tEqaYKwAsiL5YcIB3HGLwk9n7hKi+NpU5Wb5ko2G7icoGiYsXttONIMm2rgyQSyuizgKzme20Qh9/lxR+sLfEX0jKj1g7MSsbYR7q43QqqPwNsl5TkQp7GSRtr2ZCyM4tng0h2Zo1MIKlLxfoumFP88usEpYuLGOcsVjrDXOdRqdQstX+lLIKs6p2q4UwRQBCdUOPUTicD4qa6HVHDwMBKCGO3JxxRPrwlW4U8J1CC+Vj9kVjYU6C0vC/fKtSgDkg3N1Ezwl7aiHWWokaa5bFIqGkfcm+NCny034S9NHJtkAUz1M4DySIqToph3Z7OpBMhimgf36QUNaHY6atxZGSYlv8Rb5u48QbrWOHLan+J0BQZ61aHejfPwhELv3WAsaiusCUOQkRbewYR9axAz4q3FxUwysd7OBy6tQcbYd04V6J/Qn4kv0y8g/KVTqzw1yYLbUVy3LrMoBGnmmdupUJr6KTRtvaS5w7Dz9BAHpuNgFdWpIDWjYhZRVXZnkOZKNAZVbmRiCQ4yyZoyiXpPbH3Fn+Aiqk6m+AUOjai6gAvbnU+x7m2EwfSCwy4RQ+4MfoDTwPPstVaCMYQtqK2EzOHsznkh3IRfin4qcJDuNaLAX5VqKUX3/5XAP2NwL8LYP18VHmmBuBKa0gBV7bYDYJ3JMxn34trmGULrsl17/2AhAiqPHaJvdXvTCvcIwRRor9Dj0f5nunx7jwwmSITRbCnvho6WMjzTxXsD3t6zfoGzy967tijTUHaH4K/hg8CFGeEwBjSAzTJhmpJ3v6nkDs5mJqDQQ1s84qd3/dhbByICIBM/buxMVob6jQ8aBB3+A+wNhHeVc9owsTIzNU5bgw92ICxHop9LRxx4l0BZJdj/USvwZj8g6V8rztphcNDyhyGkZcKD1cXpgOL3Iee36S+nbR0zPh1OQ9uoUI9chUhtzgwJ+icjGAmdeH9wcakmkhNKTGqWLwaureu5GPmKglCT1XMQChtRFa4LkRgzvwVtAlkffMnA7qnBXD5859Ga+RTbuJ4iiKjSBZOkKAxUT5Tig+LhUBgc0/gex3NaS7SSxhieYRhM5gjSlsZXRkv37JKJ7m4oacbPxpKFCFc2N0ec5I6pnfdGeMWJMfwuCGcQQ6xjsyUE42y54/uGb0dab9uMxEdle3NiIS2DFug3n2NhbC9Jh9Ly49fbqCLXE/V14StLK9tOjsVD75kfcBzkHZ51bl/tjH5eXp3BU+vUKdTnv2em45v7egeDYJYOpjIGXHWBpUUOy9YZHkcSNfTKp10DfqdEUr8GrrhbLQ69EtzSjK5PUcwHYK3g6ZPI4dPcU6Xsc02CcBo8sgeG2gZQBmRPWxlSHfDyg3zoYNQhyVR4qetDMfcg7P5qS+3R1c/nDWIKQoqN3WFO2f1fkSMN33T0Dvs4WoZn0RdByhi85XTJUaiF4gyBfQ5T7d33WddkiBbe7aTtdcBUCKAal+HczD3MFQnuEUUHsxK6MaG4O228eFbl8+H6kk8AShBiFt53BDrgVPDyHDhX6EDlbDmjsqZps+eLYkSfUaoLhdrsdJmA0q6VWZ2tZEsltR8OU8ipt1XjMDKTMBr8NXSurPmcnheOz4ARUvFt0eigFXDqLtObewkeJXcR/niG31wB3aT7BDX5i5w0w1uMYShAVDSGs45JVxFJqC7pfpsoOH3IKNpSxYRdi5g5ACMKYBGrr05WoOVJ05Rww/ysOlw6Elu2AC9YE+m4gHB+mqQYTIigLc3axrvOFm7lm6IzVqzC6CANFgrTIrtZAKlf+BqA3ux4De1YDWwRCtdaHkUfVev4t7Vr1jG7L3UbN0qcRrGnUHhE8G2lJy4KJ5G/BinMj4ZpkzKThjZWypWjC7S3dYnGqvjonYY0Ja4LYUaxiYK6VLm7Zo0SVv93Kz1sxWOEtjGXFGIn93IAfFEixowqMq5VLLbOHdH9h7gqe35J3HZMemxpevF/5jNt72L+7o7z1pUNKq61pOjllDP8PNEZlB4tZ6cn2f8X7D303CWK1En0b759P3hOeiI0INhFrCTBimpF+MmGFk1sn8W56LM59TU35gZVBGcM/HKayC+z7dKYMQn7b1s8tvOayIaWo+AmbrjNSPlKjQ8aBB7uA+wNhHeDOWNLuvQmMXHmSF2KzL53xIubfzsam3yQTO+0fvs1a+6MweGHckqRJua8Ca+41tN1QMQvoYUUvHeTmy4lNu1olzthhD+2vjzm+3Wv5mR36qgg3rZhoitCiwyIsTJGpMbliqDLqXGx949QgL6U8op1bU7W7W7vkxUnnfws/t4Rny6KxQ4CjzZGOxPzXsbz3VUzLrlbI20YQf0iQcmoSJZdWH+H3TN3g5D0c4KX8QWbVvg+zMf19fkVJjxHU1UrTQs2VmVmckS/Rp/U/MbJuQZ65UTqgqGRG7+jGZ/qHF9v5ATpEey2382en4EwmFthyYbMyhKlGDElflCOe0Ygom96Nl/r7YlJxJmZP4JLskl3yv6A5MgU3sFXPUTePbRCmmFdHQV1H7kG0fqGLsFAobdHwlen0mI4qQ2Ijv6lLrmEYdyex//5eHU80kOWJTfVvbJAm1P6f0EnLznsGhSULRmLNMswmJwiLfSeGfz3sIEnJTH/w4MZLzUL9yNDjdC9yZjk/zdnTizxYqzVderr4QUapI3qxDGHBJ9dBmDkQmnKZgl7chfnaXXkLc8i4QIN/MN+/IRNL6qdeAgr1E0p4Qblh1ePVqxGgPppBdSyU1Jk2ZwznHlaPNmGryyKxi0dtypw8fov3C+N5k//ItPjUYpNiT+NztnqA/wkI+QapVO+A19XeRQOWIBusLREMBiOsyvQ4bItmmVxNFuM9g0eo56JjduQ68Auy/HwsINwUfgvVeqfZ8n3rEPcEOpXQQl7nByRmIud4BUJCT0QMrqlRbwMVKsKjHDpIICKToUL1iD4AaTLMI/bMqpTaFdFH2dR+i3874+yC+vXCAYHgKgBiYGw37O+W1ZQOOKi+3ZeGi8fMDAR2pg4leAG+rXWiiuKn/qbF5y2aUk40UqKJMxkSrvkOhaffqZ/E2pp/XpZBN2j00055qFsvziLpJVH7q/fq1kSDyHRZt/fsOKrd9ZpDgpgyAx+dw9w+pIIiLSG2D+P0IJ22EhqqMTV7SYRdUFjcKG50C+Ji4eJLPF3czx2gplupbFmlnhtQqh16EudCN/dZjRQLluL4i4tANCyJKbhh9I9OvyPkohkbBk9ikodaHNivSmAutMcnhg6RkzyVHhQyPk119MS63Q9rWga0c0Xayd3SkbHOMgoyP4PQw9bt+KGrpvkIUIe0mPrHkbR4C+HdTrt8nv5v2bQoGGoHRBlMXqJEvBwpSpvTOfnB5YoyNEExpUqIokxkJc9RPhmQaUvTYKGOk3S56SDiErGa3/GjQ8aBB/eA+wNhCgjQvG/vY2jYYZtJpUgbYPUFAbUJyiPl7Z9+6xpQJIGMKOLu3YGkY58iK1uutOd/l1dBcdL+2usbKkNoZBFy/9c7cSlYvngsuPSHt7E4VjHE3hoRWFK2nzmEwKiQUhzERKTqD9fbY05Pt9LUmMUv7hAcPOB/ArF9ho7YVYAN/AGebk8jeyewa1UGXQvP3fArBcLE/4fkqBj4MxcbQimEjp8hAUZEjksaDjVCQcxNfRp4Z9XQ0n9jqmrw7tppStfyctYjOOsXTjaKb2R6c4ouXvXr2MYqZjXHrwE/TsclUgrhemJdU25Kt3CrT9dvYLxomUxGMxzT0kjVg2oxktjiBnkFwrY58c25Xg10LwylPN5huWjk91PyhUBP+lAVP4+KvJW76yybCWINIJ7d4dPE/JdZ6WQsIiXsNl0M17dzZmBo1niVR60BV0a3pLbjxHJpqELeQ7glDWWGodXxl9e8ZF/aehEhACLAmTOumCO0KStGwOxnlrhcggLi9AxvUEuKJgNZ2iZ9YLnG4xYCeV8HO25qubaKgneCEuN3Vhb6nLC+nfA7iYZz/AdUOZAoPczT8GK5L3sYavMOsYz/oD46HWv+IuVGdAmsCMqH7fGyqjPs7IiOVKCcaq57knTzty2eXvyQqz2RZdoLwuh1CFVcZMSQV9Alqno8XScKEUMZuXT7mNmxmcCAaNWpJ1wk8SKPKDzZImJsNYeLwD/SviFv3X8g8TC7II7tQak6eCPg7W1Ee+0WbgtYJ3Irta/NEHe/BdAYr5Zf9lo/olt7b3eREfTDfm+Y1EOG5i5ojSO/1ppw51hRvMuHM7CURtMaQGoHbvteMqAakhkwnWUuNFl/YGw24NnVR3Wjyt3I9WGH755K95qKE/3OvyLreZ445GXyjTVD9SwUdlG/sqd4d6hZCa75OfFCVklPAal43bBkEKo7BjFvcnAnFvrX9K4CJhSELH4YUoEvNuojUmCh087slFhZNWKRcY8R8kSAVIM2l++t262UE/ZgkegL4pWq1r4CrlKI5DM/+bxqaMQo7XdHpWd2RieJaUaZV/Ks4PzDt4jVizZgV4OK98UFS03IX3a7R1ymddHVwLFTsgIQPFM7hBIjWzoIzEKCDp/y74+zYfPCkk4pXs+E+JApoJijfEfAEmaMTHyticGYX8gGiix/s6f8etHIDnCYVPB2vUs5NN+1XRJ45YcJc82KqweDnq+CdD11arH3CFG58UBb0q86ZRkHq3XuR0yw86s0faPIgQ90UgL6vccd6zDAze+6o/SjQ8aBCDOA+wNhFv7ZsCMhyoYTut4GH5kQP2fEkgoalPVNDjHFyVowcSfnwovP2rYGhY16AhP5m5lnvUKCv0WGGAprjAgMOroJ/taIT7fWZmrx61N0ORvn5iH10repUMO3XQUczRqPByBqc9SoomKT5/RHF9AvmBiL4x85/SjXzonjBvOBjGFeTTg07ZrdbHjSLqusqeWr1XyHBWhXkKyVcTuholkax1ybeSQuI95E29wy/LZhTihh0sppeu8Sk/o7Rzg8Xgljzcwdb6anpt5il+eYtwrASniZIZsOqV8gCIGXK53673AvkTWyeX9EM2OEKd2DFL2VLAtZ8GNzwKlxgH4+FfTHhT9foY/vC8LE4jG8H8EVUsgrVpQ5KyfZs3YLYUWmK4jFz7ltUWTldSeSOu9KRGPxciuQr/eikdw3C/f/2GwZT0fWMGEfChMG+R1cFwgdWwqeW3ngHaeuoT0dn/+WtB/SPS/QEy0PUY5olOOKMPKOCv3pRe7BTCwmWMdVjMD4HIDdckTj2se4JC3kfC7KY1cn5kyP98u9varT/vREx1VmtegUm2KNBw8YaxBMr6IZMPka1PePrYfbuef/lBy8Qz6dtvogaonSTSjq+9M/8LD9WSf/rjCaUI6eFzLF4kXnbcf9c8Qy8tu0BIG+Lrp8HSWmCjuQkxEP7DNbaLhhzuDPz7jrGreWiCe6oDVq92O+Pem9/CC5TMTA1A08jlwxtFLEKqQ2OUYg6JYeApHWDT2rQ5u9qthl4xTG8xtAM8PO72z+JPHCX+iklPwuWyyKzJQZBsDlQOzfs11GhgSgB4MG6U/wlzasALhyaBijGN9HOS+FHMmZ4Oz2gaijQh8oQFNu6tv8YR3sVAj2JLggdRoBMcB9DxaJHOyrSeNiayIodsVCVhEpJTkYkFSwr6BgBJFq7yD2ZBXfKDQFpPDzipvn//ODvowYPdaYqFIu81J7SGHxGRod4BFaIm5z801X4cLEeafdHhX4i3AQPAnVktq4XGRDZCaOy5DW+mvUZLkoDMLLBoJREVqTyPLd3CMbTUtRREyazW2+cmZvp5iVH+3nA6mx1aYYueW1Vm5+1oCo7QxMYAyeeXaqdjYv3qUqgFm2dADvGCRGrcurYfyyDr0NcvkES36SxZR8kwXNNFu8W0prNFPaWSCK1G8ycwgEXHLzvZLbfVvT5u71a9E4Jw/BJUy0rc7FFNXo7tphXpRcj6ert5SNvtRUuQtdJlRJKpc29L6vt8xjKRnstPfHnrwFgtc7EWwpIrDil19J60YgJWaxn3CjQ8aBCG+A+wNgbEkGTWl94bsH47DSjBauQXL7Awb9/E02d1u3KDdURWWnO+kG0PPvBxfIU3yRKA1rmfr+FaZUa3CG505fV+mNrJfjc0ZVlQYiOVXnJkH/YLknApiYunqxMqseCJm0/dUOgh7O5ZH53ADsQ7YExLt/H5VqxRxUNcd1DgF4hPi3WM0QaclMKc/eg/hwVG8y+VIsJ9/T+fhIosK8Ti1LZrey00MddIYQuq4wcgCdUM8oAdTlzU/dxv6ZNeokrxtiMmpbK7Sw8G25TNOwY3CkEeN+kBRBUX3xBt8XeTd8jSmIFvqNOLYiNwj9NwvqIiuh8UOW92p8LMarXmh0UblcOJ2xJdDvmkJ98Pxa+fIO1zn+/duwL2PqIeLZiEFm4U5MsUJC32E4YulZl7DGqizDnW7r658KLOBZVz4iEl9AzHDo1WEjzr2M00HrAyOP4sfnwcDcAtKwHwJu/y004FDgBidduSluJ87OovHsDwIxAQl81vzXqup2+U7C8yiOm2XW8dh4jdBuzIenR1fk5hdqwp0wgFAtOcdEyr2NuGU8tVBKNpihIwD2CIQFBMrUQcro3vvcWhrfWdOHEzk+qfJDsvxQ7ho643kDl1JRpewCi8T00u4BYLTiE4+sA5p/BvbHTLgiFJSExhY3zyKUpw15BSdJARX8lAq813mt4MCQXRrp/7HDKfEF5woHky6qMPXjr9qtnDIML/74pS+dV5CwDbrRiWdQgLMRZyML6LXQXIJ1DWy19O8QgmPGr8Q5+mtAb3UY8hRA2NSs4VpdGyraOINPEa0mTto5aAV599AXhuu1FA56Sx8nuxRhS4CdCUovSwIUUrHgcTmlLP80E9eVD/lrYQr0TMSjZ4QAodIOlN6fl9q0iS6DTk9Nve4LjBfscG5kRVszEvxdjV6eXkKnw8FCW8HyLtVWL7l0G3HD9H+6MEP1U5GMmBK4CqavzND+QLj/0WMyC2kXG90tUFPm5rHFM+oUFWcBs2DnOTUM8u41Eq8QzuphHU0n88fI+FKe7J2ODKjE3icaV1owWXy9OxTy3cxvs0GuFvVWlZGQQh6w+hOCkH61clrQ24lJM6dU/R1qaz/dzXguHfM7yE9XTR4B5TPhJ1zR3qH9Hmha5aO9A9L5bdINJaJxEif+jJnvXVKwX/X8XK8GMsk3sOE52TgqQOtMA6SI5zS3CEqpQEsQxGiHxFP+Gl14QA1xGVW2J3KKZIGRjcBjiRN2xglKwqEkBRXgTQMsekyufab+Iz7Oik4qBeUUwtKfLmsiQEQLQTKjQ8aBCKuA+wNhCheCvkEfy44rTyAJF4F06Xao5KBn7IGEC9Qg+K48h0MidqW4KW1QHiUXIJYI49ebwQ/A1GxrXAOU0ABD4fp7VVZlZtGapE2PTgS/3dOo1S8RCv6f4jKrO4r/ZsDltcVeDIvv53tRxc6Xo9csI0aDdNH//5eolg5KRTi6fCVKb1LoWUeTs+FKVskR2QpdJ1IDiK188Ldhu/lrJ1NpzdjBXQ4QnDh3W3jDKoAbLpZaVF8C1pHl6+XE92lHPcp/hvyxU8DVEcFyv19yYEYyVVvT0aQFo8ZJiuRK1q1OHLSKMUHqOzq3UVqo1sIgso5oRaiYqEDK6gipRnQbw5VD2rU9F+fcXFoEAfCqc88ogU7Gp+uJq9yitPUo1ehwKm/fzKxjSbK3x9ujeewhgrk8Syqdp+MaRjiYGsE8GHH4KKzxQWA9YRu/NuvzrLKL9+gTYgxQoSP4nA8S9cAFAFymy/0lJc9xwFdSMdkaTNNl2t35LWblhreODRiet0HvGEueQxKtsuFaiaeVDkdHTogBTrvCWSW3Lw+2/HGKUj0RgitoUtBddsG56LQ8/9xMd2E+abJT1YRqG/RPboxZ+WKUkjg7uUte5Kh6oWQmIVqVVql+UVIQvIEUp1Tb4SjWMRqHJbedELaZkT8WxZM4N/KMYG7DSEUhaaRxRL0PWb/br25XlXIhAvJsVWJgGdmXOuWlz8OkqrROIZaKoRkx5dMYMJn0jvUNiiX96Zgon+wjC68VA5VUKWRHW9WLEYRFRW8Iw8cWcGtZUHls3tqWqbqSwch05elsezgo7ugHr8if5zq09qaWWBdHpcTT0AeNmwv3gy5DOLjmDDWzIAVWftzdKMyEWqVQ9SAne2p1LYBUMvd00ONlhbDC8Vp4C3luZ/AkVWKDvljoCqdf7pGZdPCa/eBqc+SgZCv09JO/1mK4oVHH2oWb20GFZakVmBGTo1KfzWfgdlc/Up3nnOXhoFmGsWggVznChfSQtDo5OcQndHKsbs0edyMjN+uOEMt744zJ1f0VdUcVYEzAEGE9IU06FS291MQt0ULRzV2lNq5oj3tq0cG3oRxzDkmBEYI7+uOvmlt/wjC8HAGAA7YJ+KqAQe7O8vMIA8TPgl7/IL/FyMvvZwcfU5MxCfDHuFmvKB1HKjzbvoBzUxGPggEbqy8PzRgL5wWiOq+KTrTeHZ8zbnE7vgfT54x1+dZoWfdQXrHjxbdTZYp0lVbdHy6dQBS5Hmow8hiHcqBLjQ0aElZGES7sYxQja3WMswCHSOlGf02KyfU=","1"
"","","","","","image-button-response","50","206958","0.0-10.0-0.0","fkxadncd7dq2df4","fkxadncd7dq2df4-2024-02-16-03-40-11","null","","","images/schemes/restaurant_scheme/restaurant_6.png","null",""
"","","","","","image-button-response","51","207996","0.0-10.0-1.0","fkxadncd7dq2df4","fkxadncd7dq2df4-2024-02-16-03-40-11","1037","","","images/schemes/restaurant_scheme/restaurant_6.png","1",""
"","","","","","image-button-response","52","209804","0.0-10.0-2.0","fkxadncd7dq2df4","fkxadncd7dq2df4-2024-02-16-03-40-11","null","","","[]","null",""
"","","","","","image-button-response","53","214317","0.0-10.0-0.1","fkxadncd7dq2df4","fkxadncd7dq2df4-2024-02-16-03-40-11","null","","","images/schemes/restaurant_scheme/restaurant_10.png","null",""
"","","","","","image-button-response","54","216136","0.0-10.0-1.1","fkxadncd7dq2df4","fkxadncd7dq2df4-2024-02-16-03-40-11","1818","","","images/schemes/restaurant_scheme/restaurant_10.png","0",""
"","","","","","image-button-response","55","217944","0.0-10.0-2.1","fkxadncd7dq2df4","fkxadncd7dq2df4-2024-02-16-03-40-11","null","","","[]","null",""
"","","","","","image-button-response","56","222448","0.0-10.0-0.2","fkxadncd7dq2df4","fkxadncd7dq2df4-2024-02-16-03-40-11","null","","","images/schemes/restaurant_scheme/restaurant_7.png","null",""
"","","","","","image-button-response","57","223234","0.0-10.0-1.2","fkxadncd7dq2df4","fkxadncd7dq2df4-2024-02-16-03-40-11","786","","","images/schemes/restaurant_scheme/restaurant_7.png","1",""
"","","","","","image-button-response","58","225045","0.0-10.0-2.2","fkxadncd7dq2df4","fkxadncd7dq2df4-2024-02-16-03-40-11","null","","","[]","null",""
"","","","","","image-button-response","59","229557","0.0-10.0-0.3","fkxadncd7dq2df4","fkxadncd7dq2df4-2024-02-16-03-40-11","null","","","images/schemes/restaurant_scheme/restaurant_5.png","null",""
"","","","","","image-button-response","60","230309","0.0-10.0-1.3","fkxadncd7dq2df4","fkxadncd7dq2df4-2024-02-16-03-40-11","751","","","images/schemes/restaurant_scheme/restaurant_5.png","0",""
"","","","","","image-button-response","61","232117","0.0-10.0-2.3","fkxadncd7dq2df4","fkxadncd7dq2df4-2024-02-16-03-40-11","null","","","[]","null",""
"","","","","","image-button-response","62","236627","0.0-10.0-0.4","fkxadncd7dq2df4","fkxadncd7dq2df4-2024-02-16-03-40-11","null","","","images/schemes/restaurant_scheme/restaurant_3.png","null",""
"","","","","","image-button-response","63","238036","0.0-10.0-1.4","fkxadncd7dq2df4","fkxadncd7dq2df4-2024-02-16-03-40-11","1407","","","images/schemes/restaurant_scheme/restaurant_3.png","1",""
"","","","","","image-button-response","64","239841","0.0-10.0-2.4","fkxadncd7dq2df4","fkxadncd7dq2df4-2024-02-16-03-40-11","null","","","[]","null",""
"","","","","","image-button-response","65","244346","0.0-10.0-0.5","fkxadncd7dq2df4","fkxadncd7dq2df4-2024-02-16-03-40-11","null","","","images/schemes/restaurant_scheme/restaurant_1.png","null",""
"","","","","","image-button-response","66","245219","0.0-10.0-1.5","fkxadncd7dq2df4","fkxadncd7dq2df4-2024-02-16-03-40-11","871","","","images/schemes/restaurant_scheme/restaurant_1.png","1",""
"","","","","","image-button-response","67","247026","0.0-10.0-2.5","fkxadncd7dq2df4","fkxadncd7dq2df4-2024-02-16-03-40-11","null","","","[]","null",""
"","","","","","image-button-response","68","251531","0.0-10.0-0.6","fkxadncd7dq2df4","fkxadncd7dq2df4-2024-02-16-03-40-11","null","","","images/schemes/restaurant_scheme/restaurant_2.png","null",""
"","","","","","image-button-response","69","252376","0.0-10.0-1.6","fkxadncd7dq2df4","fkxadncd7dq2df4-2024-02-16-03-40-11","844","","","images/schemes/restaurant_scheme/restaurant_2.png","1",""
"","","","","","image-button-response","70","254188","0.0-10.0-2.6","fkxadncd7dq2df4","fkxadncd7dq2df4-2024-02-16-03-40-11","null","","","[]","null",""
"","","","","","image-button-response","71","258689","0.0-10.0-0.7","fkxadncd7dq2df4","fkxadncd7dq2df4-2024-02-16-03-40-11","null","","","images/schemes/restaurant_scheme/restaurant_8.png","null",""
"","","","","","image-button-response","72","259674","0.0-10.0-1.7","fkxadncd7dq2df4","fkxadncd7dq2df4-2024-02-16-03-40-11","984","","","images/schemes/restaurant_scheme/restaurant_8.png","1",""
"","","","","","image-button-response","73","261486","0.0-10.0-2.7","fkxadncd7dq2df4","fkxadncd7dq2df4-2024-02-16-03-40-11","null","","","[]","null",""
"","","","","","image-button-response","74","265998","0.0-10.0-0.8","fkxadncd7dq2df4","fkxadncd7dq2df4-2024-02-16-03-40-11","null","","","images/schemes/restaurant_scheme/restaurant_4.png","null",""
"","","","","","image-button-response","75","266758","0.0-10.0-1.8","fkxadncd7dq2df4","fkxadncd7dq2df4-2024-02-16-03-40-11","759","","","images/schemes/restaurant_scheme/restaurant_4.png","0",""
"","","","","","image-button-response","76","268564","0.0-10.0-2.8","fkxadncd7dq2df4","fkxadncd7dq2df4-2024-02-16-03-40-11","null","","","[]","null",""
"","","","","","image-button-response","77","273074","0.0-10.0-0.9","fkxadncd7dq2df4","fkxadncd7dq2df4-2024-02-16-03-40-11","null","","","images/schemes/restaurant_scheme/restaurant_9.png","null",""
"","","","","","image-button-response","78","273770","0.0-10.0-1.9","fkxadncd7dq2df4","fkxadncd7dq2df4-2024-02-16-03-40-11","695","","","images/schemes/restaurant_scheme/restaurant_9.png","0",""
"","","","","","image-button-response","79","275582","0.0-10.0-2.9","fkxadncd7dq2df4","fkxadncd7dq2df4-2024-02-16-03-40-11","null","","","[]","null",""
"","","","","","html-audio-response","80","302796","0.0-11.0","fkxadncd7dq2df4","fkxadncd7dq2df4-2024-02-16-03-40-11","1238","","","<span style=""color: red; font-size: 24px""> NOW RECORDING</span>
