"success","timeout","failed_images","failed_audio","failed_video","trial_type","trial_index","time_elapsed","internal_node_id","subject","audio_id","rt","device_id","view_history","stimulus","response","estimated_stimulus_onset"
"true","false","[]","[]","[]","preload","0","2835","0.0-0.0","gy23kzkewxnhujw","gy23kzkewxnhujw-2024-03-20-17-10-15","","","","","",""
"true","","","","","fullscreen","1","5571","0.0-1.0","gy23kzkewxnhujw","gy23kzkewxnhujw-2024-03-20-17-10-15","1733","","","","",""
"","","","","","initialize-microphone","2","15226","0.0-2.0","gy23kzkewxnhujw","gy23kzkewxnhujw-2024-03-20-17-10-15","","cf1a6597ddc5fe4ded40b5305f531f4ca2f0ab793fe50f6d71ecca3a72598fc2","","","",""
"","","","","","instructions","3","21969","0.0-3.0","gy23kzkewxnhujw","gy23kzkewxnhujw-2024-03-20-17-10-15","6743","","[{""page_index"":0,""viewing_time"":1193},{""page_index"":1,""viewing_time"":5550}]","","",""
"","","","","","image-button-response","4","26474","0.0-4.0-0.0","gy23kzkewxnhujw","gy23kzkewxnhujw-2024-03-20-17-10-15","null","","","images/instructions/movie_1.png","null",""
"","","","","","image-button-response","5","29103","0.0-4.0-1.0","gy23kzkewxnhujw","gy23kzkewxnhujw-2024-03-20-17-10-15","2627","","","images/instructions/movie_1.png","1",""
"","","","","","image-button-response","6","30906","0.0-4.0-2.0","gy23kzkewxnhujw","gy23kzkewxnhujw-2024-03-20-17-10-15","null","","","[]","null",""
"","","","","","image-button-response","7","35409","0.0-4.0-0.1","gy23kzkewxnhujw","gy23kzkewxnhujw-2024-03-20-17-10-15","null","","","images/instructions/movie_2.png","null",""
"","","","","","image-button-response","8","36621","0.0-4.0-1.1","gy23kzkewxnhujw","gy23kzkewxnhujw-2024-03-20-17-10-15","1210","","","images/instructions/movie_2.png","0",""
"","","","","","image-button-response","9","38424","0.0-4.0-2.1","gy23kzkewxnhujw","gy23kzkewxnhujw-2024-03-20-17-10-15","null","","","[]","null",""
"","","","","","image-button-response","10","42928","0.0-4.0-0.2","gy23kzkewxnhujw","gy23kzkewxnhujw-2024-03-20-17-10-15","null","","","images/instructions/movie_3.png","null",""
"","","","","","image-button-response","11","44754","0.0-4.0-1.2","gy23kzkewxnhujw","gy23kzkewxnhujw-2024-03-20-17-10-15","1824","","","images/instructions/movie_3.png","0",""
"","","","","","image-button-response","12","46557","0.0-4.0-2.2","gy23kzkewxnhujw","gy23kzkewxnhujw-2024-03-20-17-10-15","null","","","[]","null",""
"","","","","","image-button-response","13","51059","0.0-4.0-0.3","gy23kzkewxnhujw","gy23kzkewxnhujw-2024-03-20-17-10-15","null","","","images/instructions/movie_4.png","null",""
"","","","","","image-button-response","14","51719","0.0-4.0-1.3","gy23kzkewxnhujw","gy23kzkewxnhujw-2024-03-20-17-10-15","658","","","images/instructions/movie_4.png","0",""
"","","","","","image-button-response","15","53522","0.0-4.0-2.3","gy23kzkewxnhujw","gy23kzkewxnhujw-2024-03-20-17-10-15","null","","","[]","null",""
"","","","","","instructions","16","60569","0.0-5.0","gy23kzkewxnhujw","gy23kzkewxnhujw-2024-03-20-17-10-15","7046","","[{""page_index"":0,""viewing_time"":6096},{""page_index"":1,""viewing_time"":949}]","","",""
"","","","","","html-audio-response","17","214420","0.0-6.0","gy23kzkewxnhujw","gy23kzkewxnhujw-2024-03-20-17-10-15","1697","","","<span style=""color: red; font-size: 24px""> NOW RECORDING</span>
        <p>Please say out loud the list of the actions you saw. The actions can be said in any order.</p>","GkXfo59ChoEBQveBAULygQRC84EIQoKEd2VibUKHgQRChYECGFOAZwH/////////FUmpZpkq17GDD0JATYCGQ2hyb21lV0GGQ2hyb21lFlSua7+uvdeBAXPFh75Gpb3JY2GDgQKGhkFfT1BVU2Oik09wdXNIZWFkAQEAAIC7AAAAAADhjbWERzuAAJ+BAWJkgSAfQ7Z1Af/////////ngQCjRJmBAACA+4P+P/4Je8cQLV6rqmuh88iq7CwqytssjEoYx5MU4CnA03+SMBGO0UIRKZ7cY4noLKrBxxom3wMTC67RKQRk3Wg3nhtloFQhNFdhs2QCAXK1bZVS8MslKhZWOUpqCdSegKe6/vYyjYxj5Xehtxm1Jza7yR7E1ft9/KYprrfmqC6VgKRWNT/5WMzo2kN5emq7+nDws4QskD8HJQc8CXkTVSHcrQPMhe66ecWnO/7uWaogQyDDf9/bZS8bK+7ApQkFZfGO3eXeBf+lpwwxkk+P44S+6sb7vBHiZyIHaQTOSwP23SPNfRJQLHwPTyFaOxNJFQsM9UAuGfe1eg5ZQgAAAAAAA9X5d5m1On5m24Fla1KIr/Z0sI/hfeaVkIEAOyNEeObKsC9yxMTa2C4YPMTa3OPDthbhXqgcRaPuMUGMwI5TbzUstk9TBREhXi1VSnCP2avh6EduEGYQtHif1iHOC5T25dHN7FJc70rb1fu5Ox1xsiqcMCwdjKjJ80b9jZ1I4EG8PdFIqNLBOzHe/wUhdMJr7ZUnhY6XIdbw0U9zij/UQ4o8z0xA01iggjuJ0o10Gc5Eis9dLrFGrwdM0j7vShPhWw0oUa738h/kljFbyt51b0iwKfw0g+bnDZlpYQjXtHE1tZMbi1Xwr3HPQ4S5Cyf1U3zLxLBUbcZOLUkz15BbRJuLcLdsLo2mGd9ptu4TPWvgIOJupr8ZrbojPQC+q5mgXDaeT5rlunfVeMtsP3jR234+a4NKHOHvJExrV/QoFfSI4ge/0JljSqLgtwBZL6d/H3wltKuny6Qs/Pxc666ym+711R0HzGID0X3bAuDeb6FATEtsb47WOEQuMVaCQrmeHDx6uXPEtu2wFwqB4Lr5PI+JJ4kpnBOjVwHV+0QUS2NoHN2jiZFsteA9a5DQPTubTC3rSQpryxRFvtfAqBJMXgVyXakweZCLqrsNwbj4S04wNvRaFQBXmss4ag3yYnzM5iynbper/kPpbQgo1Hm11d+nGE1AQ8hiYBm4N2RhqGrvJV3KXub/Wt38ZZxJ60lSmOjloNiSdRxXbeK4QTJ+0H8o93G4k6ECpx7yJPUkz3oQ2IJSMy61OzhBMPS0CvZDqxWtBlnxOReUf10QShP3XkkcTC93hOehvMCC0HDLMJt75sYpe23ih4RMd0Rek5t+b61Y34oo9+AHogyv8iIvccAOleuUgAdbudN4ZNodFNrzOjhFUhumL8xV85yvJM4veG23wnA5BtsCbFybxbhv6QIy/GuSbGVT1KkOU/08mNvi51a7bQ7YOF/3ar5MK/G3k2b9PqNGicK2baP2KX2K+31LFiAocU9Cnf8XpLURTbBgnXqf6lcAXGaaWFvfAEBQ23JCUpcRtHXbASMu3wXDE+1pkhZ/0Bgpsvx8Q4WU9L5tT7naoeGak1M+ywtYgNbZj5Dxs+UUQyssiNT0KB5IapZvEvsy3LOQXBznIIHqKOp4NrTO6JXALQf1LRclO2KiDcAOXt2MZzlJMlF8cKDHf1dGvE8QZGyt3Sp1/drfx58xprNI55wIy2jXxYe2LfCYT71Uo0NygQA8gPuD/wn+CT8LkiqnbdrLjWqP0IKmJ4IWtwxzmSoTH3sh1UC4gszXmucx1gJFR3LUWKuuya3EQBRt5zYu3CDJsMHGZ8bwsXOiAL9tjBOKXtX6ujblVA7+JvkDTVZfe0YhJKMCYtxnhswcmwcWili6AxQ9wXX9wMSr9ca7BQpqh6WlgXnhsXxLZ0pCfiClDRatUhqGFVPnrOfpu85+kYICO5Bp1dmjOmB6VvIZt4EHI4/cGPKSMPyJCRfZXTWvVOTTdSS7VbYgsI8Rs36UXzK0vJgUEJmFEHeLeJ8gYCTctAT87pJb85aiN2ZaoLpsQQePNI4UnmIFUo+ORrdciUUOL3V2mmJ3ByGFCypiybnyjCEhQKIbczlQMUd2CCLZcIdwOevELsMlIiVlK1ltdXR6daFBMWyjcxfG4Pbwu7E6xZjuG0ySxf/gVZqqiYumR76lqK6ci9JHyhQAhZnpOEFiqSZY9pSoeYKePeKiRKlm+KiWo9Two6Evu4ryXb4pwWZYzgh8slyH6vQIdBJR1+pncssvmCNl8/KWcNXQCex9yOn3WdVB8VY/YNvZEAb4cLXXLA5VuqRzrfhabzwkz/QvRjmUvYmmBkQRx0nbgW8KM5Klut5J+rUfXprxZb/deJwlYzrrHcEY14b+BT8zExMXDbi8J0KPieFVR6S9Cprub9scwnibRkmwPZ6RZWH1IDgjJzH0tL1Wx69RNsq09gagfxAbhjzMZnQvkkZTCyvileLE27jGQdfc4E9kHwGP3F6ewUjGAmLCjp16AGovXjRaQMkKBY6Cc0OYSnBtnbSkAflFiZSiQLdblpViSMxmIoTcRXvOps/6260XvRk6HG0v/kdrl76I4rmJF8qRCtdNXL+Geuh9Wx06XtIPyl0ttn85fMAwPC7hq3kRwjBSNBr/ykdyyueC2+K5qmp+ra2pMLkL+pTBZk7KeIRDtSEFSb3YZUhGRXH11S1g2Hw1h2Pidopx5KLCWsaSaZjOZ9EKoAGAB9z0sOjvCnGa8yv1w0E+CX1Qfnd1kes1iWvlHlHZiQzXo/ia97Gnpl+llhZQ4YJtXGQMBLbZ1zeTDxXnlLrOlrSPbJCrUeVLM3TR0ikeW5S/FGfNtDe07hIhcglsKiXQ0KCDNJMhOLYRukJXapHWP++Qlbx2IYfhiQ8FO8hDo0STgQB4gPuD/wr+PVqlFFYpyiPmwUvvu49Sz8dHTXmSVCTXeNNdPjmDPte0ExbcvQ3Mam/uxtTxOH6SJC8anb2w2W5RMB013OT7yCDOpLnQD5DFB6/Jb5BIuBGI03YBJoyhIPKZAl0r1ydhc70LaXZmd6zbQ0dhOBNqaFTc8pNBJ4xURpN00WhYPEUPT02qxyUWTnAJ/FLv5iUnj+q7JnHkMiGt5AgIf0ocFu9lvpV7fDpYaUKzABjYfiCdF9V0IjrdhvNJCXqrp7lZBnMe3Rvdxp5YMLk5ZKqa+9mj/4ttvsHJbYU1DRstDNeOPcPwmOBvxsUSA5VYjn2NfM/sjbx6SdiapdujNg1qI4mpIqaD6O0FDj4ZdmtNAF1bwKX4zF9CwKmNYhr4MuKBOpThJnS/G4Z7n8Znr+BftOFjHKaUdi/bOsgSgFuVOJUgVrTcQHWJyLVkMPTt0OOi1UrvAo1y/N91SUrggV5LNDfruVVmY+Q5sHLOk5b0G2Np1S3uYXqRWJzr8HEvismEZ9g8sIPfEXU8K8MT5yk5H+kUHoCa39UUxNM6BsBsdSDm8XI36fDe7QVjLBMc1bVrtrn3OB6r4pP2JnFzCXVVBxwxNEDW89hlSDajRlASj41eb0IQaYYlkkSkZTZJvFDbdbwv89VBbvFj4OXxo+RfWWu6iFHKo2Vsts6qI1CEXcyldPqrV3yAVc00MG3705uBogkZAKG55uZLm/rfgv0dDjgYScPkez7KhqeAZ+aXj5tjLM2KHudBdeQiHE7mivO7uKWaicbA6prMG+67nA/y813WoDgfpzQlSgsehRK82CF6TRGwDoyr7+trCByn/hJX7R2ccz7/fmEmNVfnES+OmOVFn9Mc242TV65p+gyVJxiIM/oYQbBPN7/8IEWgFVzIGC1NmFZeilZKQW1VIziIbFr1WIC0ikyxgEipN6TYXNBZoKN/veOuB+XrDdHdVcP9DurL6p23DTUBteK/RUaSccY5HFYl+d5s6saJ7VvDRKIbnzX/q9WRXQ9TEOItKU/YCoANK0aebmTFzLyTGCkhv3Hiq7YnYshNyrx7kF+xNeR+L4C/zNT0oVktpcGu2QoHf66Bt7JFjL8FnMLG7wlPx6EgE5KrQtKGCysMFp8f80rRey311T8Wz+pPO9PhTvVAnZshjlXWSZwm4wcczQo8c7beloiCuplcCrM2jg8nL7/5iqzDy33UlZ1e1iYp9GOf8OYP8gTcYy3Qa9PLaQL/3Lj9TvOnAG/CZargT7f/k3ibySB1e9VGafgAnzBBjI2yqKkGhtw/mMiH6hDSeuBRqLzBQvJLkDsF9/Ehoee7rC+xEO2g23POKx+f90dRNNuW47E/wJbnsIq6IxkcJFEwiad54qPYvp2Kj1ldCzWyp6pfKXoev47bIPqUajBuhik641AI8rs9Ca5uMD3Mspuy32adjSIUrpTKRfUy84Mz6COb/wEQip4dej9I5bT7J1cBc3ME/hAMsK/XcHo/xUqtSwOGXD3P+PFOFXOci4NJkD5UYgjwIYHpOpqpYsAC4Zr0kfVQmNyGqK0bbKNDQIEAtID7g/8H/wVeSdVkUEJq1V1YDiBW/mbHtK/LM3Dqch6VBKHCGi+tUelAAxBuefc5B2ijcj8FyYPd/P8aLaljVKkyrpynKr2muzxy6/HRl4y9SI6jEY9eMhQXF+xSW6miAT2dYhMMtkLEGv+M2YZhRprKLN/yE+Lsyy6Rp7GNQ+TQaEMrYbMJ9ZVhAXE0T6qoHqqn083IRkMFH3eg4gVGn0P0hoGlwDtK++JyGxQlLot3z1Qhmlt6i68PrJJaDwXIa0/LHJqyeZGmCeImpyUvsqabmu2hAAlJUu6WLxGkd/LxF+2c55GFRUue/0tk9RXsHligzmxsT0HNnPpHj9LmKnvaw1iJgn40wTptOTOZotrX2HCFice9LIJikCCDOz4Z93wGWkBpuSUxCs1q76+MTyLbCHzGcGiAMbMN9Gdw43mpM34kq91qYZTwPs3aMDEWC3dYC66BXZe3k92HSlDmRiDtPm7S7PXP/kv5OqZT+r/0oeH9BUdLwSfwmx2Ia7sOQK26rQ9M64wLvdvQP6q5T3VVDcNjTGUKiJMu1GSn1SwEw6PTkih7gFzULP2n+vL2xaUMI4rz8jd79ZGbMbhr6/kQncYb6vtCDa8t97kKW9yn2rWMOWh45txar1ZCKTbogcMZbDLKmwz78SRYvrpTFLk9/NETKyq7otYSF3qlWhG5fHTKDv1kbzXuYJryKbQASEpgIez/2Vmm5FShAfesXlPplsB6ecSSs81fQJpdeWvelDpXSkNadvQ1qXiJhMnpsNTJSPJF42/Oq365Wi1o1T7SFeiqWYZcKNDKXLY5/Lh4HNCmXeMwSdkAVxd0wkX9/2UG73HQGyAXFpgFboJCGEU3dioZIYwFfEXOliZYHI5Fy9HbT/443h29qFTatVBjUJ/Vir/ep6vwNhj4HvOGrwsFCk/1v6vgrXUBtajEsr7A2I4rYgJa7SUb9/ZcpARNzNaNGjt6iJe90EAibvXSzBapveK2MIZ+LawY6AfReAxWFudKjPYvoEzXXd5qlgN4sxI4crO3jPTW1TjsdyYed0r2sc/TMP3N9D79LI8OZAB1fKiEKgqqdxw1te9ZGpFLG0RV6et0KDffUu5JvSSjQzGBAPCA+4P8A/0FWmuacCG3kU8/MX7owjZ004F8tydHzlMJmUkyQZ32fxmkf+6VOj1iyRRBS28XGEBWxBnoot6bINF5j/4U4uuJhgGQ/dCnzsXSybhruJnLNasqBsXJq2LlNG2+kRoGHxaf/IWSHkH4AvzLTPB9KinM+Tn0NDLUlPmFbep+JJ5GVKBIWkBXodQFqNml64RpDpn/PC6FHALUGUU/dswvNibNai0SU+UEK9aFdtkjJyUUEdnex4aFjnpxYaYrZpY8PK5jSHdjoUBALhearDNdc9CsD/RQKq+2OlewrRbuBWGtoGlCn/6cuI/RMsCaJIF6xFcoH+N8JEZU93qZzq8ncLYjbSM5hKU6IqB5bxdFAYonVukBX9vAxiW/eVrcrk9s2OinUaw35NxdACMMP/LM+CFo3zqWKglb4kwwbRcXHBilZof91FMHjP9N1S50nDX+TmkYfk71m9ghuni6s7n7B2HhWQ9QFf8C0Jytc0bph3nKxCpgzJzhzd/b0ZcSJHoFHNMT5zb83XtEVkmKq4StlDrHv/mJohwPho+FfSaCETGhMJ4jw3BWmg22B3UyuSH0SFV6iLoYelNARun0ULSm65svVqd4m4DS5wl8IeIGv9sve4lj9qsTKs7QAiZoHa74oSkI5qFtV6O7aOSg+iuVAL+5yIEu/usws6WtKNBa1v+VV95d/IAYHmwmqmUUIb83i1TKrvB9vKEcgi8/W04z/2+9P2s3sI5U7qGdM8ATEpj9D9mHhirjmx6KrWRgxgg54WcM+5KeyWpK8ThavMnUSXIxRNn79uTU0kxrpv8nP8iI7uNuGjmglVPyuK9j2k5qPM7a7TXfqeDImMoDtGbY2Ew1SbPvCl8nP0YhLESZe89eBgbXdFJffYLibUEldDhe9s+RIK+0FtCkrdnVKLFcD9s23S9Poz6+995Ny2eRQJPaLWi/jeTQpn+5ZXREnWs+wOyglbQVAJU9si1MjTYthonNtfOoHvwYwzWHRZ2WK9KqYudHDLcL3Y41Vdm6K2CVVtiozuLsmGVBmYWJ8CTOGwR7/MshJTtO4ioWBlXQxKXphvoq83eYlw1ho0OtgQEsgPuD/wn8EV5X7XO/hMqVmXPg5OdXrLY6SRnlMIEoZAIN1RvBON+ZmC9ClrXLiRZJIxcFWbBcLJHKaP8KJDi7Z0bAOfaaUsFwRrFetsvOAWRnmFdZARg9SbKUxXj0LxGiVIPxEwk6tRoSuU5VUM6lA5dnD6M9gh6hEYwMN7EdEqfEn4MM8HxWKYL8E1K1X31SJKvsb73GslacYI88oNo0Okje7uFfYZORWnxtakKDTcmGAiyq0m26tAQXOWjsPVZ42yNO3YX8a3p64AzjpnEMFHQR9BQBvV5UJDUAHvFhJBlUdCzI558RHOOAo7CoTM9+M1Nk7zX41OeKgqXjNpjC43n/I7FYY4P29trXRwzvEBo47XQGspqGy5WREE6jSB6y3WDrvjvNZsQhfls/xonfJYX2LsV3fEJyjL2WQKyTJWMde+T8BVmXQIMzrECc2ZTPcWUNx5EflHQ4xqqNzqkNzP+rrTiipxzxcWvQuoEM1Lz9pVGtpiRr0I8H7TogQw9ZmfPIB03LFgQYKmMIr0Oo4NPsmz3ImaY7hDevycO0aihYd7hscapDiYhQxgJDxC6Igy7/gNq9rlM03iBWcCJhDsxrAi0NeXVDttajZneBWS9AeIc5XKN/UY7qGAtQIX/xqGQAyI0MkSZGatPzdaAcO935eMVa8Y5TvjjbLLX91uovWNxVeOKSmHWgasvy+9i2hzmBRmz+faOGZUBeNgTPtTJu8U3A2iDYmhPAfYYqa767WgOmVBZ61suHlmu/hBwxu7TvNiwWEsI14PJvbr3ZH9Cn7Ba6VDVFAA+2E6TA/m/6ONvYVAhrb0xyWqUcY4eD51bVJS/CvZumW1YoeHum2BBIARARswu4e9OkRXszbu+MllWBbtXEIpFNeVY1vtHq18x1ARgRScPx2WrAuPkPJNrccAAOkEcRNjdLDePYPAup0FDe88cLfNWcRAijuwPEGeCJMLDKyTdyL0dEEnT0SBJMVg3Qb6ppgSZXjt5itv8opcKhIHdi0oBHot2yukUgguO+/wyUJ/5tHF/1SwtgIAS65ZmwAkkMdS1abtq6xQQGhoLld2pwvg7P04ttWnq3DqKqabg1W7Oc0fcOJntM9zcRR4sa78WjBdRHQCf9TnNDxLeUNzGoAsfSVpikoZicFr7T+RxMEUau4NC1C2T13IwvMZ8SiClwMNzAIEgxHHcduHhFTt9msc/o2Wu3biFlOcdSmE9kugurMbsWt9KB6z9e8mRSDfG+f4SjQ8aBAWiA+wNamjxTuLzV4gT0t/oWxCSofmqkMjs/NLlTQ2bLqxjfKewH6LwvCLpGZc2V2b8GnM7eDzOBtTzrmR+wbf+0W5eneRpo3VG5n35LqzKpbasPaXJ/hjv1ehmHnPjgicWPmr0gTe1TV9iEdb+VV9/hx8hq4OzJZ0M2ucH9b3MXFzEWwgBSFOyMBRA7J8g4NlUrKE7tamLXVmRPyEYK8s24cb/+qBbBtRjUXO0dwLg5b2Z5vevyF+OqBQvHjPxpEH59rTB2C+QV4RqMbU2r+l+SYdbi4Us5qvfUj/w8XDJJ4YI00N6L0hvgpiaOmYTMOF9D5itsbN3dKHHkoVTLXURSQ/w8RddRqLdFtvAFJR30BgEBt+5XPpYbOe1+sYr3soufXsXSy/YOx9DzQk4V1sp3RUt3JCP7Uh4h8mTloXYHBrw9HlqdZQ3cXhBJfVATs6IEg47lhs92vX/dPTb3HcioYvNpugH17jD83LomTh7fgbtzqajTxWjOjN31E2HFQPYgaCUXZbxs5se7wnILKAdu+rsemtjHlGXzjukhtcxaBUpjKGytKCRRZt7kfrvFAyMlGdgErhAi8AI4M0SoXNrbrbbceqiw0+N6OXa/vUHoLk9OQlfqh7nkToWV5XEFyO2G4NClylZoQ1VhbGdlZJwXynvLhY5ClB2nPRlYMTzy5v7xBTK/+UBWssZvjkp/KWBgxNdCS9HWpCvA6nVEcIb/jLs+Z8rrkpM85ozutE/jh1cLgx4Tu5ji4mndpzgI5/tBgV09VU2yMlUuCQYjM9k9EW8R/MbfpQHNcyX+sGssHRAQ4RCDXVu9FI1Z8sBQC3aAqtF76x7og5upFUNDCvR98ocTWqURRRxoTx6EIzOHrMk6bB625zr2a5FtUofexpGU+TyoA+yc+ZF5VnUO93aWBmFVYgiIvwspbTzw7frJzRUQXbk/GS8+9AGiXpbemMzPii0zZmgcxnnUS3JG7BEcQV7UUitwdmrn9rSzlLt55lHI7UhCT6jlFV+t0JuWf3fidosn7ED9W1kH4vv4L+OcfjihQvHUEtGaR4n3TliJE9kkDVrtIL6OLDpd08WIzqMlA5XIHkMQcCxRN1rjOVD6TIgAhy+ZwNaZK8XkP9bNTJ45BgOlF9QVLlSEu421DZ3DJ4HbxcNJ8SflgzF/2tI+r3x5mW3Wl1ypvMgz81zeG5GpGf/CXGxeyEunMyjUbx0l/msEwQcagETloHnuBuwWcNMEH929LTzYvB/Rxa2xeU4uFHzfe9er+4MyGRT/1Rq740ejQ8aBAaSA+wNbQGDkpwCQ3gXjIM2rV6OZZxK6WQ2+fB4C8kBtsjgaFsLQJTX/OdLce0jLT4F8QOwrbsdWjfIprDH7yovimimb/KIFnP+TV9ItXJR/iJvR4n2SajpQ7gGyqqx2qT1tCNAmw6hcsKVueReoC//MA5U8ClskXN4mPx0ucH64KhdbtBtQQ8OlxI2xI/KNJpsohGD9uHTJmhg1wpYKJ9PtDSQyW21UylshqyOKIaCm4EUf4FrvpniiUhoXPfXrFPC0Yyu4bEKWBIk5Raxt5gKWVNj7BfI4vO6sEKR8nA6KZ1MXWdZ3PUFFvrEJBWUViH0imMi5Xu9C0iyLerNWixXtKBGurNTA7i8kF3yDpUDH1HWGv7PU/rMX49P/jKkYGU6gNH/wfAG94FDCtMrjnGLIOsFsGO+ytoYHKFi6lxE8NNDxJfI103BV1vF7s+zxIIO8xyy6ooV9+XN3Ux0KP5IpyvJjbtbsdJ74U87b4I5HRIsnIdLMD3axHYeSAXso7qr+hrZPwWXIeW1AjQRzW0aJk7+wc7bLBLXoaSld/uREJfSoJ7jc3Lp8Rfz+ayTidBPs1RjZV282gX04wBVwmU99/blgvu2KOJj3hFeo7LXqigMck3j5J6VkxCzSQZM7ESqMH1Y9hb+hBQd29bs0VBQjh4hiwUu2OVMMKAnCSBVtynlHVJatZRvqCDkDhgS7j0HpCQZp8mKCgmeIWggE/T53oJczGZqvi3awFDkB7IUBZE+vGVpKmthzuouh1J3jNtE/Q+n5MrCvvv8bIbD3ejLZ5wQAozGXbhm8YWQ8yOfaRdVhHAgqXByKQpV7EXcn5v36Le6uZ31b5aNIV6RK+ptMFZMzU+5oxZDeJkafYu6py8w9sLjrGUpQLPqyQkDOe4mJfsed1gYdQPxyYJ/2Amgljyc3JnBTeUBPxV2SnDBp2pJzCKz+PIj4BEvMR0XE1hFUNxRQbDSKtYMuOLM53q6rnCPq6e6AITK8OGChuRfuaL10Q5K/mJhvpS/hWZWQPdETGcDgMZsNcCfCcIGIxe3pBwPjPnFsOcPZD7j7zP1X2bwxNt2jLd3AKsYivM6gZUp5NaPXbO7dZe3uvyBD8x8YDueKVhcJ8SoXqMhw+kh9V5x9+49sqeCQ5jLZtUbBjFrbjN8e6jX2A50jKLCusA/L+4j9J7bdLu+PBcK+Nkrh/Mz1xhCee+NhK5FrJGHAXoeqsrvJbnCF1WRjyf2xwlgP4tm4YQf5TOghNiTdS0EX8v1evNfDE10qaewpOmZYglB9hKqjQ8aBAeCA+wNeVNx26B8YBb0jRh3WYXGP9wuPBuIi1Hj5gRzxLHW/WzJiDz7Jy420eB6FQkaeWV71mS5Guxn9cz8r6TA7UkB5Jb6xiqzt1tfWGvZdAjrcu5JtEGXegXmOQoTBHGpjV7FB9WezrOViL8eV8Otz+mharkNaLI789X4ecr8bb5IoQ4qGhiVQtJJ3lb+L1ruiUB2DfsLSgFKrKjp11T/GknJuFnPDgzv84Z64SQA0UtENiA5laBvEfIzt3cip7fMWtlMinGp8e964DEJ5CZz7dD8daQyxFAv9TWe1hu5ffcLdQCrCB/WnDUJHgD6qedUc/G/2z4ZwNWW2+Cq8NbBbFB62GIDeN00A630pVLGlAG9VIkSgNl3I9knGeQjRavqwVVgS7HNoNHvU/CbQJHhpK3UDFVMj2jGf4xCXdyR+avHOW1s+7kxBAtsXP3l4gj6joT67dcMOyUVO4+ybYm76lvAlzgiyTJAuHExdxV5/MKKiM3SgzGbW3STDOF3w+bES/KFEy512V/Ge+4l0A1w1UI+IFdm8UOwNSD6nYf8/VbpTOQUH7CL9H5m9W3xN7g8+myLBCaXyPyIJeexDpJaCFoQG8WU0SQOl3mWskrAUSUGYjki9+f12ppxHQ/TXz/KRT2Z2E+PtIGrixJ2bU+q/LrTBnYWEuumx4DmotzuTxSmhNn8ef9i6f66HQ8nyNXjud7KvXbWQzfI1KxdhQcn91h78InwFqy86PAGwgI4ikIoOryMbwjKIOzMlKdkrNpoCJUpbwLvNjHTUhT69Aip/MznNvOVhbWgmpuBwnRwHDnVrZPC8/IHjOyMtvOPtJvOershSn3BxsiqqMOBTU29S7lb/Xl6rfRdOswY8YnavSqTfDHbYStNfPTf9bfRPVwSLkLBIu6xkNzXOrwUUmROVdAdDyWfVhCpqXuu8h+lECYFVc3zZVeglOCeiTeZrwM3i12ZsC9AWgX81naXK4JWMe1+rmVU59wsPSEMLybXAOacOBHHjmiYXyRLMbz/am79djKIgoa9kR1smskbx2xXfFQ63TBA963Ntfuc8wjQUIo+ocQ16sJiwa4RLpGwP1fisHrL9Ak+NWpfZHPCgf8caqeT9caQEfMigcGqrUE/6aVB4EG7pYnK5/Bg1m3qSSyHYqSdaBMYDfghkesko8x7PwNFe7MyJMGvU2urJhMYO4mhckjpu5Bbge0AEwO/GPyDCAlN95Z/Q6Iil3zHaS3PMl3jDJvW8j6/hp9MGVak+HX4g9K1ieyrGeQc2GTxPhEVMLpijRAGBAhyA+4P8EfwRW0FqY/U94lYXeci3IlXGlAyoB59JTQcBWkyfSEa3MazRrGfdzltcwDGALfuOQlA5zHQI4P3HJUrJe/wHTXVuGjiVgFTH0BIh0T6zBbZOftZ0TXUyS/MWZudAU8K8XbY7XXZNaDCUo9e9Kz71Q6Kb8CHQrHPJ+BB8DMIuEYra6Me0EeX3ECG59r3rGrc4uiKOTSll3Spqr8Cm4+maXXZ3rLQDHVdIms8zsmlxEpDJAkIkz1cWzptYmLSQIElMNDTckHS6xzVhjXqeoZeiG+dcvGsr52IPn3QoAr/vy6XBTw2Pk8Pj1Wdhkwc+O9NaBA6jZ50yFpouBxMWLLzkvpIo99lbBBc9Yh+BL/V41H8Z4DydDh/2yvEVh+1RyCsUajE5bfWJpyLYfrXmb2QRksIOd0lg/7xCll1QutHcm7euOppbPYbANCQdnAguAs5v1ggcABksBiv3/Y8VB6hvHP+zPQMrr8sXJ9WOznPe5L7N7SmL51/RGfVqIYUb+WlGRS0i4N4P6QNO/3BAX+npuYhxwy9CZ2hDd3a9xsLWH2Eyzijyx8yf1dCUv3TplNCil1eJ5K+cWTkUvOkk3OYq/4W4eWGVIVrjvnIsLGpLu1IWca+HbRqP4alpFsDUaL/Q9YzHmrDnc/JISNNOF74y9bCxiwyHdFQ76frMJwXB5z1R1Js7nLz2NqKTI4jjpTjE9GUTviyOHheFwoWzPdmcADLTUiYJ28/62VgjewNBnH7lNaAZpWXclgHLDEmTWV7zK3CZo7gayhH3SHiSyEFzixyTFZ8dCsf6Cu/h7DP9REdNo9YGabWKohkng+odAvVGpsX2wfC7zxvXUDjhEZezh8YEGXio+uiCCA9xjlcrWvawJq3SqTn49LyV+U7K7lG3rYOi1FAlh6bgU4juWtTUYue/8t6uPfl/BsiJGMlC6fOxVVzfZBcFzdHMfeOL4rKwezdjwxDrukOx7xnPWJQtw0IHUkd8q5Sdl5cJCzruuhnM12pmAyFkq2ATO+A1fsS+X/t6z7zLaLtZ8TzJbtRy6HP/ml2WVMswdIsBkKGolFL6mvENxsL1YeoXWBDM3NH9Zo+4OZzVIJKURMo7DLVOoIgC3+ZiVdDyyK0wfc3ZWT4W66nylO43NxJYJF5WsAS4zAz2mghLbV4+E8GGQeLk3Fa+0CRp4haEIWZ8Ci07f1/OkkLBNROGZoSApMjRsAo+PtndstEVvi9IPOE645tW6OKeqHvbiLnEVmi4e3NZUAw9pczW2HscH0U1HiTwig2lCSa3fQH8dslij8vm917M5MZVLqRMuHSDrQL2aBYfkNAhqbVD56pHRcl9lllqglK0pX3xntSkQPAnS6NDk4ECWID7g/8J/gpevTANIltyjLNsBvNiNfL/GF8Gn35RK9cJ5ZmbNgrviHkI/LLLlTU2VEcNk1CdmUVOmBs61sWk1lnrx2pntqp5Xjm7Ff+ljq4wBezdSXOvcKEvg77iEzlfAbQKTyPmJVvNpNCAHKS9mi4+DtasGe4GFWks+X0iyHBJBs6sma9N9u5zMA990petvxTBxBcS/BaXRsMP+z77uOK2X+koxgfgco7c4uLB8xPC4xDM46QzVxCQjFko4omv+lfA5DCiJBtFgDcvBWd+u+mkmJrjUqg2+T2At9gVv+Ik0Hc6PXOgmCJgLf5VCzz/LUtCGSAIkrcR23WX6dliHPg8d2SkGi+pYIKRQg7HBmlSB8PQqNyazPCiTUS1T7sxGJbgkPxJwXHm79teYufGZEcNkAdXfwrBRe68W3dgwDcO7Wb+gjQscuhzabuwf8TWO7h+klASBLH2WFzKI762D/p26xMs104Y926chDvFf/2R59rhGxBD9u39/59qfCrw5OU5nAKXjqTdO72MRayIatq4ujK1kBn+rruLMkEkW+BKpJDjciBxGMjDBCTQbEhwUc8XRUomuvTdXwH08j55uXQg+wgOyRIS7hVgPal4ls2QD74J9/24qtcXn8D0jiYUE4C8cErxaJHEgMGuSAOfmTlVnpsw+6WCAHybcshnvVTJA6UPefMI6yX7XCYuA3t225aesvwSHDqdLGj2+l3QPqT6zmKAbSvjbPDNMzXVz0pM30iIqRCzE/BNWxIqb4CoyQpVUONTOWP4lS3ykdsVNYdbTh7leaPJewtSwvc7vJVfEfeISQtGiHJL1o6ZN+L1Z9ERmnKQf8EK376RijjxXmCoqbfk4Py2he6520XOsvJ+7H56tGoILgqcrIScJBahhO8FAlAYWFMrXz90K3xXZhNUHfQttzLD1WcrzVRxHXXTekVGZyZZ2NXm3W7EonkuyzBf/uNdZ/X+t46hZDnRsif7Mz77pAWA2xQSKTaNRTuQS7/PNKOLfeiSA6tGFSnwdLJyHW5dibG86lnmZI/IRnu8BIxPHHs57SLyKdNMMVQzsu+9dt44Rt2RINLrGkYOaClhNGUK35DkK56Hg1IjKMx8qana5IMcJTso2/l3kyGtM5XLUAiI+vyYszKXd77tiHvzut+jtX857ZiMZ3uEgm9N3DXgVa7qnTOAP5K0BqhU4LNyeu2OazbhWhjDsptr46NDxoEClID7A1ql0BPgWZtFuGwTZOVS41TfPYwAoiJUjWPOPp+1xcBTCafebKzXwVvVyPRj1vpz9cDggAPE8zrNbdafh6DemX1g+eYtA7nykLHttpSOs6Ey89ao6Zw7lVKlo75AWXWrCbQlfthaKQz8EncsRSO/VTfxCVsGuzFXD9kA4VDtMJ2Jy/R6FpH8Gq9x+gMnB7Z3yqi/4A2Ow/ntf5bz/u20Xhh8b0dHFCkTs+mcYRubk4cj0c0nAAZQRQjJVEW4RgpmnIZGEr0tmaFV6tnrvWnFTWw7ulVJRM2K+U7aXiiNAZZHs8K53R3gXM3gZ9ixbFnzyryMy7eotrtAIiF0m2BERC7MKO3sRnEjCrWAdsgSyxXzpTO0DF5rMsJwv5I0sCmwZKd7oHtITnqTSsnJALrOTtLRuhJC4ejsEnzVzW8RZpPKWmibDXnSPc/Ejh1ZDFv1xSLwjya1Ji3HrZgLdKg6W4DmPAil6RIq03Sr642BcwEQ6IRJaHVfB497Vw+H8QKh3Cz0zzPzjzwDXm/n1SU9nSvlBxY8lMZ8G981iI4gzgp4+RCchzBCdPyaDPC4KCLKRZ4WewXbKtPrsw3OBKrjU9r3h0+G+bjEx7CKnCZ64ztBfJZh3MqIEhmoUmxaARRH1US80Tgr49/Fnhoc8XM46MEpUXDvPZpNUQHYJN5kkGXmp4dKWhvBw9YfoZWam+bU/XV9idTYxVZTVULezgbONCo4Je4+9WbbXzboICsox0lTWy0JdWyJJL+TOQGGaTyJdommeqJoZF05hqeCj/2LOpX/txOcElDzL4M0pYvT8WTmMoBZErxKh9Qgab2Q5IcVhIajExUiOt1aWbupg7BLuBFbTrHG1+/Y1Uc1Q/FpNA5wLV3/eiFnRzAGQpwhLle1yH6y26V5q3TO7IZp0sbwPYtP01RbZgkwBwGtXyilXo01FDiCVAxE4B5nTsmqumBNS85xE1urdcGf3ye44KIl8XN2bZE0+DvPYHfnGADhNmAW0NP4abAHtSiREY4OGUlyILIn3xE1lAbXSEVqW3SY/UYnh+uBhA7nmXuFMqWmYj2qa0QHO8BX9j7KpkC4oUbPsPkquF4m51t166WSz4aTATRW+/KXlaYZkpjcqEXHdhbpTibIXL1xSyY1z1rhI6TTEZtQigeEoMtYT3JZIy+69pt3AGZrZsjdIflhLAo6ozk+ok/R6u2WWu9rCmDUuONGLWnct7CLIz+QtjiA82+nW9NWYGGRaRC+NlRKmiu7CjXfpWbDToMdBTBdugpP88czfaNDxoEC0ID7A1qdVeTp7qAQMl7nyDA6XqjMO7rwz3kz9M9V5HYhksnKoG9Se7LEAV9wB/0NYKdqGGm/HHrf9U1NJ1P1hfqGkS1HJvekOxlgfxRtq32VmqoYIYlsGcQgizDlWwDGCr7XUpFPoV/OlIRnsbO0/BnCmWL90OldvVHu6sDhX9u0+2xdqw/f3LVmSq2GcAIqeU83IWoxxRSDekIaUR5SnVS8t7CJrm1h0ae8lv1XU0bXrussS5OEJ9TK8Z6GgpKIKHT6+KutpotD6WBoooXfeFCr/R2tLzRGD9C+kUhDFdex/QyUnbmLX7pKcbVmrioXxDnTwMw58nAyZGk+VekYR7G9oFV5bTYMnFFkXv631J20z4APxHjowPGuo9XHk9PoBI8g2TSUE6FNV+H0/t7g4kQXnSuZPR53dVuUOQeXGt2vF46JWz1PXTGtuQ9uBNxl6le6XRDKnExjIMOkzpn/S+3AvPlOzNDMbClQQlgzEvVmLLQcBWX7qhFKD/C6KbO9jD/t3SlalVr084iliDZ6Vnga9nWZN8Y33nxeG1Zn650vv3Bfgs75YOT9F6lndm2QiI4kh++NZsGXEiecK96OlnTxvXxJiA/cG1HmpQq7M/abgR+XZKlJ/oqn33ZBzS6Bq8UpMuPdaeI7X9DROHsfq5CpV1nwhINAgmh97fiRxOaf8vRKdI5KYhkFaPOBg0rCxV0i3YqvuZ+9B6Yno1jr9RV4x2QbIXC8zG+IFTmzQHhmzJpRBtN00qrUkX8ocKlh38WjoD60neobLvh1AOz1jzJTnr093GFRbAkFGtEsZVgihW0se1nt2zw4Y0APzfNYIcQiHPJquGSe4IYSFvs38waYFnpTzrxmmT/ysgzXvWzELVyiI+rXK5aPHOD5dhY3+t+ZG7+g9qgxXh/XYxYGVOS1neegR7lWSkAd4ewujuzXthYfgEIkYBfEONA8XPCj53gMvaig4UaKH+arMozlNChrCUaKqy7+bPuB+7EwzLi2AlT0lkNqn5nXUVFX+g+AjFNtCPvtxMGj37vU9FAsK3pFuvxJZgaTQVDIVwFltF82Taxbvjmb3ycL0pxhfClYiqk3SkYl9RC56zVQZeE4OHwHrXpVl5NCdS34NSiX//2CFyyciRSiqR6/iNuMfSYXoAsON62VpEiRCtwYAqwga+krCRYAnWLsHcfqgJ6708Sk6eve3QiyKU11Sp9gOzcZDkTLAx74+wq5mEEl8nR/UvAzjBj2ZuIe4nHhxQ+yzZgzTjmTnODnEXuJnTh5Ovlok+3A+KND5YEDDID7g/wR/BFTzXUxKpJGmls6Uj2Vvbu6k26oJgYGCa3u5lVOqjxd+8bAaieu7XNskozHN72W9Smy62y4zfpmOhMzXZ2VTNYOgcD/EG1y/e/OFHVfT4K2brfnLBlMFGhJsP+X/P1gqXUPU5KIKKdEG+W+Vv8Yf1Yc5Xrrr0fSEY4igGSUhBsxkpKHe4pP6A5OWgKz1LILnps2ybSzIVD2EfdVgDewI3YJSsAXR0fNCgUv7ar3sPd8/asWUDt52yaDr4HIjsWT2ORiPBz280MzKNKmeiFsAlRfJM66kz81mNeGf9ju5DfQv9tF4amI681zQF3klB1KYiuqWAU008gDwlz0jwdcMG7IY+tlx4gEHaKhyOVU4OLvl8ttOhiPincxzUg55Aze6Qm038M2Ve/uWKIpTiI94aNoKuzgwuPJnzdUK6w5oNHdjFnzVdjLTBfwOR0CcQELaXcu1D6Pt1jmlu4utiWi68IdxjIGl6Rbqcuv4ZSa0qoMu9xycdvQAJme3NOSJOMjFM66xvJXeQqzFj/HQ53LVnBo50Ozu6stXcYLUjlPFnL21ibiy+WwC3C5qjqP0/il1HcWpv5rQgiebO6KeabEnnA5UaKkExGdXQOgzDcLFbSKnLgL0SEL2dcV976h1YXqKbuQcj/M8+uVAsSP8BVQ8wCr2EDUDRxkpJga7CriwUUG2tDnnz5VoC0W7OuGG7yqoC1ZYogSxavNSBIUakA66SoxSEOLdL3sXnsLCFTUmJaBC2lisucuT19NoWrHnWolV1sG2ApBk5pDLL3N7JaVc4J6eYEmTcAQjiBIOtETNnVsJGT8MSHoeOCRFaOegCod+di4ZLxW8qzNB+fNUrFWg+wfWpDbYb4o9A5XuLqpBxlOYVyrXkKtB/uFcXtqASkPhgQDB5WAhj6Dwfkec0bJ9CgdOBbaxELTDpNEk872Vo5g5SzQHevhDv+nAj/z45Yg3hBkoLJ4ZgliBOvwnA9cg4snojpnh2nmSDdDtp+3pTXv32NphIACKQAKuDG/TMluDzinfsIk6K1lWtCyMBci6/YZkFa2EGKjU5rS5xckRVsJnhHmwzCQwCPteH9lp7K+4wjuzKWQjnItC+YgE1ufYylm1lWPIQptbdSyBq6PNj1rH02mwTDbvEU/hZqlNaaGVl2/aLYCsLmPU6APm48NcToe1/Pp2gRLCtcR1hIWOgv+JurqgdFnE9CnBwENpU8L3tsx6H+gSbD4YmlKOmaAIZwykyUsBFr0AmUNkZOuQbCvdoQwS8upQ7UQ7xabaFJquEkrIsFAWeva5lSb5I26L1Gf9DTe42T8a2779YKjQ6+BA0iA+4P/Dv0OUkXExTO/aMX+PfYMbaodE4v419Q7xtFfRheXgBEly0uCVYpsOektgrRInL5WlRW3WTMX8h4KBWcsp4yeWQfMI4AUGDsqIFefPA8jLqnDkTu7RgD9QfkTWW0x2Bm/KypiqMdhL8cOAwY47BESK1QIqVGCaKTuuaTTJTHnS3I2aYxvFSvsVFSDdY6PMibj9whXRVhgkI9XNv0fbqQVEmML7aaB7oWzqW6xIgM3ltkWLCSQ0V+BzSRDyJYuKAYRvya+WX+DGSPwq2ikrgY4uVN4vymWTtcW/9xJK+5nyu805ZIRIehUdi8Pb7HGx7Udt3rsALlY7cAKAsgKwEneQUkjlr6oMvtZ0LBafR9uyuD1d0aGZIsSgp5QJM992VPiRufI8VlQBtbxbdOdCcohV8UY7jgf7flTOxlFN+iVedVxSjnyM0FBth1csLSLQy2XxnQV5aivKreg1qLvhV6YQn8hNQ2c3L22taxMBO9/aZuhfSTcImc0lnsTin7Wbq/BYew4p3jvuRLQVX197CynwgtnZADO367BfcheNSiTRUna2yOLZ88b8ytId7RrdTJfFusgmvun8aIZG8Rr3VIvQN0x+qWoyBBo9GXhmBJhqQ87sKv4jm0mCQRp8TbGrMZc3IwnpioMdIHwWdl6smmaEuBDXLNZgyL/d4eEQb2pw31WhshHot4O1x+o8BmZoYrCbhQY0rTYjTn48swlvK0Qra2aadjzWPkS6LsAA58124BjK3n07KeQJPLAtdqD8lTjzZlpGghFVQKxYgR+8rRvCju0A89sWgJcYPDVGZl1qynpK4ns/NL+8CjLhGtQYDuxj+2QFFzgLSNR+/bO87oVMuz3mnkMhpuuTk/WazAo7CzpniM1lcXbWcx+ZPUqcW3Pyk1Zlr3mYdJvBhlpt/Phb/C0APKkT8qsiAJj15dhHx8Zx0QsXTCEOrHTgIP5VKku0WR1me1+pt6bf9ak3DhOvNRv9N3qZllsCSWPbkeRBt6SFjCc0pDDIOuN7RR/nZ+qynsc89XEY2FB6JSaprQ15xQAdpLnGPJoezSRUysY8nBv38pIro0RMa0ipRN4XaGUwT+/fRLrPOPGfUiU1U8HSdmhoVdmqZn794fTGo0KuULbrzoLT5vc8G03Os4ZAOIGq2ZLVlam0wLompEKNEQgsT+0ZwSDpnrptWhrYqvwgHkqAEVAOWL+O5H0Uyirx2fIcAeVjcxKYlEcHmdbj+/W0wSvPyTKLhC4o0PGgQOEgPsDUlIar7EwgN0qQxH1HB7cR74XSzLzvvozNDTnRGwTgxOSGtC/4ZlOTHbgCnuzWEJ4yv6M78izSSXIyhAToYX68ReJk5OzOlT5yAXd4GXh7arRQ4qKs8qrA1oxv8Bv/8KJ5LI7w/B2AodOOE6ax1/m16kT9YdD34iNHJBSMbONQDvoE43I+DGJZetwX5G+8YUUgSOSfy3LO6RoMypyvtFhpzRvNNrcCyoUoxakrPpsxRRn3D5vp/YVfEjj1KIDzOoRBVxlpryCtkBIgqmOM7GR93ksrGViYa3fSL6hv2nTSn+oA7Z/uFAcl3/4deeAxoBk8kzDvCMsTVx/oaPI4Isk/FOYc1jh/l6idkRxD3oWq0LJ6rfCagpG2T1aPjuO3Yw1MPT9XmPWCSQC8ERrDELK7b2fxAGQa/Hd5Uf63eP9QDNZW33jmlgyHQqsS4EzKsWtCTizZ1v9VzhyUuJafRtC8yjrAyIzkSG3qHZLvDtmwm4gAkhAoOzGztlo5C1djATXaUgdTdaPAiRQ5dbkmFN3WSEKoGj1JID7sABPjJOzfSBjD+ajS5Ano9tD+0pd+q6/s59BZU8WktEttv1n5rQutVgNdaF4fbu6b4Fs1RmeoOd6aDxKiHOxQ9yIeV2pyu+1o7hVxmnj0HcN3xalrGTiOwfmCTqRIPrDyNQ9goB7fXeGvcnGJqbE6ON7a2mMBf0jsZNo80h+t2IoVl3yOc/pX/xVYuvRQ4/cgLqpdmRaYmcJYvSfcHmB9IWkakc9s9g+2sD109bCUuMFjyvDM7heQim82wP5GSdUSpPWh6HZRdbGJEPfvx4qxxKjcmWptFNbVlbFfAcVT7fjxc2CEFosclIH9SKr3ZiNsxD7VYZVwXSyyXDitF9SWc/5HnuSAItq62fY3ZTVXNo3dSHZfE5uMjRB/AupkFaO1xcG55Az4I0bK48gJYc4aPuo8xi2XX0ml4Sis3hv3I6kPWsLxVa4egQRfCosHuRgRlkvAfyIXkRm5R8v/l3LZmUI+VPPLKeyR/fswKCWf6rcd9DB+a9NOZ5cUvuE5mkhiUl82iLn9ZgQlPSxOKgropNsRno5PVXhuVF9S5rqK/F23JxGCxdHITGXfsuEKXLhVP43SdNayvi3JDRSa4+ZYHG01IttoYBfWphVJTx3tIPnI87HzblGOwlu8YgCq1TUouH/o9gr+SgqHvmxBqeOLLx7VZuy5YCrBcN3F1igsVl0fiGjVfut/p74tAt2XWJBOYxlszQPIDUEc4PwxEvT2QI7EVyrA1ZNo0PGgQPAgPsDWjdIJdwzeYbDp/PwshCzeslp+EITi9WTSvVXurqKlaR1iWNYatWsFhm8/5YH5TqSj1Q60ZNR7TBnJc6YFDkNNNDPJEnwLTG6f91xkGk1yQ9cPyVPF5mlJhLdN61gZxyoiiL3o006tteAFtUKhl6JSMXkjy31oMOpNbLS7M99zXowv/HbZhcFbYU/z63EXHvFhPkuA8HvdvHzwLasB14cErjO2vyN/dsIPUs0hngnriCl1aGoDRVyr5VA00rzZKmUgrWElRogYe/l/UBfvJTB7ToqBrNPa6Iytj3NuBCO38VpdHnLRekFOBtKbcIyEb9g2peRuJGob8Z9oKmcdDFPijfWyJ/wNucKwXDtiAhng9aj8LbGx7XglsLWksZLOGBUjxiF9bjSxr6NYJnETEIfJZSKP5jmsBy2Q4Px/v7tkL5Z0eWRTfEq13V46NtHe+NjIMBx3RUhSOGMP5KTZcK6e0vjJm4fQeFhXJ8n9/CxMZtjj83cPn1t9RxBvi5iiRchxC9xc+oQ+h6VtF+IJjhAMj4nsNGFYd2iqmFCsjS6WycAa6SmaF6mZ6LxO2izwAh/SwmO5A+BhxIxS+MoMr9zdLnQdief8q6VLq7lQWRGyz7EpuD2XjxCeqqUqve8cvrj4UqSNCAsqkGZjBYpk2VsdIcWwqqJh24sEYVZdG1elbqXpmEWG/f0aT7t68SWMV3Q1huCtKxfAKAyLh1p9EDCl9ntHmUcjIpcpqDek25iQGQNSsRnDuTgoANpv7GAj3eMN8+uH2UA1EOk7dn+Ctn73ER6n8uwrQ3P33msdyyCwNlslnVRPy6/fjqL6rHn8//Gp3BEdBt5wz+yDxlweoVvh1Hg6LvXOq4LiZgueZguo+55FspAbwxr9BsERAD9+RQff2KCxiFABVKkslgbxTFA4t638+d9CjOyvVxnXGBciNBLQIgRXBUaNqPQiy36Isr9N8YePi9s+L8o6ixcOTVA+jFXILT+MJHGXWCrG1E+c+RdzKzVBwL4fMKPgay/mtnnVVux0MGab3Ew1IfQMuRM4mLOGLFQBdWReo+rUGHOqnmP+YVUf/7LnRyK8w5n6SKfdYTcGxHyPgPJswuJ/QbSryv/kYHMhz0iGmYOGSDzOtcYLTfk/QeY0MndzODQN2eigaW+bxeiTxj7Fd/XnC8PvYiECJWf4H6gHEXGUCYSwqWRYpIU7p1ovI14kASrFi0fU4y85SXf4f/tN1MJOO+ACgPgcWLI+oYS+v7Qwjwvt/b6Rrso9/FbiBjfbiom7V0Qo0PGgQP8gPsDYE9bdvT/A3bQwIjIjkgYDlNlOt3PeOmPG5UrYupCCuzqUirxTbKHscpGd5lpmlfi29M2Q5ZmKMXh5kSl3LbLHzedShhRNDDpm+1wI8ocMHJu2Peevg30q0hbsqpQP7SW++K1IXYElThjncmwN5deKvjGP7Mkme2KLXUGQy628Pz9hNTMvudxVu84yCRk0W1T9Bul1K2Bw0Qe+QdXJ1ieb8afhelq/bed1RxOs9WRa/5cUXdrkm68G/qNv/5a/bhf23yiT8NX4v61GhrSo6wY9wTqdT7UeWIAgWRbOF+TcGToEDKGY9dmLINAk6zJhjQ0JPkhk+VyuG9a4K5tST1DoDwo7eLtvu7MevWFG+SdXs+WhFY7Ypcq9haS3Cm64UO8qrZsUuHh8sXHcgQX3VUDFfNvN6WuKgYd2TzlXI4AxNpUQK3q7QMvWdz/2gjolzNGaDV7JQhJq1XiggfQXF1Y6oHk6p9UzHEulmC/mDT6zYOC0JVi6ntwV5oHPKovJLaszGvNvv+zrWNo9al38+3Bz9334Fx0JnOGDROxdElONWY69AoOVK007LHSDh8IjBsg1BToXqiD8zlhokTcHnbRURjwG/47UlLVBhL37S/RVWl6j6OfoFzgk3Spcfo0KlyKJtNW/Y4Hv5RFCJHjKynEv6K0hmcfHRqviCJtbVEZwQvs7DrFv/aLfmLXvz/J17FHOX0fJyOViWdclEUTarEE5EaAp3CfX2enu+09fx3Hj+yowpUxVbuJ4nnxhQ+U4cH9bSSqg/TwWlv3W2Cfclhe4kA8SHr5pbfJuXAh2rYv8C5Dgu6P50r2tRC+RqAmU5NuODlqTZKe3FpOVrUBFLVT5VsyaeGBHIlH5V64fSCxNX5zNcpvyXerH42t3WxO8KUnT7WO10v2QBlLK7nsgKPWS4xorO6iBpVXxPZIJzhrKUU8x3a1Ti5jeSjUgKVvRJ64hMh/kbVSMhTBJcxZBuU/LHHrVhswHkRMroC3oM8rcODFN53oSt7UINXTgEVb2RsDiUauzWKl+/jaG+B1wain19x/Qyi7DqKFsvqx4uEpygQr0TtpPsrxnyKenA0GcSBSLqq4tu6xQDpsWeNpXEjmWj1GIFAcIsMxVxo3nTsPD6jgz5zNwwpEc98EholHd6TosLqWvtW6sOqFTxYrjW4s6L9GI6mnW3dYGPOzD6ILY85SToSdE0g1gL6AZzF+cfq0Xg83qscNv1Mi2zN+NGMIYvctwV7L/MpAklPNl19t+RX1HwrOtZ9/POxH+xI0jDl6o0PGgQQ4gPsDWlVPZQisSAcYBmty3mpAI9Of2ZnQ38ODVMd1pbCPhOdZp/xI05rggD6mWjCtYASx+u/zC/rpbUTgbBq2pg7C9U328AU0AHLIAakxQ//ZGlGA4gJKIuov57UiA6bxv41Kq7/yH6BQz0bOsPXQhhv3NWFpubLJhBSxiYXYUx03B9odkeRTEblM2BuXQXx5ekbR/+1ZGJW+IqafhpoDNjevGdXGsqhb+LzfA4C/kUB6pbNekHLRHb6OgeSfBxI2AAv2sJbRr9wfVqTL1wAXKNuXnRdwKTA1SAYPPTWjel/dh/R3oZCJwAVOhwA6F3L95281qgTksbanAn5ksgDz1Rt1xBu9x3+kTwB+DrzYetm2pgW/frU3DfGFUwzLRvQ1v3YhMVlwK+8o0IOUXtm+jsnpkvM4z/Hq9hJQ2gyeHi1uTIxbSi5QFe9X1M6lBspgRBAUzRUi9Tqna8h2Grl+8VO2wdrxbzBLcgZFa8klnde7i4HWiz8TebCzs/4pzaG3Ii4OYYf6Cyb4Uene14heVioqjil2ozO4F0Vadry+RcmjkfQ8UWNq6IVu56sj8h0JwvMPLzei5Yew0Mw+/ACH6a2FMUIjZ2OwxTe1fdyJgIJXdTTHRYYkNMHF7rLxLAokp548hew7nekr9pAQGQKNq6UiR8EnsakNIuM/deyxu/qd9fgWR1vpjSzLY/+4sRqpEtE3j3xjQsnfJjN4q+gMyjJ/WVzNHSXZQZtVgGxOjBEmFvo5sMmCFx6gFHU1wB+7atslkgZDi/oXRIZSh5ucjnMjIh2xOt9nHBspSJ1gvtM2k4J4DBlYUHLihZs6EOVuiHR7YXjYbUK7OVuUJQkWBuKWOVsusrk6MxE429Y1tJXRm4sP5I3WdVdkQx8Couvnndvc8g/RJ12Fu5EzDgphZLiFbH8cdES7d4pYQ10CYeUKyO8n5YTXKHikkdvPd/ybM3GyRMDtE/dBNpWkeCnTz1cvPCkblgP/SaVLkdimUD/x8skweJ0pzb08BmAReegW2i5uKnDROL9v+pGJzq/7g0S8pg0tUwdU+ZiARkWFbe22pL4rsRsE2h3h1eD065sdiAsui75OLXxUqL7ssbUP3j/CrctFXschv5xnCPnqqdhlo/ZwYRSDjrHv0ovOlB3WZFgT9AwoVAREF0KGnOXyBz7NOMU/8aIW3YJEQkxNQyh4ueOY7Z7Tia4ALUmIDcfEOSPolX/5BHKQGLNbaYR6zjnr93TJA7dauuIMp5F83pXluLaWCGQBZ3YGuqTszWtluMUwo0PGgQR0gPsDW0KIHdVKRk3R09Pho6WX6DHPlXBz+GF3oWo/7iQzRrvsjHqmNYrUtf9M7dGEzpXNUOpfdbQKwROts+oOzVibvvdkc1N7q8PaTHVDGyIe+bBJm+07iEd+oprHJ3ADAgBClYXT3b3HJS/Sn47iDmIgVa1676AR+5rMahGbT6DZAg6FLcNwNmD8sPJug6/A4JtgNd9oINk5PK6Q9EPakqUeNP8dEU+Bb7GlB4/CaWq+QHYV4epiS9UzZNiPMGNpYrnsNwJ1Bw2rdITJsC2pM6H3uf+CeDPcXymPVK1yaa90jUfxr4E/SNI4k8QUeKCMJwadc+wl2n26bPgQg2xnC9HK7HbiiedtjG0e5iXXsj12LmxKI3HDmrQFQ/hDeaMYA2Vcdu6qq1I3w/kckj5XVSBb/y9Vjndi5ghbjEeRZvWL7+RaOiLrq3UftuwzdW4zGyVYFth9q60bON+EgcG7BysAfmv2T/6/22xEDezfC164wJ3OX2G8/kRRgP6sfiYJ7oyv8yjsITJET+SyimX+m/l4GKH69FvXpBjvn1umuVwCAKSmQQWxcqvJAHv/UcoFWpW3Mf8GOdOSIxU0jC7VEFdlLA8o4DtqrF0HTc4oaQ7cG24Lg59wKgRMYdfp8IKluTjdHv4FXnzJDwR4pQaiE97OXObQt9X88CJlZMYWKV1CeggYGrrSNsq0mOTdPQeEKEjL3DmUPUZ+8/v3mDB9gAQFDRxMc4IFMLKWQQHTGIEvjWURTPU1Vdb454VJjweQmkqLQSzaDoKHxzkLnRrhPIZDTYn0EMsi0khc6T4APDe1Y6Opw9qDsomhGHJD3+7LXgNYGFOk+IT5SXyZraXPCjSJJVO47FjKxHPe2thEgCCFTispe/zb4Tj4ZxWtlKQj/PtP/w6S1nHaq3BNGgLc+VATKGahJxHKHBfrUSmSDzVUVcZPZrcmQRI9KxksXSohAiLV9pzUkOAlZjUkod4p5+Jb/e80duLGnTRqFQfgsXxVfDSTroSziZRoouhqkXt4cODBa4QNF7Kb03QtgwKuOgPtiDYzPxlAv8nHPyYQIyoe3iEFdAmYlNVXci+8pqdVVmYa74HJRRBiM50gjd/iYJ1WUUUuQNztWRRl65pCDh/Jvf5ruKD6skuun2Bgr/s9HDSXsCe5Qew3NxGD1oZMjf/H4klH/0STSslREIEe9I92ZAN0Jwx2JP4GxpOBuqLzbdkgze3/0FuiuIHfM2WTKj4/v3pWs7ey1eK+jz4LHxUxjknZURvpi+6Kfp9gEvpo3mSSo0PGgQSwgPsDXr1eNh2LdZxaoM/lOMYTQn8gRjhk7RsSTkRtu2L0Iyy7Gsyq0x/fivFC8iQQKUNziBPj4uGLtDYY/35Lhuciff4Pan+OeY7nQYrENzLn0fCXOi9Z9IWVejbX/xke3eFffxWr6ITA1F2Gec0B4opBMGEaRCRE/h6p6qqc79eCd5Ep6tjLFQnI6LMRluN+yl7lIiM2QxtMxysAbmIcRDkTMH4M/yXaxsi3pKoQz400+hVH5zW0I5EIgaG/5tiOBaYsI+382opZbNqZ1laMPNxXg3jbTt3jZyfdDAHAOXpkwJRvVsZzW0BQhzBCYNk7euTfBa5c89LRcxF2Orihupmv9rGtSSVmj2PSUT0oJeDfKlGzEiQJ04HS3vPG8dWVISSfwegDHKedXjgda00oPyvskaxvWPjqWnxs/f4kR1Odq71SDpbTz91k0h5D6r94hH404S1+aLcnFtCdoBK5rnXtLx/8Oyd1L9o56M1qbCwD3djbYQ97vznKqZ21r7rE3u0PB7vzy107gH369qFHr8bpLiY3TFlSur8cd/pBcZkVwUJn4qk6fa732AjnmTKXNz0ZWoKRlPRa1POS6Yqd3yJD2dAyUb58jZhy8lfSGVGf7+0Bwe6v/x4/FECg1WOdMLSFXPty/29bGEAWM7Mjc0+Y8pWXCatMZDqbxYiECy4JwyME1DWZoVIDaSPR5yqaT2WfmzulOf8xYufUANGZbEPoEwJ7vPASvVRZebMeQFuHzqQ5bHJrG4BIIlSXX1vA5kz0lkXVDti/6XldZHc595P6jsh0BmiXmJXmWmR1MSxMBdYE9HfSbVmmOfTAjKORqJyP/npfd5v3Fio6b++iJr4oyF4FldpeXe8+l7+66ydcx3+x3flZQdJu5xSP/gJH0wI0hVQxvqXsdwgyFTz0K9R1ewsFIA6MQtkMC4EcEQaAWaSHFthqjiaRyyH5ShoBgNyr/sAUePIgdH3k+srxyLoe6LAbLvfmfjIha8A7Wq1OmDr4Pptxc2vbf+49TVyGwFTZ2658F0/9jrJSVD2F6mJgyKwv7j936pre06IOMbZK4s1vnyVjkqAEyyfcVy8dr9nRKnHfqeZmeYXteBX8ceVpUEVXSBUGeVrgDBe/p1nsI8XCaNEDUtSVTbuyy0TzrQKyHTEch1NsHz2/mVzbMH5xHNUQrNdN7ejS49T2xHXLTlQbibjPEMwr5cU8MyBzocU+G56UqvsMgIsGzNomsD3HaJG/q9Di204qRM/hbrdFIM7jjtMpaGO7Nh3AKcLur+GEo0PGgQTsgPsDU8sqAMa3/hXRfjeQlMpsPHiEjnr3AbaTbXhpG2SHweAV43xOs6cSg+bcsHFAmmJRdtzr+/Cboi2eMcvMILhRZ03WfHoZE+o/eUMuHt+/lcxcOZJyl/oElSbduFLO2sfkWUhLIEi2+6GJta9iRRcBmsKYAUHoaqoLhiuT/4C0bPpgDREGdrcwMiz7vcS2Uuyo0HAaYq8/CxCbalzym1IMACTK9/iaLmnLlaxS9cZaMQG/cPX8mqI+truEr2Xmfy19wX7Cr87KHsGFuJSKMCYN/cfIAxp8dJwMxVqQBnK0Ydg3vw/4zgtB6w0G/47/4/QUB6fqiPWeNefcivFrRYVcz8ei2waU1DpG0DZXVW3okY2kkdVUAlundFtxQ9mJ7aawYYBT94xG239+oTfbVwjgODJk+oEhMipucj4Iqs9P5KtbQ+d0D5FulUa+rWAChoMIVbfw/Lru2/xs/sKDUxEe7s8FrLD4tn+bnGxh9xIi3AahBr0K27PDWGqgBxerDzdCSveCXtR/lKr69TGcTUSrVQjsrhcMzdHnDKdLNHcYWHZjtBnN+xfpavTkR2mAe3qWCNyHoiEE8Q/3fdk+D8+DQvtrRloVXLtDeF+BmwD8TTmhAyKsCoRZn03H4z5G0f6du+7DIz3OxUbDSWYmT+TDeDO6XKQ2jrlvujJgG9a/pUvPQ6g7BSNA7jFuAMmSFezqfzmdT8D8Vuyz7WBIubufxI4ZzrDHelQ0rNK40eAWxtac0om0+saREKINKhWrXIlyhOc/TZZYDNS8KGfVnwwQM0BTL32QYD+vzINtdh3g5NFOE9XvaPbE8b1BYVUs8vbpfNqV2u2FHjh/05j3b4RAXfIxm4QkyU0ELzwpH0atH+8NDtsKEQI8hqjwffCEys1tHTn4jExfgoiLG2a9Q0TdkvnysFl0NOLatS76fy7omPI2c7EjkKabsD8M8e/3OE+TegyExKPLDqkQ1tqEZDHGMF4S2flkpLsnv2PtLpiaTLcHM1gk5CAAKIzpyqkRJEyc/gtTTJOeO3pJroZwt7vgRbmDjLY4iurv14TnkbhOFGeOUKf5JGa55YJAzmDRAPJ2tlfVEwno3en+soo1O2/57ryq+SCj55xWPPLyb+2E1HD/+a2AEaEVz7m2DzXI11t7sTbJ5hRl2p59ZsJObXnKEFfmKKkQMiYIT23mvP2Rse7/HJYhZo6g6P4oJ0p32G6m9GTwmH8Ru3nSF3DOZhMSqVrgrUTd3wqU3gOL5u63x4r2zfn/zBFDt755lzgs0FVGo0PGgQUogPsDUillVDbJ9qvBD/awBEwp02ixmTxJar/wsTBLAMSxsEAatvm8UInxRKhM3mCCo89Jlrk3+1JZhJBZpRjZkKDJ2lM1nUUF+zKBNko6AtVdg7GFthSP7UQR1W4SlM5AwI4dIyuO67I5kzdoyum2YkHci4QkB9tHJ0uRq4e/xSluwhuK0gQLc5Dbm5wZkaP9SxsvQI143klDX1BfWISzeBL5hoF0bU/rfi45NOe9gSfWcdaDxYuqFuhkeOJm2WRG38MX3edQnKnCuciWNRr8E9PCBhyf1ZWeZ/Chho6AMI6idWT1WNKFjnSS9MBBfvowReEB6m18jgYkbT9K63dhwUT3Ad+CF0Tu7RyVumosuuXULYni0SOI9zlzPRMqg9IKT6JeKQqssXRoLYb4GtFLasMSAbfGO7fpCqqCkMgO2HKAQeBeC4Dis+AnOGMIpm86ZLi9XplY//uzFywbOFu5TJdWVxEI1JQ5rO69i3uAjLQ4uKqIJGXGZyt1+Tn0y4//BvnE/MyAfmwDYU42iFbNTDnBYpdJpdkiqvxjr9ye/opQ01/zwxeiUaJT8vFVgpSNvvT+xtYmgeJrl/JsPEWZYxcCPJzgLaFv0/xiTNHUF2krHIlUzn9H/uwwV643ZwjxPyW/nTzKEk1JdHNBJF1ev7JMtGJaOOG6c1vva2YL2POltM0K6T6AJSDWthuj/uqYh9AF0LKcapeZ/sVL//rHBE55+bhT4DPsxxG/59mgSzVokTW/ZqpGnpv76UfhH3GrKiKfKNEMxf51Q7wCh53HqVPt4FHRvjOaBE9LJHidN1qrEF3eQK4II5YOCZ16a+SEWXXmm6yRVA1COGhuugTrkCDbTFpnhmDheA+AAN6mrVpzc1xR2Q2h2OzJjQH+rus4+rsMSwG6NzksMvoe92VtFAPB/u8xey3ZTHlW4R9VXTQLZ9Te+Fszb/jQvWoeC1o6OQbBxiIl+/pmGPj2vd/6A3VSH/G7jAAtgyW41qwp7yoDGggh/s+0D3CInZtENjdGRDmESkr8ut8PTnU4IICOP9eU3ExACk8UeOzJ0aJMgs+RkSFyWpyQhzDE7Zz7+5EAcRtcmcbXzLX23g/71WzXXtXcuNS0obU+XQ0s29GNPsEowEYKmwNo91fgB84iXVuO1xm/3oHFvooYzh5VJAkHHZ2sT7HEi3bNW+O9WD68k3fPW/1XWA/luLRU6MZ1S4AVbD+fFBUtm6Vi3srM62ThiOdqdWbmT9SPRDnoFOKZk0PQp+yydbZOxMH0Lb7vZJBwvbyXo0PGgQVkgPsDWmfvzEbQX6zpjBhmYF1mR+QoyHwrYoGhirVKeHyY/zTc6FuUDY7liZ8/ypOVlC4nqupeQrM6NNyJyzCWc5eXmcwPZ73Q6jaN9QQYyJA4PRYfU3YXeK1XUpiOvzF6A7jr6XnvKwbsxsiKnMtdcMpAkO4PlRXHD+IybOYOjaaQEoVcAjkEitXG2U+8MjThb7tonbFx8N4QJe3ScQTnIVPoL2Z0SrXL9ZGmFragblpdRV6TaL9ky0J7N3JrrD2wMokfJPAijFY4EyyaN1fhKaD9xyeqcfwEJIK65r2jDnH0kSsbCr3SIO7UuyKUzdGtyAGrDuV9ndaM9UBZ6k/WpffvetDr4GukCSiSoNYIS5VDJbSrD5xXpbuokE69hX8dWdMeIGMlcQRPOQ+wUB4zm3mF6o8TY5sYqfE0d1XQWW9bmZ1ZwCcEq8uXeonbCsmqsiqRhBV5EKlygCDx/0UDPByn+i0ckqdFCJingB383lN7HtLD9bKVSOBQzAmWRoYOYmSV2lGCjvf3z7nP9s/13uIJAZak5wmnpuEU2+A3YonupDNAHmylVzZRmSqZ9QfssN8fFrHK5VLmhcMuZQ4LQrz2lGhnXSW/fD7J1G9jWaLt6xtg+E7FIO8TvAilKiJj1RXNXLCHbQbjIDpjm+xsV0Xa9Qoe0xDRFkXB8mmKe6xujsKa+nCHmkprm8vdgV7KtR9ID1t6ksoL1BzGkzTuxBh5xgjt0hh8wL0KZJm42QI/AD2tMDwZedQFEaMLkwY0TonGBxt8ZttyxyiW6a/p+bnHGcej61zjh4fNCUA8c5Z4yYEJAbrYXZybEHjNQhgAHSOosexBUe7yKlB6lTaCdb8xKVs+7t9oOCxqHIGpGRgwYglKFuGK1Hw1V3G6opjKYqS2k5QdseDT9ZXAwboG73gLXwKBg8rSwep5zMNjH/zFvKkweCyoIK0Mnntmg3IHkWgb1ROdREJxtIUEOVecQR/yzuqjpfUs0RnXGSVrmG0K8MN8dfZEQeLqUjhr4Vj3ZE9Ks6GKyY3zYO+q9K4tt5PUMMSMpnkJI3G9RZ3dH7j7xwMW7/SVBOjDLHbEnxpFo1Ex3+eJMTNWGSNpwIP4AroIkj8+IjM4W+C5sizGtou6BE78UWIbbGnbJd5eZb+hUghRPo40gCMigGBE9Ea5akxbg3Z76Wgw0e6r2uYuRh3b38J2q8lJ70FvFjZkJUsOeecb9js6vGVRjxxdJmGBkXBIDuBjmbdwnC1TdsR7VhNDSe9KNCy4r3svOLe92UfRq2d2o0PGgQWggPsDWzTFzctBPhN3fiKZPcib0WS6/eVHL7yRVGYWtAY+idWP9iy0OWbq4U7HiS5n9EpyA1sqFweq74vslfa60fstuAVCZ5e71HX3CQCvPVpcsJA8Mu1OPV1gVf3vf2R0NfrxckQWEbEmopEHYtv1Vj7yMn+cIR7niG/sYOKe0E0vcOT/n6YsaFZ/pOsTqz4ClLYySpgdIKfZxuIP6VzMvQT8kjhTATPYdohdOg5AOgMxCnKSxiCWxsMRPHr+inrGlXHW+LBfcwti165v5ytt8qZ2oo6UlEOa8XvuY4zRHLmV3GunKARk0cwQg2fzhhxeNX6OBXfpgYvNTnSa2+cioUJugVQjC7P1Dls+5+katGXMCfeEb3B7Xv4QcDnpV//y0scCakYBb6N1U3fXjHST3Gj6iLAGClUPjBQtSevlFwOnAltbNu9tyJinHDSD2W0FfOMNkGrJPhP+lI3jRGgumTtEEbVhzXWBY+S/j3deOgrOt8PzlYeBqOy5sMy7vGCKlKkqv8UYpXeNUQUWh0Q9pa/VvyES2IL8Iwvii9iiD147X/gq33m7vrcDRz1+Tj9gOi1oZGhosoMIovfD4bNjKaN/AH/u+DXJoYA93asLFF/X0o6D+4iEvYGiQNBo61jkWioIUHtgpO+URR3zgvGy0ylK4DmbXLNmAGiA0Hv0g+H8xVD9SQHuLXWyg75Vz9k6AvHcLQfwcMQbL4K/8gV/zZe1BoCcys6WFwCOemNAxpwOKaXlFWlC4sTdCxIe+YN36ckZcnD3KZrFp40p7E9YzhWWTQlR44pEf02/BA9S4lQ46PDzKtkMZ8Pi5pAIELytHeBlcWVGHqLRRGICpRGqUuRMO1s0Q9n4QS2Lo5ibzvaAE/4ZvZr0ROIRD2UI/596N5lbCH9VXzLk/7GyLViwPfYS/C7NmwPYedZ7gtNxB45c8Mjv4OdEb/1eLQFYp5QqfXajVqINhpLXufNIRzxmNeP02JGCZikjLkp/Yxbmwqv0BV6X52Mr/Cq2bUV43a0O9nx0THmTYCfYv+TA92rWxy24nAo/CVgYyvFo5uBoLrtEtqNB97D0IghYyqYRfag+ZLqD/e4XUSN1itibEbXWcIeL8SThTUe9ik7Ie78gaVs6g6Ed2JjuR/FhAdvWyvXV0Tejahc2xG7C9Scj15kZ9QB68VKwSTQQlOlzcvzwSkcSU1bOlI+ojTcH7Wmr9cDhvGaTs2OPPddREZAARTHPfAYYPKCwnM/jcEpK8s1oj9lYyjzHndzSz7zwaKqxjJGG/ERwo0PGgQXcgPsDXgThfYcjfhJmd/A6TIFg/eZBKzNKld4hx3Kg/uLgwkiPLwlJjwnT32mr3wkL8M1xyb+qwSN4+OuvgFCQCbIQbayce17kHrSQ6Fe+diQtPPpS6HcqMZcbCvzONFIVuTWRMS2V8UWHASO8r4LDuZAUW1GqYnq9LiP0PtiYzgfmXhoZkbpHXQgyYXb2syG8YnHWWB9lN/VMSsIKx3srdnqxZIGXj46Fe7oeBGPrv4sfsREJHk1YbzHzWi5MSjt+8egPA4nW6cr4YeJx3iX/hmenrQ7DSiX1ZVneTUkdjpdKsrrR58hmhVqPkPFjVcncwjTXcV54b4NVogrmgarwDSmadDfQohqstUEQoMDvngFPIjTe1uuwT+PmDwiacN4SbRBIRmXfCeBHd+lFJy3NAJYQ5FbB8i06hX6g/nYdhTDZxAbxr5l8VX50Q7cFQUMPo1LAKEoFdKa8j6S6+/WE9ezMQa7+YP4Zg6yjJr7u9jHe7WMy/LkAux+oQkmFD+0/s+T4t3QXeoOz3/K9GnE8OWpNSvTgVLefhPoORdiDjgxyFHkmdoKdVnkAcwFc4IY4jFHP+wnne1/lKvrXweKOIqUkzuEN3UZrLKIBwUwVTYkYhEOIf/DwElqS5ENCimdtJHDm0b3TMCK6IuAMT11YBbo8O4OVjEOrrIzOxzlDMUeo7BTuzmrYzX7wTugeZnV5CLBsoGFlG559rUCiv9KMtR9UfvP6eO91MPoONNGKJARaKtIVo4jcSc8PA2pKYCelyVZHLq2AGs3h7WB/prhojaaZug7q6Q02k89j/vxV2cvYVEpOWs4HffpSZJmKor6dyB44HFkI7HAji9Upop0L25IjCV5XFTLcWOYeN8TrilccNEGSZasvqbBEcoSut3PL+G6Ma0tP6pVmOeGIm6kUEwz7j+epSffJAbQ1WQ0xrHXWW1/AzeP8F9FCNqUEo8iGTTt9G4tZL5JoDhfX2a+z4Xd5HuicIbmB9+UyGcUkNFYo0x3cOWjTJkojoCxf1/WNU1fUvjqUT8y1brA/2bfN+H669cdOz5iZwgaKRDmk+2+2IUNY4dMukqSfvnx8l2d+I4eRdfuj+IO3F+ZqrsEl9TLFjlHS0uhx10QhrXJ49zo5lOACKDxZxxzqPNnHUCbAzMmuv05U3r7AKAnluzxYMGRoe32izna+fFSyEgiulAn4b21b6xWvHLuQzh/20wH4o8JtZd8c6PaiNyrPVx7NGwcU8LY2qTaM15G0U+EtwSj38+cbj7qd+2p6mHb0nc1zHLBno0PGgQYYgPsDU9LW1LXOQezITBE37DN1jcotYG+DuqsgM6XEZEnXIraHXG1CoefA+SyWZL7xUmv9Mxa+RQ9aJskotADJHUUcDXFc9W9xtN9bK0hcFyYtPV8yP+JhLzYHXOl/iQ8NDCzkGfmCUKAYaWRQyYmyPMZBIfaYqzF5IroZUXW/DIXTUhXmZuyUz32IGGdCp5dZKg6JsLuvJXKrx3HnbPc6xiLvLIYHSRfrM4yF3Yx2WS4XsYb9m2SxfPoSmobKogXbdbSTBNZLd+j7AgcN+MmcgfMOJzub8pXDV+xmzM9rcLT98DlLt0Nf0hv2advTbG9SRln/1meyNCczpZv995NJWgcILUewWCw2Nfk29YNlz8K6iwgaZQcYdp0QFznpCNK/JkbyYJ4sDi6nHaE340VsyAgDBwv0863ZetZuRnHViEDhJAFbQhr7qyBJuks6hkJVz8NrIQwPH1GypWwhasLTcf7Bq0iTR92h4sHVx4Bl6WL5ysZ3ezfj1ZXH4To2rHN6oUp/EcseKJAZJziYciV1Cd/KnM6xQLGtBV36GeUIIHVtfIqK/IiADXcAHR8LI2T/XqM4AlUaQdtxjiLLOzHmEBj2g3luDYdrWx3ya+2/UMY4KtPOTmsOlGOoRk45v55sCdqLizg8EoOiDByHvKZa5E6tj0M8FCe/blQj6inhYrpYI4DKNoGiwdry5dE+OHj7Bqn2vtDIp2FNLPW8zSofQ13lvcMaZM6ylsjVSBNtR2Vn6JTiNcf0RG5p/Nh/Av73aJ2D0IkuO4IhJ8U7yn1Ign7ZD+kCBbDa2VJ+kR9tT2EJFzSIwWlBY+PEKk0LPsC2OkLrYSdYuq40Ghf5qlUQhmhC/FqaaPRzhGEpegL0UnOfxf63qutRNOA2mHeVMujgdIHs7dTjhaEZKqZ5vLpFh+6dSARGJwA3P14s31bsp4l1TiosKRu5hS7yBRx2R4QxmRl/l9QTV7WvauHH6vywTH94zXmuWgcN3ZwE8djJjiAaq1f5wZ1C7JQn8W6icpZInqeNEM5ViSxYAYpW8sm8pH71GLaAiM8u2Vs9R1vv1od0Jk+AybIGzxAK8434QoPAgoaTf+brYuBq+aBbRIBLyxuHcjxPxZEHdy/ARMnHA5hUu/OPNR8U+63Bhp7M7aoMw1leiD7oO6CX3O+Td3Ue7olHSkoPuLPh5hxhWVQ4OnMM824ae7ORMGoiISHG6gJZ7YFuCYIKtSiZBvyiw8iEXfCSZ4V9le50ArvBo9qoxc+4TcePoIjncOEAOP/bECREMTHOo0PGgQZUgPsD3NUGPF4acYYFnmPfEluBjEiy3jzdgDZcqppSvAzkT4fsL/YzuOyeX8IYZ7mABt9t9YiR9dDptjuf4Hgc7kAdYgJ8czPFkX3nCL7F3sm9nq3R6OdlQmAiWclDX9n8tXQk62yi8hlSx5N5cVBWqd/1umGK3f1ZMyuNavJ2eMInJonRMS+dM0nN+Bl6CpH72DHlenHyRVIvr+6jML95gSvP5NmTyRRzaXlqoUIssgEQt50w6rITnww30I5SFTVibytriUuS9P+Pj/dZPuXKRbn/Z1MSAaRTnTmW7ie0ypzDBGMIprM8euUJJ8hAM2eq/Tbg13+c62ihBCcVbjpUwv68U3NWOhK2Us2Q9ZuTrnaxQ5od+2SkaA1L0L7ZiHpaWFqQfmKhQ1eQmemrnvKu1qeKC3SKjCgcwbcB+ub1BquywWxaDNZaOv1IjpWATKtHn5nfO06cbQhGvUkDlFikKyzZE9Y5PkGMsYbSsE5wNpuS75CKg/uWf7hs4lqagXHIlyBIiY40wFBHLjDRngCauHXT/EgNy7fR3nwPB9yIMG62Fq57NPIZW/sULSxd9jb5l4m/e/1FpzUpx5uo0AFQth2V9w+Quu5kr4hO5n5aoVLgrPYc5yoX373Ws2K9S6ECdCCLWuv1WDEY+9eQmSmOfrSwxzfvLgP6Duxsa9L+en+ZfITJAbUbK89jWNJJa1RoXKynputBrbSR7gQ5GvAK09MByvFdnYMAmeHUJ/Y0YuGZ4+0rEJ40e18XKisXbQHIziMcED72HuI4oyM5Bd9FcjCBGniJNOGu1vGtFtKflLhLMr9Yjs9/3LS3EGbZ4nkL9n1E2GPv/Us1hT+WcyLO9Oi0CVqazD4WhTjNrPhL75hXKfYzrpmYNu7Ndui8pyMIDvILA8lpKruGM6XIBRb4aBV5lgDrrarWsn3UtQh2jl9msAswuYzwSrMZwoQMqi84n5JHvATj2ql3mu6QSb+5Md2GotcJ0T+9240e3JEb3HOu2IRxtMwHT2NmDiJK6Di8zqEQLAVaUAS8QPSZOv+W1Umq+V3jIHv+jyZxqtDGftcYIM1BSoCJ0FISmYjuSEiJGcJ9wvCAVYPDih7AADvC/oapwh5Jn+GxrB2Tml6WYAO9+TwJEUAu2rI5n23a9zF2FAF+APCd/3zBjsHoU/+KHyDbfC5/1ocURB1jOutcMQwRcOAO5pFM3cO49k4ZJiSRXlXLGew+sxmE/tQNUBMyEHSefnr2l9Ay/De3JrTySpFU4AZ89xUNZjuHdrk9ZErgs9Hmo0RdgQaQgPuD/BH8EVs72vA4wulU+jSSyJruuXFwIH0PLeFyH2dKDNJI40ZajM6Yoik8Y6iuHI4JugJ4CMiygj/ZQi59GNhh5jvC7XxY0AEmzDfHz4w67xFP6fKkxbZs7Av37HQXHm5kucMXgrsEGCF0dSKB9MCaCBdIhSNBucIeLeYfCb9NtQScI2R7EzQ1Ex71vxIVyHaW53/RWQDgp+ccZGBvn3wl9ho/C2i1s5u3Oc6iRO98/M/uBLVY44sGOZdWLQeA3HroH3gf4rD+oRNAIEY6do1AIpcAL70e7qgS9NA9nQnfj5gq+DYzCAaqZJCRm4Dc3Eo6xnQp+qMLqVti6NGgAkSTXohNhIV4vZUgz9ndRnnEX1V38p0qj97AHKfCA5OSo7CyzyqMHeS1WHg6PRwY5pByBOis8EAsw+EpQlhkLgJuLNROcfwlXgAxIBx1x5yDtCCu46Z72R1bVum7cOL1btrnK2csbWylBeu2WLmZHFqSHylHLLkOTds4mGjUf7mBZN6jB3rfcU7SXYrt2HfwcVrHKhPpsl72BlCxbDotds1KjQrEQ/Lg4I0Cv05/qjprr/EtqnwqtHba1PDTreLbDmIYxXDCwfV1yBRbR5pgKC7tapkX9LlXTGjsYCHNEilIL3Jyyh+KnsgGflypxM/s6VyMzKYK+w3zeLGa5/AqXtCWK+yM8lKi9Cm0AfSAp9zy+zKIk2mh6PQAkpzK1uwYPYzCx5VAvBap6RHI7txy7eYRElRFOXY96KBj/1qO6ivmZdayC0thhXBRxGpPRpsWMfGi66bxgfv9lrwTczc4qKjCzLSYQc1vv+VWa5v9IFxtunL5da9IPT7xcWzCIgKo9vu6VaT4Bxd+vPAwUHdBkBeOTlrEEQDZpZ9RTzVMSBSPUCyZ+hZZ0rtqfKizWWsUsaJ5NYneOrxckUbKwBO212Nro2YBo4ksljYQjOtJlpX9rdVLa8N0RYKlM7oxDTDXuY826BFNAbTDwwhmQbx10Xj37+/FnRsqt46IamMR9gIvzLflXQP26uLAYy74GNggJN0jSlfk1u27gSHHeMzCG+tzeNSpPiB1f12NQu+rtGieTqrH8C1QExwzz4yBIIBTfzVqvKQBfBbUuJmdUL/j7bmjWYHHKBW4nyDGJXiYrtzrWxqwcI4UDJaqlC+yk4ZPr9xpehsA6gCKRfGXezlchpaSRZH4tosJiz8q5leVQVh6pYlpxbZm/0srJFCoLgdPL1h7g+OQWjc3D6JfP+r7YBg1wVYl5xTkr1RJpf4Tlbdwcgq9YGcUYa7/38R8fFD+trYnS4vonY6GCf1+z/kq/puxRYwVE9MNYJqRDSbJOoqYTJmcHaXIIAQK++PS6APPt9WkGICC/DfznxO7HkxS5edg5NedDzb/iOlcahaUMvVccyAGNDgD9RTVilMv5BgXFVI4gcnIxsRE+xNjEbnZrmi1YaU22hdaWVmkPyKfINJtd3L1TQAcfRu+wQ==","14"
"","","","","","instructions","18","215837","0.0-7.0","gy23kzkewxnhujw","gy23kzkewxnhujw-2024-03-20-17-10-15","1415","","[{""page_index"":0,""viewing_time"":1414}]","","",""
"","","","","","image-button-response","19","220340","0.0-8.0-0.0","gy23kzkewxnhujw","gy23kzkewxnhujw-2024-03-20-17-10-15","null","","","images/stories/paris_story/paris_story_7.png","null",""
"","","","","","image-button-response","20","222170","0.0-8.0-1.0","gy23kzkewxnhujw","gy23kzkewxnhujw-2024-03-20-17-10-15","1828","","","images/stories/paris_story/paris_story_7.png","0",""
"","","","","","image-button-response","21","223973","0.0-8.0-2.0","gy23kzkewxnhujw","gy23kzkewxnhujw-2024-03-20-17-10-15","null","","","[]","null",""
"","","","","","image-button-response","22","228476","0.0-8.0-0.1","gy23kzkewxnhujw","gy23kzkewxnhujw-2024-03-20-17-10-15","null","","","images/stories/paris_story/paris_story_9.png","null",""
"","","","","","image-button-response","23","229987","0.0-8.0-1.1","gy23kzkewxnhujw","gy23kzkewxnhujw-2024-03-20-17-10-15","1509","","","images/stories/paris_story/paris_story_9.png","1",""
"","","","","","image-button-response","24","231789","0.0-8.0-2.1","gy23kzkewxnhujw","gy23kzkewxnhujw-2024-03-20-17-10-15","null","","","[]","null",""
"","","","","","image-button-response","25","236292","0.0-8.0-0.2","gy23kzkewxnhujw","gy23kzkewxnhujw-2024-03-20-17-10-15","null","","","images/stories/paris_story/paris_story_10.png","null",""
"","","","","","image-button-response","26","237121","0.0-8.0-1.2","gy23kzkewxnhujw","gy23kzkewxnhujw-2024-03-20-17-10-15","827","","","images/stories/paris_story/paris_story_10.png","1",""
"","","","","","image-button-response","27","238923","0.0-8.0-2.2","gy23kzkewxnhujw","gy23kzkewxnhujw-2024-03-20-17-10-15","null","","","[]","null",""
"","","","","","image-button-response","28","243425","0.0-8.0-0.3","gy23kzkewxnhujw","gy23kzkewxnhujw-2024-03-20-17-10-15","null","","","images/stories/paris_story/paris_story_2.png","null",""
"","","","","","image-button-response","29","244170","0.0-8.0-1.3","gy23kzkewxnhujw","gy23kzkewxnhujw-2024-03-20-17-10-15","744","","","images/stories/paris_story/paris_story_2.png","0",""
"","","","","","image-button-response","30","245974","0.0-8.0-2.3","gy23kzkewxnhujw","gy23kzkewxnhujw-2024-03-20-17-10-15","null","","","[]","null",""
"","","","","","image-button-response","31","250476","0.0-8.0-0.4","gy23kzkewxnhujw","gy23kzkewxnhujw-2024-03-20-17-10-15","null","","","images/stories/paris_story/paris_story_4.png","null",""
"","","","","","image-button-response","32","251303","0.0-8.0-1.4","gy23kzkewxnhujw","gy23kzkewxnhujw-2024-03-20-17-10-15","825","","","images/stories/paris_story/paris_story_4.png","0",""
"","","","","","image-button-response","33","253106","0.0-8.0-2.4","gy23kzkewxnhujw","gy23kzkewxnhujw-2024-03-20-17-10-15","null","","","[]","null",""
"","","","","","image-button-response","34","257608","0.0-8.0-0.5","gy23kzkewxnhujw","gy23kzkewxnhujw-2024-03-20-17-10-15","null","","","images/stories/paris_story/paris_story_1.png","null",""
"","","","","","image-button-response","35","258438","0.0-8.0-1.5","gy23kzkewxnhujw","gy23kzkewxnhujw-2024-03-20-17-10-15","828","","","images/stories/paris_story/paris_story_1.png","0",""
"","","","","","image-button-response","36","260239","0.0-8.0-2.5","gy23kzkewxnhujw","gy23kzkewxnhujw-2024-03-20-17-10-15","null","","","[]","null",""
"","","","","","image-button-response","37","264741","0.0-8.0-0.6","gy23kzkewxnhujw","gy23kzkewxnhujw-2024-03-20-17-10-15","null","","","images/stories/paris_story/paris_story_3.png","null",""
"","","","","","image-button-response","38","265421","0.0-8.0-1.6","gy23kzkewxnhujw","gy23kzkewxnhujw-2024-03-20-17-10-15","679","","","images/stories/paris_story/paris_story_3.png","0",""
"","","","","","image-button-response","39","267223","0.0-8.0-2.6","gy23kzkewxnhujw","gy23kzkewxnhujw-2024-03-20-17-10-15","null","","","[]","null",""
"","","","","","image-button-response","40","271726","0.0-8.0-0.7","gy23kzkewxnhujw","gy23kzkewxnhujw-2024-03-20-17-10-15","null","","","images/stories/paris_story/paris_story_8.png","null",""
"","","","","","image-button-response","41","272420","0.0-8.0-1.7","gy23kzkewxnhujw","gy23kzkewxnhujw-2024-03-20-17-10-15","693","","","images/stories/paris_story/paris_story_8.png","0",""
"","","","","","image-button-response","42","274223","0.0-8.0-2.7","gy23kzkewxnhujw","gy23kzkewxnhujw-2024-03-20-17-10-15","null","","","[]","null",""
"","","","","","image-button-response","43","278726","0.0-8.0-0.8","gy23kzkewxnhujw","gy23kzkewxnhujw-2024-03-20-17-10-15","null","","","images/stories/paris_story/paris_story_6.png","null",""
"","","","","","image-button-response","44","280285","0.0-8.0-1.8","gy23kzkewxnhujw","gy23kzkewxnhujw-2024-03-20-17-10-15","1557","","","images/stories/paris_story/paris_story_6.png","1",""
"","","","","","image-button-response","45","282087","0.0-8.0-2.8","gy23kzkewxnhujw","gy23kzkewxnhujw-2024-03-20-17-10-15","null","","","[]","null",""
"","","","","","image-button-response","46","286589","0.0-8.0-0.9","gy23kzkewxnhujw","gy23kzkewxnhujw-2024-03-20-17-10-15","null","","","images/stories/paris_story/paris_story_5.png","null",""
"","","","","","image-button-response","47","287302","0.0-8.0-1.9","gy23kzkewxnhujw","gy23kzkewxnhujw-2024-03-20-17-10-15","712","","","images/stories/paris_story/paris_story_5.png","0",""
"","","","","","image-button-response","48","289103","0.0-8.0-2.9","gy23kzkewxnhujw","gy23kzkewxnhujw-2024-03-20-17-10-15","null","","","[]","null",""
"","","","","","html-audio-response","49","475904","0.0-9.0","gy23kzkewxnhujw","gy23kzkewxnhujw-2024-03-20-17-10-15","20491","","","<span style=""color: red; font-size: 24px""> NOW RECORDING</span>
        <p>Please say out loud the list of the actions you saw. The actions can be said in any order.</p>","GkXfo59ChoEBQveBAULygQRC84EIQoKEd2VibUKHgQRChYECGFOAZwH/////////FUmpZpkq17GDD0JATYCGQ2hyb21lV0GGQ2hyb21lFlSua7+uvdeBAXPFh4Vn6l6uqzyDgQKGhkFfT1BVU2Oik09wdXNIZWFkAQEAAIC7AAAAAADhjbWERzuAAJ+BAWJkgSAfQ7Z1Af/////////ngQCjRHKBAACA+4P8Mv0hfYgiXZ9tIefpzbLqD8x7SP0NXVZcYEnBfbaqsxapF+geSBFSQD+vgMj9yxSCerFSOQq82EeafG/fy38yboza0ZLB9iYaRi1NKd/yRJmdoCW3yEtY1+IVdWn8lrCybtwbMe6sNfmE63oRb5KPJaycZgW8XLn4DXGf9E/+ZvEPOnNa8wL1caCEkMcxriMX3KEi/xZaNgXrKkktaeCY9e2A4fV2xVKX2vowbAHKEPh+AYPKviMWzXflwZ+AyLgyMlVxScSjXbNrTPyWAAAAAAAAAAAAADj/S1u0vXypTw9LA1X2wQT+3iO9e9eJKa76AzhVv1TLCtkhhJWRsVcoHYMU6ePl4tYM6Ei8Bku4Iubas6Verzk9rwNi+UJU4zIjldLnF5OY0sZJvtgEqdPinlJ+8YGi8nWH1r78mFh0zj7WHnlJ46PhfCGItiSq8yWuo0K7fQ01OlLvkX0l3DnUXdtYexRsKnyPO+VZO1TrRZRV6VQosszw6vtI5u7zv9k3okSvV0Z00X54rks6wnm6S59nSrOpOfCsdXGW68NA4/iavo1tNxugNdlrKVXqx53uyhR7K60lqM9K2nfy6ec5svedTWbc4Nh/lL5uIKn43nhcPlsASPLCHnVP64qW4SVMb8fHxrA6tcYvotZG91GWAjy5Ja2FAerT9Vz7In9t6wAqi6adorZySEqZ/rMngtbKWLqpOxUBhTb0ciPM01VUAAx2uz9q2iBqYhX/JAAWgb+zPfMvBQnbbfRl58HrE7pwcH+q4BU9lf00IzPUz1i6H3boDdS/ftsIa5dCBH81l9HoF2fHK3vChC/kMsRdeTS1zCG3rUsW1J6k+23GRsnshHsycH9k12RFjQGdAFvAPf83lwIdJ0H80KtA7OLaDYbBTZ6El0PY7NhVbSPiNsC/3n2EzSR3Ql+HyExiOs8xD8gBXKFcNHlFuNfMQmaQ21sb2xLUdtQc60EXVRtJ9wVqVrf34IUUU0O/Py4WHHBjHad0r0mWjCRdvHOA4sAWnXAd35nvmieKMXfbAy74SkYuZbIQsFavlFHn985XFBj1ctuIaUHI+7a/UL6RMp2gXQOY2pAnhNWZpTSCY6gYeRKptWnymBnXfj2zUbq1vFW/ZkRMKgiTKQuREJmgB8VAtQiaeKp0YD8be2ZJthGJ7shmHBhWlpdG8YcwKXmfv6CxXs+7h9PRL9pvVRtx6Y1EB2nQVTog7yEs/Fnln6cJPuHHXdfon0UeOvqVeRI3A/Ar56NC26SJaQ9+bcrVSV+Bh0Onv4JbmY6JBRxeR/ecOFTwe4LyG6m6PoqZufb5XDiaGhn+DQ4ydOTLVRUclTnUrLry3r4/Plvew+JATB65gsiSBQL4SOT/ugyCCXFeaz6ipO54LnROO+rAXU1dJLzx3IJBthS1lzYUrDisyzQ8sW9H2QahB+9UI/IPIToz5YM/wdJwq2a2gQHWSgEKJ0B7gazl3sYdG5Dgg5P35xsUcO5fcFMWDP7hRNQbOx/qo0N7gQA8gPuD/gn+C1l13v6HlqxGTl8+cTCUS9ypX7TKp8pD8Zl6ToDggBjGu2USriJkbzj0zB4MtFAifPSxOKKJsP1UUyVkFjezdL6cOxJhCkzzsS3MXZ2z+vBfSAUT0mzftW74WcP16dW5gInKLlETGhVrtmAMDo9IuHW0iwFJW1podApmgWmMuYJ+TyAGv2x/btP717acBFJiR0yhwutO4eHJhvwDoB/w+CyA9ugvzi/ofAxJk8BDSOWyL/0Vn9KfZ/DbFWolc6l4Qp5fGy9O6Zo+1IMHVcdRm2mb49jZmcgydx8sjMUk+Qy40Fb8JwKqgjumpDWw12zPHMkFccvdoLHnq3I1oThLGVJ7fR5IRHtUKY5TsiCnUmxnQ4dZSmHECPKCMPpEQqRpf2wfUK23DFmmfuDnwkKOh7RBCC8YL3JapRxrocuGlwvHxk1xyoNZbB4+r3UzX8SrAFJCu1vuQqDmWQHDd+Gnb8KLs4UxwKgxfiH+/lp1SRkCWBj1LeVqiB+fam5+AosFU98JgcRp5ZeEJ+57lk4M7QHiD0QEESM95FjZIHgzIpMgxMH8YkvqoHQM5XQl7kr6gFYPrH3zwp5AZfsUGtpmYdpbxI2TqmR+frsb6CUEf/aRABUKRmyiq224sCRu49PjFjI58or+/eWZpI87q4Jb2cGkn3Gz5R5dqXVAOznI1JAn6NgT4eEHkqEQR3bZWN8AADNZ3hzcDH/VRoX8D1gkX9K9W54EYhS6kyPwqYY2KH3mJ+9fqJBEQ3auvO+S5u98pVnTkeHLSxwUD+SjBVO5AACqf0bJ/b8USmc9BAMgULkrw8SOAkwlN3hJQE5Ex8KRsq1DiLsl8BdDbWlZIyAqiYemKQL6hEYaFz817x2hy46JwR88B6EmQopZLUfs7AXKblBq8gxlBS809aeNxUbs7H9TAwRAaPBUFOMr+eR/PA0TTBBuzPfcR9lSdL1VIHrmMnzJ/2RSmlJI08j9528JIBmFhrZjOH8HGYhQVV3DMrfbvEbdSsqagWXIilp3wpaRr5dRQi2ec5qT2Woa8xi0Wt/0la7w1KPG4hGgVd7gyE3aOSFDBSXJ6zddCYh5jJMbMe0cv83+qN71t3oMxxiZUUrEXtLaWJCeSpT/YJrYppOjzFC+p2NVJiVyRnSGrYPYoshvHnq86r+o3ncgmAycWSb8o0OFgQB4gPuD/Av/CllvEV6YuBG5dX5eNnCAIUUx+GiqIcc9o32WH0BCL4AXZMhs135zGcpywkOWAIXeDPfBdVTW9+QnAd3ammhAYCx+hI/68Svm6zqyb5cSq0Ek1aPKYXcRYZKSrfgUnNNGzKXubMjd28BSm1HiHLtT3yedtEU6hhHgaOmEgtTF7Lq6pSOPIDvHx2tdDn71SHbrXQAinFOp4dH1FGbgKjyrEIeSmQNopEj83nQ+SnlIbNyzrwSgDgJnky2L+jvnPWZym8vawxBxuuh9Msj/MAmoP/45n61MhRwgo5BqkHhdSfXBFKPEX7D0hFmMz9hqt2s14V+QScq5z/FocQF4ruYTBlNc8YO7Ymsa82ZUjTwloTANdXO/7pTYyXXIJfjhOx+EPTQP7i0XM04uUU5yb1AEQhcn1lmh+sLGvo60q94YUkUNHlL71Sllxx6/aOs82HMgF/MrY23p1IQvMoniZnwewcUdIjnyVVmQBBEMbQWHo60r+I47kdjPWZiiijy9nnN0VexAZwEz+wI/gEnMIGXQn4nHiiwGCr80MwJqrYdlqGMTRwXDTrqDii+YYmbjW+YTFFfMVHK0s57ghISizZ0F+kmCbascX0AWybnVoNHl9xwf7wrzGJOj7nEtXi3Rh697EIe8ZZmrZwRFsPjpqhlVdfHCLMxlPWOa7yzotm/3J1lOGlmU9yQ0sCBJ3tKfpjQZBqsQp/xXPAKcUKVHNYxJ8eyCFPJ1e7atPEqI12NYgHZkRclK9jBinz7bVEl9aGaxJdDFE1XZ8ga+xmUwHMgFwVO5ewW4OEOfirFtYsgCxORBvRwioLrOnZcsDqeN6Q+Qflv39FEf8jDVeCcI6VX44QDz0d8q3/AfXFRLmhG2wBkzr1YWp70hO2US+wxoJSwZ0U2rWxkIuySLen8ZNvpyCG08HGhdTsjB9DIp8NDTrivNIUFHPXWWGAMr7BK/mQ/mMhu5Ol5rrHqRNjr4b3ELrlXhnQnF10nmP0granw95EzAuppTcNhoTBFPflGwdZgqxQeSqeleKfJ910MSTO5y8eTxel2iaWhP6Oe6pow0eDe1wc7usLPQZrYf6gdu9BodVH6s8oztl5yIhOvyuS4NZ6C6zSr/EXQQhEbx6MgegTBFzBgrIstpDBNptQG47GCGzRjL+xkm7LGudgHqLptG1rKAOMLlJN1IC9V5eqNDtoEAtID7g/0M/xBapJUa2zyozOBIcpdPzpLIy6w3YhgZWYl+MCX2ANBBEQJNQrFPRP0GQ+Sx4W58V1v32yU2U943Cy9xlmUc40CkP8ECBkNOSrLf5gjLMsB5KlVR5pZSGdtL6sD5w5Guvjbzu7oy2rrzdhI/cv9HtYy11QfAxtGS93xrJJpquSfRigZEe5kUomXbJxkJmscCUs7Tv5DT853wTYGOGeEyvRgxbEfm5QxS0EsYK5I9Q9mPQqYNJPIhS2uQ2P1DecmTIcBStancEdEs2vozExpZSbC0r3XDcEvKWG4baZj+bBo4gF/XRSVMBrmHJfPzTal72UZSnH9pa61WRQZqpfvva2v3Fk1DlZH7UTxCHBkF34A41s13dK6NaNUL3bYP9JAAseUBJqEJWQoA6hbDbGh2W0tk9V838HFegW6z1byd2UZ+CizMuGgG8wuA1TzgEcAYt9R0iDU49OGQ+LMiaFet6IJfoplVxAvjCONxxVP1cZYMtvD6RZ0RjYpQGcmmMnLgWzlr+npL0ATDduKnH/z8Blr8t6qbTiEffMQZ9n4To3IicHf2lc8l7rcSPuqHQOIedeJ9Ly3KrQVhjauRP1ULmSZQ1f1ONqhXGPRl8bG60EV3itNbJfqvtrsTzy1muGf25glVmAwlh09P77q+T1ZxwvQL+pjHXMxd9D6uxq3qbZsIzmng9yz8MILuGR4Vtsukz+wRmIyzOYBIXKnfwtuj0rvIlF+smi+WhJ4HJVbbMiwjRjJCHOIgHd4l+8wMc43EVQ5fXFQM7urzkSG8rwG/zxfwt1GgsdPJguHOjjzGSpMKpK/2JZ3JF0/qyGIgrlCX2f2b/aJw+wiXwQYmEpZjol9b4Ys1beqMuxhlTTVjLtb4URF2n6SOKJ/e6pjBfm5vsSd7J1g2gqEtd52wQjwNJPCX/XJK3SyVU+Zar1TkFQa1f0SLL06QFRCzYgxEan5H34J/GZq8zfrYqV0faysslDwiNGvwOz3C/Q85Q1iJJUJmO/qN1BhRyK64RPhRZ7NeuGcztLUzdQ2Ea1MsG0p8VZT1Vqj1RWqmf0cWvBh1kT5CBNV1eAeDLgseD+Skp1516CgQ9ahhkw52Vecmmk6oUCcb184257YuGHBDkewq0q/v6hjGXX30Rvh2+UcpLnwhnZEGmqW7nWXN563s41EdfOjsYiS6AmnyeRW9ftxNAntHgmwitq8LWa8Fcx+llP/SBG6Alz/YgMasU9gybnUHdpWrKtLEqgRJixFOfKCLo0PGgQDwgPsDUgwiLlNVOPCQlRCYvVSnpOLkkY6j0XgXf5YcKSeMdR4DRrQVKjGl6k3vAl66z4vFVVqyc4Zm/5WQjVHSt+Xto0PMaGL1KcdX20KqPs8FYhcmH6czhXPxgDZ90jKfrUYHdlrMc6n44xP4CgtLn0oPKmpJUrd9GtyRo77Kart16vLWrS0bwgc4nSeiktlom8iSMkRR8FJH9Y99gAA26q8RZrXDo2oCtrq7zj5O+ORhVaJrApVO7plziMciDa5haJv73MQCPaEJEonwtaO3gFLhnfY4OY8kWt/G10cUkd/dnBsDch3aOoaBMY/iDC+30tRcpNMbgwrndvl24p18JVfAAolI3zjJMUMFCdGg6gPLPFo/zohuP/QZgCJbIg+4h0f5GSCvaCiLzZEAvIdWU6B8VV7BJAsPuxMu1gVFKTRQLlpaVfEDTTponOyrvVRPw+8uDyDfECvI5GRWolRs3w+EOX+SDqBhv5OS8a9nw36q9IGPILF1TGSvaM6kTIAyhpTG4oH0JrebJpOWDhvkPPgvd9TpF8s+04qM9SuIyMmbCHodcEo6mLQQywoV2KEN69yZAmXmCBh2bPYZ0Xmwx/ljg2uDEPvbmQQ2DxgDsMKRLA6lVt/c9to2XiYvNIrfYzR3wlOqE+SD4Z9UN7OODVrOfqVAUzCXCovxTXwZpRqDBU3ZskWq89EaCGDwumHmMUqB17WIi3Zy+oqIhq6xPnHWAyZWbXe9vNPziLtX2WScgEa+sx+/1c1jtqk7JxHzOKnKU0/XaLQ+VN8PdLAGEECDjkoA00Lp+tRc6/UhW3VI8TASqrr3BnphOvyAnE2jhjSB6ESl7PcchByzr1VG7+RWPtwiDcA9cMNP17elg5YMaTkMa3qtaRSqJUonhn+jjiFG+SvmeKwoU5kEAtPh/Rd0dFF4Q5rsuAdIxFrtYOb6QatPeh6cRiRCB4ogW58jovY7OOYWFYpYTXRF+GMFYcIYnStXpNnANC334qOvGE05Gl6cu8+NGEq93RqwaSxyljFEzZNjep+SmJkie6bP6UAV0neHguIRQw7XgvEOnEzJfk/tH0sJjdef656mXPWvLznpfLCzQXUa5H7KAW5OBqyy4FRwDR3IHPEdXNZ1jUrmDzuN4JvRf2nV5Cina3RYmxEBd0+4vYNQ1rBzFdk8yiQeli6KzkjF+oGQlkwxg+sp1V7KGfpwLVSoqFhzGD+D8JnSLkkxN6pGGQjy4W4VGAf5eBJ2ZU7Kl6tsOGCwsbcZbqY+GODgQSvYCefJhrJN/IGCo0PGgQEsgPsDWbik+lfBWyD2pAh8YaGi9EKQryFvJJzWhN92VD/KHfLDx7q3lXFkTkzggEMd8oBDQqMUdnL4QpNZRhlEX6pEchL54sIjbFDV8V2LzoyH1UznyANev9iE6M3Qz962I2OGGa9Lgfjbco2k2m1dNUbq8RzB4h5wil2tr6SRbuNEN6TIPIwCPsP07X9OFZatSELAd+zhA7kU36gwjLTsf4vWzskYSR3/oCKqqOs6gx6c8E813kIfuXoJDKKMVlO/uvi31maHoaSNqYHlGqfCf457LSGlIdYZd9ZFFwzH/DBY32UX2zQC54vBDtwIkId6piVTOBP7VAbGt9KvdnNqwZUBRTMiD0idNgZstfiGyUKhudr5TtCFod1LA/Aj7XMYBAPHg1gQYX3+Gs2yK34/wlk3vyiRAtqw3y38+sc0KL3vGlZRtEaNYgos7UJvxQwe+/eELU2RQ1HGQfY6C/KS6OCQi7S5OECayzt0Oqv1U7XADXpp3/4QVKsyHD+u/ExtlzwCBZQYDw56U/0m0wdPtGvo8Oqd6O102ZpuHj/NONN+J5D6lSTBtKBjYYpwGtnpIdxHTHL+5UJABG077GjFKZsXVAiezK6+VA1nijrtl9KjrWfIBsxdov25yxDxtdM/ad1kLqPBxho4bSYbIj+zwKdfGVVmpQax8X5Akp8KZBmNNmRrUo42yJrIcoxK49SthdAlxR4c/dGBBu+8Z2H4QMy8+KfPMUK1DAJcvBjUcgdHrwfV9rzb8CjG/fW0LKiuvBic08Uh8PGMJBeuKpyajttt1WEDuYB90xRjbeZSSxl+Y69olluYSFkK+NyIbRJh2YyqtCNZrFIrdLKGZJp+Vyk4n1PswlrTejcQYh4qEvFHxJ3BjGrDQDLtPeJVUHDG6xyCt5cnbHNdKeofJzYOe3ah/WaEBOZkbe2+HjOWyQkEhHG8xfzSQcLO6I5thQwPPNTeoq2KurWezz1p4uBc2nR2dhmGqTYRFssx+Oi5pw24jg+dp//+Y17755f1emDE2QtRYI5O2+eDpnXSktuHDRMHHaVxkpOIyzDQAnOrcNlWLes45Fnmkl7CLXGlJ5d+x43LI9LZXUKC0m12lB3KSoVMdnB2arKIoKGzI+2/P5/i96JsvOx9+GJSRvnA4e8pS+9bOui5huKaTECqG2m15hW569FZQdj/T7rMECZznfhArHceXKRfZSY9CAIZBvYPNendJpx7rWhtF5ydPwK8KsnRBox9SetQ712KqcqQWZa2+ElgrO7H9pSUtcprLN3nx+BZo0PGgQFogPsDUomHY63qMD0FJ/uL4fDoXF/MwyxjQTY5yWZX+SURjEFd0j63P7JcfzCvYO6lnE+1D4I11AHeJicIKJLO9+xKVG0dK2faDYLYt2IvpMc1wFn20r2cVRULH3iRzaSOEbzRfvTpUgyZiWC683VrNju2ZbQ4I4o+jrAhhfkbM0Zc4msGJtfQR9fFH1hPcLMNuhy2Ih23+duj+g/4iXGesxVx2xRzZ3QCfvrGOYYli/04Rf0LwEiqpyCgyTsWlvl840zL2ujyCibi4yNaGeRj1PkNO8ft/HxmrLvpXGrseepAYKS3DsBrkpIgrqEJYQq8mY5Vf0g9wtN/2oQalTgdiHu5WBGEqBRw+VQhO1Q6/ITN0JCHh7xVoo+9fV89ncO0rFrzvEvkMyT5jheUtErf61vZ58onNOBs7As7QvB8D8RYDZBaPZbsJ/xo4NKpfn83w+nJkIHTFXHoWw5k/1iMXsIyWBsWT+8hkVkNInYuMsYBFuZCxGGZAnsJ8/tVrOXWczwVNx7rSP505XzkzJBDBcyMFvXAfUqZYjnYOUY8SKkVghIuAFM21R9yXP5KeWh5ZmXDVeNkxcPUymlVE041cSzhgYYGUtu7Nw2xM6g4wmBS/u6oPT9Pc3QS/KXapg+Fjh5qqJ2zeXadeDVutzQN2vc4rTTZ6K2lYk5nC3Hjo06tw5SueY9a0UgmdGhoujuGrF3PK+0LpvTit9t0o4h0XGA55w5T5p1591J7YitkT/6QwagXH9gmyClLxGbtGERvhl0XeyS0rpO5F7Nm/trDdicNhXu1jGnQHNDaFaYxj02qZbIQlIirqNBVtyoB9rd7q/ak3OedDFTxkDb4iznCUxEmJlmZb/zuwHNAsBZ2DKwdiEpbRYHpzzUWJjCwSVdR+hnD28B5hUAXJuYR7jTzGS6plNp8Xo+joZZZ5gSsbtX8lVecRjbsoWPejUAXagMoCurBX8R0XqPjkVMpqwro/9dfT2szCZoe6lI2SH3cXBWWfLxFBPT86qN9SH8oCVHz8KqLr/ES3UZckZNSLy0Kw98liAHH6hDaH1ykcC0kc4TXbgmp4KJA9plPIlCZvx+kkO2ke9f31THWwb/T79IefLqYwBNAvjzu+1lycv7rC4Dv0F6jO/nQV+CJM3DmdV4b0bLm0C/A3fSuvXfWxeT1Db6h/s1gFDhYyKHOQyqxhHjwHX95zlIBH7xvECkwiBzDalFjg2+YAVvPUpEVEb2TPQTGG4dVrbRwwiSO14tcrZ+xxTJejtwdmv9WKGmdxuMv8ywZo0PGgQGkgPsDUnKIM0zQtQg8s24TOL/wILPsXdGIK2RuZRfUDF2jPBs26+w9Y2kzqPUeurTEr1wbzEdkibOzEIVMbA41R9Mx+XEWL6LhBu2BFcVXJvOhjShRZuymZMscTcrESfqWCGCH5ICnhTMLZuOgKbjVmkqquJjSn6+ABzw9waLuxAPeeBdk2ZyiauxjSqFb8awCdzRBGL1hBHNylgwBfp7mdRUfGUPDjNyJH/8uU4vXirZFCNKFOGdtFAdNFC/Z3PDp1cOFugwm8HHSLe8+v38DiuYZ4/9B4V5KEB5q6w4Q96ZRSuAEM29IjotzeT+gL6aHSyWdKAtvH6sUD85exAPBYpblsick4GjU6KMVnaS5aNTvLHJZybrG6ynjbNzmIzXH2A9ha4yNuSi3UWY/grbc/nhN7NB30AXI9r4swvKAx/SnkP9Zmn0C29+5m+K46XLXakPTheJU6xmnlqtN9mc9/yR8mwYk/pw+rfg+LtPbhsIXygdus/u9jQWb0VgxsrO7kjwhydaS+GraEEjGY/xus6nNK+JMQBS8F1dMsgAoNruFacbE8Z5KacLfzlLAWkx4EJFNHE+GUo2rhQJBPTHo6Polp6aC9cxGbXjMyCYebNyNjcPfWNWGaxXh2Pie130vdjHHPjWuZERPU3ZwmNm8WQZhow7IDs2sm7PJ1jbDO0Y+FDEiD988bVKi0uD6SNhvVtBx4/IBftiunVKosfbYeuKHiyRcOrZBD7eJa3IRNeSzAYDMeMHps5eIf+xhbPuVClNca5tg0LZDi+eeKlaFAlgp7HTlnz2g9G0Cu1rtViEn5A5JoX1J38kikwXR+2Wrd1G9uI/+mX22pCVyJU0h1QTKTFPk9ogmusJoeupoHA0byPnhxIQZcEytVEXFHMB8VMWFkg9CJtAnRp3/CeQyLPmQ4oCp7exWnZMLvmdIwAxIJryk2Uw4rNdU7UBwe2pJMieS2D3LjraDPKOt7VWXWi5rGmSqqf670mdu58llOu0JE/oLnhqiUE51g4QcwWwc1pFbXduJXjyf+Giu2I1iM0UMIORZNJUPK+gTwiLz9mmwwbHXgFR2hPkIg6xDpB+Odq1RNFEdWhWwg37HtqTtY8eYkHIezZWNHMYmWGMZNKAys3R9Qwm3wkqkO+3Cv30JMFDeuG/xmIgzAhD0MbtSvWuBSgANzIhxhfMA4hZNog/LxsVxSkCPXwGwfvg8zhRwTgmcJhpZ1+KQx9LLg4WPG0q8Gj5e6h/NuZxOC6PrYc0pB177U2O8MlaGZQYmoDswWAHxo0PGgQHggPsDWazmqYcs9ojY7l/E8AU0bRtUFtO9WZ2ji1HGhGUT1xMCMH/HNr9JQ+0Cw8GDsOagpAMNnJvke14Lq7v+v4u7q3/OVaucJ6yV8EKywvVlXL48apPxXscbsUTNOsUTZFSyykTww64DP+YwVBPH7i1g2Dn76trpJJIBqihBoTB7jDR9/ZVGqDY58c7KTMAD2dV0JPRCPfWuxvmjmidDwB2m0KFbyVXnwtGShirhZNg3SlRk+GRKbLd1AgF78p216b9KBcZ0MlOSE3h1YbstGV5dyQ8fu00nqPSPuULoBf88YMWRBDznXFtVacCKzuOEL1IjmUza60G+j0uSm5Ugswea1L/EvEgz5pKT37Gce6rBleLsqxDNEOjEfiL58QdfJyGLHvMJFUvoLn7EJWcGYtW/MKqOCyaP8a4wYNyQA2RWwEZTstBXvm7cROVuVprINn4Z8c0R6bbw0WOk0SAPFiprGoT2FPLXOfLKZVii26g0FY3P0YEl83aloEufgZ6mYNE/bSyMR42fNXTYNiUQ09h4SO0+X++rAO5Bv6UkXOC2BD3AJyo8YoOTMsjscWZO5pwFuUgVGzGvzPJ4KXyTE4s9bckEVhxS9hG2kfi8IBEuOmu5Dg0zYJkPrir4a4En/FQpMtwhsMQPrPJNZ52mXpgDjTngiR49+AH7MCj294v1g/h81cNI/IwuIB3ydz9mdOcN9aua1jvNekOMXqeNrlJjYdpmyUl1G2OeQGIub0XJXAuE2anofUjug4GgHU0ioEcgLt/WJ/tadUrj0Xf7T4eXHh2B6vo+VCXEOXKPUQ+s55EqSXzwQg3aVaiBBAwp/JJvliHh8Dq/jd32XYvbUY8gmFpbzC96S6I6he/ZMDjMvkiH2tdDk+ivZVN5nDztIRlTgmaKLULA69b+Kjvmzde8DPQp6bEufp9XTkCQPVOFJ5QL5i7sRgQCP/S0G1nEdj0a1KsxPbiXGM6u2aLi8+ZPHOJJq7d7vsxRPRDNYOaBYOoZwc7LBVgYvdNIc7DxtQ1i1FR+e2GyP41IAxsmRb8VoTOqHqL9n8XkhLo3liFSuwMlUQIPbR7edPxq1SR2tMyIowdD/jfqNTM556+VcBWFa6lIZGQaONih2QaMzwvPQuiENnpYTmIucdOUzNgef7UbCojgT3uTeb6lozliJLd+19KpaVQj8F51KAVBNHwZS1C2x/eXrBDJzwlcEVbAueq8tHBEPVaEbEMVgmVAANu1ciqtkc6kp96XX2rN0Dhx7jDawbazj24C5DBuWipQ4eeDo0PGgQIcgPsDU7paQi5AAxLxsIWhkXXXwJfMtQm3ZM7xvaaHrtwG5lQGgKEgCrPmsjDQ/U8wbMMrPgcz1CzG53/MVB8g/aNUhm+ueax/uqZVX3SngTTkLSpjzDkuR/5waFeOa0uY7HiOFaFXEu8ORFuBv6ebAHFERY+D1K/fHKjX0GrvHWWLH8zANtEjltJoUYg5uB8JjFt3PPoTy7G5AFrXukhbZ+LHLESKPPC7robp9gglVuW49e5/lX1I1ut1gRP3nku2waiVtIFEY1VTRykxYw80WaBEbV3Dcmckym/On5DlAljEQ5NfR2Pcj49kLCeWxZVOvd4h6Wy7Yne4U1YWhaNwbEGPTrSFJvde9/nx53xln9vO0aHEBMAD9nV3SLjKIMWZP1kvvppIqD/qUD8iud7qcppWx2Clx3R4qpkQfXSUD7oLvKpZpNQmnbzPE4C4CIkrSdvv7L6JyHjgC3Sdn846iYpdO1X/hNfk0xHeqpRRDKOBUPis8+Lrq6h4zRv7Fwf4Fv7wVS+I7pQta7YBQGGLSKI0+NDgFF7s8DB8nTeFoesRuQ1F3Pgj/UxK4NI8hdsklTB2Reyf0Y8rhh3EvH7SHVYX8Z6Q9gkHEqF1ecIuuTc/BMppNBt3iozyY0kYG4f3Zl2YecTBIHolPzDFtCOf37z/F0K4dOJwFDLiDuyQLf/W9MOa2Z+4/huDftNEz5uDbYzTt6ifwZ3SU1hNZ0NSrsEpZJaVfveZ/ZRvco7CF9ncu5+WvAnWeZr7wRJ9cNWbf302t3G1iIrpQa8rViq2QU5VjswvvDJFrKRfRG90Iq+k1uwCJ4EfU/MESqtxvV7uj7vowJzIg9+fGiQt3pzhbxAuZ1FHlw82Q1gK8N8Ho89vV/njJXJ1/5KVSbj5vEL7YEPQWIgLNaPsc9NU8fOKb25Hd1D51ANp5DXyfU8aRrjK6spPATnJDjl56FDAucvL2tTU4WarZXShGfcIKmi1CqVFyZoEHxFzBGtuwtEPJEG3woJ/pSndqQxmPk2OKWNjPOpzi55nNCbzRYHOlygFCkmQug7U00HYMJ6DfJq55eA9iR6gT+WqsDdbde4tsfwG43h773y4VXd1GVA7PyGuAEUf9I0ChYhcEyjZq1DlFK3XkSrTJuDVX7G2y4orlW7ZkdcSEn94K/cWMsvUjBfRFQYHoEEZyUJgt9bwb+XM9JioZL64PBEORmMm7WI+mQ9iDdgD66EgQM/dqJq+uMs7gLxbeB9W0hXL85rXndXGnYnhiwLL7vu4bYELK2iXlip5Fy/Co0PGgQJYgPsDUgv5Mw9sc+x1X3++7rsu0m9/Z+EEC9ntCrsoYJ+NzPk31RCaTgLdbUwL6Q/XPY6CpPZYd684Fn00M3lY1jOmoFlpuZ614enJ4vdKGlt+rYn+EpevDvuYzpoJ/vAtW/h3MwNiIBEQI2Ng3cFftMXfrHWT8AeRilR/1ml9gjKu1fag+6gaXDtExioASI/cv4ikVNgl/ErodcdGzOFzIoP2Ns5SxAzHWAFjN+DS5P89SO492+sctKMYpMloWnhBi8gYDlXIqhovcsakD1luhdI8uz54nvkJjpEP1LEWQLW+WAjXGjOttR+AS05jneYGSGzfjjaBbopyLo2fEd582Nbw86DJ/rGAladkR+o5Y80P+ghO5VMdiilfdNI+lfI6dQCt4hKAwRq9NVCcZ2aJm/5VMu3H+EA1xTfpNnKxlEsbhP1aOepsRIseaiwkueEg3f7CYO8egZCemVdSaDkLOSdUUKMSMJS6o7nTCa5ULfypAzh4H/MzlVzyTSa5jCxA/WaQvqWsqNehSo68Q2QY7jQPMnpvP4nXFJ3YtYLqty/JyfjcwKQSU8JAQAM0aO5WAMuGAcrHVhuEJfM0Db0B6cuUoPvqILGF+7znyCKXkBIDXHif+doCCMq++9jzUoLl1ZPVNVeDLFDvrc5qutzm1u9wmLzJZ5RWoDU9HpimB2r3daSVrU3FiJ31fd1xvzZiht7xFoaboss41ZYQtaDQClth5L/vixy2Hfjj8AEnHI6u/djW+0t0epvAyohzfG4HWmozS2VaWgJvacQMuatemgG0A+HeKaMILewdM3Fyeg7X+ceXp+WsfHNePQTCIOw9rIgJD0F9KNi1IAnaxQIDwU7c8m6xNdYqi4MyFWQmc5tp+/WJiSWzU7+CU5ZoNB64m5ujpq7ofNWZnTU9Ma6S7NJFFpv3uRrwNgVX5eAb+aP0qvax0o0QzYuY67q05DX5VJbMArtQD7IqIvGYjzVkkctA2A0gObpx/v6wzisxchQmdh0mhrbt598WRk7KNYOBD/NKs1YN8cgrgo8U7twfHWmVn7W/QMNdhAwxT4ddG2Ew+aDaB7Tdkzt9cKRjpabMjBx0BcbAjNJomIm/bgjfK++LCmxTVNWDWsbZ/Xjy+Gwi7H+njZDM49GN2n83fdKFIoS3dD6NJwgighoukOyM4XJovVOMyHGkOiFeaz+TWpKMOproc3AUJjE1q812l1w0U3pmUupX3nFneAENopeGNusPD7IAu31qIyy9Htl545grkU3m1nzHcU6A+Rhwa4OKF9Qjo0PGgQKUgPsDWjvXfP2vv0IkY8DWj2H+bXTUe3fV55G0FBbfJrwcQ+mjFTbH6PycfqooMY7pluri4hqbukRoRLRLhdBmt2JKA5hllHja5ZtCQI7GDXnyraEICLBODvHQY8dkXZqAcAUGLJ73XkTducwbIqH93Z7o++tdQ1C/smNf5RE83bazwFJWx8n9Cr7mFBh9sbW7OTUTYdYd3d6hb4IqUzmGjOti0u5mm3LTalqKFk0QTAi8daSNbw0SuI8984s+8RZzSPoxYCkC2/0lP0vtBGFfToOjLaYEjBp39owiec5rQPOxsfLyUTgSodnETJFeLfj6ZHB5AdpE0dotRFw3LAwsTm3qTHDPYlQnFeIFBpve51wzL/ack6i5V7i8h1wpbdsasz0U+aQDn+Uo/toVDdOFweF21Tle07lHdZ4g9eRi1cmrTN1ScMwOlfRPgyiNosmbcTeTOJMJ+XwkuuUJ7ze634nugZJiTzlJ3M+Omshs0RoCTi+6j4n6yhSgEPkuANwtNaxu2BGicbXxmRL3/xJWgV7x6R+0F5B2CCYBo63kT0KZBOdZwiyYXgP9vSObibg6dSf9dCVfJitj1JzdYaar3NkoTfJEXAIave9RzWUJLKqyifjE/t0K65FEWEzftGeh+ln+xP6j9cpUZ2jC37P9Hzvt0/U7cxSoErOcjYZ/gM4cvst5p4CG2l1f/MF1LjFtXB2on/bgVok03WmjKdUV8QUhvDZ0VIeKKhxyVwHxyCi5l41LNz5n6eyekfAgE3osdM2+7sG5icNmQVOmPGCyl7Pf1LxdMkeJ4b1ssZ6rPxWO4AOpnEn2QYajPW8m+gbQFFpQfCO+H03IECl2eZ/HGQJ0JFmwZUPyIrr/2KiXwOQLwjukBpN8e1ix7v6yEfjewq3jb1sS2HbJ1zbmrbfbx6UMnmtNFBmkN3qZ91sXXsbItOaxJqlDxDUe2wSdErYT/DrFfh28EXbfWdVymK8A7tAkwoxdJv77G/smOkfZQhEhGso+b222FMpeQKXS9XUC61ofwK2bIMc+BkgYPIeQ8WmqujvMIzqJsg6wPIZ2Gh7hlUtj8nlhvfwj7DKrkTUsnD/oCRvycJ0q40FaHUron8sS09CqWAsdo4XkC+8vUI8g2GZ+zhWvl2JanpUfkoG3R9VIS0Gy2dL1zXBYwQHtiqXaWN1jCrcT+NySoxnQKi9f2M+aDNW8mYUunsf32v9aKY7umEZpcQSq/MfaOLeD4qhQyqB6FPTyf7lMWW/Ky3IASwf0+Bjf3lfCKLHLcMxe4iBWo0PGgQLQgPsDWdCtMdyo/az5oiJCA7EYL+Bbve8FH0okauHUMZd5C4qt76GNRZOOKWjuvxMI/xoNvgtyu+fW4jgmFh7E35+HSbU+knoI1ts3N6ta+Ypcg/Ryw0m6+67AwhySJZjA6UUnNi+HXQP3hC90kh+x1kzQ6DvFdIJH9mVVEKiYM9DAKZhFTgEMy1XOMRovwNGqMLAdoyPnchrx/25XVqbgCCUWyKrqjZy1G6G3VLvw7vG0Q6lnxU5V3082y70KzQ5P5lz7r6nSZhrA4e7vBssVRYk65EyyidrBSU5pJ+u3X+30WF7HMIJ8goP7SMc2IKpjol5X8gsd5b2y8/h39kLucgUjyTPsg0Ox4dp2IwLnlQvS0xqwlea1WQcR8LtCZVC6vphj1eDoCU2z3nYmjLaWZ+V7yz6br9xdESpggRvPFUR15B9bSpBqYa9GuXeE2EbGXhTOsX8Aqo0CSEC9X2Pw0kCvl3h4IesdG8XfpUAT+iWZU6FR9R3ZrM6RvztGxURAkz602OwgIl20OuX9agH+a5bBHhvtTB1cgt1BHiKRFZ83/OKbDVegjmxMStY+173J712Yrt8d2OgZOobgXCYRtci+Q8yPJIUxPG6lD/7+K2FSdTISjnO9+FyxWo81fmNgeZeoAlCX6ii8lt58EAxM8WXBwv6SF161RmLoYjep81OqGtFO6HsQYYtGkNrP1XeDUVMMCaJ8LkqUR/3RuXLsoSUdBxbudhFs/diXgA+usXk4yPbS5w4M4f0GgHfVC44Vxu0GHb386+KHVv3t6R0G5Ok2D+2Rd9D4CWSvDhRR47ktr0X9lXZ6ae3rLPU0IhzYT26h0XDolZ7Ih5im8bvbNh+selPu4kzbq4vXd+lG9hwdfc7GniKo2WbGRRnvfGroSMYDsYoisUHky4hhXiVmQL8iRar44j+dx66hdCThtp/T9bCziR1LMTBmefXdpnhcOlK+1Uf5XE0MPLPJEVWFdt4GDs7bwkXtSGh/tL5PmnuZJEVjlpil4FVSJju/n8H9RONxaQXBuRxsaBPiz09F5BCL5T2YuJgqpZ25hpLHWtfnHKhgzGE9Vc5rgrb+TjDCrCzYnpUuRk0cMfU/q3YjuLQp07WTV1F00+0WfQJAy1I/dPsERxOyg/NRQ5/BwJCRgjUl4kgr3rdEleUImaarqhszGHbiXF2kMJT+I9WGIalqiEDqTJOiq6NjWfARCSedrh9XcS38FXYNJV1zMYwr4uAmRM13HBQCTVWC250tOCmQ4ZZK9Rs8d61x1ODWKf9XDQmwo0PGgQMMgPsDUnkHDiggVHn4Oc7Vvx3vv1SX6YJCLnFWoT+YasZUCiFpd0cI1gHDBQLMeL997bumdiwBa4x4IK9lvZUEPwSk9WQjf+XHax3y5B0VPQS3vcKIPP42w/gNBRe7xLGrHtcAS8Cn/AQ7naBS/8Opses+kG2yB/uynRWeApp7oSelo1I9cYS1c1ERqUrhQg8by1d1GJFWo3JVWlAqkF6Krn8wWWGiNye58f7iuPL7+oMNkUYJhlswV8ovqv4WNEblHkNp8jv7oxndDfQQ6504UbZTpB13t8pPxsrpEe3YiY15OxVaiPJMTnt0PAoem8PPDzsZJM4sZfrA+dz6jOrHqit78hMa5aGAHqLm4iiUUGSmlw34VanD/4riCFRbOnkhT/IQ5672C4bzB06yvspg6nKcYtTlxzf+KlwgdPVcJqB6l4JaPhnntx04VY9XS2DwO5yxnA9TWym3xCHqbrAcU+Cdaho3m6fKxmUYAOOTzWfbNFHtkcKez70w5jb1CTVV7FV9JSqAa7AokySu0yuHuy+ijIvWzLF5wM9Z/W5qVSa9CAQn4qn/0Z4a28/WnkOZOxvsJdF4yEM7SrvyciIVA+g5TIb3VendgpCG0SUyXLnxikrbGZ/fUmkZL4zQiPYo/qWKzs6yHOAIUNvoqTOIEf/pkEGY/jz1xCYGeKqmwQMZRcbSOcPmXs+58OTqO2cSJFBXj/ysUDhRG+nMPj2iMnkFOat1QGMeCGH0X6xC7WVMTWFjKMRGctkfnV/uMvicKYPmoHRhLGEeWTKVeXtuHYGove+IIy1egbLbPcL5nVvyusZ7VeQtlm9i/yukLnHPJDODl+nKl1XfQej+ZaJ29nUZHlPUFBvK55nPl/uv6EXuWXXcsKqBwnLCWIEtFv6i59I+4vfsuMrYhoJNOfHX4hXL9nTHUximEVcI3JkPUx+Zf+wPhiUr29/3f6z/X5HNBE0VNgM6huccKf8ONYXkQdh7c/PIhIXP8jQQEuhjW8qKgNJ6f9k8Vhtf29+bRmGHMP/mApcRsYmA7vC7Qy+ynQQD0k3HaprGAWvfg4489gXKpLawfAXIcM2dfHrzbd7k+fN4CWpxUiDTeKOzHKZGYacpqrGaLxJfoECBi0zSDQiyLU+WTEkvHH+HOoLVwFkRxCXTS/kq17ypDOQzOYk6SVNl4BUbBWMpG1GE1rg4ZDMG/U5u584UWwJ0Gmj5cu4zQMewzWLC0lCbQmT32rFJymmVpylCEtL6nJ7uqg9n+0wDMgWldUTohybpFhi2h7BL+OJIo0PGgQNIgPsDUbOwovuVMGrDxLayWM2MifngIsFqJdqljOXJhHPTS9R9K9qmJ2YAr6f+s79yxesLJvPwfPjiK4ABbm27hN4hhj4s0GrbUIO2oEOj3B+7W6dqucUEJXJOtM2myDFYUr1gi+8iRBLK6mr9oJh8wFwxrdmZDtW2MAnzZe9CIlAdilt4amoX3PkiP1qVKi/6qNRHcUNSrBiQ6jZNkVuf4RQqDTCiAvEIrCt18uI+NB9kSVF8Uu3XQ90tPFHF+pk3ov7IfP35Rd4nTeShASEZtOxxxHTTsx0zbsSDWjTIdI0pmRNWzOUhdYTZwsY9HHGZ/RqppXKp8GL4t6/bhwMQHa8h91LxqKtUoAxQIWOGtXYtWqurJUN92U1WiDi7lLE2PXL8VH4EXghCmawRX+xzoO7w6hrFUXjO5vIc+X61D2h42nhR+74+BPqz069eKiy4PsovAS4f98JXpfrzzWgTMGEakfMu/R7VnUCXuP+w+rvxreUI3QK64V8eqPWDuG3vTGE7F3a14OOJ9Ebz5wh9J1md5s2KMivyO3EtYGMpH+7fmwoXW4vPLmmCBAD12piPfzurYXb5f3BGQqUu/wYm8iFmgrrXmwe6DPcCs2KJThV4GXXsbtLP1Bu/L2W81hNsScu+GnyewIAmjE/1oIGleMcrzqL7KZBId2EZSLqtlbQAr5DyZVp4KXrEfo9CxRiIzUo1xejjNTodkcQds8Lm6xg5gSVv6nzCRhbSzwB/vflRFcC4p0wRYFz46ar8+MJlLw4vORr4ch/9XxTKv2t4bbvgb3q3vHRZ8z92pngIaTTdEdGdNUNYCdpBvH5bZnH4B9DICH1kgcL4q9PxKMb65hFpfFH5HuPgQge5m4l/z+P8+gS+GnpuMVZyQ4+NVFUvWG8jq49TY7GGFBNOaCEwQfASJ/Dks6pVkhqwembUzGixMQjlUXJFS+2zlnXJI9M+GEAoroPSZ9kvHVX8TgJFiFbAj2Lb5fh8l5mHXyZJmrFOaVn+SeqiCd2zJvXsZWs9eLAWDTGIl3DGEkJdfP3KRSPFEoHdfKDIns0f1SG5PgBw185GZTFzrJmye16iTIQFX2SHUnMAkiO2ReYZP6NByf/Vwhzjv1b6Wm2wOX9YmCzcYoCPj87dYqynz3yvBFMYSI7w1UaeOU3lhsWDnDOIqkoasOvtjM6TJig1oYWyMBfernRJBcqeSE6jLHp+WBMw9rFAzlNMKyImYo3QkkAChdM2BkGU4dyKPDwIPvlcGzAMN0rZ4hmBALfh6BzupeF7x1sVo0PGgQOEgPsDU7JBUNSVPhYhRCvNqXZyKuEmtZQLZ9wAU2osTqwhRiLyA2Qea6gtFqZ0gAqNusmOTdK1kmc+j/N4muNjSaZMZcewEqdYOShkUlW6tEspvUakTh3IslSdBeclDjf7KjXbpcokuU8bu504A+gqzqDcMHI61ohz/fIUK1agtXv9+WLhEitmW/a9sedH5HdiOt0m+6E/rR/uOu7r690rF6CtpwfQ9jrWuMePvCI1su72WvaqbV2ahsCexVcxJHUC0sh29Loe5vUtbJhRgS4JQelrjPlbrEiNq51pj3LzypSRJYnf6YcvtwxfM7oyTKYA44krSHE5qfGSThwCyQFmHu90+6/ZWiomLa8Mu7Lzsa7ZPzmAGMBciKcW4PV5mvwevDvvvrjZnJcwT3ML2tGOhjKDO5KQiiP1VEsIN0aH9YQ7IDFZet4Bt2I1Z/MNqwOb7dQcW2uP3Fnno0HFWm6HOLQSDLu/t1MITxpY24Vj5AB5cbFFQ6DAhrrdqLgTTOFb6jnO0Jjs+aY4CpwEKl/SbzlEPSlcFmWfGrqmyUUcGRsafSxDB59E28X0B86tX8ci+cUgGYTsKc5pbBiQdmsLzil71l8eVxno32YigLrVJeLUXZaHf5hRKILHTQ7FLlGCP3Es9tlepmnPSz4A8Gaz2Ah3SJ5o4Hf50CVIboVpLIUra/Ed+KNDJau0jzZKOGLB0Dzg8HxfwCHNeogLpE1oFIt6w31QGLPl7C7cGYlBTVtTyl0FZqiKJI88nqofrtG0PTZ21ckn2KiUXxVlce8VHyG+R4hDbMsBWCqTUxE4/eRgno7PDspA3QqK0fnFeN33DZXZMZvAkWl04ii1ndMaJsza3FmsRnzkn/z7o6/gThBx31HIVowrH826gc4r7e11EPkSiPkK4sPJqEWirfGBv1yoqzkuGEG4ZjG8W/5cH0p3MWLREY9T3vsRONiH7oM44qlhOCaBwFhfFSzoJ4bt9qeH/uohQha3CKI3Gd9/riS16EPlqnLJasmEEJNBVG7RWK4JnHGaRlYmfJi+eeLZekq6QKo7rtDUdTlbJ4XqiOiK/2n+mrr6+1/63g/kRODgxwgSVm3SkJpTXpiHWCBGhcnK6Hgwq3Yk4N6wThOF2xDh9mmEIyvVm8NBmtbJXsH4OybspOp6AQ2ehIA353YLpi9WHun0/UaX4dA+CPmbl4AhUQZSAOovSACevA3Kt2OObJRgjfXLJRO8jrxuLJBlp6wJ3LiAtA0Y7/osAKsa4wRyN0I4z6kDlScWILYZ1Wou2bn1o0PGgQPAgPsDWpgfTQ/qBLsjl62SxFQoVhd0pSWIRpYfvCW/UMHRTjZoa2/IHhDmoBxWRtZCf/YWxo3184Rzu6ykHF/T2zd9D4Ag0YwUtab2pDesdVp2t8H55bOrrKJgqqx4azBLc6NFTUP+0qzv1j91gOmyupqB+JGqiaV/Rn8Fxa7WgoQIHOvQ4HZZdC0ZV55jPKswXhi5Q2g7/pJGuXkuKh47CVFBDdIFDsCorK82pYQQX0e9mgv2GuaWnpETgUnYJ05PokQmsMI8UYbYUWU2r5vSLLr63K9jbdCT8RxauQKNHXQjXT8t0VAYTaMSSK0rjr9xNMCR1Nd48kX7uOUeybfN+H5q6VHD/a8zhXkPNn5SlvVKWWeNUqgvPucyLpfn1X1Ubx4r4A/6v/ZVrG4cNR4FH+WqLTjYI8SWThfcJiIDYECPmC5bR0KbtkjvawqD45NLO+tuy4GffR7GzBRwWCLYN7gA3D0oGdM+48JbmKOXnzzLwIV8INUYQ0RlMvzRryPeZ3jfQ2zkALHpCAq5dhwqlrJ+Nm7WGGFlRCC7Htuj6cQsqEzgh+j2stOpbgQMnF914uD3aZEcWKmqfMF1SgexlZUHJv9zePntTBtWGz00JIQ+wIUygnjUHJOHVa+MfINtrMVyf44nZZA0r3vFpo9aDLfb+0mussC6x54FT6V3OyFy9peUqGAFhSDC2SXuLwgQAU5agl4iDRBqogySvIqTP3MYebgD3C6cFPVmusmo773F12g3CG4pxwifW0KhN8Ob9+9nJ6V4xMYvbuBXKThPNbMsJF6q7hCiBBxpju1evM2iIRuaaavwwQdxUKtYMKp19zLgWUcWDHkiYAoSlQmSiNLDP1FHqf922RToKQKNkzik8zl0ht4/X6HMCEpMYcoxDfRi+LOo5lD2GIgJxQQpTGCf40KKFcKETREfdZ/MuckFn2byPdJ0QcThN/4136VeJ9Se8w4l9gmKJvJRPyu8G4Ew2QNxwLyIeFGoSOsBpGGkN0vJw3FNO14vtk8BE1P+GmF26Eey7boq4MpiKdTm20CKTi6r7FuyGSZToNDvfLB2XdTzZL9Vl3OykCMT6w4TOOk00+WJ0bpq9+YJDN6cylGp1K4iaPOUxRuiMjB774D1iuvmJajs3ci8yetwj0X/zXDb+Zr9xbTqIVfFGTd+hTOEgt6nutt/fGZqoMkrX4zAp7UIxRlfhkaoddD0sjlA1/cjmdLUOds8jCCHUEGGG0hiTiAI7e8qXitS76sQKzNiFc8o8pMzV7wGYbZ+um1oOgUno0PGgQP8gPsDWlta494KyqJnsHK34OaxEmOD47r09AKK6+eU0prEFlZhcIaMczwEyIr8WwqgjP3FhAgCOfR87DgZNiMbrIuSTQuHCt5mMLZyplsiJXnuFL2H6ngDG1kHGtNwMrM6HHhr6CbHVSD46w4fKb2n5hFu2pmbkeXASzNZTOC/C9FleD3afkWotN6C6m+1VYlrae6bhU7xbq5ehfqMnzCcrF1Q2ePSZcSxLbsHLfBCJE09uHe1tz532uvRAR2gBW7aNfPe3vF4Ast0ie90+P2mLfI7DP3veOikFQ3xqRMY35rj4fAIRmytR+2PmM6bdafKOBbtkFC+/TIHBtLdeGpBqxVzY5j8ppfxyyNgXMO0WPFuzddhbS16uSco6N4epna4rMlpiIpdHEKoqLiXGdPl7kDSihZlUdcL3EicNJ4Z8C+up7VaWnATaOtMAdllVrYrw15b4ntRRms+Jkutz0T7r9R3DQeOFCfagnqWdoorSnnrPmwUJ8dnqp/9TnBt8Cq7we4RWpvtAQo+W1AGdwqif846OoVINSAW5u8SuO0cIgqNqMIzBVVMca1KpxpBJJS3S3xqe4KrxVLKzirZrJRA1LralqOevawvJsDnt8SBHPUbLzEhLWkt1c91YUigbNqs3/Rqsz/5zIz1sQJ9EaivYpiuDbpsdoxCsGKi7ky2X2UT0mmuQ0C8WdXJP2P/do/NyNBDcdj+O5OqBVHc4WGh+9t5e6iywpC3PGwz06uMLyk0+ptpVYRSUV7R6ASiAe5gPpQsZgLL45ON4sCgXmX2xaBRBio+lgxLjrzzzh9nzWTm4I2xxZJ5nVWIu0fFz12m+j5zTQITqLWOFVw64rAhBglFJVIMUq6GDWz4VsSwpcUy7ht+uqmaC35H+eKLa/XEoi52SyzPcdl5OAHEuKMJ7xMOIqyivfeIXRgV1MCrWoEblCx+dK6bv8ATlRqL/A535XVCnG+cQ4HOQQL/rVuB+944arEh5fx0CIUEngRpUN1ggitBJIAYYqjmM8AfIMeGZs/4N0XUJAj6h2xtF3WK8SQ57spi9j4kCTdFyr83ommpQydYHSllViOsdtXXy0PCC8/U9FinZU1vjXPLuTOEARAToQkPMcCDAjKc7rS7k7uquWaBYjKBzmHXNrDW6HFSLsvHFFAsrmzJa1nyMWKUGlECX5ek4R4kGOe4WZLAjuUhfL7LIGCz+uo81Jp9TqIpZpzhNJXdz7MGBmTVriNEcRphbib2uWuwVKBQyRJV4rYPkXIUg3WC60q8NpbytikEWP5Qo0PGgQQ4gPsDUfbuUj1VoMLqKecYt8q3hJau50gp7Zvudu/s1gqinA+4A/3hnPl7njOLolPNWMfcGQWOj30FW1TrPG2LjpkmEgA4SbKL7H7bfZEn6bnMXjju4BlwSPMpUGAcz/FqFh11KzSmwpKrlqiReOQR2zafXqO4mmIuZOxPKILkpVy+F115D7XQCWV3ETDkBe+Mb6q7ELxElcymsTp9nDbqD71kwKNJIv94imaZ7ug5wFjk58/Ua9E027XnIe/MerKGcgYWWCbhMY3hllhhhIR9dKtZGHiB3voHMo7u4pFmjNlVFA26hJj50nXT5zceezM9pfd8UlpZmfNHonOwCZoZNWBGWkBEpe1DuX2rQ2gveO3qvgjqQv95Mkb6fscIii9fJidCL1WHaSMTBsjtG/wp+2gXQe8UUXNiEDSgelox/An2odhRSyRBD3uxihgKJ7suIV++fjgTYeMTRGcF3rED0AKG9Jo3rCO52Fa6++DU2je+B93K78qImzMFm2urAd0GeX7kWlzLA+0R+6ooBt9SR9462upUClpD8Q086CLcAm2T6T45u1Ij+IPL5ncpbl5D5imLkOJ0uXM9LozeO5Yu6xP+ZfxSH4FqcOM5fJXpuwUJDEzxqUVcQjEIM8r++A5sMs/ORQFYAoqYWz8AL2ZIglTnxkqMExn9d+HRolgeD52LiqhYiHeHCGNkceXIz1WMjneVw79+7qBCeVFb+cwP3K2K61+IQNkdKvEZDC2/PLrwgqhZhPG54THhHH/saVhrfLVl7L8uG+eU7xRZb+FUepAPh8r4MmFu42e/CvNsRt1Xu9z90+Nwlqtzg5AgD44i8pyMJ34uGDZu48f5rh30gz6jk9wavxXbwlxVnwWT7R0EX68X7HJ0urP+0t6GQn90fabkwYQk/yE5ToEtb9ag3IW1zlj81E6JuiO9/f4InZTzE7GtEvKaOL93rTGp0q2JvhRoiPRbt4AMPENku9u1EiXg8U/2HuOZplqwOOuw+smast0t946OrCqxJl+FocvwN2M0UgG6eSP8WOG3wwBOnnfNRkaGX6u7HCnS2guIGdJb63HP0EkUm/WGOTNqm0FcGhekuI1MX6E6Lgj/c7HJZ1XuIRpBKVKPDBBH+DKy751KvTeTTZEE4RLP/3s0WfMlb1m8ikXkFb5Rnehk0EKffWgF76ZFM9Mm73eKvQ2X3D3lay/FwjN3BvjKT88OqSJwHaSf+oPl0oITtSTsUuVQP8To3ljZyr7cIgWgZ9KhbXBcYTrYUhkicpGJDJ069J/37DNxo0PGgQR0gPsDRARPgDPcqQ5j7v5oS2w2J7Usq/8+/cYaA0xc+28qgC85uX3VZJ/GOeGsgQQRJx1lrlDoZO6fPGb2QogLiAXgT0nLYwlsISGBSTDQZDsHIFnzncw1RIrXSR9mOdm9hGQgetf1vNeSUOqa8QztdEhN+wKRQmL3pzkTVfdWGm+uPzKsQlWX3S8RKj0tjR64j57c6ISU+tgS7yp+LsPL/qMOViNA0FeQdgBLeMGUdOVGKq+4J/q9PFSdFaPZsVMRXmAWwU7C4kR7SPVXxvlU3GKQfW7pSenjcOV3bqcLhPjJIY1IE/nLB5oJjOLalV2Y8uRkfHiLhqtdpavd0wKkjIbl0XrH4HXHaUnZhr2iGMIxesAuw3uZ5rsQULlNFU7WMQpZ4j7gJozCOWOoeQEeR75x7Uzzyiz6hsJwo/EiAIDGm3JTldxEPZ2rT36OLBpjXnsQlBqxbcNqC08tHhkaGJ9DsZmGLQzNPt0T953gMBCdwe4n3rnP3vz4wbEzlxlCYbtKFC/fydvuWpbI4NstZ2bZj0PpkrBAcoGnHmPLrvc7wUpu88pXJWp9jtbue2dJ3tI1m7X0z/YdN8jadHI7bXnGwQCDYUICPXv+WIAyrwcyjNQ5osTPalIBsxbXh9VQMx5iy1jt6xIJlefp2JfE6Nvm9K1RIFFvzL0gZ3DXiFu17lWKzV6TXDnN8TTGeG93bxIOUuerI781TbaMsIwkBR3NhBxQjobXUKIQjMPmAnODZAYSsdZFTk0P4Jd9Wk+zS8gr4+kiXd26pw43KtvPNynszwPhTIlDnAOj6P10fIMgsK7fHZ2oNmHZdHV7GcHdrz9N+6Vld9V5KU+OlIR1UkQjffF2my6IHSR+yNygWay0/7UW3rHGakHpXp1dkRJOHDGNTjCZEN/jfit/eVulodZPlrcZmgUwyBjzPNzY+cXmU+eHprhnwpvTFECwZgYi/gnBhhGc4pz9yFUSjnP71j7drcAQJwgXPMmkaVMOL9NJYO5+e6xb9z/arIQkbh033QztMdc0eFTRTrqFoo+KJH6gnR9zE0LVWUlSZTznSGFpp4RzqWENCTkPUfVHL9/7/90fUAyauzU7Y41W94aL5SOTvlwzi/kkoiVaFjcCDppwlVQoVTrPGS5pKtRvkHWpoWWRh5goUYvgyPKGx6gkQ6Q4dhYueWbqAxNkY0pG2VlpUFExkTD8E1Nt67zwRfn9T/f9LxuMoV4RDleOXDVCURgWFrwm8s+UDfOfx3hc3ugYLU4oetP3ubTe/S9yXSKcS5g/o0PGgQSwgPsDxrWllVc9vU8rfnM1ScJKz2BT3oYn+5h9+6+rAyCxyH54wduZR3i+X6V//an++ZIy8Fs5EYY71hzY+YnHDAjbRzG0c1xGb86WFFr85tH9w5XFyhI+232mbbCTY2rpxdlJQR9vbuwIQBPLivDz8bbfWo51H365N1dXFLkq3IfpAYrOUJYaKCcmRLuBZneKXf2e402c/NQb7U0tVRJCG1cuh0oKwxkd+PTpuDzF5w2DFQEBLOhxkNf8BQ82Lf7mdeZjipRkvYDCjtxp/153BZAoProW8ZcZWaaC/y5KsJHpC+Utla1mIqHAeZQrKEVP8UAXQPtOmVYS63awxFrlTmw8XIW2RhAbfYeP5f/YIiUuIWMrHQxU220QlrNgQs1FIgQhAp3wT0VoYrl3TlBUrtn1sXaVSf4d3OzvftRnMIRaHcBRs7Gz2ioZ9T7Y9YQolPGfqhfFlgglu6JtdhLrRAbgMEfc8/WVjYGxqChbJOY4aQnv8qXmtN7ogZLMegCMUuNFuvvl+HJX4oSJzJSLNugeFmnenVXI5kcA7qjd0fsDgd35YCTU1/cvhgjQCReoTjUm6GKkV2Xpn8inyA5U6AlgNE579X/laVPWXLIX3BQ06j17rBwSSDFIzSLUHepEjnKkDRHP+8fm2d/Qgf/JMDL3XLIfjXzQ5ET1PqrwVqaOyKZYoFV2EroMdfQoaf7HXJpwHOol4foHgzNqpAwxR/AQKInImKXBuDxL1ksovFxzL74rsunpV8ZBJY5IIe1DH4HbfwnPtqCLqSGKwJPHHp4NY8xV5ye6IdbZd58iovmlgC19WVbTSigKNFNQ6T9UcnJlrRIHhXOOBPtYFLpk9HDR41pbWuPdshbmP+EP4zMcDrqPa88WtAYhJBEqvTmFjDwDi+ucgzMtCQp2PH0bMb8Zd5x1UVL6ppK0FtZA9Pc5wHzxdS2ForgA2sM3axcPwybBgXXKScF9fJsNcuT745VA70ZI52o0KeTmc4mGuNvJq/4j8NoNomTZIyiuxepnbbtQ1YKlkfNvAeKpK1E5n3JwxNRVE7YtIAE041O0mwXs6qknKsHf9QONoPHVSXPaPbhdHevQAcuZnu/2XEBwE414g0DF/xiakQWUd2l7Hj89rUG4IXAZ2TMRKI7f+XYiGZSOk5kWXVaWcJ0ZL0pj8EnUGB+r9WIjna9IZbYoCN1+drQzG0MxW9iLKFCbkNfOTKWRbtS6tkqZr0SH978EJbFdtlanb4UXU8AVpkdCrKn8amsmDijr0mJwGG5g4BdSoaP6o0PGgQTsgPsD3Cl3gWbAUET8slTOug51gp1C0CKO65cTWBjI5yhx2bNd/rrr6JzSpT87VGCdBP5IIdcyG/f3iC6WUe+JDUOGdt1oN0/T9QUGBDzGOsG4jBvsWJVQerl78epN4+++j/M1gfAM11M1tyj+waKHdIwd8N/wVAAzYyuAki1l+LVJXiLgG4LG6UJ39oQLfSaAd6m4L7OF635j9sRoNeNaxRdfN4vhCKIdSoYtr8ph+zLMtEct5O2nWXqyBfQQiiFNRmsOtlFpepWf+dmBOTMOC1yE2b/TMtB1/+FK8hloUDicUegdel3DS96ZLZb2LJ+bp+zvx5QAY+sFGon0EJwAg3u5YxJhCg9/fd4Xw9zrGiw4NJFJQgrbvFT0Jq+tmm3VsRAyxWr1BHAMG5N2pzOPA3Jb8Fdt8Ncr8ZT4bzTSDQfPGY1TugtvXlbQGoeGpCbdWkERJ57O3lokOrwDtehr00MsNcaGAw0SKx8/a6fODrTv9CpUlojSmmrbm3D9CxMsLAMMcmSLfo6IzsY7xOSV36Bkon/1Nyns8+RuMGDpjxhnRGKHp4BzpwcjayD4dY//Zt0qiKOg8mhaehcdIpAM3zdPJEofOvo995hkMcfjI1TZlj+FXuWAYPQV1sdT/IyF/2dxff6BNGPu0DYm/VcHvRZKph4gblKrfEls9suapmVUEjDCuggBEIMgJd4mnVkhKVMMeM+FsVnYqXODqXLcM6eoNnWl/NEv4iiMQHcXv6bHxu8+ooVIj4Xumqetk1zL2Z/VqcX9f3zrV+NOjkUMacxT9DF7dut/nsGmrFT6cxMk4RAZbyy45xJN7g1xiOyOwJYBLLv/NMzqN9Cfmh2UY3II+VPu/yLj4sFhszDNN745vQUdxkD/dvaQ/QDAZd+bzc+73L6t9hXLPtDp765HpBiXzKwgIw8rQLbFvoAqUVzBEvGrbXQ/VqSEArZujXnLnrC/pTO0rOxfhW8gN7xjPWq4ylps2+1IV4TXt+fO98KpZYUh+oXhrpNvs+HAm3QWtmod2UBmghOmEn5P3iSB6+uxc8IEy5WdWMErewRHz32RJW0BtxiPMV60HWnTUuEZE2nzqCL2MwqAJ0CzXeZGnBLUVNEbHldNmFqaYnXVEnmVj9FCxK/HgyX3dYnjwmJJXHmFF+KbkaFRQqgzsDixvYXpg2Njkg8VvA0OP1kMzQOY5gj0YvZKvX76BWuX0Xldm271OpugxuXhIxoGnKCMz9yf8n+gJeNAyDaqzpOw3zkiNwSfOyCmxNLDDBa1PYi4kA/xo0PGgQUogPsDUbHDexeeJnncws3g6ZkZTGiAWSmtVodXT08NiZtymA9uJOCD54AEu6ieyZc32Wpmf+xdPo1W2renQJ1jObfJDLRM0fqKYI0vX3ot76WTOcnK3snUFx4D4btbJXTEHtAbNStUN0c+prIYx9LFMBLzTGr4+ocuNxyf8z7aelt5bMOKxExjAd8FXUK9pkLgxMGdZLroRixsV3bLo8iiN+Z1ioIgR/z8MumT5i0hk15DaXu7+ejA/edigbQYPgs+5cKw77gtkTQeYJHG0W8pndHMVFnfas4LJNvHsEAQI3gRfnAW71qfoMjslJcE40ddkWIfsNEUjgHilZ5zJUx4RKSvY9f/oyl7+12cIL94btUkGxOHPx/+I6pYKqgoYa1BEhEcYY0m/Wg7VslC4DC43EfeJRjCSNdZi14ymLOOzD78NmhSCXz7EJz/Ro4bxxR0mB8xh74xeYr/xLcHsIg9aHkEz3aGR9FM1kYGgp3cDuNUmg2vtPiX/vK7jZABpXViJpYIkav8vzFoubCWK81LRCJukaTRBtlfVGM3QLJRBNKMedorMgQArmjvfz08UbUCvyYcBgHft38759w36wVXPdEqUGrPhFknLS8F10+l6aterxJPjrfv56rUMbcCUanVKmUE3PmAvS90Xrw93FlapDGuNkRcfhnRkx25O/eiMgOrKL2NexBlbAurqdh+pU11S386ktlNYWFAkel+emudVmDso2h0hqbyZ/VI+SczXnCxz8id8tjmJPz/NCQwQyn/Q4F3qHU5AinZa29yq/c6csDtM0V/0EZtKQBJkh8Z1fXTHwrZTn9CjNIsIBqAc3cWW8jEkCPxude+sdO6ytzKGMs/U/IjQUmIebUM+w52VmtrGvdgU0EeiN4hh5SPIHyi23piDEbEAaQAeE3OHyhMe2JAHyMkh6Pgxqg7r13m0Y6xPRDzDXvXEE5xaeoa4PpLQ5lATTziOHYu5i7rOXPa5Mq69D6OpJx5YhFzL/tM1B9yDzD2GWQJX+tFW7I88kutT1G+1rAnwTSiyPX6tDutasknySzNI17QM7JtH/s+ZQC7nZtW6HzJG/MG/KtjLt05FxUDh4/UcEyv8dVPd8UfkUx5rh2rRUKGj+vVddfr6BdIYLnxTxVUiWVsHNKZ7ibVET67u3E3epCUeawyjYtE8tC70rvYy4svKVXxCOVZ3SM0Vg6/QRRtiCtOF1JWDpVzhJ5J9KFcBIruoryTKaGyDNGDAgaAIOJLhMJ3qAgk0y3UDUl4ZOhXJMMFnC2RLnzMXWURo0PGgQVkgPsDWahH5IQ2/yyo+1Rd8PblEqMAhj6Ou/VJm9Ga06BKsHdLP+Nr3DTOBBeoUUlspqKyxQMjWO5kmjWf2E+TrNyESaoqI1/uorCn/+Rq+BgMOv80l+ewpr1WwwxmtmtRykiyz6YkI689vICCW49hGU387tr4iclTmoIpPTG/RP6JpdikvQveYO+ptnox5q5opdKEV9lafrMUjFGVt4tpHLZjeI+66M2tCnSJ2uZ0BaubJSp6X82vcBb47jkdb6hXqg1yB6vIs+nSJTNUUBShV2i1J0uJEASW/nAPb8KWwqrPcYZSbs3PxTPsKcpFPXhXX9/y4g9cF2meuCGaW60IjB73k1E4pdAqtyts0kDGm2BHIks3v0waHGneKWzjjJYHy30VUigmTMgc3ZRyxqxUpWppwk4Eyr/qbygU6q3BXUcBicdZ0jgp3dIdcq1hhqb9DlEU0UNZ8RXP+HuoxOrxoiSjygG2tIbIDzkYlkS2MZ2NL0NkWxm7ZAY5NQ+HbthR48CeqWvEyMz36ztYp3pXxr5mDr1OSdq67LS7BlMoGRJaGqukebr4sfZoexl0UIvnz9GovV40Ml6guuNNZfoDVAjt5/vtYb8uUykmfkEJrTuhy/1hQkybGVXyna8OYP8arySBpsjWYJate7SUvZPrtepBSM2lbu43AR/6aFWRxzuhyFZ8p38IFKbMDv1hs3MWTQVWXMGGSSykP6I1bvq8zCGIpfJZbLgaHdK90PgMkWp5bBe3QL6wBfrMG9qW6YNue/UG6xLxYM/a1rc+N7y+iItRe9rTvSbpx7HTAIVlc7eQJc/UbtRJql5oY1Q3oOZePgSUwh1L+ssoz+4fEFMGTwU7DlIJJ4YILE7lcv9lbihhN2q6BXnJx9rE5Em5QkdauDKWSTc645k5MK6uwf72YoknoODmzY0hnGi9XItEJlj/pUMLK9pW4sZ/zEiV+Zf68Z9UrJsOCJeOvxP2wy+pFYUiDK+iLBBGcdUaxqaWeTBTqUk2HZB/MD6bUo47f5LVeAgcvXoGBl5rF+DVHkpi/OgwKmtkJS+rgETyQwWM+xY80IwPKwVkY8Vp8Sw0VlfNjcBepK66riTQJ5l/aeA2ldD0iJ/KPLKcbzH2gXepY36LLJ+H7CaLzBpijp+KPE2c7XkcOSrSusxSVAdEMlzxfuxiN8eiYIPqsxJ5hu4EhsdRylT4h4NHe2NzMjmO/CF203PBqS/nrK2R73QwhcSdDBv+RYrHTrUftRXU1KmBIOyQfS/Qavx3OfQJLowVCwaIsNzgo0PGgQWggPsDUnNbJcdddUA1pB+G4gNx6fP98y2miuA1qmcBXRIiH8wOSpXR1L5mgr3W8A1d8roAlI37PmcjHydZFOZV84jYNvysiMFEdHAdT2HACykIzwXTyTkLHkfBD9N9b3r6kHPIY/NMaCcAKmwBTgz/Dtdp0n5xK5e/Lf/1WCOGCFtGupPuoS8GHNpSAf4L26K8vCVBau4prhw7ontZXbj3udLHtn5FLKGVtmTgQZm/j3YhIuPhKLZTLnbHI5GxXuQqDMbo06dan0K/9YqtLX0GvBiV3jUzLj1t4jRbyQaxMk41mLYfgI8HsbbBRZaCbTIXXkiBkuH5R7gDlkWZ1kgtqMFGnDzKaw1pU541YeFUp29fexy9cA0Z8tn09WauxdUcgO9DFoWH7Gv39xfNgmXt8g9i8k/rIiVm3lPQDtHX/kWIJbtQ0oCIxSm/fMqDhGAFe+YMPop2goRjmxo/2bksri4s1Mkofz22WqiVsyjrUsQrVUxhYnRIiwI1qIoZD1u2Ink+WqpcHwc9Sn+gZyyP7kDz1//cbjyeptzBhdYDU7ZXVcTqNL+xsizvJGJ1Jt4A01/JpfPEUVuJb7ZtkzJ3lz9ZW/MaAMBkSFeCWBoyfnZb/hD4ZlRV/FbABIY3hkq1FI8JIoVWGUcxB16n0vHbokaZSlcoBOpmcRTFNgeDl6/QkXUNVwTURhls1/v0/3O/gZQaAWJqso2deYNAznzju7NWImagZ8OrrGeUaysWlm8VRod7ar23ZSsYj5OfCl7PpvAw0H9tNhMwAUmAS3PCQv/O50vGKCOgt//mS/GRtNAFrX3mlFG8T82mIc1EDaqeRzUIyAbjocTM2dSizTnsZxIbwVm8/bNC9ZAFfPwtJ24fG8p2gMFn/AV27b+XwVGCusJ+S0zCj4uaZQY5bReXZEi85Oy29uY8MUTNc1xpBMr7Oj+YXEUdDZXgJah1cOcvs2ThPyOvLwqAkmVtAFQYafgCur5kzMOZnC9VTLHbQwgwl5I1NR13y6T5ZsL5BINmpvUl9rGu9u8u0gBBcua2DpiIgmDIF+VE4QgZt9g3qVQS8vPRXjKlKsKAAhdEiyhni6rC6Pwe/zqh+6EsKBcFSCK834NrjGDKEqE0dv3l1NyHPWoVeltlHYCTbhbHlYNLQsrZPmZyTuIIqk3+4HjCH6+x378RBrqqn0aYecXarHsRUAPe6tzINAV65ZqbqZCUGJ510BWo50v9fMRNuWT2/ihxAAnoIxFB8fhX0NNKtxW6LZRbK56fOMHiHHRyWYdlWJ8Wo0PGgQXcgPsDXeioK3c/uBa/Pp2ZorOaLs7R/KqrHbdVHp/MxzMwr5RhXCStG0Greql0eR099NrPakIq1ftmL5KjFeozpNkQz6OX8qUiVqC8+o+YsYbKPcxpFYcLFYFvje5R7cf5WR9KGvEdPuC3YmOjrquQt+zYXm6hznY1Wa3PbueWI85eYAr/MAbFszXRON7yLhJGPNqJIWsg/8qxix8XET7GxJ3RQzs1INijVYq69kPaFme8wMIkKJCig82TZMQg9tjEOCFjutXgjP4eyk5sWRwa0y5xN48eWQL5SktKWVpeABqYTx+yel5aMhK50ZLxBZ++IhGaake0vxw60glEdYIClrm+3briTi9Vvx1yIfQ/d9hTVTJ4JfKcDH8f/In5oRRgVRpv9iUWOFewOeMMQvp7dnxDh+Spm5Sn+RfUsxpH4uFsX/dFEQUhKIyBTeOH2aTzWuV70V3eTXwEpPDU7m2ZpMigESqxcmP4zVTK+fwRm3vU5/u+mPmAqmfkCgJGMoOr39GqmnRMgJLV2FdyfeGMDFwePHg6DQIfEBW3fh7P+cRFLf9z11TS9PQCq2zxcREia60jTwgUOSxcj9SDd0Cd4NkLeecao7R8KKY7D7z7i2sbuPAK6g0jo56fKKvBVzoiSlZrDEC8L7YhFuA++LY7T7VXvB4uTd9NFZb2nura7qqFcceQZpsOava5wnKS5bgzQLVjbMnMRYh/WczaQcPcBVNwmWUZ1YJnO35iwx6vNONa+2fxBBF5u9O6LEyFkAvf9KJazCm/DPuB1T8IMd9A6jsaCTbG1LZDQudp/CTvUNkj4s7628SQwOOivBwXtnwh9UzKO8p/ystfSGA6JYw93pYIMVo9q51UH2pl7rp0h2Zy8MygSLB+ZYEIlLChJwulb8EwZGIw5ee/zKl0D3+WWHcP82Ki8FKt2ziFaNeOQxnAGdBvdITddAl2Nxi4ZCzMn6390TmNbMTSTRYIQ50WoZAW9h2agEYhokzI4Xb6YDEoOuUCBXQiMuOWWyGFqTndgt6kUHncJWIdrX8YNuZY8wT5xVr5XNrzbF/s3KVypQkbGRrrWEcrO+llHTIEWXNfrZkONaliirwUCB2BIIv3WcUe5goTtDxDRA7J3TGsuOYc7LsZ+RRwT/w1oID2zLHLP79Nfg2T0caBcHyUCJV0QeRpWXxiQ6y55LVi9M2+IQjfdxuJQImOiS77LarGTn1SOQc2WmauPmuAueRz4vcNY4R34Y0ZcrT9HBcTSGE02fHKE/OmugcsBAzCzBR2uSXTKU9yo0PGgQYYgPsDWi3iCGgVubIgCrzGzCCIRZ7hhtJZ11Y1S5a2O0IQ0trzoeDuDeVY0e8DrJo43s3q0X826fAdHqrDS0FKK5JLnigRs30OHnIRjjUSWtGGJsT7GTiAiPVp87sGt3JxXrSFNj9UtnWKsbJv/EnP9NBfOB6c7ZJpEqDXMT9wwi8SfnsRym9vJvovtMXBGtYyc+AQJfadrZzYFDX82qc50x36lDF+1vVTkB977EnpmSzUt//VYmnJ3lV8v3YqX9e2f1Lt/SvuL3ZSBtOGgp3BD08EEwMGUpQlaWacRsRxvshOjnDr3uBcDWw3L+Eb5fjpZrAGIHjKUb39DoVYx+tpy6eHOeB32YADxU62ojq0E8JPTc+ZD4b8rdMso8zf8/YXKvQCwyLHCBZ09zajq6BTOaF2eWeKpppXAc3wVQj8OKUqXP1SIEAedFIQtzft6cmIWq+BSLAQNg/ZLW5R1yw2JSZHWNOHcQd1L8wZD4D5uko7CbzYcM1LI/Zrdb0vEyCnoyJwHg8WFeTA1hStQQr5OO/1/jscYAWVuFFfswrYmk8/eI7TY8o0aWramNjcXTaUcgrXtU0enaFlBb0fjZGq4bKaG7FzXfSdzDuebm8H4Ti9WCiYxNnmpRX8wbhwybzlbi5agYyU08BkBdXMocdOQEO6gDqP7SffALCmM0QEjA116VaJOajRXbL/FCe1iE4g4pt8llcNxRsz70HquAc9J1pS16gANqioCKahLYisa++IzUweQceKYVwLn51h3APqLSt+ddL05sdYy2FlYLWWrvfABMfIV/0x5iB2QV1QyKL3ZHVPS8SGAkt2bx/c2SG2vluBvk8RCEstbN30+RzlAXrvWlO5Kc9UXKHonC5sIyK6mRDv1nRCifspD0F9r7jNzAttniUVAZRTRwiKa+G19w9XTEtyvwD09fmlEa9y2IJ0ljY2kQ6rCg8mWgzReBUFtXXaP5psNe4HlxvvHoqIzZ6bxFIvYIfn54lz3C57kkm7Xq/ijB1hYtQIuubcAvG4BRsIZCZEbLqlNgyJ7e0fZyxfk0tRr25p+I+UJPl1nUn0eEwUmwuoidq2l/Wni/tHJqHsnMfcqPJaPlWT4eJ0KKn9HzvexAQ1433sJKAV8ezNUbL+WWjr+CytkTr5Iskj5U+gCnTvEoIxftBjtMn4HG9doaDVJUr6LsBrcFZne0ld3jMcWI5meHep+GUwiOQ49QE9q6c1JlkOS00hoeK9SZxrJz/jPLEuR6yfI0mrnMfXzF6JvJ0Pl2PyJLJaCe6AqW+zo0PGgQZUgPsDXgFwLMKYbjp6rY09jLeHs5XwIORAiPtIT0autpc1tXznR7zXnUAi2f5K1uycyU18f+LcYXPEEEkEIG449nqzIW150aSMOtei0OkVdk0APAhGK9wHA9lmjx3brvU2KySUgi/MUwBaIwpQhwx1bblIL9RDbyRaD+0civIwhtSm8Epd/Hd+S5F1RidIAf8Dn38ep6CA9vIPPnsZZC8+HE1HNEhqUXkJGE+kq0k38j1aiEvrbe1b/NY6OJLx0phFgy4OQuq20lCCskK4soe5kf4Mqqo7i+cCMHn5twnlecWAgh8SsF4UUmSj7EegQ/NSr0rcq04tNBKCoKM6yJ7wcR5aUkP4qEObOJ/Z+7PRep+CYU+nI45tc7iK0/2heijpYElUp76woh82RiVdi8v0ziaRqatsi6duOtmT6JV/e6dnJidaXo+yGvzlICql1ktBaxV1oQ9ao+T10IZY+qYmnInzBjDELzSD0JD7ogmmnUWLYM7eUymOgEi/mHN5IBdqYpa20QWtEdVlzpwFxPiukAvyc4WFFhKUl61LBJvpq0HEkFE5fFWSYV3zwqKg4XGupvNYgPCAGQELX/8AvWIQD++hahec3BWCrdKV8FSpc/tW1AZbdmnApwoaVFGJ/boHmGFmpg92OEgI0/qfzPnvhVfN9i3amSKcfVu/DIEwy2WWrirr9B/Lb57XBJTMSv3RBJ/GizqoTPPSaN9tkgTxApL6/X7GaUnmaQylJBTW92GME8IA/XOqxcaagBNv9ROHjilDYmbwObcQ5Lb4MqAnDpSObdJ3yJFaYgIVb2DLiOBJHFnNgXY0Ttb5qXzmce3t3TCzMSnG4TsCvChKsKR8s7iDd1O9vX9zZyUT5wIXb1loMgaB1/OkvChFq+DHcMyXT2vqld3uKWNDh98hXCD7UkovKJHLbT/PwUWtlF58zN00o1PJSrYZgd6YxOa04e0bA2ubLeNm3xFqJivoxPrijyhi70t7iUhhiIUEpE9vwuZ6mq5MUHwjnSZb1QDP5aSIEFXtdIim0aywvsJmQ5ksXyiDBfwLRhOQZ1FAl0AMDdxvDjhASYA18CQGde6OEdRpdVcd4U3FQ4/L1cSx3ENCqdaNFEsBn1fL71MzXgd9yhvuAqH26gOQFgtZ30TcPS/aSyr1GZZHTMQaCTl/59vGtQTQmqlsz0hE541c02+sTuCmFXyLZR4KjKaT27URVN/1ETuDGBj9DqienSQcqAvF/GMLXnkr8psQenDUbv+2i/QBs1NvNrk65KfvmDmewMnQUOLLo0PGgQaQgPsDWbyRkUB8g/OZ1O0d2p/pwQK3BPd6Sn9kbTSJv/gpb3UgO9IxxPG0ZUq+v4ztyzeGtXXBmyKNFPBSbuxZGSgxqmQTdxRB7DpxUEUHRcY9kLqaJGXjsD3DobEYpV9UEYZ9yXHktfzvpEozChiLFZ+s0se8guv4sOriL1sPb4uWqaaAvPVPkbs/+TUd3i/O1W6F6/BI4/zpZpwxVGcZX70yb6IP406l1mNeJj8O4gUmwFPfKSnBHinsCm1p/E8IHj3o6nHLEzbrC5esSE3tp5CkSqOBzTer+cIVlylD6Lp8aqs1/qBpZHZWBTBt39+KK0/8xJapNuH5NksaSTnoVe7ZpoC6qzN0lfqlFTX6Zr5HrBFvIwvY0JCR4ZvTSISydW7IEic0jB3/kN/OnvpV+uNgGVxPuIQMlEhX86pllYrwyuVZeFDFTv25NwqOn0/25FImuklm3U0X0QqxzUdbCkiSWWrKkNWNHptg40e2tViYDSQuoHGXV7fZB4OZi9WiXI5/rkkNEXerMehYt1ZROE0i5abCmKtCcNAYGysAunVCXEiVBWEOl+hpTjGMiCGqRfsV//0LYUleRnk2zRH4N2ORyzhL3j+EGIScbIMxVPBqgzVSH60SprWoS94f+Swn3dNWPehVmh+/0RWS7f1QJBisj186mbvNXqxGjkUxE4m1JQpGP5rfAAfL9fA/RAYD6sL4P1r7yFZlr1I3oKTu5p5p+Rn/1WBd9uXL/83LXYlYVzD+oglvG1vAGUmI3xF399eQmjgWg9GphiI7SNUAXa8gpaJLWiZavW1j0WwLxaEXiFtVPjMXAw89ru83+oa6yhMXsJdE3kFI8+Dt4l2dPxHAF9zdGXmWegxewosbMKMZnxePwFw8faEm1B/AqB5dWocwPTISMCUZ7mXEvSMvRewf6q8fs8Han4IN5H2pUeTREV5NZIv3JZeFjlOoEixZRSblpVGtivRYh6FhfkARjTWOzSIOOKv+uo2EN7ZhxtgjzlfB6XJuW7h3HYH5xtOERJ36YT6lVj8uKFhe+jKWgUjvPzw4BuOPBIb5dgJg0Rh9Uq/ARUUMT7idvTc19MbhBSDhN/zxSmxVK5/j6VVV3QxhvfqyPQNJmfyU2bOWV8Ncw7FAPBuXP/jSl3+q3Rb54RjrNAO7LygVXHqQ1o39xHDFhZJeKluBxPJiEh6koTuMkRwhf+I+e/EjWEUizCjrQ7N7aUSj47BYdiI+y+J9RHJXoXTz8le/gdM4iMHGrqpsdLA16+WWL/ZA1qo+HAlxcSF3o0QjgQbMgPuD/BH8EVH16DVWOo0GltXH4HCD2SgkOAaNYI/oo+xMEqox3HwM9ClhqdOtlB0+Q8Mx/LwC9APBhi6kLptCajOfYu9++KIsuaQS/2woIFo5FZNk+lZR9Ubx4afvH2Pc3HRe5Fgh/fhVnnoUopFlak3kV01KizSVaBHOoRzTl+IqNBKhgk6M/+Yjibv9MZbOb7bttbTdCm79VAh8xNNweOvP3eYYnHaPBqumpODUUW25llPaqjzIcav28/oQ7Po4P6ZUAvlPvz59GU0I8cc01GsB51z/7E7Cxa7z/+H95Zhf6Sb4Oa5TJuZZmqVDUOQq0KP9k+FYAHp9XMhFmCwj6C7gwWePm5wstLuVVG4fxI0Psr5AoZym9CHa4rNSsb2Nda3ajW6XqfHFlmjLNtj622b9Zt/vuhB0+dFe5+6t5N2woHjqZbMCWbAeR0Hk5n0A9BppYWVES2tpxJC+XuJ4CK04UaX7P/dsxIDCY1ZlSz1OD0Y5IZPLrkxU14ceQC9/VQ6SvBM8Rw82aP2tOHcuDQV8eyl0LrxfdpluhceC6+Ja2bdwHTp4RXd4eP7iraogmfcZNolUGj2M7xSgG6iw8Oa5bi+gClJHeb88B7fD1+LMzQLQkVNNSgtYjGFGVaQPGe8RKvjakD91euHzO0+sqcawuK7yZItvXLjW7EvYN4w3FF3BBIi8tONnSY407/Owxr+gwsFtobhCeJbfuWraGAXLhTwhtQOUcDvBC0G1G2fi2CeZVIjxpqghJWCwv0mmEtzAByqSrQlppmX8RbhPhxF++j+vScslL68OrbTGuBYIIvZy5UDVLNfKAGmPbGQQtaVz1E2IlNMkA1KhVVzf1FG6LrQEWlF1BC5PzdpzIwzcMeRyN3T8yNsye5uHCtb3ze1omxpBqGH3H9UpRJAlTYCV7bPaRyS64n3tUyTD4NQ0aHbuKAD3mIxuNotevED7V0kiVM5ebJObDogg4enlyrUloPp9svFsBiL8zf9chtMFAP+vkJeOvk4lFxSeX8FLFJ12KvkvJDhSw6oxXnQ8lRZgjBd/Fn1CbZFQ4HZfn8onmH0CW4gNym1d/np7MWF6I+Z5jAkeW0IyLES/AXRKgD2lYYu+zFgdJ2FxKmBUQ/0TyeRqNpphZD8tdV854NbE7+2BiNGZ4CnFY4Tah3T+K8IgwVzagntzFK1Nme8IdtHoiIaqatbgkhtojnTKXN/QH3vzFZ/02eVYRIRouFDKqV8Y5Qkz9ppD04Qo9IJmpI7XG6TYmrCIPKXtK75Qx/fGIeV3MuZHI9S+2WDGBoc3hOALJXSHLDqk3qh7VpMPPlwckshg93c+t7oihyVlIaf1mwrktcwZE8W215R/90fp3lmnHSt4UfTOSrNzQ3mOwE+1C4R3qvZyhwtfpa0hRbYoo0PTgQcIgPuD/hL9Elo+7w/xsEUeXAEAQ5qtnstzZxZtefPwixdfmLwSDw9BE5eS1wzs0pn/xDU57F8HjGZJZq6LDWWbuu3RIcgVJ5mWiMEWqH3BdFTpLGa3dbZhodP+kXQL+8kx/VwAL29Vrk7fJJfYC/5SnPyKgvQ1+Ym24kCqDS6k+Tfv/9qB92mmEfYhxU4VMzrUbLGyIAR/AGx9GJuMubFhQTrUIngRflxdznalVsuYGghkS5foj35nixucf2Ew6hQTh5mufZjaFffTzTrWbXHVZ0mrXOt6O88StNReu0sFwI3Rvv2IHqpu8Gkbt2PILfaLWIfZG40IhyKGrNgdMNvINFRO1y+ifnElyXEPXyA+d7/D2RnqSdkfcAFSJtIpRRQC6UfROhcEebISRqrug3g/JMHYTuD7KJKVJM1tbm9tRaqotWhiuUymPf0dZoy0WhJbtpfcCcQngjAfOEVWxWo1Zt2iB0Ez4BrJf0N7QkXL4FQTIN8kfeLZHocBnLE8uqQ3hTIzw0vTsc5++Mj6jvVu59m25UKfH2kn4x8NCfj50KnmPAPs+LYLtrZue6gOEiM2TBsHaiPa7Bo3WLyxlnpYlJ0SWjTaxfjSm28X5Tu6QeZ2ImEKJnHc2PdJCJ81yJRUxTE07uaamtAQSJc5f8CFxSTO9wqhAXZlm8gKytNSTliozlGE/CRy7Br+xHh/H5NEa8XbpVCgutGKa8lxhwLpwH9KA798MhBKeR/EDL42W0FNOJ9L9CSa06ArLL+s2EkM1XP7eo/0pVLZetlF47tz/lBqULIdcizMvF3cEV1QyUFOL0FrE/cM9IIWG4Py4jgRGdwq2v0WKoUS7v1LGzioeveFR1qncONhzvdLiIRD20fxmlPP1iUGISOrGiLtZM1F72Ow6ey+RKjkedIfI/hmy1YUYHHO/fjjy8CYVnZVBJII9QOk1ETekjbqlCL+RTzAVLsgoDI5sXEF6sYNyqtyr2aJG/KB8Ap7qaY9gLOfLIQRGWqV4bWClHQDA8lBv6MGuBGwcP+t3NgMHpFYM6KVMnnfetgWhuRjwPDR/H7Kkw4QkMx4yC89/gorf9wqLmxTF5eR7d4eO9rBy+1eo2ytHpvYlqH+6grx10mnLFYsh+kPhI1dcWSq7KmzZJznrkwfc//ypOZ3c0/zTU6N3hcwnyZq36S4sbLWkAA2Ns3YyZpcj1LQlupp9QILXPZB6c4FO3FvkMMK3F+dtty4kRm3OXNh9dKJ53hy7whN1RBlCdSnCsPL0Z+pR4rZrVJH1mDZy8aphGeTbnihcmi3Dk4jYKND3YEHRID7g/8S/RJZsQRqDI7/XXpQUOPUWSeZYzKgG9OBb8DgmhpDyRSocGVxXuD18Ip+RfV2hcn6Gzg72q/FdDCHx1YWQIdMpVPbO676VhIlP7xMRcV3V8gYSJ/sWgIF8eoPjoyYtUDGq683SbZU5Psqw1mYbH/Q4/i3pY51DCqGkOIE1YuO2PO6gz+YnPT/ji3Nw0+oVuwudyIgnEygvP9fMzwOf1dHM02YiyRhtQjcYOnMmEqLnCcXwRm72DLqYlCqnrQX3D+JkfvuhvLxjHSBTCGaexRXgUy+L/m4WZhdkuKsaGvmr5uZ2s3xEirQMwSsHehI27LxgdIm5J6TQUlTp39gHegx4jqnctT5/hHou0ceHLqDxzj/j+G/ByhTqhQpSy+Bot9wcjI4XsM8kPLh1GC52219BkVuCQS88fw3uZDnb17G2gFgfItTuld6RU9Rt+NVQmXGMuM5J41wuognJDHZB3tS3S1aB62te/hKVTC8LV9qAfwKGX1ofCVwdN8amnvSdb2JsptoEoE0g1l/UCK4DHUNCHLgxxpVQOoQIFbuaqnK2LnvFATGm/T/+YEM80n1SoVV2yQdlmcfhWbOchz9z/rGYMCmiRYMzJLKfBKsU+On3BdVXOdRdTolAyTYI7b/3eUt6Ai8eMLGpCK69YQ5fd+5cbt2FMHuR3fZ2TBTMJIHmzbOWx7SdBJpQyUeANLCuL7kYSmnEk23+6KIOCdIkTo14gQUN0gUOvVvvOHksDP90ZJs61eqaog948YkAnCjIwjl+PY5Qzd5a4TwpTIxt8F1NBAUMfXx7BpMNVlA6Rgoko+o+cdhvVeKl/5r3NF0j6oHgT9Rr3RJxesv9LpkfmvBERDKpalNFPEh3klQidmdWbAihukrRti25XXvoJEs9BDmVjuuxk2pQ0eXXHwQNqGu5Dni6Eyd+mepvKkH5qsRiKoJFkRft6xGcthzQa9tM8siyUgwpEoAoO2nTRMUFDn8FK473dgoTaLWH6j1eR2UW1tZj+NVngiYSdt6DUzjmthe/4e4Q+tjsmiSuAtjkEwdCF2rXE02zgq7m0lpub34pJoPSOj1m6Q89DuxjkuDx28ym24Na8AtfqY97SnaJYUDAWVwIVAMkh2ExNstqtgLre5aAvKeoJaBlmiRfjALp32fk4NC7YhNRcp7D0FKjRPtWk2iKqQONqeHjHrM08+mVRf6VEAEr16S5OGVEV2zXcH27pytzrnqeTtTyXE64eQC9A5iSEAmz6xMiIentV7UBQCY/JiQyxCLqGEDnyrwhWnLoLDyzowj0K/XGQy9HDPuzKvcQPnno0PUgQeAgPuD/hL9EVHfB/PD7Kiq1vlAoVmh9vp/y9fjJNpbkZgR/uWSnq3U1TnhqHm0hqWNoC2BpGCP4a/FOeiTODSkEE5cxAsEVo/5iJyjPwphLijVUwn/4jtrRuwkoD1LYL9wUfm9nj1Z1YJPeQTKJajYgOVwkhDUeA9gQ+FRliZO4vJ1ANAL7x7JbeFwbqg4l7fH/Z3ZigcGxvyoA8JqQkl8AwiYLNPXVDqYkaFw8p7ZMKHptfckWhCmUJsbmPxozgAeRG99t7pnk0w+irikBJpfP+y8SSi0TO+utuUlF5VFsaqjhW9GIYcWxax0BGoOdNQSLq0ov3c1jDmVZFUB6DYE5hgtNfOkzZttSMzB+k52ABvxvbOzIldBXJMgjbT30T1hYuAnpNP7HHD/Xm/SUvv3vUoenNrtnc+naBFdHNODInnSXJMB3YxcOu8HehzjWZoOWQ/Bn15LKfcwTKZAGKai/QNk7gS5CpP4UHwwHUq7eQm0wuR24MVhik0e/GOWLWPi3YWJzR2VdR9o2Z6gO7XM47rvDBql1TMwGObgain371sRQK1P/m8jRtF1tBcHZdRMyv3hDuYgHT7Z0z6q8OT1d3BuXAaX18TkwD9266KZfct0XjI9QlgzWWscgmthAoTG2Vd5UIEXHfr3G9+CK4LZW2X5tz9qiIKUWiHAUMt3eviWrpxlLBU2nWA8PInHErVgNkklyxyJ1Y/1UnXru7MfeHdx0TCy0LTZ0pswCj6JCQXiTmNvFQ1KLDIs5FzKC/QuqvWEfmwF+0Ms7d8PGnzu8p9mvQUYZ54lCPMXrzgkrYxJFcqBiL3r59HO1eDaaJom0xj4UtNWBZ86PtutZTYku7AsU78Uv8yGEUcli14OUbAAqk5FFLUx0mjp2pWhH+GQ3eroTvppONFCoQC/nH76EiDfqU4HUX4JKGCA6hqlWZ0JjYNHtc9hNL6/mjNWEZUiIrO8MQ+qMq/fGYCi5aOXQXA+XuAwHTQYXJ7dWP43aBQQqroqedy/A4rf4i5HuyGdBz32wC1ECprz0IY2rqe+TE1upSTE/q0V4jRLFMwY/KFF8Cu5gWvH3EvG2ankMY9hC5gxl3cND6vGsxdPky6MoRLz20XapsKdJvt4wzWrIuUBYJiTZtLKWERrbqwf/XZhQZ5zoQTlJrvdUdOr586R7wHMc9zIkdgXlgQvbamHlDcyRcQ/9Ji5ZNLFjO4pDYyw8+kqD0a6svyN24s73icZPt4Z6Kiwu2IRIAkvt5Us7CbXxZjNVpEszcC3yoDExWz9INWyXwK5PRfgoPTQticgzKujQ9SBB7yA+4P8EvwSU7vqsMU3fGyaHDHwjvDvTEWqrkGZbIZL7MIPwsSY+qPtAyYoBoKHsMptXvhVrkbxp6ssnYvTbCsg/ty666mX3nUUk6JKaLtlGzDLVgBlVQ43z45Vd8q/pOHps5PTx4yTjyZIVQMVHvRGeEUcTSOvHaPBYE/iIyRd3ptqQKQi66MyAt3l6I1VjWmq2igWqoBFZcEIdKJfmoBpZVbqsSgcNbMsYDkRiR9SArf/sOiDi4uXrbmV7GAHRi5M1mJfRwD5KUKXWr8ya5serSH+uCO+ljBOc9TCbksKBmpY7h5uiKaA2UsPR+mxI2iYyLp0iVt5v6Pnn/eA5rPwAO9uQb5hg95dwA5ODYkeyuv2w0+f97q2gmdOdbA80I/kHQVgjJkbeoO2DE0IQTIXSrFXMeh+UhtxyT0Z9rgzJeLj8y4UdrG7ajyaWV6e68yw83/ZLGVBrV37KOmRMLoyIYkSIwdn58E0khTYQBSguXqhwOO70HbodqOI20secdajRnFnMIAJ+oqj4zzN15t8rHU2OwMKiQDAV605uL36vOyfE7rNSgzO9UzqFen8HdAaeLtlYftCpqiKu4sp09uRp6n259X34kkqubs4iNagtiXGAPS1EZdFOrH2jP6D0Q8q2HHKro2/z/4+Y7yjTtl2qt/FyKbjGnSzW0AZutnw5yW0ZfoA29UQbay9LPHLtmwGNE5Y2UdkWZPnJF3vNsJapSPQr2aE++HOBneGwM+kTHMPRG6+zH5ePan2IBy7W5y5bG8wZPwWnK6SznFGfYQM7m2EDeZL8moMybHhgttich3L9uYx4CWIHsNk02yMv5601hCMpzNwaiDhF/tY9HsAC0qwxCVq90DQFNHMWM1iT/K6eK2lNfnf7GQTK3qF3leCjRhkvgiIo/D7ivozn3YGojNMbN3WhSZTdQCXYxKCHmfYdlPQ6+UHkvs75dPKQuZn5zZXS///yw63Bhg6euItd+qFG6WxEksvnAs+ZfnP4dQ3nSQ09Wi5Fdq7m+DbbxXQsXvWGTZ27IndRE3LOQn/8fXFrwp8wtnjn29ETOA81lF98uyhYNrHW4AsgIfEDB9kF3g4vtd/w0bIZHt5LBFQFytbYcECVqnUFY8qTskXpeo7mRk7UdCoe6fHrOmeg5+hAG/1YJ94vNyOIypHn9jYUO6vuTvPbPhmuwHr8E2lkeRJklvGIAGiwnGc+pKH1CDB/BNdONFFsPlu1vRChVEZZflIZHSR/CGuuGnC4qj/e7oyBGV/Mn7CCiBu4goEF87bP8nVvl6FClEy03/sLrcBBqND1YEH+ID7g/wS/xFRFhYsu8vy7IP5ZgFsnPPO5VD4ZTL9yFcTTPfT5vpOvHkbKXHfF7E/1CtiCP9qqNNiJQDvD9UxZATHIP7uCZCv9l+6JsooEimWiHKXWxfEoMI7H6XVZsgCpUyiGoREfTFnHvnDUWrdeLW/xsP0AWbnOmQVi/yR96h1vXPwhS2lOYEsJQCh9pn0VOUtcZdT5pGugNkDD7JTVC9z0Q+DqsPyanpXRLNSYWjH4FFkNWjLaev1cCDW1EipAJvnkcnvqGeBLV63ite5PBoYAGBkLm6VHNsXwGe8maxzcHnwz6H8YmyPwZm5gNC20EgTeBJCXj0ZoWDNW1BiPkA7+bf3vv4lD/V5m3Ltq6suvdnj4laOYBo0rhkDwcBDdFpFOtCJjx3iSbL+xeK84pUMBfT2Q3yxcuWGe0i3SyJAx5yKvAkxCxiw0jhT6c0cvkzMb9Tb5uOLePSBWNyhTKkOyXRHD8cqBQIaqGo54YrwJhqNDKt1sXvS0eLlDTVAsJN7DG2ozLiPSI+TNd103JcAF8MwSuQvzjqKPW+U+gF7hGgrDuSeJ+pmu7he6U7YMVX2JWeC2lTxkpfJD5U9JSp+XMozek6JHfC+/jLDYmhCzi/kHEgvLN6LXddhKKcbwYtBE/bLIXK7Lxl0nXvBHcLS6RCxJN0ALyKfPzzZvAscHfsxvIDB5yvNIlquNJrccuGKW1vb5CgwsAdduKTW3H+VCtqZW8we6visbSZRVvtIKOcs/1Czqwg0L1EHKsHzJPS8QoNp4v+nxypp4lX9b5dLQoDFXU7t+aru/S6m9kl/PoiQb51h2QjydtQ1joOyUpO7SC/DzsIZOZ1zTRvDG+5OXRKr5tU42WVdXWXv9U+8BPVN/gqar/FWo7EBLnDqLgWjomCZvQXD/e4kyHnRKRfxflSCRQmxd78HFv7o1VbMKQpVHkWQ75PU45sG3YTwv9udSmeiIKe8ak3bLBX9pEGwb9+n4+nTKsZay9Axkt/7V2DqqrU5Y/+I9f5D3ELiYYIZ0lsUCR6hWS/L1r4to2pQ5wapkpr4kuECoIHpM92r1+4iAOTv4UVD/w+rjy92U4OzmJfNigjctuSdSTLlgUHzOalF2WUEGwiBlVrxoxMYCeZT/jMszrufVLDNLpW0R+gR3It2gmJDDPF4Lqk+RcTf6Xsy/g+l5RmFL45gnwRK9xzzU03YN3Jli2akQgfXQEcdCE/PDcYtrLhTEtJxC/3Nr5lYkS+1Utb73SwR5H6XMjZHG0Tbo5nGfaA+5Fqc5BOwchs42NsaTZsnJdea1ed7+6ND1YEINID7g/8R/BJZi/2ILCnuX2QEH7qDLJ39DLPTygQRluwTgJbQyeFKNtiiLizbKcYRQKAGkJaofKlO+/yH2Ce4lshNz18vzZdU/FYYGBYK/vUowmWWqZb53qjm4CTnHGKrar0MNXVGLDd4Dy1fIKFWCgeWjkRQNlKvu0w1CKiVu3RSy2r+9RcSMjZFZs11nI3KThvVIK9xOWtFiQL5uBt1VdHtafQZoEn/7ZLT5ZltxHc7/uAIvJJm+Xhk6UQ9AFw34Ttv9bm9P6w9UmD0RqEpAyMzO1CytkobyL0JvT7fXqxl0OZeHmthcd70VoZXIMANJd3+nNWQejEMs5nXOs4zpsZ2yjqT33q1vM/pdOVwEgNzGPEUuXEiNDoO7KvTv60CxM3jw+xQbpp9B83PiCOXtUuPRUDIl1MUBtFKg1es4+QKjs1eYduZwJkhnVlN1X/8WJRs1LpgQEdApnoFs4a4NWWjczYpnNyFRDNWhmm2mdHkjv1bUyznk+j/ewIjJ4Iux9RyXuMZZtiPSfUa8vjPl7pi0X3Bp5GOyDDzt28IIpObmn0nlzXXqIcfkwBodZHwR3OEMo5jVG3hmaboLr/sRFeSiTNcQyvb30fZ/6PTAumwIf5DTD3zlgIaI4tPszQdE0hpLg56zXmtsv5Q533oR63XudG1hbNOmyw3xfC1tZietD2qZX+at5EC80ebzlwRdscvlb4azWjYSq8tYYhD/sGvZsZeccqTB0/xmjOyw6KMAqxBbIcQ4IOlMvkkIdPitcWexvqra/2bXkF+eLwlhJaIGjGNMtAomOSU3Np329aYV40kEhhIFOR8pw1hpMjJR+rlUsH7Sri8DtC955h8RpiHDm+Khkw7uREg7pDjX0C2NIzHuYwuux6sjCJbeM6CTEDRp5WkzCFghnwBojizX5dmXFYPLRA4LZLlgcqcuIYGLPN4TfCo3dHOnmRfbNObCSlFg41takecLSg9dMWKcuW2pfNCcZeF+u4O1DHtWNPXokzDDVYZKoWMzKO8EEBtggBZvkfIwoUhcaRgWmK/rpVLP/vswouZ5o3P5z0zdHdPieTJX4wymOW6hmtW6wCISOJo2EbDPGu3ilikvltgFHRJIVPpJ+cKkY/kRAUWpyFPIF7/7PgxdMxHr28+2GedOsD9VlSTDviS+sE1vUBfbd6YsiE3u9JNDHfZ0i8hp+M0hOoy033Ge0dQ0c4dxUO1/anQ/qf83wwSb+YVgviXNYyAGl94Y9zoiBcIIwI/S/N5AK6DM4eWSeIfDriDwPtSCza5XoeP+/aYu9RMkSiZsCS066NDzYEIcID7g/4R/RJQQzssxWftJXTxbQ0WTY5qi6yXFu+i5F19sKQs+4dYqHNP+zBC7xjigZG2prIbWHmA4Hz0CEemFFfZNNdTBsXYTzZQzxac7Mm9G50clpHkcKqoc//0l+udh3PoAvXLdhhrQen8RbARyYBMHc0hZBJ9QZQPj3giWllzAmLqsXGDcT3cKWj3OkO9uQcGVXaOC341XPRW21PxuafD3e5APV0h3X5A29t/stsWnc7KlXCZYraeX+VCyHjD4zdV8u1Mz6FZHPsYXZ0JVfhBQxFpRUI9JYbuw6NxZIwip7m/AKuC/jzgNPTU/jv3T7shSO2mO118Gcf+F24SNR9WedtVMKeobnHz3vxoS6xrPOs28PGmcknIAF7CiTCRj9NgmXklMDmwnwfTkfswmxcObgPnvbuVb70xvx5w2q+hWJd70Ujv4eEqU8CR4oPYmOKJIfjmyiAPsfeIPiCUNNJyGfoHesTmQFagHx+4760ABdUxVrHPskLSUMPbKnmq1Kyxfb26PmKFTJNMkpCtQmwXAJRT6w2XtAh+78Orppc69qcrTFxexfpU/27aSw/HtgixkDx4xILPx8rippdMLo3LAOgGc0rbcC1Z8KpUoJ8B5hSrSVIOoiRFw05mDpfEqZwNFlbjLWAJSQk0ZqVm8mhuJff/R4XmkBmGEdGGqjjhIEPAJeBq1HRIDXtqJGurg8HFhR15CNYSIZ6EUPZRV6TeFGCvB3jxAw9z0qSoSpeyp4eJIQTMEd8a/4uzQmMyx1rCcWlHZLjvxOG+PFFOaThQtaS2gK/p3jbWdGOcb8jKojOW5oPTuI2SZrDzyAD6NzRtYHw+6nTbHK0RraKPTy/rkebuSBxmg/KlbnUr8VpV8V5QYiEcNzIQEDn4b1w5Qgv8EDSy+C+wTTsShh95r/dgPq6MK/eYpivytEDRCo42wf82w934TH8X38Qg1d8BlniIz1AyyAkAYg3taQTEFQDooUkQpDsKGpZFtIDbuvvVIa0d/K7t4uDmhdrxfHoT2Mmyx+1qwsPAm2AGiwbklNf65ZTZndzUgIHEK6ZBef9crCB/0RWn5OibTb+dbtLg2CYAqfgDY3gqO5q/kEo74ON+puGuDwECRAMxl2yjgw67ZD14GfkUbuPNEDTRjORKCGWODIdL+oiCfbKvAi7n7ktfuoXoyunIIVg4ch4eySfPVNT53Y1WakW2NGY4aj2T1Pt1Uiby1pwkK+hmHp4VLviMPqxQX1kgjTN9VKlCHOxXqHp4PbNrOafMGMS+CIHdGxwtNvqdg/teCmujQ5+BCKyA+4P9DfwNWlk6SPASjtQG2BNOcGqzR9K8CShGH0dQ+DqWxLuuIJMChR913LULQVvzNqTh0vL7ycekJUu60c7nIJrIzbQ/4nqxu5SUXzdYLhAI6RJ08n6Qn3nIE7fooM84moxu2VdWCO6ARDO85sHvmJCXXmDiUpDsNLRkJpsoaXgcfTmCiIkrANiB0bfS5iMOpwG95d4MXO7hbkNTSoU9psGtypLv1zOZ5wQYaHMuhERyUoFsOfR3EmYw8yJ1Ncp4BPnlEq0T8tCePA7I32o/ArZhYZ1E1DfuyJ/OKiEOuQesHowDfwGwuou+zkg658pne2pwGI1+/5mKoiO0y+1/6A7Rxv2b3JdJJx1gGpFuKDSOJJPuvrClwJeUolcwGJa1SWayVUZmv4YLPongtvheipnVWlpWCLdSBrITSkTCMBMvnxLFhYF2g33+xm3Qz2g0ZnqRMH57SlKeb+wFICc2w+EIIAhAVpIbZb1k7woWRIxVFjOVNdwL0aW1RrbPyD6QRCNmYxx6/uRawqP9ICztOgLBPWTZabJ6CL1TnV8hsYty5jCELrIdxmVZXF3hZ8LKfC4klH9NE0o4awWAKxobScFeQSUGWlt0RdZQtrDBkC5Eduh8JD11ET3FHtazPCQJtHL9HqClgMNrz+232adwx2J9y4V6W/Cfm0U+i+XQaLEXF/t6S46CyyyCJsOJGccmau+INbtl+ZMJbw8VLPTUdCQBteKWaXK9YFmUKwjy92KxGJgpgG03oyHtgdiwjxtwyGSABVXua/3T93w+Td4hOjEzmKYcLcIDCvZo3X5h6ygltKVo+u3ZU9U6Gsf1OOWoPCHclzsKddA/Mby+UpgrGeiC2Ut6buyGR4XFauD9QQk5i7jKLHzH7k+iYRv3aViKWeXd/jPThXx3UtyM4+fCmZccaJFrQ4HAPyPfXGtFNUVZ3CiWP/5SixOlTkXXKZOdaHza/ucGf9hgRkfYCUvFDWzEDeEfDmNLJ6i1RplReTskIS9WrMv6O2M87yfaaQ434Uoc0tG21FbOZeVgy7w1rZ5OXjtBb9ZIacrbiu75fM3q34ZsQsbJW3BoWr6BCI/4RgEXCt+hEz0Zj6MCEHE0lDowOlhSYv2ghKMC+FNyYJ9q7ZZ7RKchhCxPC18Mb+QMeVU2yx1rTF4TORvQLkaIOfC1nWvOfhqjp9r2SQp9fOE+FFgq08nPWHuNavav/8jhB1WusJ2o1xxtO2ajQ5+BCOiA+4P/C/8NWa+s15yBgIG2oBfssGb9x2Zy0kqRl2fp0xbZ5EytAdkf55LOizrdboB6mL46ltBeUEK1dLwqjHyoDcJgjBgsrG6zUftb/iaTrJZoHkDbewCOVu2FNEU0Iijvr8fdbELiQV7a4YKq7w3W/BB+VPUhqGKO+sHF8EzXUAB80qh4Ee6lEGza0lM5/u/ORzdreiD8M03RyX8EMnQuPK38Wp0Y15RlQlXubcdJWVFRQUbvMIaYBA3682RNzmYeqjFROmOuuL/8TYGH3ncTBSpiS4pelTWRYzDP6VQo/JMYbhhe+14k/3+Gky914tROUTVIh5OvQFzpDqVewup3jKRSgdMm5DA3xcKCEiR4nY8Gas88FxdXIgnvW+iloSZPLzugTJpxYOWy/HvfgThNUzdan1YrrD5hAeTeZFME/k6S65M8gDBZwhsXHoEAeVYOwzNwOQn5Jf2QjyGQ/Fle2PSerAFxs9kCoSVR2o8osYsHDHiTDcnZSbCe0JUcaWBIMgS4hQpSraB93wO/kCFulN0IuhuESLyL3jdRlMewltKR6k8xbx6chohOwNTSUhAhsAzhQsHO7ftyxpvgCLpAm4uJ5Omstg9qNg3FY571d6eUHQ8Z/QdWCR2+uj32k4V/4/wHc85o0i07DbUl26zydlYRD/Ce4kb9VKbCdI21xz5CTAC8zd9aqhOdMB95QQJMu69qs8V7I4Q74fSNFHUMydGC1NGOXqVWdmAe2DaXHJRGh/JhxPcgF8yVpnhVHH0FUrZqUsGs+6Kvy9Uuc6aSVmCm6OiHV/nx7+hahiBjRtDpEBP83Mit97BgeFrPFP9RjsNLD4n1gM5A0qmTc6ZvDV77RPLGc1HVMHzf+olWmUojNxjQo8EQBkprsZv/PS47gnGY8f/HB6fd9GQSDzmi/7RtrVkEAS4Egb6FyA/9ZaRRGngZay9q6tCIl8GdXuBY3fApreWiy4yHIE3Z8j6CeXxPfZH7YBLwAb43X3QYMB5Mc1ZvuYAAv/7MnxV8k30QSLRWebKKQrLWzfgQPNfkyJrPVDPfIqdOQFeyhGrSQjQpHUakzuM3NktFelyw3JcKBw6YHXyZu51WcONUjR+sBL2LfysgtHXo5l3MP2DzWSxhhNi9JZcQQ5PTvtU7IVb1vEHH6/cfT7HRFlu7F99UOrIjKZ3PHNB+iy0n0af7m1y8cYSxgkG9KBj3A4G3XPV5DvY3CjgBicbS8nejQ6qBCSSA+4P/Dv8NUWguVfWJBntopP47esUt1gO+Rs7KELdhbzb50bKI7QElAQF/G3ApqT1ey09ATB/Qm7FHNLAdnzq3OkIIhfGTEqZGC/r+HK2ivhVbTYhn4tJe3Po0+K8sQ2b1Bt9t76q6oh0JNuR7Kgx+sJR/rBLJJXIOpSM07PlliK1NkGQnWhCjahKvri4CWyRKTKG1/yGAkt+jcsL1LgbpIb6KYwfyKtdCy0RECp1+P03v1s4iHv9+Zs0UggRfySM2TQhj8IGJjVsAzkX44xFo4WVFKbMqHKQL3uYQWioQirF75E6np+tFPnMIa8258id67myQHtOAG8fB566MsnGuyPsmfJpxz5c0qeVGwJtBrOiU0mQQK22Sb6bM/JB29zIs+Bm8N6iqKFOIkhJIaKRK6E59ztzVL1lcjPkFo0xR9u5O19C1xdU9G4di6hGyB0zbho2mYzff/+jirFd47A8aLjeuESfiJvElplw25V7BQnJ7GKlcS0QRnKugyU+TCT23Nf1+mB/4vp3DRkt9pJ9B68qWw5XPUHf36JD4MIHxj+gFyMDPM1VO+rQbMQq6yER8uLCnMuTP/i8vIUuFV8R0l8031/rd7im2eZR0wzfxX5Y7rNzaS2N7sD3UPT8jLvGsmfbkQNSThmg7vTFm9hu4a+TtqXfPeKb1oyUsRh8TNMcldIKJwPXzf8roRCHjPaCzND/uf8AvrwSqHCbDUBBWIBL4lYCtRvuTYsmBy3+B81IxQkla3gCjgnGsQoN6xMMbyodvnP8xWbZOUMxql+DVUtlcZeKq8UX5xbF5jnyiqCiVb+fbEvgXHYLkxJQ3qiPQUUw353vGdRI84jV2HvRAAnzIklbrm+HZatAvnbmpHRio3nE08AqKox7B6wYbrAWHs0yrBYQNKH7m9adY6MlkIFbyh0x2UfZhgcnXW3GNxGE5tkGjTcDmjAkiF6CAMOgxYNfq8PQo38uS/gTzHD7f9zKxi9MKSmBdS4HnA0VsNG74b/4ZD15OTNv/en9Nu67PFbSGYmihht+eTimtExAyswAHf+kSLNGpP1Qwr+5x1p/EKAy0ESAWxHbEqWFbiLdNilFgmepzXsgczsQp3m0oUW3xpe4Oe8CSJvmFsZbXwqNsrJ0y53ZCPu52l4C+dEcxGyfhjpov7Q8tI804j1UwxWsbCGMJhauniaIB4rgZyOhlyZEix/taiIx+t8YYG9FaXitgxsM9hamrbnBRYrYBYb9TJkl/46NDooEJYID7g/4M/A7G1Indd21gDW4gNZ9GuVdYI6ac1DeBXQQ4l6AExSUx4j097KDDJwjXdfpttaIXHMoim028F/kipFik8t9L+kDVT+/8Vub6enwa+XuASU/U+9dECdg49URyhmxWZV9WfNNaLm5vKU5sscSEnDNEFpUw+HiE+SDUM7ZjtK2/YaSawXNTFu/CX9Eyh3PpV6X569bhy3BDcxMTY4bz32EpahAwItEeKWffxfBod6x35S89QhEX7vqtbN+sN0wlXqt8IGwBEH7Pyl3kzPeeVUOWFueJv5215tchxbSfgtl9BvSPSepRjGEXGStbR0CTRU9xHLkPchpfHOcs54Fi9fAPnRhgF+W71P9PRa32lwP0V286ZK4adjnHN/CPuMRKpjXikYhA3jyzCUrI5NuX/GWxQ8a2SRthpT09u4+UXhIolMUEkqvv8Ktmj99QZ2T73K6zNhjiJ5XDXIVao6q6Zh53a8JQg+yob+NnQF+m5sCP8uT6dzXxLdPrfOaYblEN4mrCKLQsOTbQNO/OW4vsSVHoCNxRdHNn/YVL5XeUrpIwJumNnw6HTZPzo6jjo1+B9PZipFUdgwhlxc5s9qluDXkEquCGgWmSZotTLhs27TpmXueHMu9+p5HdrhDbFYOaLKrueekUXDBjtCuadebNMXesjwX91Oq6d1FX1HP9Vd3eumVYqsy7UfoULXsrPw2+nqYCInCQFYokn5p1fXe2yamVnZh8LlrXen5scVhdQnqVfWICnybU