"view_history","rt","trial_type","trial_index","time_elapsed","internal_node_id","subject_id","study_id","session_id","urlvar","current_url","subject","success","timeout","failed_images","failed_audio","failed_video","device_id","stimulus","response"
"[{""page_index"":0,""viewing_time"":1746}]","1747","instructions","0","1748","0.0-0.0","","","","{"""":""""}","https://test12345.live/","","","","","","","","",""
"[{""page_index"":0,""viewing_time"":2287}]","2287","instructions","1","4036","0.0-1.0","","","","{"""":""""}","https://test12345.live/","","","","","","","","",""
"","","preload","2","4054","0.0-2.0","","","","{"""":""""}","https://test12345.live/","","true","false","[]","[]","[]","","",""
"","1405","fullscreen","3","6460","0.0-3.0","","","","{"""":""""}","https://test12345.live/","","true","","","","","","",""
"","","initialize-microphone","4","7356","0.0-4.0","","","","{"""":""""}","https://test12345.live/","","","","","","","865cfdf1d7b7f3e3b8fc7c474a69f8ffd82e67fb5ba3adf7e69bc55de6016f9d","",""
"[{""page_index"":0,""viewing_time"":663},{""page_index"":1,""viewing_time"":552}]","1215","instructions","5","8571","0.0-5.0","","","","{"""":""""}","https://test12345.live/","","","","","","","","",""
"","null","image-button-response","6","13087","0.0-6.0-0.0","","","","{"""":""""}","https://test12345.live/","","","","","","","","images/instructions/movie_1.png","null"
"","1004","image-button-response","7","14092","0.0-6.0-1.0","","","","{"""":""""}","https://test12345.live/","","","","","","","","images/instructions/movie_1.png","1"
"","null","image-button-response","8","15893","0.0-6.0-2.0","","","","{"""":""""}","https://test12345.live/","","","","","","","","[]","null"
"","null","image-button-response","9","20403","0.0-6.0-0.1","","","","{"""":""""}","https://test12345.live/","","","","","","","","images/instructions/movie_2.png","null"
"","775","image-button-response","10","21179","0.0-6.0-1.1","","","","{"""":""""}","https://test12345.live/","","","","","","","","images/instructions/movie_2.png","1"
"","null","image-button-response","11","22981","0.0-6.0-2.1","","","","{"""":""""}","https://test12345.live/","","","","","","","","[]","null"
"","null","image-button-response","12","27486","0.0-6.0-0.2","","","","{"""":""""}","https://test12345.live/","","","","","","","","images/instructions/movie_3.png","null"
"","1108","image-button-response","13","28596","0.0-6.0-1.2","","","","{"""":""""}","https://test12345.live/","","","","","","","","images/instructions/movie_3.png","1"
"","null","image-button-response","14","30409","0.0-6.0-2.2","","","","{"""":""""}","https://test12345.live/","","","","","","","","[]","null"
"","null","image-button-response","15","34910","0.0-6.0-0.3","","","","{"""":""""}","https://test12345.live/","","","","","","","","images/instructions/movie_4.png","null"
"","685","image-button-response","16","35595","0.0-6.0-1.3","","","","{"""":""""}","https://test12345.live/","","","","","","","","images/instructions/movie_4.png","1"
"","null","image-button-response","17","37397","0.0-6.0-2.3","","","","{"""":""""}","https://test12345.live/","","","","","","","","[]","null"
"","900","survey-text","18","38300","0.0-7.0","","","","{"""":""""}","https://test12345.live/","","","","","","","","","{""Q0"":"""",""Q1"":"""",""Q2"":""""}"
"[{""page_index"":0,""viewing_time"":791}]","792","instructions","19","39091","0.0-8.0","","","","{"""":""""}","https://test12345.live/","","","","","","","","",""
"","10543","survey-text","20","49636","0.0-9.0","","","","{"""":""""}","https://test12345.live/","","","","","","","","","{""Q0"":""""}"
