"view_history","rt","trial_type","trial_index","time_elapsed","internal_node_id","subject_id","study_id","session_id","urlvar","current_url","subject","success","timeout","failed_images","failed_audio","failed_video","device_id","stimulus","response"
"[{""page_index"":0,""viewing_time"":126385}]","126386","instructions","0","126386","0.0-0.0","D14120852BA941FFB419D8C32F4FA105","b521bdd1-c872-4b8a-8682-c9a7cc488be6","180faa08-24b0-4cc6-b705-7c6903e7cdae","{""participantId"":""D14120852BA941FFB419D8C32F4FA105"",""assignmentId"":""b521bdd1-c872-4b8a-8682-c9a7cc488be6"",""projectId"":""180faa08-24b0-4cc6-b705-7c6903e7cdae""}","https://test12345.live/?participantId=D14120852BA941FFB419D8C32F4FA105&assignmentId=b521bdd1-c872-4b8a-8682-c9a7cc488be6&projectId=180faa08-24b0-4cc6-b705-7c6903e7cdae","D14120852BA941FFB419D8C32F4FA105","","","","","","","",""
"[{""page_index"":0,""viewing_time"":4997}]","5002","instructions","1","131388","0.0-1.0","D14120852BA941FFB419D8C32F4FA105","b521bdd1-c872-4b8a-8682-c9a7cc488be6","180faa08-24b0-4cc6-b705-7c6903e7cdae","{""participantId"":""D14120852BA941FFB419D8C32F4FA105"",""assignmentId"":""b521bdd1-c872-4b8a-8682-c9a7cc488be6"",""projectId"":""180faa08-24b0-4cc6-b705-7c6903e7cdae""}","https://test12345.live/?participantId=D14120852BA941FFB419D8C32F4FA105&assignmentId=b521bdd1-c872-4b8a-8682-c9a7cc488be6&projectId=180faa08-24b0-4cc6-b705-7c6903e7cdae","D14120852BA941FFB419D8C32F4FA105","","","","","","","",""
"","","preload","2","132504","0.0-2.0","D14120852BA941FFB419D8C32F4FA105","b521bdd1-c872-4b8a-8682-c9a7cc488be6","180faa08-24b0-4cc6-b705-7c6903e7cdae","{""participantId"":""D14120852BA941FFB419D8C32F4FA105"",""assignmentId"":""b521bdd1-c872-4b8a-8682-c9a7cc488be6"",""projectId"":""180faa08-24b0-4cc6-b705-7c6903e7cdae""}","https://test12345.live/?participantId=D14120852BA941FFB419D8C32F4FA105&assignmentId=b521bdd1-c872-4b8a-8682-c9a7cc488be6&projectId=180faa08-24b0-4cc6-b705-7c6903e7cdae","D14120852BA941FFB419D8C32F4FA105","true","false","[]","[]","[]","","",""
"","1114","fullscreen","3","134622","0.0-3.0","D14120852BA941FFB419D8C32F4FA105","b521bdd1-c872-4b8a-8682-c9a7cc488be6","180faa08-24b0-4cc6-b705-7c6903e7cdae","{""participantId"":""D14120852BA941FFB419D8C32F4FA105"",""assignmentId"":""b521bdd1-c872-4b8a-8682-c9a7cc488be6"",""projectId"":""180faa08-24b0-4cc6-b705-7c6903e7cdae""}","https://test12345.live/?participantId=D14120852BA941FFB419D8C32F4FA105&assignmentId=b521bdd1-c872-4b8a-8682-c9a7cc488be6&projectId=180faa08-24b0-4cc6-b705-7c6903e7cdae","D14120852BA941FFB419D8C32F4FA105","true","","","","","","",""
"","","initialize-microphone","4","139857","0.0-4.0","D14120852BA941FFB419D8C32F4FA105","b521bdd1-c872-4b8a-8682-c9a7cc488be6","180faa08-24b0-4cc6-b705-7c6903e7cdae","{""participantId"":""D14120852BA941FFB419D8C32F4FA105"",""assignmentId"":""b521bdd1-c872-4b8a-8682-c9a7cc488be6"",""projectId"":""180faa08-24b0-4cc6-b705-7c6903e7cdae""}","https://test12345.live/?participantId=D14120852BA941FFB419D8C32F4FA105&assignmentId=b521bdd1-c872-4b8a-8682-c9a7cc488be6&projectId=180faa08-24b0-4cc6-b705-7c6903e7cdae","D14120852BA941FFB419D8C32F4FA105","","","","","","A1AB5521A8B7C4CC831B519AC9C4FC5277A9CBEB","",""
"[{""page_index"":0,""viewing_time"":814},{""page_index"":1,""viewing_time"":1145}]","1960","instructions","5","141818","0.0-5.0","D14120852BA941FFB419D8C32F4FA105","b521bdd1-c872-4b8a-8682-c9a7cc488be6","180faa08-24b0-4cc6-b705-7c6903e7cdae","{""participantId"":""D14120852BA941FFB419D8C32F4FA105"",""assignmentId"":""b521bdd1-c872-4b8a-8682-c9a7cc488be6"",""projectId"":""180faa08-24b0-4cc6-b705-7c6903e7cdae""}","https://test12345.live/?participantId=D14120852BA941FFB419D8C32F4FA105&assignmentId=b521bdd1-c872-4b8a-8682-c9a7cc488be6&projectId=180faa08-24b0-4cc6-b705-7c6903e7cdae","D14120852BA941FFB419D8C32F4FA105","","","","","","","",""
"","null","image-button-response","6","146322","0.0-6.0-0.0","D14120852BA941FFB419D8C32F4FA105","b521bdd1-c872-4b8a-8682-c9a7cc488be6","180faa08-24b0-4cc6-b705-7c6903e7cdae","{""participantId"":""D14120852BA941FFB419D8C32F4FA105"",""assignmentId"":""b521bdd1-c872-4b8a-8682-c9a7cc488be6"",""projectId"":""180faa08-24b0-4cc6-b705-7c6903e7cdae""}","https://test12345.live/?participantId=D14120852BA941FFB419D8C32F4FA105&assignmentId=b521bdd1-c872-4b8a-8682-c9a7cc488be6&projectId=180faa08-24b0-4cc6-b705-7c6903e7cdae","D14120852BA941FFB419D8C32F4FA105","","","","","","","images/instructions/movie_1.png","null"
"","2602","image-button-response","7","148926","0.0-6.0-1.0","D14120852BA941FFB419D8C32F4FA105","b521bdd1-c872-4b8a-8682-c9a7cc488be6","180faa08-24b0-4cc6-b705-7c6903e7cdae","{""participantId"":""D14120852BA941FFB419D8C32F4FA105"",""assignmentId"":""b521bdd1-c872-4b8a-8682-c9a7cc488be6"",""projectId"":""180faa08-24b0-4cc6-b705-7c6903e7cdae""}","https://test12345.live/?participantId=D14120852BA941FFB419D8C32F4FA105&assignmentId=b521bdd1-c872-4b8a-8682-c9a7cc488be6&projectId=180faa08-24b0-4cc6-b705-7c6903e7cdae","D14120852BA941FFB419D8C32F4FA105","","","","","","","images/instructions/movie_1.png","0"
"","null","image-button-response","8","150729","0.0-6.0-2.0","D14120852BA941FFB419D8C32F4FA105","b521bdd1-c872-4b8a-8682-c9a7cc488be6","180faa08-24b0-4cc6-b705-7c6903e7cdae","{""participantId"":""D14120852BA941FFB419D8C32F4FA105"",""assignmentId"":""b521bdd1-c872-4b8a-8682-c9a7cc488be6"",""projectId"":""180faa08-24b0-4cc6-b705-7c6903e7cdae""}","https://test12345.live/?participantId=D14120852BA941FFB419D8C32F4FA105&assignmentId=b521bdd1-c872-4b8a-8682-c9a7cc488be6&projectId=180faa08-24b0-4cc6-b705-7c6903e7cdae","D14120852BA941FFB419D8C32F4FA105","","","","","","","[]","null"
"","null","image-button-response","9","155233","0.0-6.0-0.1","D14120852BA941FFB419D8C32F4FA105","b521bdd1-c872-4b8a-8682-c9a7cc488be6","180faa08-24b0-4cc6-b705-7c6903e7cdae","{""participantId"":""D14120852BA941FFB419D8C32F4FA105"",""assignmentId"":""b521bdd1-c872-4b8a-8682-c9a7cc488be6"",""projectId"":""180faa08-24b0-4cc6-b705-7c6903e7cdae""}","https://test12345.live/?participantId=D14120852BA941FFB419D8C32F4FA105&assignmentId=b521bdd1-c872-4b8a-8682-c9a7cc488be6&projectId=180faa08-24b0-4cc6-b705-7c6903e7cdae","D14120852BA941FFB419D8C32F4FA105","","","","","","","images/instructions/movie_2.png","null"
"","1619","image-button-response","10","156854","0.0-6.0-1.1","D14120852BA941FFB419D8C32F4FA105","b521bdd1-c872-4b8a-8682-c9a7cc488be6","180faa08-24b0-4cc6-b705-7c6903e7cdae","{""participantId"":""D14120852BA941FFB419D8C32F4FA105"",""assignmentId"":""b521bdd1-c872-4b8a-8682-c9a7cc488be6"",""projectId"":""180faa08-24b0-4cc6-b705-7c6903e7cdae""}","https://test12345.live/?participantId=D14120852BA941FFB419D8C32F4FA105&assignmentId=b521bdd1-c872-4b8a-8682-c9a7cc488be6&projectId=180faa08-24b0-4cc6-b705-7c6903e7cdae","D14120852BA941FFB419D8C32F4FA105","","","","","","","images/instructions/movie_2.png","0"
"","null","image-button-response","11","158656","0.0-6.0-2.1","D14120852BA941FFB419D8C32F4FA105","b521bdd1-c872-4b8a-8682-c9a7cc488be6","180faa08-24b0-4cc6-b705-7c6903e7cdae","{""participantId"":""D14120852BA941FFB419D8C32F4FA105"",""assignmentId"":""b521bdd1-c872-4b8a-8682-c9a7cc488be6"",""projectId"":""180faa08-24b0-4cc6-b705-7c6903e7cdae""}","https://test12345.live/?participantId=D14120852BA941FFB419D8C32F4FA105&assignmentId=b521bdd1-c872-4b8a-8682-c9a7cc488be6&projectId=180faa08-24b0-4cc6-b705-7c6903e7cdae","D14120852BA941FFB419D8C32F4FA105","","","","","","","[]","null"
"","null","image-button-response","12","163160","0.0-6.0-0.2","D14120852BA941FFB419D8C32F4FA105","b521bdd1-c872-4b8a-8682-c9a7cc488be6","180faa08-24b0-4cc6-b705-7c6903e7cdae","{""participantId"":""D14120852BA941FFB419D8C32F4FA105"",""assignmentId"":""b521bdd1-c872-4b8a-8682-c9a7cc488be6"",""projectId"":""180faa08-24b0-4cc6-b705-7c6903e7cdae""}","https://test12345.live/?participantId=D14120852BA941FFB419D8C32F4FA105&assignmentId=b521bdd1-c872-4b8a-8682-c9a7cc488be6&projectId=180faa08-24b0-4cc6-b705-7c6903e7cdae","D14120852BA941FFB419D8C32F4FA105","","","","","","","images/instructions/movie_3.png","null"
"","699","image-button-response","13","163860","0.0-6.0-1.2","D14120852BA941FFB419D8C32F4FA105","b521bdd1-c872-4b8a-8682-c9a7cc488be6","180faa08-24b0-4cc6-b705-7c6903e7cdae","{""participantId"":""D14120852BA941FFB419D8C32F4FA105"",""assignmentId"":""b521bdd1-c872-4b8a-8682-c9a7cc488be6"",""projectId"":""180faa08-24b0-4cc6-b705-7c6903e7cdae""}","https://test12345.live/?participantId=D14120852BA941FFB419D8C32F4FA105&assignmentId=b521bdd1-c872-4b8a-8682-c9a7cc488be6&projectId=180faa08-24b0-4cc6-b705-7c6903e7cdae","D14120852BA941FFB419D8C32F4FA105","","","","","","","images/instructions/movie_3.png","0"
"","null","image-button-response","14","165662","0.0-6.0-2.2","D14120852BA941FFB419D8C32F4FA105","b521bdd1-c872-4b8a-8682-c9a7cc488be6","180faa08-24b0-4cc6-b705-7c6903e7cdae","{""participantId"":""D14120852BA941FFB419D8C32F4FA105"",""assignmentId"":""b521bdd1-c872-4b8a-8682-c9a7cc488be6"",""projectId"":""180faa08-24b0-4cc6-b705-7c6903e7cdae""}","https://test12345.live/?participantId=D14120852BA941FFB419D8C32F4FA105&assignmentId=b521bdd1-c872-4b8a-8682-c9a7cc488be6&projectId=180faa08-24b0-4cc6-b705-7c6903e7cdae","D14120852BA941FFB419D8C32F4FA105","","","","","","","[]","null"
"","null","image-button-response","15","170165","0.0-6.0-0.3","D14120852BA941FFB419D8C32F4FA105","b521bdd1-c872-4b8a-8682-c9a7cc488be6","180faa08-24b0-4cc6-b705-7c6903e7cdae","{""participantId"":""D14120852BA941FFB419D8C32F4FA105"",""assignmentId"":""b521bdd1-c872-4b8a-8682-c9a7cc488be6"",""projectId"":""180faa08-24b0-4cc6-b705-7c6903e7cdae""}","https://test12345.live/?participantId=D14120852BA941FFB419D8C32F4FA105&assignmentId=b521bdd1-c872-4b8a-8682-c9a7cc488be6&projectId=180faa08-24b0-4cc6-b705-7c6903e7cdae","D14120852BA941FFB419D8C32F4FA105","","","","","","","images/instructions/movie_4.png","null"
"","1343","image-button-response","16","171510","0.0-6.0-1.3","D14120852BA941FFB419D8C32F4FA105","b521bdd1-c872-4b8a-8682-c9a7cc488be6","180faa08-24b0-4cc6-b705-7c6903e7cdae","{""participantId"":""D14120852BA941FFB419D8C32F4FA105"",""assignmentId"":""b521bdd1-c872-4b8a-8682-c9a7cc488be6"",""projectId"":""180faa08-24b0-4cc6-b705-7c6903e7cdae""}","https://test12345.live/?participantId=D14120852BA941FFB419D8C32F4FA105&assignmentId=b521bdd1-c872-4b8a-8682-c9a7cc488be6&projectId=180faa08-24b0-4cc6-b705-7c6903e7cdae","D14120852BA941FFB419D8C32F4FA105","","","","","","","images/instructions/movie_4.png","0"
"","null","image-button-response","17","173312","0.0-6.0-2.3","D14120852BA941FFB419D8C32F4FA105","b521bdd1-c872-4b8a-8682-c9a7cc488be6","180faa08-24b0-4cc6-b705-7c6903e7cdae","{""participantId"":""D14120852BA941FFB419D8C32F4FA105"",""assignmentId"":""b521bdd1-c872-4b8a-8682-c9a7cc488be6"",""projectId"":""180faa08-24b0-4cc6-b705-7c6903e7cdae""}","https://test12345.live/?participantId=D14120852BA941FFB419D8C32F4FA105&assignmentId=b521bdd1-c872-4b8a-8682-c9a7cc488be6&projectId=180faa08-24b0-4cc6-b705-7c6903e7cdae","D14120852BA941FFB419D8C32F4FA105","","","","","","","[]","null"
"","12661","survey-text","18","186003","0.0-7.0","D14120852BA941FFB419D8C32F4FA105","b521bdd1-c872-4b8a-8682-c9a7cc488be6","180faa08-24b0-4cc6-b705-7c6903e7cdae","{""participantId"":""D14120852BA941FFB419D8C32F4FA105"",""assignmentId"":""b521bdd1-c872-4b8a-8682-c9a7cc488be6"",""projectId"":""180faa08-24b0-4cc6-b705-7c6903e7cdae""}","https://test12345.live/?participantId=D14120852BA941FFB419D8C32F4FA105&assignmentId=b521bdd1-c872-4b8a-8682-c9a7cc488be6&projectId=180faa08-24b0-4cc6-b705-7c6903e7cdae","D14120852BA941FFB419D8C32F4FA105","","","","","","","","{""Q0"":""Female"",""Q1"":""19"",""Q2"":""D14120852BA941FFB419D8C32F4FA105""}"
"[{""page_index"":0,""viewing_time"":11014}]","11014","instructions","19","197016","0.0-8.0","D14120852BA941FFB419D8C32F4FA105","b521bdd1-c872-4b8a-8682-c9a7cc488be6","180faa08-24b0-4cc6-b705-7c6903e7cdae","{""participantId"":""D14120852BA941FFB419D8C32F4FA105"",""assignmentId"":""b521bdd1-c872-4b8a-8682-c9a7cc488be6"",""projectId"":""180faa08-24b0-4cc6-b705-7c6903e7cdae""}","https://test12345.live/?participantId=D14120852BA941FFB419D8C32F4FA105&assignmentId=b521bdd1-c872-4b8a-8682-c9a7cc488be6&projectId=180faa08-24b0-4cc6-b705-7c6903e7cdae","D14120852BA941FFB419D8C32F4FA105","","","","","","","",""
"","2651","survey-text","20","199675","0.0-9.0","D14120852BA941FFB419D8C32F4FA105","b521bdd1-c872-4b8a-8682-c9a7cc488be6","180faa08-24b0-4cc6-b705-7c6903e7cdae","{""participantId"":""D14120852BA941FFB419D8C32F4FA105"",""assignmentId"":""b521bdd1-c872-4b8a-8682-c9a7cc488be6"",""projectId"":""180faa08-24b0-4cc6-b705-7c6903e7cdae""}","https://test12345.live/?participantId=D14120852BA941FFB419D8C32F4FA105&assignmentId=b521bdd1-c872-4b8a-8682-c9a7cc488be6&projectId=180faa08-24b0-4cc6-b705-7c6903e7cdae","D14120852BA941FFB419D8C32F4FA105","","","","","","","","{""Q0"":""AJFHBG892""}"
