"view_history","rt","trial_type","trial_index","time_elapsed","internal_node_id","subject_id","study_id","session_id","urlvar","current_url","subject","success","timeout","failed_images","failed_audio","failed_video","device_id","stimulus","response"
"[{""page_index"":0,""viewing_time"":59066}]","59066","instructions","0","59067","0.0-0.0","17F76C77FFDA4939A5241C48FD944FF7","e75307fa-c5d2-4bbe-9b13-272b1ef8368e","180faa08-24b0-4cc6-b705-7c6903e7cdae","{""participantId"":""17F76C77FFDA4939A5241C48FD944FF7"",""assignmentId"":""e75307fa-c5d2-4bbe-9b13-272b1ef8368e"",""projectId"":""180faa08-24b0-4cc6-b705-7c6903e7cdae""}","https://test12345.live/?participantId=17F76C77FFDA4939A5241C48FD944FF7&assignmentId=e75307fa-c5d2-4bbe-9b13-272b1ef8368e&projectId=180faa08-24b0-4cc6-b705-7c6903e7cdae","17F76C77FFDA4939A5241C48FD944FF7","","","","","","","",""
"[{""page_index"":0,""viewing_time"":46519}]","46519","instructions","1","105588","0.0-1.0","17F76C77FFDA4939A5241C48FD944FF7","e75307fa-c5d2-4bbe-9b13-272b1ef8368e","180faa08-24b0-4cc6-b705-7c6903e7cdae","{""participantId"":""17F76C77FFDA4939A5241C48FD944FF7"",""assignmentId"":""e75307fa-c5d2-4bbe-9b13-272b1ef8368e"",""projectId"":""180faa08-24b0-4cc6-b705-7c6903e7cdae""}","https://test12345.live/?participantId=17F76C77FFDA4939A5241C48FD944FF7&assignmentId=e75307fa-c5d2-4bbe-9b13-272b1ef8368e&projectId=180faa08-24b0-4cc6-b705-7c6903e7cdae","17F76C77FFDA4939A5241C48FD944FF7","","","","","","","",""
"","","preload","2","105918","0.0-2.0","17F76C77FFDA4939A5241C48FD944FF7","e75307fa-c5d2-4bbe-9b13-272b1ef8368e","180faa08-24b0-4cc6-b705-7c6903e7cdae","{""participantId"":""17F76C77FFDA4939A5241C48FD944FF7"",""assignmentId"":""e75307fa-c5d2-4bbe-9b13-272b1ef8368e"",""projectId"":""180faa08-24b0-4cc6-b705-7c6903e7cdae""}","https://test12345.live/?participantId=17F76C77FFDA4939A5241C48FD944FF7&assignmentId=e75307fa-c5d2-4bbe-9b13-272b1ef8368e&projectId=180faa08-24b0-4cc6-b705-7c6903e7cdae","17F76C77FFDA4939A5241C48FD944FF7","true","false","[]","[]","[]","","",""
"","5597","fullscreen","3","112518","0.0-3.0","17F76C77FFDA4939A5241C48FD944FF7","e75307fa-c5d2-4bbe-9b13-272b1ef8368e","180faa08-24b0-4cc6-b705-7c6903e7cdae","{""participantId"":""17F76C77FFDA4939A5241C48FD944FF7"",""assignmentId"":""e75307fa-c5d2-4bbe-9b13-272b1ef8368e"",""projectId"":""180faa08-24b0-4cc6-b705-7c6903e7cdae""}","https://test12345.live/?participantId=17F76C77FFDA4939A5241C48FD944FF7&assignmentId=e75307fa-c5d2-4bbe-9b13-272b1ef8368e&projectId=180faa08-24b0-4cc6-b705-7c6903e7cdae","17F76C77FFDA4939A5241C48FD944FF7","true","","","","","","",""
"","","initialize-microphone","4","155573","0.0-4.0","17F76C77FFDA4939A5241C48FD944FF7","e75307fa-c5d2-4bbe-9b13-272b1ef8368e","180faa08-24b0-4cc6-b705-7c6903e7cdae","{""participantId"":""17F76C77FFDA4939A5241C48FD944FF7"",""assignmentId"":""e75307fa-c5d2-4bbe-9b13-272b1ef8368e"",""projectId"":""180faa08-24b0-4cc6-b705-7c6903e7cdae""}","https://test12345.live/?participantId=17F76C77FFDA4939A5241C48FD944FF7&assignmentId=e75307fa-c5d2-4bbe-9b13-272b1ef8368e&projectId=180faa08-24b0-4cc6-b705-7c6903e7cdae","17F76C77FFDA4939A5241C48FD944FF7","","","","","","5df5d427471a5ff325f945ca7dbac21b47cbbd405ab7808ff50be104027eb4cb","",""
"[{""page_index"":0,""viewing_time"":2958},{""page_index"":1,""viewing_time"":18760}]","21718","instructions","5","177291","0.0-5.0","17F76C77FFDA4939A5241C48FD944FF7","e75307fa-c5d2-4bbe-9b13-272b1ef8368e","180faa08-24b0-4cc6-b705-7c6903e7cdae","{""participantId"":""17F76C77FFDA4939A5241C48FD944FF7"",""assignmentId"":""e75307fa-c5d2-4bbe-9b13-272b1ef8368e"",""projectId"":""180faa08-24b0-4cc6-b705-7c6903e7cdae""}","https://test12345.live/?participantId=17F76C77FFDA4939A5241C48FD944FF7&assignmentId=e75307fa-c5d2-4bbe-9b13-272b1ef8368e&projectId=180faa08-24b0-4cc6-b705-7c6903e7cdae","17F76C77FFDA4939A5241C48FD944FF7","","","","","","","",""
"","null","image-button-response","6","181807","0.0-6.0-0.0","17F76C77FFDA4939A5241C48FD944FF7","e75307fa-c5d2-4bbe-9b13-272b1ef8368e","180faa08-24b0-4cc6-b705-7c6903e7cdae","{""participantId"":""17F76C77FFDA4939A5241C48FD944FF7"",""assignmentId"":""e75307fa-c5d2-4bbe-9b13-272b1ef8368e"",""projectId"":""180faa08-24b0-4cc6-b705-7c6903e7cdae""}","https://test12345.live/?participantId=17F76C77FFDA4939A5241C48FD944FF7&assignmentId=e75307fa-c5d2-4bbe-9b13-272b1ef8368e&projectId=180faa08-24b0-4cc6-b705-7c6903e7cdae","17F76C77FFDA4939A5241C48FD944FF7","","","","","","","images/instructions/movie_1.png","null"
"","null","image-button-response","7","184515","0.0-6.0-1.0","17F76C77FFDA4939A5241C48FD944FF7","e75307fa-c5d2-4bbe-9b13-272b1ef8368e","180faa08-24b0-4cc6-b705-7c6903e7cdae","{""participantId"":""17F76C77FFDA4939A5241C48FD944FF7"",""assignmentId"":""e75307fa-c5d2-4bbe-9b13-272b1ef8368e"",""projectId"":""180faa08-24b0-4cc6-b705-7c6903e7cdae""}","https://test12345.live/?participantId=17F76C77FFDA4939A5241C48FD944FF7&assignmentId=e75307fa-c5d2-4bbe-9b13-272b1ef8368e&projectId=180faa08-24b0-4cc6-b705-7c6903e7cdae","17F76C77FFDA4939A5241C48FD944FF7","","","","","","","images/instructions/movie_1.png","null"
"","null","image-button-response","8","186317","0.0-6.0-2.0","17F76C77FFDA4939A5241C48FD944FF7","e75307fa-c5d2-4bbe-9b13-272b1ef8368e","180faa08-24b0-4cc6-b705-7c6903e7cdae","{""participantId"":""17F76C77FFDA4939A5241C48FD944FF7"",""assignmentId"":""e75307fa-c5d2-4bbe-9b13-272b1ef8368e"",""projectId"":""180faa08-24b0-4cc6-b705-7c6903e7cdae""}","https://test12345.live/?participantId=17F76C77FFDA4939A5241C48FD944FF7&assignmentId=e75307fa-c5d2-4bbe-9b13-272b1ef8368e&projectId=180faa08-24b0-4cc6-b705-7c6903e7cdae","17F76C77FFDA4939A5241C48FD944FF7","","","","","","","[]","null"
"","null","image-button-response","9","190829","0.0-6.0-0.1","17F76C77FFDA4939A5241C48FD944FF7","e75307fa-c5d2-4bbe-9b13-272b1ef8368e","180faa08-24b0-4cc6-b705-7c6903e7cdae","{""participantId"":""17F76C77FFDA4939A5241C48FD944FF7"",""assignmentId"":""e75307fa-c5d2-4bbe-9b13-272b1ef8368e"",""projectId"":""180faa08-24b0-4cc6-b705-7c6903e7cdae""}","https://test12345.live/?participantId=17F76C77FFDA4939A5241C48FD944FF7&assignmentId=e75307fa-c5d2-4bbe-9b13-272b1ef8368e&projectId=180faa08-24b0-4cc6-b705-7c6903e7cdae","17F76C77FFDA4939A5241C48FD944FF7","","","","","","","images/instructions/movie_2.png","null"
"","2141","image-button-response","10","192971","0.0-6.0-1.1","17F76C77FFDA4939A5241C48FD944FF7","e75307fa-c5d2-4bbe-9b13-272b1ef8368e","180faa08-24b0-4cc6-b705-7c6903e7cdae","{""participantId"":""17F76C77FFDA4939A5241C48FD944FF7"",""assignmentId"":""e75307fa-c5d2-4bbe-9b13-272b1ef8368e"",""projectId"":""180faa08-24b0-4cc6-b705-7c6903e7cdae""}","https://test12345.live/?participantId=17F76C77FFDA4939A5241C48FD944FF7&assignmentId=e75307fa-c5d2-4bbe-9b13-272b1ef8368e&projectId=180faa08-24b0-4cc6-b705-7c6903e7cdae","17F76C77FFDA4939A5241C48FD944FF7","","","","","","","images/instructions/movie_2.png","0"
"","null","image-button-response","11","194773","0.0-6.0-2.1","17F76C77FFDA4939A5241C48FD944FF7","e75307fa-c5d2-4bbe-9b13-272b1ef8368e","180faa08-24b0-4cc6-b705-7c6903e7cdae","{""participantId"":""17F76C77FFDA4939A5241C48FD944FF7"",""assignmentId"":""e75307fa-c5d2-4bbe-9b13-272b1ef8368e"",""projectId"":""180faa08-24b0-4cc6-b705-7c6903e7cdae""}","https://test12345.live/?participantId=17F76C77FFDA4939A5241C48FD944FF7&assignmentId=e75307fa-c5d2-4bbe-9b13-272b1ef8368e&projectId=180faa08-24b0-4cc6-b705-7c6903e7cdae","17F76C77FFDA4939A5241C48FD944FF7","","","","","","","[]","null"
"","null","image-button-response","12","199284","0.0-6.0-0.2","17F76C77FFDA4939A5241C48FD944FF7","e75307fa-c5d2-4bbe-9b13-272b1ef8368e","180faa08-24b0-4cc6-b705-7c6903e7cdae","{""participantId"":""17F76C77FFDA4939A5241C48FD944FF7"",""assignmentId"":""e75307fa-c5d2-4bbe-9b13-272b1ef8368e"",""projectId"":""180faa08-24b0-4cc6-b705-7c6903e7cdae""}","https://test12345.live/?participantId=17F76C77FFDA4939A5241C48FD944FF7&assignmentId=e75307fa-c5d2-4bbe-9b13-272b1ef8368e&projectId=180faa08-24b0-4cc6-b705-7c6903e7cdae","17F76C77FFDA4939A5241C48FD944FF7","","","","","","","images/instructions/movie_3.png","null"
"","1958","image-button-response","13","201243","0.0-6.0-1.2","17F76C77FFDA4939A5241C48FD944FF7","e75307fa-c5d2-4bbe-9b13-272b1ef8368e","180faa08-24b0-4cc6-b705-7c6903e7cdae","{""participantId"":""17F76C77FFDA4939A5241C48FD944FF7"",""assignmentId"":""e75307fa-c5d2-4bbe-9b13-272b1ef8368e"",""projectId"":""180faa08-24b0-4cc6-b705-7c6903e7cdae""}","https://test12345.live/?participantId=17F76C77FFDA4939A5241C48FD944FF7&assignmentId=e75307fa-c5d2-4bbe-9b13-272b1ef8368e&projectId=180faa08-24b0-4cc6-b705-7c6903e7cdae","17F76C77FFDA4939A5241C48FD944FF7","","","","","","","images/instructions/movie_3.png","0"
"","null","image-button-response","14","203053","0.0-6.0-2.2","17F76C77FFDA4939A5241C48FD944FF7","e75307fa-c5d2-4bbe-9b13-272b1ef8368e","180faa08-24b0-4cc6-b705-7c6903e7cdae","{""participantId"":""17F76C77FFDA4939A5241C48FD944FF7"",""assignmentId"":""e75307fa-c5d2-4bbe-9b13-272b1ef8368e"",""projectId"":""180faa08-24b0-4cc6-b705-7c6903e7cdae""}","https://test12345.live/?participantId=17F76C77FFDA4939A5241C48FD944FF7&assignmentId=e75307fa-c5d2-4bbe-9b13-272b1ef8368e&projectId=180faa08-24b0-4cc6-b705-7c6903e7cdae","17F76C77FFDA4939A5241C48FD944FF7","","","","","","","[]","null"
"","null","image-button-response","15","207563","0.0-6.0-0.3","17F76C77FFDA4939A5241C48FD944FF7","e75307fa-c5d2-4bbe-9b13-272b1ef8368e","180faa08-24b0-4cc6-b705-7c6903e7cdae","{""participantId"":""17F76C77FFDA4939A5241C48FD944FF7"",""assignmentId"":""e75307fa-c5d2-4bbe-9b13-272b1ef8368e"",""projectId"":""180faa08-24b0-4cc6-b705-7c6903e7cdae""}","https://test12345.live/?participantId=17F76C77FFDA4939A5241C48FD944FF7&assignmentId=e75307fa-c5d2-4bbe-9b13-272b1ef8368e&projectId=180faa08-24b0-4cc6-b705-7c6903e7cdae","17F76C77FFDA4939A5241C48FD944FF7","","","","","","","images/instructions/movie_4.png","null"
"","1488","image-button-response","16","209052","0.0-6.0-1.3","17F76C77FFDA4939A5241C48FD944FF7","e75307fa-c5d2-4bbe-9b13-272b1ef8368e","180faa08-24b0-4cc6-b705-7c6903e7cdae","{""participantId"":""17F76C77FFDA4939A5241C48FD944FF7"",""assignmentId"":""e75307fa-c5d2-4bbe-9b13-272b1ef8368e"",""projectId"":""180faa08-24b0-4cc6-b705-7c6903e7cdae""}","https://test12345.live/?participantId=17F76C77FFDA4939A5241C48FD944FF7&assignmentId=e75307fa-c5d2-4bbe-9b13-272b1ef8368e&projectId=180faa08-24b0-4cc6-b705-7c6903e7cdae","17F76C77FFDA4939A5241C48FD944FF7","","","","","","","images/instructions/movie_4.png","0"
"","null","image-button-response","17","210859","0.0-6.0-2.3","17F76C77FFDA4939A5241C48FD944FF7","e75307fa-c5d2-4bbe-9b13-272b1ef8368e","180faa08-24b0-4cc6-b705-7c6903e7cdae","{""participantId"":""17F76C77FFDA4939A5241C48FD944FF7"",""assignmentId"":""e75307fa-c5d2-4bbe-9b13-272b1ef8368e"",""projectId"":""180faa08-24b0-4cc6-b705-7c6903e7cdae""}","https://test12345.live/?participantId=17F76C77FFDA4939A5241C48FD944FF7&assignmentId=e75307fa-c5d2-4bbe-9b13-272b1ef8368e&projectId=180faa08-24b0-4cc6-b705-7c6903e7cdae","17F76C77FFDA4939A5241C48FD944FF7","","","","","","","[]","null"
"","26564","survey-text","18","237428","0.0-7.0","17F76C77FFDA4939A5241C48FD944FF7","e75307fa-c5d2-4bbe-9b13-272b1ef8368e","180faa08-24b0-4cc6-b705-7c6903e7cdae","{""participantId"":""17F76C77FFDA4939A5241C48FD944FF7"",""assignmentId"":""e75307fa-c5d2-4bbe-9b13-272b1ef8368e"",""projectId"":""180faa08-24b0-4cc6-b705-7c6903e7cdae""}","https://test12345.live/?participantId=17F76C77FFDA4939A5241C48FD944FF7&assignmentId=e75307fa-c5d2-4bbe-9b13-272b1ef8368e&projectId=180faa08-24b0-4cc6-b705-7c6903e7cdae","17F76C77FFDA4939A5241C48FD944FF7","","","","","","","","{""Q0"":""female"",""Q1"":""72"",""Q2"":""""}"
"[{""page_index"":0,""viewing_time"":10806}]","10806","instructions","19","248235","0.0-8.0","17F76C77FFDA4939A5241C48FD944FF7","e75307fa-c5d2-4bbe-9b13-272b1ef8368e","180faa08-24b0-4cc6-b705-7c6903e7cdae","{""participantId"":""17F76C77FFDA4939A5241C48FD944FF7"",""assignmentId"":""e75307fa-c5d2-4bbe-9b13-272b1ef8368e"",""projectId"":""180faa08-24b0-4cc6-b705-7c6903e7cdae""}","https://test12345.live/?participantId=17F76C77FFDA4939A5241C48FD944FF7&assignmentId=e75307fa-c5d2-4bbe-9b13-272b1ef8368e&projectId=180faa08-24b0-4cc6-b705-7c6903e7cdae","17F76C77FFDA4939A5241C48FD944FF7","","","","","","","",""
"","5687","survey-text","20","253923","0.0-9.0","17F76C77FFDA4939A5241C48FD944FF7","e75307fa-c5d2-4bbe-9b13-272b1ef8368e","180faa08-24b0-4cc6-b705-7c6903e7cdae","{""participantId"":""17F76C77FFDA4939A5241C48FD944FF7"",""assignmentId"":""e75307fa-c5d2-4bbe-9b13-272b1ef8368e"",""projectId"":""180faa08-24b0-4cc6-b705-7c6903e7cdae""}","https://test12345.live/?participantId=17F76C77FFDA4939A5241C48FD944FF7&assignmentId=e75307fa-c5d2-4bbe-9b13-272b1ef8368e&projectId=180faa08-24b0-4cc6-b705-7c6903e7cdae","17F76C77FFDA4939A5241C48FD944FF7","","","","","","","","{""Q0"":""AJFHBG892""}"
