"success","timeout","failed_images","failed_audio","failed_video","trial_type","trial_index","time_elapsed","internal_node_id","subject_id","study_id","session_id","view_history","rt","stimulus","response","choice"
"true","false","[]","[]","[]","preload","0","6663","0.0-0.0","9A44EDA2992D4580A37F2BE6CD39C450","0e85bffb-cd8b-487d-a74d-39014d3c72ae","5479079d-2186-49b2-89e2-e3afab6abcc2","","","","",""
"","","","","","instructions","1","7918","0.0-1.0","9A44EDA2992D4580A37F2BE6CD39C450","0e85bffb-cd8b-487d-a74d-39014d3c72ae","5479079d-2186-49b2-89e2-e3afab6abcc2","[{""page_index"":0,""viewing_time"":1255}]","1255","","",""
"","","","","","instructions","2","10656","0.0-2.0","9A44EDA2992D4580A37F2BE6CD39C450","0e85bffb-cd8b-487d-a74d-39014d3c72ae","5479079d-2186-49b2-89e2-e3afab6abcc2","[{""page_index"":0,""viewing_time"":2738}]","2738","","",""
"true","","","","","fullscreen","3","12861","0.0-3.0","9A44EDA2992D4580A37F2BE6CD39C450","0e85bffb-cd8b-487d-a74d-39014d3c72ae","5479079d-2186-49b2-89e2-e3afab6abcc2","","1196","","",""
"","","","","","instructions","4","23326","0.0-4.0","9A44EDA2992D4580A37F2BE6CD39C450","0e85bffb-cd8b-487d-a74d-39014d3c72ae","5479079d-2186-49b2-89e2-e3afab6abcc2","[{""page_index"":0,""viewing_time"":10464}]","10464","","",""
"","","","","","html-keyboard-response","5","26333","0.0-5.0","9A44EDA2992D4580A37F2BE6CD39C450","0e85bffb-cd8b-487d-a74d-39014d3c72ae","5479079d-2186-49b2-89e2-e3afab6abcc2","","null","<div style=""display: flex; justify-content: center; align-items: center;"">
                <img src=""images/causal/causal_series_18/causal_series_18_a.jpg"" style=""width: 300px; height: 300px;"" />
              </div>","null",""
"","","","","","html-keyboard-response","6","29344","0.0-6.0","9A44EDA2992D4580A37F2BE6CD39C450","0e85bffb-cd8b-487d-a74d-39014d3c72ae","5479079d-2186-49b2-89e2-e3afab6abcc2","","null","<div style=""display: flex; justify-content: center; align-items: center;"">
                <img src=""images/causal/causal_series_18/causal_series_18_b.jpg"" style=""width: 300px; height: 300px;"" />
              </div>","null",""
"","","","","","html-keyboard-response","7","32359","0.0-7.0","9A44EDA2992D4580A37F2BE6CD39C450","0e85bffb-cd8b-487d-a74d-39014d3c72ae","5479079d-2186-49b2-89e2-e3afab6abcc2","","null","<div style=""display: flex; justify-content: center; align-items: center;"">
                <img src=""images/causal/causal_series_18/causal_series_18_c.jpg"" style=""width: 300px; height: 300px;"" />
              </div>","null",""
"","","","","","html-button-response","8","36469","0.0-8.0","9A44EDA2992D4580A37F2BE6CD39C450","0e85bffb-cd8b-487d-a74d-39014d3c72ae","5479079d-2186-49b2-89e2-e3afab6abcc2","","4109","
    <div style=""display: flex; justify-content: center; align-items: center;"">
      <img src=""images/blue_deck_1.png"" style=""width: 300px; height: 300px; margin-right: 10px;"" />
      <img src=""images/red_deck_2.png"" style=""width: 300px; height: 300px;"" />
    </div>","0","0"
"","","","","","html-keyboard-response","9","39473","0.0-9.0-0.0-0.0","9A44EDA2992D4580A37F2BE6CD39C450","0e85bffb-cd8b-487d-a74d-39014d3c72ae","5479079d-2186-49b2-89e2-e3afab6abcc2","","null","<div style=""display: flex; justify-content: center; align-items: center;"">
                <img src=""images/causal/causal_series_18/causal_series_18_d.jpg"" style=""width: 300px; height: 300px;"" />
              </div>","null",""
"","","","","","html-keyboard-response","10","42485","0.0-10.0","9A44EDA2992D4580A37F2BE6CD39C450","0e85bffb-cd8b-487d-a74d-39014d3c72ae","5479079d-2186-49b2-89e2-e3afab6abcc2","","null","<div style=""display: flex; justify-content: center; align-items: center;"">
                <img src=""images/other/blank.jpg"" style=""width: 300px; height: 300px;"" />
              </div>","null",""
"","","","","","html-keyboard-response","11","45497","0.0-11.0","9A44EDA2992D4580A37F2BE6CD39C450","0e85bffb-cd8b-487d-a74d-39014d3c72ae","5479079d-2186-49b2-89e2-e3afab6abcc2","","null","<div style=""display: flex; justify-content: center; align-items: center;"">
                <img src=""images/causal/causal_series_5/causal_series_5_a.jpg"" style=""width: 300px; height: 300px;"" />
              </div>","null",""
"","","","","","html-keyboard-response","12","48497","0.0-12.0","9A44EDA2992D4580A37F2BE6CD39C450","0e85bffb-cd8b-487d-a74d-39014d3c72ae","5479079d-2186-49b2-89e2-e3afab6abcc2","","null","<div style=""display: flex; justify-content: center; align-items: center;"">
                <img src=""images/causal/causal_series_5/causal_series_5_b.jpg"" style=""width: 300px; height: 300px;"" />
              </div>","null",""
"","","","","","html-keyboard-response","13","51512","0.0-13.0","9A44EDA2992D4580A37F2BE6CD39C450","0e85bffb-cd8b-487d-a74d-39014d3c72ae","5479079d-2186-49b2-89e2-e3afab6abcc2","","null","<div style=""display: flex; justify-content: center; align-items: center;"">
                <img src=""images/causal/causal_series_5/causal_series_5_c.jpg"" style=""width: 300px; height: 300px;"" />
              </div>","null",""
"","","","","","html-button-response","14","53393","0.0-14.0","9A44EDA2992D4580A37F2BE6CD39C450","0e85bffb-cd8b-487d-a74d-39014d3c72ae","5479079d-2186-49b2-89e2-e3afab6abcc2","","1880","
    <div style=""display: flex; justify-content: center; align-items: center;"">
      <img src=""images/blue_deck_1.png"" style=""width: 300px; height: 300px; margin-right: 10px;"" />
      <img src=""images/red_deck_2.png"" style=""width: 300px; height: 300px;"" />
    </div>","1","1"
"","","","","","html-keyboard-response","15","56406","0.0-15.0-1.0-0.0","9A44EDA2992D4580A37F2BE6CD39C450","0e85bffb-cd8b-487d-a74d-39014d3c72ae","5479079d-2186-49b2-89e2-e3afab6abcc2","","null","<div style=""display: flex; justify-content: center; align-items: center;"">
                <img src=""images/semantic/semantic_series_5/semantic_series_5_d.jpg"" style=""width: 300px; height: 300px;"" />
              </div>","null",""
"","","","","","html-keyboard-response","16","59412","0.0-16.0","9A44EDA2992D4580A37F2BE6CD39C450","0e85bffb-cd8b-487d-a74d-39014d3c72ae","5479079d-2186-49b2-89e2-e3afab6abcc2","","null","<div style=""display: flex; justify-content: center; align-items: center;"">
                <img src=""images/other/blank.jpg"" style=""width: 300px; height: 300px;"" />
              </div>","null",""
"","","","","","html-keyboard-response","17","62418","0.0-17.0","9A44EDA2992D4580A37F2BE6CD39C450","0e85bffb-cd8b-487d-a74d-39014d3c72ae","5479079d-2186-49b2-89e2-e3afab6abcc2","","null","<div style=""display: flex; justify-content: center; align-items: center;"">
                <img src=""images/causal/causal_series_16/causal_series_16_a.jpg"" style=""width: 300px; height: 300px;"" />
              </div>","null",""
"","","","","","html-keyboard-response","18","65426","0.0-18.0","9A44EDA2992D4580A37F2BE6CD39C450","0e85bffb-cd8b-487d-a74d-39014d3c72ae","5479079d-2186-49b2-89e2-e3afab6abcc2","","null","<div style=""display: flex; justify-content: center; align-items: center;"">
                <img src=""images/causal/causal_series_16/causal_series_16_b.jpg"" style=""width: 300px; height: 300px;"" />
              </div>","null",""
"","","","","","html-keyboard-response","19","68432","0.0-19.0","9A44EDA2992D4580A37F2BE6CD39C450","0e85bffb-cd8b-487d-a74d-39014d3c72ae","5479079d-2186-49b2-89e2-e3afab6abcc2","","null","<div style=""display: flex; justify-content: center; align-items: center;"">
                <img src=""images/causal/causal_series_16/causal_series_16_c.jpg"" style=""width: 300px; height: 300px;"" />
              </div>","null",""
"","","","","","html-button-response","20","69965","0.0-20.0","9A44EDA2992D4580A37F2BE6CD39C450","0e85bffb-cd8b-487d-a74d-39014d3c72ae","5479079d-2186-49b2-89e2-e3afab6abcc2","","1532","
    <div style=""display: flex; justify-content: center; align-items: center;"">
      <img src=""images/blue_deck_1.png"" style=""width: 300px; height: 300px; margin-right: 10px;"" />
      <img src=""images/red_deck_2.png"" style=""width: 300px; height: 300px;"" />
    </div>","0","0"
"","","","","","html-keyboard-response","21","72968","0.0-21.0-0.0-0.0","9A44EDA2992D4580A37F2BE6CD39C450","0e85bffb-cd8b-487d-a74d-39014d3c72ae","5479079d-2186-49b2-89e2-e3afab6abcc2","","null","<div style=""display: flex; justify-content: center; align-items: center;"">
                <img src=""images/causal/causal_series_16/causal_series_16_d.jpg"" style=""width: 300px; height: 300px;"" />
              </div>","null",""
"","","","","","html-keyboard-response","22","75979","0.0-22.0","9A44EDA2992D4580A37F2BE6CD39C450","0e85bffb-cd8b-487d-a74d-39014d3c72ae","5479079d-2186-49b2-89e2-e3afab6abcc2","","null","<div style=""display: flex; justify-content: center; align-items: center;"">
                <img src=""images/other/blank.jpg"" style=""width: 300px; height: 300px;"" />
              </div>","null",""
"","","","","","html-keyboard-response","23","78983","0.0-23.0","9A44EDA2992D4580A37F2BE6CD39C450","0e85bffb-cd8b-487d-a74d-39014d3c72ae","5479079d-2186-49b2-89e2-e3afab6abcc2","","null","<div style=""display: flex; justify-content: center; align-items: center;"">
                <img src=""images/causal/causal_series_11/causal_series_11_a.jpg"" style=""width: 300px; height: 300px;"" />
              </div>","null",""
"","","","","","html-keyboard-response","24","81985","0.0-24.0","9A44EDA2992D4580A37F2BE6CD39C450","0e85bffb-cd8b-487d-a74d-39014d3c72ae","5479079d-2186-49b2-89e2-e3afab6abcc2","","null","<div style=""display: flex; justify-content: center; align-items: center;"">
                <img src=""images/causal/causal_series_11/causal_series_11_b.jpg"" style=""width: 300px; height: 300px;"" />
              </div>","null",""
"","","","","","html-keyboard-response","25","84991","0.0-25.0","9A44EDA2992D4580A37F2BE6CD39C450","0e85bffb-cd8b-487d-a74d-39014d3c72ae","5479079d-2186-49b2-89e2-e3afab6abcc2","","null","<div style=""display: flex; justify-content: center; align-items: center;"">
                <img src=""images/causal/causal_series_11/causal_series_11_c.jpg"" style=""width: 300px; height: 300px;"" />
              </div>","null",""
"","","","","","html-button-response","26","85564","0.0-26.0","9A44EDA2992D4580A37F2BE6CD39C450","0e85bffb-cd8b-487d-a74d-39014d3c72ae","5479079d-2186-49b2-89e2-e3afab6abcc2","","572","
    <div style=""display: flex; justify-content: center; align-items: center;"">
      <img src=""images/blue_deck_1.png"" style=""width: 300px; height: 300px; margin-right: 10px;"" />
      <img src=""images/red_deck_2.png"" style=""width: 300px; height: 300px;"" />
    </div>","1","1"
"","","","","","html-keyboard-response","27","88565","0.0-27.0-1.0-0.0","9A44EDA2992D4580A37F2BE6CD39C450","0e85bffb-cd8b-487d-a74d-39014d3c72ae","5479079d-2186-49b2-89e2-e3afab6abcc2","","null","<div style=""display: flex; justify-content: center; align-items: center;"">
                <img src=""images/semantic/semantic_series_11/semantic_series_11_d.jpg"" style=""width: 300px; height: 300px;"" />
              </div>","null",""
"","","","","","html-keyboard-response","28","91578","0.0-28.0","9A44EDA2992D4580A37F2BE6CD39C450","0e85bffb-cd8b-487d-a74d-39014d3c72ae","5479079d-2186-49b2-89e2-e3afab6abcc2","","null","<div style=""display: flex; justify-content: center; align-items: center;"">
                <img src=""images/other/blank.jpg"" style=""width: 300px; height: 300px;"" />
              </div>","null",""
"","","","","","html-keyboard-response","29","94580","0.0-29.0","9A44EDA2992D4580A37F2BE6CD39C450","0e85bffb-cd8b-487d-a74d-39014d3c72ae","5479079d-2186-49b2-89e2-e3afab6abcc2","","null","<div style=""display: flex; justify-content: center; align-items: center;"">
                <img src=""images/causal/causal_series_7/causal_series_7_a.jpg"" style=""width: 300px; height: 300px;"" />
              </div>","null",""
"","","","","","html-keyboard-response","30","97587","0.0-30.0","9A44EDA2992D4580A37F2BE6CD39C450","0e85bffb-cd8b-487d-a74d-39014d3c72ae","5479079d-2186-49b2-89e2-e3afab6abcc2","","null","<div style=""display: flex; justify-content: center; align-items: center;"">
                <img src=""images/causal/causal_series_7/causal_series_7_b.jpg"" style=""width: 300px; height: 300px;"" />
              </div>","null",""
"","","","","","html-keyboard-response","31","100599","0.0-31.0","9A44EDA2992D4580A37F2BE6CD39C450","0e85bffb-cd8b-487d-a74d-39014d3c72ae","5479079d-2186-49b2-89e2-e3afab6abcc2","","null","<div style=""display: flex; justify-content: center; align-items: center;"">
                <img src=""images/causal/causal_series_7/causal_series_7_c.jpg"" style=""width: 300px; height: 300px;"" />
              </div>","null",""
"","","","","","html-button-response","32","101621","0.0-32.0","9A44EDA2992D4580A37F2BE6CD39C450","0e85bffb-cd8b-487d-a74d-39014d3c72ae","5479079d-2186-49b2-89e2-e3afab6abcc2","","1021","
    <div style=""display: flex; justify-content: center; align-items: center;"">
      <img src=""images/blue_deck_1.png"" style=""width: 300px; height: 300px; margin-right: 10px;"" />
      <img src=""images/red_deck_2.png"" style=""width: 300px; height: 300px;"" />
    </div>","1","1"
"","","","","","html-keyboard-response","33","104623","0.0-33.0-1.0-0.0","9A44EDA2992D4580A37F2BE6CD39C450","0e85bffb-cd8b-487d-a74d-39014d3c72ae","5479079d-2186-49b2-89e2-e3afab6abcc2","","null","<div style=""display: flex; justify-content: center; align-items: center;"">
                <img src=""images/semantic/semantic_series_7/semantic_series_7_d.jpg"" style=""width: 300px; height: 300px;"" />
              </div>","null",""
"","","","","","html-keyboard-response","34","107632","0.0-34.0","9A44EDA2992D4580A37F2BE6CD39C450","0e85bffb-cd8b-487d-a74d-39014d3c72ae","5479079d-2186-49b2-89e2-e3afab6abcc2","","null","<div style=""display: flex; justify-content: center; align-items: center;"">
                <img src=""images/other/blank.jpg"" style=""width: 300px; height: 300px;"" />
              </div>","null",""
"","","","","","html-keyboard-response","35","110637","0.0-35.0","9A44EDA2992D4580A37F2BE6CD39C450","0e85bffb-cd8b-487d-a74d-39014d3c72ae","5479079d-2186-49b2-89e2-e3afab6abcc2","","null","<div style=""display: flex; justify-content: center; align-items: center;"">
                <img src=""images/causal/causal_series_4/causal_series_4_a.jpg"" style=""width: 300px; height: 300px;"" />
              </div>","null",""
"","","","","","html-keyboard-response","36","113640","0.0-36.0","9A44EDA2992D4580A37F2BE6CD39C450","0e85bffb-cd8b-487d-a74d-39014d3c72ae","5479079d-2186-49b2-89e2-e3afab6abcc2","","null","<div style=""display: flex; justify-content: center; align-items: center;"">
                <img src=""images/causal/causal_series_4/causal_series_4_b.jpg"" style=""width: 300px; height: 300px;"" />
              </div>","null",""
"","","","","","html-keyboard-response","37","116651","0.0-37.0","9A44EDA2992D4580A37F2BE6CD39C450","0e85bffb-cd8b-487d-a74d-39014d3c72ae","5479079d-2186-49b2-89e2-e3afab6abcc2","","null","<div style=""display: flex; justify-content: center; align-items: center;"">
                <img src=""images/causal/causal_series_4/causal_series_4_c.jpg"" style=""width: 300px; height: 300px;"" />
              </div>","null",""
"","","","","","html-button-response","38","118656","0.0-38.0","9A44EDA2992D4580A37F2BE6CD39C450","0e85bffb-cd8b-487d-a74d-39014d3c72ae","5479079d-2186-49b2-89e2-e3afab6abcc2","","2005","
    <div style=""display: flex; justify-content: center; align-items: center;"">
      <img src=""images/blue_deck_1.png"" style=""width: 300px; height: 300px; margin-right: 10px;"" />
      <img src=""images/red_deck_2.png"" style=""width: 300px; height: 300px;"" />
    </div>","1","1"
"","","","","","html-keyboard-response","39","121658","0.0-39.0-1.0-0.0","9A44EDA2992D4580A37F2BE6CD39C450","0e85bffb-cd8b-487d-a74d-39014d3c72ae","5479079d-2186-49b2-89e2-e3afab6abcc2","","null","<div style=""display: flex; justify-content: center; align-items: center;"">
                <img src=""images/semantic/semantic_series_4/semantic_series_4_d.jpg"" style=""width: 300px; height: 300px;"" />
              </div>","null",""
"","","","","","html-keyboard-response","40","124665","0.0-40.0","9A44EDA2992D4580A37F2BE6CD39C450","0e85bffb-cd8b-487d-a74d-39014d3c72ae","5479079d-2186-49b2-89e2-e3afab6abcc2","","null","<div style=""display: flex; justify-content: center; align-items: center;"">
                <img src=""images/other/blank.jpg"" style=""width: 300px; height: 300px;"" />
              </div>","null",""
"","","","","","html-keyboard-response","41","127676","0.0-41.0","9A44EDA2992D4580A37F2BE6CD39C450","0e85bffb-cd8b-487d-a74d-39014d3c72ae","5479079d-2186-49b2-89e2-e3afab6abcc2","","null","<div style=""display: flex; justify-content: center; align-items: center;"">
                <img src=""images/causal/causal_series_9/causal_series_9_a.jpg"" style=""width: 300px; height: 300px;"" />
              </div>","null",""
"","","","","","html-keyboard-response","42","130679","0.0-42.0","9A44EDA2992D4580A37F2BE6CD39C450","0e85bffb-cd8b-487d-a74d-39014d3c72ae","5479079d-2186-49b2-89e2-e3afab6abcc2","","null","<div style=""display: flex; justify-content: center; align-items: center;"">
                <img src=""images/causal/causal_series_9/causal_series_9_b.jpg"" style=""width: 300px; height: 300px;"" />
              </div>","null",""
"","","","","","html-keyboard-response","43","133687","0.0-43.0","9A44EDA2992D4580A37F2BE6CD39C450","0e85bffb-cd8b-487d-a74d-39014d3c72ae","5479079d-2186-49b2-89e2-e3afab6abcc2","","null","<div style=""display: flex; justify-content: center; align-items: center;"">
                <img src=""images/causal/causal_series_9/causal_series_9_c.jpg"" style=""width: 300px; height: 300px;"" />
              </div>","null",""
"","","","","","html-button-response","44","134883","0.0-44.0","9A44EDA2992D4580A37F2BE6CD39C450","0e85bffb-cd8b-487d-a74d-39014d3c72ae","5479079d-2186-49b2-89e2-e3afab6abcc2","","1195","
    <div style=""display: flex; justify-content: center; align-items: center;"">
      <img src=""images/blue_deck_1.png"" style=""width: 300px; height: 300px; margin-right: 10px;"" />
      <img src=""images/red_deck_2.png"" style=""width: 300px; height: 300px;"" />
    </div>","0","0"
"","","","","","html-keyboard-response","45","137896","0.0-45.0-0.0-0.0","9A44EDA2992D4580A37F2BE6CD39C450","0e85bffb-cd8b-487d-a74d-39014d3c72ae","5479079d-2186-49b2-89e2-e3afab6abcc2","","null","<div style=""display: flex; justify-content: center; align-items: center;"">
                <img src=""images/causal/causal_series_9/causal_series_9_d.jpg"" style=""width: 300px; height: 300px;"" />
              </div>","null",""
"","","","","","html-keyboard-response","46","140904","0.0-46.0","9A44EDA2992D4580A37F2BE6CD39C450","0e85bffb-cd8b-487d-a74d-39014d3c72ae","5479079d-2186-49b2-89e2-e3afab6abcc2","","null","<div style=""display: flex; justify-content: center; align-items: center;"">
                <img src=""images/other/blank.jpg"" style=""width: 300px; height: 300px;"" />
              </div>","null",""
"","","","","","html-keyboard-response","47","143908","0.0-47.0","9A44EDA2992D4580A37F2BE6CD39C450","0e85bffb-cd8b-487d-a74d-39014d3c72ae","5479079d-2186-49b2-89e2-e3afab6abcc2","","null","<div style=""display: flex; justify-content: center; align-items: center;"">
                <img src=""images/causal/causal_series_3/causal_series_3_a.jpg"" style=""width: 300px; height: 300px;"" />
              </div>","null",""
"","","","","","html-keyboard-response","48","146913","0.0-48.0","9A44EDA2992D4580A37F2BE6CD39C450","0e85bffb-cd8b-487d-a74d-39014d3c72ae","5479079d-2186-49b2-89e2-e3afab6abcc2","","null","<div style=""display: flex; justify-content: center; align-items: center;"">
                <img src=""images/causal/causal_series_3/causal_series_3_b.jpg"" style=""width: 300px; height: 300px;"" />
              </div>","null",""
"","","","","","html-keyboard-response","49","149919","0.0-49.0","9A44EDA2992D4580A37F2BE6CD39C450","0e85bffb-cd8b-487d-a74d-39014d3c72ae","5479079d-2186-49b2-89e2-e3afab6abcc2","","null","<div style=""display: flex; justify-content: center; align-items: center;"">
                <img src=""images/causal/causal_series_3/causal_series_3_c.jpg"" style=""width: 300px; height: 300px;"" />
              </div>","null",""
"","","","","","html-button-response","50","153008","0.0-50.0","9A44EDA2992D4580A37F2BE6CD39C450","0e85bffb-cd8b-487d-a74d-39014d3c72ae","5479079d-2186-49b2-89e2-e3afab6abcc2","","3088","
    <div style=""display: flex; justify-content: center; align-items: center;"">
      <img src=""images/blue_deck_1.png"" style=""width: 300px; height: 300px; margin-right: 10px;"" />
      <img src=""images/red_deck_2.png"" style=""width: 300px; height: 300px;"" />
    </div>","0","0"
"","","","","","html-keyboard-response","51","156023","0.0-51.0-0.0-0.0","9A44EDA2992D4580A37F2BE6CD39C450","0e85bffb-cd8b-487d-a74d-39014d3c72ae","5479079d-2186-49b2-89e2-e3afab6abcc2","","null","<div style=""display: flex; justify-content: center; align-items: center;"">
                <img src=""images/causal/causal_series_3/causal_series_3_d.jpg"" style=""width: 300px; height: 300px;"" />
              </div>","null",""
"","","","","","html-keyboard-response","52","159034","0.0-52.0","9A44EDA2992D4580A37F2BE6CD39C450","0e85bffb-cd8b-487d-a74d-39014d3c72ae","5479079d-2186-49b2-89e2-e3afab6abcc2","","null","<div style=""display: flex; justify-content: center; align-items: center;"">
                <img src=""images/other/blank.jpg"" style=""width: 300px; height: 300px;"" />
              </div>","null",""
"","","","","","html-keyboard-response","53","162038","0.0-53.0","9A44EDA2992D4580A37F2BE6CD39C450","0e85bffb-cd8b-487d-a74d-39014d3c72ae","5479079d-2186-49b2-89e2-e3afab6abcc2","","null","<div style=""display: flex; justify-content: center; align-items: center;"">
                <img src=""images/causal/causal_series_8/causal_series_8_a.jpg"" style=""width: 300px; height: 300px;"" />
              </div>","null",""
"","","","","","html-keyboard-response","54","165046","0.0-54.0","9A44EDA2992D4580A37F2BE6CD39C450","0e85bffb-cd8b-487d-a74d-39014d3c72ae","5479079d-2186-49b2-89e2-e3afab6abcc2","","null","<div style=""display: flex; justify-content: center; align-items: center;"">
                <img src=""images/causal/causal_series_8/causal_series_8_b.jpg"" style=""width: 300px; height: 300px;"" />
              </div>","null",""
"","","","","","html-keyboard-response","55","168053","0.0-55.0","9A44EDA2992D4580A37F2BE6CD39C450","0e85bffb-cd8b-487d-a74d-39014d3c72ae","5479079d-2186-49b2-89e2-e3afab6abcc2","","null","<div style=""display: flex; justify-content: center; align-items: center;"">
                <img src=""images/causal/causal_series_8/causal_series_8_c.jpg"" style=""width: 300px; height: 300px;"" />
              </div>","null",""
"","","","","","html-button-response","56","171792","0.0-56.0","9A44EDA2992D4580A37F2BE6CD39C450","0e85bffb-cd8b-487d-a74d-39014d3c72ae","5479079d-2186-49b2-89e2-e3afab6abcc2","","3738","
    <div style=""display: flex; justify-content: center; align-items: center;"">
      <img src=""images/blue_deck_1.png"" style=""width: 300px; height: 300px; margin-right: 10px;"" />
      <img src=""images/red_deck_2.png"" style=""width: 300px; height: 300px;"" />
    </div>","0","0"
"","","","","","html-keyboard-response","57","174795","0.0-57.0-0.0-0.0","9A44EDA2992D4580A37F2BE6CD39C450","0e85bffb-cd8b-487d-a74d-39014d3c72ae","5479079d-2186-49b2-89e2-e3afab6abcc2","","null","<div style=""display: flex; justify-content: center; align-items: center;"">
                <img src=""images/causal/causal_series_8/causal_series_8_d.jpg"" style=""width: 300px; height: 300px;"" />
              </div>","null",""
"","","","","","html-keyboard-response","58","177805","0.0-58.0","9A44EDA2992D4580A37F2BE6CD39C450","0e85bffb-cd8b-487d-a74d-39014d3c72ae","5479079d-2186-49b2-89e2-e3afab6abcc2","","null","<div style=""display: flex; justify-content: center; align-items: center;"">
                <img src=""images/other/blank.jpg"" style=""width: 300px; height: 300px;"" />
              </div>","null",""
"","","","","","html-keyboard-response","59","180817","0.0-59.0","9A44EDA2992D4580A37F2BE6CD39C450","0e85bffb-cd8b-487d-a74d-39014d3c72ae","5479079d-2186-49b2-89e2-e3afab6abcc2","","null","<div style=""display: flex; justify-content: center; align-items: center;"">
                <img src=""images/causal/causal_series_13/causal_series_13_a.jpg"" style=""width: 300px; height: 300px;"" />
              </div>","null",""
"","","","","","html-keyboard-response","60","183829","0.0-60.0","9A44EDA2992D4580A37F2BE6CD39C450","0e85bffb-cd8b-487d-a74d-39014d3c72ae","5479079d-2186-49b2-89e2-e3afab6abcc2","","null","<div style=""display: flex; justify-content: center; align-items: center;"">
                <img src=""images/causal/causal_series_13/causal_series_13_b.jpg"" style=""width: 300px; height: 300px;"" />
              </div>","null",""
"","","","","","html-keyboard-response","61","186829","0.0-61.0","9A44EDA2992D4580A37F2BE6CD39C450","0e85bffb-cd8b-487d-a74d-39014d3c72ae","5479079d-2186-49b2-89e2-e3afab6abcc2","","null","<div style=""display: flex; justify-content: center; align-items: center;"">
                <img src=""images/causal/causal_series_13/causal_series_13_c.jpg"" style=""width: 300px; height: 300px;"" />
              </div>","null",""
"","","","","","html-button-response","62","187783","0.0-62.0","9A44EDA2992D4580A37F2BE6CD39C450","0e85bffb-cd8b-487d-a74d-39014d3c72ae","5479079d-2186-49b2-89e2-e3afab6abcc2","","953","
    <div style=""display: flex; justify-content: center; align-items: center;"">
      <img src=""images/blue_deck_1.png"" style=""width: 300px; height: 300px; margin-right: 10px;"" />
      <img src=""images/red_deck_2.png"" style=""width: 300px; height: 300px;"" />
    </div>","1","1"
"","","","","","html-keyboard-response","63","190785","0.0-63.0-1.0-0.0","9A44EDA2992D4580A37F2BE6CD39C450","0e85bffb-cd8b-487d-a74d-39014d3c72ae","5479079d-2186-49b2-89e2-e3afab6abcc2","","null","<div style=""display: flex; justify-content: center; align-items: center;"">
                <img src=""images/semantic/semantic_series_13/semantic_series_13_d.jpg"" style=""width: 300px; height: 300px;"" />
              </div>","null",""
"","","","","","html-keyboard-response","64","193789","0.0-64.0","9A44EDA2992D4580A37F2BE6CD39C450","0e85bffb-cd8b-487d-a74d-39014d3c72ae","5479079d-2186-49b2-89e2-e3afab6abcc2","","null","<div style=""display: flex; justify-content: center; align-items: center;"">
                <img src=""images/other/blank.jpg"" style=""width: 300px; height: 300px;"" />
              </div>","null",""
"","","","","","html-keyboard-response","65","196799","0.0-65.0","9A44EDA2992D4580A37F2BE6CD39C450","0e85bffb-cd8b-487d-a74d-39014d3c72ae","5479079d-2186-49b2-89e2-e3afab6abcc2","","null","<div style=""display: flex; justify-content: center; align-items: center;"">
                <img src=""images/causal/causal_series_6/causal_series_6_a.jpg"" style=""width: 300px; height: 300px;"" />
              </div>","null",""
"","","","","","html-keyboard-response","66","199813","0.0-66.0","9A44EDA2992D4580A37F2BE6CD39C450","0e85bffb-cd8b-487d-a74d-39014d3c72ae","5479079d-2186-49b2-89e2-e3afab6abcc2","","null","<div style=""display: flex; justify-content: center; align-items: center;"">
                <img src=""images/causal/causal_series_6/causal_series_6_b.jpg"" style=""width: 300px; height: 300px;"" />
              </div>","null",""
"","","","","","html-keyboard-response","67","202818","0.0-67.0","9A44EDA2992D4580A37F2BE6CD39C450","0e85bffb-cd8b-487d-a74d-39014d3c72ae","5479079d-2186-49b2-89e2-e3afab6abcc2","","null","<div style=""display: flex; justify-content: center; align-items: center;"">
                <img src=""images/causal/causal_series_6/causal_series_6_c.jpg"" style=""width: 300px; height: 300px;"" />
              </div>","null",""
"","","","","","html-button-response","68","204766","0.0-68.0","9A44EDA2992D4580A37F2BE6CD39C450","0e85bffb-cd8b-487d-a74d-39014d3c72ae","5479079d-2186-49b2-89e2-e3afab6abcc2","","1948","
    <div style=""display: flex; justify-content: center; align-items: center;"">
      <img src=""images/blue_deck_1.png"" style=""width: 300px; height: 300px; margin-right: 10px;"" />
      <img src=""images/red_deck_2.png"" style=""width: 300px; height: 300px;"" />
    </div>","1","1"
"","","","","","html-keyboard-response","69","207771","0.0-69.0-1.0-0.0","9A44EDA2992D4580A37F2BE6CD39C450","0e85bffb-cd8b-487d-a74d-39014d3c72ae","5479079d-2186-49b2-89e2-e3afab6abcc2","","null","<div style=""display: flex; justify-content: center; align-items: center;"">
                <img src=""images/semantic/semantic_series_6/semantic_series_6_d.jpg"" style=""width: 300px; height: 300px;"" />
              </div>","null",""
"","","","","","html-keyboard-response","70","210783","0.0-70.0","9A44EDA2992D4580A37F2BE6CD39C450","0e85bffb-cd8b-487d-a74d-39014d3c72ae","5479079d-2186-49b2-89e2-e3afab6abcc2","","null","<div style=""display: flex; justify-content: center; align-items: center;"">
                <img src=""images/other/blank.jpg"" style=""width: 300px; height: 300px;"" />
              </div>","null",""
"","","","","","html-keyboard-response","71","213795","0.0-71.0","9A44EDA2992D4580A37F2BE6CD39C450","0e85bffb-cd8b-487d-a74d-39014d3c72ae","5479079d-2186-49b2-89e2-e3afab6abcc2","","null","<div style=""display: flex; justify-content: center; align-items: center;"">
                <img src=""images/causal/causal_series_2/causal_series_2_a.jpg"" style=""width: 300px; height: 300px;"" />
              </div>","null",""
"","","","","","html-keyboard-response","72","216804","0.0-72.0","9A44EDA2992D4580A37F2BE6CD39C450","0e85bffb-cd8b-487d-a74d-39014d3c72ae","5479079d-2186-49b2-89e2-e3afab6abcc2","","null","<div style=""display: flex; justify-content: center; align-items: center;"">
                <img src=""images/causal/causal_series_2/causal_series_2_b.jpg"" style=""width: 300px; height: 300px;"" />
              </div>","null",""
"","","","","","html-keyboard-response","73","219809","0.0-73.0","9A44EDA2992D4580A37F2BE6CD39C450","0e85bffb-cd8b-487d-a74d-39014d3c72ae","5479079d-2186-49b2-89e2-e3afab6abcc2","","null","<div style=""display: flex; justify-content: center; align-items: center;"">
                <img src=""images/causal/causal_series_2/causal_series_2_c.jpg"" style=""width: 300px; height: 300px;"" />
              </div>","null",""
"","","","","","html-button-response","74","224770","0.0-74.0","9A44EDA2992D4580A37F2BE6CD39C450","0e85bffb-cd8b-487d-a74d-39014d3c72ae","5479079d-2186-49b2-89e2-e3afab6abcc2","","4961","
    <div style=""display: flex; justify-content: center; align-items: center;"">
      <img src=""images/blue_deck_1.png"" style=""width: 300px; height: 300px; margin-right: 10px;"" />
      <img src=""images/red_deck_2.png"" style=""width: 300px; height: 300px;"" />
    </div>","1","1"
"","","","","","html-keyboard-response","75","227775","0.0-75.0-1.0-0.0","9A44EDA2992D4580A37F2BE6CD39C450","0e85bffb-cd8b-487d-a74d-39014d3c72ae","5479079d-2186-49b2-89e2-e3afab6abcc2","","null","<div style=""display: flex; justify-content: center; align-items: center;"">
                <img src=""images/semantic/semantic_series_2/semantic_series_2_d.jpg"" style=""width: 300px; height: 300px;"" />
              </div>","null",""
"","","","","","html-keyboard-response","76","230786","0.0-76.0","9A44EDA2992D4580A37F2BE6CD39C450","0e85bffb-cd8b-487d-a74d-39014d3c72ae","5479079d-2186-49b2-89e2-e3afab6abcc2","","null","<div style=""display: flex; justify-content: center; align-items: center;"">
                <img src=""images/other/blank.jpg"" style=""width: 300px; height: 300px;"" />
              </div>","null",""
"","","","","","html-keyboard-response","77","233799","0.0-77.0","9A44EDA2992D4580A37F2BE6CD39C450","0e85bffb-cd8b-487d-a74d-39014d3c72ae","5479079d-2186-49b2-89e2-e3afab6abcc2","","null","<div style=""display: flex; justify-content: center; align-items: center;"">
                <img src=""images/causal/causal_series_17/causal_series_17_a.jpg"" style=""width: 300px; height: 300px;"" />
              </div>","null",""
"","","","","","html-keyboard-response","78","236804","0.0-78.0","9A44EDA2992D4580A37F2BE6CD39C450","0e85bffb-cd8b-487d-a74d-39014d3c72ae","5479079d-2186-49b2-89e2-e3afab6abcc2","","null","<div style=""display: flex; justify-content: center; align-items: center;"">
                <img src=""images/causal/causal_series_17/causal_series_17_b.jpg"" style=""width: 300px; height: 300px;"" />
              </div>","null",""
"","","","","","html-keyboard-response","79","239805","0.0-79.0","9A44EDA2992D4580A37F2BE6CD39C450","0e85bffb-cd8b-487d-a74d-39014d3c72ae","5479079d-2186-49b2-89e2-e3afab6abcc2","","null","<div style=""display: flex; justify-content: center; align-items: center;"">
                <img src=""images/causal/causal_series_17/causal_series_17_c.jpg"" style=""width: 300px; height: 300px;"" />
              </div>","null",""
"","","","","","html-button-response","80","240315","0.0-80.0","9A44EDA2992D4580A37F2BE6CD39C450","0e85bffb-cd8b-487d-a74d-39014d3c72ae","5479079d-2186-49b2-89e2-e3afab6abcc2","","510","
    <div style=""display: flex; justify-content: center; align-items: center;"">
      <img src=""images/blue_deck_1.png"" style=""width: 300px; height: 300px; margin-right: 10px;"" />
      <img src=""images/red_deck_2.png"" style=""width: 300px; height: 300px;"" />
    </div>","0","0"
"","","","","","html-keyboard-response","81","243318","0.0-81.0-0.0-0.0","9A44EDA2992D4580A37F2BE6CD39C450","0e85bffb-cd8b-487d-a74d-39014d3c72ae","5479079d-2186-49b2-89e2-e3afab6abcc2","","null","<div style=""display: flex; justify-content: center; align-items: center;"">
                <img src=""images/causal/causal_series_17/causal_series_17_d.jpg"" style=""width: 300px; height: 300px;"" />
              </div>","null",""
"","","","","","html-keyboard-response","82","246323","0.0-82.0","9A44EDA2992D4580A37F2BE6CD39C450","0e85bffb-cd8b-487d-a74d-39014d3c72ae","5479079d-2186-49b2-89e2-e3afab6abcc2","","null","<div style=""display: flex; justify-content: center; align-items: center;"">
                <img src=""images/other/blank.jpg"" style=""width: 300px; height: 300px;"" />
              </div>","null",""
"","","","","","html-keyboard-response","83","249335","0.0-83.0","9A44EDA2992D4580A37F2BE6CD39C450","0e85bffb-cd8b-487d-a74d-39014d3c72ae","5479079d-2186-49b2-89e2-e3afab6abcc2","","null","<div style=""display: flex; justify-content: center; align-items: center;"">
                <img src=""images/causal/causal_series_12/causal_series_12_a.jpg"" style=""width: 300px; height: 300px;"" />
              </div>","null",""
"","","","","","html-keyboard-response","84","252345","0.0-84.0","9A44EDA2992D4580A37F2BE6CD39C450","0e85bffb-cd8b-487d-a74d-39014d3c72ae","5479079d-2186-49b2-89e2-e3afab6abcc2","","null","<div style=""display: flex; justify-content: center; align-items: center;"">
                <img src=""images/causal/causal_series_12/causal_series_12_b.jpg"" style=""width: 300px; height: 300px;"" />
              </div>","null",""
"","","","","","html-keyboard-response","85","255352","0.0-85.0","9A44EDA2992D4580A37F2BE6CD39C450","0e85bffb-cd8b-487d-a74d-39014d3c72ae","5479079d-2186-49b2-89e2-e3afab6abcc2","","null","<div style=""display: flex; justify-content: center; align-items: center;"">
                <img src=""images/causal/causal_series_12/causal_series_12_c.jpg"" style=""width: 300px; height: 300px;"" />
              </div>","null",""
"","","","","","html-button-response","86","259708","0.0-86.0","9A44EDA2992D4580A37F2BE6CD39C450","0e85bffb-cd8b-487d-a74d-39014d3c72ae","5479079d-2186-49b2-89e2-e3afab6abcc2","","4356","
    <div style=""display: flex; justify-content: center; align-items: center;"">
      <img src=""images/blue_deck_1.png"" style=""width: 300px; height: 300px; margin-right: 10px;"" />
      <img src=""images/red_deck_2.png"" style=""width: 300px; height: 300px;"" />
    </div>","1","1"
"","","","","","html-keyboard-response","87","262722","0.0-87.0-1.0-0.0","9A44EDA2992D4580A37F2BE6CD39C450","0e85bffb-cd8b-487d-a74d-39014d3c72ae","5479079d-2186-49b2-89e2-e3afab6abcc2","","null","<div style=""display: flex; justify-content: center; align-items: center;"">
                <img src=""images/semantic/semantic_series_12/semantic_series_12_d.jpg"" style=""width: 300px; height: 300px;"" />
              </div>","null",""
"","","","","","html-keyboard-response","88","265729","0.0-88.0","9A44EDA2992D4580A37F2BE6CD39C450","0e85bffb-cd8b-487d-a74d-39014d3c72ae","5479079d-2186-49b2-89e2-e3afab6abcc2","","null","<div style=""display: flex; justify-content: center; align-items: center;"">
                <img src=""images/other/blank.jpg"" style=""width: 300px; height: 300px;"" />
              </div>","null",""
"","","","","","html-keyboard-response","89","268744","0.0-89.0","9A44EDA2992D4580A37F2BE6CD39C450","0e85bffb-cd8b-487d-a74d-39014d3c72ae","5479079d-2186-49b2-89e2-e3afab6abcc2","","null","<div style=""display: flex; justify-content: center; align-items: center;"">
                <img src=""images/causal/causal_series_10/causal_series_10_a.jpg"" style=""width: 300px; height: 300px;"" />
              </div>","null",""
"","","","","","html-keyboard-response","90","271745","0.0-90.0","9A44EDA2992D4580A37F2BE6CD39C450","0e85bffb-cd8b-487d-a74d-39014d3c72ae","5479079d-2186-49b2-89e2-e3afab6abcc2","","null","<div style=""display: flex; justify-content: center; align-items: center;"">
                <img src=""images/causal/causal_series_10/causal_series_10_b.jpg"" style=""width: 300px; height: 300px;"" />
              </div>","null",""
"","","","","","html-keyboard-response","91","274746","0.0-91.0","9A44EDA2992D4580A37F2BE6CD39C450","0e85bffb-cd8b-487d-a74d-39014d3c72ae","5479079d-2186-49b2-89e2-e3afab6abcc2","","null","<div style=""display: flex; justify-content: center; align-items: center;"">
                <img src=""images/causal/causal_series_10/causal_series_10_c.jpg"" style=""width: 300px; height: 300px;"" />
              </div>","null",""
"","","","","","html-button-response","92","275240","0.0-92.0","9A44EDA2992D4580A37F2BE6CD39C450","0e85bffb-cd8b-487d-a74d-39014d3c72ae","5479079d-2186-49b2-89e2-e3afab6abcc2","","493","
    <div style=""display: flex; justify-content: center; align-items: center;"">
      <img src=""images/blue_deck_1.png"" style=""width: 300px; height: 300px; margin-right: 10px;"" />
      <img src=""images/red_deck_2.png"" style=""width: 300px; height: 300px;"" />
    </div>","1","1"
"","","","","","html-keyboard-response","93","278245","0.0-93.0-1.0-0.0","9A44EDA2992D4580A37F2BE6CD39C450","0e85bffb-cd8b-487d-a74d-39014d3c72ae","5479079d-2186-49b2-89e2-e3afab6abcc2","","null","<div style=""display: flex; justify-content: center; align-items: center;"">
                <img src=""images/semantic/semantic_series_10/semantic_series_10_d.jpg"" style=""width: 300px; height: 300px;"" />
              </div>","null",""
"","","","","","html-keyboard-response","94","281245","0.0-94.0","9A44EDA2992D4580A37F2BE6CD39C450","0e85bffb-cd8b-487d-a74d-39014d3c72ae","5479079d-2186-49b2-89e2-e3afab6abcc2","","null","<div style=""display: flex; justify-content: center; align-items: center;"">
                <img src=""images/other/blank.jpg"" style=""width: 300px; height: 300px;"" />
              </div>","null",""
"","","","","","html-keyboard-response","95","284255","0.0-95.0","9A44EDA2992D4580A37F2BE6CD39C450","0e85bffb-cd8b-487d-a74d-39014d3c72ae","5479079d-2186-49b2-89e2-e3afab6abcc2","","null","<div style=""display: flex; justify-content: center; align-items: center;"">
                <img src=""images/causal/causal_series_15/causal_series_15_a.jpg"" style=""width: 300px; height: 300px;"" />
              </div>","null",""
"","","","","","html-keyboard-response","96","287264","0.0-96.0","9A44EDA2992D4580A37F2BE6CD39C450","0e85bffb-cd8b-487d-a74d-39014d3c72ae","5479079d-2186-49b2-89e2-e3afab6abcc2","","null","<div style=""display: flex; justify-content: center; align-items: center;"">
                <img src=""images/causal/causal_series_15/causal_series_15_b.jpg"" style=""width: 300px; height: 300px;"" />
              </div>","null",""
"","","","","","html-keyboard-response","97","290277","0.0-97.0","9A44EDA2992D4580A37F2BE6CD39C450","0e85bffb-cd8b-487d-a74d-39014d3c72ae","5479079d-2186-49b2-89e2-e3afab6abcc2","","null","<div style=""display: flex; justify-content: center; align-items: center;"">
                <img src=""images/causal/causal_series_15/causal_series_15_c.jpg"" style=""width: 300px; height: 300px;"" />
              </div>","null",""
"","","","","","html-button-response","98","291799","0.0-98.0","9A44EDA2992D4580A37F2BE6CD39C450","0e85bffb-cd8b-487d-a74d-39014d3c72ae","5479079d-2186-49b2-89e2-e3afab6abcc2","","1521","
    <div style=""display: flex; justify-content: center; align-items: center;"">
      <img src=""images/blue_deck_1.png"" style=""width: 300px; height: 300px; margin-right: 10px;"" />
      <img src=""images/red_deck_2.png"" style=""width: 300px; height: 300px;"" />
    </div>","0","0"
"","","","","","html-keyboard-response","99","294806","0.0-99.0-0.0-0.0","9A44EDA2992D4580A37F2BE6CD39C450","0e85bffb-cd8b-487d-a74d-39014d3c72ae","5479079d-2186-49b2-89e2-e3afab6abcc2","","null","<div style=""display: flex; justify-content: center; align-items: center;"">
                <img src=""images/causal/causal_series_15/causal_series_15_d.jpg"" style=""width: 300px; height: 300px;"" />
              </div>","null",""
"","","","","","html-keyboard-response","100","297808","0.0-100.0","9A44EDA2992D4580A37F2BE6CD39C450","0e85bffb-cd8b-487d-a74d-39014d3c72ae","5479079d-2186-49b2-89e2-e3afab6abcc2","","null","<div style=""display: flex; justify-content: center; align-items: center;"">
                <img src=""images/other/blank.jpg"" style=""width: 300px; height: 300px;"" />
              </div>","null",""
"","","","","","html-keyboard-response","101","300820","0.0-101.0","9A44EDA2992D4580A37F2BE6CD39C450","0e85bffb-cd8b-487d-a74d-39014d3c72ae","5479079d-2186-49b2-89e2-e3afab6abcc2","","null","<div style=""display: flex; justify-content: center; align-items: center;"">
                <img src=""images/causal/causal_series_14/causal_series_14_a.jpg"" style=""width: 300px; height: 300px;"" />
              </div>","null",""
"","","","","","html-keyboard-response","102","303822","0.0-102.0","9A44EDA2992D4580A37F2BE6CD39C450","0e85bffb-cd8b-487d-a74d-39014d3c72ae","5479079d-2186-49b2-89e2-e3afab6abcc2","","null","<div style=""display: flex; justify-content: center; align-items: center;"">
                <img src=""images/causal/causal_series_14/causal_series_14_b.jpg"" style=""width: 300px; height: 300px;"" />
              </div>","null",""
"","","","","","html-keyboard-response","103","306832","0.0-103.0","9A44EDA2992D4580A37F2BE6CD39C450","0e85bffb-cd8b-487d-a74d-39014d3c72ae","5479079d-2186-49b2-89e2-e3afab6abcc2","","null","<div style=""display: flex; justify-content: center; align-items: center;"">
                <img src=""images/causal/causal_series_14/causal_series_14_c.jpg"" style=""width: 300px; height: 300px;"" />
              </div>","null",""
"","","","","","html-button-response","104","307992","0.0-104.0","9A44EDA2992D4580A37F2BE6CD39C450","0e85bffb-cd8b-487d-a74d-39014d3c72ae","5479079d-2186-49b2-89e2-e3afab6abcc2","","1160","
    <div style=""display: flex; justify-content: center; align-items: center;"">
      <img src=""images/blue_deck_1.png"" style=""width: 300px; height: 300px; margin-right: 10px;"" />
      <img src=""images/red_deck_2.png"" style=""width: 300px; height: 300px;"" />
    </div>","1","1"
"","","","","","html-keyboard-response","105","311000","0.0-105.0-1.0-0.0","9A44EDA2992D4580A37F2BE6CD39C450","0e85bffb-cd8b-487d-a74d-39014d3c72ae","5479079d-2186-49b2-89e2-e3afab6abcc2","","null","<div style=""display: flex; justify-content: center; align-items: center;"">
                <img src=""images/semantic/semantic_series_14/semantic_series_14_d.jpg"" style=""width: 300px; height: 300px;"" />
              </div>","null",""
"","","","","","html-keyboard-response","106","314012","0.0-106.0","9A44EDA2992D4580A37F2BE6CD39C450","0e85bffb-cd8b-487d-a74d-39014d3c72ae","5479079d-2186-49b2-89e2-e3afab6abcc2","","null","<div style=""display: flex; justify-content: center; align-items: center;"">
                <img src=""images/other/blank.jpg"" style=""width: 300px; height: 300px;"" />
              </div>","null",""
"","","","","","html-keyboard-response","107","317027","0.0-107.0","9A44EDA2992D4580A37F2BE6CD39C450","0e85bffb-cd8b-487d-a74d-39014d3c72ae","5479079d-2186-49b2-89e2-e3afab6abcc2","","null","<div style=""display: flex; justify-content: center; align-items: center;"">
                <img src=""images/causal/causal_series_1/causal_series_1_a.jpg"" style=""width: 300px; height: 300px;"" />
              </div>","null",""
"","","","","","html-keyboard-response","108","320033","0.0-108.0","9A44EDA2992D4580A37F2BE6CD39C450","0e85bffb-cd8b-487d-a74d-39014d3c72ae","5479079d-2186-49b2-89e2-e3afab6abcc2","","null","<div style=""display: flex; justify-content: center; align-items: center;"">
                <img src=""images/causal/causal_series_1/causal_series_1_b.jpg"" style=""width: 300px; height: 300px;"" />
              </div>","null",""
"","","","","","html-keyboard-response","109","323040","0.0-109.0","9A44EDA2992D4580A37F2BE6CD39C450","0e85bffb-cd8b-487d-a74d-39014d3c72ae","5479079d-2186-49b2-89e2-e3afab6abcc2","","null","<div style=""display: flex; justify-content: center; align-items: center;"">
                <img src=""images/causal/causal_series_1/causal_series_1_c.jpg"" style=""width: 300px; height: 300px;"" />
              </div>","null",""
"","","","","","html-button-response","110","324408","0.0-110.0","9A44EDA2992D4580A37F2BE6CD39C450","0e85bffb-cd8b-487d-a74d-39014d3c72ae","5479079d-2186-49b2-89e2-e3afab6abcc2","","1368","
    <div style=""display: flex; justify-content: center; align-items: center;"">
      <img src=""images/blue_deck_1.png"" style=""width: 300px; height: 300px; margin-right: 10px;"" />
      <img src=""images/red_deck_2.png"" style=""width: 300px; height: 300px;"" />
    </div>","0","0"
"","","","","","html-keyboard-response","111","327419","0.0-111.0-0.0-0.0","9A44EDA2992D4580A37F2BE6CD39C450","0e85bffb-cd8b-487d-a74d-39014d3c72ae","5479079d-2186-49b2-89e2-e3afab6abcc2","","null","<div style=""display: flex; justify-content: center; align-items: center;"">
                <img src=""images/causal/causal_series_1/causal_series_1_d.jpg"" style=""width: 300px; height: 300px;"" />
              </div>","null",""
"","","","","","html-keyboard-response","112","330422","0.0-112.0","9A44EDA2992D4580A37F2BE6CD39C450","0e85bffb-cd8b-487d-a74d-39014d3c72ae","5479079d-2186-49b2-89e2-e3afab6abcc2","","null","<div style=""display: flex; justify-content: center; align-items: center;"">
                <img src=""images/other/blank.jpg"" style=""width: 300px; height: 300px;"" />
              </div>","null",""
"","","","","","survey-text","113","345124","0.0-113.0","9A44EDA2992D4580A37F2BE6CD39C450","0e85bffb-cd8b-487d-a74d-39014d3c72ae","5479079d-2186-49b2-89e2-e3afab6abcc2","","14701","","{""Q0"":""one was red and one was blue""}",""
"","","","","","survey-text","114","355677","0.0-114.0","9A44EDA2992D4580A37F2BE6CD39C450","0e85bffb-cd8b-487d-a74d-39014d3c72ae","5479079d-2186-49b2-89e2-e3afab6abcc2","","10551","","{""Q0"":""both were interesting at different times""}",""
"","","","","","html-button-response","115","374669","0.0-115.0","9A44EDA2992D4580A37F2BE6CD39C450","0e85bffb-cd8b-487d-a74d-39014d3c72ae","5479079d-2186-49b2-89e2-e3afab6abcc2","","18992","Which color deck does the fourth image continue the story from the series?","0",""
"","","","","","html-button-response","116","377086","0.0-116.0","9A44EDA2992D4580A37F2BE6CD39C450","0e85bffb-cd8b-487d-a74d-39014d3c72ae","5479079d-2186-49b2-89e2-e3afab6abcc2","","2416","Which color deck does the fourth image not follow the story from the series?","1",""
"","","","","","survey-text","117","386767","0.0-117.0","9A44EDA2992D4580A37F2BE6CD39C450","0e85bffb-cd8b-487d-a74d-39014d3c72ae","5479079d-2186-49b2-89e2-e3afab6abcc2","","9679","","{""Q0"":""female"",""Q1"":""21""}",""
"","","","","","instructions","118","389279","0.0-118.0","9A44EDA2992D4580A37F2BE6CD39C450","0e85bffb-cd8b-487d-a74d-39014d3c72ae","5479079d-2186-49b2-89e2-e3afab6abcc2","[{""page_index"":0,""viewing_time"":2512}]","2512","","",""
