"success","timeout","failed_images","failed_audio","failed_video","trial_type","trial_index","time_elapsed","internal_node_id","subject","subject_id","study_id","session_id","urlvar","current_url","view_history","rt","stimulus","response","choice","question_order"
"true","false","[]","[]","[]","preload","0","300","0.0-0.0","A64FA05027504EC783777416BCA32A81","A64FA05027504EC783777416BCA32A81","63229cee-e3d2-4b94-89f8-3b6fcb5bd864","bea99957-1862-4ad8-9558-57b91e42ce64","{""participantId"":""A64FA05027504EC783777416BCA32A81"",""assignmentId"":""63229cee-e3d2-4b94-89f8-3b6fcb5bd864"",""projectId"":""bea99957-1862-4ad8-9558-57b91e42ce64""}","https://test12345.live/?participantId=A64FA05027504EC783777416BCA32A81&assignmentId=63229cee-e3d2-4b94-89f8-3b6fcb5bd864&projectId=bea99957-1862-4ad8-9558-57b91e42ce64","","","","","",""
"","","","","","instructions","1","4327","0.0-1.0","A64FA05027504EC783777416BCA32A81","A64FA05027504EC783777416BCA32A81","63229cee-e3d2-4b94-89f8-3b6fcb5bd864","bea99957-1862-4ad8-9558-57b91e42ce64","{""participantId"":""A64FA05027504EC783777416BCA32A81"",""assignmentId"":""63229cee-e3d2-4b94-89f8-3b6fcb5bd864"",""projectId"":""bea99957-1862-4ad8-9558-57b91e42ce64""}","https://test12345.live/?participantId=A64FA05027504EC783777416BCA32A81&assignmentId=63229cee-e3d2-4b94-89f8-3b6fcb5bd864&projectId=bea99957-1862-4ad8-9558-57b91e42ce64","[{""page_index"":0,""viewing_time"":4026}]","4026","","","",""
"","","","","","instructions","2","8509","0.0-2.0","A64FA05027504EC783777416BCA32A81","A64FA05027504EC783777416BCA32A81","63229cee-e3d2-4b94-89f8-3b6fcb5bd864","bea99957-1862-4ad8-9558-57b91e42ce64","{""participantId"":""A64FA05027504EC783777416BCA32A81"",""assignmentId"":""63229cee-e3d2-4b94-89f8-3b6fcb5bd864"",""projectId"":""bea99957-1862-4ad8-9558-57b91e42ce64""}","https://test12345.live/?participantId=A64FA05027504EC783777416BCA32A81&assignmentId=63229cee-e3d2-4b94-89f8-3b6fcb5bd864&projectId=bea99957-1862-4ad8-9558-57b91e42ce64","[{""page_index"":0,""viewing_time"":4181}]","4181","","","",""
"true","","","","","fullscreen","3","11432","0.0-3.0","A64FA05027504EC783777416BCA32A81","A64FA05027504EC783777416BCA32A81","63229cee-e3d2-4b94-89f8-3b6fcb5bd864","bea99957-1862-4ad8-9558-57b91e42ce64","{""participantId"":""A64FA05027504EC783777416BCA32A81"",""assignmentId"":""63229cee-e3d2-4b94-89f8-3b6fcb5bd864"",""projectId"":""bea99957-1862-4ad8-9558-57b91e42ce64""}","https://test12345.live/?participantId=A64FA05027504EC783777416BCA32A81&assignmentId=63229cee-e3d2-4b94-89f8-3b6fcb5bd864&projectId=bea99957-1862-4ad8-9558-57b91e42ce64","","1920","","","",""
"","","","","","instructions","4","35805","0.0-4.0","A64FA05027504EC783777416BCA32A81","A64FA05027504EC783777416BCA32A81","63229cee-e3d2-4b94-89f8-3b6fcb5bd864","bea99957-1862-4ad8-9558-57b91e42ce64","{""participantId"":""A64FA05027504EC783777416BCA32A81"",""assignmentId"":""63229cee-e3d2-4b94-89f8-3b6fcb5bd864"",""projectId"":""bea99957-1862-4ad8-9558-57b91e42ce64""}","https://test12345.live/?participantId=A64FA05027504EC783777416BCA32A81&assignmentId=63229cee-e3d2-4b94-89f8-3b6fcb5bd864&projectId=bea99957-1862-4ad8-9558-57b91e42ce64","[{""page_index"":0,""viewing_time"":24373}]","24373","","","",""
"","","","","","html-button-response","5","38922","0.0-5.0","A64FA05027504EC783777416BCA32A81","A64FA05027504EC783777416BCA32A81","63229cee-e3d2-4b94-89f8-3b6fcb5bd864","bea99957-1862-4ad8-9558-57b91e42ce64","{""participantId"":""A64FA05027504EC783777416BCA32A81"",""assignmentId"":""63229cee-e3d2-4b94-89f8-3b6fcb5bd864"",""projectId"":""bea99957-1862-4ad8-9558-57b91e42ce64""}","https://test12345.live/?participantId=A64FA05027504EC783777416BCA32A81&assignmentId=63229cee-e3d2-4b94-89f8-3b6fcb5bd864&projectId=bea99957-1862-4ad8-9558-57b91e42ce64","","3115","
    <div style=""display: flex; justify-content: center; align-items: center;"">
      <img src=""images/red_deck_2.png"" style=""width: 300px; height: 300px; margin-right: 10px;"" />
      <img src=""images/blue_deck_1.png"" style=""width: 300px; height: 300px;"" />
    </div>","0","0",""
"","","","","","html-keyboard-response","6","41934","0.0-7.0-0.0","A64FA05027504EC783777416BCA32A81","A64FA05027504EC783777416BCA32A81","63229cee-e3d2-4b94-89f8-3b6fcb5bd864","bea99957-1862-4ad8-9558-57b91e42ce64","{""participantId"":""A64FA05027504EC783777416BCA32A81"",""assignmentId"":""63229cee-e3d2-4b94-89f8-3b6fcb5bd864"",""projectId"":""bea99957-1862-4ad8-9558-57b91e42ce64""}","https://test12345.live/?participantId=A64FA05027504EC783777416BCA32A81&assignmentId=63229cee-e3d2-4b94-89f8-3b6fcb5bd864&projectId=bea99957-1862-4ad8-9558-57b91e42ce64","","null","<div style=""display: flex; justify-content: center; align-items: center;"">
                    <img src=""images/semantic/semantic_series_15/semantic_series_15_a.jpg"" style=""width: 300px; height: 300px;"" />
                  </div>","null","",""
"","","","","","html-keyboard-response","7","44944","0.0-7.0-1.0","A64FA05027504EC783777416BCA32A81","A64FA05027504EC783777416BCA32A81","63229cee-e3d2-4b94-89f8-3b6fcb5bd864","bea99957-1862-4ad8-9558-57b91e42ce64","{""participantId"":""A64FA05027504EC783777416BCA32A81"",""assignmentId"":""63229cee-e3d2-4b94-89f8-3b6fcb5bd864"",""projectId"":""bea99957-1862-4ad8-9558-57b91e42ce64""}","https://test12345.live/?participantId=A64FA05027504EC783777416BCA32A81&assignmentId=63229cee-e3d2-4b94-89f8-3b6fcb5bd864&projectId=bea99957-1862-4ad8-9558-57b91e42ce64","","null","<div style=""display: flex; justify-content: center; align-items: center;"">
                    <img src=""images/semantic/semantic_series_15/semantic_series_15_b.jpg"" style=""width: 300px; height: 300px;"" />
                  </div>","null","",""
"","","","","","html-keyboard-response","8","47961","0.0-7.0-2.0","A64FA05027504EC783777416BCA32A81","A64FA05027504EC783777416BCA32A81","63229cee-e3d2-4b94-89f8-3b6fcb5bd864","bea99957-1862-4ad8-9558-57b91e42ce64","{""participantId"":""A64FA05027504EC783777416BCA32A81"",""assignmentId"":""63229cee-e3d2-4b94-89f8-3b6fcb5bd864"",""projectId"":""bea99957-1862-4ad8-9558-57b91e42ce64""}","https://test12345.live/?participantId=A64FA05027504EC783777416BCA32A81&assignmentId=63229cee-e3d2-4b94-89f8-3b6fcb5bd864&projectId=bea99957-1862-4ad8-9558-57b91e42ce64","","null","<div style=""display: flex; justify-content: center; align-items: center;"">
                    <img src=""images/semantic/semantic_series_15/semantic_series_15_c.jpg"" style=""width: 300px; height: 300px;"" />
                  </div>","null","",""
"","","","","","html-keyboard-response","9","50981","0.0-7.0-3.0","A64FA05027504EC783777416BCA32A81","A64FA05027504EC783777416BCA32A81","63229cee-e3d2-4b94-89f8-3b6fcb5bd864","bea99957-1862-4ad8-9558-57b91e42ce64","{""participantId"":""A64FA05027504EC783777416BCA32A81"",""assignmentId"":""63229cee-e3d2-4b94-89f8-3b6fcb5bd864"",""projectId"":""bea99957-1862-4ad8-9558-57b91e42ce64""}","https://test12345.live/?participantId=A64FA05027504EC783777416BCA32A81&assignmentId=63229cee-e3d2-4b94-89f8-3b6fcb5bd864&projectId=bea99957-1862-4ad8-9558-57b91e42ce64","","null","<div style=""display: flex; justify-content: center; align-items: center;"">
                    <img src=""images/semantic/semantic_series_15/semantic_series_15_d.jpg"" style=""width: 300px; height: 300px;"" />
                  </div>","null","",""
"","","","","","html-button-response","10","52678","0.0-8.0","A64FA05027504EC783777416BCA32A81","A64FA05027504EC783777416BCA32A81","63229cee-e3d2-4b94-89f8-3b6fcb5bd864","bea99957-1862-4ad8-9558-57b91e42ce64","{""participantId"":""A64FA05027504EC783777416BCA32A81"",""assignmentId"":""63229cee-e3d2-4b94-89f8-3b6fcb5bd864"",""projectId"":""bea99957-1862-4ad8-9558-57b91e42ce64""}","https://test12345.live/?participantId=A64FA05027504EC783777416BCA32A81&assignmentId=63229cee-e3d2-4b94-89f8-3b6fcb5bd864&projectId=bea99957-1862-4ad8-9558-57b91e42ce64","","1697","Was there a person in the picture?","1","",""
"","","","","","survey-likert","11","56297","0.0-9.0","A64FA05027504EC783777416BCA32A81","A64FA05027504EC783777416BCA32A81","63229cee-e3d2-4b94-89f8-3b6fcb5bd864","bea99957-1862-4ad8-9558-57b91e42ce64","{""participantId"":""A64FA05027504EC783777416BCA32A81"",""assignmentId"":""63229cee-e3d2-4b94-89f8-3b6fcb5bd864"",""projectId"":""bea99957-1862-4ad8-9558-57b91e42ce64""}","https://test12345.live/?participantId=A64FA05027504EC783777416BCA32A81&assignmentId=63229cee-e3d2-4b94-89f8-3b6fcb5bd864&projectId=bea99957-1862-4ad8-9558-57b91e42ce64","","3616","","{""Q0"":3}","","[0]"
"","","","","","html-button-response","12","57836","0.0-10.0","A64FA05027504EC783777416BCA32A81","A64FA05027504EC783777416BCA32A81","63229cee-e3d2-4b94-89f8-3b6fcb5bd864","bea99957-1862-4ad8-9558-57b91e42ce64","{""participantId"":""A64FA05027504EC783777416BCA32A81"",""assignmentId"":""63229cee-e3d2-4b94-89f8-3b6fcb5bd864"",""projectId"":""bea99957-1862-4ad8-9558-57b91e42ce64""}","https://test12345.live/?participantId=A64FA05027504EC783777416BCA32A81&assignmentId=63229cee-e3d2-4b94-89f8-3b6fcb5bd864&projectId=bea99957-1862-4ad8-9558-57b91e42ce64","","1538","
    <div style=""display: flex; justify-content: center; align-items: center;"">
      <img src=""images/red_deck_2.png"" style=""width: 300px; height: 300px; margin-right: 10px;"" />
      <img src=""images/blue_deck_1.png"" style=""width: 300px; height: 300px;"" />
    </div>","0","0",""
"","","","","","html-keyboard-response","13","60839","0.0-12.0-0.0","A64FA05027504EC783777416BCA32A81","A64FA05027504EC783777416BCA32A81","63229cee-e3d2-4b94-89f8-3b6fcb5bd864","bea99957-1862-4ad8-9558-57b91e42ce64","{""participantId"":""A64FA05027504EC783777416BCA32A81"",""assignmentId"":""63229cee-e3d2-4b94-89f8-3b6fcb5bd864"",""projectId"":""bea99957-1862-4ad8-9558-57b91e42ce64""}","https://test12345.live/?participantId=A64FA05027504EC783777416BCA32A81&assignmentId=63229cee-e3d2-4b94-89f8-3b6fcb5bd864&projectId=bea99957-1862-4ad8-9558-57b91e42ce64","","null","<div style=""display: flex; justify-content: center; align-items: center;"">
                    <img src=""images/semantic/semantic_series_17/semantic_series_17_a.jpg"" style=""width: 300px; height: 300px;"" />
                  </div>","null","",""
"","","","","","html-keyboard-response","14","63850","0.0-12.0-1.0","A64FA05027504EC783777416BCA32A81","A64FA05027504EC783777416BCA32A81","63229cee-e3d2-4b94-89f8-3b6fcb5bd864","bea99957-1862-4ad8-9558-57b91e42ce64","{""participantId"":""A64FA05027504EC783777416BCA32A81"",""assignmentId"":""63229cee-e3d2-4b94-89f8-3b6fcb5bd864"",""projectId"":""bea99957-1862-4ad8-9558-57b91e42ce64""}","https://test12345.live/?participantId=A64FA05027504EC783777416BCA32A81&assignmentId=63229cee-e3d2-4b94-89f8-3b6fcb5bd864&projectId=bea99957-1862-4ad8-9558-57b91e42ce64","","null","<div style=""display: flex; justify-content: center; align-items: center;"">
                    <img src=""images/semantic/semantic_series_17/semantic_series_17_b.jpg"" style=""width: 300px; height: 300px;"" />
                  </div>","null","",""
"","","","","","html-keyboard-response","15","66864","0.0-12.0-2.0","A64FA05027504EC783777416BCA32A81","A64FA05027504EC783777416BCA32A81","63229cee-e3d2-4b94-89f8-3b6fcb5bd864","bea99957-1862-4ad8-9558-57b91e42ce64","{""participantId"":""A64FA05027504EC783777416BCA32A81"",""assignmentId"":""63229cee-e3d2-4b94-89f8-3b6fcb5bd864"",""projectId"":""bea99957-1862-4ad8-9558-57b91e42ce64""}","https://test12345.live/?participantId=A64FA05027504EC783777416BCA32A81&assignmentId=63229cee-e3d2-4b94-89f8-3b6fcb5bd864&projectId=bea99957-1862-4ad8-9558-57b91e42ce64","","null","<div style=""display: flex; justify-content: center; align-items: center;"">
                    <img src=""images/semantic/semantic_series_17/semantic_series_17_c.jpg"" style=""width: 300px; height: 300px;"" />
                  </div>","null","",""
"","","","","","html-keyboard-response","16","69878","0.0-12.0-3.0","A64FA05027504EC783777416BCA32A81","A64FA05027504EC783777416BCA32A81","63229cee-e3d2-4b94-89f8-3b6fcb5bd864","bea99957-1862-4ad8-9558-57b91e42ce64","{""participantId"":""A64FA05027504EC783777416BCA32A81"",""assignmentId"":""63229cee-e3d2-4b94-89f8-3b6fcb5bd864"",""projectId"":""bea99957-1862-4ad8-9558-57b91e42ce64""}","https://test12345.live/?participantId=A64FA05027504EC783777416BCA32A81&assignmentId=63229cee-e3d2-4b94-89f8-3b6fcb5bd864&projectId=bea99957-1862-4ad8-9558-57b91e42ce64","","null","<div style=""display: flex; justify-content: center; align-items: center;"">
                    <img src=""images/semantic/semantic_series_17/semantic_series_17_d.jpg"" style=""width: 300px; height: 300px;"" />
                  </div>","null","",""
"","","","","","html-button-response","17","71308","0.0-13.0","A64FA05027504EC783777416BCA32A81","A64FA05027504EC783777416BCA32A81","63229cee-e3d2-4b94-89f8-3b6fcb5bd864","bea99957-1862-4ad8-9558-57b91e42ce64","{""participantId"":""A64FA05027504EC783777416BCA32A81"",""assignmentId"":""63229cee-e3d2-4b94-89f8-3b6fcb5bd864"",""projectId"":""bea99957-1862-4ad8-9558-57b91e42ce64""}","https://test12345.live/?participantId=A64FA05027504EC783777416BCA32A81&assignmentId=63229cee-e3d2-4b94-89f8-3b6fcb5bd864&projectId=bea99957-1862-4ad8-9558-57b91e42ce64","","1430","Was there a person in the picture?","0","",""
"","","","","","survey-likert","18","73430","0.0-14.0","A64FA05027504EC783777416BCA32A81","A64FA05027504EC783777416BCA32A81","63229cee-e3d2-4b94-89f8-3b6fcb5bd864","bea99957-1862-4ad8-9558-57b91e42ce64","{""participantId"":""A64FA05027504EC783777416BCA32A81"",""assignmentId"":""63229cee-e3d2-4b94-89f8-3b6fcb5bd864"",""projectId"":""bea99957-1862-4ad8-9558-57b91e42ce64""}","https://test12345.live/?participantId=A64FA05027504EC783777416BCA32A81&assignmentId=63229cee-e3d2-4b94-89f8-3b6fcb5bd864&projectId=bea99957-1862-4ad8-9558-57b91e42ce64","","2121","","{""Q0"":2}","","[0]"
"","","","","","html-button-response","19","74721","0.0-15.0","A64FA05027504EC783777416BCA32A81","A64FA05027504EC783777416BCA32A81","63229cee-e3d2-4b94-89f8-3b6fcb5bd864","bea99957-1862-4ad8-9558-57b91e42ce64","{""participantId"":""A64FA05027504EC783777416BCA32A81"",""assignmentId"":""63229cee-e3d2-4b94-89f8-3b6fcb5bd864"",""projectId"":""bea99957-1862-4ad8-9558-57b91e42ce64""}","https://test12345.live/?participantId=A64FA05027504EC783777416BCA32A81&assignmentId=63229cee-e3d2-4b94-89f8-3b6fcb5bd864&projectId=bea99957-1862-4ad8-9558-57b91e42ce64","","1290","
    <div style=""display: flex; justify-content: center; align-items: center;"">
      <img src=""images/red_deck_2.png"" style=""width: 300px; height: 300px; margin-right: 10px;"" />
      <img src=""images/blue_deck_1.png"" style=""width: 300px; height: 300px;"" />
    </div>","0","0",""
"","","","","","html-keyboard-response","20","77725","0.0-17.0-0.0","A64FA05027504EC783777416BCA32A81","A64FA05027504EC783777416BCA32A81","63229cee-e3d2-4b94-89f8-3b6fcb5bd864","bea99957-1862-4ad8-9558-57b91e42ce64","{""participantId"":""A64FA05027504EC783777416BCA32A81"",""assignmentId"":""63229cee-e3d2-4b94-89f8-3b6fcb5bd864"",""projectId"":""bea99957-1862-4ad8-9558-57b91e42ce64""}","https://test12345.live/?participantId=A64FA05027504EC783777416BCA32A81&assignmentId=63229cee-e3d2-4b94-89f8-3b6fcb5bd864&projectId=bea99957-1862-4ad8-9558-57b91e42ce64","","null","<div style=""display: flex; justify-content: center; align-items: center;"">
                    <img src=""images/semantic/semantic_series_11/semantic_series_11_a.jpg"" style=""width: 300px; height: 300px;"" />
                  </div>","null","",""
"","","","","","html-keyboard-response","21","80733","0.0-17.0-1.0","A64FA05027504EC783777416BCA32A81","A64FA05027504EC783777416BCA32A81","63229cee-e3d2-4b94-89f8-3b6fcb5bd864","bea99957-1862-4ad8-9558-57b91e42ce64","{""participantId"":""A64FA05027504EC783777416BCA32A81"",""assignmentId"":""63229cee-e3d2-4b94-89f8-3b6fcb5bd864"",""projectId"":""bea99957-1862-4ad8-9558-57b91e42ce64""}","https://test12345.live/?participantId=A64FA05027504EC783777416BCA32A81&assignmentId=63229cee-e3d2-4b94-89f8-3b6fcb5bd864&projectId=bea99957-1862-4ad8-9558-57b91e42ce64","","null","<div style=""display: flex; justify-content: center; align-items: center;"">
                    <img src=""images/semantic/semantic_series_11/semantic_series_11_b.jpg"" style=""width: 300px; height: 300px;"" />
                  </div>","null","",""
"","","","","","html-keyboard-response","22","83741","0.0-17.0-2.0","A64FA05027504EC783777416BCA32A81","A64FA05027504EC783777416BCA32A81","63229cee-e3d2-4b94-89f8-3b6fcb5bd864","bea99957-1862-4ad8-9558-57b91e42ce64","{""participantId"":""A64FA05027504EC783777416BCA32A81"",""assignmentId"":""63229cee-e3d2-4b94-89f8-3b6fcb5bd864"",""projectId"":""bea99957-1862-4ad8-9558-57b91e42ce64""}","https://test12345.live/?participantId=A64FA05027504EC783777416BCA32A81&assignmentId=63229cee-e3d2-4b94-89f8-3b6fcb5bd864&projectId=bea99957-1862-4ad8-9558-57b91e42ce64","","null","<div style=""display: flex; justify-content: center; align-items: center;"">
                    <img src=""images/semantic/semantic_series_11/semantic_series_11_c.jpg"" style=""width: 300px; height: 300px;"" />
                  </div>","null","",""
"","","","","","html-keyboard-response","23","86744","0.0-17.0-3.0","A64FA05027504EC783777416BCA32A81","A64FA05027504EC783777416BCA32A81","63229cee-e3d2-4b94-89f8-3b6fcb5bd864","bea99957-1862-4ad8-9558-57b91e42ce64","{""participantId"":""A64FA05027504EC783777416BCA32A81"",""assignmentId"":""63229cee-e3d2-4b94-89f8-3b6fcb5bd864"",""projectId"":""bea99957-1862-4ad8-9558-57b91e42ce64""}","https://test12345.live/?participantId=A64FA05027504EC783777416BCA32A81&assignmentId=63229cee-e3d2-4b94-89f8-3b6fcb5bd864&projectId=bea99957-1862-4ad8-9558-57b91e42ce64","","null","<div style=""display: flex; justify-content: center; align-items: center;"">
                    <img src=""images/semantic/semantic_series_11/semantic_series_11_d.jpg"" style=""width: 300px; height: 300px;"" />
                  </div>","null","",""
"","","","","","html-button-response","24","87697","0.0-18.0","A64FA05027504EC783777416BCA32A81","A64FA05027504EC783777416BCA32A81","63229cee-e3d2-4b94-89f8-3b6fcb5bd864","bea99957-1862-4ad8-9558-57b91e42ce64","{""participantId"":""A64FA05027504EC783777416BCA32A81"",""assignmentId"":""63229cee-e3d2-4b94-89f8-3b6fcb5bd864"",""projectId"":""bea99957-1862-4ad8-9558-57b91e42ce64""}","https://test12345.live/?participantId=A64FA05027504EC783777416BCA32A81&assignmentId=63229cee-e3d2-4b94-89f8-3b6fcb5bd864&projectId=bea99957-1862-4ad8-9558-57b91e42ce64","","953","Was there a person in the picture?","0","",""
"","","","","","survey-likert","25","89506","0.0-19.0","A64FA05027504EC783777416BCA32A81","A64FA05027504EC783777416BCA32A81","63229cee-e3d2-4b94-89f8-3b6fcb5bd864","bea99957-1862-4ad8-9558-57b91e42ce64","{""participantId"":""A64FA05027504EC783777416BCA32A81"",""assignmentId"":""63229cee-e3d2-4b94-89f8-3b6fcb5bd864"",""projectId"":""bea99957-1862-4ad8-9558-57b91e42ce64""}","https://test12345.live/?participantId=A64FA05027504EC783777416BCA32A81&assignmentId=63229cee-e3d2-4b94-89f8-3b6fcb5bd864&projectId=bea99957-1862-4ad8-9558-57b91e42ce64","","1807","","{""Q0"":1}","","[0]"
"","","","","","html-button-response","26","91148","0.0-20.0","A64FA05027504EC783777416BCA32A81","A64FA05027504EC783777416BCA32A81","63229cee-e3d2-4b94-89f8-3b6fcb5bd864","bea99957-1862-4ad8-9558-57b91e42ce64","{""participantId"":""A64FA05027504EC783777416BCA32A81"",""assignmentId"":""63229cee-e3d2-4b94-89f8-3b6fcb5bd864"",""projectId"":""bea99957-1862-4ad8-9558-57b91e42ce64""}","https://test12345.live/?participantId=A64FA05027504EC783777416BCA32A81&assignmentId=63229cee-e3d2-4b94-89f8-3b6fcb5bd864&projectId=bea99957-1862-4ad8-9558-57b91e42ce64","","1641","
    <div style=""display: flex; justify-content: center; align-items: center;"">
      <img src=""images/red_deck_2.png"" style=""width: 300px; height: 300px; margin-right: 10px;"" />
      <img src=""images/blue_deck_1.png"" style=""width: 300px; height: 300px;"" />
    </div>","1","1",""
"","","","","","html-keyboard-response","27","94156","0.0-21.0-0.0","A64FA05027504EC783777416BCA32A81","A64FA05027504EC783777416BCA32A81","63229cee-e3d2-4b94-89f8-3b6fcb5bd864","bea99957-1862-4ad8-9558-57b91e42ce64","{""participantId"":""A64FA05027504EC783777416BCA32A81"",""assignmentId"":""63229cee-e3d2-4b94-89f8-3b6fcb5bd864"",""projectId"":""bea99957-1862-4ad8-9558-57b91e42ce64""}","https://test12345.live/?participantId=A64FA05027504EC783777416BCA32A81&assignmentId=63229cee-e3d2-4b94-89f8-3b6fcb5bd864&projectId=bea99957-1862-4ad8-9558-57b91e42ce64","","null","<div style=""display: flex; justify-content: center; align-items: center;"">
                    <img src=""images/causal/causal_series_8/causal_series_8_a.jpg"" style=""width: 300px; height: 300px;"" />
                  </div>","null","",""
"","","","","","html-keyboard-response","28","97177","0.0-21.0-1.0","A64FA05027504EC783777416BCA32A81","A64FA05027504EC783777416BCA32A81","63229cee-e3d2-4b94-89f8-3b6fcb5bd864","bea99957-1862-4ad8-9558-57b91e42ce64","{""participantId"":""A64FA05027504EC783777416BCA32A81"",""assignmentId"":""63229cee-e3d2-4b94-89f8-3b6fcb5bd864"",""projectId"":""bea99957-1862-4ad8-9558-57b91e42ce64""}","https://test12345.live/?participantId=A64FA05027504EC783777416BCA32A81&assignmentId=63229cee-e3d2-4b94-89f8-3b6fcb5bd864&projectId=bea99957-1862-4ad8-9558-57b91e42ce64","","null","<div style=""display: flex; justify-content: center; align-items: center;"">
                    <img src=""images/causal/causal_series_8/causal_series_8_b.jpg"" style=""width: 300px; height: 300px;"" />
                  </div>","null","",""
"","","","","","html-keyboard-response","29","100190","0.0-21.0-2.0","A64FA05027504EC783777416BCA32A81","A64FA05027504EC783777416BCA32A81","63229cee-e3d2-4b94-89f8-3b6fcb5bd864","bea99957-1862-4ad8-9558-57b91e42ce64","{""participantId"":""A64FA05027504EC783777416BCA32A81"",""assignmentId"":""63229cee-e3d2-4b94-89f8-3b6fcb5bd864"",""projectId"":""bea99957-1862-4ad8-9558-57b91e42ce64""}","https://test12345.live/?participantId=A64FA05027504EC783777416BCA32A81&assignmentId=63229cee-e3d2-4b94-89f8-3b6fcb5bd864&projectId=bea99957-1862-4ad8-9558-57b91e42ce64","","null","<div style=""display: flex; justify-content: center; align-items: center;"">
                    <img src=""images/causal/causal_series_8/causal_series_8_c.jpg"" style=""width: 300px; height: 300px;"" />
                  </div>","null","",""
"","","","","","html-keyboard-response","30","103213","0.0-21.0-3.0","A64FA05027504EC783777416BCA32A81","A64FA05027504EC783777416BCA32A81","63229cee-e3d2-4b94-89f8-3b6fcb5bd864","bea99957-1862-4ad8-9558-57b91e42ce64","{""participantId"":""A64FA05027504EC783777416BCA32A81"",""assignmentId"":""63229cee-e3d2-4b94-89f8-3b6fcb5bd864"",""projectId"":""bea99957-1862-4ad8-9558-57b91e42ce64""}","https://test12345.live/?participantId=A64FA05027504EC783777416BCA32A81&assignmentId=63229cee-e3d2-4b94-89f8-3b6fcb5bd864&projectId=bea99957-1862-4ad8-9558-57b91e42ce64","","null","<div style=""display: flex; justify-content: center; align-items: center;"">
                    <img src=""images/causal/causal_series_8/causal_series_8_d.jpg"" style=""width: 300px; height: 300px;"" />
                  </div>","null","",""
"","","","","","html-button-response","31","105942","0.0-23.0","A64FA05027504EC783777416BCA32A81","A64FA05027504EC783777416BCA32A81","63229cee-e3d2-4b94-89f8-3b6fcb5bd864","bea99957-1862-4ad8-9558-57b91e42ce64","{""participantId"":""A64FA05027504EC783777416BCA32A81"",""assignmentId"":""63229cee-e3d2-4b94-89f8-3b6fcb5bd864"",""projectId"":""bea99957-1862-4ad8-9558-57b91e42ce64""}","https://test12345.live/?participantId=A64FA05027504EC783777416BCA32A81&assignmentId=63229cee-e3d2-4b94-89f8-3b6fcb5bd864&projectId=bea99957-1862-4ad8-9558-57b91e42ce64","","2728","Was there a person in the picture?","0","",""
"","","","","","survey-likert","32","107623","0.0-24.0","A64FA05027504EC783777416BCA32A81","A64FA05027504EC783777416BCA32A81","63229cee-e3d2-4b94-89f8-3b6fcb5bd864","bea99957-1862-4ad8-9558-57b91e42ce64","{""participantId"":""A64FA05027504EC783777416BCA32A81"",""assignmentId"":""63229cee-e3d2-4b94-89f8-3b6fcb5bd864"",""projectId"":""bea99957-1862-4ad8-9558-57b91e42ce64""}","https://test12345.live/?participantId=A64FA05027504EC783777416BCA32A81&assignmentId=63229cee-e3d2-4b94-89f8-3b6fcb5bd864&projectId=bea99957-1862-4ad8-9558-57b91e42ce64","","1680","","{""Q0"":2}","","[0]"
"","","","","","html-button-response","33","108730","0.0-25.0","A64FA05027504EC783777416BCA32A81","A64FA05027504EC783777416BCA32A81","63229cee-e3d2-4b94-89f8-3b6fcb5bd864","bea99957-1862-4ad8-9558-57b91e42ce64","{""participantId"":""A64FA05027504EC783777416BCA32A81"",""assignmentId"":""63229cee-e3d2-4b94-89f8-3b6fcb5bd864"",""projectId"":""bea99957-1862-4ad8-9558-57b91e42ce64""}","https://test12345.live/?participantId=A64FA05027504EC783777416BCA32A81&assignmentId=63229cee-e3d2-4b94-89f8-3b6fcb5bd864&projectId=bea99957-1862-4ad8-9558-57b91e42ce64","","1105","
    <div style=""display: flex; justify-content: center; align-items: center;"">
      <img src=""images/red_deck_2.png"" style=""width: 300px; height: 300px; margin-right: 10px;"" />
      <img src=""images/blue_deck_1.png"" style=""width: 300px; height: 300px;"" />
    </div>","1","1",""
"","","","","","html-keyboard-response","34","111733","0.0-26.0-0.0","A64FA05027504EC783777416BCA32A81","A64FA05027504EC783777416BCA32A81","63229cee-e3d2-4b94-89f8-3b6fcb5bd864","bea99957-1862-4ad8-9558-57b91e42ce64","{""participantId"":""A64FA05027504EC783777416BCA32A81"",""assignmentId"":""63229cee-e3d2-4b94-89f8-3b6fcb5bd864"",""projectId"":""bea99957-1862-4ad8-9558-57b91e42ce64""}","https://test12345.live/?participantId=A64FA05027504EC783777416BCA32A81&assignmentId=63229cee-e3d2-4b94-89f8-3b6fcb5bd864&projectId=bea99957-1862-4ad8-9558-57b91e42ce64","","null","<div style=""display: flex; justify-content: center; align-items: center;"">
                    <img src=""images/causal/causal_series_12/causal_series_12_a.jpg"" style=""width: 300px; height: 300px;"" />
                  </div>","null","",""
"","","","","","html-keyboard-response","35","114742","0.0-26.0-1.0","A64FA05027504EC783777416BCA32A81","A64FA05027504EC783777416BCA32A81","63229cee-e3d2-4b94-89f8-3b6fcb5bd864","bea99957-1862-4ad8-9558-57b91e42ce64","{""participantId"":""A64FA05027504EC783777416BCA32A81"",""assignmentId"":""63229cee-e3d2-4b94-89f8-3b6fcb5bd864"",""projectId"":""bea99957-1862-4ad8-9558-57b91e42ce64""}","https://test12345.live/?participantId=A64FA05027504EC783777416BCA32A81&assignmentId=63229cee-e3d2-4b94-89f8-3b6fcb5bd864&projectId=bea99957-1862-4ad8-9558-57b91e42ce64","","null","<div style=""display: flex; justify-content: center; align-items: center;"">
                    <img src=""images/causal/causal_series_12/causal_series_12_b.jpg"" style=""width: 300px; height: 300px;"" />
                  </div>","null","",""
"","","","","","html-keyboard-response","36","117750","0.0-26.0-2.0","A64FA05027504EC783777416BCA32A81","A64FA05027504EC783777416BCA32A81","63229cee-e3d2-4b94-89f8-3b6fcb5bd864","bea99957-1862-4ad8-9558-57b91e42ce64","{""participantId"":""A64FA05027504EC783777416BCA32A81"",""assignmentId"":""63229cee-e3d2-4b94-89f8-3b6fcb5bd864"",""projectId"":""bea99957-1862-4ad8-9558-57b91e42ce64""}","https://test12345.live/?participantId=A64FA05027504EC783777416BCA32A81&assignmentId=63229cee-e3d2-4b94-89f8-3b6fcb5bd864&projectId=bea99957-1862-4ad8-9558-57b91e42ce64","","null","<div style=""display: flex; justify-content: center; align-items: center;"">
                    <img src=""images/causal/causal_series_12/causal_series_12_c.jpg"" style=""width: 300px; height: 300px;"" />
                  </div>","null","",""
"","","","","","html-keyboard-response","37","120765","0.0-26.0-3.0","A64FA05027504EC783777416BCA32A81","A64FA05027504EC783777416BCA32A81","63229cee-e3d2-4b94-89f8-3b6fcb5bd864","bea99957-1862-4ad8-9558-57b91e42ce64","{""participantId"":""A64FA05027504EC783777416BCA32A81"",""assignmentId"":""63229cee-e3d2-4b94-89f8-3b6fcb5bd864"",""projectId"":""bea99957-1862-4ad8-9558-57b91e42ce64""}","https://test12345.live/?participantId=A64FA05027504EC783777416BCA32A81&assignmentId=63229cee-e3d2-4b94-89f8-3b6fcb5bd864&projectId=bea99957-1862-4ad8-9558-57b91e42ce64","","null","<div style=""display: flex; justify-content: center; align-items: center;"">
                    <img src=""images/causal/causal_series_12/causal_series_12_d.jpg"" style=""width: 300px; height: 300px;"" />
                  </div>","null","",""
"","","","","","html-button-response","38","121781","0.0-28.0","A64FA05027504EC783777416BCA32A81","A64FA05027504EC783777416BCA32A81","63229cee-e3d2-4b94-89f8-3b6fcb5bd864","bea99957-1862-4ad8-9558-57b91e42ce64","{""participantId"":""A64FA05027504EC783777416BCA32A81"",""assignmentId"":""63229cee-e3d2-4b94-89f8-3b6fcb5bd864"",""projectId"":""bea99957-1862-4ad8-9558-57b91e42ce64""}","https://test12345.live/?participantId=A64FA05027504EC783777416BCA32A81&assignmentId=63229cee-e3d2-4b94-89f8-3b6fcb5bd864&projectId=bea99957-1862-4ad8-9558-57b91e42ce64","","1014","Was there a person in the picture?","1","",""
"","","","","","survey-likert","39","124249","0.0-29.0","A64FA05027504EC783777416BCA32A81","A64FA05027504EC783777416BCA32A81","63229cee-e3d2-4b94-89f8-3b6fcb5bd864","bea99957-1862-4ad8-9558-57b91e42ce64","{""participantId"":""A64FA05027504EC783777416BCA32A81"",""assignmentId"":""63229cee-e3d2-4b94-89f8-3b6fcb5bd864"",""projectId"":""bea99957-1862-4ad8-9558-57b91e42ce64""}","https://test12345.live/?participantId=A64FA05027504EC783777416BCA32A81&assignmentId=63229cee-e3d2-4b94-89f8-3b6fcb5bd864&projectId=bea99957-1862-4ad8-9558-57b91e42ce64","","2467","","{""Q0"":2}","","[0]"
"","","","","","html-button-response","40","125323","0.0-30.0","A64FA05027504EC783777416BCA32A81","A64FA05027504EC783777416BCA32A81","63229cee-e3d2-4b94-89f8-3b6fcb5bd864","bea99957-1862-4ad8-9558-57b91e42ce64","{""participantId"":""A64FA05027504EC783777416BCA32A81"",""assignmentId"":""63229cee-e3d2-4b94-89f8-3b6fcb5bd864"",""projectId"":""bea99957-1862-4ad8-9558-57b91e42ce64""}","https://test12345.live/?participantId=A64FA05027504EC783777416BCA32A81&assignmentId=63229cee-e3d2-4b94-89f8-3b6fcb5bd864&projectId=bea99957-1862-4ad8-9558-57b91e42ce64","","1072","
    <div style=""display: flex; justify-content: center; align-items: center;"">
      <img src=""images/red_deck_2.png"" style=""width: 300px; height: 300px; margin-right: 10px;"" />
      <img src=""images/blue_deck_1.png"" style=""width: 300px; height: 300px;"" />
    </div>","0","0",""
"","","","","","html-keyboard-response","41","128341","0.0-32.0-0.0","A64FA05027504EC783777416BCA32A81","A64FA05027504EC783777416BCA32A81","63229cee-e3d2-4b94-89f8-3b6fcb5bd864","bea99957-1862-4ad8-9558-57b91e42ce64","{""participantId"":""A64FA05027504EC783777416BCA32A81"",""assignmentId"":""63229cee-e3d2-4b94-89f8-3b6fcb5bd864"",""projectId"":""bea99957-1862-4ad8-9558-57b91e42ce64""}","https://test12345.live/?participantId=A64FA05027504EC783777416BCA32A81&assignmentId=63229cee-e3d2-4b94-89f8-3b6fcb5bd864&projectId=bea99957-1862-4ad8-9558-57b91e42ce64","","null","<div style=""display: flex; justify-content: center; align-items: center;"">
                    <img src=""images/semantic/semantic_series_8/semantic_series_8_a.jpg"" style=""width: 300px; height: 300px;"" />
                  </div>","null","",""
"","","","","","html-keyboard-response","42","131348","0.0-32.0-1.0","A64FA05027504EC783777416BCA32A81","A64FA05027504EC783777416BCA32A81","63229cee-e3d2-4b94-89f8-3b6fcb5bd864","bea99957-1862-4ad8-9558-57b91e42ce64","{""participantId"":""A64FA05027504EC783777416BCA32A81"",""assignmentId"":""63229cee-e3d2-4b94-89f8-3b6fcb5bd864"",""projectId"":""bea99957-1862-4ad8-9558-57b91e42ce64""}","https://test12345.live/?participantId=A64FA05027504EC783777416BCA32A81&assignmentId=63229cee-e3d2-4b94-89f8-3b6fcb5bd864&projectId=bea99957-1862-4ad8-9558-57b91e42ce64","","null","<div style=""display: flex; justify-content: center; align-items: center;"">
                    <img src=""images/semantic/semantic_series_8/semantic_series_8_b.jpg"" style=""width: 300px; height: 300px;"" />
                  </div>","null","",""
"","","","","","html-keyboard-response","43","134354","0.0-32.0-2.0","A64FA05027504EC783777416BCA32A81","A64FA05027504EC783777416BCA32A81","63229cee-e3d2-4b94-89f8-3b6fcb5bd864","bea99957-1862-4ad8-9558-57b91e42ce64","{""participantId"":""A64FA05027504EC783777416BCA32A81"",""assignmentId"":""63229cee-e3d2-4b94-89f8-3b6fcb5bd864"",""projectId"":""bea99957-1862-4ad8-9558-57b91e42ce64""}","https://test12345.live/?participantId=A64FA05027504EC783777416BCA32A81&assignmentId=63229cee-e3d2-4b94-89f8-3b6fcb5bd864&projectId=bea99957-1862-4ad8-9558-57b91e42ce64","","null","<div style=""display: flex; justify-content: center; align-items: center;"">
                    <img src=""images/semantic/semantic_series_8/semantic_series_8_c.jpg"" style=""width: 300px; height: 300px;"" />
                  </div>","null","",""
"","","","","","html-keyboard-response","44","137358","0.0-32.0-3.0","A64FA05027504EC783777416BCA32A81","A64FA05027504EC783777416BCA32A81","63229cee-e3d2-4b94-89f8-3b6fcb5bd864","bea99957-1862-4ad8-9558-57b91e42ce64","{""participantId"":""A64FA05027504EC783777416BCA32A81"",""assignmentId"":""63229cee-e3d2-4b94-89f8-3b6fcb5bd864"",""projectId"":""bea99957-1862-4ad8-9558-57b91e42ce64""}","https://test12345.live/?participantId=A64FA05027504EC783777416BCA32A81&assignmentId=63229cee-e3d2-4b94-89f8-3b6fcb5bd864&projectId=bea99957-1862-4ad8-9558-57b91e42ce64","","null","<div style=""display: flex; justify-content: center; align-items: center;"">
                    <img src=""images/semantic/semantic_series_8/semantic_series_8_d.jpg"" style=""width: 300px; height: 300px;"" />
                  </div>","null","",""
"","","","","","html-button-response","45","138599","0.0-33.0","A64FA05027504EC783777416BCA32A81","A64FA05027504EC783777416BCA32A81","63229cee-e3d2-4b94-89f8-3b6fcb5bd864","bea99957-1862-4ad8-9558-57b91e42ce64","{""participantId"":""A64FA05027504EC783777416BCA32A81"",""assignmentId"":""63229cee-e3d2-4b94-89f8-3b6fcb5bd864"",""projectId"":""bea99957-1862-4ad8-9558-57b91e42ce64""}","https://test12345.live/?participantId=A64FA05027504EC783777416BCA32A81&assignmentId=63229cee-e3d2-4b94-89f8-3b6fcb5bd864&projectId=bea99957-1862-4ad8-9558-57b91e42ce64","","1239","Was there a person in the picture?","1","",""
"","","","","","survey-likert","46","140647","0.0-34.0","A64FA05027504EC783777416BCA32A81","A64FA05027504EC783777416BCA32A81","63229cee-e3d2-4b94-89f8-3b6fcb5bd864","bea99957-1862-4ad8-9558-57b91e42ce64","{""participantId"":""A64FA05027504EC783777416BCA32A81"",""assignmentId"":""63229cee-e3d2-4b94-89f8-3b6fcb5bd864"",""projectId"":""bea99957-1862-4ad8-9558-57b91e42ce64""}","https://test12345.live/?participantId=A64FA05027504EC783777416BCA32A81&assignmentId=63229cee-e3d2-4b94-89f8-3b6fcb5bd864&projectId=bea99957-1862-4ad8-9558-57b91e42ce64","","2046","","{""Q0"":2}","","[0]"
"","","","","","html-button-response","47","141898","0.0-35.0","A64FA05027504EC783777416BCA32A81","A64FA05027504EC783777416BCA32A81","63229cee-e3d2-4b94-89f8-3b6fcb5bd864","bea99957-1862-4ad8-9558-57b91e42ce64","{""participantId"":""A64FA05027504EC783777416BCA32A81"",""assignmentId"":""63229cee-e3d2-4b94-89f8-3b6fcb5bd864"",""projectId"":""bea99957-1862-4ad8-9558-57b91e42ce64""}","https://test12345.live/?participantId=A64FA05027504EC783777416BCA32A81&assignmentId=63229cee-e3d2-4b94-89f8-3b6fcb5bd864&projectId=bea99957-1862-4ad8-9558-57b91e42ce64","","1250","
    <div style=""display: flex; justify-content: center; align-items: center;"">
      <img src=""images/red_deck_2.png"" style=""width: 300px; height: 300px; margin-right: 10px;"" />
      <img src=""images/blue_deck_1.png"" style=""width: 300px; height: 300px;"" />
    </div>","0","0",""
"","","","","","html-keyboard-response","48","144916","0.0-37.0-0.0","A64FA05027504EC783777416BCA32A81","A64FA05027504EC783777416BCA32A81","63229cee-e3d2-4b94-89f8-3b6fcb5bd864","bea99957-1862-4ad8-9558-57b91e42ce64","{""participantId"":""A64FA05027504EC783777416BCA32A81"",""assignmentId"":""63229cee-e3d2-4b94-89f8-3b6fcb5bd864"",""projectId"":""bea99957-1862-4ad8-9558-57b91e42ce64""}","https://test12345.live/?participantId=A64FA05027504EC783777416BCA32A81&assignmentId=63229cee-e3d2-4b94-89f8-3b6fcb5bd864&projectId=bea99957-1862-4ad8-9558-57b91e42ce64","","null","<div style=""display: flex; justify-content: center; align-items: center;"">
                    <img src=""images/semantic/semantic_series_6/semantic_series_6_a.jpg"" style=""width: 300px; height: 300px;"" />
                  </div>","null","",""
"","","","","","html-keyboard-response","49","147932","0.0-37.0-1.0","A64FA05027504EC783777416BCA32A81","A64FA05027504EC783777416BCA32A81","63229cee-e3d2-4b94-89f8-3b6fcb5bd864","bea99957-1862-4ad8-9558-57b91e42ce64","{""participantId"":""A64FA05027504EC783777416BCA32A81"",""assignmentId"":""63229cee-e3d2-4b94-89f8-3b6fcb5bd864"",""projectId"":""bea99957-1862-4ad8-9558-57b91e42ce64""}","https://test12345.live/?participantId=A64FA05027504EC783777416BCA32A81&assignmentId=63229cee-e3d2-4b94-89f8-3b6fcb5bd864&projectId=bea99957-1862-4ad8-9558-57b91e42ce64","","null","<div style=""display: flex; justify-content: center; align-items: center;"">
                    <img src=""images/semantic/semantic_series_6/semantic_series_6_b.jpg"" style=""width: 300px; height: 300px;"" />
                  </div>","null","",""
"","","","","","html-keyboard-response","50","150950","0.0-37.0-2.0","A64FA05027504EC783777416BCA32A81","A64FA05027504EC783777416BCA32A81","63229cee-e3d2-4b94-89f8-3b6fcb5bd864","bea99957-1862-4ad8-9558-57b91e42ce64","{""participantId"":""A64FA05027504EC783777416BCA32A81"",""assignmentId"":""63229cee-e3d2-4b94-89f8-3b6fcb5bd864"",""projectId"":""bea99957-1862-4ad8-9558-57b91e42ce64""}","https://test12345.live/?participantId=A64FA05027504EC783777416BCA32A81&assignmentId=63229cee-e3d2-4b94-89f8-3b6fcb5bd864&projectId=bea99957-1862-4ad8-9558-57b91e42ce64","","null","<div style=""display: flex; justify-content: center; align-items: center;"">
                    <img src=""images/semantic/semantic_series_6/semantic_series_6_c.jpg"" style=""width: 300px; height: 300px;"" />
                  </div>","null","",""
"","","","","","html-keyboard-response","51","153960","0.0-37.0-3.0","A64FA05027504EC783777416BCA32A81","A64FA05027504EC783777416BCA32A81","63229cee-e3d2-4b94-89f8-3b6fcb5bd864","bea99957-1862-4ad8-9558-57b91e42ce64","{""participantId"":""A64FA05027504EC783777416BCA32A81"",""assignmentId"":""63229cee-e3d2-4b94-89f8-3b6fcb5bd864"",""projectId"":""bea99957-1862-4ad8-9558-57b91e42ce64""}","https://test12345.live/?participantId=A64FA05027504EC783777416BCA32A81&assignmentId=63229cee-e3d2-4b94-89f8-3b6fcb5bd864&projectId=bea99957-1862-4ad8-9558-57b91e42ce64","","null","<div style=""display: flex; justify-content: center; align-items: center;"">
                    <img src=""images/semantic/semantic_series_6/semantic_series_6_d.jpg"" style=""width: 300px; height: 300px;"" />
                  </div>","null","",""
"","","","","","html-button-response","52","155551","0.0-38.0","A64FA05027504EC783777416BCA32A81","A64FA05027504EC783777416BCA32A81","63229cee-e3d2-4b94-89f8-3b6fcb5bd864","bea99957-1862-4ad8-9558-57b91e42ce64","{""participantId"":""A64FA05027504EC783777416BCA32A81"",""assignmentId"":""63229cee-e3d2-4b94-89f8-3b6fcb5bd864"",""projectId"":""bea99957-1862-4ad8-9558-57b91e42ce64""}","https://test12345.live/?participantId=A64FA05027504EC783777416BCA32A81&assignmentId=63229cee-e3d2-4b94-89f8-3b6fcb5bd864&projectId=bea99957-1862-4ad8-9558-57b91e42ce64","","1589","Was there a person in the picture?","1","",""
"","","","","","survey-likert","53","157346","0.0-39.0","A64FA05027504EC783777416BCA32A81","A64FA05027504EC783777416BCA32A81","63229cee-e3d2-4b94-89f8-3b6fcb5bd864","bea99957-1862-4ad8-9558-57b91e42ce64","{""participantId"":""A64FA05027504EC783777416BCA32A81"",""assignmentId"":""63229cee-e3d2-4b94-89f8-3b6fcb5bd864"",""projectId"":""bea99957-1862-4ad8-9558-57b91e42ce64""}","https://test12345.live/?participantId=A64FA05027504EC783777416BCA32A81&assignmentId=63229cee-e3d2-4b94-89f8-3b6fcb5bd864&projectId=bea99957-1862-4ad8-9558-57b91e42ce64","","1794","","{""Q0"":1}","","[0]"
"","","","","","html-button-response","54","159476","0.0-40.0","A64FA05027504EC783777416BCA32A81","A64FA05027504EC783777416BCA32A81","63229cee-e3d2-4b94-89f8-3b6fcb5bd864","bea99957-1862-4ad8-9558-57b91e42ce64","{""participantId"":""A64FA05027504EC783777416BCA32A81"",""assignmentId"":""63229cee-e3d2-4b94-89f8-3b6fcb5bd864"",""projectId"":""bea99957-1862-4ad8-9558-57b91e42ce64""}","https://test12345.live/?participantId=A64FA05027504EC783777416BCA32A81&assignmentId=63229cee-e3d2-4b94-89f8-3b6fcb5bd864&projectId=bea99957-1862-4ad8-9558-57b91e42ce64","","2128","
    <div style=""display: flex; justify-content: center; align-items: center;"">
      <img src=""images/red_deck_2.png"" style=""width: 300px; height: 300px; margin-right: 10px;"" />
      <img src=""images/blue_deck_1.png"" style=""width: 300px; height: 300px;"" />
    </div>","0","0",""
"","","","","","html-keyboard-response","55","162491","0.0-42.0-0.0","A64FA05027504EC783777416BCA32A81","A64FA05027504EC783777416BCA32A81","63229cee-e3d2-4b94-89f8-3b6fcb5bd864","bea99957-1862-4ad8-9558-57b91e42ce64","{""participantId"":""A64FA05027504EC783777416BCA32A81"",""assignmentId"":""63229cee-e3d2-4b94-89f8-3b6fcb5bd864"",""projectId"":""bea99957-1862-4ad8-9558-57b91e42ce64""}","https://test12345.live/?participantId=A64FA05027504EC783777416BCA32A81&assignmentId=63229cee-e3d2-4b94-89f8-3b6fcb5bd864&projectId=bea99957-1862-4ad8-9558-57b91e42ce64","","null","<div style=""display: flex; justify-content: center; align-items: center;"">
                    <img src=""images/semantic/semantic_series_5/semantic_series_5_a.jpg"" style=""width: 300px; height: 300px;"" />
                  </div>","null","",""
"","","","","","html-keyboard-response","56","165498","0.0-42.0-1.0","A64FA05027504EC783777416BCA32A81","A64FA05027504EC783777416BCA32A81","63229cee-e3d2-4b94-89f8-3b6fcb5bd864","bea99957-1862-4ad8-9558-57b91e42ce64","{""participantId"":""A64FA05027504EC783777416BCA32A81"",""assignmentId"":""63229cee-e3d2-4b94-89f8-3b6fcb5bd864"",""projectId"":""bea99957-1862-4ad8-9558-57b91e42ce64""}","https://test12345.live/?participantId=A64FA05027504EC783777416BCA32A81&assignmentId=63229cee-e3d2-4b94-89f8-3b6fcb5bd864&projectId=bea99957-1862-4ad8-9558-57b91e42ce64","","null","<div style=""display: flex; justify-content: center; align-items: center;"">
                    <img src=""images/semantic/semantic_series_5/semantic_series_5_b.jpg"" style=""width: 300px; height: 300px;"" />
                  </div>","null","",""
"","","","","","html-keyboard-response","57","168509","0.0-42.0-2.0","A64FA05027504EC783777416BCA32A81","A64FA05027504EC783777416BCA32A81","63229cee-e3d2-4b94-89f8-3b6fcb5bd864","bea99957-1862-4ad8-9558-57b91e42ce64","{""participantId"":""A64FA05027504EC783777416BCA32A81"",""assignmentId"":""63229cee-e3d2-4b94-89f8-3b6fcb5bd864"",""projectId"":""bea99957-1862-4ad8-9558-57b91e42ce64""}","https://test12345.live/?participantId=A64FA05027504EC783777416BCA32A81&assignmentId=63229cee-e3d2-4b94-89f8-3b6fcb5bd864&projectId=bea99957-1862-4ad8-9558-57b91e42ce64","","null","<div style=""display: flex; justify-content: center; align-items: center;"">
                    <img src=""images/semantic/semantic_series_5/semantic_series_5_c.jpg"" style=""width: 300px; height: 300px;"" />
                  </div>","null","",""
"","","","","","html-keyboard-response","58","171513","0.0-42.0-3.0","A64FA05027504EC783777416BCA32A81","A64FA05027504EC783777416BCA32A81","63229cee-e3d2-4b94-89f8-3b6fcb5bd864","bea99957-1862-4ad8-9558-57b91e42ce64","{""participantId"":""A64FA05027504EC783777416BCA32A81"",""assignmentId"":""63229cee-e3d2-4b94-89f8-3b6fcb5bd864"",""projectId"":""bea99957-1862-4ad8-9558-57b91e42ce64""}","https://test12345.live/?participantId=A64FA05027504EC783777416BCA32A81&assignmentId=63229cee-e3d2-4b94-89f8-3b6fcb5bd864&projectId=bea99957-1862-4ad8-9558-57b91e42ce64","","null","<div style=""display: flex; justify-content: center; align-items: center;"">
                    <img src=""images/semantic/semantic_series_5/semantic_series_5_d.jpg"" style=""width: 300px; height: 300px;"" />
                  </div>","null","",""
"","","","","","html-button-response","59","173429","0.0-43.0","A64FA05027504EC783777416BCA32A81","A64FA05027504EC783777416BCA32A81","63229cee-e3d2-4b94-89f8-3b6fcb5bd864","bea99957-1862-4ad8-9558-57b91e42ce64","{""participantId"":""A64FA05027504EC783777416BCA32A81"",""assignmentId"":""63229cee-e3d2-4b94-89f8-3b6fcb5bd864"",""projectId"":""bea99957-1862-4ad8-9558-57b91e42ce64""}","https://test12345.live/?participantId=A64FA05027504EC783777416BCA32A81&assignmentId=63229cee-e3d2-4b94-89f8-3b6fcb5bd864&projectId=bea99957-1862-4ad8-9558-57b91e42ce64","","1915","Was there a person in the picture?","0","",""
"","","","","","survey-likert","60","175757","0.0-44.0","A64FA05027504EC783777416BCA32A81","A64FA05027504EC783777416BCA32A81","63229cee-e3d2-4b94-89f8-3b6fcb5bd864","bea99957-1862-4ad8-9558-57b91e42ce64","{""participantId"":""A64FA05027504EC783777416BCA32A81"",""assignmentId"":""63229cee-e3d2-4b94-89f8-3b6fcb5bd864"",""projectId"":""bea99957-1862-4ad8-9558-57b91e42ce64""}","https://test12345.live/?participantId=A64FA05027504EC783777416BCA32A81&assignmentId=63229cee-e3d2-4b94-89f8-3b6fcb5bd864&projectId=bea99957-1862-4ad8-9558-57b91e42ce64","","2326","","{""Q0"":1}","","[0]"
"","","","","","html-button-response","61","178493","0.0-45.0","A64FA05027504EC783777416BCA32A81","A64FA05027504EC783777416BCA32A81","63229cee-e3d2-4b94-89f8-3b6fcb5bd864","bea99957-1862-4ad8-9558-57b91e42ce64","{""participantId"":""A64FA05027504EC783777416BCA32A81"",""assignmentId"":""63229cee-e3d2-4b94-89f8-3b6fcb5bd864"",""projectId"":""bea99957-1862-4ad8-9558-57b91e42ce64""}","https://test12345.live/?participantId=A64FA05027504EC783777416BCA32A81&assignmentId=63229cee-e3d2-4b94-89f8-3b6fcb5bd864&projectId=bea99957-1862-4ad8-9558-57b91e42ce64","","2735","
    <div style=""display: flex; justify-content: center; align-items: center;"">
      <img src=""images/red_deck_2.png"" style=""width: 300px; height: 300px; margin-right: 10px;"" />
      <img src=""images/blue_deck_1.png"" style=""width: 300px; height: 300px;"" />
    </div>","0","0",""
"","","","","","html-keyboard-response","62","181504","0.0-47.0-0.0","A64FA05027504EC783777416BCA32A81","A64FA05027504EC783777416BCA32A81","63229cee-e3d2-4b94-89f8-3b6fcb5bd864","bea99957-1862-4ad8-9558-57b91e42ce64","{""participantId"":""A64FA05027504EC783777416BCA32A81"",""assignmentId"":""63229cee-e3d2-4b94-89f8-3b6fcb5bd864"",""projectId"":""bea99957-1862-4ad8-9558-57b91e42ce64""}","https://test12345.live/?participantId=A64FA05027504EC783777416BCA32A81&assignmentId=63229cee-e3d2-4b94-89f8-3b6fcb5bd864&projectId=bea99957-1862-4ad8-9558-57b91e42ce64","","null","<div style=""display: flex; justify-content: center; align-items: center;"">
                    <img src=""images/semantic/semantic_series_3/semantic_series_3_a.jpg"" style=""width: 300px; height: 300px;"" />
                  </div>","null","",""
"","","","","","html-keyboard-response","63","184517","0.0-47.0-1.0","A64FA05027504EC783777416BCA32A81","A64FA05027504EC783777416BCA32A81","63229cee-e3d2-4b94-89f8-3b6fcb5bd864","bea99957-1862-4ad8-9558-57b91e42ce64","{""participantId"":""A64FA05027504EC783777416BCA32A81"",""assignmentId"":""63229cee-e3d2-4b94-89f8-3b6fcb5bd864"",""projectId"":""bea99957-1862-4ad8-9558-57b91e42ce64""}","https://test12345.live/?participantId=A64FA05027504EC783777416BCA32A81&assignmentId=63229cee-e3d2-4b94-89f8-3b6fcb5bd864&projectId=bea99957-1862-4ad8-9558-57b91e42ce64","","null","<div style=""display: flex; justify-content: center; align-items: center;"">
                    <img src=""images/semantic/semantic_series_3/semantic_series_3_b.jpg"" style=""width: 300px; height: 300px;"" />
                  </div>","null","",""
"","","","","","html-keyboard-response","64","187531","0.0-47.0-2.0","A64FA05027504EC783777416BCA32A81","A64FA05027504EC783777416BCA32A81","63229cee-e3d2-4b94-89f8-3b6fcb5bd864","bea99957-1862-4ad8-9558-57b91e42ce64","{""participantId"":""A64FA05027504EC783777416BCA32A81"",""assignmentId"":""63229cee-e3d2-4b94-89f8-3b6fcb5bd864"",""projectId"":""bea99957-1862-4ad8-9558-57b91e42ce64""}","https://test12345.live/?participantId=A64FA05027504EC783777416BCA32A81&assignmentId=63229cee-e3d2-4b94-89f8-3b6fcb5bd864&projectId=bea99957-1862-4ad8-9558-57b91e42ce64","","null","<div style=""display: flex; justify-content: center; align-items: center;"">
                    <img src=""images/semantic/semantic_series_3/semantic_series_3_c.jpg"" style=""width: 300px; height: 300px;"" />
                  </div>","null","",""
"","","","","","html-keyboard-response","65","190555","0.0-47.0-3.0","A64FA05027504EC783777416BCA32A81","A64FA05027504EC783777416BCA32A81","63229cee-e3d2-4b94-89f8-3b6fcb5bd864","bea99957-1862-4ad8-9558-57b91e42ce64","{""participantId"":""A64FA05027504EC783777416BCA32A81"",""assignmentId"":""63229cee-e3d2-4b94-89f8-3b6fcb5bd864"",""projectId"":""bea99957-1862-4ad8-9558-57b91e42ce64""}","https://test12345.live/?participantId=A64FA05027504EC783777416BCA32A81&assignmentId=63229cee-e3d2-4b94-89f8-3b6fcb5bd864&projectId=bea99957-1862-4ad8-9558-57b91e42ce64","","null","<div style=""display: flex; justify-content: center; align-items: center;"">
                    <img src=""images/semantic/semantic_series_3/semantic_series_3_d.jpg"" style=""width: 300px; height: 300px;"" />
                  </div>","null","",""
"","","","","","html-button-response","66","191890","0.0-48.0","A64FA05027504EC783777416BCA32A81","A64FA05027504EC783777416BCA32A81","63229cee-e3d2-4b94-89f8-3b6fcb5bd864","bea99957-1862-4ad8-9558-57b91e42ce64","{""participantId"":""A64FA05027504EC783777416BCA32A81"",""assignmentId"":""63229cee-e3d2-4b94-89f8-3b6fcb5bd864"",""projectId"":""bea99957-1862-4ad8-9558-57b91e42ce64""}","https://test12345.live/?participantId=A64FA05027504EC783777416BCA32A81&assignmentId=63229cee-e3d2-4b94-89f8-3b6fcb5bd864&projectId=bea99957-1862-4ad8-9558-57b91e42ce64","","1335","Was there a person in the picture?","0","",""
"","","","","","survey-likert","67","193429","0.0-49.0","A64FA05027504EC783777416BCA32A81","A64FA05027504EC783777416BCA32A81","63229cee-e3d2-4b94-89f8-3b6fcb5bd864","bea99957-1862-4ad8-9558-57b91e42ce64","{""participantId"":""A64FA05027504EC783777416BCA32A81"",""assignmentId"":""63229cee-e3d2-4b94-89f8-3b6fcb5bd864"",""projectId"":""bea99957-1862-4ad8-9558-57b91e42ce64""}","https://test12345.live/?participantId=A64FA05027504EC783777416BCA32A81&assignmentId=63229cee-e3d2-4b94-89f8-3b6fcb5bd864&projectId=bea99957-1862-4ad8-9558-57b91e42ce64","","1537","","{""Q0"":2}","","[0]"
"","","","","","html-button-response","68","194202","0.0-50.0","A64FA05027504EC783777416BCA32A81","A64FA05027504EC783777416BCA32A81","63229cee-e3d2-4b94-89f8-3b6fcb5bd864","bea99957-1862-4ad8-9558-57b91e42ce64","{""participantId"":""A64FA05027504EC783777416BCA32A81"",""assignmentId"":""63229cee-e3d2-4b94-89f8-3b6fcb5bd864"",""projectId"":""bea99957-1862-4ad8-9558-57b91e42ce64""}","https://test12345.live/?participantId=A64FA05027504EC783777416BCA32A81&assignmentId=63229cee-e3d2-4b94-89f8-3b6fcb5bd864&projectId=bea99957-1862-4ad8-9558-57b91e42ce64","","771","
    <div style=""display: flex; justify-content: center; align-items: center;"">
      <img src=""images/red_deck_2.png"" style=""width: 300px; height: 300px; margin-right: 10px;"" />
      <img src=""images/blue_deck_1.png"" style=""width: 300px; height: 300px;"" />
    </div>","1","1",""
"","","","","","html-keyboard-response","69","197217","0.0-51.0-0.0","A64FA05027504EC783777416BCA32A81","A64FA05027504EC783777416BCA32A81","63229cee-e3d2-4b94-89f8-3b6fcb5bd864","bea99957-1862-4ad8-9558-57b91e42ce64","{""participantId"":""A64FA05027504EC783777416BCA32A81"",""assignmentId"":""63229cee-e3d2-4b94-89f8-3b6fcb5bd864"",""projectId"":""bea99957-1862-4ad8-9558-57b91e42ce64""}","https://test12345.live/?participantId=A64FA05027504EC783777416BCA32A81&assignmentId=63229cee-e3d2-4b94-89f8-3b6fcb5bd864&projectId=bea99957-1862-4ad8-9558-57b91e42ce64","","null","<div style=""display: flex; justify-content: center; align-items: center;"">
                    <img src=""images/causal/causal_series_14/causal_series_14_a.jpg"" style=""width: 300px; height: 300px;"" />
                  </div>","null","",""
"","","","","","html-keyboard-response","70","200225","0.0-51.0-1.0","A64FA05027504EC783777416BCA32A81","A64FA05027504EC783777416BCA32A81","63229cee-e3d2-4b94-89f8-3b6fcb5bd864","bea99957-1862-4ad8-9558-57b91e42ce64","{""participantId"":""A64FA05027504EC783777416BCA32A81"",""assignmentId"":""63229cee-e3d2-4b94-89f8-3b6fcb5bd864"",""projectId"":""bea99957-1862-4ad8-9558-57b91e42ce64""}","https://test12345.live/?participantId=A64FA05027504EC783777416BCA32A81&assignmentId=63229cee-e3d2-4b94-89f8-3b6fcb5bd864&projectId=bea99957-1862-4ad8-9558-57b91e42ce64","","null","<div style=""display: flex; justify-content: center; align-items: center;"">
                    <img src=""images/causal/causal_series_14/causal_series_14_b.jpg"" style=""width: 300px; height: 300px;"" />
                  </div>","null","",""
"","","","","","html-keyboard-response","71","203232","0.0-51.0-2.0","A64FA05027504EC783777416BCA32A81","A64FA05027504EC783777416BCA32A81","63229cee-e3d2-4b94-89f8-3b6fcb5bd864","bea99957-1862-4ad8-9558-57b91e42ce64","{""participantId"":""A64FA05027504EC783777416BCA32A81"",""assignmentId"":""63229cee-e3d2-4b94-89f8-3b6fcb5bd864"",""projectId"":""bea99957-1862-4ad8-9558-57b91e42ce64""}","https://test12345.live/?participantId=A64FA05027504EC783777416BCA32A81&assignmentId=63229cee-e3d2-4b94-89f8-3b6fcb5bd864&projectId=bea99957-1862-4ad8-9558-57b91e42ce64","","null","<div style=""display: flex; justify-content: center; align-items: center;"">
                    <img src=""images/causal/causal_series_14/causal_series_14_c.jpg"" style=""width: 300px; height: 300px;"" />
                  </div>","null","",""
"","","","","","html-keyboard-response","72","206240","0.0-51.0-3.0","A64FA05027504EC783777416BCA32A81","A64FA05027504EC783777416BCA32A81","63229cee-e3d2-4b94-89f8-3b6fcb5bd864","bea99957-1862-4ad8-9558-57b91e42ce64","{""participantId"":""A64FA05027504EC783777416BCA32A81"",""assignmentId"":""63229cee-e3d2-4b94-89f8-3b6fcb5bd864"",""projectId"":""bea99957-1862-4ad8-9558-57b91e42ce64""}","https://test12345.live/?participantId=A64FA05027504EC783777416BCA32A81&assignmentId=63229cee-e3d2-4b94-89f8-3b6fcb5bd864&projectId=bea99957-1862-4ad8-9558-57b91e42ce64","","null","<div style=""display: flex; justify-content: center; align-items: center;"">
                    <img src=""images/causal/causal_series_14/causal_series_14_d.jpg"" style=""width: 300px; height: 300px;"" />
                  </div>","null","",""
"","","","","","html-button-response","73","207418","0.0-53.0","A64FA05027504EC783777416BCA32A81","A64FA05027504EC783777416BCA32A81","63229cee-e3d2-4b94-89f8-3b6fcb5bd864","bea99957-1862-4ad8-9558-57b91e42ce64","{""participantId"":""A64FA05027504EC783777416BCA32A81"",""assignmentId"":""63229cee-e3d2-4b94-89f8-3b6fcb5bd864"",""projectId"":""bea99957-1862-4ad8-9558-57b91e42ce64""}","https://test12345.live/?participantId=A64FA05027504EC783777416BCA32A81&assignmentId=63229cee-e3d2-4b94-89f8-3b6fcb5bd864&projectId=bea99957-1862-4ad8-9558-57b91e42ce64","","1176","Was there a person in the picture?","0","",""
"","","","","","survey-likert","74","209005","0.0-54.0","A64FA05027504EC783777416BCA32A81","A64FA05027504EC783777416BCA32A81","63229cee-e3d2-4b94-89f8-3b6fcb5bd864","bea99957-1862-4ad8-9558-57b91e42ce64","{""participantId"":""A64FA05027504EC783777416BCA32A81"",""assignmentId"":""63229cee-e3d2-4b94-89f8-3b6fcb5bd864"",""projectId"":""bea99957-1862-4ad8-9558-57b91e42ce64""}","https://test12345.live/?participantId=A64FA05027504EC783777416BCA32A81&assignmentId=63229cee-e3d2-4b94-89f8-3b6fcb5bd864&projectId=bea99957-1862-4ad8-9558-57b91e42ce64","","1586","","{""Q0"":1}","","[0]"
"","","","","","html-button-response","75","209900","0.0-55.0","A64FA05027504EC783777416BCA32A81","A64FA05027504EC783777416BCA32A81","63229cee-e3d2-4b94-89f8-3b6fcb5bd864","bea99957-1862-4ad8-9558-57b91e42ce64","{""participantId"":""A64FA05027504EC783777416BCA32A81"",""assignmentId"":""63229cee-e3d2-4b94-89f8-3b6fcb5bd864"",""projectId"":""bea99957-1862-4ad8-9558-57b91e42ce64""}","https://test12345.live/?participantId=A64FA05027504EC783777416BCA32A81&assignmentId=63229cee-e3d2-4b94-89f8-3b6fcb5bd864&projectId=bea99957-1862-4ad8-9558-57b91e42ce64","","893","
    <div style=""display: flex; justify-content: center; align-items: center;"">
      <img src=""images/red_deck_2.png"" style=""width: 300px; height: 300px; margin-right: 10px;"" />
      <img src=""images/blue_deck_1.png"" style=""width: 300px; height: 300px;"" />
    </div>","0","0",""
"","","","","","html-keyboard-response","76","212915","0.0-57.0-0.0","A64FA05027504EC783777416BCA32A81","A64FA05027504EC783777416BCA32A81","63229cee-e3d2-4b94-89f8-3b6fcb5bd864","bea99957-1862-4ad8-9558-57b91e42ce64","{""participantId"":""A64FA05027504EC783777416BCA32A81"",""assignmentId"":""63229cee-e3d2-4b94-89f8-3b6fcb5bd864"",""projectId"":""bea99957-1862-4ad8-9558-57b91e42ce64""}","https://test12345.live/?participantId=A64FA05027504EC783777416BCA32A81&assignmentId=63229cee-e3d2-4b94-89f8-3b6fcb5bd864&projectId=bea99957-1862-4ad8-9558-57b91e42ce64","","null","<div style=""display: flex; justify-content: center; align-items: center;"">
                    <img src=""images/semantic/semantic_series_16/semantic_series_16_a.jpg"" style=""width: 300px; height: 300px;"" />
                  </div>","null","",""
"","","","","","html-keyboard-response","77","215921","0.0-57.0-1.0","A64FA05027504EC783777416BCA32A81","A64FA05027504EC783777416BCA32A81","63229cee-e3d2-4b94-89f8-3b6fcb5bd864","bea99957-1862-4ad8-9558-57b91e42ce64","{""participantId"":""A64FA05027504EC783777416BCA32A81"",""assignmentId"":""63229cee-e3d2-4b94-89f8-3b6fcb5bd864"",""projectId"":""bea99957-1862-4ad8-9558-57b91e42ce64""}","https://test12345.live/?participantId=A64FA05027504EC783777416BCA32A81&assignmentId=63229cee-e3d2-4b94-89f8-3b6fcb5bd864&projectId=bea99957-1862-4ad8-9558-57b91e42ce64","","null","<div style=""display: flex; justify-content: center; align-items: center;"">
                    <img src=""images/semantic/semantic_series_16/semantic_series_16_b.jpg"" style=""width: 300px; height: 300px;"" />
                  </div>","null","",""
"","","","","","html-keyboard-response","78","218932","0.0-57.0-2.0","A64FA05027504EC783777416BCA32A81","A64FA05027504EC783777416BCA32A81","63229cee-e3d2-4b94-89f8-3b6fcb5bd864","bea99957-1862-4ad8-9558-57b91e42ce64","{""participantId"":""A64FA05027504EC783777416BCA32A81"",""assignmentId"":""63229cee-e3d2-4b94-89f8-3b6fcb5bd864"",""projectId"":""bea99957-1862-4ad8-9558-57b91e42ce64""}","https://test12345.live/?participantId=A64FA05027504EC783777416BCA32A81&assignmentId=63229cee-e3d2-4b94-89f8-3b6fcb5bd864&projectId=bea99957-1862-4ad8-9558-57b91e42ce64","","null","<div style=""display: flex; justify-content: center; align-items: center;"">
                    <img src=""images/semantic/semantic_series_16/semantic_series_16_c.jpg"" style=""width: 300px; height: 300px;"" />
                  </div>","null","",""
"","","","","","html-keyboard-response","79","221941","0.0-57.0-3.0","A64FA05027504EC783777416BCA32A81","A64FA05027504EC783777416BCA32A81","63229cee-e3d2-4b94-89f8-3b6fcb5bd864","bea99957-1862-4ad8-9558-57b91e42ce64","{""participantId"":""A64FA05027504EC783777416BCA32A81"",""assignmentId"":""63229cee-e3d2-4b94-89f8-3b6fcb5bd864"",""projectId"":""bea99957-1862-4ad8-9558-57b91e42ce64""}","https://test12345.live/?participantId=A64FA05027504EC783777416BCA32A81&assignmentId=63229cee-e3d2-4b94-89f8-3b6fcb5bd864&projectId=bea99957-1862-4ad8-9558-57b91e42ce64","","null","<div style=""display: flex; justify-content: center; align-items: center;"">
                    <img src=""images/semantic/semantic_series_16/semantic_series_16_d.jpg"" style=""width: 300px; height: 300px;"" />
                  </div>","null","",""
"","","","","","html-button-response","80","223220","0.0-58.0","A64FA05027504EC783777416BCA32A81","A64FA05027504EC783777416BCA32A81","63229cee-e3d2-4b94-89f8-3b6fcb5bd864","bea99957-1862-4ad8-9558-57b91e42ce64","{""participantId"":""A64FA05027504EC783777416BCA32A81"",""assignmentId"":""63229cee-e3d2-4b94-89f8-3b6fcb5bd864"",""projectId"":""bea99957-1862-4ad8-9558-57b91e42ce64""}","https://test12345.live/?participantId=A64FA05027504EC783777416BCA32A81&assignmentId=63229cee-e3d2-4b94-89f8-3b6fcb5bd864&projectId=bea99957-1862-4ad8-9558-57b91e42ce64","","1277","Was there a person in the picture?","0","",""
"","","","","","survey-likert","81","225252","0.0-59.0","A64FA05027504EC783777416BCA32A81","A64FA05027504EC783777416BCA32A81","63229cee-e3d2-4b94-89f8-3b6fcb5bd864","bea99957-1862-4ad8-9558-57b91e42ce64","{""participantId"":""A64FA05027504EC783777416BCA32A81"",""assignmentId"":""63229cee-e3d2-4b94-89f8-3b6fcb5bd864"",""projectId"":""bea99957-1862-4ad8-9558-57b91e42ce64""}","https://test12345.live/?participantId=A64FA05027504EC783777416BCA32A81&assignmentId=63229cee-e3d2-4b94-89f8-3b6fcb5bd864&projectId=bea99957-1862-4ad8-9558-57b91e42ce64","","2031","","{""Q0"":1}","","[0]"
"","","","","","html-button-response","82","226630","0.0-60.0","A64FA05027504EC783777416BCA32A81","A64FA05027504EC783777416BCA32A81","63229cee-e3d2-4b94-89f8-3b6fcb5bd864","bea99957-1862-4ad8-9558-57b91e42ce64","{""participantId"":""A64FA05027504EC783777416BCA32A81"",""assignmentId"":""63229cee-e3d2-4b94-89f8-3b6fcb5bd864"",""projectId"":""bea99957-1862-4ad8-9558-57b91e42ce64""}","https://test12345.live/?participantId=A64FA05027504EC783777416BCA32A81&assignmentId=63229cee-e3d2-4b94-89f8-3b6fcb5bd864&projectId=bea99957-1862-4ad8-9558-57b91e42ce64","","1376","
    <div style=""display: flex; justify-content: center; align-items: center;"">
      <img src=""images/red_deck_2.png"" style=""width: 300px; height: 300px; margin-right: 10px;"" />
      <img src=""images/blue_deck_1.png"" style=""width: 300px; height: 300px;"" />
    </div>","0","0",""
"","","","","","html-keyboard-response","83","229641","0.0-62.0-0.0","A64FA05027504EC783777416BCA32A81","A64FA05027504EC783777416BCA32A81","63229cee-e3d2-4b94-89f8-3b6fcb5bd864","bea99957-1862-4ad8-9558-57b91e42ce64","{""participantId"":""A64FA05027504EC783777416BCA32A81"",""assignmentId"":""63229cee-e3d2-4b94-89f8-3b6fcb5bd864"",""projectId"":""bea99957-1862-4ad8-9558-57b91e42ce64""}","https://test12345.live/?participantId=A64FA05027504EC783777416BCA32A81&assignmentId=63229cee-e3d2-4b94-89f8-3b6fcb5bd864&projectId=bea99957-1862-4ad8-9558-57b91e42ce64","","null","<div style=""display: flex; justify-content: center; align-items: center;"">
                    <img src=""images/semantic/semantic_series_18/semantic_series_18_a.jpg"" style=""width: 300px; height: 300px;"" />
                  </div>","null","",""
"","","","","","html-keyboard-response","84","232654","0.0-62.0-1.0","A64FA05027504EC783777416BCA32A81","A64FA05027504EC783777416BCA32A81","63229cee-e3d2-4b94-89f8-3b6fcb5bd864","bea99957-1862-4ad8-9558-57b91e42ce64","{""participantId"":""A64FA05027504EC783777416BCA32A81"",""assignmentId"":""63229cee-e3d2-4b94-89f8-3b6fcb5bd864"",""projectId"":""bea99957-1862-4ad8-9558-57b91e42ce64""}","https://test12345.live/?participantId=A64FA05027504EC783777416BCA32A81&assignmentId=63229cee-e3d2-4b94-89f8-3b6fcb5bd864&projectId=bea99957-1862-4ad8-9558-57b91e42ce64","","null","<div style=""display: flex; justify-content: center; align-items: center;"">
                    <img src=""images/semantic/semantic_series_18/semantic_series_18_b.jpg"" style=""width: 300px; height: 300px;"" />
                  </div>","null","",""
"","","","","","html-keyboard-response","85","235670","0.0-62.0-2.0","A64FA05027504EC783777416BCA32A81","A64FA05027504EC783777416BCA32A81","63229cee-e3d2-4b94-89f8-3b6fcb5bd864","bea99957-1862-4ad8-9558-57b91e42ce64","{""participantId"":""A64FA05027504EC783777416BCA32A81"",""assignmentId"":""63229cee-e3d2-4b94-89f8-3b6fcb5bd864"",""projectId"":""bea99957-1862-4ad8-9558-57b91e42ce64""}","https://test12345.live/?participantId=A64FA05027504EC783777416BCA32A81&assignmentId=63229cee-e3d2-4b94-89f8-3b6fcb5bd864&projectId=bea99957-1862-4ad8-9558-57b91e42ce64","","null","<div style=""display: flex; justify-content: center; align-items: center;"">
                    <img src=""images/semantic/semantic_series_18/semantic_series_18_c.jpg"" style=""width: 300px; height: 300px;"" />
                  </div>","null","",""
"","","","","","html-keyboard-response","86","238679","0.0-62.0-3.0","A64FA05027504EC783777416BCA32A81","A64FA05027504EC783777416BCA32A81","63229cee-e3d2-4b94-89f8-3b6fcb5bd864","bea99957-1862-4ad8-9558-57b91e42ce64","{""participantId"":""A64FA05027504EC783777416BCA32A81"",""assignmentId"":""63229cee-e3d2-4b94-89f8-3b6fcb5bd864"",""projectId"":""bea99957-1862-4ad8-9558-57b91e42ce64""}","https://test12345.live/?participantId=A64FA05027504EC783777416BCA32A81&assignmentId=63229cee-e3d2-4b94-89f8-3b6fcb5bd864&projectId=bea99957-1862-4ad8-9558-57b91e42ce64","","null","<div style=""display: flex; justify-content: center; align-items: center;"">
                    <img src=""images/semantic/semantic_series_18/semantic_series_18_d.jpg"" style=""width: 300px; height: 300px;"" />
                  </div>","null","",""
"","","","","","html-button-response","87","239725","0.0-63.0","A64FA05027504EC783777416BCA32A81","A64FA05027504EC783777416BCA32A81","63229cee-e3d2-4b94-89f8-3b6fcb5bd864","bea99957-1862-4ad8-9558-57b91e42ce64","{""participantId"":""A64FA05027504EC783777416BCA32A81"",""assignmentId"":""63229cee-e3d2-4b94-89f8-3b6fcb5bd864"",""projectId"":""bea99957-1862-4ad8-9558-57b91e42ce64""}","https://test12345.live/?participantId=A64FA05027504EC783777416BCA32A81&assignmentId=63229cee-e3d2-4b94-89f8-3b6fcb5bd864&projectId=bea99957-1862-4ad8-9558-57b91e42ce64","","1045","Was there a person in the picture?","1","",""
"","","","","","survey-likert","88","241060","0.0-64.0","A64FA05027504EC783777416BCA32A81","A64FA05027504EC783777416BCA32A81","63229cee-e3d2-4b94-89f8-3b6fcb5bd864","bea99957-1862-4ad8-9558-57b91e42ce64","{""participantId"":""A64FA05027504EC783777416BCA32A81"",""assignmentId"":""63229cee-e3d2-4b94-89f8-3b6fcb5bd864"",""projectId"":""bea99957-1862-4ad8-9558-57b91e42ce64""}","https://test12345.live/?participantId=A64FA05027504EC783777416BCA32A81&assignmentId=63229cee-e3d2-4b94-89f8-3b6fcb5bd864&projectId=bea99957-1862-4ad8-9558-57b91e42ce64","","1333","","{""Q0"":2}","","[0]"
"","","","","","html-button-response","89","242023","0.0-65.0","A64FA05027504EC783777416BCA32A81","A64FA05027504EC783777416BCA32A81","63229cee-e3d2-4b94-89f8-3b6fcb5bd864","bea99957-1862-4ad8-9558-57b91e42ce64","{""participantId"":""A64FA05027504EC783777416BCA32A81"",""assignmentId"":""63229cee-e3d2-4b94-89f8-3b6fcb5bd864"",""projectId"":""bea99957-1862-4ad8-9558-57b91e42ce64""}","https://test12345.live/?participantId=A64FA05027504EC783777416BCA32A81&assignmentId=63229cee-e3d2-4b94-89f8-3b6fcb5bd864&projectId=bea99957-1862-4ad8-9558-57b91e42ce64","","961","
    <div style=""display: flex; justify-content: center; align-items: center;"">
      <img src=""images/red_deck_2.png"" style=""width: 300px; height: 300px; margin-right: 10px;"" />
      <img src=""images/blue_deck_1.png"" style=""width: 300px; height: 300px;"" />
    </div>","0","0",""
"","","","","","html-keyboard-response","90","245040","0.0-67.0-0.0","A64FA05027504EC783777416BCA32A81","A64FA05027504EC783777416BCA32A81","63229cee-e3d2-4b94-89f8-3b6fcb5bd864","bea99957-1862-4ad8-9558-57b91e42ce64","{""participantId"":""A64FA05027504EC783777416BCA32A81"",""assignmentId"":""63229cee-e3d2-4b94-89f8-3b6fcb5bd864"",""projectId"":""bea99957-1862-4ad8-9558-57b91e42ce64""}","https://test12345.live/?participantId=A64FA05027504EC783777416BCA32A81&assignmentId=63229cee-e3d2-4b94-89f8-3b6fcb5bd864&projectId=bea99957-1862-4ad8-9558-57b91e42ce64","","null","<div style=""display: flex; justify-content: center; align-items: center;"">
                    <img src=""images/semantic/semantic_series_10/semantic_series_10_a.jpg"" style=""width: 300px; height: 300px;"" />
                  </div>","null","",""
"","","","","","html-keyboard-response","91","248044","0.0-67.0-1.0","A64FA05027504EC783777416BCA32A81","A64FA05027504EC783777416BCA32A81","63229cee-e3d2-4b94-89f8-3b6fcb5bd864","bea99957-1862-4ad8-9558-57b91e42ce64","{""participantId"":""A64FA05027504EC783777416BCA32A81"",""assignmentId"":""63229cee-e3d2-4b94-89f8-3b6fcb5bd864"",""projectId"":""bea99957-1862-4ad8-9558-57b91e42ce64""}","https://test12345.live/?participantId=A64FA05027504EC783777416BCA32A81&assignmentId=63229cee-e3d2-4b94-89f8-3b6fcb5bd864&projectId=bea99957-1862-4ad8-9558-57b91e42ce64","","null","<div style=""display: flex; justify-content: center; align-items: center;"">
                    <img src=""images/semantic/semantic_series_10/semantic_series_10_b.jpg"" style=""width: 300px; height: 300px;"" />
                  </div>","null","",""
"","","","","","html-keyboard-response","92","251061","0.0-67.0-2.0","A64FA05027504EC783777416BCA32A81","A64FA05027504EC783777416BCA32A81","63229cee-e3d2-4b94-89f8-3b6fcb5bd864","bea99957-1862-4ad8-9558-57b91e42ce64","{""participantId"":""A64FA05027504EC783777416BCA32A81"",""assignmentId"":""63229cee-e3d2-4b94-89f8-3b6fcb5bd864"",""projectId"":""bea99957-1862-4ad8-9558-57b91e42ce64""}","https://test12345.live/?participantId=A64FA05027504EC783777416BCA32A81&assignmentId=63229cee-e3d2-4b94-89f8-3b6fcb5bd864&projectId=bea99957-1862-4ad8-9558-57b91e42ce64","","null","<div style=""display: flex; justify-content: center; align-items: center;"">
                    <img src=""images/semantic/semantic_series_10/semantic_series_10_c.jpg"" style=""width: 300px; height: 300px;"" />
                  </div>","null","",""
"","","","","","html-keyboard-response","93","254062","0.0-67.0-3.0","A64FA05027504EC783777416BCA32A81","A64FA05027504EC783777416BCA32A81","63229cee-e3d2-4b94-89f8-3b6fcb5bd864","bea99957-1862-4ad8-9558-57b91e42ce64","{""participantId"":""A64FA05027504EC783777416BCA32A81"",""assignmentId"":""63229cee-e3d2-4b94-89f8-3b6fcb5bd864"",""projectId"":""bea99957-1862-4ad8-9558-57b91e42ce64""}","https://test12345.live/?participantId=A64FA05027504EC783777416BCA32A81&assignmentId=63229cee-e3d2-4b94-89f8-3b6fcb5bd864&projectId=bea99957-1862-4ad8-9558-57b91e42ce64","","null","<div style=""display: flex; justify-content: center; align-items: center;"">
                    <img src=""images/semantic/semantic_series_10/semantic_series_10_d.jpg"" style=""width: 300px; height: 300px;"" />
                  </div>","null","",""
"","","","","","html-button-response","94","255088","0.0-68.0","A64FA05027504EC783777416BCA32A81","A64FA05027504EC783777416BCA32A81","63229cee-e3d2-4b94-89f8-3b6fcb5bd864","bea99957-1862-4ad8-9558-57b91e42ce64","{""participantId"":""A64FA05027504EC783777416BCA32A81"",""assignmentId"":""63229cee-e3d2-4b94-89f8-3b6fcb5bd864"",""projectId"":""bea99957-1862-4ad8-9558-57b91e42ce64""}","https://test12345.live/?participantId=A64FA05027504EC783777416BCA32A81&assignmentId=63229cee-e3d2-4b94-89f8-3b6fcb5bd864&projectId=bea99957-1862-4ad8-9558-57b91e42ce64","","1024","Was there a person in the picture?","1","",""
"","","","","","survey-likert","95","256898","0.0-69.0","A64FA05027504EC783777416BCA32A81","A64FA05027504EC783777416BCA32A81","63229cee-e3d2-4b94-89f8-3b6fcb5bd864","bea99957-1862-4ad8-9558-57b91e42ce64","{""participantId"":""A64FA05027504EC783777416BCA32A81"",""assignmentId"":""63229cee-e3d2-4b94-89f8-3b6fcb5bd864"",""projectId"":""bea99957-1862-4ad8-9558-57b91e42ce64""}","https://test12345.live/?participantId=A64FA05027504EC783777416BCA32A81&assignmentId=63229cee-e3d2-4b94-89f8-3b6fcb5bd864&projectId=bea99957-1862-4ad8-9558-57b91e42ce64","","1809","","{""Q0"":1}","","[0]"
"","","","","","html-button-response","96","258261","0.0-70.0","A64FA05027504EC783777416BCA32A81","A64FA05027504EC783777416BCA32A81","63229cee-e3d2-4b94-89f8-3b6fcb5bd864","bea99957-1862-4ad8-9558-57b91e42ce64","{""participantId"":""A64FA05027504EC783777416BCA32A81"",""assignmentId"":""63229cee-e3d2-4b94-89f8-3b6fcb5bd864"",""projectId"":""bea99957-1862-4ad8-9558-57b91e42ce64""}","https://test12345.live/?participantId=A64FA05027504EC783777416BCA32A81&assignmentId=63229cee-e3d2-4b94-89f8-3b6fcb5bd864&projectId=bea99957-1862-4ad8-9558-57b91e42ce64","","1360","
    <div style=""display: flex; justify-content: center; align-items: center;"">
      <img src=""images/red_deck_2.png"" style=""width: 300px; height: 300px; margin-right: 10px;"" />
      <img src=""images/blue_deck_1.png"" style=""width: 300px; height: 300px;"" />
    </div>","1","1",""
"","","","","","html-keyboard-response","97","261268","0.0-71.0-0.0","A64FA05027504EC783777416BCA32A81","A64FA05027504EC783777416BCA32A81","63229cee-e3d2-4b94-89f8-3b6fcb5bd864","bea99957-1862-4ad8-9558-57b91e42ce64","{""participantId"":""A64FA05027504EC783777416BCA32A81"",""assignmentId"":""63229cee-e3d2-4b94-89f8-3b6fcb5bd864"",""projectId"":""bea99957-1862-4ad8-9558-57b91e42ce64""}","https://test12345.live/?participantId=A64FA05027504EC783777416BCA32A81&assignmentId=63229cee-e3d2-4b94-89f8-3b6fcb5bd864&projectId=bea99957-1862-4ad8-9558-57b91e42ce64","","null","<div style=""display: flex; justify-content: center; align-items: center;"">
                    <img src=""images/causal/causal_series_6/causal_series_6_a.jpg"" style=""width: 300px; height: 300px;"" />
                  </div>","null","",""
"","","","","","html-keyboard-response","98","264276","0.0-71.0-1.0","A64FA05027504EC783777416BCA32A81","A64FA05027504EC783777416BCA32A81","63229cee-e3d2-4b94-89f8-3b6fcb5bd864","bea99957-1862-4ad8-9558-57b91e42ce64","{""participantId"":""A64FA05027504EC783777416BCA32A81"",""assignmentId"":""63229cee-e3d2-4b94-89f8-3b6fcb5bd864"",""projectId"":""bea99957-1862-4ad8-9558-57b91e42ce64""}","https://test12345.live/?participantId=A64FA05027504EC783777416BCA32A81&assignmentId=63229cee-e3d2-4b94-89f8-3b6fcb5bd864&projectId=bea99957-1862-4ad8-9558-57b91e42ce64","","null","<div style=""display: flex; justify-content: center; align-items: center;"">
                    <img src=""images/causal/causal_series_6/causal_series_6_b.jpg"" style=""width: 300px; height: 300px;"" />
                  </div>","null","",""
"","","","","","html-keyboard-response","99","267285","0.0-71.0-2.0","A64FA05027504EC783777416BCA32A81","A64FA05027504EC783777416BCA32A81","63229cee-e3d2-4b94-89f8-3b6fcb5bd864","bea99957-1862-4ad8-9558-57b91e42ce64","{""participantId"":""A64FA05027504EC783777416BCA32A81"",""assignmentId"":""63229cee-e3d2-4b94-89f8-3b6fcb5bd864"",""projectId"":""bea99957-1862-4ad8-9558-57b91e42ce64""}","https://test12345.live/?participantId=A64FA05027504EC783777416BCA32A81&assignmentId=63229cee-e3d2-4b94-89f8-3b6fcb5bd864&projectId=bea99957-1862-4ad8-9558-57b91e42ce64","","null","<div style=""display: flex; justify-content: center; align-items: center;"">
                    <img src=""images/causal/causal_series_6/causal_series_6_c.jpg"" style=""width: 300px; height: 300px;"" />
                  </div>","null","",""
"","","","","","html-keyboard-response","100","270304","0.0-71.0-3.0","A64FA05027504EC783777416BCA32A81","A64FA05027504EC783777416BCA32A81","63229cee-e3d2-4b94-89f8-3b6fcb5bd864","bea99957-1862-4ad8-9558-57b91e42ce64","{""participantId"":""A64FA05027504EC783777416BCA32A81"",""assignmentId"":""63229cee-e3d2-4b94-89f8-3b6fcb5bd864"",""projectId"":""bea99957-1862-4ad8-9558-57b91e42ce64""}","https://test12345.live/?participantId=A64FA05027504EC783777416BCA32A81&assignmentId=63229cee-e3d2-4b94-89f8-3b6fcb5bd864&projectId=bea99957-1862-4ad8-9558-57b91e42ce64","","null","<div style=""display: flex; justify-content: center; align-items: center;"">
                    <img src=""images/causal/causal_series_6/causal_series_6_d.jpg"" style=""width: 300px; height: 300px;"" />
                  </div>","null","",""
"","","","","","html-button-response","101","271125","0.0-73.0","A64FA05027504EC783777416BCA32A81","A64FA05027504EC783777416BCA32A81","63229cee-e3d2-4b94-89f8-3b6fcb5bd864","bea99957-1862-4ad8-9558-57b91e42ce64","{""participantId"":""A64FA05027504EC783777416BCA32A81"",""assignmentId"":""63229cee-e3d2-4b94-89f8-3b6fcb5bd864"",""projectId"":""bea99957-1862-4ad8-9558-57b91e42ce64""}","https://test12345.live/?participantId=A64FA05027504EC783777416BCA32A81&assignmentId=63229cee-e3d2-4b94-89f8-3b6fcb5bd864&projectId=bea99957-1862-4ad8-9558-57b91e42ce64","","820","Was there a person in the picture?","1","",""
"","","","","","survey-likert","102","272360","0.0-74.0","A64FA05027504EC783777416BCA32A81","A64FA05027504EC783777416BCA32A81","63229cee-e3d2-4b94-89f8-3b6fcb5bd864","bea99957-1862-4ad8-9558-57b91e42ce64","{""participantId"":""A64FA05027504EC783777416BCA32A81"",""assignmentId"":""63229cee-e3d2-4b94-89f8-3b6fcb5bd864"",""projectId"":""bea99957-1862-4ad8-9558-57b91e42ce64""}","https://test12345.live/?participantId=A64FA05027504EC783777416BCA32A81&assignmentId=63229cee-e3d2-4b94-89f8-3b6fcb5bd864&projectId=bea99957-1862-4ad8-9558-57b91e42ce64","","1234","","{""Q0"":2}","","[0]"
"","","","","","html-button-response","103","273450","0.0-75.0","A64FA05027504EC783777416BCA32A81","A64FA05027504EC783777416BCA32A81","63229cee-e3d2-4b94-89f8-3b6fcb5bd864","bea99957-1862-4ad8-9558-57b91e42ce64","{""participantId"":""A64FA05027504EC783777416BCA32A81"",""assignmentId"":""63229cee-e3d2-4b94-89f8-3b6fcb5bd864"",""projectId"":""bea99957-1862-4ad8-9558-57b91e42ce64""}","https://test12345.live/?participantId=A64FA05027504EC783777416BCA32A81&assignmentId=63229cee-e3d2-4b94-89f8-3b6fcb5bd864&projectId=bea99957-1862-4ad8-9558-57b91e42ce64","","1088","
    <div style=""display: flex; justify-content: center; align-items: center;"">
      <img src=""images/red_deck_2.png"" style=""width: 300px; height: 300px; margin-right: 10px;"" />
      <img src=""images/blue_deck_1.png"" style=""width: 300px; height: 300px;"" />
    </div>","0","0",""
"","","","","","html-keyboard-response","104","276464","0.0-77.0-0.0","A64FA05027504EC783777416BCA32A81","A64FA05027504EC783777416BCA32A81","63229cee-e3d2-4b94-89f8-3b6fcb5bd864","bea99957-1862-4ad8-9558-57b91e42ce64","{""participantId"":""A64FA05027504EC783777416BCA32A81"",""assignmentId"":""63229cee-e3d2-4b94-89f8-3b6fcb5bd864"",""projectId"":""bea99957-1862-4ad8-9558-57b91e42ce64""}","https://test12345.live/?participantId=A64FA05027504EC783777416BCA32A81&assignmentId=63229cee-e3d2-4b94-89f8-3b6fcb5bd864&projectId=bea99957-1862-4ad8-9558-57b91e42ce64","","null","<div style=""display: flex; justify-content: center; align-items: center;"">
                    <img src=""images/semantic/semantic_series_4/semantic_series_4_a.jpg"" style=""width: 300px; height: 300px;"" />
                  </div>","null","",""
"","","","","","html-keyboard-response","105","279473","0.0-77.0-1.0","A64FA05027504EC783777416BCA32A81","A64FA05027504EC783777416BCA32A81","63229cee-e3d2-4b94-89f8-3b6fcb5bd864","bea99957-1862-4ad8-9558-57b91e42ce64","{""participantId"":""A64FA05027504EC783777416BCA32A81"",""assignmentId"":""63229cee-e3d2-4b94-89f8-3b6fcb5bd864"",""projectId"":""bea99957-1862-4ad8-9558-57b91e42ce64""}","https://test12345.live/?participantId=A64FA05027504EC783777416BCA32A81&assignmentId=63229cee-e3d2-4b94-89f8-3b6fcb5bd864&projectId=bea99957-1862-4ad8-9558-57b91e42ce64","","null","<div style=""display: flex; justify-content: center; align-items: center;"">
                    <img src=""images/semantic/semantic_series_4/semantic_series_4_b.jpg"" style=""width: 300px; height: 300px;"" />
                  </div>","null","",""
"","","","","","html-keyboard-response","106","282495","0.0-77.0-2.0","A64FA05027504EC783777416BCA32A81","A64FA05027504EC783777416BCA32A81","63229cee-e3d2-4b94-89f8-3b6fcb5bd864","bea99957-1862-4ad8-9558-57b91e42ce64","{""participantId"":""A64FA05027504EC783777416BCA32A81"",""assignmentId"":""63229cee-e3d2-4b94-89f8-3b6fcb5bd864"",""projectId"":""bea99957-1862-4ad8-9558-57b91e42ce64""}","https://test12345.live/?participantId=A64FA05027504EC783777416BCA32A81&assignmentId=63229cee-e3d2-4b94-89f8-3b6fcb5bd864&projectId=bea99957-1862-4ad8-9558-57b91e42ce64","","null","<div style=""display: flex; justify-content: center; align-items: center;"">
                    <img src=""images/semantic/semantic_series_4/semantic_series_4_c.jpg"" style=""width: 300px; height: 300px;"" />
                  </div>","null","",""
"","","","","","html-keyboard-response","107","285514","0.0-77.0-3.0","A64FA05027504EC783777416BCA32A81","A64FA05027504EC783777416BCA32A81","63229cee-e3d2-4b94-89f8-3b6fcb5bd864","bea99957-1862-4ad8-9558-57b91e42ce64","{""participantId"":""A64FA05027504EC783777416BCA32A81"",""assignmentId"":""63229cee-e3d2-4b94-89f8-3b6fcb5bd864"",""projectId"":""bea99957-1862-4ad8-9558-57b91e42ce64""}","https://test12345.live/?participantId=A64FA05027504EC783777416BCA32A81&assignmentId=63229cee-e3d2-4b94-89f8-3b6fcb5bd864&projectId=bea99957-1862-4ad8-9558-57b91e42ce64","","null","<div style=""display: flex; justify-content: center; align-items: center;"">
                    <img src=""images/semantic/semantic_series_4/semantic_series_4_d.jpg"" style=""width: 300px; height: 300px;"" />
                  </div>","null","",""
"","","","","","html-button-response","108","286672","0.0-78.0","A64FA05027504EC783777416BCA32A81","A64FA05027504EC783777416BCA32A81","63229cee-e3d2-4b94-89f8-3b6fcb5bd864","bea99957-1862-4ad8-9558-57b91e42ce64","{""participantId"":""A64FA05027504EC783777416BCA32A81"",""assignmentId"":""63229cee-e3d2-4b94-89f8-3b6fcb5bd864"",""projectId"":""bea99957-1862-4ad8-9558-57b91e42ce64""}","https://test12345.live/?participantId=A64FA05027504EC783777416BCA32A81&assignmentId=63229cee-e3d2-4b94-89f8-3b6fcb5bd864&projectId=bea99957-1862-4ad8-9558-57b91e42ce64","","1157","Was there a person in the picture?","1","",""
"","","","","","survey-likert","109","288082","0.0-79.0","A64FA05027504EC783777416BCA32A81","A64FA05027504EC783777416BCA32A81","63229cee-e3d2-4b94-89f8-3b6fcb5bd864","bea99957-1862-4ad8-9558-57b91e42ce64","{""participantId"":""A64FA05027504EC783777416BCA32A81"",""assignmentId"":""63229cee-e3d2-4b94-89f8-3b6fcb5bd864"",""projectId"":""bea99957-1862-4ad8-9558-57b91e42ce64""}","https://test12345.live/?participantId=A64FA05027504EC783777416BCA32A81&assignmentId=63229cee-e3d2-4b94-89f8-3b6fcb5bd864&projectId=bea99957-1862-4ad8-9558-57b91e42ce64","","1409","","{""Q0"":2}","","[0]"
"","","","","","html-button-response","110","289008","0.0-80.0","A64FA05027504EC783777416BCA32A81","A64FA05027504EC783777416BCA32A81","63229cee-e3d2-4b94-89f8-3b6fcb5bd864","bea99957-1862-4ad8-9558-57b91e42ce64","{""participantId"":""A64FA05027504EC783777416BCA32A81"",""assignmentId"":""63229cee-e3d2-4b94-89f8-3b6fcb5bd864"",""projectId"":""bea99957-1862-4ad8-9558-57b91e42ce64""}","https://test12345.live/?participantId=A64FA05027504EC783777416BCA32A81&assignmentId=63229cee-e3d2-4b94-89f8-3b6fcb5bd864&projectId=bea99957-1862-4ad8-9558-57b91e42ce64","","925","
    <div style=""display: flex; justify-content: center; align-items: center;"">
      <img src=""images/red_deck_2.png"" style=""width: 300px; height: 300px; margin-right: 10px;"" />
      <img src=""images/blue_deck_1.png"" style=""width: 300px; height: 300px;"" />
    </div>","0","0",""
"","","","","","html-keyboard-response","111","292028","0.0-82.0-0.0","A64FA05027504EC783777416BCA32A81","A64FA05027504EC783777416BCA32A81","63229cee-e3d2-4b94-89f8-3b6fcb5bd864","bea99957-1862-4ad8-9558-57b91e42ce64","{""participantId"":""A64FA05027504EC783777416BCA32A81"",""assignmentId"":""63229cee-e3d2-4b94-89f8-3b6fcb5bd864"",""projectId"":""bea99957-1862-4ad8-9558-57b91e42ce64""}","https://test12345.live/?participantId=A64FA05027504EC783777416BCA32A81&assignmentId=63229cee-e3d2-4b94-89f8-3b6fcb5bd864&projectId=bea99957-1862-4ad8-9558-57b91e42ce64","","null","<div style=""display: flex; justify-content: center; align-items: center;"">
                    <img src=""images/semantic/semantic_series_13/semantic_series_13_a.jpg"" style=""width: 300px; height: 300px;"" />
                  </div>","null","",""
"","","","","","html-keyboard-response","112","295048","0.0-82.0-1.0","A64FA05027504EC783777416BCA32A81","A64FA05027504EC783777416BCA32A81","63229cee-e3d2-4b94-89f8-3b6fcb5bd864","bea99957-1862-4ad8-9558-57b91e42ce64","{""participantId"":""A64FA05027504EC783777416BCA32A81"",""assignmentId"":""63229cee-e3d2-4b94-89f8-3b6fcb5bd864"",""projectId"":""bea99957-1862-4ad8-9558-57b91e42ce64""}","https://test12345.live/?participantId=A64FA05027504EC783777416BCA32A81&assignmentId=63229cee-e3d2-4b94-89f8-3b6fcb5bd864&projectId=bea99957-1862-4ad8-9558-57b91e42ce64","","null","<div style=""display: flex; justify-content: center; align-items: center;"">
                    <img src=""images/semantic/semantic_series_13/semantic_series_13_b.jpg"" style=""width: 300px; height: 300px;"" />
                  </div>","null","",""
"","","","","","html-keyboard-response","113","298059","0.0-82.0-2.0","A64FA05027504EC783777416BCA32A81","A64FA05027504EC783777416BCA32A81","63229cee-e3d2-4b94-89f8-3b6fcb5bd864","bea99957-1862-4ad8-9558-57b91e42ce64","{""participantId"":""A64FA05027504EC783777416BCA32A81"",""assignmentId"":""63229cee-e3d2-4b94-89f8-3b6fcb5bd864"",""projectId"":""bea99957-1862-4ad8-9558-57b91e42ce64""}","https://test12345.live/?participantId=A64FA05027504EC783777416BCA32A81&assignmentId=63229cee-e3d2-4b94-89f8-3b6fcb5bd864&projectId=bea99957-1862-4ad8-9558-57b91e42ce64","","null","<div style=""display: flex; justify-content: center; align-items: center;"">
                    <img src=""images/semantic/semantic_series_13/semantic_series_13_c.jpg"" style=""width: 300px; height: 300px;"" />
                  </div>","null","",""
"","","","","","html-keyboard-response","114","301077","0.0-82.0-3.0","A64FA05027504EC783777416BCA32A81","A64FA05027504EC783777416BCA32A81","63229cee-e3d2-4b94-89f8-3b6fcb5bd864","bea99957-1862-4ad8-9558-57b91e42ce64","{""participantId"":""A64FA05027504EC783777416BCA32A81"",""assignmentId"":""63229cee-e3d2-4b94-89f8-3b6fcb5bd864"",""projectId"":""bea99957-1862-4ad8-9558-57b91e42ce64""}","https://test12345.live/?participantId=A64FA05027504EC783777416BCA32A81&assignmentId=63229cee-e3d2-4b94-89f8-3b6fcb5bd864&projectId=bea99957-1862-4ad8-9558-57b91e42ce64","","null","<div style=""display: flex; justify-content: center; align-items: center;"">
                    <img src=""images/semantic/semantic_series_13/semantic_series_13_d.jpg"" style=""width: 300px; height: 300px;"" />
                  </div>","null","",""
"","","","","","html-button-response","115","303201","0.0-83.0","A64FA05027504EC783777416BCA32A81","A64FA05027504EC783777416BCA32A81","63229cee-e3d2-4b94-89f8-3b6fcb5bd864","bea99957-1862-4ad8-9558-57b91e42ce64","{""participantId"":""A64FA05027504EC783777416BCA32A81"",""assignmentId"":""63229cee-e3d2-4b94-89f8-3b6fcb5bd864"",""projectId"":""bea99957-1862-4ad8-9558-57b91e42ce64""}","https://test12345.live/?participantId=A64FA05027504EC783777416BCA32A81&assignmentId=63229cee-e3d2-4b94-89f8-3b6fcb5bd864&projectId=bea99957-1862-4ad8-9558-57b91e42ce64","","2123","Was there a person in the picture?","1","",""
"","","","","","survey-likert","116","304977","0.0-84.0","A64FA05027504EC783777416BCA32A81","A64FA05027504EC783777416BCA32A81","63229cee-e3d2-4b94-89f8-3b6fcb5bd864","bea99957-1862-4ad8-9558-57b91e42ce64","{""participantId"":""A64FA05027504EC783777416BCA32A81"",""assignmentId"":""63229cee-e3d2-4b94-89f8-3b6fcb5bd864"",""projectId"":""bea99957-1862-4ad8-9558-57b91e42ce64""}","https://test12345.live/?participantId=A64FA05027504EC783777416BCA32A81&assignmentId=63229cee-e3d2-4b94-89f8-3b6fcb5bd864&projectId=bea99957-1862-4ad8-9558-57b91e42ce64","","1774","","{""Q0"":2}","","[0]"
"","","","","","html-button-response","117","306149","0.0-85.0","A64FA05027504EC783777416BCA32A81","A64FA05027504EC783777416BCA32A81","63229cee-e3d2-4b94-89f8-3b6fcb5bd864","bea99957-1862-4ad8-9558-57b91e42ce64","{""participantId"":""A64FA05027504EC783777416BCA32A81"",""assignmentId"":""63229cee-e3d2-4b94-89f8-3b6fcb5bd864"",""projectId"":""bea99957-1862-4ad8-9558-57b91e42ce64""}","https://test12345.live/?participantId=A64FA05027504EC783777416BCA32A81&assignmentId=63229cee-e3d2-4b94-89f8-3b6fcb5bd864&projectId=bea99957-1862-4ad8-9558-57b91e42ce64","","1171","
    <div style=""display: flex; justify-content: center; align-items: center;"">
      <img src=""images/red_deck_2.png"" style=""width: 300px; height: 300px; margin-right: 10px;"" />
      <img src=""images/blue_deck_1.png"" style=""width: 300px; height: 300px;"" />
    </div>","0","0",""
"","","","","","html-keyboard-response","118","309157","0.0-87.0-0.0","A64FA05027504EC783777416BCA32A81","A64FA05027504EC783777416BCA32A81","63229cee-e3d2-4b94-89f8-3b6fcb5bd864","bea99957-1862-4ad8-9558-57b91e42ce64","{""participantId"":""A64FA05027504EC783777416BCA32A81"",""assignmentId"":""63229cee-e3d2-4b94-89f8-3b6fcb5bd864"",""projectId"":""bea99957-1862-4ad8-9558-57b91e42ce64""}","https://test12345.live/?participantId=A64FA05027504EC783777416BCA32A81&assignmentId=63229cee-e3d2-4b94-89f8-3b6fcb5bd864&projectId=bea99957-1862-4ad8-9558-57b91e42ce64","","null","<div style=""display: flex; justify-content: center; align-items: center;"">
                    <img src=""images/semantic/semantic_series_7/semantic_series_7_a.jpg"" style=""width: 300px; height: 300px;"" />
                  </div>","null","",""
"","","","","","html-keyboard-response","119","312175","0.0-87.0-1.0","A64FA05027504EC783777416BCA32A81","A64FA05027504EC783777416BCA32A81","63229cee-e3d2-4b94-89f8-3b6fcb5bd864","bea99957-1862-4ad8-9558-57b91e42ce64","{""participantId"":""A64FA05027504EC783777416BCA32A81"",""assignmentId"":""63229cee-e3d2-4b94-89f8-3b6fcb5bd864"",""projectId"":""bea99957-1862-4ad8-9558-57b91e42ce64""}","https://test12345.live/?participantId=A64FA05027504EC783777416BCA32A81&assignmentId=63229cee-e3d2-4b94-89f8-3b6fcb5bd864&projectId=bea99957-1862-4ad8-9558-57b91e42ce64","","null","<div style=""display: flex; justify-content: center; align-items: center;"">
                    <img src=""images/semantic/semantic_series_7/semantic_series_7_b.jpg"" style=""width: 300px; height: 300px;"" />
                  </div>","null","",""
"","","","","","html-keyboard-response","120","315185","0.0-87.0-2.0","A64FA05027504EC783777416BCA32A81","A64FA05027504EC783777416BCA32A81","63229cee-e3d2-4b94-89f8-3b6fcb5bd864","bea99957-1862-4ad8-9558-57b91e42ce64","{""participantId"":""A64FA05027504EC783777416BCA32A81"",""assignmentId"":""63229cee-e3d2-4b94-89f8-3b6fcb5bd864"",""projectId"":""bea99957-1862-4ad8-9558-57b91e42ce64""}","https://test12345.live/?participantId=A64FA05027504EC783777416BCA32A81&assignmentId=63229cee-e3d2-4b94-89f8-3b6fcb5bd864&projectId=bea99957-1862-4ad8-9558-57b91e42ce64","","null","<div style=""display: flex; justify-content: center; align-items: center;"">
                    <img src=""images/semantic/semantic_series_7/semantic_series_7_c.jpg"" style=""width: 300px; height: 300px;"" />
                  </div>","null","",""
"","","","","","html-keyboard-response","121","318200","0.0-87.0-3.0","A64FA05027504EC783777416BCA32A81","A64FA05027504EC783777416BCA32A81","63229cee-e3d2-4b94-89f8-3b6fcb5bd864","bea99957-1862-4ad8-9558-57b91e42ce64","{""participantId"":""A64FA05027504EC783777416BCA32A81"",""assignmentId"":""63229cee-e3d2-4b94-89f8-3b6fcb5bd864"",""projectId"":""bea99957-1862-4ad8-9558-57b91e42ce64""}","https://test12345.live/?participantId=A64FA05027504EC783777416BCA32A81&assignmentId=63229cee-e3d2-4b94-89f8-3b6fcb5bd864&projectId=bea99957-1862-4ad8-9558-57b91e42ce64","","null","<div style=""display: flex; justify-content: center; align-items: center;"">
                    <img src=""images/semantic/semantic_series_7/semantic_series_7_d.jpg"" style=""width: 300px; height: 300px;"" />
                  </div>","null","",""
"","","","","","html-button-response","122","322917","0.0-88.0","A64FA05027504EC783777416BCA32A81","A64FA05027504EC783777416BCA32A81","63229cee-e3d2-4b94-89f8-3b6fcb5bd864","bea99957-1862-4ad8-9558-57b91e42ce64","{""participantId"":""A64FA05027504EC783777416BCA32A81"",""assignmentId"":""63229cee-e3d2-4b94-89f8-3b6fcb5bd864"",""projectId"":""bea99957-1862-4ad8-9558-57b91e42ce64""}","https://test12345.live/?participantId=A64FA05027504EC783777416BCA32A81&assignmentId=63229cee-e3d2-4b94-89f8-3b6fcb5bd864&projectId=bea99957-1862-4ad8-9558-57b91e42ce64","","4716","Was there a person in the picture?","1","",""
"","","","","","survey-likert","123","324900","0.0-89.0","A64FA05027504EC783777416BCA32A81","A64FA05027504EC783777416BCA32A81","63229cee-e3d2-4b94-89f8-3b6fcb5bd864","bea99957-1862-4ad8-9558-57b91e42ce64","{""participantId"":""A64FA05027504EC783777416BCA32A81"",""assignmentId"":""63229cee-e3d2-4b94-89f8-3b6fcb5bd864"",""projectId"":""bea99957-1862-4ad8-9558-57b91e42ce64""}","https://test12345.live/?participantId=A64FA05027504EC783777416BCA32A81&assignmentId=63229cee-e3d2-4b94-89f8-3b6fcb5bd864&projectId=bea99957-1862-4ad8-9558-57b91e42ce64","","1982","","{""Q0"":1}","","[0]"
"","","","","","html-button-response","124","325857","0.0-90.0","A64FA05027504EC783777416BCA32A81","A64FA05027504EC783777416BCA32A81","63229cee-e3d2-4b94-89f8-3b6fcb5bd864","bea99957-1862-4ad8-9558-57b91e42ce64","{""participantId"":""A64FA05027504EC783777416BCA32A81"",""assignmentId"":""63229cee-e3d2-4b94-89f8-3b6fcb5bd864"",""projectId"":""bea99957-1862-4ad8-9558-57b91e42ce64""}","https://test12345.live/?participantId=A64FA05027504EC783777416BCA32A81&assignmentId=63229cee-e3d2-4b94-89f8-3b6fcb5bd864&projectId=bea99957-1862-4ad8-9558-57b91e42ce64","","955","
    <div style=""display: flex; justify-content: center; align-items: center;"">
      <img src=""images/red_deck_2.png"" style=""width: 300px; height: 300px; margin-right: 10px;"" />
      <img src=""images/blue_deck_1.png"" style=""width: 300px; height: 300px;"" />
    </div>","0","0",""
"","","","","","html-keyboard-response","125","328861","0.0-92.0-0.0","A64FA05027504EC783777416BCA32A81","A64FA05027504EC783777416BCA32A81","63229cee-e3d2-4b94-89f8-3b6fcb5bd864","bea99957-1862-4ad8-9558-57b91e42ce64","{""participantId"":""A64FA05027504EC783777416BCA32A81"",""assignmentId"":""63229cee-e3d2-4b94-89f8-3b6fcb5bd864"",""projectId"":""bea99957-1862-4ad8-9558-57b91e42ce64""}","https://test12345.live/?participantId=A64FA05027504EC783777416BCA32A81&assignmentId=63229cee-e3d2-4b94-89f8-3b6fcb5bd864&projectId=bea99957-1862-4ad8-9558-57b91e42ce64","","null","<div style=""display: flex; justify-content: center; align-items: center;"">
                    <img src=""images/semantic/semantic_series_2/semantic_series_2_a.jpg"" style=""width: 300px; height: 300px;"" />
                  </div>","null","",""
"","","","","","html-keyboard-response","126","331882","0.0-92.0-1.0","A64FA05027504EC783777416BCA32A81","A64FA05027504EC783777416BCA32A81","63229cee-e3d2-4b94-89f8-3b6fcb5bd864","bea99957-1862-4ad8-9558-57b91e42ce64","{""participantId"":""A64FA05027504EC783777416BCA32A81"",""assignmentId"":""63229cee-e3d2-4b94-89f8-3b6fcb5bd864"",""projectId"":""bea99957-1862-4ad8-9558-57b91e42ce64""}","https://test12345.live/?participantId=A64FA05027504EC783777416BCA32A81&assignmentId=63229cee-e3d2-4b94-89f8-3b6fcb5bd864&projectId=bea99957-1862-4ad8-9558-57b91e42ce64","","null","<div style=""display: flex; justify-content: center; align-items: center;"">
                    <img src=""images/semantic/semantic_series_2/semantic_series_2_b.jpg"" style=""width: 300px; height: 300px;"" />
                  </div>","null","",""
"","","","","","html-keyboard-response","127","334892","0.0-92.0-2.0","A64FA05027504EC783777416BCA32A81","A64FA05027504EC783777416BCA32A81","63229cee-e3d2-4b94-89f8-3b6fcb5bd864","bea99957-1862-4ad8-9558-57b91e42ce64","{""participantId"":""A64FA05027504EC783777416BCA32A81"",""assignmentId"":""63229cee-e3d2-4b94-89f8-3b6fcb5bd864"",""projectId"":""bea99957-1862-4ad8-9558-57b91e42ce64""}","https://test12345.live/?participantId=A64FA05027504EC783777416BCA32A81&assignmentId=63229cee-e3d2-4b94-89f8-3b6fcb5bd864&projectId=bea99957-1862-4ad8-9558-57b91e42ce64","","null","<div style=""display: flex; justify-content: center; align-items: center;"">
                    <img src=""images/semantic/semantic_series_2/semantic_series_2_c.jpg"" style=""width: 300px; height: 300px;"" />
                  </div>","null","",""
"","","","","","html-keyboard-response","128","337901","0.0-92.0-3.0","A64FA05027504EC783777416BCA32A81","A64FA05027504EC783777416BCA32A81","63229cee-e3d2-4b94-89f8-3b6fcb5bd864","bea99957-1862-4ad8-9558-57b91e42ce64","{""participantId"":""A64FA05027504EC783777416BCA32A81"",""assignmentId"":""63229cee-e3d2-4b94-89f8-3b6fcb5bd864"",""projectId"":""bea99957-1862-4ad8-9558-57b91e42ce64""}","https://test12345.live/?participantId=A64FA05027504EC783777416BCA32A81&assignmentId=63229cee-e3d2-4b94-89f8-3b6fcb5bd864&projectId=bea99957-1862-4ad8-9558-57b91e42ce64","","null","<div style=""display: flex; justify-content: center; align-items: center;"">
                    <img src=""images/semantic/semantic_series_2/semantic_series_2_d.jpg"" style=""width: 300px; height: 300px;"" />
                  </div>","null","",""
"","","","","","html-button-response","129","339977","0.0-93.0","A64FA05027504EC783777416BCA32A81","A64FA05027504EC783777416BCA32A81","63229cee-e3d2-4b94-89f8-3b6fcb5bd864","bea99957-1862-4ad8-9558-57b91e42ce64","{""participantId"":""A64FA05027504EC783777416BCA32A81"",""assignmentId"":""63229cee-e3d2-4b94-89f8-3b6fcb5bd864"",""projectId"":""bea99957-1862-4ad8-9558-57b91e42ce64""}","https://test12345.live/?participantId=A64FA05027504EC783777416BCA32A81&assignmentId=63229cee-e3d2-4b94-89f8-3b6fcb5bd864&projectId=bea99957-1862-4ad8-9558-57b91e42ce64","","2074","Was there a person in the picture?","0","",""
"","","","","","survey-likert","130","342411","0.0-94.0","A64FA05027504EC783777416BCA32A81","A64FA05027504EC783777416BCA32A81","63229cee-e3d2-4b94-89f8-3b6fcb5bd864","bea99957-1862-4ad8-9558-57b91e42ce64","{""participantId"":""A64FA05027504EC783777416BCA32A81"",""assignmentId"":""63229cee-e3d2-4b94-89f8-3b6fcb5bd864"",""projectId"":""bea99957-1862-4ad8-9558-57b91e42ce64""}","https://test12345.live/?participantId=A64FA05027504EC783777416BCA32A81&assignmentId=63229cee-e3d2-4b94-89f8-3b6fcb5bd864&projectId=bea99957-1862-4ad8-9558-57b91e42ce64","","2432","","{""Q0"":1}","","[0]"
"","","","","","survey-text","131","371932","0.0-95.0","A64FA05027504EC783777416BCA32A81","A64FA05027504EC783777416BCA32A81","63229cee-e3d2-4b94-89f8-3b6fcb5bd864","bea99957-1862-4ad8-9558-57b91e42ce64","{""participantId"":""A64FA05027504EC783777416BCA32A81"",""assignmentId"":""63229cee-e3d2-4b94-89f8-3b6fcb5bd864"",""projectId"":""bea99957-1862-4ad8-9558-57b91e42ce64""}","https://test12345.live/?participantId=A64FA05027504EC783777416BCA32A81&assignmentId=63229cee-e3d2-4b94-89f8-3b6fcb5bd864&projectId=bea99957-1862-4ad8-9558-57b91e42ce64","","29518","","{""Q0"":""The red deck had many sets with people's lives (travel, chores, etc.)""}","",""
