"success","timeout","failed_images","failed_audio","failed_video","trial_type","trial_index","time_elapsed","internal_node_id","subject_id","study_id","session_id","view_history","rt","stimulus","response","choice"
"true","false","[]","[]","[]","preload","0","3746","0.0-0.0","B68BD0E6F41A485B82915E7849D16C84","9e81d25a-58c6-4cec-ba09-222e1266eefb","7c9f784d-5202-4c36-a6e2-1fcf7bf41701","","","","",""
"","","","","","instructions","1","15616","0.0-1.0","B68BD0E6F41A485B82915E7849D16C84","9e81d25a-58c6-4cec-ba09-222e1266eefb","7c9f784d-5202-4c36-a6e2-1fcf7bf41701","[{""page_index"":0,""viewing_time"":11870}]","11870","","",""
"","","","","","instructions","2","69670","0.0-2.0","B68BD0E6F41A485B82915E7849D16C84","9e81d25a-58c6-4cec-ba09-222e1266eefb","7c9f784d-5202-4c36-a6e2-1fcf7bf41701","[{""page_index"":0,""viewing_time"":54054}]","54054","","",""
"true","","","","","fullscreen","3","73682","0.0-3.0","B68BD0E6F41A485B82915E7849D16C84","9e81d25a-58c6-4cec-ba09-222e1266eefb","7c9f784d-5202-4c36-a6e2-1fcf7bf41701","","3008","","",""
"","","","","","instructions","4","94204","0.0-4.0","B68BD0E6F41A485B82915E7849D16C84","9e81d25a-58c6-4cec-ba09-222e1266eefb","7c9f784d-5202-4c36-a6e2-1fcf7bf41701","[{""page_index"":0,""viewing_time"":20522}]","20522","","",""
"","","","","","html-keyboard-response","5","97208","0.0-5.0","B68BD0E6F41A485B82915E7849D16C84","9e81d25a-58c6-4cec-ba09-222e1266eefb","7c9f784d-5202-4c36-a6e2-1fcf7bf41701","","null","<div style=""display: flex; justify-content: center; align-items: center;"">
                <img src=""images/causal/causal_series_14/causal_series_14_a.jpg"" style=""width: 300px; height: 300px;"" />
              </div>","null",""
"","","","","","html-keyboard-response","6","100210","0.0-6.0","B68BD0E6F41A485B82915E7849D16C84","9e81d25a-58c6-4cec-ba09-222e1266eefb","7c9f784d-5202-4c36-a6e2-1fcf7bf41701","","null","<div style=""display: flex; justify-content: center; align-items: center;"">
                <img src=""images/causal/causal_series_14/causal_series_14_b.jpg"" style=""width: 300px; height: 300px;"" />
              </div>","null",""
"","","","","","html-keyboard-response","7","103212","0.0-7.0","B68BD0E6F41A485B82915E7849D16C84","9e81d25a-58c6-4cec-ba09-222e1266eefb","7c9f784d-5202-4c36-a6e2-1fcf7bf41701","","null","<div style=""display: flex; justify-content: center; align-items: center;"">
                <img src=""images/causal/causal_series_14/causal_series_14_c.jpg"" style=""width: 300px; height: 300px;"" />
              </div>","null",""
"","","","","","html-button-response","8","106937","0.0-8.0","B68BD0E6F41A485B82915E7849D16C84","9e81d25a-58c6-4cec-ba09-222e1266eefb","7c9f784d-5202-4c36-a6e2-1fcf7bf41701","","3723","
    <div style=""display: flex; justify-content: center; align-items: center;"">
      <img src=""images/blue_deck_1.png"" style=""width: 300px; height: 300px; margin-right: 10px;"" />
      <img src=""images/red_deck_2.png"" style=""width: 300px; height: 300px;"" />
    </div>","0","0"
"","","","","","html-keyboard-response","9","109939","0.0-9.0-0.0-0.0","B68BD0E6F41A485B82915E7849D16C84","9e81d25a-58c6-4cec-ba09-222e1266eefb","7c9f784d-5202-4c36-a6e2-1fcf7bf41701","","null","<div style=""display: flex; justify-content: center; align-items: center;"">
                <img src=""images/causal/causal_series_14/causal_series_14_d.jpg"" style=""width: 300px; height: 300px;"" />
              </div>","null",""
"","","","","","html-keyboard-response","10","112941","0.0-10.0","B68BD0E6F41A485B82915E7849D16C84","9e81d25a-58c6-4cec-ba09-222e1266eefb","7c9f784d-5202-4c36-a6e2-1fcf7bf41701","","null","<div style=""display: flex; justify-content: center; align-items: center;"">
                <img src=""images/other/blank.jpg"" style=""width: 300px; height: 300px;"" />
              </div>","null",""
"","","","","","html-keyboard-response","11","115944","0.0-11.0","B68BD0E6F41A485B82915E7849D16C84","9e81d25a-58c6-4cec-ba09-222e1266eefb","7c9f784d-5202-4c36-a6e2-1fcf7bf41701","","null","<div style=""display: flex; justify-content: center; align-items: center;"">
                <img src=""images/causal/causal_series_11/causal_series_11_a.jpg"" style=""width: 300px; height: 300px;"" />
              </div>","null",""
"","","","","","html-keyboard-response","12","118946","0.0-12.0","B68BD0E6F41A485B82915E7849D16C84","9e81d25a-58c6-4cec-ba09-222e1266eefb","7c9f784d-5202-4c36-a6e2-1fcf7bf41701","","null","<div style=""display: flex; justify-content: center; align-items: center;"">
                <img src=""images/causal/causal_series_11/causal_series_11_b.jpg"" style=""width: 300px; height: 300px;"" />
              </div>","null",""
"","","","","","html-keyboard-response","13","121948","0.0-13.0","B68BD0E6F41A485B82915E7849D16C84","9e81d25a-58c6-4cec-ba09-222e1266eefb","7c9f784d-5202-4c36-a6e2-1fcf7bf41701","","null","<div style=""display: flex; justify-content: center; align-items: center;"">
                <img src=""images/causal/causal_series_11/causal_series_11_c.jpg"" style=""width: 300px; height: 300px;"" />
              </div>","null",""
"","","","","","html-button-response","14","124480","0.0-14.0","B68BD0E6F41A485B82915E7849D16C84","9e81d25a-58c6-4cec-ba09-222e1266eefb","7c9f784d-5202-4c36-a6e2-1fcf7bf41701","","2530","
    <div style=""display: flex; justify-content: center; align-items: center;"">
      <img src=""images/blue_deck_1.png"" style=""width: 300px; height: 300px; margin-right: 10px;"" />
      <img src=""images/red_deck_2.png"" style=""width: 300px; height: 300px;"" />
    </div>","1","1"
"","","","","","html-keyboard-response","15","127481","0.0-15.0-1.0-0.0","B68BD0E6F41A485B82915E7849D16C84","9e81d25a-58c6-4cec-ba09-222e1266eefb","7c9f784d-5202-4c36-a6e2-1fcf7bf41701","","null","<div style=""display: flex; justify-content: center; align-items: center;"">
                <img src=""images/semantic/semantic_series_10/semantic_series_10_d.jpg"" style=""width: 300px; height: 300px;"" />
              </div>","null",""
"","","","","","html-keyboard-response","16","130484","0.0-16.0","B68BD0E6F41A485B82915E7849D16C84","9e81d25a-58c6-4cec-ba09-222e1266eefb","7c9f784d-5202-4c36-a6e2-1fcf7bf41701","","null","<div style=""display: flex; justify-content: center; align-items: center;"">
                <img src=""images/other/blank.jpg"" style=""width: 300px; height: 300px;"" />
              </div>","null",""
"","","","","","html-keyboard-response","17","133485","0.0-17.0","B68BD0E6F41A485B82915E7849D16C84","9e81d25a-58c6-4cec-ba09-222e1266eefb","7c9f784d-5202-4c36-a6e2-1fcf7bf41701","","null","<div style=""display: flex; justify-content: center; align-items: center;"">
                <img src=""images/causal/causal_series_5/causal_series_5_a.jpg"" style=""width: 300px; height: 300px;"" />
              </div>","null",""
"","","","","","html-keyboard-response","18","136488","0.0-18.0","B68BD0E6F41A485B82915E7849D16C84","9e81d25a-58c6-4cec-ba09-222e1266eefb","7c9f784d-5202-4c36-a6e2-1fcf7bf41701","","null","<div style=""display: flex; justify-content: center; align-items: center;"">
                <img src=""images/causal/causal_series_5/causal_series_5_b.jpg"" style=""width: 300px; height: 300px;"" />
              </div>","null",""
"","","","","","html-keyboard-response","19","139491","0.0-19.0","B68BD0E6F41A485B82915E7849D16C84","9e81d25a-58c6-4cec-ba09-222e1266eefb","7c9f784d-5202-4c36-a6e2-1fcf7bf41701","","null","<div style=""display: flex; justify-content: center; align-items: center;"">
                <img src=""images/causal/causal_series_5/causal_series_5_c.jpg"" style=""width: 300px; height: 300px;"" />
              </div>","null",""
"","","","","","html-button-response","20","143328","0.0-20.0","B68BD0E6F41A485B82915E7849D16C84","9e81d25a-58c6-4cec-ba09-222e1266eefb","7c9f784d-5202-4c36-a6e2-1fcf7bf41701","","3837","
    <div style=""display: flex; justify-content: center; align-items: center;"">
      <img src=""images/blue_deck_1.png"" style=""width: 300px; height: 300px; margin-right: 10px;"" />
      <img src=""images/red_deck_2.png"" style=""width: 300px; height: 300px;"" />
    </div>","1","1"
"","","","","","html-keyboard-response","21","146331","0.0-21.0-1.0-0.0","B68BD0E6F41A485B82915E7849D16C84","9e81d25a-58c6-4cec-ba09-222e1266eefb","7c9f784d-5202-4c36-a6e2-1fcf7bf41701","","null","<div style=""display: flex; justify-content: center; align-items: center;"">
                <img src=""images/semantic/semantic_series_4/semantic_series_4_d.jpg"" style=""width: 300px; height: 300px;"" />
              </div>","null",""
"","","","","","html-keyboard-response","22","149332","0.0-22.0","B68BD0E6F41A485B82915E7849D16C84","9e81d25a-58c6-4cec-ba09-222e1266eefb","7c9f784d-5202-4c36-a6e2-1fcf7bf41701","","null","<div style=""display: flex; justify-content: center; align-items: center;"">
                <img src=""images/other/blank.jpg"" style=""width: 300px; height: 300px;"" />
              </div>","null",""
"","","","","","html-keyboard-response","23","152333","0.0-23.0","B68BD0E6F41A485B82915E7849D16C84","9e81d25a-58c6-4cec-ba09-222e1266eefb","7c9f784d-5202-4c36-a6e2-1fcf7bf41701","","null","<div style=""display: flex; justify-content: center; align-items: center;"">
                <img src=""images/causal/causal_series_1/causal_series_1_a.jpg"" style=""width: 300px; height: 300px;"" />
              </div>","null",""
"","","","","","html-keyboard-response","24","155334","0.0-24.0","B68BD0E6F41A485B82915E7849D16C84","9e81d25a-58c6-4cec-ba09-222e1266eefb","7c9f784d-5202-4c36-a6e2-1fcf7bf41701","","null","<div style=""display: flex; justify-content: center; align-items: center;"">
                <img src=""images/causal/causal_series_1/causal_series_1_b.jpg"" style=""width: 300px; height: 300px;"" />
              </div>","null",""
"","","","","","html-keyboard-response","25","158337","0.0-25.0","B68BD0E6F41A485B82915E7849D16C84","9e81d25a-58c6-4cec-ba09-222e1266eefb","7c9f784d-5202-4c36-a6e2-1fcf7bf41701","","null","<div style=""display: flex; justify-content: center; align-items: center;"">
                <img src=""images/causal/causal_series_1/causal_series_1_c.jpg"" style=""width: 300px; height: 300px;"" />
              </div>","null",""
"","","","","","html-button-response","26","160635","0.0-26.0","B68BD0E6F41A485B82915E7849D16C84","9e81d25a-58c6-4cec-ba09-222e1266eefb","7c9f784d-5202-4c36-a6e2-1fcf7bf41701","","2297","
    <div style=""display: flex; justify-content: center; align-items: center;"">
      <img src=""images/blue_deck_1.png"" style=""width: 300px; height: 300px; margin-right: 10px;"" />
      <img src=""images/red_deck_2.png"" style=""width: 300px; height: 300px;"" />
    </div>","0","0"
"","","","","","html-keyboard-response","27","163638","0.0-27.0-0.0-0.0","B68BD0E6F41A485B82915E7849D16C84","9e81d25a-58c6-4cec-ba09-222e1266eefb","7c9f784d-5202-4c36-a6e2-1fcf7bf41701","","null","<div style=""display: flex; justify-content: center; align-items: center;"">
                <img src=""images/causal/causal_series_1/causal_series_1_d.jpg"" style=""width: 300px; height: 300px;"" />
              </div>","null",""
"","","","","","html-keyboard-response","28","166640","0.0-28.0","B68BD0E6F41A485B82915E7849D16C84","9e81d25a-58c6-4cec-ba09-222e1266eefb","7c9f784d-5202-4c36-a6e2-1fcf7bf41701","","null","<div style=""display: flex; justify-content: center; align-items: center;"">
                <img src=""images/other/blank.jpg"" style=""width: 300px; height: 300px;"" />
              </div>","null",""
"","","","","","html-keyboard-response","29","169643","0.0-29.0","B68BD0E6F41A485B82915E7849D16C84","9e81d25a-58c6-4cec-ba09-222e1266eefb","7c9f784d-5202-4c36-a6e2-1fcf7bf41701","","null","<div style=""display: flex; justify-content: center; align-items: center;"">
                <img src=""images/causal/causal_series_6/causal_series_6_a.jpg"" style=""width: 300px; height: 300px;"" />
              </div>","null",""
"","","","","","html-keyboard-response","30","172644","0.0-30.0","B68BD0E6F41A485B82915E7849D16C84","9e81d25a-58c6-4cec-ba09-222e1266eefb","7c9f784d-5202-4c36-a6e2-1fcf7bf41701","","null","<div style=""display: flex; justify-content: center; align-items: center;"">
                <img src=""images/causal/causal_series_6/causal_series_6_b.jpg"" style=""width: 300px; height: 300px;"" />
              </div>","null",""
"","","","","","html-keyboard-response","31","175646","0.0-31.0","B68BD0E6F41A485B82915E7849D16C84","9e81d25a-58c6-4cec-ba09-222e1266eefb","7c9f784d-5202-4c36-a6e2-1fcf7bf41701","","null","<div style=""display: flex; justify-content: center; align-items: center;"">
                <img src=""images/causal/causal_series_6/causal_series_6_c.jpg"" style=""width: 300px; height: 300px;"" />
              </div>","null",""
"","","","","","html-button-response","32","178696","0.0-32.0","B68BD0E6F41A485B82915E7849D16C84","9e81d25a-58c6-4cec-ba09-222e1266eefb","7c9f784d-5202-4c36-a6e2-1fcf7bf41701","","3048","
    <div style=""display: flex; justify-content: center; align-items: center;"">
      <img src=""images/blue_deck_1.png"" style=""width: 300px; height: 300px; margin-right: 10px;"" />
      <img src=""images/red_deck_2.png"" style=""width: 300px; height: 300px;"" />
    </div>","0","0"
"","","","","","html-keyboard-response","33","181698","0.0-33.0-0.0-0.0","B68BD0E6F41A485B82915E7849D16C84","9e81d25a-58c6-4cec-ba09-222e1266eefb","7c9f784d-5202-4c36-a6e2-1fcf7bf41701","","null","<div style=""display: flex; justify-content: center; align-items: center;"">
                <img src=""images/causal/causal_series_6/causal_series_6_d.jpg"" style=""width: 300px; height: 300px;"" />
              </div>","null",""
"","","","","","html-keyboard-response","34","184701","0.0-34.0","B68BD0E6F41A485B82915E7849D16C84","9e81d25a-58c6-4cec-ba09-222e1266eefb","7c9f784d-5202-4c36-a6e2-1fcf7bf41701","","null","<div style=""display: flex; justify-content: center; align-items: center;"">
                <img src=""images/other/blank.jpg"" style=""width: 300px; height: 300px;"" />
              </div>","null",""
"","","","","","html-keyboard-response","35","187702","0.0-35.0","B68BD0E6F41A485B82915E7849D16C84","9e81d25a-58c6-4cec-ba09-222e1266eefb","7c9f784d-5202-4c36-a6e2-1fcf7bf41701","","null","<div style=""display: flex; justify-content: center; align-items: center;"">
                <img src=""images/causal/causal_series_10/causal_series_10_a.jpg"" style=""width: 300px; height: 300px;"" />
              </div>","null",""
"","","","","","html-keyboard-response","36","190703","0.0-36.0","B68BD0E6F41A485B82915E7849D16C84","9e81d25a-58c6-4cec-ba09-222e1266eefb","7c9f784d-5202-4c36-a6e2-1fcf7bf41701","","null","<div style=""display: flex; justify-content: center; align-items: center;"">
                <img src=""images/causal/causal_series_10/causal_series_10_b.jpg"" style=""width: 300px; height: 300px;"" />
              </div>","null",""
"","","","","","html-keyboard-response","37","193704","0.0-37.0","B68BD0E6F41A485B82915E7849D16C84","9e81d25a-58c6-4cec-ba09-222e1266eefb","7c9f784d-5202-4c36-a6e2-1fcf7bf41701","","null","<div style=""display: flex; justify-content: center; align-items: center;"">
                <img src=""images/causal/causal_series_10/causal_series_10_c.jpg"" style=""width: 300px; height: 300px;"" />
              </div>","null",""
"","","","","","html-button-response","38","197535","0.0-38.0","B68BD0E6F41A485B82915E7849D16C84","9e81d25a-58c6-4cec-ba09-222e1266eefb","7c9f784d-5202-4c36-a6e2-1fcf7bf41701","","3829","
    <div style=""display: flex; justify-content: center; align-items: center;"">
      <img src=""images/blue_deck_1.png"" style=""width: 300px; height: 300px; margin-right: 10px;"" />
      <img src=""images/red_deck_2.png"" style=""width: 300px; height: 300px;"" />
    </div>","1","1"
"","","","","","html-keyboard-response","39","200537","0.0-39.0-1.0-0.0","B68BD0E6F41A485B82915E7849D16C84","9e81d25a-58c6-4cec-ba09-222e1266eefb","7c9f784d-5202-4c36-a6e2-1fcf7bf41701","","null","<div style=""display: flex; justify-content: center; align-items: center;"">
                <img src=""images/semantic/semantic_series_9/semantic_series_9_d.jpg"" style=""width: 300px; height: 300px;"" />
              </div>","null",""
"","","","","","html-keyboard-response","40","203539","0.0-40.0","B68BD0E6F41A485B82915E7849D16C84","9e81d25a-58c6-4cec-ba09-222e1266eefb","7c9f784d-5202-4c36-a6e2-1fcf7bf41701","","null","<div style=""display: flex; justify-content: center; align-items: center;"">
                <img src=""images/other/blank.jpg"" style=""width: 300px; height: 300px;"" />
              </div>","null",""
"","","","","","html-keyboard-response","41","206542","0.0-41.0","B68BD0E6F41A485B82915E7849D16C84","9e81d25a-58c6-4cec-ba09-222e1266eefb","7c9f784d-5202-4c36-a6e2-1fcf7bf41701","","null","<div style=""display: flex; justify-content: center; align-items: center;"">
                <img src=""images/causal/causal_series_13/causal_series_13_a.jpg"" style=""width: 300px; height: 300px;"" />
              </div>","null",""
"","","","","","html-keyboard-response","42","209543","0.0-42.0","B68BD0E6F41A485B82915E7849D16C84","9e81d25a-58c6-4cec-ba09-222e1266eefb","7c9f784d-5202-4c36-a6e2-1fcf7bf41701","","null","<div style=""display: flex; justify-content: center; align-items: center;"">
                <img src=""images/causal/causal_series_13/causal_series_13_b.jpg"" style=""width: 300px; height: 300px;"" />
              </div>","null",""
"","","","","","html-keyboard-response","43","212546","0.0-43.0","B68BD0E6F41A485B82915E7849D16C84","9e81d25a-58c6-4cec-ba09-222e1266eefb","7c9f784d-5202-4c36-a6e2-1fcf7bf41701","","null","<div style=""display: flex; justify-content: center; align-items: center;"">
                <img src=""images/causal/causal_series_13/causal_series_13_c.jpg"" style=""width: 300px; height: 300px;"" />
              </div>","null",""
"","","","","","html-button-response","44","214869","0.0-44.0","B68BD0E6F41A485B82915E7849D16C84","9e81d25a-58c6-4cec-ba09-222e1266eefb","7c9f784d-5202-4c36-a6e2-1fcf7bf41701","","2321","
    <div style=""display: flex; justify-content: center; align-items: center;"">
      <img src=""images/blue_deck_1.png"" style=""width: 300px; height: 300px; margin-right: 10px;"" />
      <img src=""images/red_deck_2.png"" style=""width: 300px; height: 300px;"" />
    </div>","0","0"
"","","","","","html-keyboard-response","45","217871","0.0-45.0-0.0-0.0","B68BD0E6F41A485B82915E7849D16C84","9e81d25a-58c6-4cec-ba09-222e1266eefb","7c9f784d-5202-4c36-a6e2-1fcf7bf41701","","null","<div style=""display: flex; justify-content: center; align-items: center;"">
                <img src=""images/causal/causal_series_13/causal_series_13_d.jpg"" style=""width: 300px; height: 300px;"" />
              </div>","null",""
"","","","","","html-keyboard-response","46","220874","0.0-46.0","B68BD0E6F41A485B82915E7849D16C84","9e81d25a-58c6-4cec-ba09-222e1266eefb","7c9f784d-5202-4c36-a6e2-1fcf7bf41701","","null","<div style=""display: flex; justify-content: center; align-items: center;"">
                <img src=""images/other/blank.jpg"" style=""width: 300px; height: 300px;"" />
              </div>","null",""
"","","","","","html-keyboard-response","47","223875","0.0-47.0","B68BD0E6F41A485B82915E7849D16C84","9e81d25a-58c6-4cec-ba09-222e1266eefb","7c9f784d-5202-4c36-a6e2-1fcf7bf41701","","null","<div style=""display: flex; justify-content: center; align-items: center;"">
                <img src=""images/causal/causal_series_9/causal_series_9_a.jpg"" style=""width: 300px; height: 300px;"" />
              </div>","null",""
"","","","","","html-keyboard-response","48","226877","0.0-48.0","B68BD0E6F41A485B82915E7849D16C84","9e81d25a-58c6-4cec-ba09-222e1266eefb","7c9f784d-5202-4c36-a6e2-1fcf7bf41701","","null","<div style=""display: flex; justify-content: center; align-items: center;"">
                <img src=""images/causal/causal_series_9/causal_series_9_b.jpg"" style=""width: 300px; height: 300px;"" />
              </div>","null",""
"","","","","","html-keyboard-response","49","229879","0.0-49.0","B68BD0E6F41A485B82915E7849D16C84","9e81d25a-58c6-4cec-ba09-222e1266eefb","7c9f784d-5202-4c36-a6e2-1fcf7bf41701","","null","<div style=""display: flex; justify-content: center; align-items: center;"">
                <img src=""images/causal/causal_series_9/causal_series_9_c.jpg"" style=""width: 300px; height: 300px;"" />
              </div>","null",""
"","","","","","html-button-response","50","230863","0.0-50.0","B68BD0E6F41A485B82915E7849D16C84","9e81d25a-58c6-4cec-ba09-222e1266eefb","7c9f784d-5202-4c36-a6e2-1fcf7bf41701","","983","
    <div style=""display: flex; justify-content: center; align-items: center;"">
      <img src=""images/blue_deck_1.png"" style=""width: 300px; height: 300px; margin-right: 10px;"" />
      <img src=""images/red_deck_2.png"" style=""width: 300px; height: 300px;"" />
    </div>","0","0"
"","","","","","html-keyboard-response","51","233865","0.0-51.0-0.0-0.0","B68BD0E6F41A485B82915E7849D16C84","9e81d25a-58c6-4cec-ba09-222e1266eefb","7c9f784d-5202-4c36-a6e2-1fcf7bf41701","","null","<div style=""display: flex; justify-content: center; align-items: center;"">
                <img src=""images/causal/causal_series_9/causal_series_9_d.jpg"" style=""width: 300px; height: 300px;"" />
              </div>","null",""
"","","","","","html-keyboard-response","52","236867","0.0-52.0","B68BD0E6F41A485B82915E7849D16C84","9e81d25a-58c6-4cec-ba09-222e1266eefb","7c9f784d-5202-4c36-a6e2-1fcf7bf41701","","null","<div style=""display: flex; justify-content: center; align-items: center;"">
                <img src=""images/other/blank.jpg"" style=""width: 300px; height: 300px;"" />
              </div>","null",""
"","","","","","html-keyboard-response","53","239870","0.0-53.0","B68BD0E6F41A485B82915E7849D16C84","9e81d25a-58c6-4cec-ba09-222e1266eefb","7c9f784d-5202-4c36-a6e2-1fcf7bf41701","","null","<div style=""display: flex; justify-content: center; align-items: center;"">
                <img src=""images/causal/causal_series_7/causal_series_7_a.jpg"" style=""width: 300px; height: 300px;"" />
              </div>","null",""
"","","","","","html-keyboard-response","54","242871","0.0-54.0","B68BD0E6F41A485B82915E7849D16C84","9e81d25a-58c6-4cec-ba09-222e1266eefb","7c9f784d-5202-4c36-a6e2-1fcf7bf41701","","null","<div style=""display: flex; justify-content: center; align-items: center;"">
                <img src=""images/causal/causal_series_7/causal_series_7_b.jpg"" style=""width: 300px; height: 300px;"" />
              </div>","null",""
"","","","","","html-keyboard-response","55","245874","0.0-55.0","B68BD0E6F41A485B82915E7849D16C84","9e81d25a-58c6-4cec-ba09-222e1266eefb","7c9f784d-5202-4c36-a6e2-1fcf7bf41701","","null","<div style=""display: flex; justify-content: center; align-items: center;"">
                <img src=""images/causal/causal_series_7/causal_series_7_c.jpg"" style=""width: 300px; height: 300px;"" />
              </div>","null",""
"","","","","","html-button-response","56","247410","0.0-56.0","B68BD0E6F41A485B82915E7849D16C84","9e81d25a-58c6-4cec-ba09-222e1266eefb","7c9f784d-5202-4c36-a6e2-1fcf7bf41701","","1535","
    <div style=""display: flex; justify-content: center; align-items: center;"">
      <img src=""images/blue_deck_1.png"" style=""width: 300px; height: 300px; margin-right: 10px;"" />
      <img src=""images/red_deck_2.png"" style=""width: 300px; height: 300px;"" />
    </div>","0","0"
"","","","","","html-keyboard-response","57","250412","0.0-57.0-0.0-0.0","B68BD0E6F41A485B82915E7849D16C84","9e81d25a-58c6-4cec-ba09-222e1266eefb","7c9f784d-5202-4c36-a6e2-1fcf7bf41701","","null","<div style=""display: flex; justify-content: center; align-items: center;"">
                <img src=""images/causal/causal_series_7/causal_series_7_d.jpg"" style=""width: 300px; height: 300px;"" />
              </div>","null",""
"","","","","","html-keyboard-response","58","253413","0.0-58.0","B68BD0E6F41A485B82915E7849D16C84","9e81d25a-58c6-4cec-ba09-222e1266eefb","7c9f784d-5202-4c36-a6e2-1fcf7bf41701","","null","<div style=""display: flex; justify-content: center; align-items: center;"">
                <img src=""images/other/blank.jpg"" style=""width: 300px; height: 300px;"" />
              </div>","null",""
"","","","","","html-keyboard-response","59","256414","0.0-59.0","B68BD0E6F41A485B82915E7849D16C84","9e81d25a-58c6-4cec-ba09-222e1266eefb","7c9f784d-5202-4c36-a6e2-1fcf7bf41701","","null","<div style=""display: flex; justify-content: center; align-items: center;"">
                <img src=""images/causal/causal_series_4/causal_series_4_a.jpg"" style=""width: 300px; height: 300px;"" />
              </div>","null",""
"","","","","","html-keyboard-response","60","259416","0.0-60.0","B68BD0E6F41A485B82915E7849D16C84","9e81d25a-58c6-4cec-ba09-222e1266eefb","7c9f784d-5202-4c36-a6e2-1fcf7bf41701","","null","<div style=""display: flex; justify-content: center; align-items: center;"">
                <img src=""images/causal/causal_series_4/causal_series_4_b.jpg"" style=""width: 300px; height: 300px;"" />
              </div>","null",""
"","","","","","html-keyboard-response","61","262418","0.0-61.0","B68BD0E6F41A485B82915E7849D16C84","9e81d25a-58c6-4cec-ba09-222e1266eefb","7c9f784d-5202-4c36-a6e2-1fcf7bf41701","","null","<div style=""display: flex; justify-content: center; align-items: center;"">
                <img src=""images/causal/causal_series_4/causal_series_4_c.jpg"" style=""width: 300px; height: 300px;"" />
              </div>","null",""
"","","","","","html-button-response","62","263624","0.0-62.0","B68BD0E6F41A485B82915E7849D16C84","9e81d25a-58c6-4cec-ba09-222e1266eefb","7c9f784d-5202-4c36-a6e2-1fcf7bf41701","","1205","
    <div style=""display: flex; justify-content: center; align-items: center;"">
      <img src=""images/blue_deck_1.png"" style=""width: 300px; height: 300px; margin-right: 10px;"" />
      <img src=""images/red_deck_2.png"" style=""width: 300px; height: 300px;"" />
    </div>","0","0"
"","","","","","html-keyboard-response","63","266627","0.0-63.0-0.0-0.0","B68BD0E6F41A485B82915E7849D16C84","9e81d25a-58c6-4cec-ba09-222e1266eefb","7c9f784d-5202-4c36-a6e2-1fcf7bf41701","","null","<div style=""display: flex; justify-content: center; align-items: center;"">
                <img src=""images/causal/causal_series_4/causal_series_4_d.jpg"" style=""width: 300px; height: 300px;"" />
              </div>","null",""
"","","","","","html-keyboard-response","64","269629","0.0-64.0","B68BD0E6F41A485B82915E7849D16C84","9e81d25a-58c6-4cec-ba09-222e1266eefb","7c9f784d-5202-4c36-a6e2-1fcf7bf41701","","null","<div style=""display: flex; justify-content: center; align-items: center;"">
                <img src=""images/other/blank.jpg"" style=""width: 300px; height: 300px;"" />
              </div>","null",""
"","","","","","html-keyboard-response","65","272631","0.0-65.0","B68BD0E6F41A485B82915E7849D16C84","9e81d25a-58c6-4cec-ba09-222e1266eefb","7c9f784d-5202-4c36-a6e2-1fcf7bf41701","","null","<div style=""display: flex; justify-content: center; align-items: center;"">
                <img src=""images/causal/causal_series_8/causal_series_8_a.jpg"" style=""width: 300px; height: 300px;"" />
              </div>","null",""
"","","","","","html-keyboard-response","66","275633","0.0-66.0","B68BD0E6F41A485B82915E7849D16C84","9e81d25a-58c6-4cec-ba09-222e1266eefb","7c9f784d-5202-4c36-a6e2-1fcf7bf41701","","null","<div style=""display: flex; justify-content: center; align-items: center;"">
                <img src=""images/causal/causal_series_8/causal_series_8_b.jpg"" style=""width: 300px; height: 300px;"" />
              </div>","null",""
"","","","","","html-keyboard-response","67","278635","0.0-67.0","B68BD0E6F41A485B82915E7849D16C84","9e81d25a-58c6-4cec-ba09-222e1266eefb","7c9f784d-5202-4c36-a6e2-1fcf7bf41701","","null","<div style=""display: flex; justify-content: center; align-items: center;"">
                <img src=""images/causal/causal_series_8/causal_series_8_c.jpg"" style=""width: 300px; height: 300px;"" />
              </div>","null",""
"","","","","","html-button-response","68","280354","0.0-68.0","B68BD0E6F41A485B82915E7849D16C84","9e81d25a-58c6-4cec-ba09-222e1266eefb","7c9f784d-5202-4c36-a6e2-1fcf7bf41701","","1718","
    <div style=""display: flex; justify-content: center; align-items: center;"">
      <img src=""images/blue_deck_1.png"" style=""width: 300px; height: 300px; margin-right: 10px;"" />
      <img src=""images/red_deck_2.png"" style=""width: 300px; height: 300px;"" />
    </div>","0","0"
"","","","","","html-keyboard-response","69","283356","0.0-69.0-0.0-0.0","B68BD0E6F41A485B82915E7849D16C84","9e81d25a-58c6-4cec-ba09-222e1266eefb","7c9f784d-5202-4c36-a6e2-1fcf7bf41701","","null","<div style=""display: flex; justify-content: center; align-items: center;"">
                <img src=""images/causal/causal_series_8/causal_series_8_d.jpg"" style=""width: 300px; height: 300px;"" />
              </div>","null",""
"","","","","","html-keyboard-response","70","286359","0.0-70.0","B68BD0E6F41A485B82915E7849D16C84","9e81d25a-58c6-4cec-ba09-222e1266eefb","7c9f784d-5202-4c36-a6e2-1fcf7bf41701","","null","<div style=""display: flex; justify-content: center; align-items: center;"">
                <img src=""images/other/blank.jpg"" style=""width: 300px; height: 300px;"" />
              </div>","null",""
"","","","","","html-keyboard-response","71","289362","0.0-71.0","B68BD0E6F41A485B82915E7849D16C84","9e81d25a-58c6-4cec-ba09-222e1266eefb","7c9f784d-5202-4c36-a6e2-1fcf7bf41701","","null","<div style=""display: flex; justify-content: center; align-items: center;"">
                <img src=""images/causal/causal_series_12/causal_series_12_a.jpg"" style=""width: 300px; height: 300px;"" />
              </div>","null",""
"","","","","","html-keyboard-response","72","292364","0.0-72.0","B68BD0E6F41A485B82915E7849D16C84","9e81d25a-58c6-4cec-ba09-222e1266eefb","7c9f784d-5202-4c36-a6e2-1fcf7bf41701","","null","<div style=""display: flex; justify-content: center; align-items: center;"">
                <img src=""images/causal/causal_series_12/causal_series_12_b.jpg"" style=""width: 300px; height: 300px;"" />
              </div>","null",""
"","","","","","html-keyboard-response","73","295366","0.0-73.0","B68BD0E6F41A485B82915E7849D16C84","9e81d25a-58c6-4cec-ba09-222e1266eefb","7c9f784d-5202-4c36-a6e2-1fcf7bf41701","","null","<div style=""display: flex; justify-content: center; align-items: center;"">
                <img src=""images/causal/causal_series_12/causal_series_12_c.jpg"" style=""width: 300px; height: 300px;"" />
              </div>","null",""
"","","","","","html-button-response","74","295981","0.0-74.0","B68BD0E6F41A485B82915E7849D16C84","9e81d25a-58c6-4cec-ba09-222e1266eefb","7c9f784d-5202-4c36-a6e2-1fcf7bf41701","","614","
    <div style=""display: flex; justify-content: center; align-items: center;"">
      <img src=""images/blue_deck_1.png"" style=""width: 300px; height: 300px; margin-right: 10px;"" />
      <img src=""images/red_deck_2.png"" style=""width: 300px; height: 300px;"" />
    </div>","0","0"
"","","","","","html-keyboard-response","75","298984","0.0-75.0-0.0-0.0","B68BD0E6F41A485B82915E7849D16C84","9e81d25a-58c6-4cec-ba09-222e1266eefb","7c9f784d-5202-4c36-a6e2-1fcf7bf41701","","null","<div style=""display: flex; justify-content: center; align-items: center;"">
                <img src=""images/causal/causal_series_12/causal_series_12_d.jpg"" style=""width: 300px; height: 300px;"" />
              </div>","null",""
"","","","","","html-keyboard-response","76","301986","0.0-76.0","B68BD0E6F41A485B82915E7849D16C84","9e81d25a-58c6-4cec-ba09-222e1266eefb","7c9f784d-5202-4c36-a6e2-1fcf7bf41701","","null","<div style=""display: flex; justify-content: center; align-items: center;"">
                <img src=""images/other/blank.jpg"" style=""width: 300px; height: 300px;"" />
              </div>","null",""
"","","","","","html-keyboard-response","77","304988","0.0-77.0","B68BD0E6F41A485B82915E7849D16C84","9e81d25a-58c6-4cec-ba09-222e1266eefb","7c9f784d-5202-4c36-a6e2-1fcf7bf41701","","null","<div style=""display: flex; justify-content: center; align-items: center;"">
                <img src=""images/causal/causal_series_15/causal_series_15_a.jpg"" style=""width: 300px; height: 300px;"" />
              </div>","null",""
"","","","","","html-keyboard-response","78","307990","0.0-78.0","B68BD0E6F41A485B82915E7849D16C84","9e81d25a-58c6-4cec-ba09-222e1266eefb","7c9f784d-5202-4c36-a6e2-1fcf7bf41701","","null","<div style=""display: flex; justify-content: center; align-items: center;"">
                <img src=""images/causal/causal_series_15/causal_series_15_b.jpg"" style=""width: 300px; height: 300px;"" />
              </div>","null",""
"","","","","","html-keyboard-response","79","310992","0.0-79.0","B68BD0E6F41A485B82915E7849D16C84","9e81d25a-58c6-4cec-ba09-222e1266eefb","7c9f784d-5202-4c36-a6e2-1fcf7bf41701","","null","<div style=""display: flex; justify-content: center; align-items: center;"">
                <img src=""images/causal/causal_series_15/causal_series_15_c.jpg"" style=""width: 300px; height: 300px;"" />
              </div>","null",""
"","","","","","html-button-response","80","311906","0.0-80.0","B68BD0E6F41A485B82915E7849D16C84","9e81d25a-58c6-4cec-ba09-222e1266eefb","7c9f784d-5202-4c36-a6e2-1fcf7bf41701","","914","
    <div style=""display: flex; justify-content: center; align-items: center;"">
      <img src=""images/blue_deck_1.png"" style=""width: 300px; height: 300px; margin-right: 10px;"" />
      <img src=""images/red_deck_2.png"" style=""width: 300px; height: 300px;"" />
    </div>","0","0"
"","","","","","html-keyboard-response","81","314908","0.0-81.0-0.0-0.0","B68BD0E6F41A485B82915E7849D16C84","9e81d25a-58c6-4cec-ba09-222e1266eefb","7c9f784d-5202-4c36-a6e2-1fcf7bf41701","","null","<div style=""display: flex; justify-content: center; align-items: center;"">
                <img src=""images/causal/causal_series_15/causal_series_15_d.jpg"" style=""width: 300px; height: 300px;"" />
              </div>","null",""
"","","","","","html-keyboard-response","82","317911","0.0-82.0","B68BD0E6F41A485B82915E7849D16C84","9e81d25a-58c6-4cec-ba09-222e1266eefb","7c9f784d-5202-4c36-a6e2-1fcf7bf41701","","null","<div style=""display: flex; justify-content: center; align-items: center;"">
                <img src=""images/other/blank.jpg"" style=""width: 300px; height: 300px;"" />
              </div>","null",""
"","","","","","html-keyboard-response","83","320912","0.0-83.0","B68BD0E6F41A485B82915E7849D16C84","9e81d25a-58c6-4cec-ba09-222e1266eefb","7c9f784d-5202-4c36-a6e2-1fcf7bf41701","","null","<div style=""display: flex; justify-content: center; align-items: center;"">
                <img src=""images/causal/causal_series_3/causal_series_3_a.jpg"" style=""width: 300px; height: 300px;"" />
              </div>","null",""
"","","","","","html-keyboard-response","84","323913","0.0-84.0","B68BD0E6F41A485B82915E7849D16C84","9e81d25a-58c6-4cec-ba09-222e1266eefb","7c9f784d-5202-4c36-a6e2-1fcf7bf41701","","null","<div style=""display: flex; justify-content: center; align-items: center;"">
                <img src=""images/causal/causal_series_3/causal_series_3_b.jpg"" style=""width: 300px; height: 300px;"" />
              </div>","null",""
"","","","","","html-keyboard-response","85","326914","0.0-85.0","B68BD0E6F41A485B82915E7849D16C84","9e81d25a-58c6-4cec-ba09-222e1266eefb","7c9f784d-5202-4c36-a6e2-1fcf7bf41701","","null","<div style=""display: flex; justify-content: center; align-items: center;"">
                <img src=""images/causal/causal_series_3/causal_series_3_c.jpg"" style=""width: 300px; height: 300px;"" />
              </div>","null",""
"","","","","","html-button-response","86","327840","0.0-86.0","B68BD0E6F41A485B82915E7849D16C84","9e81d25a-58c6-4cec-ba09-222e1266eefb","7c9f784d-5202-4c36-a6e2-1fcf7bf41701","","925","
    <div style=""display: flex; justify-content: center; align-items: center;"">
      <img src=""images/blue_deck_1.png"" style=""width: 300px; height: 300px; margin-right: 10px;"" />
      <img src=""images/red_deck_2.png"" style=""width: 300px; height: 300px;"" />
    </div>","0","0"
"","","","","","html-keyboard-response","87","330843","0.0-87.0-0.0-0.0","B68BD0E6F41A485B82915E7849D16C84","9e81d25a-58c6-4cec-ba09-222e1266eefb","7c9f784d-5202-4c36-a6e2-1fcf7bf41701","","null","<div style=""display: flex; justify-content: center; align-items: center;"">
                <img src=""images/causal/causal_series_3/causal_series_3_d.jpg"" style=""width: 300px; height: 300px;"" />
              </div>","null",""
"","","","","","html-keyboard-response","88","333844","0.0-88.0","B68BD0E6F41A485B82915E7849D16C84","9e81d25a-58c6-4cec-ba09-222e1266eefb","7c9f784d-5202-4c36-a6e2-1fcf7bf41701","","null","<div style=""display: flex; justify-content: center; align-items: center;"">
                <img src=""images/other/blank.jpg"" style=""width: 300px; height: 300px;"" />
              </div>","null",""
"","","","","","html-keyboard-response","89","336846","0.0-89.0","B68BD0E6F41A485B82915E7849D16C84","9e81d25a-58c6-4cec-ba09-222e1266eefb","7c9f784d-5202-4c36-a6e2-1fcf7bf41701","","null","<div style=""display: flex; justify-content: center; align-items: center;"">
                <img src=""images/causal/causal_series_18/causal_series_18_a.jpg"" style=""width: 300px; height: 300px;"" />
              </div>","null",""
"","","","","","html-keyboard-response","90","339848","0.0-90.0","B68BD0E6F41A485B82915E7849D16C84","9e81d25a-58c6-4cec-ba09-222e1266eefb","7c9f784d-5202-4c36-a6e2-1fcf7bf41701","","null","<div style=""display: flex; justify-content: center; align-items: center;"">
                <img src=""images/causal/causal_series_18/causal_series_18_b.jpg"" style=""width: 300px; height: 300px;"" />
              </div>","null",""
"","","","","","html-keyboard-response","91","342850","0.0-91.0","B68BD0E6F41A485B82915E7849D16C84","9e81d25a-58c6-4cec-ba09-222e1266eefb","7c9f784d-5202-4c36-a6e2-1fcf7bf41701","","null","<div style=""display: flex; justify-content: center; align-items: center;"">
                <img src=""images/causal/causal_series_18/causal_series_18_c.jpg"" style=""width: 300px; height: 300px;"" />
              </div>","null",""
"","","","","","html-button-response","92","343660","0.0-92.0","B68BD0E6F41A485B82915E7849D16C84","9e81d25a-58c6-4cec-ba09-222e1266eefb","7c9f784d-5202-4c36-a6e2-1fcf7bf41701","","809","
    <div style=""display: flex; justify-content: center; align-items: center;"">
      <img src=""images/blue_deck_1.png"" style=""width: 300px; height: 300px; margin-right: 10px;"" />
      <img src=""images/red_deck_2.png"" style=""width: 300px; height: 300px;"" />
    </div>","0","0"
"","","","","","html-keyboard-response","93","346662","0.0-93.0-0.0-0.0","B68BD0E6F41A485B82915E7849D16C84","9e81d25a-58c6-4cec-ba09-222e1266eefb","7c9f784d-5202-4c36-a6e2-1fcf7bf41701","","null","<div style=""display: flex; justify-content: center; align-items: center;"">
                <img src=""images/causal/causal_series_18/causal_series_18_d.jpg"" style=""width: 300px; height: 300px;"" />
              </div>","null",""
"","","","","","html-keyboard-response","94","349665","0.0-94.0","B68BD0E6F41A485B82915E7849D16C84","9e81d25a-58c6-4cec-ba09-222e1266eefb","7c9f784d-5202-4c36-a6e2-1fcf7bf41701","","null","<div style=""display: flex; justify-content: center; align-items: center;"">
                <img src=""images/other/blank.jpg"" style=""width: 300px; height: 300px;"" />
              </div>","null",""
"","","","","","html-keyboard-response","95","352667","0.0-95.0","B68BD0E6F41A485B82915E7849D16C84","9e81d25a-58c6-4cec-ba09-222e1266eefb","7c9f784d-5202-4c36-a6e2-1fcf7bf41701","","null","<div style=""display: flex; justify-content: center; align-items: center;"">
                <img src=""images/causal/causal_series_17/causal_series_17_a.jpg"" style=""width: 300px; height: 300px;"" />
              </div>","null",""
"","","","","","html-keyboard-response","96","355668","0.0-96.0","B68BD0E6F41A485B82915E7849D16C84","9e81d25a-58c6-4cec-ba09-222e1266eefb","7c9f784d-5202-4c36-a6e2-1fcf7bf41701","","null","<div style=""display: flex; justify-content: center; align-items: center;"">
                <img src=""images/causal/causal_series_17/causal_series_17_b.jpg"" style=""width: 300px; height: 300px;"" />
              </div>","null",""
"","","","","","html-keyboard-response","97","358670","0.0-97.0","B68BD0E6F41A485B82915E7849D16C84","9e81d25a-58c6-4cec-ba09-222e1266eefb","7c9f784d-5202-4c36-a6e2-1fcf7bf41701","","null","<div style=""display: flex; justify-content: center; align-items: center;"">
                <img src=""images/causal/causal_series_17/causal_series_17_c.jpg"" style=""width: 300px; height: 300px;"" />
              </div>","null",""
"","","","","","html-button-response","98","359480","0.0-98.0","B68BD0E6F41A485B82915E7849D16C84","9e81d25a-58c6-4cec-ba09-222e1266eefb","7c9f784d-5202-4c36-a6e2-1fcf7bf41701","","808","
    <div style=""display: flex; justify-content: center; align-items: center;"">
      <img src=""images/blue_deck_1.png"" style=""width: 300px; height: 300px; margin-right: 10px;"" />
      <img src=""images/red_deck_2.png"" style=""width: 300px; height: 300px;"" />
    </div>","0","0"
"","","","","","html-keyboard-response","99","362483","0.0-99.0-0.0-0.0","B68BD0E6F41A485B82915E7849D16C84","9e81d25a-58c6-4cec-ba09-222e1266eefb","7c9f784d-5202-4c36-a6e2-1fcf7bf41701","","null","<div style=""display: flex; justify-content: center; align-items: center;"">
                <img src=""images/causal/causal_series_17/causal_series_17_d.jpg"" style=""width: 300px; height: 300px;"" />
              </div>","null",""
"","","","","","html-keyboard-response","100","365485","0.0-100.0","B68BD0E6F41A485B82915E7849D16C84","9e81d25a-58c6-4cec-ba09-222e1266eefb","7c9f784d-5202-4c36-a6e2-1fcf7bf41701","","null","<div style=""display: flex; justify-content: center; align-items: center;"">
                <img src=""images/other/blank.jpg"" style=""width: 300px; height: 300px;"" />
              </div>","null",""
"","","","","","html-keyboard-response","101","368487","0.0-101.0","B68BD0E6F41A485B82915E7849D16C84","9e81d25a-58c6-4cec-ba09-222e1266eefb","7c9f784d-5202-4c36-a6e2-1fcf7bf41701","","null","<div style=""display: flex; justify-content: center; align-items: center;"">
                <img src=""images/causal/causal_series_2/causal_series_2_a.jpg"" style=""width: 300px; height: 300px;"" />
              </div>","null",""
"","","","","","html-keyboard-response","102","371490","0.0-102.0","B68BD0E6F41A485B82915E7849D16C84","9e81d25a-58c6-4cec-ba09-222e1266eefb","7c9f784d-5202-4c36-a6e2-1fcf7bf41701","","null","<div style=""display: flex; justify-content: center; align-items: center;"">
                <img src=""images/causal/causal_series_2/causal_series_2_b.jpg"" style=""width: 300px; height: 300px;"" />
              </div>","null",""
"","","","","","html-keyboard-response","103","374492","0.0-103.0","B68BD0E6F41A485B82915E7849D16C84","9e81d25a-58c6-4cec-ba09-222e1266eefb","7c9f784d-5202-4c36-a6e2-1fcf7bf41701","","null","<div style=""display: flex; justify-content: center; align-items: center;"">
                <img src=""images/causal/causal_series_2/causal_series_2_c.jpg"" style=""width: 300px; height: 300px;"" />
              </div>","null",""
"","","","","","html-button-response","104","375414","0.0-104.0","B68BD0E6F41A485B82915E7849D16C84","9e81d25a-58c6-4cec-ba09-222e1266eefb","7c9f784d-5202-4c36-a6e2-1fcf7bf41701","","921","
    <div style=""display: flex; justify-content: center; align-items: center;"">
      <img src=""images/blue_deck_1.png"" style=""width: 300px; height: 300px; margin-right: 10px;"" />
      <img src=""images/red_deck_2.png"" style=""width: 300px; height: 300px;"" />
    </div>","0","0"
"","","","","","html-keyboard-response","105","378416","0.0-105.0-0.0-0.0","B68BD0E6F41A485B82915E7849D16C84","9e81d25a-58c6-4cec-ba09-222e1266eefb","7c9f784d-5202-4c36-a6e2-1fcf7bf41701","","null","<div style=""display: flex; justify-content: center; align-items: center;"">
                <img src=""images/causal/causal_series_2/causal_series_2_d.jpg"" style=""width: 300px; height: 300px;"" />
              </div>","null",""
"","","","","","html-keyboard-response","106","381418","0.0-106.0","B68BD0E6F41A485B82915E7849D16C84","9e81d25a-58c6-4cec-ba09-222e1266eefb","7c9f784d-5202-4c36-a6e2-1fcf7bf41701","","null","<div style=""display: flex; justify-content: center; align-items: center;"">
                <img src=""images/other/blank.jpg"" style=""width: 300px; height: 300px;"" />
              </div>","null",""
"","","","","","html-keyboard-response","107","384420","0.0-107.0","B68BD0E6F41A485B82915E7849D16C84","9e81d25a-58c6-4cec-ba09-222e1266eefb","7c9f784d-5202-4c36-a6e2-1fcf7bf41701","","null","<div style=""display: flex; justify-content: center; align-items: center;"">
                <img src=""images/causal/causal_series_16/causal_series_16_a.jpg"" style=""width: 300px; height: 300px;"" />
              </div>","null",""
"","","","","","html-keyboard-response","108","387423","0.0-108.0","B68BD0E6F41A485B82915E7849D16C84","9e81d25a-58c6-4cec-ba09-222e1266eefb","7c9f784d-5202-4c36-a6e2-1fcf7bf41701","","null","<div style=""display: flex; justify-content: center; align-items: center;"">
                <img src=""images/causal/causal_series_16/causal_series_16_b.jpg"" style=""width: 300px; height: 300px;"" />
              </div>","null",""
"","","","","","html-keyboard-response","109","390425","0.0-109.0","B68BD0E6F41A485B82915E7849D16C84","9e81d25a-58c6-4cec-ba09-222e1266eefb","7c9f784d-5202-4c36-a6e2-1fcf7bf41701","","null","<div style=""display: flex; justify-content: center; align-items: center;"">
                <img src=""images/causal/causal_series_16/causal_series_16_c.jpg"" style=""width: 300px; height: 300px;"" />
              </div>","null",""
"","","","","","html-button-response","110","391025","0.0-110.0","B68BD0E6F41A485B82915E7849D16C84","9e81d25a-58c6-4cec-ba09-222e1266eefb","7c9f784d-5202-4c36-a6e2-1fcf7bf41701","","598","
    <div style=""display: flex; justify-content: center; align-items: center;"">
      <img src=""images/blue_deck_1.png"" style=""width: 300px; height: 300px; margin-right: 10px;"" />
      <img src=""images/red_deck_2.png"" style=""width: 300px; height: 300px;"" />
    </div>","0","0"
"","","","","","html-keyboard-response","111","394026","0.0-111.0-0.0-0.0","B68BD0E6F41A485B82915E7849D16C84","9e81d25a-58c6-4cec-ba09-222e1266eefb","7c9f784d-5202-4c36-a6e2-1fcf7bf41701","","null","<div style=""display: flex; justify-content: center; align-items: center;"">
                <img src=""images/causal/causal_series_16/causal_series_16_d.jpg"" style=""width: 300px; height: 300px;"" />
              </div>","null",""
"","","","","","html-keyboard-response","112","397028","0.0-112.0","B68BD0E6F41A485B82915E7849D16C84","9e81d25a-58c6-4cec-ba09-222e1266eefb","7c9f784d-5202-4c36-a6e2-1fcf7bf41701","","null","<div style=""display: flex; justify-content: center; align-items: center;"">
                <img src=""images/other/blank.jpg"" style=""width: 300px; height: 300px;"" />
              </div>","null",""
"","","","","","survey-text","113","416978","0.0-113.0","B68BD0E6F41A485B82915E7849D16C84","9e81d25a-58c6-4cec-ba09-222e1266eefb","7c9f784d-5202-4c36-a6e2-1fcf7bf41701","","19945","","{""Q0"":""the left has the correct outcome and the red has a random outcome""}",""
"","","","","","survey-text","114","454646","0.0-114.0","B68BD0E6F41A485B82915E7849D16C84","9e81d25a-58c6-4cec-ba09-222e1266eefb","7c9f784d-5202-4c36-a6e2-1fcf7bf41701","","37666","","{""Q0"":""the left because it told the end of the story""}",""
"","","","","","html-button-response","115","463423","0.0-115.0","B68BD0E6F41A485B82915E7849D16C84","9e81d25a-58c6-4cec-ba09-222e1266eefb","7c9f784d-5202-4c36-a6e2-1fcf7bf41701","","8776","Which color deck does the fourth image continue the story from the series?","0",""
"","","","","","html-button-response","116","465164","0.0-116.0","B68BD0E6F41A485B82915E7849D16C84","9e81d25a-58c6-4cec-ba09-222e1266eefb","7c9f784d-5202-4c36-a6e2-1fcf7bf41701","","1740","Which color deck does the fourth image not follow the story from the series?","1",""
"","","","","","survey-text","117","472952","0.0-117.0","B68BD0E6F41A485B82915E7849D16C84","9e81d25a-58c6-4cec-ba09-222e1266eefb","7c9f784d-5202-4c36-a6e2-1fcf7bf41701","","7786","","{""Q0"":""female"",""Q1"":""32""}",""
"","","","","","instructions","118","484808","0.0-118.0","B68BD0E6F41A485B82915E7849D16C84","9e81d25a-58c6-4cec-ba09-222e1266eefb","7c9f784d-5202-4c36-a6e2-1fcf7bf41701","[{""page_index"":0,""viewing_time"":11855}]","11856","","",""
