"success","timeout","failed_images","failed_audio","failed_video","trial_type","trial_index","time_elapsed","internal_node_id","subject","subject_id","study_id","session_id","urlvar","current_url","view_history","rt","stimulus","response","choice","question_order"
"true","false","[]","[]","[]","preload","0","2117","0.0-0.0","2D5BD668F13049FA8CDC71ECD2DDE2E2","2D5BD668F13049FA8CDC71ECD2DDE2E2","e485ade4-8b74-4c41-8921-aa31da464083","bea99957-1862-4ad8-9558-57b91e42ce64","{""participantId"":""2D5BD668F13049FA8CDC71ECD2DDE2E2"",""assignmentId"":""e485ade4-8b74-4c41-8921-aa31da464083"",""projectId"":""bea99957-1862-4ad8-9558-57b91e42ce64""}","https://test12345.live/?participantId=2D5BD668F13049FA8CDC71ECD2DDE2E2&assignmentId=e485ade4-8b74-4c41-8921-aa31da464083&projectId=bea99957-1862-4ad8-9558-57b91e42ce64","","","","","",""
"","","","","","instructions","1","4095","0.0-1.0","2D5BD668F13049FA8CDC71ECD2DDE2E2","2D5BD668F13049FA8CDC71ECD2DDE2E2","e485ade4-8b74-4c41-8921-aa31da464083","bea99957-1862-4ad8-9558-57b91e42ce64","{""participantId"":""2D5BD668F13049FA8CDC71ECD2DDE2E2"",""assignmentId"":""e485ade4-8b74-4c41-8921-aa31da464083"",""projectId"":""bea99957-1862-4ad8-9558-57b91e42ce64""}","https://test12345.live/?participantId=2D5BD668F13049FA8CDC71ECD2DDE2E2&assignmentId=e485ade4-8b74-4c41-8921-aa31da464083&projectId=bea99957-1862-4ad8-9558-57b91e42ce64","[{""page_index"":0,""viewing_time"":1977}]","1977","","","",""
"","","","","","instructions","2","25098","0.0-2.0","2D5BD668F13049FA8CDC71ECD2DDE2E2","2D5BD668F13049FA8CDC71ECD2DDE2E2","e485ade4-8b74-4c41-8921-aa31da464083","bea99957-1862-4ad8-9558-57b91e42ce64","{""participantId"":""2D5BD668F13049FA8CDC71ECD2DDE2E2"",""assignmentId"":""e485ade4-8b74-4c41-8921-aa31da464083"",""projectId"":""bea99957-1862-4ad8-9558-57b91e42ce64""}","https://test12345.live/?participantId=2D5BD668F13049FA8CDC71ECD2DDE2E2&assignmentId=e485ade4-8b74-4c41-8921-aa31da464083&projectId=bea99957-1862-4ad8-9558-57b91e42ce64","[{""page_index"":0,""viewing_time"":21003}]","21003","","","",""
"true","","","","","fullscreen","3","27369","0.0-3.0","2D5BD668F13049FA8CDC71ECD2DDE2E2","2D5BD668F13049FA8CDC71ECD2DDE2E2","e485ade4-8b74-4c41-8921-aa31da464083","bea99957-1862-4ad8-9558-57b91e42ce64","{""participantId"":""2D5BD668F13049FA8CDC71ECD2DDE2E2"",""assignmentId"":""e485ade4-8b74-4c41-8921-aa31da464083"",""projectId"":""bea99957-1862-4ad8-9558-57b91e42ce64""}","https://test12345.live/?participantId=2D5BD668F13049FA8CDC71ECD2DDE2E2&assignmentId=e485ade4-8b74-4c41-8921-aa31da464083&projectId=bea99957-1862-4ad8-9558-57b91e42ce64","","1261","","","",""
"","","","","","instructions","4","36855","0.0-4.0","2D5BD668F13049FA8CDC71ECD2DDE2E2","2D5BD668F13049FA8CDC71ECD2DDE2E2","e485ade4-8b74-4c41-8921-aa31da464083","bea99957-1862-4ad8-9558-57b91e42ce64","{""participantId"":""2D5BD668F13049FA8CDC71ECD2DDE2E2"",""assignmentId"":""e485ade4-8b74-4c41-8921-aa31da464083"",""projectId"":""bea99957-1862-4ad8-9558-57b91e42ce64""}","https://test12345.live/?participantId=2D5BD668F13049FA8CDC71ECD2DDE2E2&assignmentId=e485ade4-8b74-4c41-8921-aa31da464083&projectId=bea99957-1862-4ad8-9558-57b91e42ce64","[{""page_index"":0,""viewing_time"":9485}]","9485","","","",""
"","","","","","html-button-response","5","39499","0.0-5.0","2D5BD668F13049FA8CDC71ECD2DDE2E2","2D5BD668F13049FA8CDC71ECD2DDE2E2","e485ade4-8b74-4c41-8921-aa31da464083","bea99957-1862-4ad8-9558-57b91e42ce64","{""participantId"":""2D5BD668F13049FA8CDC71ECD2DDE2E2"",""assignmentId"":""e485ade4-8b74-4c41-8921-aa31da464083"",""projectId"":""bea99957-1862-4ad8-9558-57b91e42ce64""}","https://test12345.live/?participantId=2D5BD668F13049FA8CDC71ECD2DDE2E2&assignmentId=e485ade4-8b74-4c41-8921-aa31da464083&projectId=bea99957-1862-4ad8-9558-57b91e42ce64","","2643","
    <div style=""display: flex; justify-content: center; align-items: center;"">
      <img src=""images/red_deck_2.png"" style=""width: 300px; height: 300px; margin-right: 10px;"" />
      <img src=""images/blue_deck_1.png"" style=""width: 300px; height: 300px;"" />
    </div>","1","1",""
"","","","","","html-keyboard-response","6","42504","0.0-6.0-0.0","2D5BD668F13049FA8CDC71ECD2DDE2E2","2D5BD668F13049FA8CDC71ECD2DDE2E2","e485ade4-8b74-4c41-8921-aa31da464083","bea99957-1862-4ad8-9558-57b91e42ce64","{""participantId"":""2D5BD668F13049FA8CDC71ECD2DDE2E2"",""assignmentId"":""e485ade4-8b74-4c41-8921-aa31da464083"",""projectId"":""bea99957-1862-4ad8-9558-57b91e42ce64""}","https://test12345.live/?participantId=2D5BD668F13049FA8CDC71ECD2DDE2E2&assignmentId=e485ade4-8b74-4c41-8921-aa31da464083&projectId=bea99957-1862-4ad8-9558-57b91e42ce64","","null","<div style=""display: flex; justify-content: center; align-items: center;"">
                    <img src=""images/causal/causal_series_16/causal_series_16_a.jpg"" style=""width: 300px; height: 300px;"" />
                  </div>","null","",""
"","","","","","html-keyboard-response","7","45506","0.0-6.0-1.0","2D5BD668F13049FA8CDC71ECD2DDE2E2","2D5BD668F13049FA8CDC71ECD2DDE2E2","e485ade4-8b74-4c41-8921-aa31da464083","bea99957-1862-4ad8-9558-57b91e42ce64","{""participantId"":""2D5BD668F13049FA8CDC71ECD2DDE2E2"",""assignmentId"":""e485ade4-8b74-4c41-8921-aa31da464083"",""projectId"":""bea99957-1862-4ad8-9558-57b91e42ce64""}","https://test12345.live/?participantId=2D5BD668F13049FA8CDC71ECD2DDE2E2&assignmentId=e485ade4-8b74-4c41-8921-aa31da464083&projectId=bea99957-1862-4ad8-9558-57b91e42ce64","","null","<div style=""display: flex; justify-content: center; align-items: center;"">
                    <img src=""images/causal/causal_series_16/causal_series_16_b.jpg"" style=""width: 300px; height: 300px;"" />
                  </div>","null","",""
"","","","","","html-keyboard-response","8","48507","0.0-6.0-2.0","2D5BD668F13049FA8CDC71ECD2DDE2E2","2D5BD668F13049FA8CDC71ECD2DDE2E2","e485ade4-8b74-4c41-8921-aa31da464083","bea99957-1862-4ad8-9558-57b91e42ce64","{""participantId"":""2D5BD668F13049FA8CDC71ECD2DDE2E2"",""assignmentId"":""e485ade4-8b74-4c41-8921-aa31da464083"",""projectId"":""bea99957-1862-4ad8-9558-57b91e42ce64""}","https://test12345.live/?participantId=2D5BD668F13049FA8CDC71ECD2DDE2E2&assignmentId=e485ade4-8b74-4c41-8921-aa31da464083&projectId=bea99957-1862-4ad8-9558-57b91e42ce64","","null","<div style=""display: flex; justify-content: center; align-items: center;"">
                    <img src=""images/causal/causal_series_16/causal_series_16_c.jpg"" style=""width: 300px; height: 300px;"" />
                  </div>","null","",""
"","","","","","html-keyboard-response","9","51514","0.0-6.0-3.0","2D5BD668F13049FA8CDC71ECD2DDE2E2","2D5BD668F13049FA8CDC71ECD2DDE2E2","e485ade4-8b74-4c41-8921-aa31da464083","bea99957-1862-4ad8-9558-57b91e42ce64","{""participantId"":""2D5BD668F13049FA8CDC71ECD2DDE2E2"",""assignmentId"":""e485ade4-8b74-4c41-8921-aa31da464083"",""projectId"":""bea99957-1862-4ad8-9558-57b91e42ce64""}","https://test12345.live/?participantId=2D5BD668F13049FA8CDC71ECD2DDE2E2&assignmentId=e485ade4-8b74-4c41-8921-aa31da464083&projectId=bea99957-1862-4ad8-9558-57b91e42ce64","","null","<div style=""display: flex; justify-content: center; align-items: center;"">
                    <img src=""images/causal/causal_series_16/causal_series_16_d.jpg"" style=""width: 300px; height: 300px;"" />
                  </div>","null","",""
"","","","","","html-button-response","10","55077","0.0-8.0","2D5BD668F13049FA8CDC71ECD2DDE2E2","2D5BD668F13049FA8CDC71ECD2DDE2E2","e485ade4-8b74-4c41-8921-aa31da464083","bea99957-1862-4ad8-9558-57b91e42ce64","{""participantId"":""2D5BD668F13049FA8CDC71ECD2DDE2E2"",""assignmentId"":""e485ade4-8b74-4c41-8921-aa31da464083"",""projectId"":""bea99957-1862-4ad8-9558-57b91e42ce64""}","https://test12345.live/?participantId=2D5BD668F13049FA8CDC71ECD2DDE2E2&assignmentId=e485ade4-8b74-4c41-8921-aa31da464083&projectId=bea99957-1862-4ad8-9558-57b91e42ce64","","3562","Was there a person in the picture?","0","",""
"","","","","","survey-likert","11","59464","0.0-9.0","2D5BD668F13049FA8CDC71ECD2DDE2E2","2D5BD668F13049FA8CDC71ECD2DDE2E2","e485ade4-8b74-4c41-8921-aa31da464083","bea99957-1862-4ad8-9558-57b91e42ce64","{""participantId"":""2D5BD668F13049FA8CDC71ECD2DDE2E2"",""assignmentId"":""e485ade4-8b74-4c41-8921-aa31da464083"",""projectId"":""bea99957-1862-4ad8-9558-57b91e42ce64""}","https://test12345.live/?participantId=2D5BD668F13049FA8CDC71ECD2DDE2E2&assignmentId=e485ade4-8b74-4c41-8921-aa31da464083&projectId=bea99957-1862-4ad8-9558-57b91e42ce64","","4387","","{""Q0"":4}","","[0]"
"","","","","","html-button-response","12","60743","0.0-10.0","2D5BD668F13049FA8CDC71ECD2DDE2E2","2D5BD668F13049FA8CDC71ECD2DDE2E2","e485ade4-8b74-4c41-8921-aa31da464083","bea99957-1862-4ad8-9558-57b91e42ce64","{""participantId"":""2D5BD668F13049FA8CDC71ECD2DDE2E2"",""assignmentId"":""e485ade4-8b74-4c41-8921-aa31da464083"",""projectId"":""bea99957-1862-4ad8-9558-57b91e42ce64""}","https://test12345.live/?participantId=2D5BD668F13049FA8CDC71ECD2DDE2E2&assignmentId=e485ade4-8b74-4c41-8921-aa31da464083&projectId=bea99957-1862-4ad8-9558-57b91e42ce64","","1278","
    <div style=""display: flex; justify-content: center; align-items: center;"">
      <img src=""images/red_deck_2.png"" style=""width: 300px; height: 300px; margin-right: 10px;"" />
      <img src=""images/blue_deck_1.png"" style=""width: 300px; height: 300px;"" />
    </div>","0","0",""
"","","","","","html-keyboard-response","13","63745","0.0-12.0-0.0","2D5BD668F13049FA8CDC71ECD2DDE2E2","2D5BD668F13049FA8CDC71ECD2DDE2E2","e485ade4-8b74-4c41-8921-aa31da464083","bea99957-1862-4ad8-9558-57b91e42ce64","{""participantId"":""2D5BD668F13049FA8CDC71ECD2DDE2E2"",""assignmentId"":""e485ade4-8b74-4c41-8921-aa31da464083"",""projectId"":""bea99957-1862-4ad8-9558-57b91e42ce64""}","https://test12345.live/?participantId=2D5BD668F13049FA8CDC71ECD2DDE2E2&assignmentId=e485ade4-8b74-4c41-8921-aa31da464083&projectId=bea99957-1862-4ad8-9558-57b91e42ce64","","null","<div style=""display: flex; justify-content: center; align-items: center;"">
                    <img src=""images/semantic/semantic_series_16/semantic_series_16_a.jpg"" style=""width: 300px; height: 300px;"" />
                  </div>","null","",""
"","","","","","html-keyboard-response","14","66745","0.0-12.0-1.0","2D5BD668F13049FA8CDC71ECD2DDE2E2","2D5BD668F13049FA8CDC71ECD2DDE2E2","e485ade4-8b74-4c41-8921-aa31da464083","bea99957-1862-4ad8-9558-57b91e42ce64","{""participantId"":""2D5BD668F13049FA8CDC71ECD2DDE2E2"",""assignmentId"":""e485ade4-8b74-4c41-8921-aa31da464083"",""projectId"":""bea99957-1862-4ad8-9558-57b91e42ce64""}","https://test12345.live/?participantId=2D5BD668F13049FA8CDC71ECD2DDE2E2&assignmentId=e485ade4-8b74-4c41-8921-aa31da464083&projectId=bea99957-1862-4ad8-9558-57b91e42ce64","","null","<div style=""display: flex; justify-content: center; align-items: center;"">
                    <img src=""images/semantic/semantic_series_16/semantic_series_16_b.jpg"" style=""width: 300px; height: 300px;"" />
                  </div>","null","",""
"","","","","","html-keyboard-response","15","69750","0.0-12.0-2.0","2D5BD668F13049FA8CDC71ECD2DDE2E2","2D5BD668F13049FA8CDC71ECD2DDE2E2","e485ade4-8b74-4c41-8921-aa31da464083","bea99957-1862-4ad8-9558-57b91e42ce64","{""participantId"":""2D5BD668F13049FA8CDC71ECD2DDE2E2"",""assignmentId"":""e485ade4-8b74-4c41-8921-aa31da464083"",""projectId"":""bea99957-1862-4ad8-9558-57b91e42ce64""}","https://test12345.live/?participantId=2D5BD668F13049FA8CDC71ECD2DDE2E2&assignmentId=e485ade4-8b74-4c41-8921-aa31da464083&projectId=bea99957-1862-4ad8-9558-57b91e42ce64","","null","<div style=""display: flex; justify-content: center; align-items: center;"">
                    <img src=""images/semantic/semantic_series_16/semantic_series_16_c.jpg"" style=""width: 300px; height: 300px;"" />
                  </div>","null","",""
"","","","","","html-keyboard-response","16","72753","0.0-12.0-3.0","2D5BD668F13049FA8CDC71ECD2DDE2E2","2D5BD668F13049FA8CDC71ECD2DDE2E2","e485ade4-8b74-4c41-8921-aa31da464083","bea99957-1862-4ad8-9558-57b91e42ce64","{""participantId"":""2D5BD668F13049FA8CDC71ECD2DDE2E2"",""assignmentId"":""e485ade4-8b74-4c41-8921-aa31da464083"",""projectId"":""bea99957-1862-4ad8-9558-57b91e42ce64""}","https://test12345.live/?participantId=2D5BD668F13049FA8CDC71ECD2DDE2E2&assignmentId=e485ade4-8b74-4c41-8921-aa31da464083&projectId=bea99957-1862-4ad8-9558-57b91e42ce64","","null","<div style=""display: flex; justify-content: center; align-items: center;"">
                    <img src=""images/semantic/semantic_series_16/semantic_series_16_d.jpg"" style=""width: 300px; height: 300px;"" />
                  </div>","null","",""
"","","","","","html-button-response","17","75034","0.0-13.0","2D5BD668F13049FA8CDC71ECD2DDE2E2","2D5BD668F13049FA8CDC71ECD2DDE2E2","e485ade4-8b74-4c41-8921-aa31da464083","bea99957-1862-4ad8-9558-57b91e42ce64","{""participantId"":""2D5BD668F13049FA8CDC71ECD2DDE2E2"",""assignmentId"":""e485ade4-8b74-4c41-8921-aa31da464083"",""projectId"":""bea99957-1862-4ad8-9558-57b91e42ce64""}","https://test12345.live/?participantId=2D5BD668F13049FA8CDC71ECD2DDE2E2&assignmentId=e485ade4-8b74-4c41-8921-aa31da464083&projectId=bea99957-1862-4ad8-9558-57b91e42ce64","","2281","Was there a person in the picture?","0","",""
"","","","","","survey-likert","18","77781","0.0-14.0","2D5BD668F13049FA8CDC71ECD2DDE2E2","2D5BD668F13049FA8CDC71ECD2DDE2E2","e485ade4-8b74-4c41-8921-aa31da464083","bea99957-1862-4ad8-9558-57b91e42ce64","{""participantId"":""2D5BD668F13049FA8CDC71ECD2DDE2E2"",""assignmentId"":""e485ade4-8b74-4c41-8921-aa31da464083"",""projectId"":""bea99957-1862-4ad8-9558-57b91e42ce64""}","https://test12345.live/?participantId=2D5BD668F13049FA8CDC71ECD2DDE2E2&assignmentId=e485ade4-8b74-4c41-8921-aa31da464083&projectId=bea99957-1862-4ad8-9558-57b91e42ce64","","2745","","{""Q0"":4}","","[0]"
"","","","","","html-button-response","19","79108","0.0-15.0","2D5BD668F13049FA8CDC71ECD2DDE2E2","2D5BD668F13049FA8CDC71ECD2DDE2E2","e485ade4-8b74-4c41-8921-aa31da464083","bea99957-1862-4ad8-9558-57b91e42ce64","{""participantId"":""2D5BD668F13049FA8CDC71ECD2DDE2E2"",""assignmentId"":""e485ade4-8b74-4c41-8921-aa31da464083"",""projectId"":""bea99957-1862-4ad8-9558-57b91e42ce64""}","https://test12345.live/?participantId=2D5BD668F13049FA8CDC71ECD2DDE2E2&assignmentId=e485ade4-8b74-4c41-8921-aa31da464083&projectId=bea99957-1862-4ad8-9558-57b91e42ce64","","1327","
    <div style=""display: flex; justify-content: center; align-items: center;"">
      <img src=""images/red_deck_2.png"" style=""width: 300px; height: 300px; margin-right: 10px;"" />
      <img src=""images/blue_deck_1.png"" style=""width: 300px; height: 300px;"" />
    </div>","1","1",""
"","","","","","html-keyboard-response","20","82124","0.0-16.0-0.0","2D5BD668F13049FA8CDC71ECD2DDE2E2","2D5BD668F13049FA8CDC71ECD2DDE2E2","e485ade4-8b74-4c41-8921-aa31da464083","bea99957-1862-4ad8-9558-57b91e42ce64","{""participantId"":""2D5BD668F13049FA8CDC71ECD2DDE2E2"",""assignmentId"":""e485ade4-8b74-4c41-8921-aa31da464083"",""projectId"":""bea99957-1862-4ad8-9558-57b91e42ce64""}","https://test12345.live/?participantId=2D5BD668F13049FA8CDC71ECD2DDE2E2&assignmentId=e485ade4-8b74-4c41-8921-aa31da464083&projectId=bea99957-1862-4ad8-9558-57b91e42ce64","","null","<div style=""display: flex; justify-content: center; align-items: center;"">
                    <img src=""images/causal/causal_series_9/causal_series_9_a.jpg"" style=""width: 300px; height: 300px;"" />
                  </div>","null","",""
"","","","","","html-keyboard-response","21","85132","0.0-16.0-1.0","2D5BD668F13049FA8CDC71ECD2DDE2E2","2D5BD668F13049FA8CDC71ECD2DDE2E2","e485ade4-8b74-4c41-8921-aa31da464083","bea99957-1862-4ad8-9558-57b91e42ce64","{""participantId"":""2D5BD668F13049FA8CDC71ECD2DDE2E2"",""assignmentId"":""e485ade4-8b74-4c41-8921-aa31da464083"",""projectId"":""bea99957-1862-4ad8-9558-57b91e42ce64""}","https://test12345.live/?participantId=2D5BD668F13049FA8CDC71ECD2DDE2E2&assignmentId=e485ade4-8b74-4c41-8921-aa31da464083&projectId=bea99957-1862-4ad8-9558-57b91e42ce64","","null","<div style=""display: flex; justify-content: center; align-items: center;"">
                    <img src=""images/causal/causal_series_9/causal_series_9_b.jpg"" style=""width: 300px; height: 300px;"" />
                  </div>","null","",""
"","","","","","html-keyboard-response","22","88137","0.0-16.0-2.0","2D5BD668F13049FA8CDC71ECD2DDE2E2","2D5BD668F13049FA8CDC71ECD2DDE2E2","e485ade4-8b74-4c41-8921-aa31da464083","bea99957-1862-4ad8-9558-57b91e42ce64","{""participantId"":""2D5BD668F13049FA8CDC71ECD2DDE2E2"",""assignmentId"":""e485ade4-8b74-4c41-8921-aa31da464083"",""projectId"":""bea99957-1862-4ad8-9558-57b91e42ce64""}","https://test12345.live/?participantId=2D5BD668F13049FA8CDC71ECD2DDE2E2&assignmentId=e485ade4-8b74-4c41-8921-aa31da464083&projectId=bea99957-1862-4ad8-9558-57b91e42ce64","","null","<div style=""display: flex; justify-content: center; align-items: center;"">
                    <img src=""images/causal/causal_series_9/causal_series_9_c.jpg"" style=""width: 300px; height: 300px;"" />
                  </div>","null","",""
"","","","","","html-keyboard-response","23","91150","0.0-16.0-3.0","2D5BD668F13049FA8CDC71ECD2DDE2E2","2D5BD668F13049FA8CDC71ECD2DDE2E2","e485ade4-8b74-4c41-8921-aa31da464083","bea99957-1862-4ad8-9558-57b91e42ce64","{""participantId"":""2D5BD668F13049FA8CDC71ECD2DDE2E2"",""assignmentId"":""e485ade4-8b74-4c41-8921-aa31da464083"",""projectId"":""bea99957-1862-4ad8-9558-57b91e42ce64""}","https://test12345.live/?participantId=2D5BD668F13049FA8CDC71ECD2DDE2E2&assignmentId=e485ade4-8b74-4c41-8921-aa31da464083&projectId=bea99957-1862-4ad8-9558-57b91e42ce64","","null","<div style=""display: flex; justify-content: center; align-items: center;"">
                    <img src=""images/causal/causal_series_9/causal_series_9_d.jpg"" style=""width: 300px; height: 300px;"" />
                  </div>","null","",""
"","","","","","html-button-response","24","92931","0.0-18.0","2D5BD668F13049FA8CDC71ECD2DDE2E2","2D5BD668F13049FA8CDC71ECD2DDE2E2","e485ade4-8b74-4c41-8921-aa31da464083","bea99957-1862-4ad8-9558-57b91e42ce64","{""participantId"":""2D5BD668F13049FA8CDC71ECD2DDE2E2"",""assignmentId"":""e485ade4-8b74-4c41-8921-aa31da464083"",""projectId"":""bea99957-1862-4ad8-9558-57b91e42ce64""}","https://test12345.live/?participantId=2D5BD668F13049FA8CDC71ECD2DDE2E2&assignmentId=e485ade4-8b74-4c41-8921-aa31da464083&projectId=bea99957-1862-4ad8-9558-57b91e42ce64","","1781","Was there a person in the picture?","1","",""
"","","","","","survey-likert","25","95252","0.0-19.0","2D5BD668F13049FA8CDC71ECD2DDE2E2","2D5BD668F13049FA8CDC71ECD2DDE2E2","e485ade4-8b74-4c41-8921-aa31da464083","bea99957-1862-4ad8-9558-57b91e42ce64","{""participantId"":""2D5BD668F13049FA8CDC71ECD2DDE2E2"",""assignmentId"":""e485ade4-8b74-4c41-8921-aa31da464083"",""projectId"":""bea99957-1862-4ad8-9558-57b91e42ce64""}","https://test12345.live/?participantId=2D5BD668F13049FA8CDC71ECD2DDE2E2&assignmentId=e485ade4-8b74-4c41-8921-aa31da464083&projectId=bea99957-1862-4ad8-9558-57b91e42ce64","","2320","","{""Q0"":4}","","[0]"
"","","","","","html-button-response","26","96482","0.0-20.0","2D5BD668F13049FA8CDC71ECD2DDE2E2","2D5BD668F13049FA8CDC71ECD2DDE2E2","e485ade4-8b74-4c41-8921-aa31da464083","bea99957-1862-4ad8-9558-57b91e42ce64","{""participantId"":""2D5BD668F13049FA8CDC71ECD2DDE2E2"",""assignmentId"":""e485ade4-8b74-4c41-8921-aa31da464083"",""projectId"":""bea99957-1862-4ad8-9558-57b91e42ce64""}","https://test12345.live/?participantId=2D5BD668F13049FA8CDC71ECD2DDE2E2&assignmentId=e485ade4-8b74-4c41-8921-aa31da464083&projectId=bea99957-1862-4ad8-9558-57b91e42ce64","","1229","
    <div style=""display: flex; justify-content: center; align-items: center;"">
      <img src=""images/red_deck_2.png"" style=""width: 300px; height: 300px; margin-right: 10px;"" />
      <img src=""images/blue_deck_1.png"" style=""width: 300px; height: 300px;"" />
    </div>","1","1",""
"","","","","","html-keyboard-response","27","99488","0.0-21.0-0.0","2D5BD668F13049FA8CDC71ECD2DDE2E2","2D5BD668F13049FA8CDC71ECD2DDE2E2","e485ade4-8b74-4c41-8921-aa31da464083","bea99957-1862-4ad8-9558-57b91e42ce64","{""participantId"":""2D5BD668F13049FA8CDC71ECD2DDE2E2"",""assignmentId"":""e485ade4-8b74-4c41-8921-aa31da464083"",""projectId"":""bea99957-1862-4ad8-9558-57b91e42ce64""}","https://test12345.live/?participantId=2D5BD668F13049FA8CDC71ECD2DDE2E2&assignmentId=e485ade4-8b74-4c41-8921-aa31da464083&projectId=bea99957-1862-4ad8-9558-57b91e42ce64","","null","<div style=""display: flex; justify-content: center; align-items: center;"">
                    <img src=""images/causal/causal_series_3/causal_series_3_a.jpg"" style=""width: 300px; height: 300px;"" />
                  </div>","null","",""
"","","","","","html-keyboard-response","28","102493","0.0-21.0-1.0","2D5BD668F13049FA8CDC71ECD2DDE2E2","2D5BD668F13049FA8CDC71ECD2DDE2E2","e485ade4-8b74-4c41-8921-aa31da464083","bea99957-1862-4ad8-9558-57b91e42ce64","{""participantId"":""2D5BD668F13049FA8CDC71ECD2DDE2E2"",""assignmentId"":""e485ade4-8b74-4c41-8921-aa31da464083"",""projectId"":""bea99957-1862-4ad8-9558-57b91e42ce64""}","https://test12345.live/?participantId=2D5BD668F13049FA8CDC71ECD2DDE2E2&assignmentId=e485ade4-8b74-4c41-8921-aa31da464083&projectId=bea99957-1862-4ad8-9558-57b91e42ce64","","null","<div style=""display: flex; justify-content: center; align-items: center;"">
                    <img src=""images/causal/causal_series_3/causal_series_3_b.jpg"" style=""width: 300px; height: 300px;"" />
                  </div>","null","",""
"","","","","","html-keyboard-response","29","105504","0.0-21.0-2.0","2D5BD668F13049FA8CDC71ECD2DDE2E2","2D5BD668F13049FA8CDC71ECD2DDE2E2","e485ade4-8b74-4c41-8921-aa31da464083","bea99957-1862-4ad8-9558-57b91e42ce64","{""participantId"":""2D5BD668F13049FA8CDC71ECD2DDE2E2"",""assignmentId"":""e485ade4-8b74-4c41-8921-aa31da464083"",""projectId"":""bea99957-1862-4ad8-9558-57b91e42ce64""}","https://test12345.live/?participantId=2D5BD668F13049FA8CDC71ECD2DDE2E2&assignmentId=e485ade4-8b74-4c41-8921-aa31da464083&projectId=bea99957-1862-4ad8-9558-57b91e42ce64","","null","<div style=""display: flex; justify-content: center; align-items: center;"">
                    <img src=""images/causal/causal_series_3/causal_series_3_c.jpg"" style=""width: 300px; height: 300px;"" />
                  </div>","null","",""
"","","","","","html-keyboard-response","30","108509","0.0-21.0-3.0","2D5BD668F13049FA8CDC71ECD2DDE2E2","2D5BD668F13049FA8CDC71ECD2DDE2E2","e485ade4-8b74-4c41-8921-aa31da464083","bea99957-1862-4ad8-9558-57b91e42ce64","{""participantId"":""2D5BD668F13049FA8CDC71ECD2DDE2E2"",""assignmentId"":""e485ade4-8b74-4c41-8921-aa31da464083"",""projectId"":""bea99957-1862-4ad8-9558-57b91e42ce64""}","https://test12345.live/?participantId=2D5BD668F13049FA8CDC71ECD2DDE2E2&assignmentId=e485ade4-8b74-4c41-8921-aa31da464083&projectId=bea99957-1862-4ad8-9558-57b91e42ce64","","null","<div style=""display: flex; justify-content: center; align-items: center;"">
                    <img src=""images/causal/causal_series_3/causal_series_3_d.jpg"" style=""width: 300px; height: 300px;"" />
                  </div>","null","",""
"","","","","","html-button-response","31","109537","0.0-23.0","2D5BD668F13049FA8CDC71ECD2DDE2E2","2D5BD668F13049FA8CDC71ECD2DDE2E2","e485ade4-8b74-4c41-8921-aa31da464083","bea99957-1862-4ad8-9558-57b91e42ce64","{""participantId"":""2D5BD668F13049FA8CDC71ECD2DDE2E2"",""assignmentId"":""e485ade4-8b74-4c41-8921-aa31da464083"",""projectId"":""bea99957-1862-4ad8-9558-57b91e42ce64""}","https://test12345.live/?participantId=2D5BD668F13049FA8CDC71ECD2DDE2E2&assignmentId=e485ade4-8b74-4c41-8921-aa31da464083&projectId=bea99957-1862-4ad8-9558-57b91e42ce64","","1027","Was there a person in the picture?","0","",""
"","","","","","survey-likert","32","111256","0.0-24.0","2D5BD668F13049FA8CDC71ECD2DDE2E2","2D5BD668F13049FA8CDC71ECD2DDE2E2","e485ade4-8b74-4c41-8921-aa31da464083","bea99957-1862-4ad8-9558-57b91e42ce64","{""participantId"":""2D5BD668F13049FA8CDC71ECD2DDE2E2"",""assignmentId"":""e485ade4-8b74-4c41-8921-aa31da464083"",""projectId"":""bea99957-1862-4ad8-9558-57b91e42ce64""}","https://test12345.live/?participantId=2D5BD668F13049FA8CDC71ECD2DDE2E2&assignmentId=e485ade4-8b74-4c41-8921-aa31da464083&projectId=bea99957-1862-4ad8-9558-57b91e42ce64","","1719","","{""Q0"":4}","","[0]"
"","","","","","html-button-response","33","112691","0.0-25.0","2D5BD668F13049FA8CDC71ECD2DDE2E2","2D5BD668F13049FA8CDC71ECD2DDE2E2","e485ade4-8b74-4c41-8921-aa31da464083","bea99957-1862-4ad8-9558-57b91e42ce64","{""participantId"":""2D5BD668F13049FA8CDC71ECD2DDE2E2"",""assignmentId"":""e485ade4-8b74-4c41-8921-aa31da464083"",""projectId"":""bea99957-1862-4ad8-9558-57b91e42ce64""}","https://test12345.live/?participantId=2D5BD668F13049FA8CDC71ECD2DDE2E2&assignmentId=e485ade4-8b74-4c41-8921-aa31da464083&projectId=bea99957-1862-4ad8-9558-57b91e42ce64","","1434","
    <div style=""display: flex; justify-content: center; align-items: center;"">
      <img src=""images/red_deck_2.png"" style=""width: 300px; height: 300px; margin-right: 10px;"" />
      <img src=""images/blue_deck_1.png"" style=""width: 300px; height: 300px;"" />
    </div>","0","0",""
"","","","","","html-keyboard-response","34","115694","0.0-27.0-0.0","2D5BD668F13049FA8CDC71ECD2DDE2E2","2D5BD668F13049FA8CDC71ECD2DDE2E2","e485ade4-8b74-4c41-8921-aa31da464083","bea99957-1862-4ad8-9558-57b91e42ce64","{""participantId"":""2D5BD668F13049FA8CDC71ECD2DDE2E2"",""assignmentId"":""e485ade4-8b74-4c41-8921-aa31da464083"",""projectId"":""bea99957-1862-4ad8-9558-57b91e42ce64""}","https://test12345.live/?participantId=2D5BD668F13049FA8CDC71ECD2DDE2E2&assignmentId=e485ade4-8b74-4c41-8921-aa31da464083&projectId=bea99957-1862-4ad8-9558-57b91e42ce64","","null","<div style=""display: flex; justify-content: center; align-items: center;"">
                    <img src=""images/semantic/semantic_series_6/semantic_series_6_a.jpg"" style=""width: 300px; height: 300px;"" />
                  </div>","null","",""
"","","","","","html-keyboard-response","35","118706","0.0-27.0-1.0","2D5BD668F13049FA8CDC71ECD2DDE2E2","2D5BD668F13049FA8CDC71ECD2DDE2E2","e485ade4-8b74-4c41-8921-aa31da464083","bea99957-1862-4ad8-9558-57b91e42ce64","{""participantId"":""2D5BD668F13049FA8CDC71ECD2DDE2E2"",""assignmentId"":""e485ade4-8b74-4c41-8921-aa31da464083"",""projectId"":""bea99957-1862-4ad8-9558-57b91e42ce64""}","https://test12345.live/?participantId=2D5BD668F13049FA8CDC71ECD2DDE2E2&assignmentId=e485ade4-8b74-4c41-8921-aa31da464083&projectId=bea99957-1862-4ad8-9558-57b91e42ce64","","null","<div style=""display: flex; justify-content: center; align-items: center;"">
                    <img src=""images/semantic/semantic_series_6/semantic_series_6_b.jpg"" style=""width: 300px; height: 300px;"" />
                  </div>","null","",""
"","","","","","html-keyboard-response","36","121719","0.0-27.0-2.0","2D5BD668F13049FA8CDC71ECD2DDE2E2","2D5BD668F13049FA8CDC71ECD2DDE2E2","e485ade4-8b74-4c41-8921-aa31da464083","bea99957-1862-4ad8-9558-57b91e42ce64","{""participantId"":""2D5BD668F13049FA8CDC71ECD2DDE2E2"",""assignmentId"":""e485ade4-8b74-4c41-8921-aa31da464083"",""projectId"":""bea99957-1862-4ad8-9558-57b91e42ce64""}","https://test12345.live/?participantId=2D5BD668F13049FA8CDC71ECD2DDE2E2&assignmentId=e485ade4-8b74-4c41-8921-aa31da464083&projectId=bea99957-1862-4ad8-9558-57b91e42ce64","","null","<div style=""display: flex; justify-content: center; align-items: center;"">
                    <img src=""images/semantic/semantic_series_6/semantic_series_6_c.jpg"" style=""width: 300px; height: 300px;"" />
                  </div>","null","",""
"","","","","","html-keyboard-response","37","124735","0.0-27.0-3.0","2D5BD668F13049FA8CDC71ECD2DDE2E2","2D5BD668F13049FA8CDC71ECD2DDE2E2","e485ade4-8b74-4c41-8921-aa31da464083","bea99957-1862-4ad8-9558-57b91e42ce64","{""participantId"":""2D5BD668F13049FA8CDC71ECD2DDE2E2"",""assignmentId"":""e485ade4-8b74-4c41-8921-aa31da464083"",""projectId"":""bea99957-1862-4ad8-9558-57b91e42ce64""}","https://test12345.live/?participantId=2D5BD668F13049FA8CDC71ECD2DDE2E2&assignmentId=e485ade4-8b74-4c41-8921-aa31da464083&projectId=bea99957-1862-4ad8-9558-57b91e42ce64","","null","<div style=""display: flex; justify-content: center; align-items: center;"">
                    <img src=""images/semantic/semantic_series_6/semantic_series_6_d.jpg"" style=""width: 300px; height: 300px;"" />
                  </div>","null","",""
"","","","","","html-button-response","38","126004","0.0-28.0","2D5BD668F13049FA8CDC71ECD2DDE2E2","2D5BD668F13049FA8CDC71ECD2DDE2E2","e485ade4-8b74-4c41-8921-aa31da464083","bea99957-1862-4ad8-9558-57b91e42ce64","{""participantId"":""2D5BD668F13049FA8CDC71ECD2DDE2E2"",""assignmentId"":""e485ade4-8b74-4c41-8921-aa31da464083"",""projectId"":""bea99957-1862-4ad8-9558-57b91e42ce64""}","https://test12345.live/?participantId=2D5BD668F13049FA8CDC71ECD2DDE2E2&assignmentId=e485ade4-8b74-4c41-8921-aa31da464083&projectId=bea99957-1862-4ad8-9558-57b91e42ce64","","1268","Was there a person in the picture?","1","",""
"","","","","","survey-likert","39","128120","0.0-29.0","2D5BD668F13049FA8CDC71ECD2DDE2E2","2D5BD668F13049FA8CDC71ECD2DDE2E2","e485ade4-8b74-4c41-8921-aa31da464083","bea99957-1862-4ad8-9558-57b91e42ce64","{""participantId"":""2D5BD668F13049FA8CDC71ECD2DDE2E2"",""assignmentId"":""e485ade4-8b74-4c41-8921-aa31da464083"",""projectId"":""bea99957-1862-4ad8-9558-57b91e42ce64""}","https://test12345.live/?participantId=2D5BD668F13049FA8CDC71ECD2DDE2E2&assignmentId=e485ade4-8b74-4c41-8921-aa31da464083&projectId=bea99957-1862-4ad8-9558-57b91e42ce64","","2116","","{""Q0"":4}","","[0]"
"","","","","","html-button-response","40","129267","0.0-30.0","2D5BD668F13049FA8CDC71ECD2DDE2E2","2D5BD668F13049FA8CDC71ECD2DDE2E2","e485ade4-8b74-4c41-8921-aa31da464083","bea99957-1862-4ad8-9558-57b91e42ce64","{""participantId"":""2D5BD668F13049FA8CDC71ECD2DDE2E2"",""assignmentId"":""e485ade4-8b74-4c41-8921-aa31da464083"",""projectId"":""bea99957-1862-4ad8-9558-57b91e42ce64""}","https://test12345.live/?participantId=2D5BD668F13049FA8CDC71ECD2DDE2E2&assignmentId=e485ade4-8b74-4c41-8921-aa31da464083&projectId=bea99957-1862-4ad8-9558-57b91e42ce64","","1146","
    <div style=""display: flex; justify-content: center; align-items: center;"">
      <img src=""images/red_deck_2.png"" style=""width: 300px; height: 300px; margin-right: 10px;"" />
      <img src=""images/blue_deck_1.png"" style=""width: 300px; height: 300px;"" />
    </div>","1","1",""
"","","","","","html-keyboard-response","41","132277","0.0-31.0-0.0","2D5BD668F13049FA8CDC71ECD2DDE2E2","2D5BD668F13049FA8CDC71ECD2DDE2E2","e485ade4-8b74-4c41-8921-aa31da464083","bea99957-1862-4ad8-9558-57b91e42ce64","{""participantId"":""2D5BD668F13049FA8CDC71ECD2DDE2E2"",""assignmentId"":""e485ade4-8b74-4c41-8921-aa31da464083"",""projectId"":""bea99957-1862-4ad8-9558-57b91e42ce64""}","https://test12345.live/?participantId=2D5BD668F13049FA8CDC71ECD2DDE2E2&assignmentId=e485ade4-8b74-4c41-8921-aa31da464083&projectId=bea99957-1862-4ad8-9558-57b91e42ce64","","null","<div style=""display: flex; justify-content: center; align-items: center;"">
                    <img src=""images/causal/causal_series_7/causal_series_7_a.jpg"" style=""width: 300px; height: 300px;"" />
                  </div>","null","",""
"","","","","","html-keyboard-response","42","135278","0.0-31.0-1.0","2D5BD668F13049FA8CDC71ECD2DDE2E2","2D5BD668F13049FA8CDC71ECD2DDE2E2","e485ade4-8b74-4c41-8921-aa31da464083","bea99957-1862-4ad8-9558-57b91e42ce64","{""participantId"":""2D5BD668F13049FA8CDC71ECD2DDE2E2"",""assignmentId"":""e485ade4-8b74-4c41-8921-aa31da464083"",""projectId"":""bea99957-1862-4ad8-9558-57b91e42ce64""}","https://test12345.live/?participantId=2D5BD668F13049FA8CDC71ECD2DDE2E2&assignmentId=e485ade4-8b74-4c41-8921-aa31da464083&projectId=bea99957-1862-4ad8-9558-57b91e42ce64","","null","<div style=""display: flex; justify-content: center; align-items: center;"">
                    <img src=""images/causal/causal_series_7/causal_series_7_b.jpg"" style=""width: 300px; height: 300px;"" />
                  </div>","null","",""
"","","","","","html-keyboard-response","43","138292","0.0-31.0-2.0","2D5BD668F13049FA8CDC71ECD2DDE2E2","2D5BD668F13049FA8CDC71ECD2DDE2E2","e485ade4-8b74-4c41-8921-aa31da464083","bea99957-1862-4ad8-9558-57b91e42ce64","{""participantId"":""2D5BD668F13049FA8CDC71ECD2DDE2E2"",""assignmentId"":""e485ade4-8b74-4c41-8921-aa31da464083"",""projectId"":""bea99957-1862-4ad8-9558-57b91e42ce64""}","https://test12345.live/?participantId=2D5BD668F13049FA8CDC71ECD2DDE2E2&assignmentId=e485ade4-8b74-4c41-8921-aa31da464083&projectId=bea99957-1862-4ad8-9558-57b91e42ce64","","null","<div style=""display: flex; justify-content: center; align-items: center;"">
                    <img src=""images/causal/causal_series_7/causal_series_7_c.jpg"" style=""width: 300px; height: 300px;"" />
                  </div>","null","",""
"","","","","","html-keyboard-response","44","141308","0.0-31.0-3.0","2D5BD668F13049FA8CDC71ECD2DDE2E2","2D5BD668F13049FA8CDC71ECD2DDE2E2","e485ade4-8b74-4c41-8921-aa31da464083","bea99957-1862-4ad8-9558-57b91e42ce64","{""participantId"":""2D5BD668F13049FA8CDC71ECD2DDE2E2"",""assignmentId"":""e485ade4-8b74-4c41-8921-aa31da464083"",""projectId"":""bea99957-1862-4ad8-9558-57b91e42ce64""}","https://test12345.live/?participantId=2D5BD668F13049FA8CDC71ECD2DDE2E2&assignmentId=e485ade4-8b74-4c41-8921-aa31da464083&projectId=bea99957-1862-4ad8-9558-57b91e42ce64","","null","<div style=""display: flex; justify-content: center; align-items: center;"">
                    <img src=""images/causal/causal_series_7/causal_series_7_d.jpg"" style=""width: 300px; height: 300px;"" />
                  </div>","null","",""
"","","","","","html-button-response","45","142645","0.0-33.0","2D5BD668F13049FA8CDC71ECD2DDE2E2","2D5BD668F13049FA8CDC71ECD2DDE2E2","e485ade4-8b74-4c41-8921-aa31da464083","bea99957-1862-4ad8-9558-57b91e42ce64","{""participantId"":""2D5BD668F13049FA8CDC71ECD2DDE2E2"",""assignmentId"":""e485ade4-8b74-4c41-8921-aa31da464083"",""projectId"":""bea99957-1862-4ad8-9558-57b91e42ce64""}","https://test12345.live/?participantId=2D5BD668F13049FA8CDC71ECD2DDE2E2&assignmentId=e485ade4-8b74-4c41-8921-aa31da464083&projectId=bea99957-1862-4ad8-9558-57b91e42ce64","","1336","Was there a person in the picture?","1","",""
"","","","","","survey-likert","46","144671","0.0-34.0","2D5BD668F13049FA8CDC71ECD2DDE2E2","2D5BD668F13049FA8CDC71ECD2DDE2E2","e485ade4-8b74-4c41-8921-aa31da464083","bea99957-1862-4ad8-9558-57b91e42ce64","{""participantId"":""2D5BD668F13049FA8CDC71ECD2DDE2E2"",""assignmentId"":""e485ade4-8b74-4c41-8921-aa31da464083"",""projectId"":""bea99957-1862-4ad8-9558-57b91e42ce64""}","https://test12345.live/?participantId=2D5BD668F13049FA8CDC71ECD2DDE2E2&assignmentId=e485ade4-8b74-4c41-8921-aa31da464083&projectId=bea99957-1862-4ad8-9558-57b91e42ce64","","2026","","{""Q0"":4}","","[0]"
"","","","","","html-button-response","47","145482","0.0-35.0","2D5BD668F13049FA8CDC71ECD2DDE2E2","2D5BD668F13049FA8CDC71ECD2DDE2E2","e485ade4-8b74-4c41-8921-aa31da464083","bea99957-1862-4ad8-9558-57b91e42ce64","{""participantId"":""2D5BD668F13049FA8CDC71ECD2DDE2E2"",""assignmentId"":""e485ade4-8b74-4c41-8921-aa31da464083"",""projectId"":""bea99957-1862-4ad8-9558-57b91e42ce64""}","https://test12345.live/?participantId=2D5BD668F13049FA8CDC71ECD2DDE2E2&assignmentId=e485ade4-8b74-4c41-8921-aa31da464083&projectId=bea99957-1862-4ad8-9558-57b91e42ce64","","810","
    <div style=""display: flex; justify-content: center; align-items: center;"">
      <img src=""images/red_deck_2.png"" style=""width: 300px; height: 300px; margin-right: 10px;"" />
      <img src=""images/blue_deck_1.png"" style=""width: 300px; height: 300px;"" />
    </div>","1","1",""
"","","","","","html-keyboard-response","48","148484","0.0-36.0-0.0","2D5BD668F13049FA8CDC71ECD2DDE2E2","2D5BD668F13049FA8CDC71ECD2DDE2E2","e485ade4-8b74-4c41-8921-aa31da464083","bea99957-1862-4ad8-9558-57b91e42ce64","{""participantId"":""2D5BD668F13049FA8CDC71ECD2DDE2E2"",""assignmentId"":""e485ade4-8b74-4c41-8921-aa31da464083"",""projectId"":""bea99957-1862-4ad8-9558-57b91e42ce64""}","https://test12345.live/?participantId=2D5BD668F13049FA8CDC71ECD2DDE2E2&assignmentId=e485ade4-8b74-4c41-8921-aa31da464083&projectId=bea99957-1862-4ad8-9558-57b91e42ce64","","null","<div style=""display: flex; justify-content: center; align-items: center;"">
                    <img src=""images/causal/causal_series_4/causal_series_4_a.jpg"" style=""width: 300px; height: 300px;"" />
                  </div>","null","",""
"","","","","","html-keyboard-response","49","151490","0.0-36.0-1.0","2D5BD668F13049FA8CDC71ECD2DDE2E2","2D5BD668F13049FA8CDC71ECD2DDE2E2","e485ade4-8b74-4c41-8921-aa31da464083","bea99957-1862-4ad8-9558-57b91e42ce64","{""participantId"":""2D5BD668F13049FA8CDC71ECD2DDE2E2"",""assignmentId"":""e485ade4-8b74-4c41-8921-aa31da464083"",""projectId"":""bea99957-1862-4ad8-9558-57b91e42ce64""}","https://test12345.live/?participantId=2D5BD668F13049FA8CDC71ECD2DDE2E2&assignmentId=e485ade4-8b74-4c41-8921-aa31da464083&projectId=bea99957-1862-4ad8-9558-57b91e42ce64","","null","<div style=""display: flex; justify-content: center; align-items: center;"">
                    <img src=""images/causal/causal_series_4/causal_series_4_b.jpg"" style=""width: 300px; height: 300px;"" />
                  </div>","null","",""
"","","","","","html-keyboard-response","50","154498","0.0-36.0-2.0","2D5BD668F13049FA8CDC71ECD2DDE2E2","2D5BD668F13049FA8CDC71ECD2DDE2E2","e485ade4-8b74-4c41-8921-aa31da464083","bea99957-1862-4ad8-9558-57b91e42ce64","{""participantId"":""2D5BD668F13049FA8CDC71ECD2DDE2E2"",""assignmentId"":""e485ade4-8b74-4c41-8921-aa31da464083"",""projectId"":""bea99957-1862-4ad8-9558-57b91e42ce64""}","https://test12345.live/?participantId=2D5BD668F13049FA8CDC71ECD2DDE2E2&assignmentId=e485ade4-8b74-4c41-8921-aa31da464083&projectId=bea99957-1862-4ad8-9558-57b91e42ce64","","null","<div style=""display: flex; justify-content: center; align-items: center;"">
                    <img src=""images/causal/causal_series_4/causal_series_4_c.jpg"" style=""width: 300px; height: 300px;"" />
                  </div>","null","",""
"","","","","","html-keyboard-response","51","157509","0.0-36.0-3.0","2D5BD668F13049FA8CDC71ECD2DDE2E2","2D5BD668F13049FA8CDC71ECD2DDE2E2","e485ade4-8b74-4c41-8921-aa31da464083","bea99957-1862-4ad8-9558-57b91e42ce64","{""participantId"":""2D5BD668F13049FA8CDC71ECD2DDE2E2"",""assignmentId"":""e485ade4-8b74-4c41-8921-aa31da464083"",""projectId"":""bea99957-1862-4ad8-9558-57b91e42ce64""}","https://test12345.live/?participantId=2D5BD668F13049FA8CDC71ECD2DDE2E2&assignmentId=e485ade4-8b74-4c41-8921-aa31da464083&projectId=bea99957-1862-4ad8-9558-57b91e42ce64","","null","<div style=""display: flex; justify-content: center; align-items: center;"">
                    <img src=""images/causal/causal_series_4/causal_series_4_d.jpg"" style=""width: 300px; height: 300px;"" />
                  </div>","null","",""
"","","","","","html-button-response","52","159268","0.0-38.0","2D5BD668F13049FA8CDC71ECD2DDE2E2","2D5BD668F13049FA8CDC71ECD2DDE2E2","e485ade4-8b74-4c41-8921-aa31da464083","bea99957-1862-4ad8-9558-57b91e42ce64","{""participantId"":""2D5BD668F13049FA8CDC71ECD2DDE2E2"",""assignmentId"":""e485ade4-8b74-4c41-8921-aa31da464083"",""projectId"":""bea99957-1862-4ad8-9558-57b91e42ce64""}","https://test12345.live/?participantId=2D5BD668F13049FA8CDC71ECD2DDE2E2&assignmentId=e485ade4-8b74-4c41-8921-aa31da464083&projectId=bea99957-1862-4ad8-9558-57b91e42ce64","","1758","Was there a person in the picture?","1","",""
"","","","","","survey-likert","53","161744","0.0-39.0","2D5BD668F13049FA8CDC71ECD2DDE2E2","2D5BD668F13049FA8CDC71ECD2DDE2E2","e485ade4-8b74-4c41-8921-aa31da464083","bea99957-1862-4ad8-9558-57b91e42ce64","{""participantId"":""2D5BD668F13049FA8CDC71ECD2DDE2E2"",""assignmentId"":""e485ade4-8b74-4c41-8921-aa31da464083"",""projectId"":""bea99957-1862-4ad8-9558-57b91e42ce64""}","https://test12345.live/?participantId=2D5BD668F13049FA8CDC71ECD2DDE2E2&assignmentId=e485ade4-8b74-4c41-8921-aa31da464083&projectId=bea99957-1862-4ad8-9558-57b91e42ce64","","2476","","{""Q0"":4}","","[0]"
"","","","","","html-button-response","54","162927","0.0-40.0","2D5BD668F13049FA8CDC71ECD2DDE2E2","2D5BD668F13049FA8CDC71ECD2DDE2E2","e485ade4-8b74-4c41-8921-aa31da464083","bea99957-1862-4ad8-9558-57b91e42ce64","{""participantId"":""2D5BD668F13049FA8CDC71ECD2DDE2E2"",""assignmentId"":""e485ade4-8b74-4c41-8921-aa31da464083"",""projectId"":""bea99957-1862-4ad8-9558-57b91e42ce64""}","https://test12345.live/?participantId=2D5BD668F13049FA8CDC71ECD2DDE2E2&assignmentId=e485ade4-8b74-4c41-8921-aa31da464083&projectId=bea99957-1862-4ad8-9558-57b91e42ce64","","1182","
    <div style=""display: flex; justify-content: center; align-items: center;"">
      <img src=""images/red_deck_2.png"" style=""width: 300px; height: 300px; margin-right: 10px;"" />
      <img src=""images/blue_deck_1.png"" style=""width: 300px; height: 300px;"" />
    </div>","1","1",""
"","","","","","html-keyboard-response","55","165935","0.0-41.0-0.0","2D5BD668F13049FA8CDC71ECD2DDE2E2","2D5BD668F13049FA8CDC71ECD2DDE2E2","e485ade4-8b74-4c41-8921-aa31da464083","bea99957-1862-4ad8-9558-57b91e42ce64","{""participantId"":""2D5BD668F13049FA8CDC71ECD2DDE2E2"",""assignmentId"":""e485ade4-8b74-4c41-8921-aa31da464083"",""projectId"":""bea99957-1862-4ad8-9558-57b91e42ce64""}","https://test12345.live/?participantId=2D5BD668F13049FA8CDC71ECD2DDE2E2&assignmentId=e485ade4-8b74-4c41-8921-aa31da464083&projectId=bea99957-1862-4ad8-9558-57b91e42ce64","","null","<div style=""display: flex; justify-content: center; align-items: center;"">
                    <img src=""images/causal/causal_series_8/causal_series_8_a.jpg"" style=""width: 300px; height: 300px;"" />
                  </div>","null","",""
"","","","","","html-keyboard-response","56","168937","0.0-41.0-1.0","2D5BD668F13049FA8CDC71ECD2DDE2E2","2D5BD668F13049FA8CDC71ECD2DDE2E2","e485ade4-8b74-4c41-8921-aa31da464083","bea99957-1862-4ad8-9558-57b91e42ce64","{""participantId"":""2D5BD668F13049FA8CDC71ECD2DDE2E2"",""assignmentId"":""e485ade4-8b74-4c41-8921-aa31da464083"",""projectId"":""bea99957-1862-4ad8-9558-57b91e42ce64""}","https://test12345.live/?participantId=2D5BD668F13049FA8CDC71ECD2DDE2E2&assignmentId=e485ade4-8b74-4c41-8921-aa31da464083&projectId=bea99957-1862-4ad8-9558-57b91e42ce64","","null","<div style=""display: flex; justify-content: center; align-items: center;"">
                    <img src=""images/causal/causal_series_8/causal_series_8_b.jpg"" style=""width: 300px; height: 300px;"" />
                  </div>","null","",""
"","","","","","html-keyboard-response","57","171943","0.0-41.0-2.0","2D5BD668F13049FA8CDC71ECD2DDE2E2","2D5BD668F13049FA8CDC71ECD2DDE2E2","e485ade4-8b74-4c41-8921-aa31da464083","bea99957-1862-4ad8-9558-57b91e42ce64","{""participantId"":""2D5BD668F13049FA8CDC71ECD2DDE2E2"",""assignmentId"":""e485ade4-8b74-4c41-8921-aa31da464083"",""projectId"":""bea99957-1862-4ad8-9558-57b91e42ce64""}","https://test12345.live/?participantId=2D5BD668F13049FA8CDC71ECD2DDE2E2&assignmentId=e485ade4-8b74-4c41-8921-aa31da464083&projectId=bea99957-1862-4ad8-9558-57b91e42ce64","","null","<div style=""display: flex; justify-content: center; align-items: center;"">
                    <img src=""images/causal/causal_series_8/causal_series_8_c.jpg"" style=""width: 300px; height: 300px;"" />
                  </div>","null","",""
"","","","","","html-keyboard-response","58","174954","0.0-41.0-3.0","2D5BD668F13049FA8CDC71ECD2DDE2E2","2D5BD668F13049FA8CDC71ECD2DDE2E2","e485ade4-8b74-4c41-8921-aa31da464083","bea99957-1862-4ad8-9558-57b91e42ce64","{""participantId"":""2D5BD668F13049FA8CDC71ECD2DDE2E2"",""assignmentId"":""e485ade4-8b74-4c41-8921-aa31da464083"",""projectId"":""bea99957-1862-4ad8-9558-57b91e42ce64""}","https://test12345.live/?participantId=2D5BD668F13049FA8CDC71ECD2DDE2E2&assignmentId=e485ade4-8b74-4c41-8921-aa31da464083&projectId=bea99957-1862-4ad8-9558-57b91e42ce64","","null","<div style=""display: flex; justify-content: center; align-items: center;"">
                    <img src=""images/causal/causal_series_8/causal_series_8_d.jpg"" style=""width: 300px; height: 300px;"" />
                  </div>","null","",""
"","","","","","html-button-response","59","175801","0.0-43.0","2D5BD668F13049FA8CDC71ECD2DDE2E2","2D5BD668F13049FA8CDC71ECD2DDE2E2","e485ade4-8b74-4c41-8921-aa31da464083","bea99957-1862-4ad8-9558-57b91e42ce64","{""participantId"":""2D5BD668F13049FA8CDC71ECD2DDE2E2"",""assignmentId"":""e485ade4-8b74-4c41-8921-aa31da464083"",""projectId"":""bea99957-1862-4ad8-9558-57b91e42ce64""}","https://test12345.live/?participantId=2D5BD668F13049FA8CDC71ECD2DDE2E2&assignmentId=e485ade4-8b74-4c41-8921-aa31da464083&projectId=bea99957-1862-4ad8-9558-57b91e42ce64","","846","Was there a person in the picture?","0","",""
"","","","","","survey-likert","60","177255","0.0-44.0","2D5BD668F13049FA8CDC71ECD2DDE2E2","2D5BD668F13049FA8CDC71ECD2DDE2E2","e485ade4-8b74-4c41-8921-aa31da464083","bea99957-1862-4ad8-9558-57b91e42ce64","{""participantId"":""2D5BD668F13049FA8CDC71ECD2DDE2E2"",""assignmentId"":""e485ade4-8b74-4c41-8921-aa31da464083"",""projectId"":""bea99957-1862-4ad8-9558-57b91e42ce64""}","https://test12345.live/?participantId=2D5BD668F13049FA8CDC71ECD2DDE2E2&assignmentId=e485ade4-8b74-4c41-8921-aa31da464083&projectId=bea99957-1862-4ad8-9558-57b91e42ce64","","1453","","{""Q0"":4}","","[0]"
"","","","","","html-button-response","61","178824","0.0-45.0","2D5BD668F13049FA8CDC71ECD2DDE2E2","2D5BD668F13049FA8CDC71ECD2DDE2E2","e485ade4-8b74-4c41-8921-aa31da464083","bea99957-1862-4ad8-9558-57b91e42ce64","{""participantId"":""2D5BD668F13049FA8CDC71ECD2DDE2E2"",""assignmentId"":""e485ade4-8b74-4c41-8921-aa31da464083"",""projectId"":""bea99957-1862-4ad8-9558-57b91e42ce64""}","https://test12345.live/?participantId=2D5BD668F13049FA8CDC71ECD2DDE2E2&assignmentId=e485ade4-8b74-4c41-8921-aa31da464083&projectId=bea99957-1862-4ad8-9558-57b91e42ce64","","1568","
    <div style=""display: flex; justify-content: center; align-items: center;"">
      <img src=""images/red_deck_2.png"" style=""width: 300px; height: 300px; margin-right: 10px;"" />
      <img src=""images/blue_deck_1.png"" style=""width: 300px; height: 300px;"" />
    </div>","0","0",""
"","","","","","html-keyboard-response","62","181833","0.0-47.0-0.0","2D5BD668F13049FA8CDC71ECD2DDE2E2","2D5BD668F13049FA8CDC71ECD2DDE2E2","e485ade4-8b74-4c41-8921-aa31da464083","bea99957-1862-4ad8-9558-57b91e42ce64","{""participantId"":""2D5BD668F13049FA8CDC71ECD2DDE2E2"",""assignmentId"":""e485ade4-8b74-4c41-8921-aa31da464083"",""projectId"":""bea99957-1862-4ad8-9558-57b91e42ce64""}","https://test12345.live/?participantId=2D5BD668F13049FA8CDC71ECD2DDE2E2&assignmentId=e485ade4-8b74-4c41-8921-aa31da464083&projectId=bea99957-1862-4ad8-9558-57b91e42ce64","","null","<div style=""display: flex; justify-content: center; align-items: center;"">
                    <img src=""images/semantic/semantic_series_4/semantic_series_4_a.jpg"" style=""width: 300px; height: 300px;"" />
                  </div>","null","",""
"","","","","","html-keyboard-response","63","184843","0.0-47.0-1.0","2D5BD668F13049FA8CDC71ECD2DDE2E2","2D5BD668F13049FA8CDC71ECD2DDE2E2","e485ade4-8b74-4c41-8921-aa31da464083","bea99957-1862-4ad8-9558-57b91e42ce64","{""participantId"":""2D5BD668F13049FA8CDC71ECD2DDE2E2"",""assignmentId"":""e485ade4-8b74-4c41-8921-aa31da464083"",""projectId"":""bea99957-1862-4ad8-9558-57b91e42ce64""}","https://test12345.live/?participantId=2D5BD668F13049FA8CDC71ECD2DDE2E2&assignmentId=e485ade4-8b74-4c41-8921-aa31da464083&projectId=bea99957-1862-4ad8-9558-57b91e42ce64","","null","<div style=""display: flex; justify-content: center; align-items: center;"">
                    <img src=""images/semantic/semantic_series_4/semantic_series_4_b.jpg"" style=""width: 300px; height: 300px;"" />
                  </div>","null","",""
"","","","","","html-keyboard-response","64","187852","0.0-47.0-2.0","2D5BD668F13049FA8CDC71ECD2DDE2E2","2D5BD668F13049FA8CDC71ECD2DDE2E2","e485ade4-8b74-4c41-8921-aa31da464083","bea99957-1862-4ad8-9558-57b91e42ce64","{""participantId"":""2D5BD668F13049FA8CDC71ECD2DDE2E2"",""assignmentId"":""e485ade4-8b74-4c41-8921-aa31da464083"",""projectId"":""bea99957-1862-4ad8-9558-57b91e42ce64""}","https://test12345.live/?participantId=2D5BD668F13049FA8CDC71ECD2DDE2E2&assignmentId=e485ade4-8b74-4c41-8921-aa31da464083&projectId=bea99957-1862-4ad8-9558-57b91e42ce64","","null","<div style=""display: flex; justify-content: center; align-items: center;"">
                    <img src=""images/semantic/semantic_series_4/semantic_series_4_c.jpg"" style=""width: 300px; height: 300px;"" />
                  </div>","null","",""
"","","","","","html-keyboard-response","65","190863","0.0-47.0-3.0","2D5BD668F13049FA8CDC71ECD2DDE2E2","2D5BD668F13049FA8CDC71ECD2DDE2E2","e485ade4-8b74-4c41-8921-aa31da464083","bea99957-1862-4ad8-9558-57b91e42ce64","{""participantId"":""2D5BD668F13049FA8CDC71ECD2DDE2E2"",""assignmentId"":""e485ade4-8b74-4c41-8921-aa31da464083"",""projectId"":""bea99957-1862-4ad8-9558-57b91e42ce64""}","https://test12345.live/?participantId=2D5BD668F13049FA8CDC71ECD2DDE2E2&assignmentId=e485ade4-8b74-4c41-8921-aa31da464083&projectId=bea99957-1862-4ad8-9558-57b91e42ce64","","null","<div style=""display: flex; justify-content: center; align-items: center;"">
                    <img src=""images/semantic/semantic_series_4/semantic_series_4_d.jpg"" style=""width: 300px; height: 300px;"" />
                  </div>","null","",""
"","","","","","html-button-response","66","193794","0.0-48.0","2D5BD668F13049FA8CDC71ECD2DDE2E2","2D5BD668F13049FA8CDC71ECD2DDE2E2","e485ade4-8b74-4c41-8921-aa31da464083","bea99957-1862-4ad8-9558-57b91e42ce64","{""participantId"":""2D5BD668F13049FA8CDC71ECD2DDE2E2"",""assignmentId"":""e485ade4-8b74-4c41-8921-aa31da464083"",""projectId"":""bea99957-1862-4ad8-9558-57b91e42ce64""}","https://test12345.live/?participantId=2D5BD668F13049FA8CDC71ECD2DDE2E2&assignmentId=e485ade4-8b74-4c41-8921-aa31da464083&projectId=bea99957-1862-4ad8-9558-57b91e42ce64","","2931","Was there a person in the picture?","1","",""
"","","","","","survey-likert","67","195837","0.0-49.0","2D5BD668F13049FA8CDC71ECD2DDE2E2","2D5BD668F13049FA8CDC71ECD2DDE2E2","e485ade4-8b74-4c41-8921-aa31da464083","bea99957-1862-4ad8-9558-57b91e42ce64","{""participantId"":""2D5BD668F13049FA8CDC71ECD2DDE2E2"",""assignmentId"":""e485ade4-8b74-4c41-8921-aa31da464083"",""projectId"":""bea99957-1862-4ad8-9558-57b91e42ce64""}","https://test12345.live/?participantId=2D5BD668F13049FA8CDC71ECD2DDE2E2&assignmentId=e485ade4-8b74-4c41-8921-aa31da464083&projectId=bea99957-1862-4ad8-9558-57b91e42ce64","","2042","","{""Q0"":4}","","[0]"
"","","","","","html-button-response","68","196871","0.0-50.0","2D5BD668F13049FA8CDC71ECD2DDE2E2","2D5BD668F13049FA8CDC71ECD2DDE2E2","e485ade4-8b74-4c41-8921-aa31da464083","bea99957-1862-4ad8-9558-57b91e42ce64","{""participantId"":""2D5BD668F13049FA8CDC71ECD2DDE2E2"",""assignmentId"":""e485ade4-8b74-4c41-8921-aa31da464083"",""projectId"":""bea99957-1862-4ad8-9558-57b91e42ce64""}","https://test12345.live/?participantId=2D5BD668F13049FA8CDC71ECD2DDE2E2&assignmentId=e485ade4-8b74-4c41-8921-aa31da464083&projectId=bea99957-1862-4ad8-9558-57b91e42ce64","","1033","
    <div style=""display: flex; justify-content: center; align-items: center;"">
      <img src=""images/red_deck_2.png"" style=""width: 300px; height: 300px; margin-right: 10px;"" />
      <img src=""images/blue_deck_1.png"" style=""width: 300px; height: 300px;"" />
    </div>","1","1",""
"","","","","","html-keyboard-response","69","199878","0.0-51.0-0.0","2D5BD668F13049FA8CDC71ECD2DDE2E2","2D5BD668F13049FA8CDC71ECD2DDE2E2","e485ade4-8b74-4c41-8921-aa31da464083","bea99957-1862-4ad8-9558-57b91e42ce64","{""participantId"":""2D5BD668F13049FA8CDC71ECD2DDE2E2"",""assignmentId"":""e485ade4-8b74-4c41-8921-aa31da464083"",""projectId"":""bea99957-1862-4ad8-9558-57b91e42ce64""}","https://test12345.live/?participantId=2D5BD668F13049FA8CDC71ECD2DDE2E2&assignmentId=e485ade4-8b74-4c41-8921-aa31da464083&projectId=bea99957-1862-4ad8-9558-57b91e42ce64","","null","<div style=""display: flex; justify-content: center; align-items: center;"">
                    <img src=""images/causal/causal_series_15/causal_series_15_a.jpg"" style=""width: 300px; height: 300px;"" />
                  </div>","null","",""
"","","","","","html-keyboard-response","70","202886","0.0-51.0-1.0","2D5BD668F13049FA8CDC71ECD2DDE2E2","2D5BD668F13049FA8CDC71ECD2DDE2E2","e485ade4-8b74-4c41-8921-aa31da464083","bea99957-1862-4ad8-9558-57b91e42ce64","{""participantId"":""2D5BD668F13049FA8CDC71ECD2DDE2E2"",""assignmentId"":""e485ade4-8b74-4c41-8921-aa31da464083"",""projectId"":""bea99957-1862-4ad8-9558-57b91e42ce64""}","https://test12345.live/?participantId=2D5BD668F13049FA8CDC71ECD2DDE2E2&assignmentId=e485ade4-8b74-4c41-8921-aa31da464083&projectId=bea99957-1862-4ad8-9558-57b91e42ce64","","null","<div style=""display: flex; justify-content: center; align-items: center;"">
                    <img src=""images/causal/causal_series_15/causal_series_15_b.jpg"" style=""width: 300px; height: 300px;"" />
                  </div>","null","",""
"","","","","","html-keyboard-response","71","205890","0.0-51.0-2.0","2D5BD668F13049FA8CDC71ECD2DDE2E2","2D5BD668F13049FA8CDC71ECD2DDE2E2","e485ade4-8b74-4c41-8921-aa31da464083","bea99957-1862-4ad8-9558-57b91e42ce64","{""participantId"":""2D5BD668F13049FA8CDC71ECD2DDE2E2"",""assignmentId"":""e485ade4-8b74-4c41-8921-aa31da464083"",""projectId"":""bea99957-1862-4ad8-9558-57b91e42ce64""}","https://test12345.live/?participantId=2D5BD668F13049FA8CDC71ECD2DDE2E2&assignmentId=e485ade4-8b74-4c41-8921-aa31da464083&projectId=bea99957-1862-4ad8-9558-57b91e42ce64","","null","<div style=""display: flex; justify-content: center; align-items: center;"">
                    <img src=""images/causal/causal_series_15/causal_series_15_c.jpg"" style=""width: 300px; height: 300px;"" />
                  </div>","null","",""
"","","","","","html-keyboard-response","72","208895","0.0-51.0-3.0","2D5BD668F13049FA8CDC71ECD2DDE2E2","2D5BD668F13049FA8CDC71ECD2DDE2E2","e485ade4-8b74-4c41-8921-aa31da464083","bea99957-1862-4ad8-9558-57b91e42ce64","{""participantId"":""2D5BD668F13049FA8CDC71ECD2DDE2E2"",""assignmentId"":""e485ade4-8b74-4c41-8921-aa31da464083"",""projectId"":""bea99957-1862-4ad8-9558-57b91e42ce64""}","https://test12345.live/?participantId=2D5BD668F13049FA8CDC71ECD2DDE2E2&assignmentId=e485ade4-8b74-4c41-8921-aa31da464083&projectId=bea99957-1862-4ad8-9558-57b91e42ce64","","null","<div style=""display: flex; justify-content: center; align-items: center;"">
                    <img src=""images/causal/causal_series_15/causal_series_15_d.jpg"" style=""width: 300px; height: 300px;"" />
                  </div>","null","",""
"","","","","","html-button-response","73","210754","0.0-53.0","2D5BD668F13049FA8CDC71ECD2DDE2E2","2D5BD668F13049FA8CDC71ECD2DDE2E2","e485ade4-8b74-4c41-8921-aa31da464083","bea99957-1862-4ad8-9558-57b91e42ce64","{""participantId"":""2D5BD668F13049FA8CDC71ECD2DDE2E2"",""assignmentId"":""e485ade4-8b74-4c41-8921-aa31da464083"",""projectId"":""bea99957-1862-4ad8-9558-57b91e42ce64""}","https://test12345.live/?participantId=2D5BD668F13049FA8CDC71ECD2DDE2E2&assignmentId=e485ade4-8b74-4c41-8921-aa31da464083&projectId=bea99957-1862-4ad8-9558-57b91e42ce64","","1858","Was there a person in the picture?","0","",""
"","","","","","survey-likert","74","212448","0.0-54.0","2D5BD668F13049FA8CDC71ECD2DDE2E2","2D5BD668F13049FA8CDC71ECD2DDE2E2","e485ade4-8b74-4c41-8921-aa31da464083","bea99957-1862-4ad8-9558-57b91e42ce64","{""participantId"":""2D5BD668F13049FA8CDC71ECD2DDE2E2"",""assignmentId"":""e485ade4-8b74-4c41-8921-aa31da464083"",""projectId"":""bea99957-1862-4ad8-9558-57b91e42ce64""}","https://test12345.live/?participantId=2D5BD668F13049FA8CDC71ECD2DDE2E2&assignmentId=e485ade4-8b74-4c41-8921-aa31da464083&projectId=bea99957-1862-4ad8-9558-57b91e42ce64","","1694","","{""Q0"":4}","","[0]"
"","","","","","html-button-response","75","213518","0.0-55.0","2D5BD668F13049FA8CDC71ECD2DDE2E2","2D5BD668F13049FA8CDC71ECD2DDE2E2","e485ade4-8b74-4c41-8921-aa31da464083","bea99957-1862-4ad8-9558-57b91e42ce64","{""participantId"":""2D5BD668F13049FA8CDC71ECD2DDE2E2"",""assignmentId"":""e485ade4-8b74-4c41-8921-aa31da464083"",""projectId"":""bea99957-1862-4ad8-9558-57b91e42ce64""}","https://test12345.live/?participantId=2D5BD668F13049FA8CDC71ECD2DDE2E2&assignmentId=e485ade4-8b74-4c41-8921-aa31da464083&projectId=bea99957-1862-4ad8-9558-57b91e42ce64","","1069","
    <div style=""display: flex; justify-content: center; align-items: center;"">
      <img src=""images/red_deck_2.png"" style=""width: 300px; height: 300px; margin-right: 10px;"" />
      <img src=""images/blue_deck_1.png"" style=""width: 300px; height: 300px;"" />
    </div>","1","1",""
"","","","","","html-keyboard-response","76","216520","0.0-56.0-0.0","2D5BD668F13049FA8CDC71ECD2DDE2E2","2D5BD668F13049FA8CDC71ECD2DDE2E2","e485ade4-8b74-4c41-8921-aa31da464083","bea99957-1862-4ad8-9558-57b91e42ce64","{""participantId"":""2D5BD668F13049FA8CDC71ECD2DDE2E2"",""assignmentId"":""e485ade4-8b74-4c41-8921-aa31da464083"",""projectId"":""bea99957-1862-4ad8-9558-57b91e42ce64""}","https://test12345.live/?participantId=2D5BD668F13049FA8CDC71ECD2DDE2E2&assignmentId=e485ade4-8b74-4c41-8921-aa31da464083&projectId=bea99957-1862-4ad8-9558-57b91e42ce64","","null","<div style=""display: flex; justify-content: center; align-items: center;"">
                    <img src=""images/causal/causal_series_14/causal_series_14_a.jpg"" style=""width: 300px; height: 300px;"" />
                  </div>","null","",""
"","","","","","html-keyboard-response","77","219522","0.0-56.0-1.0","2D5BD668F13049FA8CDC71ECD2DDE2E2","2D5BD668F13049FA8CDC71ECD2DDE2E2","e485ade4-8b74-4c41-8921-aa31da464083","bea99957-1862-4ad8-9558-57b91e42ce64","{""participantId"":""2D5BD668F13049FA8CDC71ECD2DDE2E2"",""assignmentId"":""e485ade4-8b74-4c41-8921-aa31da464083"",""projectId"":""bea99957-1862-4ad8-9558-57b91e42ce64""}","https://test12345.live/?participantId=2D5BD668F13049FA8CDC71ECD2DDE2E2&assignmentId=e485ade4-8b74-4c41-8921-aa31da464083&projectId=bea99957-1862-4ad8-9558-57b91e42ce64","","null","<div style=""display: flex; justify-content: center; align-items: center;"">
                    <img src=""images/causal/causal_series_14/causal_series_14_b.jpg"" style=""width: 300px; height: 300px;"" />
                  </div>","null","",""
"","","","","","html-keyboard-response","78","222533","0.0-56.0-2.0","2D5BD668F13049FA8CDC71ECD2DDE2E2","2D5BD668F13049FA8CDC71ECD2DDE2E2","e485ade4-8b74-4c41-8921-aa31da464083","bea99957-1862-4ad8-9558-57b91e42ce64","{""participantId"":""2D5BD668F13049FA8CDC71ECD2DDE2E2"",""assignmentId"":""e485ade4-8b74-4c41-8921-aa31da464083"",""projectId"":""bea99957-1862-4ad8-9558-57b91e42ce64""}","https://test12345.live/?participantId=2D5BD668F13049FA8CDC71ECD2DDE2E2&assignmentId=e485ade4-8b74-4c41-8921-aa31da464083&projectId=bea99957-1862-4ad8-9558-57b91e42ce64","","null","<div style=""display: flex; justify-content: center; align-items: center;"">
                    <img src=""images/causal/causal_series_14/causal_series_14_c.jpg"" style=""width: 300px; height: 300px;"" />
                  </div>","null","",""
"","","","","","html-keyboard-response","79","225548","0.0-56.0-3.0","2D5BD668F13049FA8CDC71ECD2DDE2E2","2D5BD668F13049FA8CDC71ECD2DDE2E2","e485ade4-8b74-4c41-8921-aa31da464083","bea99957-1862-4ad8-9558-57b91e42ce64","{""participantId"":""2D5BD668F13049FA8CDC71ECD2DDE2E2"",""assignmentId"":""e485ade4-8b74-4c41-8921-aa31da464083"",""projectId"":""bea99957-1862-4ad8-9558-57b91e42ce64""}","https://test12345.live/?participantId=2D5BD668F13049FA8CDC71ECD2DDE2E2&assignmentId=e485ade4-8b74-4c41-8921-aa31da464083&projectId=bea99957-1862-4ad8-9558-57b91e42ce64","","null","<div style=""display: flex; justify-content: center; align-items: center;"">
                    <img src=""images/causal/causal_series_14/causal_series_14_d.jpg"" style=""width: 300px; height: 300px;"" />
                  </div>","null","",""
"","","","","","html-button-response","80","227287","0.0-58.0","2D5BD668F13049FA8CDC71ECD2DDE2E2","2D5BD668F13049FA8CDC71ECD2DDE2E2","e485ade4-8b74-4c41-8921-aa31da464083","bea99957-1862-4ad8-9558-57b91e42ce64","{""participantId"":""2D5BD668F13049FA8CDC71ECD2DDE2E2"",""assignmentId"":""e485ade4-8b74-4c41-8921-aa31da464083"",""projectId"":""bea99957-1862-4ad8-9558-57b91e42ce64""}","https://test12345.live/?participantId=2D5BD668F13049FA8CDC71ECD2DDE2E2&assignmentId=e485ade4-8b74-4c41-8921-aa31da464083&projectId=bea99957-1862-4ad8-9558-57b91e42ce64","","1738","Was there a person in the picture?","0","",""
"","","","","","survey-likert","81","229480","0.0-59.0","2D5BD668F13049FA8CDC71ECD2DDE2E2","2D5BD668F13049FA8CDC71ECD2DDE2E2","e485ade4-8b74-4c41-8921-aa31da464083","bea99957-1862-4ad8-9558-57b91e42ce64","{""participantId"":""2D5BD668F13049FA8CDC71ECD2DDE2E2"",""assignmentId"":""e485ade4-8b74-4c41-8921-aa31da464083"",""projectId"":""bea99957-1862-4ad8-9558-57b91e42ce64""}","https://test12345.live/?participantId=2D5BD668F13049FA8CDC71ECD2DDE2E2&assignmentId=e485ade4-8b74-4c41-8921-aa31da464083&projectId=bea99957-1862-4ad8-9558-57b91e42ce64","","2192","","{""Q0"":4}","","[0]"
"","","","","","html-button-response","82","230370","0.0-60.0","2D5BD668F13049FA8CDC71ECD2DDE2E2","2D5BD668F13049FA8CDC71ECD2DDE2E2","e485ade4-8b74-4c41-8921-aa31da464083","bea99957-1862-4ad8-9558-57b91e42ce64","{""participantId"":""2D5BD668F13049FA8CDC71ECD2DDE2E2"",""assignmentId"":""e485ade4-8b74-4c41-8921-aa31da464083"",""projectId"":""bea99957-1862-4ad8-9558-57b91e42ce64""}","https://test12345.live/?participantId=2D5BD668F13049FA8CDC71ECD2DDE2E2&assignmentId=e485ade4-8b74-4c41-8921-aa31da464083&projectId=bea99957-1862-4ad8-9558-57b91e42ce64","","889","
    <div style=""display: flex; justify-content: center; align-items: center;"">
      <img src=""images/red_deck_2.png"" style=""width: 300px; height: 300px; margin-right: 10px;"" />
      <img src=""images/blue_deck_1.png"" style=""width: 300px; height: 300px;"" />
    </div>","1","1",""
"","","","","","html-keyboard-response","83","233371","0.0-61.0-0.0","2D5BD668F13049FA8CDC71ECD2DDE2E2","2D5BD668F13049FA8CDC71ECD2DDE2E2","e485ade4-8b74-4c41-8921-aa31da464083","bea99957-1862-4ad8-9558-57b91e42ce64","{""participantId"":""2D5BD668F13049FA8CDC71ECD2DDE2E2"",""assignmentId"":""e485ade4-8b74-4c41-8921-aa31da464083"",""projectId"":""bea99957-1862-4ad8-9558-57b91e42ce64""}","https://test12345.live/?participantId=2D5BD668F13049FA8CDC71ECD2DDE2E2&assignmentId=e485ade4-8b74-4c41-8921-aa31da464083&projectId=bea99957-1862-4ad8-9558-57b91e42ce64","","null","<div style=""display: flex; justify-content: center; align-items: center;"">
                    <img src=""images/causal/causal_series_5/causal_series_5_a.jpg"" style=""width: 300px; height: 300px;"" />
                  </div>","null","",""
"","","","","","html-keyboard-response","84","236372","0.0-61.0-1.0","2D5BD668F13049FA8CDC71ECD2DDE2E2","2D5BD668F13049FA8CDC71ECD2DDE2E2","e485ade4-8b74-4c41-8921-aa31da464083","bea99957-1862-4ad8-9558-57b91e42ce64","{""participantId"":""2D5BD668F13049FA8CDC71ECD2DDE2E2"",""assignmentId"":""e485ade4-8b74-4c41-8921-aa31da464083"",""projectId"":""bea99957-1862-4ad8-9558-57b91e42ce64""}","https://test12345.live/?participantId=2D5BD668F13049FA8CDC71ECD2DDE2E2&assignmentId=e485ade4-8b74-4c41-8921-aa31da464083&projectId=bea99957-1862-4ad8-9558-57b91e42ce64","","null","<div style=""display: flex; justify-content: center; align-items: center;"">
                    <img src=""images/causal/causal_series_5/causal_series_5_b.jpg"" style=""width: 300px; height: 300px;"" />
                  </div>","null","",""
"","","","","","html-keyboard-response","85","239373","0.0-61.0-2.0","2D5BD668F13049FA8CDC71ECD2DDE2E2","2D5BD668F13049FA8CDC71ECD2DDE2E2","e485ade4-8b74-4c41-8921-aa31da464083","bea99957-1862-4ad8-9558-57b91e42ce64","{""participantId"":""2D5BD668F13049FA8CDC71ECD2DDE2E2"",""assignmentId"":""e485ade4-8b74-4c41-8921-aa31da464083"",""projectId"":""bea99957-1862-4ad8-9558-57b91e42ce64""}","https://test12345.live/?participantId=2D5BD668F13049FA8CDC71ECD2DDE2E2&assignmentId=e485ade4-8b74-4c41-8921-aa31da464083&projectId=bea99957-1862-4ad8-9558-57b91e42ce64","","null","<div style=""display: flex; justify-content: center; align-items: center;"">
                    <img src=""images/causal/causal_series_5/causal_series_5_c.jpg"" style=""width: 300px; height: 300px;"" />
                  </div>","null","",""
"","","","","","html-keyboard-response","86","242386","0.0-61.0-3.0","2D5BD668F13049FA8CDC71ECD2DDE2E2","2D5BD668F13049FA8CDC71ECD2DDE2E2","e485ade4-8b74-4c41-8921-aa31da464083","bea99957-1862-4ad8-9558-57b91e42ce64","{""participantId"":""2D5BD668F13049FA8CDC71ECD2DDE2E2"",""assignmentId"":""e485ade4-8b74-4c41-8921-aa31da464083"",""projectId"":""bea99957-1862-4ad8-9558-57b91e42ce64""}","https://test12345.live/?participantId=2D5BD668F13049FA8CDC71ECD2DDE2E2&assignmentId=e485ade4-8b74-4c41-8921-aa31da464083&projectId=bea99957-1862-4ad8-9558-57b91e42ce64","","null","<div style=""display: flex; justify-content: center; align-items: center;"">
                    <img src=""images/causal/causal_series_5/causal_series_5_d.jpg"" style=""width: 300px; height: 300px;"" />
                  </div>","null","",""
"","","","","","html-button-response","87","243614","0.0-63.0","2D5BD668F13049FA8CDC71ECD2DDE2E2","2D5BD668F13049FA8CDC71ECD2DDE2E2","e485ade4-8b74-4c41-8921-aa31da464083","bea99957-1862-4ad8-9558-57b91e42ce64","{""participantId"":""2D5BD668F13049FA8CDC71ECD2DDE2E2"",""assignmentId"":""e485ade4-8b74-4c41-8921-aa31da464083"",""projectId"":""bea99957-1862-4ad8-9558-57b91e42ce64""}","https://test12345.live/?participantId=2D5BD668F13049FA8CDC71ECD2DDE2E2&assignmentId=e485ade4-8b74-4c41-8921-aa31da464083&projectId=bea99957-1862-4ad8-9558-57b91e42ce64","","1228","Was there a person in the picture?","0","",""
"","","","","","survey-likert","88","245568","0.0-64.0","2D5BD668F13049FA8CDC71ECD2DDE2E2","2D5BD668F13049FA8CDC71ECD2DDE2E2","e485ade4-8b74-4c41-8921-aa31da464083","bea99957-1862-4ad8-9558-57b91e42ce64","{""participantId"":""2D5BD668F13049FA8CDC71ECD2DDE2E2"",""assignmentId"":""e485ade4-8b74-4c41-8921-aa31da464083"",""projectId"":""bea99957-1862-4ad8-9558-57b91e42ce64""}","https://test12345.live/?participantId=2D5BD668F13049FA8CDC71ECD2DDE2E2&assignmentId=e485ade4-8b74-4c41-8921-aa31da464083&projectId=bea99957-1862-4ad8-9558-57b91e42ce64","","1954","","{""Q0"":4}","","[0]"
"","","","","","html-button-response","89","246631","0.0-65.0","2D5BD668F13049FA8CDC71ECD2DDE2E2","2D5BD668F13049FA8CDC71ECD2DDE2E2","e485ade4-8b74-4c41-8921-aa31da464083","bea99957-1862-4ad8-9558-57b91e42ce64","{""participantId"":""2D5BD668F13049FA8CDC71ECD2DDE2E2"",""assignmentId"":""e485ade4-8b74-4c41-8921-aa31da464083"",""projectId"":""bea99957-1862-4ad8-9558-57b91e42ce64""}","https://test12345.live/?participantId=2D5BD668F13049FA8CDC71ECD2DDE2E2&assignmentId=e485ade4-8b74-4c41-8921-aa31da464083&projectId=bea99957-1862-4ad8-9558-57b91e42ce64","","1062","
    <div style=""display: flex; justify-content: center; align-items: center;"">
      <img src=""images/red_deck_2.png"" style=""width: 300px; height: 300px; margin-right: 10px;"" />
      <img src=""images/blue_deck_1.png"" style=""width: 300px; height: 300px;"" />
    </div>","1","1",""
"","","","","","html-keyboard-response","90","249639","0.0-66.0-0.0","2D5BD668F13049FA8CDC71ECD2DDE2E2","2D5BD668F13049FA8CDC71ECD2DDE2E2","e485ade4-8b74-4c41-8921-aa31da464083","bea99957-1862-4ad8-9558-57b91e42ce64","{""participantId"":""2D5BD668F13049FA8CDC71ECD2DDE2E2"",""assignmentId"":""e485ade4-8b74-4c41-8921-aa31da464083"",""projectId"":""bea99957-1862-4ad8-9558-57b91e42ce64""}","https://test12345.live/?participantId=2D5BD668F13049FA8CDC71ECD2DDE2E2&assignmentId=e485ade4-8b74-4c41-8921-aa31da464083&projectId=bea99957-1862-4ad8-9558-57b91e42ce64","","null","<div style=""display: flex; justify-content: center; align-items: center;"">
                    <img src=""images/causal/causal_series_12/causal_series_12_a.jpg"" style=""width: 300px; height: 300px;"" />
                  </div>","null","",""
"","","","","","html-keyboard-response","91","252650","0.0-66.0-1.0","2D5BD668F13049FA8CDC71ECD2DDE2E2","2D5BD668F13049FA8CDC71ECD2DDE2E2","e485ade4-8b74-4c41-8921-aa31da464083","bea99957-1862-4ad8-9558-57b91e42ce64","{""participantId"":""2D5BD668F13049FA8CDC71ECD2DDE2E2"",""assignmentId"":""e485ade4-8b74-4c41-8921-aa31da464083"",""projectId"":""bea99957-1862-4ad8-9558-57b91e42ce64""}","https://test12345.live/?participantId=2D5BD668F13049FA8CDC71ECD2DDE2E2&assignmentId=e485ade4-8b74-4c41-8921-aa31da464083&projectId=bea99957-1862-4ad8-9558-57b91e42ce64","","null","<div style=""display: flex; justify-content: center; align-items: center;"">
                    <img src=""images/causal/causal_series_12/causal_series_12_b.jpg"" style=""width: 300px; height: 300px;"" />
                  </div>","null","",""
"","","","","","html-keyboard-response","92","255652","0.0-66.0-2.0","2D5BD668F13049FA8CDC71ECD2DDE2E2","2D5BD668F13049FA8CDC71ECD2DDE2E2","e485ade4-8b74-4c41-8921-aa31da464083","bea99957-1862-4ad8-9558-57b91e42ce64","{""participantId"":""2D5BD668F13049FA8CDC71ECD2DDE2E2"",""assignmentId"":""e485ade4-8b74-4c41-8921-aa31da464083"",""projectId"":""bea99957-1862-4ad8-9558-57b91e42ce64""}","https://test12345.live/?participantId=2D5BD668F13049FA8CDC71ECD2DDE2E2&assignmentId=e485ade4-8b74-4c41-8921-aa31da464083&projectId=bea99957-1862-4ad8-9558-57b91e42ce64","","null","<div style=""display: flex; justify-content: center; align-items: center;"">
                    <img src=""images/causal/causal_series_12/causal_series_12_c.jpg"" style=""width: 300px; height: 300px;"" />
                  </div>","null","",""
"","","","","","html-keyboard-response","93","258654","0.0-66.0-3.0","2D5BD668F13049FA8CDC71ECD2DDE2E2","2D5BD668F13049FA8CDC71ECD2DDE2E2","e485ade4-8b74-4c41-8921-aa31da464083","bea99957-1862-4ad8-9558-57b91e42ce64","{""participantId"":""2D5BD668F13049FA8CDC71ECD2DDE2E2"",""assignmentId"":""e485ade4-8b74-4c41-8921-aa31da464083"",""projectId"":""bea99957-1862-4ad8-9558-57b91e42ce64""}","https://test12345.live/?participantId=2D5BD668F13049FA8CDC71ECD2DDE2E2&assignmentId=e485ade4-8b74-4c41-8921-aa31da464083&projectId=bea99957-1862-4ad8-9558-57b91e42ce64","","null","<div style=""display: flex; justify-content: center; align-items: center;"">
                    <img src=""images/causal/causal_series_12/causal_series_12_d.jpg"" style=""width: 300px; height: 300px;"" />
                  </div>","null","",""
"","","","","","html-button-response","94","260232","0.0-68.0","2D5BD668F13049FA8CDC71ECD2DDE2E2","2D5BD668F13049FA8CDC71ECD2DDE2E2","e485ade4-8b74-4c41-8921-aa31da464083","bea99957-1862-4ad8-9558-57b91e42ce64","{""participantId"":""2D5BD668F13049FA8CDC71ECD2DDE2E2"",""assignmentId"":""e485ade4-8b74-4c41-8921-aa31da464083"",""projectId"":""bea99957-1862-4ad8-9558-57b91e42ce64""}","https://test12345.live/?participantId=2D5BD668F13049FA8CDC71ECD2DDE2E2&assignmentId=e485ade4-8b74-4c41-8921-aa31da464083&projectId=bea99957-1862-4ad8-9558-57b91e42ce64","","1578","Was there a person in the picture?","1","",""
"","","","","","survey-likert","95","262287","0.0-69.0","2D5BD668F13049FA8CDC71ECD2DDE2E2","2D5BD668F13049FA8CDC71ECD2DDE2E2","e485ade4-8b74-4c41-8921-aa31da464083","bea99957-1862-4ad8-9558-57b91e42ce64","{""participantId"":""2D5BD668F13049FA8CDC71ECD2DDE2E2"",""assignmentId"":""e485ade4-8b74-4c41-8921-aa31da464083"",""projectId"":""bea99957-1862-4ad8-9558-57b91e42ce64""}","https://test12345.live/?participantId=2D5BD668F13049FA8CDC71ECD2DDE2E2&assignmentId=e485ade4-8b74-4c41-8921-aa31da464083&projectId=bea99957-1862-4ad8-9558-57b91e42ce64","","2054","","{""Q0"":4}","","[0]"
"","","","","","html-button-response","96","263050","0.0-70.0","2D5BD668F13049FA8CDC71ECD2DDE2E2","2D5BD668F13049FA8CDC71ECD2DDE2E2","e485ade4-8b74-4c41-8921-aa31da464083","bea99957-1862-4ad8-9558-57b91e42ce64","{""participantId"":""2D5BD668F13049FA8CDC71ECD2DDE2E2"",""assignmentId"":""e485ade4-8b74-4c41-8921-aa31da464083"",""projectId"":""bea99957-1862-4ad8-9558-57b91e42ce64""}","https://test12345.live/?participantId=2D5BD668F13049FA8CDC71ECD2DDE2E2&assignmentId=e485ade4-8b74-4c41-8921-aa31da464083&projectId=bea99957-1862-4ad8-9558-57b91e42ce64","","762","
    <div style=""display: flex; justify-content: center; align-items: center;"">
      <img src=""images/red_deck_2.png"" style=""width: 300px; height: 300px; margin-right: 10px;"" />
      <img src=""images/blue_deck_1.png"" style=""width: 300px; height: 300px;"" />
    </div>","1","1",""
"","","","","","html-keyboard-response","97","266061","0.0-71.0-0.0","2D5BD668F13049FA8CDC71ECD2DDE2E2","2D5BD668F13049FA8CDC71ECD2DDE2E2","e485ade4-8b74-4c41-8921-aa31da464083","bea99957-1862-4ad8-9558-57b91e42ce64","{""participantId"":""2D5BD668F13049FA8CDC71ECD2DDE2E2"",""assignmentId"":""e485ade4-8b74-4c41-8921-aa31da464083"",""projectId"":""bea99957-1862-4ad8-9558-57b91e42ce64""}","https://test12345.live/?participantId=2D5BD668F13049FA8CDC71ECD2DDE2E2&assignmentId=e485ade4-8b74-4c41-8921-aa31da464083&projectId=bea99957-1862-4ad8-9558-57b91e42ce64","","null","<div style=""display: flex; justify-content: center; align-items: center;"">
                    <img src=""images/causal/causal_series_10/causal_series_10_a.jpg"" style=""width: 300px; height: 300px;"" />
                  </div>","null","",""
"","","","","","html-keyboard-response","98","269072","0.0-71.0-1.0","2D5BD668F13049FA8CDC71ECD2DDE2E2","2D5BD668F13049FA8CDC71ECD2DDE2E2","e485ade4-8b74-4c41-8921-aa31da464083","bea99957-1862-4ad8-9558-57b91e42ce64","{""participantId"":""2D5BD668F13049FA8CDC71ECD2DDE2E2"",""assignmentId"":""e485ade4-8b74-4c41-8921-aa31da464083"",""projectId"":""bea99957-1862-4ad8-9558-57b91e42ce64""}","https://test12345.live/?participantId=2D5BD668F13049FA8CDC71ECD2DDE2E2&assignmentId=e485ade4-8b74-4c41-8921-aa31da464083&projectId=bea99957-1862-4ad8-9558-57b91e42ce64","","null","<div style=""display: flex; justify-content: center; align-items: center;"">
                    <img src=""images/causal/causal_series_10/causal_series_10_b.jpg"" style=""width: 300px; height: 300px;"" />
                  </div>","null","",""
"","","","","","html-keyboard-response","99","272087","0.0-71.0-2.0","2D5BD668F13049FA8CDC71ECD2DDE2E2","2D5BD668F13049FA8CDC71ECD2DDE2E2","e485ade4-8b74-4c41-8921-aa31da464083","bea99957-1862-4ad8-9558-57b91e42ce64","{""participantId"":""2D5BD668F13049FA8CDC71ECD2DDE2E2"",""assignmentId"":""e485ade4-8b74-4c41-8921-aa31da464083"",""projectId"":""bea99957-1862-4ad8-9558-57b91e42ce64""}","https://test12345.live/?participantId=2D5BD668F13049FA8CDC71ECD2DDE2E2&assignmentId=e485ade4-8b74-4c41-8921-aa31da464083&projectId=bea99957-1862-4ad8-9558-57b91e42ce64","","null","<div style=""display: flex; justify-content: center; align-items: center;"">
                    <img src=""images/causal/causal_series_10/causal_series_10_c.jpg"" style=""width: 300px; height: 300px;"" />
                  </div>","null","",""
"","","","","","html-keyboard-response","100","275090","0.0-71.0-3.0","2D5BD668F13049FA8CDC71ECD2DDE2E2","2D5BD668F13049FA8CDC71ECD2DDE2E2","e485ade4-8b74-4c41-8921-aa31da464083","bea99957-1862-4ad8-9558-57b91e42ce64","{""participantId"":""2D5BD668F13049FA8CDC71ECD2DDE2E2"",""assignmentId"":""e485ade4-8b74-4c41-8921-aa31da464083"",""projectId"":""bea99957-1862-4ad8-9558-57b91e42ce64""}","https://test12345.live/?participantId=2D5BD668F13049FA8CDC71ECD2DDE2E2&assignmentId=e485ade4-8b74-4c41-8921-aa31da464083&projectId=bea99957-1862-4ad8-9558-57b91e42ce64","","null","<div style=""display: flex; justify-content: center; align-items: center;"">
                    <img src=""images/causal/causal_series_10/causal_series_10_d.jpg"" style=""width: 300px; height: 300px;"" />
                  </div>","null","",""
"","","","","","html-button-response","101","275904","0.0-73.0","2D5BD668F13049FA8CDC71ECD2DDE2E2","2D5BD668F13049FA8CDC71ECD2DDE2E2","e485ade4-8b74-4c41-8921-aa31da464083","bea99957-1862-4ad8-9558-57b91e42ce64","{""participantId"":""2D5BD668F13049FA8CDC71ECD2DDE2E2"",""assignmentId"":""e485ade4-8b74-4c41-8921-aa31da464083"",""projectId"":""bea99957-1862-4ad8-9558-57b91e42ce64""}","https://test12345.live/?participantId=2D5BD668F13049FA8CDC71ECD2DDE2E2&assignmentId=e485ade4-8b74-4c41-8921-aa31da464083&projectId=bea99957-1862-4ad8-9558-57b91e42ce64","","814","Was there a person in the picture?","1","",""
"","","","","","survey-likert","102","277695","0.0-74.0","2D5BD668F13049FA8CDC71ECD2DDE2E2","2D5BD668F13049FA8CDC71ECD2DDE2E2","e485ade4-8b74-4c41-8921-aa31da464083","bea99957-1862-4ad8-9558-57b91e42ce64","{""participantId"":""2D5BD668F13049FA8CDC71ECD2DDE2E2"",""assignmentId"":""e485ade4-8b74-4c41-8921-aa31da464083"",""projectId"":""bea99957-1862-4ad8-9558-57b91e42ce64""}","https://test12345.live/?participantId=2D5BD668F13049FA8CDC71ECD2DDE2E2&assignmentId=e485ade4-8b74-4c41-8921-aa31da464083&projectId=bea99957-1862-4ad8-9558-57b91e42ce64","","1790","","{""Q0"":4}","","[0]"
"","","","","","html-button-response","103","278483","0.0-75.0","2D5BD668F13049FA8CDC71ECD2DDE2E2","2D5BD668F13049FA8CDC71ECD2DDE2E2","e485ade4-8b74-4c41-8921-aa31da464083","bea99957-1862-4ad8-9558-57b91e42ce64","{""participantId"":""2D5BD668F13049FA8CDC71ECD2DDE2E2"",""assignmentId"":""e485ade4-8b74-4c41-8921-aa31da464083"",""projectId"":""bea99957-1862-4ad8-9558-57b91e42ce64""}","https://test12345.live/?participantId=2D5BD668F13049FA8CDC71ECD2DDE2E2&assignmentId=e485ade4-8b74-4c41-8921-aa31da464083&projectId=bea99957-1862-4ad8-9558-57b91e42ce64","","787","
    <div style=""display: flex; justify-content: center; align-items: center;"">
      <img src=""images/red_deck_2.png"" style=""width: 300px; height: 300px; margin-right: 10px;"" />
      <img src=""images/blue_deck_1.png"" style=""width: 300px; height: 300px;"" />
    </div>","0","0",""
"","","","","","html-keyboard-response","104","281490","0.0-77.0-0.0","2D5BD668F13049FA8CDC71ECD2DDE2E2","2D5BD668F13049FA8CDC71ECD2DDE2E2","e485ade4-8b74-4c41-8921-aa31da464083","bea99957-1862-4ad8-9558-57b91e42ce64","{""participantId"":""2D5BD668F13049FA8CDC71ECD2DDE2E2"",""assignmentId"":""e485ade4-8b74-4c41-8921-aa31da464083"",""projectId"":""bea99957-1862-4ad8-9558-57b91e42ce64""}","https://test12345.live/?participantId=2D5BD668F13049FA8CDC71ECD2DDE2E2&assignmentId=e485ade4-8b74-4c41-8921-aa31da464083&projectId=bea99957-1862-4ad8-9558-57b91e42ce64","","null","<div style=""display: flex; justify-content: center; align-items: center;"">
                    <img src=""images/semantic/semantic_series_5/semantic_series_5_a.jpg"" style=""width: 300px; height: 300px;"" />
                  </div>","null","",""
"","","","","","html-keyboard-response","105","284501","0.0-77.0-1.0","2D5BD668F13049FA8CDC71ECD2DDE2E2","2D5BD668F13049FA8CDC71ECD2DDE2E2","e485ade4-8b74-4c41-8921-aa31da464083","bea99957-1862-4ad8-9558-57b91e42ce64","{""participantId"":""2D5BD668F13049FA8CDC71ECD2DDE2E2"",""assignmentId"":""e485ade4-8b74-4c41-8921-aa31da464083"",""projectId"":""bea99957-1862-4ad8-9558-57b91e42ce64""}","https://test12345.live/?participantId=2D5BD668F13049FA8CDC71ECD2DDE2E2&assignmentId=e485ade4-8b74-4c41-8921-aa31da464083&projectId=bea99957-1862-4ad8-9558-57b91e42ce64","","null","<div style=""display: flex; justify-content: center; align-items: center;"">
                    <img src=""images/semantic/semantic_series_5/semantic_series_5_b.jpg"" style=""width: 300px; height: 300px;"" />
                  </div>","null","",""
"","","","","","html-keyboard-response","106","287509","0.0-77.0-2.0","2D5BD668F13049FA8CDC71ECD2DDE2E2","2D5BD668F13049FA8CDC71ECD2DDE2E2","e485ade4-8b74-4c41-8921-aa31da464083","bea99957-1862-4ad8-9558-57b91e42ce64","{""participantId"":""2D5BD668F13049FA8CDC71ECD2DDE2E2"",""assignmentId"":""e485ade4-8b74-4c41-8921-aa31da464083"",""projectId"":""bea99957-1862-4ad8-9558-57b91e42ce64""}","https://test12345.live/?participantId=2D5BD668F13049FA8CDC71ECD2DDE2E2&assignmentId=e485ade4-8b74-4c41-8921-aa31da464083&projectId=bea99957-1862-4ad8-9558-57b91e42ce64","","null","<div style=""display: flex; justify-content: center; align-items: center;"">
                    <img src=""images/semantic/semantic_series_5/semantic_series_5_c.jpg"" style=""width: 300px; height: 300px;"" />
                  </div>","null","",""
"","","","","","html-keyboard-response","107","290525","0.0-77.0-3.0","2D5BD668F13049FA8CDC71ECD2DDE2E2","2D5BD668F13049FA8CDC71ECD2DDE2E2","e485ade4-8b74-4c41-8921-aa31da464083","bea99957-1862-4ad8-9558-57b91e42ce64","{""participantId"":""2D5BD668F13049FA8CDC71ECD2DDE2E2"",""assignmentId"":""e485ade4-8b74-4c41-8921-aa31da464083"",""projectId"":""bea99957-1862-4ad8-9558-57b91e42ce64""}","https://test12345.live/?participantId=2D5BD668F13049FA8CDC71ECD2DDE2E2&assignmentId=e485ade4-8b74-4c41-8921-aa31da464083&projectId=bea99957-1862-4ad8-9558-57b91e42ce64","","null","<div style=""display: flex; justify-content: center; align-items: center;"">
                    <img src=""images/semantic/semantic_series_5/semantic_series_5_d.jpg"" style=""width: 300px; height: 300px;"" />
                  </div>","null","",""
"","","","","","html-button-response","108","292202","0.0-78.0","2D5BD668F13049FA8CDC71ECD2DDE2E2","2D5BD668F13049FA8CDC71ECD2DDE2E2","e485ade4-8b74-4c41-8921-aa31da464083","bea99957-1862-4ad8-9558-57b91e42ce64","{""participantId"":""2D5BD668F13049FA8CDC71ECD2DDE2E2"",""assignmentId"":""e485ade4-8b74-4c41-8921-aa31da464083"",""projectId"":""bea99957-1862-4ad8-9558-57b91e42ce64""}","https://test12345.live/?participantId=2D5BD668F13049FA8CDC71ECD2DDE2E2&assignmentId=e485ade4-8b74-4c41-8921-aa31da464083&projectId=bea99957-1862-4ad8-9558-57b91e42ce64","","1676","Was there a person in the picture?","0","",""
"","","","","","survey-likert","109","294961","0.0-79.0","2D5BD668F13049FA8CDC71ECD2DDE2E2","2D5BD668F13049FA8CDC71ECD2DDE2E2","e485ade4-8b74-4c41-8921-aa31da464083","bea99957-1862-4ad8-9558-57b91e42ce64","{""participantId"":""2D5BD668F13049FA8CDC71ECD2DDE2E2"",""assignmentId"":""e485ade4-8b74-4c41-8921-aa31da464083"",""projectId"":""bea99957-1862-4ad8-9558-57b91e42ce64""}","https://test12345.live/?participantId=2D5BD668F13049FA8CDC71ECD2DDE2E2&assignmentId=e485ade4-8b74-4c41-8921-aa31da464083&projectId=bea99957-1862-4ad8-9558-57b91e42ce64","","2759","","{""Q0"":4}","","[0]"
"","","","","","html-button-response","110","296127","0.0-80.0","2D5BD668F13049FA8CDC71ECD2DDE2E2","2D5BD668F13049FA8CDC71ECD2DDE2E2","e485ade4-8b74-4c41-8921-aa31da464083","bea99957-1862-4ad8-9558-57b91e42ce64","{""participantId"":""2D5BD668F13049FA8CDC71ECD2DDE2E2"",""assignmentId"":""e485ade4-8b74-4c41-8921-aa31da464083"",""projectId"":""bea99957-1862-4ad8-9558-57b91e42ce64""}","https://test12345.live/?participantId=2D5BD668F13049FA8CDC71ECD2DDE2E2&assignmentId=e485ade4-8b74-4c41-8921-aa31da464083&projectId=bea99957-1862-4ad8-9558-57b91e42ce64","","1165","
    <div style=""display: flex; justify-content: center; align-items: center;"">
      <img src=""images/red_deck_2.png"" style=""width: 300px; height: 300px; margin-right: 10px;"" />
      <img src=""images/blue_deck_1.png"" style=""width: 300px; height: 300px;"" />
    </div>","0","0",""
"","","","","","html-keyboard-response","111","299128","0.0-82.0-0.0","2D5BD668F13049FA8CDC71ECD2DDE2E2","2D5BD668F13049FA8CDC71ECD2DDE2E2","e485ade4-8b74-4c41-8921-aa31da464083","bea99957-1862-4ad8-9558-57b91e42ce64","{""participantId"":""2D5BD668F13049FA8CDC71ECD2DDE2E2"",""assignmentId"":""e485ade4-8b74-4c41-8921-aa31da464083"",""projectId"":""bea99957-1862-4ad8-9558-57b91e42ce64""}","https://test12345.live/?participantId=2D5BD668F13049FA8CDC71ECD2DDE2E2&assignmentId=e485ade4-8b74-4c41-8921-aa31da464083&projectId=bea99957-1862-4ad8-9558-57b91e42ce64","","null","<div style=""display: flex; justify-content: center; align-items: center;"">
                    <img src=""images/semantic/semantic_series_10/semantic_series_10_a.jpg"" style=""width: 300px; height: 300px;"" />
                  </div>","null","",""
"","","","","","html-keyboard-response","112","302135","0.0-82.0-1.0","2D5BD668F13049FA8CDC71ECD2DDE2E2","2D5BD668F13049FA8CDC71ECD2DDE2E2","e485ade4-8b74-4c41-8921-aa31da464083","bea99957-1862-4ad8-9558-57b91e42ce64","{""participantId"":""2D5BD668F13049FA8CDC71ECD2DDE2E2"",""assignmentId"":""e485ade4-8b74-4c41-8921-aa31da464083"",""projectId"":""bea99957-1862-4ad8-9558-57b91e42ce64""}","https://test12345.live/?participantId=2D5BD668F13049FA8CDC71ECD2DDE2E2&assignmentId=e485ade4-8b74-4c41-8921-aa31da464083&projectId=bea99957-1862-4ad8-9558-57b91e42ce64","","null","<div style=""display: flex; justify-content: center; align-items: center;"">
                    <img src=""images/semantic/semantic_series_10/semantic_series_10_b.jpg"" style=""width: 300px; height: 300px;"" />
                  </div>","null","",""
"","","","","","html-keyboard-response","113","305137","0.0-82.0-2.0","2D5BD668F13049FA8CDC71ECD2DDE2E2","2D5BD668F13049FA8CDC71ECD2DDE2E2","e485ade4-8b74-4c41-8921-aa31da464083","bea99957-1862-4ad8-9558-57b91e42ce64","{""participantId"":""2D5BD668F13049FA8CDC71ECD2DDE2E2"",""assignmentId"":""e485ade4-8b74-4c41-8921-aa31da464083"",""projectId"":""bea99957-1862-4ad8-9558-57b91e42ce64""}","https://test12345.live/?participantId=2D5BD668F13049FA8CDC71ECD2DDE2E2&assignmentId=e485ade4-8b74-4c41-8921-aa31da464083&projectId=bea99957-1862-4ad8-9558-57b91e42ce64","","null","<div style=""display: flex; justify-content: center; align-items: center;"">
                    <img src=""images/semantic/semantic_series_10/semantic_series_10_c.jpg"" style=""width: 300px; height: 300px;"" />
                  </div>","null","",""
"","","","","","html-keyboard-response","114","308150","0.0-82.0-3.0","2D5BD668F13049FA8CDC71ECD2DDE2E2","2D5BD668F13049FA8CDC71ECD2DDE2E2","e485ade4-8b74-4c41-8921-aa31da464083","bea99957-1862-4ad8-9558-57b91e42ce64","{""participantId"":""2D5BD668F13049FA8CDC71ECD2DDE2E2"",""assignmentId"":""e485ade4-8b74-4c41-8921-aa31da464083"",""projectId"":""bea99957-1862-4ad8-9558-57b91e42ce64""}","https://test12345.live/?participantId=2D5BD668F13049FA8CDC71ECD2DDE2E2&assignmentId=e485ade4-8b74-4c41-8921-aa31da464083&projectId=bea99957-1862-4ad8-9558-57b91e42ce64","","null","<div style=""display: flex; justify-content: center; align-items: center;"">
                    <img src=""images/semantic/semantic_series_10/semantic_series_10_d.jpg"" style=""width: 300px; height: 300px;"" />
                  </div>","null","",""
"","","","","","html-button-response","115","309487","0.0-83.0","2D5BD668F13049FA8CDC71ECD2DDE2E2","2D5BD668F13049FA8CDC71ECD2DDE2E2","e485ade4-8b74-4c41-8921-aa31da464083","bea99957-1862-4ad8-9558-57b91e42ce64","{""participantId"":""2D5BD668F13049FA8CDC71ECD2DDE2E2"",""assignmentId"":""e485ade4-8b74-4c41-8921-aa31da464083"",""projectId"":""bea99957-1862-4ad8-9558-57b91e42ce64""}","https://test12345.live/?participantId=2D5BD668F13049FA8CDC71ECD2DDE2E2&assignmentId=e485ade4-8b74-4c41-8921-aa31da464083&projectId=bea99957-1862-4ad8-9558-57b91e42ce64","","1337","Was there a person in the picture?","1","",""
"","","","","","survey-likert","116","311050","0.0-84.0","2D5BD668F13049FA8CDC71ECD2DDE2E2","2D5BD668F13049FA8CDC71ECD2DDE2E2","e485ade4-8b74-4c41-8921-aa31da464083","bea99957-1862-4ad8-9558-57b91e42ce64","{""participantId"":""2D5BD668F13049FA8CDC71ECD2DDE2E2"",""assignmentId"":""e485ade4-8b74-4c41-8921-aa31da464083"",""projectId"":""bea99957-1862-4ad8-9558-57b91e42ce64""}","https://test12345.live/?participantId=2D5BD668F13049FA8CDC71ECD2DDE2E2&assignmentId=e485ade4-8b74-4c41-8921-aa31da464083&projectId=bea99957-1862-4ad8-9558-57b91e42ce64","","1563","","{""Q0"":4}","","[0]"
"","","","","","html-button-response","117","311951","0.0-85.0","2D5BD668F13049FA8CDC71ECD2DDE2E2","2D5BD668F13049FA8CDC71ECD2DDE2E2","e485ade4-8b74-4c41-8921-aa31da464083","bea99957-1862-4ad8-9558-57b91e42ce64","{""participantId"":""2D5BD668F13049FA8CDC71ECD2DDE2E2"",""assignmentId"":""e485ade4-8b74-4c41-8921-aa31da464083"",""projectId"":""bea99957-1862-4ad8-9558-57b91e42ce64""}","https://test12345.live/?participantId=2D5BD668F13049FA8CDC71ECD2DDE2E2&assignmentId=e485ade4-8b74-4c41-8921-aa31da464083&projectId=bea99957-1862-4ad8-9558-57b91e42ce64","","900","
    <div style=""display: flex; justify-content: center; align-items: center;"">
      <img src=""images/red_deck_2.png"" style=""width: 300px; height: 300px; margin-right: 10px;"" />
      <img src=""images/blue_deck_1.png"" style=""width: 300px; height: 300px;"" />
    </div>","1","1",""
"","","","","","html-keyboard-response","118","314953","0.0-86.0-0.0","2D5BD668F13049FA8CDC71ECD2DDE2E2","2D5BD668F13049FA8CDC71ECD2DDE2E2","e485ade4-8b74-4c41-8921-aa31da464083","bea99957-1862-4ad8-9558-57b91e42ce64","{""participantId"":""2D5BD668F13049FA8CDC71ECD2DDE2E2"",""assignmentId"":""e485ade4-8b74-4c41-8921-aa31da464083"",""projectId"":""bea99957-1862-4ad8-9558-57b91e42ce64""}","https://test12345.live/?participantId=2D5BD668F13049FA8CDC71ECD2DDE2E2&assignmentId=e485ade4-8b74-4c41-8921-aa31da464083&projectId=bea99957-1862-4ad8-9558-57b91e42ce64","","null","<div style=""display: flex; justify-content: center; align-items: center;"">
                    <img src=""images/causal/causal_series_18/causal_series_18_a.jpg"" style=""width: 300px; height: 300px;"" />
                  </div>","null","",""
"","","","","","html-keyboard-response","119","317954","0.0-86.0-1.0","2D5BD668F13049FA8CDC71ECD2DDE2E2","2D5BD668F13049FA8CDC71ECD2DDE2E2","e485ade4-8b74-4c41-8921-aa31da464083","bea99957-1862-4ad8-9558-57b91e42ce64","{""participantId"":""2D5BD668F13049FA8CDC71ECD2DDE2E2"",""assignmentId"":""e485ade4-8b74-4c41-8921-aa31da464083"",""projectId"":""bea99957-1862-4ad8-9558-57b91e42ce64""}","https://test12345.live/?participantId=2D5BD668F13049FA8CDC71ECD2DDE2E2&assignmentId=e485ade4-8b74-4c41-8921-aa31da464083&projectId=bea99957-1862-4ad8-9558-57b91e42ce64","","null","<div style=""display: flex; justify-content: center; align-items: center;"">
                    <img src=""images/causal/causal_series_18/causal_series_18_b.jpg"" style=""width: 300px; height: 300px;"" />
                  </div>","null","",""
"","","","","","html-keyboard-response","120","320961","0.0-86.0-2.0","2D5BD668F13049FA8CDC71ECD2DDE2E2","2D5BD668F13049FA8CDC71ECD2DDE2E2","e485ade4-8b74-4c41-8921-aa31da464083","bea99957-1862-4ad8-9558-57b91e42ce64","{""participantId"":""2D5BD668F13049FA8CDC71ECD2DDE2E2"",""assignmentId"":""e485ade4-8b74-4c41-8921-aa31da464083"",""projectId"":""bea99957-1862-4ad8-9558-57b91e42ce64""}","https://test12345.live/?participantId=2D5BD668F13049FA8CDC71ECD2DDE2E2&assignmentId=e485ade4-8b74-4c41-8921-aa31da464083&projectId=bea99957-1862-4ad8-9558-57b91e42ce64","","null","<div style=""display: flex; justify-content: center; align-items: center;"">
                    <img src=""images/causal/causal_series_18/causal_series_18_c.jpg"" style=""width: 300px; height: 300px;"" />
                  </div>","null","",""
"","","","","","html-keyboard-response","121","323967","0.0-86.0-3.0","2D5BD668F13049FA8CDC71ECD2DDE2E2","2D5BD668F13049FA8CDC71ECD2DDE2E2","e485ade4-8b74-4c41-8921-aa31da464083","bea99957-1862-4ad8-9558-57b91e42ce64","{""participantId"":""2D5BD668F13049FA8CDC71ECD2DDE2E2"",""assignmentId"":""e485ade4-8b74-4c41-8921-aa31da464083"",""projectId"":""bea99957-1862-4ad8-9558-57b91e42ce64""}","https://test12345.live/?participantId=2D5BD668F13049FA8CDC71ECD2DDE2E2&assignmentId=e485ade4-8b74-4c41-8921-aa31da464083&projectId=bea99957-1862-4ad8-9558-57b91e42ce64","","null","<div style=""display: flex; justify-content: center; align-items: center;"">
                    <img src=""images/causal/causal_series_18/causal_series_18_d.jpg"" style=""width: 300px; height: 300px;"" />
                  </div>","null","",""
"","","","","","html-button-response","122","324817","0.0-88.0","2D5BD668F13049FA8CDC71ECD2DDE2E2","2D5BD668F13049FA8CDC71ECD2DDE2E2","e485ade4-8b74-4c41-8921-aa31da464083","bea99957-1862-4ad8-9558-57b91e42ce64","{""participantId"":""2D5BD668F13049FA8CDC71ECD2DDE2E2"",""assignmentId"":""e485ade4-8b74-4c41-8921-aa31da464083"",""projectId"":""bea99957-1862-4ad8-9558-57b91e42ce64""}","https://test12345.live/?participantId=2D5BD668F13049FA8CDC71ECD2DDE2E2&assignmentId=e485ade4-8b74-4c41-8921-aa31da464083&projectId=bea99957-1862-4ad8-9558-57b91e42ce64","","850","Was there a person in the picture?","1","",""
"","","","","","survey-likert","123","326541","0.0-89.0","2D5BD668F13049FA8CDC71ECD2DDE2E2","2D5BD668F13049FA8CDC71ECD2DDE2E2","e485ade4-8b74-4c41-8921-aa31da464083","bea99957-1862-4ad8-9558-57b91e42ce64","{""participantId"":""2D5BD668F13049FA8CDC71ECD2DDE2E2"",""assignmentId"":""e485ade4-8b74-4c41-8921-aa31da464083"",""projectId"":""bea99957-1862-4ad8-9558-57b91e42ce64""}","https://test12345.live/?participantId=2D5BD668F13049FA8CDC71ECD2DDE2E2&assignmentId=e485ade4-8b74-4c41-8921-aa31da464083&projectId=bea99957-1862-4ad8-9558-57b91e42ce64","","1724","","{""Q0"":4}","","[0]"
"","","","","","html-button-response","124","327431","0.0-90.0","2D5BD668F13049FA8CDC71ECD2DDE2E2","2D5BD668F13049FA8CDC71ECD2DDE2E2","e485ade4-8b74-4c41-8921-aa31da464083","bea99957-1862-4ad8-9558-57b91e42ce64","{""participantId"":""2D5BD668F13049FA8CDC71ECD2DDE2E2"",""assignmentId"":""e485ade4-8b74-4c41-8921-aa31da464083"",""projectId"":""bea99957-1862-4ad8-9558-57b91e42ce64""}","https://test12345.live/?participantId=2D5BD668F13049FA8CDC71ECD2DDE2E2&assignmentId=e485ade4-8b74-4c41-8921-aa31da464083&projectId=bea99957-1862-4ad8-9558-57b91e42ce64","","889","
    <div style=""display: flex; justify-content: center; align-items: center;"">
      <img src=""images/red_deck_2.png"" style=""width: 300px; height: 300px; margin-right: 10px;"" />
      <img src=""images/blue_deck_1.png"" style=""width: 300px; height: 300px;"" />
    </div>","1","1",""
"","","","","","html-keyboard-response","125","330439","0.0-91.0-0.0","2D5BD668F13049FA8CDC71ECD2DDE2E2","2D5BD668F13049FA8CDC71ECD2DDE2E2","e485ade4-8b74-4c41-8921-aa31da464083","bea99957-1862-4ad8-9558-57b91e42ce64","{""participantId"":""2D5BD668F13049FA8CDC71ECD2DDE2E2"",""assignmentId"":""e485ade4-8b74-4c41-8921-aa31da464083"",""projectId"":""bea99957-1862-4ad8-9558-57b91e42ce64""}","https://test12345.live/?participantId=2D5BD668F13049FA8CDC71ECD2DDE2E2&assignmentId=e485ade4-8b74-4c41-8921-aa31da464083&projectId=bea99957-1862-4ad8-9558-57b91e42ce64","","null","<div style=""display: flex; justify-content: center; align-items: center;"">
                    <img src=""images/causal/causal_series_13/causal_series_13_a.jpg"" style=""width: 300px; height: 300px;"" />
                  </div>","null","",""
"","","","","","html-keyboard-response","126","333451","0.0-91.0-1.0","2D5BD668F13049FA8CDC71ECD2DDE2E2","2D5BD668F13049FA8CDC71ECD2DDE2E2","e485ade4-8b74-4c41-8921-aa31da464083","bea99957-1862-4ad8-9558-57b91e42ce64","{""participantId"":""2D5BD668F13049FA8CDC71ECD2DDE2E2"",""assignmentId"":""e485ade4-8b74-4c41-8921-aa31da464083"",""projectId"":""bea99957-1862-4ad8-9558-57b91e42ce64""}","https://test12345.live/?participantId=2D5BD668F13049FA8CDC71ECD2DDE2E2&assignmentId=e485ade4-8b74-4c41-8921-aa31da464083&projectId=bea99957-1862-4ad8-9558-57b91e42ce64","","null","<div style=""display: flex; justify-content: center; align-items: center;"">
                    <img src=""images/causal/causal_series_13/causal_series_13_b.jpg"" style=""width: 300px; height: 300px;"" />
                  </div>","null","",""
"","","","","","html-keyboard-response","127","336459","0.0-91.0-2.0","2D5BD668F13049FA8CDC71ECD2DDE2E2","2D5BD668F13049FA8CDC71ECD2DDE2E2","e485ade4-8b74-4c41-8921-aa31da464083","bea99957-1862-4ad8-9558-57b91e42ce64","{""participantId"":""2D5BD668F13049FA8CDC71ECD2DDE2E2"",""assignmentId"":""e485ade4-8b74-4c41-8921-aa31da464083"",""projectId"":""bea99957-1862-4ad8-9558-57b91e42ce64""}","https://test12345.live/?participantId=2D5BD668F13049FA8CDC71ECD2DDE2E2&assignmentId=e485ade4-8b74-4c41-8921-aa31da464083&projectId=bea99957-1862-4ad8-9558-57b91e42ce64","","null","<div style=""display: flex; justify-content: center; align-items: center;"">
                    <img src=""images/causal/causal_series_13/causal_series_13_c.jpg"" style=""width: 300px; height: 300px;"" />
                  </div>","null","",""
"","","","","","html-keyboard-response","128","339471","0.0-91.0-3.0","2D5BD668F13049FA8CDC71ECD2DDE2E2","2D5BD668F13049FA8CDC71ECD2DDE2E2","e485ade4-8b74-4c41-8921-aa31da464083","bea99957-1862-4ad8-9558-57b91e42ce64","{""participantId"":""2D5BD668F13049FA8CDC71ECD2DDE2E2"",""assignmentId"":""e485ade4-8b74-4c41-8921-aa31da464083"",""projectId"":""bea99957-1862-4ad8-9558-57b91e42ce64""}","https://test12345.live/?participantId=2D5BD668F13049FA8CDC71ECD2DDE2E2&assignmentId=e485ade4-8b74-4c41-8921-aa31da464083&projectId=bea99957-1862-4ad8-9558-57b91e42ce64","","null","<div style=""display: flex; justify-content: center; align-items: center;"">
                    <img src=""images/causal/causal_series_13/causal_series_13_d.jpg"" style=""width: 300px; height: 300px;"" />
                  </div>","null","",""
"","","","","","html-button-response","129","340590","0.0-93.0","2D5BD668F13049FA8CDC71ECD2DDE2E2","2D5BD668F13049FA8CDC71ECD2DDE2E2","e485ade4-8b74-4c41-8921-aa31da464083","bea99957-1862-4ad8-9558-57b91e42ce64","{""participantId"":""2D5BD668F13049FA8CDC71ECD2DDE2E2"",""assignmentId"":""e485ade4-8b74-4c41-8921-aa31da464083"",""projectId"":""bea99957-1862-4ad8-9558-57b91e42ce64""}","https://test12345.live/?participantId=2D5BD668F13049FA8CDC71ECD2DDE2E2&assignmentId=e485ade4-8b74-4c41-8921-aa31da464083&projectId=bea99957-1862-4ad8-9558-57b91e42ce64","","1118","Was there a person in the picture?","0","",""
"","","","","","survey-likert","130","342633","0.0-94.0","2D5BD668F13049FA8CDC71ECD2DDE2E2","2D5BD668F13049FA8CDC71ECD2DDE2E2","e485ade4-8b74-4c41-8921-aa31da464083","bea99957-1862-4ad8-9558-57b91e42ce64","{""participantId"":""2D5BD668F13049FA8CDC71ECD2DDE2E2"",""assignmentId"":""e485ade4-8b74-4c41-8921-aa31da464083"",""projectId"":""bea99957-1862-4ad8-9558-57b91e42ce64""}","https://test12345.live/?participantId=2D5BD668F13049FA8CDC71ECD2DDE2E2&assignmentId=e485ade4-8b74-4c41-8921-aa31da464083&projectId=bea99957-1862-4ad8-9558-57b91e42ce64","","2042","","{""Q0"":4}","","[0]"
"","","","","","survey-text","131","353510","0.0-95.0","2D5BD668F13049FA8CDC71ECD2DDE2E2","2D5BD668F13049FA8CDC71ECD2DDE2E2","e485ade4-8b74-4c41-8921-aa31da464083","bea99957-1862-4ad8-9558-57b91e42ce64","{""participantId"":""2D5BD668F13049FA8CDC71ECD2DDE2E2"",""assignmentId"":""e485ade4-8b74-4c41-8921-aa31da464083"",""projectId"":""bea99957-1862-4ad8-9558-57b91e42ce64""}","https://test12345.live/?participantId=2D5BD668F13049FA8CDC71ECD2DDE2E2&assignmentId=e485ade4-8b74-4c41-8921-aa31da464083&projectId=bea99957-1862-4ad8-9558-57b91e42ce64","","10875","","{""Q0"":""One was red and the other was blue""}","",""
