"success","timeout","failed_images","failed_audio","failed_video","trial_type","trial_index","time_elapsed","internal_node_id","subject","subject_id","study_id","session_id","urlvar","current_url","view_history","rt","stimulus","response","choice","question_order"
"true","false","[]","[]","[]","preload","0","3816","0.0-0.0","F412D557B7CF4A0F99E30DA5B4E34E4A","F412D557B7CF4A0F99E30DA5B4E34E4A","68733843-38a2-434b-a2d9-655482f9bae5","bea99957-1862-4ad8-9558-57b91e42ce64","{""participantId"":""F412D557B7CF4A0F99E30DA5B4E34E4A"",""assignmentId"":""68733843-38a2-434b-a2d9-655482f9bae5"",""projectId"":""bea99957-1862-4ad8-9558-57b91e42ce64""}","https://test12345.live/?participantId=F412D557B7CF4A0F99E30DA5B4E34E4A&assignmentId=68733843-38a2-434b-a2d9-655482f9bae5&projectId=bea99957-1862-4ad8-9558-57b91e42ce64","","","","","",""
"","","","","","instructions","1","8407","0.0-1.0","F412D557B7CF4A0F99E30DA5B4E34E4A","F412D557B7CF4A0F99E30DA5B4E34E4A","68733843-38a2-434b-a2d9-655482f9bae5","bea99957-1862-4ad8-9558-57b91e42ce64","{""participantId"":""F412D557B7CF4A0F99E30DA5B4E34E4A"",""assignmentId"":""68733843-38a2-434b-a2d9-655482f9bae5"",""projectId"":""bea99957-1862-4ad8-9558-57b91e42ce64""}","https://test12345.live/?participantId=F412D557B7CF4A0F99E30DA5B4E34E4A&assignmentId=68733843-38a2-434b-a2d9-655482f9bae5&projectId=bea99957-1862-4ad8-9558-57b91e42ce64","[{""page_index"":0,""viewing_time"":4592}]","4592","","","",""
"","","","","","instructions","2","33230","0.0-2.0","F412D557B7CF4A0F99E30DA5B4E34E4A","F412D557B7CF4A0F99E30DA5B4E34E4A","68733843-38a2-434b-a2d9-655482f9bae5","bea99957-1862-4ad8-9558-57b91e42ce64","{""participantId"":""F412D557B7CF4A0F99E30DA5B4E34E4A"",""assignmentId"":""68733843-38a2-434b-a2d9-655482f9bae5"",""projectId"":""bea99957-1862-4ad8-9558-57b91e42ce64""}","https://test12345.live/?participantId=F412D557B7CF4A0F99E30DA5B4E34E4A&assignmentId=68733843-38a2-434b-a2d9-655482f9bae5&projectId=bea99957-1862-4ad8-9558-57b91e42ce64","[{""page_index"":0,""viewing_time"":24822}]","24822","","","",""
"true","","","","","fullscreen","3","36632","0.0-3.0","F412D557B7CF4A0F99E30DA5B4E34E4A","F412D557B7CF4A0F99E30DA5B4E34E4A","68733843-38a2-434b-a2d9-655482f9bae5","bea99957-1862-4ad8-9558-57b91e42ce64","{""participantId"":""F412D557B7CF4A0F99E30DA5B4E34E4A"",""assignmentId"":""68733843-38a2-434b-a2d9-655482f9bae5"",""projectId"":""bea99957-1862-4ad8-9558-57b91e42ce64""}","https://test12345.live/?participantId=F412D557B7CF4A0F99E30DA5B4E34E4A&assignmentId=68733843-38a2-434b-a2d9-655482f9bae5&projectId=bea99957-1862-4ad8-9558-57b91e42ce64","","2399","","","",""
"","","","","","instructions","4","50021","0.0-4.0","F412D557B7CF4A0F99E30DA5B4E34E4A","F412D557B7CF4A0F99E30DA5B4E34E4A","68733843-38a2-434b-a2d9-655482f9bae5","bea99957-1862-4ad8-9558-57b91e42ce64","{""participantId"":""F412D557B7CF4A0F99E30DA5B4E34E4A"",""assignmentId"":""68733843-38a2-434b-a2d9-655482f9bae5"",""projectId"":""bea99957-1862-4ad8-9558-57b91e42ce64""}","https://test12345.live/?participantId=F412D557B7CF4A0F99E30DA5B4E34E4A&assignmentId=68733843-38a2-434b-a2d9-655482f9bae5&projectId=bea99957-1862-4ad8-9558-57b91e42ce64","[{""page_index"":0,""viewing_time"":13388}]","13388","","","",""
"","","","","","html-button-response","5","54388","0.0-5.0","F412D557B7CF4A0F99E30DA5B4E34E4A","F412D557B7CF4A0F99E30DA5B4E34E4A","68733843-38a2-434b-a2d9-655482f9bae5","bea99957-1862-4ad8-9558-57b91e42ce64","{""participantId"":""F412D557B7CF4A0F99E30DA5B4E34E4A"",""assignmentId"":""68733843-38a2-434b-a2d9-655482f9bae5"",""projectId"":""bea99957-1862-4ad8-9558-57b91e42ce64""}","https://test12345.live/?participantId=F412D557B7CF4A0F99E30DA5B4E34E4A&assignmentId=68733843-38a2-434b-a2d9-655482f9bae5&projectId=bea99957-1862-4ad8-9558-57b91e42ce64","","4366","
    <div style=""display: flex; justify-content: center; align-items: center;"">
      <img src=""images/red_deck_2.png"" style=""width: 300px; height: 300px; margin-right: 10px;"" />
      <img src=""images/blue_deck_1.png"" style=""width: 300px; height: 300px;"" />
    </div>","0","0",""
"","","","","","html-keyboard-response","6","57404","0.0-7.0-0.0","F412D557B7CF4A0F99E30DA5B4E34E4A","F412D557B7CF4A0F99E30DA5B4E34E4A","68733843-38a2-434b-a2d9-655482f9bae5","bea99957-1862-4ad8-9558-57b91e42ce64","{""participantId"":""F412D557B7CF4A0F99E30DA5B4E34E4A"",""assignmentId"":""68733843-38a2-434b-a2d9-655482f9bae5"",""projectId"":""bea99957-1862-4ad8-9558-57b91e42ce64""}","https://test12345.live/?participantId=F412D557B7CF4A0F99E30DA5B4E34E4A&assignmentId=68733843-38a2-434b-a2d9-655482f9bae5&projectId=bea99957-1862-4ad8-9558-57b91e42ce64","","null","<div style=""display: flex; justify-content: center; align-items: center;"">
                    <img src=""images/semantic/semantic_series_7/semantic_series_7_a.jpg"" style=""width: 300px; height: 300px;"" />
                  </div>","null","",""
"","","","","","html-keyboard-response","7","60419","0.0-7.0-1.0","F412D557B7CF4A0F99E30DA5B4E34E4A","F412D557B7CF4A0F99E30DA5B4E34E4A","68733843-38a2-434b-a2d9-655482f9bae5","bea99957-1862-4ad8-9558-57b91e42ce64","{""participantId"":""F412D557B7CF4A0F99E30DA5B4E34E4A"",""assignmentId"":""68733843-38a2-434b-a2d9-655482f9bae5"",""projectId"":""bea99957-1862-4ad8-9558-57b91e42ce64""}","https://test12345.live/?participantId=F412D557B7CF4A0F99E30DA5B4E34E4A&assignmentId=68733843-38a2-434b-a2d9-655482f9bae5&projectId=bea99957-1862-4ad8-9558-57b91e42ce64","","null","<div style=""display: flex; justify-content: center; align-items: center;"">
                    <img src=""images/semantic/semantic_series_7/semantic_series_7_b.jpg"" style=""width: 300px; height: 300px;"" />
                  </div>","null","",""
"","","","","","html-keyboard-response","8","63428","0.0-7.0-2.0","F412D557B7CF4A0F99E30DA5B4E34E4A","F412D557B7CF4A0F99E30DA5B4E34E4A","68733843-38a2-434b-a2d9-655482f9bae5","bea99957-1862-4ad8-9558-57b91e42ce64","{""participantId"":""F412D557B7CF4A0F99E30DA5B4E34E4A"",""assignmentId"":""68733843-38a2-434b-a2d9-655482f9bae5"",""projectId"":""bea99957-1862-4ad8-9558-57b91e42ce64""}","https://test12345.live/?participantId=F412D557B7CF4A0F99E30DA5B4E34E4A&assignmentId=68733843-38a2-434b-a2d9-655482f9bae5&projectId=bea99957-1862-4ad8-9558-57b91e42ce64","","null","<div style=""display: flex; justify-content: center; align-items: center;"">
                    <img src=""images/semantic/semantic_series_7/semantic_series_7_c.jpg"" style=""width: 300px; height: 300px;"" />
                  </div>","null","",""
"","","","","","html-keyboard-response","9","66442","0.0-7.0-3.0","F412D557B7CF4A0F99E30DA5B4E34E4A","F412D557B7CF4A0F99E30DA5B4E34E4A","68733843-38a2-434b-a2d9-655482f9bae5","bea99957-1862-4ad8-9558-57b91e42ce64","{""participantId"":""F412D557B7CF4A0F99E30DA5B4E34E4A"",""assignmentId"":""68733843-38a2-434b-a2d9-655482f9bae5"",""projectId"":""bea99957-1862-4ad8-9558-57b91e42ce64""}","https://test12345.live/?participantId=F412D557B7CF4A0F99E30DA5B4E34E4A&assignmentId=68733843-38a2-434b-a2d9-655482f9bae5&projectId=bea99957-1862-4ad8-9558-57b91e42ce64","","null","<div style=""display: flex; justify-content: center; align-items: center;"">
                    <img src=""images/semantic/semantic_series_7/semantic_series_7_d.jpg"" style=""width: 300px; height: 300px;"" />
                  </div>","null","",""
"","","","","","html-button-response","10","71525","0.0-8.0","F412D557B7CF4A0F99E30DA5B4E34E4A","F412D557B7CF4A0F99E30DA5B4E34E4A","68733843-38a2-434b-a2d9-655482f9bae5","bea99957-1862-4ad8-9558-57b91e42ce64","{""participantId"":""F412D557B7CF4A0F99E30DA5B4E34E4A"",""assignmentId"":""68733843-38a2-434b-a2d9-655482f9bae5"",""projectId"":""bea99957-1862-4ad8-9558-57b91e42ce64""}","https://test12345.live/?participantId=F412D557B7CF4A0F99E30DA5B4E34E4A&assignmentId=68733843-38a2-434b-a2d9-655482f9bae5&projectId=bea99957-1862-4ad8-9558-57b91e42ce64","","5082","Was there a person in the picture?","1","",""
"","","","","","survey-likert","11","79373","0.0-9.0","F412D557B7CF4A0F99E30DA5B4E34E4A","F412D557B7CF4A0F99E30DA5B4E34E4A","68733843-38a2-434b-a2d9-655482f9bae5","bea99957-1862-4ad8-9558-57b91e42ce64","{""participantId"":""F412D557B7CF4A0F99E30DA5B4E34E4A"",""assignmentId"":""68733843-38a2-434b-a2d9-655482f9bae5"",""projectId"":""bea99957-1862-4ad8-9558-57b91e42ce64""}","https://test12345.live/?participantId=F412D557B7CF4A0F99E30DA5B4E34E4A&assignmentId=68733843-38a2-434b-a2d9-655482f9bae5&projectId=bea99957-1862-4ad8-9558-57b91e42ce64","","7848","","{""Q0"":2}","","[0]"
"","","","","","html-button-response","12","80652","0.0-10.0","F412D557B7CF4A0F99E30DA5B4E34E4A","F412D557B7CF4A0F99E30DA5B4E34E4A","68733843-38a2-434b-a2d9-655482f9bae5","bea99957-1862-4ad8-9558-57b91e42ce64","{""participantId"":""F412D557B7CF4A0F99E30DA5B4E34E4A"",""assignmentId"":""68733843-38a2-434b-a2d9-655482f9bae5"",""projectId"":""bea99957-1862-4ad8-9558-57b91e42ce64""}","https://test12345.live/?participantId=F412D557B7CF4A0F99E30DA5B4E34E4A&assignmentId=68733843-38a2-434b-a2d9-655482f9bae5&projectId=bea99957-1862-4ad8-9558-57b91e42ce64","","1278","
    <div style=""display: flex; justify-content: center; align-items: center;"">
      <img src=""images/red_deck_2.png"" style=""width: 300px; height: 300px; margin-right: 10px;"" />
      <img src=""images/blue_deck_1.png"" style=""width: 300px; height: 300px;"" />
    </div>","0","0",""
"","","","","","html-keyboard-response","13","83667","0.0-12.0-0.0","F412D557B7CF4A0F99E30DA5B4E34E4A","F412D557B7CF4A0F99E30DA5B4E34E4A","68733843-38a2-434b-a2d9-655482f9bae5","bea99957-1862-4ad8-9558-57b91e42ce64","{""participantId"":""F412D557B7CF4A0F99E30DA5B4E34E4A"",""assignmentId"":""68733843-38a2-434b-a2d9-655482f9bae5"",""projectId"":""bea99957-1862-4ad8-9558-57b91e42ce64""}","https://test12345.live/?participantId=F412D557B7CF4A0F99E30DA5B4E34E4A&assignmentId=68733843-38a2-434b-a2d9-655482f9bae5&projectId=bea99957-1862-4ad8-9558-57b91e42ce64","","null","<div style=""display: flex; justify-content: center; align-items: center;"">
                    <img src=""images/semantic/semantic_series_9/semantic_series_9_a.jpg"" style=""width: 300px; height: 300px;"" />
                  </div>","null","",""
"","","","","","html-keyboard-response","14","86681","0.0-12.0-1.0","F412D557B7CF4A0F99E30DA5B4E34E4A","F412D557B7CF4A0F99E30DA5B4E34E4A","68733843-38a2-434b-a2d9-655482f9bae5","bea99957-1862-4ad8-9558-57b91e42ce64","{""participantId"":""F412D557B7CF4A0F99E30DA5B4E34E4A"",""assignmentId"":""68733843-38a2-434b-a2d9-655482f9bae5"",""projectId"":""bea99957-1862-4ad8-9558-57b91e42ce64""}","https://test12345.live/?participantId=F412D557B7CF4A0F99E30DA5B4E34E4A&assignmentId=68733843-38a2-434b-a2d9-655482f9bae5&projectId=bea99957-1862-4ad8-9558-57b91e42ce64","","null","<div style=""display: flex; justify-content: center; align-items: center;"">
                    <img src=""images/semantic/semantic_series_9/semantic_series_9_b.jpg"" style=""width: 300px; height: 300px;"" />
                  </div>","null","",""
"","","","","","html-keyboard-response","15","89690","0.0-12.0-2.0","F412D557B7CF4A0F99E30DA5B4E34E4A","F412D557B7CF4A0F99E30DA5B4E34E4A","68733843-38a2-434b-a2d9-655482f9bae5","bea99957-1862-4ad8-9558-57b91e42ce64","{""participantId"":""F412D557B7CF4A0F99E30DA5B4E34E4A"",""assignmentId"":""68733843-38a2-434b-a2d9-655482f9bae5"",""projectId"":""bea99957-1862-4ad8-9558-57b91e42ce64""}","https://test12345.live/?participantId=F412D557B7CF4A0F99E30DA5B4E34E4A&assignmentId=68733843-38a2-434b-a2d9-655482f9bae5&projectId=bea99957-1862-4ad8-9558-57b91e42ce64","","null","<div style=""display: flex; justify-content: center; align-items: center;"">
                    <img src=""images/semantic/semantic_series_9/semantic_series_9_c.jpg"" style=""width: 300px; height: 300px;"" />
                  </div>","null","",""
"","","","","","html-keyboard-response","16","93031","0.0-12.0-3.0","F412D557B7CF4A0F99E30DA5B4E34E4A","F412D557B7CF4A0F99E30DA5B4E34E4A","68733843-38a2-434b-a2d9-655482f9bae5","bea99957-1862-4ad8-9558-57b91e42ce64","{""participantId"":""F412D557B7CF4A0F99E30DA5B4E34E4A"",""assignmentId"":""68733843-38a2-434b-a2d9-655482f9bae5"",""projectId"":""bea99957-1862-4ad8-9558-57b91e42ce64""}","https://test12345.live/?participantId=F412D557B7CF4A0F99E30DA5B4E34E4A&assignmentId=68733843-38a2-434b-a2d9-655482f9bae5&projectId=bea99957-1862-4ad8-9558-57b91e42ce64","","null","<div style=""display: flex; justify-content: center; align-items: center;"">
                    <img src=""images/semantic/semantic_series_9/semantic_series_9_d.jpg"" style=""width: 300px; height: 300px;"" />
                  </div>","null","",""
"","","","","","html-button-response","17","94572","0.0-13.0","F412D557B7CF4A0F99E30DA5B4E34E4A","F412D557B7CF4A0F99E30DA5B4E34E4A","68733843-38a2-434b-a2d9-655482f9bae5","bea99957-1862-4ad8-9558-57b91e42ce64","{""participantId"":""F412D557B7CF4A0F99E30DA5B4E34E4A"",""assignmentId"":""68733843-38a2-434b-a2d9-655482f9bae5"",""projectId"":""bea99957-1862-4ad8-9558-57b91e42ce64""}","https://test12345.live/?participantId=F412D557B7CF4A0F99E30DA5B4E34E4A&assignmentId=68733843-38a2-434b-a2d9-655482f9bae5&projectId=bea99957-1862-4ad8-9558-57b91e42ce64","","1540","Was there a person in the picture?","1","",""
"","","","","","survey-likert","18","97164","0.0-14.0","F412D557B7CF4A0F99E30DA5B4E34E4A","F412D557B7CF4A0F99E30DA5B4E34E4A","68733843-38a2-434b-a2d9-655482f9bae5","bea99957-1862-4ad8-9558-57b91e42ce64","{""participantId"":""F412D557B7CF4A0F99E30DA5B4E34E4A"",""assignmentId"":""68733843-38a2-434b-a2d9-655482f9bae5"",""projectId"":""bea99957-1862-4ad8-9558-57b91e42ce64""}","https://test12345.live/?participantId=F412D557B7CF4A0F99E30DA5B4E34E4A&assignmentId=68733843-38a2-434b-a2d9-655482f9bae5&projectId=bea99957-1862-4ad8-9558-57b91e42ce64","","2590","","{""Q0"":2}","","[0]"
"","","","","","html-button-response","19","98155","0.0-15.0","F412D557B7CF4A0F99E30DA5B4E34E4A","F412D557B7CF4A0F99E30DA5B4E34E4A","68733843-38a2-434b-a2d9-655482f9bae5","bea99957-1862-4ad8-9558-57b91e42ce64","{""participantId"":""F412D557B7CF4A0F99E30DA5B4E34E4A"",""assignmentId"":""68733843-38a2-434b-a2d9-655482f9bae5"",""projectId"":""bea99957-1862-4ad8-9558-57b91e42ce64""}","https://test12345.live/?participantId=F412D557B7CF4A0F99E30DA5B4E34E4A&assignmentId=68733843-38a2-434b-a2d9-655482f9bae5&projectId=bea99957-1862-4ad8-9558-57b91e42ce64","","991","
    <div style=""display: flex; justify-content: center; align-items: center;"">
      <img src=""images/red_deck_2.png"" style=""width: 300px; height: 300px; margin-right: 10px;"" />
      <img src=""images/blue_deck_1.png"" style=""width: 300px; height: 300px;"" />
    </div>","0","0",""
"","","","","","html-keyboard-response","20","101477","0.0-17.0-0.0","F412D557B7CF4A0F99E30DA5B4E34E4A","F412D557B7CF4A0F99E30DA5B4E34E4A","68733843-38a2-434b-a2d9-655482f9bae5","bea99957-1862-4ad8-9558-57b91e42ce64","{""participantId"":""F412D557B7CF4A0F99E30DA5B4E34E4A"",""assignmentId"":""68733843-38a2-434b-a2d9-655482f9bae5"",""projectId"":""bea99957-1862-4ad8-9558-57b91e42ce64""}","https://test12345.live/?participantId=F412D557B7CF4A0F99E30DA5B4E34E4A&assignmentId=68733843-38a2-434b-a2d9-655482f9bae5&projectId=bea99957-1862-4ad8-9558-57b91e42ce64","","null","<div style=""display: flex; justify-content: center; align-items: center;"">
                    <img src=""images/semantic/semantic_series_3/semantic_series_3_a.jpg"" style=""width: 300px; height: 300px;"" />
                  </div>","null","",""
"","","","","","html-keyboard-response","21","104481","0.0-17.0-1.0","F412D557B7CF4A0F99E30DA5B4E34E4A","F412D557B7CF4A0F99E30DA5B4E34E4A","68733843-38a2-434b-a2d9-655482f9bae5","bea99957-1862-4ad8-9558-57b91e42ce64","{""participantId"":""F412D557B7CF4A0F99E30DA5B4E34E4A"",""assignmentId"":""68733843-38a2-434b-a2d9-655482f9bae5"",""projectId"":""bea99957-1862-4ad8-9558-57b91e42ce64""}","https://test12345.live/?participantId=F412D557B7CF4A0F99E30DA5B4E34E4A&assignmentId=68733843-38a2-434b-a2d9-655482f9bae5&projectId=bea99957-1862-4ad8-9558-57b91e42ce64","","null","<div style=""display: flex; justify-content: center; align-items: center;"">
                    <img src=""images/semantic/semantic_series_3/semantic_series_3_b.jpg"" style=""width: 300px; height: 300px;"" />
                  </div>","null","",""
"","","","","","html-keyboard-response","22","107493","0.0-17.0-2.0","F412D557B7CF4A0F99E30DA5B4E34E4A","F412D557B7CF4A0F99E30DA5B4E34E4A","68733843-38a2-434b-a2d9-655482f9bae5","bea99957-1862-4ad8-9558-57b91e42ce64","{""participantId"":""F412D557B7CF4A0F99E30DA5B4E34E4A"",""assignmentId"":""68733843-38a2-434b-a2d9-655482f9bae5"",""projectId"":""bea99957-1862-4ad8-9558-57b91e42ce64""}","https://test12345.live/?participantId=F412D557B7CF4A0F99E30DA5B4E34E4A&assignmentId=68733843-38a2-434b-a2d9-655482f9bae5&projectId=bea99957-1862-4ad8-9558-57b91e42ce64","","null","<div style=""display: flex; justify-content: center; align-items: center;"">
                    <img src=""images/semantic/semantic_series_3/semantic_series_3_c.jpg"" style=""width: 300px; height: 300px;"" />
                  </div>","null","",""
"","","","","","html-keyboard-response","23","110504","0.0-17.0-3.0","F412D557B7CF4A0F99E30DA5B4E34E4A","F412D557B7CF4A0F99E30DA5B4E34E4A","68733843-38a2-434b-a2d9-655482f9bae5","bea99957-1862-4ad8-9558-57b91e42ce64","{""participantId"":""F412D557B7CF4A0F99E30DA5B4E34E4A"",""assignmentId"":""68733843-38a2-434b-a2d9-655482f9bae5"",""projectId"":""bea99957-1862-4ad8-9558-57b91e42ce64""}","https://test12345.live/?participantId=F412D557B7CF4A0F99E30DA5B4E34E4A&assignmentId=68733843-38a2-434b-a2d9-655482f9bae5&projectId=bea99957-1862-4ad8-9558-57b91e42ce64","","null","<div style=""display: flex; justify-content: center; align-items: center;"">
                    <img src=""images/semantic/semantic_series_3/semantic_series_3_d.jpg"" style=""width: 300px; height: 300px;"" />
                  </div>","null","",""
"","","","","","html-button-response","24","111739","0.0-18.0","F412D557B7CF4A0F99E30DA5B4E34E4A","F412D557B7CF4A0F99E30DA5B4E34E4A","68733843-38a2-434b-a2d9-655482f9bae5","bea99957-1862-4ad8-9558-57b91e42ce64","{""participantId"":""F412D557B7CF4A0F99E30DA5B4E34E4A"",""assignmentId"":""68733843-38a2-434b-a2d9-655482f9bae5"",""projectId"":""bea99957-1862-4ad8-9558-57b91e42ce64""}","https://test12345.live/?participantId=F412D557B7CF4A0F99E30DA5B4E34E4A&assignmentId=68733843-38a2-434b-a2d9-655482f9bae5&projectId=bea99957-1862-4ad8-9558-57b91e42ce64","","1235","Was there a person in the picture?","0","",""
"","","","","","survey-likert","25","113716","0.0-19.0","F412D557B7CF4A0F99E30DA5B4E34E4A","F412D557B7CF4A0F99E30DA5B4E34E4A","68733843-38a2-434b-a2d9-655482f9bae5","bea99957-1862-4ad8-9558-57b91e42ce64","{""participantId"":""F412D557B7CF4A0F99E30DA5B4E34E4A"",""assignmentId"":""68733843-38a2-434b-a2d9-655482f9bae5"",""projectId"":""bea99957-1862-4ad8-9558-57b91e42ce64""}","https://test12345.live/?participantId=F412D557B7CF4A0F99E30DA5B4E34E4A&assignmentId=68733843-38a2-434b-a2d9-655482f9bae5&projectId=bea99957-1862-4ad8-9558-57b91e42ce64","","1975","","{""Q0"":2}","","[0]"
"","","","","","html-button-response","26","114931","0.0-20.0","F412D557B7CF4A0F99E30DA5B4E34E4A","F412D557B7CF4A0F99E30DA5B4E34E4A","68733843-38a2-434b-a2d9-655482f9bae5","bea99957-1862-4ad8-9558-57b91e42ce64","{""participantId"":""F412D557B7CF4A0F99E30DA5B4E34E4A"",""assignmentId"":""68733843-38a2-434b-a2d9-655482f9bae5"",""projectId"":""bea99957-1862-4ad8-9558-57b91e42ce64""}","https://test12345.live/?participantId=F412D557B7CF4A0F99E30DA5B4E34E4A&assignmentId=68733843-38a2-434b-a2d9-655482f9bae5&projectId=bea99957-1862-4ad8-9558-57b91e42ce64","","1215","
    <div style=""display: flex; justify-content: center; align-items: center;"">
      <img src=""images/red_deck_2.png"" style=""width: 300px; height: 300px; margin-right: 10px;"" />
      <img src=""images/blue_deck_1.png"" style=""width: 300px; height: 300px;"" />
    </div>","1","1",""
"","","","","","html-keyboard-response","27","117940","0.0-21.0-0.0","F412D557B7CF4A0F99E30DA5B4E34E4A","F412D557B7CF4A0F99E30DA5B4E34E4A","68733843-38a2-434b-a2d9-655482f9bae5","bea99957-1862-4ad8-9558-57b91e42ce64","{""participantId"":""F412D557B7CF4A0F99E30DA5B4E34E4A"",""assignmentId"":""68733843-38a2-434b-a2d9-655482f9bae5"",""projectId"":""bea99957-1862-4ad8-9558-57b91e42ce64""}","https://test12345.live/?participantId=F412D557B7CF4A0F99E30DA5B4E34E4A&assignmentId=68733843-38a2-434b-a2d9-655482f9bae5&projectId=bea99957-1862-4ad8-9558-57b91e42ce64","","null","<div style=""display: flex; justify-content: center; align-items: center;"">
                    <img src=""images/causal/causal_series_1/causal_series_1_a.jpg"" style=""width: 300px; height: 300px;"" />
                  </div>","null","",""
"","","","","","html-keyboard-response","28","120946","0.0-21.0-1.0","F412D557B7CF4A0F99E30DA5B4E34E4A","F412D557B7CF4A0F99E30DA5B4E34E4A","68733843-38a2-434b-a2d9-655482f9bae5","bea99957-1862-4ad8-9558-57b91e42ce64","{""participantId"":""F412D557B7CF4A0F99E30DA5B4E34E4A"",""assignmentId"":""68733843-38a2-434b-a2d9-655482f9bae5"",""projectId"":""bea99957-1862-4ad8-9558-57b91e42ce64""}","https://test12345.live/?participantId=F412D557B7CF4A0F99E30DA5B4E34E4A&assignmentId=68733843-38a2-434b-a2d9-655482f9bae5&projectId=bea99957-1862-4ad8-9558-57b91e42ce64","","null","<div style=""display: flex; justify-content: center; align-items: center;"">
                    <img src=""images/causal/causal_series_1/causal_series_1_b.jpg"" style=""width: 300px; height: 300px;"" />
                  </div>","null","",""
"","","","","","html-keyboard-response","29","124213","0.0-21.0-2.0","F412D557B7CF4A0F99E30DA5B4E34E4A","F412D557B7CF4A0F99E30DA5B4E34E4A","68733843-38a2-434b-a2d9-655482f9bae5","bea99957-1862-4ad8-9558-57b91e42ce64","{""participantId"":""F412D557B7CF4A0F99E30DA5B4E34E4A"",""assignmentId"":""68733843-38a2-434b-a2d9-655482f9bae5"",""projectId"":""bea99957-1862-4ad8-9558-57b91e42ce64""}","https://test12345.live/?participantId=F412D557B7CF4A0F99E30DA5B4E34E4A&assignmentId=68733843-38a2-434b-a2d9-655482f9bae5&projectId=bea99957-1862-4ad8-9558-57b91e42ce64","","null","<div style=""display: flex; justify-content: center; align-items: center;"">
                    <img src=""images/causal/causal_series_1/causal_series_1_c.jpg"" style=""width: 300px; height: 300px;"" />
                  </div>","null","",""
"","","","","","html-keyboard-response","30","127228","0.0-21.0-3.0","F412D557B7CF4A0F99E30DA5B4E34E4A","F412D557B7CF4A0F99E30DA5B4E34E4A","68733843-38a2-434b-a2d9-655482f9bae5","bea99957-1862-4ad8-9558-57b91e42ce64","{""participantId"":""F412D557B7CF4A0F99E30DA5B4E34E4A"",""assignmentId"":""68733843-38a2-434b-a2d9-655482f9bae5"",""projectId"":""bea99957-1862-4ad8-9558-57b91e42ce64""}","https://test12345.live/?participantId=F412D557B7CF4A0F99E30DA5B4E34E4A&assignmentId=68733843-38a2-434b-a2d9-655482f9bae5&projectId=bea99957-1862-4ad8-9558-57b91e42ce64","","null","<div style=""display: flex; justify-content: center; align-items: center;"">
                    <img src=""images/causal/causal_series_1/causal_series_1_d.jpg"" style=""width: 300px; height: 300px;"" />
                  </div>","null","",""
"","","","","","html-button-response","31","128882","0.0-23.0","F412D557B7CF4A0F99E30DA5B4E34E4A","F412D557B7CF4A0F99E30DA5B4E34E4A","68733843-38a2-434b-a2d9-655482f9bae5","bea99957-1862-4ad8-9558-57b91e42ce64","{""participantId"":""F412D557B7CF4A0F99E30DA5B4E34E4A"",""assignmentId"":""68733843-38a2-434b-a2d9-655482f9bae5"",""projectId"":""bea99957-1862-4ad8-9558-57b91e42ce64""}","https://test12345.live/?participantId=F412D557B7CF4A0F99E30DA5B4E34E4A&assignmentId=68733843-38a2-434b-a2d9-655482f9bae5&projectId=bea99957-1862-4ad8-9558-57b91e42ce64","","1655","Was there a person in the picture?","0","",""
"","","","","","survey-likert","32","130931","0.0-24.0","F412D557B7CF4A0F99E30DA5B4E34E4A","F412D557B7CF4A0F99E30DA5B4E34E4A","68733843-38a2-434b-a2d9-655482f9bae5","bea99957-1862-4ad8-9558-57b91e42ce64","{""participantId"":""F412D557B7CF4A0F99E30DA5B4E34E4A"",""assignmentId"":""68733843-38a2-434b-a2d9-655482f9bae5"",""projectId"":""bea99957-1862-4ad8-9558-57b91e42ce64""}","https://test12345.live/?participantId=F412D557B7CF4A0F99E30DA5B4E34E4A&assignmentId=68733843-38a2-434b-a2d9-655482f9bae5&projectId=bea99957-1862-4ad8-9558-57b91e42ce64","","2049","","{""Q0"":1}","","[0]"
"","","","","","html-button-response","33","131850","0.0-25.0","F412D557B7CF4A0F99E30DA5B4E34E4A","F412D557B7CF4A0F99E30DA5B4E34E4A","68733843-38a2-434b-a2d9-655482f9bae5","bea99957-1862-4ad8-9558-57b91e42ce64","{""participantId"":""F412D557B7CF4A0F99E30DA5B4E34E4A"",""assignmentId"":""68733843-38a2-434b-a2d9-655482f9bae5"",""projectId"":""bea99957-1862-4ad8-9558-57b91e42ce64""}","https://test12345.live/?participantId=F412D557B7CF4A0F99E30DA5B4E34E4A&assignmentId=68733843-38a2-434b-a2d9-655482f9bae5&projectId=bea99957-1862-4ad8-9558-57b91e42ce64","","919","
    <div style=""display: flex; justify-content: center; align-items: center;"">
      <img src=""images/red_deck_2.png"" style=""width: 300px; height: 300px; margin-right: 10px;"" />
      <img src=""images/blue_deck_1.png"" style=""width: 300px; height: 300px;"" />
    </div>","0","0",""
"","","","","","html-keyboard-response","34","134861","0.0-27.0-0.0","F412D557B7CF4A0F99E30DA5B4E34E4A","F412D557B7CF4A0F99E30DA5B4E34E4A","68733843-38a2-434b-a2d9-655482f9bae5","bea99957-1862-4ad8-9558-57b91e42ce64","{""participantId"":""F412D557B7CF4A0F99E30DA5B4E34E4A"",""assignmentId"":""68733843-38a2-434b-a2d9-655482f9bae5"",""projectId"":""bea99957-1862-4ad8-9558-57b91e42ce64""}","https://test12345.live/?participantId=F412D557B7CF4A0F99E30DA5B4E34E4A&assignmentId=68733843-38a2-434b-a2d9-655482f9bae5&projectId=bea99957-1862-4ad8-9558-57b91e42ce64","","null","<div style=""display: flex; justify-content: center; align-items: center;"">
                    <img src=""images/semantic/semantic_series_6/semantic_series_6_a.jpg"" style=""width: 300px; height: 300px;"" />
                  </div>","null","",""
"","","","","","html-keyboard-response","35","137874","0.0-27.0-1.0","F412D557B7CF4A0F99E30DA5B4E34E4A","F412D557B7CF4A0F99E30DA5B4E34E4A","68733843-38a2-434b-a2d9-655482f9bae5","bea99957-1862-4ad8-9558-57b91e42ce64","{""participantId"":""F412D557B7CF4A0F99E30DA5B4E34E4A"",""assignmentId"":""68733843-38a2-434b-a2d9-655482f9bae5"",""projectId"":""bea99957-1862-4ad8-9558-57b91e42ce64""}","https://test12345.live/?participantId=F412D557B7CF4A0F99E30DA5B4E34E4A&assignmentId=68733843-38a2-434b-a2d9-655482f9bae5&projectId=bea99957-1862-4ad8-9558-57b91e42ce64","","null","<div style=""display: flex; justify-content: center; align-items: center;"">
                    <img src=""images/semantic/semantic_series_6/semantic_series_6_b.jpg"" style=""width: 300px; height: 300px;"" />
                  </div>","null","",""
"","","","","","html-keyboard-response","36","140887","0.0-27.0-2.0","F412D557B7CF4A0F99E30DA5B4E34E4A","F412D557B7CF4A0F99E30DA5B4E34E4A","68733843-38a2-434b-a2d9-655482f9bae5","bea99957-1862-4ad8-9558-57b91e42ce64","{""participantId"":""F412D557B7CF4A0F99E30DA5B4E34E4A"",""assignmentId"":""68733843-38a2-434b-a2d9-655482f9bae5"",""projectId"":""bea99957-1862-4ad8-9558-57b91e42ce64""}","https://test12345.live/?participantId=F412D557B7CF4A0F99E30DA5B4E34E4A&assignmentId=68733843-38a2-434b-a2d9-655482f9bae5&projectId=bea99957-1862-4ad8-9558-57b91e42ce64","","null","<div style=""display: flex; justify-content: center; align-items: center;"">
                    <img src=""images/semantic/semantic_series_6/semantic_series_6_c.jpg"" style=""width: 300px; height: 300px;"" />
                  </div>","null","",""
"","","","","","html-keyboard-response","37","143891","0.0-27.0-3.0","F412D557B7CF4A0F99E30DA5B4E34E4A","F412D557B7CF4A0F99E30DA5B4E34E4A","68733843-38a2-434b-a2d9-655482f9bae5","bea99957-1862-4ad8-9558-57b91e42ce64","{""participantId"":""F412D557B7CF4A0F99E30DA5B4E34E4A"",""assignmentId"":""68733843-38a2-434b-a2d9-655482f9bae5"",""projectId"":""bea99957-1862-4ad8-9558-57b91e42ce64""}","https://test12345.live/?participantId=F412D557B7CF4A0F99E30DA5B4E34E4A&assignmentId=68733843-38a2-434b-a2d9-655482f9bae5&projectId=bea99957-1862-4ad8-9558-57b91e42ce64","","null","<div style=""display: flex; justify-content: center; align-items: center;"">
                    <img src=""images/semantic/semantic_series_6/semantic_series_6_d.jpg"" style=""width: 300px; height: 300px;"" />
                  </div>","null","",""
"","","","","","html-button-response","38","144779","0.0-28.0","F412D557B7CF4A0F99E30DA5B4E34E4A","F412D557B7CF4A0F99E30DA5B4E34E4A","68733843-38a2-434b-a2d9-655482f9bae5","bea99957-1862-4ad8-9558-57b91e42ce64","{""participantId"":""F412D557B7CF4A0F99E30DA5B4E34E4A"",""assignmentId"":""68733843-38a2-434b-a2d9-655482f9bae5"",""projectId"":""bea99957-1862-4ad8-9558-57b91e42ce64""}","https://test12345.live/?participantId=F412D557B7CF4A0F99E30DA5B4E34E4A&assignmentId=68733843-38a2-434b-a2d9-655482f9bae5&projectId=bea99957-1862-4ad8-9558-57b91e42ce64","","886","Was there a person in the picture?","1","",""
"","","","","","survey-likert","39","146114","0.0-29.0","F412D557B7CF4A0F99E30DA5B4E34E4A","F412D557B7CF4A0F99E30DA5B4E34E4A","68733843-38a2-434b-a2d9-655482f9bae5","bea99957-1862-4ad8-9558-57b91e42ce64","{""participantId"":""F412D557B7CF4A0F99E30DA5B4E34E4A"",""assignmentId"":""68733843-38a2-434b-a2d9-655482f9bae5"",""projectId"":""bea99957-1862-4ad8-9558-57b91e42ce64""}","https://test12345.live/?participantId=F412D557B7CF4A0F99E30DA5B4E34E4A&assignmentId=68733843-38a2-434b-a2d9-655482f9bae5&projectId=bea99957-1862-4ad8-9558-57b91e42ce64","","1334","","{""Q0"":2}","","[0]"
"","","","","","html-button-response","40","146977","0.0-30.0","F412D557B7CF4A0F99E30DA5B4E34E4A","F412D557B7CF4A0F99E30DA5B4E34E4A","68733843-38a2-434b-a2d9-655482f9bae5","bea99957-1862-4ad8-9558-57b91e42ce64","{""participantId"":""F412D557B7CF4A0F99E30DA5B4E34E4A"",""assignmentId"":""68733843-38a2-434b-a2d9-655482f9bae5"",""projectId"":""bea99957-1862-4ad8-9558-57b91e42ce64""}","https://test12345.live/?participantId=F412D557B7CF4A0F99E30DA5B4E34E4A&assignmentId=68733843-38a2-434b-a2d9-655482f9bae5&projectId=bea99957-1862-4ad8-9558-57b91e42ce64","","862","
    <div style=""display: flex; justify-content: center; align-items: center;"">
      <img src=""images/red_deck_2.png"" style=""width: 300px; height: 300px; margin-right: 10px;"" />
      <img src=""images/blue_deck_1.png"" style=""width: 300px; height: 300px;"" />
    </div>","1","1",""
"","","","","","html-keyboard-response","41","149991","0.0-31.0-0.0","F412D557B7CF4A0F99E30DA5B4E34E4A","F412D557B7CF4A0F99E30DA5B4E34E4A","68733843-38a2-434b-a2d9-655482f9bae5","bea99957-1862-4ad8-9558-57b91e42ce64","{""participantId"":""F412D557B7CF4A0F99E30DA5B4E34E4A"",""assignmentId"":""68733843-38a2-434b-a2d9-655482f9bae5"",""projectId"":""bea99957-1862-4ad8-9558-57b91e42ce64""}","https://test12345.live/?participantId=F412D557B7CF4A0F99E30DA5B4E34E4A&assignmentId=68733843-38a2-434b-a2d9-655482f9bae5&projectId=bea99957-1862-4ad8-9558-57b91e42ce64","","null","<div style=""display: flex; justify-content: center; align-items: center;"">
                    <img src=""images/causal/causal_series_3/causal_series_3_a.jpg"" style=""width: 300px; height: 300px;"" />
                  </div>","null","",""
"","","","","","html-keyboard-response","42","153255","0.0-31.0-1.0","F412D557B7CF4A0F99E30DA5B4E34E4A","F412D557B7CF4A0F99E30DA5B4E34E4A","68733843-38a2-434b-a2d9-655482f9bae5","bea99957-1862-4ad8-9558-57b91e42ce64","{""participantId"":""F412D557B7CF4A0F99E30DA5B4E34E4A"",""assignmentId"":""68733843-38a2-434b-a2d9-655482f9bae5"",""projectId"":""bea99957-1862-4ad8-9558-57b91e42ce64""}","https://test12345.live/?participantId=F412D557B7CF4A0F99E30DA5B4E34E4A&assignmentId=68733843-38a2-434b-a2d9-655482f9bae5&projectId=bea99957-1862-4ad8-9558-57b91e42ce64","","null","<div style=""display: flex; justify-content: center; align-items: center;"">
                    <img src=""images/causal/causal_series_3/causal_series_3_b.jpg"" style=""width: 300px; height: 300px;"" />
                  </div>","null","",""
"","","","","","html-keyboard-response","43","156257","0.0-31.0-2.0","F412D557B7CF4A0F99E30DA5B4E34E4A","F412D557B7CF4A0F99E30DA5B4E34E4A","68733843-38a2-434b-a2d9-655482f9bae5","bea99957-1862-4ad8-9558-57b91e42ce64","{""participantId"":""F412D557B7CF4A0F99E30DA5B4E34E4A"",""assignmentId"":""68733843-38a2-434b-a2d9-655482f9bae5"",""projectId"":""bea99957-1862-4ad8-9558-57b91e42ce64""}","https://test12345.live/?participantId=F412D557B7CF4A0F99E30DA5B4E34E4A&assignmentId=68733843-38a2-434b-a2d9-655482f9bae5&projectId=bea99957-1862-4ad8-9558-57b91e42ce64","","null","<div style=""display: flex; justify-content: center; align-items: center;"">
                    <img src=""images/causal/causal_series_3/causal_series_3_c.jpg"" style=""width: 300px; height: 300px;"" />
                  </div>","null","",""
"","","","","","html-keyboard-response","44","159270","0.0-31.0-3.0","F412D557B7CF4A0F99E30DA5B4E34E4A","F412D557B7CF4A0F99E30DA5B4E34E4A","68733843-38a2-434b-a2d9-655482f9bae5","bea99957-1862-4ad8-9558-57b91e42ce64","{""participantId"":""F412D557B7CF4A0F99E30DA5B4E34E4A"",""assignmentId"":""68733843-38a2-434b-a2d9-655482f9bae5"",""projectId"":""bea99957-1862-4ad8-9558-57b91e42ce64""}","https://test12345.live/?participantId=F412D557B7CF4A0F99E30DA5B4E34E4A&assignmentId=68733843-38a2-434b-a2d9-655482f9bae5&projectId=bea99957-1862-4ad8-9558-57b91e42ce64","","null","<div style=""display: flex; justify-content: center; align-items: center;"">
                    <img src=""images/causal/causal_series_3/causal_series_3_d.jpg"" style=""width: 300px; height: 300px;"" />
                  </div>","null","",""
"","","","","","html-button-response","45","160162","0.0-33.0","F412D557B7CF4A0F99E30DA5B4E34E4A","F412D557B7CF4A0F99E30DA5B4E34E4A","68733843-38a2-434b-a2d9-655482f9bae5","bea99957-1862-4ad8-9558-57b91e42ce64","{""participantId"":""F412D557B7CF4A0F99E30DA5B4E34E4A"",""assignmentId"":""68733843-38a2-434b-a2d9-655482f9bae5"",""projectId"":""bea99957-1862-4ad8-9558-57b91e42ce64""}","https://test12345.live/?participantId=F412D557B7CF4A0F99E30DA5B4E34E4A&assignmentId=68733843-38a2-434b-a2d9-655482f9bae5&projectId=bea99957-1862-4ad8-9558-57b91e42ce64","","892","Was there a person in the picture?","0","",""
"","","","","","survey-likert","46","161362","0.0-34.0","F412D557B7CF4A0F99E30DA5B4E34E4A","F412D557B7CF4A0F99E30DA5B4E34E4A","68733843-38a2-434b-a2d9-655482f9bae5","bea99957-1862-4ad8-9558-57b91e42ce64","{""participantId"":""F412D557B7CF4A0F99E30DA5B4E34E4A"",""assignmentId"":""68733843-38a2-434b-a2d9-655482f9bae5"",""projectId"":""bea99957-1862-4ad8-9558-57b91e42ce64""}","https://test12345.live/?participantId=F412D557B7CF4A0F99E30DA5B4E34E4A&assignmentId=68733843-38a2-434b-a2d9-655482f9bae5&projectId=bea99957-1862-4ad8-9558-57b91e42ce64","","1199","","{""Q0"":2}","","[0]"
"","","","","","html-button-response","47","162162","0.0-35.0","F412D557B7CF4A0F99E30DA5B4E34E4A","F412D557B7CF4A0F99E30DA5B4E34E4A","68733843-38a2-434b-a2d9-655482f9bae5","bea99957-1862-4ad8-9558-57b91e42ce64","{""participantId"":""F412D557B7CF4A0F99E30DA5B4E34E4A"",""assignmentId"":""68733843-38a2-434b-a2d9-655482f9bae5"",""projectId"":""bea99957-1862-4ad8-9558-57b91e42ce64""}","https://test12345.live/?participantId=F412D557B7CF4A0F99E30DA5B4E34E4A&assignmentId=68733843-38a2-434b-a2d9-655482f9bae5&projectId=bea99957-1862-4ad8-9558-57b91e42ce64","","799","
    <div style=""display: flex; justify-content: center; align-items: center;"">
      <img src=""images/red_deck_2.png"" style=""width: 300px; height: 300px; margin-right: 10px;"" />
      <img src=""images/blue_deck_1.png"" style=""width: 300px; height: 300px;"" />
    </div>","0","0",""
"","","","","","html-keyboard-response","48","165182","0.0-37.0-0.0","F412D557B7CF4A0F99E30DA5B4E34E4A","F412D557B7CF4A0F99E30DA5B4E34E4A","68733843-38a2-434b-a2d9-655482f9bae5","bea99957-1862-4ad8-9558-57b91e42ce64","{""participantId"":""F412D557B7CF4A0F99E30DA5B4E34E4A"",""assignmentId"":""68733843-38a2-434b-a2d9-655482f9bae5"",""projectId"":""bea99957-1862-4ad8-9558-57b91e42ce64""}","https://test12345.live/?participantId=F412D557B7CF4A0F99E30DA5B4E34E4A&assignmentId=68733843-38a2-434b-a2d9-655482f9bae5&projectId=bea99957-1862-4ad8-9558-57b91e42ce64","","null","<div style=""display: flex; justify-content: center; align-items: center;"">
                    <img src=""images/semantic/semantic_series_2/semantic_series_2_a.jpg"" style=""width: 300px; height: 300px;"" />
                  </div>","null","",""
"","","","","","html-keyboard-response","49","168183","0.0-37.0-1.0","F412D557B7CF4A0F99E30DA5B4E34E4A","F412D557B7CF4A0F99E30DA5B4E34E4A","68733843-38a2-434b-a2d9-655482f9bae5","bea99957-1862-4ad8-9558-57b91e42ce64","{""participantId"":""F412D557B7CF4A0F99E30DA5B4E34E4A"",""assignmentId"":""68733843-38a2-434b-a2d9-655482f9bae5"",""projectId"":""bea99957-1862-4ad8-9558-57b91e42ce64""}","https://test12345.live/?participantId=F412D557B7CF4A0F99E30DA5B4E34E4A&assignmentId=68733843-38a2-434b-a2d9-655482f9bae5&projectId=bea99957-1862-4ad8-9558-57b91e42ce64","","null","<div style=""display: flex; justify-content: center; align-items: center;"">
                    <img src=""images/semantic/semantic_series_2/semantic_series_2_b.jpg"" style=""width: 300px; height: 300px;"" />
                  </div>","null","",""
"","","","","","html-keyboard-response","50","171191","0.0-37.0-2.0","F412D557B7CF4A0F99E30DA5B4E34E4A","F412D557B7CF4A0F99E30DA5B4E34E4A","68733843-38a2-434b-a2d9-655482f9bae5","bea99957-1862-4ad8-9558-57b91e42ce64","{""participantId"":""F412D557B7CF4A0F99E30DA5B4E34E4A"",""assignmentId"":""68733843-38a2-434b-a2d9-655482f9bae5"",""projectId"":""bea99957-1862-4ad8-9558-57b91e42ce64""}","https://test12345.live/?participantId=F412D557B7CF4A0F99E30DA5B4E34E4A&assignmentId=68733843-38a2-434b-a2d9-655482f9bae5&projectId=bea99957-1862-4ad8-9558-57b91e42ce64","","null","<div style=""display: flex; justify-content: center; align-items: center;"">
                    <img src=""images/semantic/semantic_series_2/semantic_series_2_c.jpg"" style=""width: 300px; height: 300px;"" />
                  </div>","null","",""
"","","","","","html-keyboard-response","51","174538","0.0-37.0-3.0","F412D557B7CF4A0F99E30DA5B4E34E4A","F412D557B7CF4A0F99E30DA5B4E34E4A","68733843-38a2-434b-a2d9-655482f9bae5","bea99957-1862-4ad8-9558-57b91e42ce64","{""participantId"":""F412D557B7CF4A0F99E30DA5B4E34E4A"",""assignmentId"":""68733843-38a2-434b-a2d9-655482f9bae5"",""projectId"":""bea99957-1862-4ad8-9558-57b91e42ce64""}","https://test12345.live/?participantId=F412D557B7CF4A0F99E30DA5B4E34E4A&assignmentId=68733843-38a2-434b-a2d9-655482f9bae5&projectId=bea99957-1862-4ad8-9558-57b91e42ce64","","null","<div style=""display: flex; justify-content: center; align-items: center;"">
                    <img src=""images/semantic/semantic_series_2/semantic_series_2_d.jpg"" style=""width: 300px; height: 300px;"" />
                  </div>","null","",""
"","","","","","html-button-response","52","175889","0.0-38.0","F412D557B7CF4A0F99E30DA5B4E34E4A","F412D557B7CF4A0F99E30DA5B4E34E4A","68733843-38a2-434b-a2d9-655482f9bae5","bea99957-1862-4ad8-9558-57b91e42ce64","{""participantId"":""F412D557B7CF4A0F99E30DA5B4E34E4A"",""assignmentId"":""68733843-38a2-434b-a2d9-655482f9bae5"",""projectId"":""bea99957-1862-4ad8-9558-57b91e42ce64""}","https://test12345.live/?participantId=F412D557B7CF4A0F99E30DA5B4E34E4A&assignmentId=68733843-38a2-434b-a2d9-655482f9bae5&projectId=bea99957-1862-4ad8-9558-57b91e42ce64","","1351","Was there a person in the picture?","0","",""
"","","","","","survey-likert","53","177985","0.0-39.0","F412D557B7CF4A0F99E30DA5B4E34E4A","F412D557B7CF4A0F99E30DA5B4E34E4A","68733843-38a2-434b-a2d9-655482f9bae5","bea99957-1862-4ad8-9558-57b91e42ce64","{""participantId"":""F412D557B7CF4A0F99E30DA5B4E34E4A"",""assignmentId"":""68733843-38a2-434b-a2d9-655482f9bae5"",""projectId"":""bea99957-1862-4ad8-9558-57b91e42ce64""}","https://test12345.live/?participantId=F412D557B7CF4A0F99E30DA5B4E34E4A&assignmentId=68733843-38a2-434b-a2d9-655482f9bae5&projectId=bea99957-1862-4ad8-9558-57b91e42ce64","","2096","","{""Q0"":2}","","[0]"
"","","","","","html-button-response","54","178625","0.0-40.0","F412D557B7CF4A0F99E30DA5B4E34E4A","F412D557B7CF4A0F99E30DA5B4E34E4A","68733843-38a2-434b-a2d9-655482f9bae5","bea99957-1862-4ad8-9558-57b91e42ce64","{""participantId"":""F412D557B7CF4A0F99E30DA5B4E34E4A"",""assignmentId"":""68733843-38a2-434b-a2d9-655482f9bae5"",""projectId"":""bea99957-1862-4ad8-9558-57b91e42ce64""}","https://test12345.live/?participantId=F412D557B7CF4A0F99E30DA5B4E34E4A&assignmentId=68733843-38a2-434b-a2d9-655482f9bae5&projectId=bea99957-1862-4ad8-9558-57b91e42ce64","","638","
    <div style=""display: flex; justify-content: center; align-items: center;"">
      <img src=""images/red_deck_2.png"" style=""width: 300px; height: 300px; margin-right: 10px;"" />
      <img src=""images/blue_deck_1.png"" style=""width: 300px; height: 300px;"" />
    </div>","1","1",""
"","","","","","html-keyboard-response","55","181640","0.0-41.0-0.0","F412D557B7CF4A0F99E30DA5B4E34E4A","F412D557B7CF4A0F99E30DA5B4E34E4A","68733843-38a2-434b-a2d9-655482f9bae5","bea99957-1862-4ad8-9558-57b91e42ce64","{""participantId"":""F412D557B7CF4A0F99E30DA5B4E34E4A"",""assignmentId"":""68733843-38a2-434b-a2d9-655482f9bae5"",""projectId"":""bea99957-1862-4ad8-9558-57b91e42ce64""}","https://test12345.live/?participantId=F412D557B7CF4A0F99E30DA5B4E34E4A&assignmentId=68733843-38a2-434b-a2d9-655482f9bae5&projectId=bea99957-1862-4ad8-9558-57b91e42ce64","","null","<div style=""display: flex; justify-content: center; align-items: center;"">
                    <img src=""images/causal/causal_series_7/causal_series_7_a.jpg"" style=""width: 300px; height: 300px;"" />
                  </div>","null","",""
"","","","","","html-keyboard-response","56","184905","0.0-41.0-1.0","F412D557B7CF4A0F99E30DA5B4E34E4A","F412D557B7CF4A0F99E30DA5B4E34E4A","68733843-38a2-434b-a2d9-655482f9bae5","bea99957-1862-4ad8-9558-57b91e42ce64","{""participantId"":""F412D557B7CF4A0F99E30DA5B4E34E4A"",""assignmentId"":""68733843-38a2-434b-a2d9-655482f9bae5"",""projectId"":""bea99957-1862-4ad8-9558-57b91e42ce64""}","https://test12345.live/?participantId=F412D557B7CF4A0F99E30DA5B4E34E4A&assignmentId=68733843-38a2-434b-a2d9-655482f9bae5&projectId=bea99957-1862-4ad8-9558-57b91e42ce64","","null","<div style=""display: flex; justify-content: center; align-items: center;"">
                    <img src=""images/causal/causal_series_7/causal_series_7_b.jpg"" style=""width: 300px; height: 300px;"" />
                  </div>","null","",""
"","","","","","html-keyboard-response","57","187907","0.0-41.0-2.0","F412D557B7CF4A0F99E30DA5B4E34E4A","F412D557B7CF4A0F99E30DA5B4E34E4A","68733843-38a2-434b-a2d9-655482f9bae5","bea99957-1862-4ad8-9558-57b91e42ce64","{""participantId"":""F412D557B7CF4A0F99E30DA5B4E34E4A"",""assignmentId"":""68733843-38a2-434b-a2d9-655482f9bae5"",""projectId"":""bea99957-1862-4ad8-9558-57b91e42ce64""}","https://test12345.live/?participantId=F412D557B7CF4A0F99E30DA5B4E34E4A&assignmentId=68733843-38a2-434b-a2d9-655482f9bae5&projectId=bea99957-1862-4ad8-9558-57b91e42ce64","","null","<div style=""display: flex; justify-content: center; align-items: center;"">
                    <img src=""images/causal/causal_series_7/causal_series_7_c.jpg"" style=""width: 300px; height: 300px;"" />
                  </div>","null","",""
"","","","","","html-keyboard-response","58","191099","0.0-41.0-3.0","F412D557B7CF4A0F99E30DA5B4E34E4A","F412D557B7CF4A0F99E30DA5B4E34E4A","68733843-38a2-434b-a2d9-655482f9bae5","bea99957-1862-4ad8-9558-57b91e42ce64","{""participantId"":""F412D557B7CF4A0F99E30DA5B4E34E4A"",""assignmentId"":""68733843-38a2-434b-a2d9-655482f9bae5"",""projectId"":""bea99957-1862-4ad8-9558-57b91e42ce64""}","https://test12345.live/?participantId=F412D557B7CF4A0F99E30DA5B4E34E4A&assignmentId=68733843-38a2-434b-a2d9-655482f9bae5&projectId=bea99957-1862-4ad8-9558-57b91e42ce64","","null","<div style=""display: flex; justify-content: center; align-items: center;"">
                    <img src=""images/causal/causal_series_7/causal_series_7_d.jpg"" style=""width: 300px; height: 300px;"" />
                  </div>","null","",""
"","","","","","html-button-response","59","192329","0.0-43.0","F412D557B7CF4A0F99E30DA5B4E34E4A","F412D557B7CF4A0F99E30DA5B4E34E4A","68733843-38a2-434b-a2d9-655482f9bae5","bea99957-1862-4ad8-9558-57b91e42ce64","{""participantId"":""F412D557B7CF4A0F99E30DA5B4E34E4A"",""assignmentId"":""68733843-38a2-434b-a2d9-655482f9bae5"",""projectId"":""bea99957-1862-4ad8-9558-57b91e42ce64""}","https://test12345.live/?participantId=F412D557B7CF4A0F99E30DA5B4E34E4A&assignmentId=68733843-38a2-434b-a2d9-655482f9bae5&projectId=bea99957-1862-4ad8-9558-57b91e42ce64","","1231","Was there a person in the picture?","1","",""
"","","","","","survey-likert","60","193801","0.0-44.0","F412D557B7CF4A0F99E30DA5B4E34E4A","F412D557B7CF4A0F99E30DA5B4E34E4A","68733843-38a2-434b-a2d9-655482f9bae5","bea99957-1862-4ad8-9558-57b91e42ce64","{""participantId"":""F412D557B7CF4A0F99E30DA5B4E34E4A"",""assignmentId"":""68733843-38a2-434b-a2d9-655482f9bae5"",""projectId"":""bea99957-1862-4ad8-9558-57b91e42ce64""}","https://test12345.live/?participantId=F412D557B7CF4A0F99E30DA5B4E34E4A&assignmentId=68733843-38a2-434b-a2d9-655482f9bae5&projectId=bea99957-1862-4ad8-9558-57b91e42ce64","","1470","","{""Q0"":2}","","[0]"
"","","","","","html-button-response","61","194361","0.0-45.0","F412D557B7CF4A0F99E30DA5B4E34E4A","F412D557B7CF4A0F99E30DA5B4E34E4A","68733843-38a2-434b-a2d9-655482f9bae5","bea99957-1862-4ad8-9558-57b91e42ce64","{""participantId"":""F412D557B7CF4A0F99E30DA5B4E34E4A"",""assignmentId"":""68733843-38a2-434b-a2d9-655482f9bae5"",""projectId"":""bea99957-1862-4ad8-9558-57b91e42ce64""}","https://test12345.live/?participantId=F412D557B7CF4A0F99E30DA5B4E34E4A&assignmentId=68733843-38a2-434b-a2d9-655482f9bae5&projectId=bea99957-1862-4ad8-9558-57b91e42ce64","","559","
    <div style=""display: flex; justify-content: center; align-items: center;"">
      <img src=""images/red_deck_2.png"" style=""width: 300px; height: 300px; margin-right: 10px;"" />
      <img src=""images/blue_deck_1.png"" style=""width: 300px; height: 300px;"" />
    </div>","0","0",""
"","","","","","html-keyboard-response","62","197547","0.0-47.0-0.0","F412D557B7CF4A0F99E30DA5B4E34E4A","F412D557B7CF4A0F99E30DA5B4E34E4A","68733843-38a2-434b-a2d9-655482f9bae5","bea99957-1862-4ad8-9558-57b91e42ce64","{""participantId"":""F412D557B7CF4A0F99E30DA5B4E34E4A"",""assignmentId"":""68733843-38a2-434b-a2d9-655482f9bae5"",""projectId"":""bea99957-1862-4ad8-9558-57b91e42ce64""}","https://test12345.live/?participantId=F412D557B7CF4A0F99E30DA5B4E34E4A&assignmentId=68733843-38a2-434b-a2d9-655482f9bae5&projectId=bea99957-1862-4ad8-9558-57b91e42ce64","","null","<div style=""display: flex; justify-content: center; align-items: center;"">
                    <img src=""images/semantic/semantic_series_15/semantic_series_15_a.jpg"" style=""width: 300px; height: 300px;"" />
                  </div>","null","",""
"","","","","","html-keyboard-response","63","200562","0.0-47.0-1.0","F412D557B7CF4A0F99E30DA5B4E34E4A","F412D557B7CF4A0F99E30DA5B4E34E4A","68733843-38a2-434b-a2d9-655482f9bae5","bea99957-1862-4ad8-9558-57b91e42ce64","{""participantId"":""F412D557B7CF4A0F99E30DA5B4E34E4A"",""assignmentId"":""68733843-38a2-434b-a2d9-655482f9bae5"",""projectId"":""bea99957-1862-4ad8-9558-57b91e42ce64""}","https://test12345.live/?participantId=F412D557B7CF4A0F99E30DA5B4E34E4A&assignmentId=68733843-38a2-434b-a2d9-655482f9bae5&projectId=bea99957-1862-4ad8-9558-57b91e42ce64","","null","<div style=""display: flex; justify-content: center; align-items: center;"">
                    <img src=""images/semantic/semantic_series_15/semantic_series_15_b.jpg"" style=""width: 300px; height: 300px;"" />
                  </div>","null","",""
"","","","","","html-keyboard-response","64","203573","0.0-47.0-2.0","F412D557B7CF4A0F99E30DA5B4E34E4A","F412D557B7CF4A0F99E30DA5B4E34E4A","68733843-38a2-434b-a2d9-655482f9bae5","bea99957-1862-4ad8-9558-57b91e42ce64","{""participantId"":""F412D557B7CF4A0F99E30DA5B4E34E4A"",""assignmentId"":""68733843-38a2-434b-a2d9-655482f9bae5"",""projectId"":""bea99957-1862-4ad8-9558-57b91e42ce64""}","https://test12345.live/?participantId=F412D557B7CF4A0F99E30DA5B4E34E4A&assignmentId=68733843-38a2-434b-a2d9-655482f9bae5&projectId=bea99957-1862-4ad8-9558-57b91e42ce64","","null","<div style=""display: flex; justify-content: center; align-items: center;"">
                    <img src=""images/semantic/semantic_series_15/semantic_series_15_c.jpg"" style=""width: 300px; height: 300px;"" />
                  </div>","null","",""
"","","","","","html-keyboard-response","65","206657","0.0-47.0-3.0","F412D557B7CF4A0F99E30DA5B4E34E4A","F412D557B7CF4A0F99E30DA5B4E34E4A","68733843-38a2-434b-a2d9-655482f9bae5","bea99957-1862-4ad8-9558-57b91e42ce64","{""participantId"":""F412D557B7CF4A0F99E30DA5B4E34E4A"",""assignmentId"":""68733843-38a2-434b-a2d9-655482f9bae5"",""projectId"":""bea99957-1862-4ad8-9558-57b91e42ce64""}","https://test12345.live/?participantId=F412D557B7CF4A0F99E30DA5B4E34E4A&assignmentId=68733843-38a2-434b-a2d9-655482f9bae5&projectId=bea99957-1862-4ad8-9558-57b91e42ce64","","null","<div style=""display: flex; justify-content: center; align-items: center;"">
                    <img src=""images/semantic/semantic_series_15/semantic_series_15_d.jpg"" style=""width: 300px; height: 300px;"" />
                  </div>","null","",""
"","","","","","html-button-response","66","207360","0.0-48.0","F412D557B7CF4A0F99E30DA5B4E34E4A","F412D557B7CF4A0F99E30DA5B4E34E4A","68733843-38a2-434b-a2d9-655482f9bae5","bea99957-1862-4ad8-9558-57b91e42ce64","{""participantId"":""F412D557B7CF4A0F99E30DA5B4E34E4A"",""assignmentId"":""68733843-38a2-434b-a2d9-655482f9bae5"",""projectId"":""bea99957-1862-4ad8-9558-57b91e42ce64""}","https://test12345.live/?participantId=F412D557B7CF4A0F99E30DA5B4E34E4A&assignmentId=68733843-38a2-434b-a2d9-655482f9bae5&projectId=bea99957-1862-4ad8-9558-57b91e42ce64","","703","Was there a person in the picture?","1","",""
"","","","","","survey-likert","67","209032","0.0-49.0","F412D557B7CF4A0F99E30DA5B4E34E4A","F412D557B7CF4A0F99E30DA5B4E34E4A","68733843-38a2-434b-a2d9-655482f9bae5","bea99957-1862-4ad8-9558-57b91e42ce64","{""participantId"":""F412D557B7CF4A0F99E30DA5B4E34E4A"",""assignmentId"":""68733843-38a2-434b-a2d9-655482f9bae5"",""projectId"":""bea99957-1862-4ad8-9558-57b91e42ce64""}","https://test12345.live/?participantId=F412D557B7CF4A0F99E30DA5B4E34E4A&assignmentId=68733843-38a2-434b-a2d9-655482f9bae5&projectId=bea99957-1862-4ad8-9558-57b91e42ce64","","1670","","{""Q0"":1}","","[0]"
"","","","","","html-button-response","68","209777","0.0-50.0","F412D557B7CF4A0F99E30DA5B4E34E4A","F412D557B7CF4A0F99E30DA5B4E34E4A","68733843-38a2-434b-a2d9-655482f9bae5","bea99957-1862-4ad8-9558-57b91e42ce64","{""participantId"":""F412D557B7CF4A0F99E30DA5B4E34E4A"",""assignmentId"":""68733843-38a2-434b-a2d9-655482f9bae5"",""projectId"":""bea99957-1862-4ad8-9558-57b91e42ce64""}","https://test12345.live/?participantId=F412D557B7CF4A0F99E30DA5B4E34E4A&assignmentId=68733843-38a2-434b-a2d9-655482f9bae5&projectId=bea99957-1862-4ad8-9558-57b91e42ce64","","744","
    <div style=""display: flex; justify-content: center; align-items: center;"">
      <img src=""images/red_deck_2.png"" style=""width: 300px; height: 300px; margin-right: 10px;"" />
      <img src=""images/blue_deck_1.png"" style=""width: 300px; height: 300px;"" />
    </div>","0","0",""
"","","","","","html-keyboard-response","69","212784","0.0-52.0-0.0","F412D557B7CF4A0F99E30DA5B4E34E4A","F412D557B7CF4A0F99E30DA5B4E34E4A","68733843-38a2-434b-a2d9-655482f9bae5","bea99957-1862-4ad8-9558-57b91e42ce64","{""participantId"":""F412D557B7CF4A0F99E30DA5B4E34E4A"",""assignmentId"":""68733843-38a2-434b-a2d9-655482f9bae5"",""projectId"":""bea99957-1862-4ad8-9558-57b91e42ce64""}","https://test12345.live/?participantId=F412D557B7CF4A0F99E30DA5B4E34E4A&assignmentId=68733843-38a2-434b-a2d9-655482f9bae5&projectId=bea99957-1862-4ad8-9558-57b91e42ce64","","null","<div style=""display: flex; justify-content: center; align-items: center;"">
                    <img src=""images/semantic/semantic_series_16/semantic_series_16_a.jpg"" style=""width: 300px; height: 300px;"" />
                  </div>","null","",""
"","","","","","html-keyboard-response","70","215812","0.0-52.0-1.0","F412D557B7CF4A0F99E30DA5B4E34E4A","F412D557B7CF4A0F99E30DA5B4E34E4A","68733843-38a2-434b-a2d9-655482f9bae5","bea99957-1862-4ad8-9558-57b91e42ce64","{""participantId"":""F412D557B7CF4A0F99E30DA5B4E34E4A"",""assignmentId"":""68733843-38a2-434b-a2d9-655482f9bae5"",""projectId"":""bea99957-1862-4ad8-9558-57b91e42ce64""}","https://test12345.live/?participantId=F412D557B7CF4A0F99E30DA5B4E34E4A&assignmentId=68733843-38a2-434b-a2d9-655482f9bae5&projectId=bea99957-1862-4ad8-9558-57b91e42ce64","","null","<div style=""display: flex; justify-content: center; align-items: center;"">
                    <img src=""images/semantic/semantic_series_16/semantic_series_16_b.jpg"" style=""width: 300px; height: 300px;"" />
                  </div>","null","",""
"","","","","","html-keyboard-response","71","218825","0.0-52.0-2.0","F412D557B7CF4A0F99E30DA5B4E34E4A","F412D557B7CF4A0F99E30DA5B4E34E4A","68733843-38a2-434b-a2d9-655482f9bae5","bea99957-1862-4ad8-9558-57b91e42ce64","{""participantId"":""F412D557B7CF4A0F99E30DA5B4E34E4A"",""assignmentId"":""68733843-38a2-434b-a2d9-655482f9bae5"",""projectId"":""bea99957-1862-4ad8-9558-57b91e42ce64""}","https://test12345.live/?participantId=F412D557B7CF4A0F99E30DA5B4E34E4A&assignmentId=68733843-38a2-434b-a2d9-655482f9bae5&projectId=bea99957-1862-4ad8-9558-57b91e42ce64","","null","<div style=""display: flex; justify-content: center; align-items: center;"">
                    <img src=""images/semantic/semantic_series_16/semantic_series_16_c.jpg"" style=""width: 300px; height: 300px;"" />
                  </div>","null","",""
"","","","","","html-keyboard-response","72","221834","0.0-52.0-3.0","F412D557B7CF4A0F99E30DA5B4E34E4A","F412D557B7CF4A0F99E30DA5B4E34E4A","68733843-38a2-434b-a2d9-655482f9bae5","bea99957-1862-4ad8-9558-57b91e42ce64","{""participantId"":""F412D557B7CF4A0F99E30DA5B4E34E4A"",""assignmentId"":""68733843-38a2-434b-a2d9-655482f9bae5"",""projectId"":""bea99957-1862-4ad8-9558-57b91e42ce64""}","https://test12345.live/?participantId=F412D557B7CF4A0F99E30DA5B4E34E4A&assignmentId=68733843-38a2-434b-a2d9-655482f9bae5&projectId=bea99957-1862-4ad8-9558-57b91e42ce64","","null","<div style=""display: flex; justify-content: center; align-items: center;"">
                    <img src=""images/semantic/semantic_series_16/semantic_series_16_d.jpg"" style=""width: 300px; height: 300px;"" />
                  </div>","null","",""
"","","","","","html-button-response","73","222631","0.0-53.0","F412D557B7CF4A0F99E30DA5B4E34E4A","F412D557B7CF4A0F99E30DA5B4E34E4A","68733843-38a2-434b-a2d9-655482f9bae5","bea99957-1862-4ad8-9558-57b91e42ce64","{""participantId"":""F412D557B7CF4A0F99E30DA5B4E34E4A"",""assignmentId"":""68733843-38a2-434b-a2d9-655482f9bae5"",""projectId"":""bea99957-1862-4ad8-9558-57b91e42ce64""}","https://test12345.live/?participantId=F412D557B7CF4A0F99E30DA5B4E34E4A&assignmentId=68733843-38a2-434b-a2d9-655482f9bae5&projectId=bea99957-1862-4ad8-9558-57b91e42ce64","","797","Was there a person in the picture?","0","",""
"","","","","","survey-likert","74","223783","0.0-54.0","F412D557B7CF4A0F99E30DA5B4E34E4A","F412D557B7CF4A0F99E30DA5B4E34E4A","68733843-38a2-434b-a2d9-655482f9bae5","bea99957-1862-4ad8-9558-57b91e42ce64","{""participantId"":""F412D557B7CF4A0F99E30DA5B4E34E4A"",""assignmentId"":""68733843-38a2-434b-a2d9-655482f9bae5"",""projectId"":""bea99957-1862-4ad8-9558-57b91e42ce64""}","https://test12345.live/?participantId=F412D557B7CF4A0F99E30DA5B4E34E4A&assignmentId=68733843-38a2-434b-a2d9-655482f9bae5&projectId=bea99957-1862-4ad8-9558-57b91e42ce64","","1151","","{""Q0"":1}","","[0]"
"","","","","","html-button-response","75","224616","0.0-55.0","F412D557B7CF4A0F99E30DA5B4E34E4A","F412D557B7CF4A0F99E30DA5B4E34E4A","68733843-38a2-434b-a2d9-655482f9bae5","bea99957-1862-4ad8-9558-57b91e42ce64","{""participantId"":""F412D557B7CF4A0F99E30DA5B4E34E4A"",""assignmentId"":""68733843-38a2-434b-a2d9-655482f9bae5"",""projectId"":""bea99957-1862-4ad8-9558-57b91e42ce64""}","https://test12345.live/?participantId=F412D557B7CF4A0F99E30DA5B4E34E4A&assignmentId=68733843-38a2-434b-a2d9-655482f9bae5&projectId=bea99957-1862-4ad8-9558-57b91e42ce64","","832","
    <div style=""display: flex; justify-content: center; align-items: center;"">
      <img src=""images/red_deck_2.png"" style=""width: 300px; height: 300px; margin-right: 10px;"" />
      <img src=""images/blue_deck_1.png"" style=""width: 300px; height: 300px;"" />
    </div>","0","0",""
"","","","","","html-keyboard-response","76","227617","0.0-57.0-0.0","F412D557B7CF4A0F99E30DA5B4E34E4A","F412D557B7CF4A0F99E30DA5B4E34E4A","68733843-38a2-434b-a2d9-655482f9bae5","bea99957-1862-4ad8-9558-57b91e42ce64","{""participantId"":""F412D557B7CF4A0F99E30DA5B4E34E4A"",""assignmentId"":""68733843-38a2-434b-a2d9-655482f9bae5"",""projectId"":""bea99957-1862-4ad8-9558-57b91e42ce64""}","https://test12345.live/?participantId=F412D557B7CF4A0F99E30DA5B4E34E4A&assignmentId=68733843-38a2-434b-a2d9-655482f9bae5&projectId=bea99957-1862-4ad8-9558-57b91e42ce64","","null","<div style=""display: flex; justify-content: center; align-items: center;"">
                    <img src=""images/semantic/semantic_series_12/semantic_series_12_a.jpg"" style=""width: 300px; height: 300px;"" />
                  </div>","null","",""
"","","","","","html-keyboard-response","77","230875","0.0-57.0-1.0","F412D557B7CF4A0F99E30DA5B4E34E4A","F412D557B7CF4A0F99E30DA5B4E34E4A","68733843-38a2-434b-a2d9-655482f9bae5","bea99957-1862-4ad8-9558-57b91e42ce64","{""participantId"":""F412D557B7CF4A0F99E30DA5B4E34E4A"",""assignmentId"":""68733843-38a2-434b-a2d9-655482f9bae5"",""projectId"":""bea99957-1862-4ad8-9558-57b91e42ce64""}","https://test12345.live/?participantId=F412D557B7CF4A0F99E30DA5B4E34E4A&assignmentId=68733843-38a2-434b-a2d9-655482f9bae5&projectId=bea99957-1862-4ad8-9558-57b91e42ce64","","null","<div style=""display: flex; justify-content: center; align-items: center;"">
                    <img src=""images/semantic/semantic_series_12/semantic_series_12_b.jpg"" style=""width: 300px; height: 300px;"" />
                  </div>","null","",""
"","","","","","html-keyboard-response","78","233883","0.0-57.0-2.0","F412D557B7CF4A0F99E30DA5B4E34E4A","F412D557B7CF4A0F99E30DA5B4E34E4A","68733843-38a2-434b-a2d9-655482f9bae5","bea99957-1862-4ad8-9558-57b91e42ce64","{""participantId"":""F412D557B7CF4A0F99E30DA5B4E34E4A"",""assignmentId"":""68733843-38a2-434b-a2d9-655482f9bae5"",""projectId"":""bea99957-1862-4ad8-9558-57b91e42ce64""}","https://test12345.live/?participantId=F412D557B7CF4A0F99E30DA5B4E34E4A&assignmentId=68733843-38a2-434b-a2d9-655482f9bae5&projectId=bea99957-1862-4ad8-9558-57b91e42ce64","","null","<div style=""display: flex; justify-content: center; align-items: center;"">
                    <img src=""images/semantic/semantic_series_12/semantic_series_12_c.jpg"" style=""width: 300px; height: 300px;"" />
                  </div>","null","",""
"","","","","","html-keyboard-response","79","236898","0.0-57.0-3.0","F412D557B7CF4A0F99E30DA5B4E34E4A","F412D557B7CF4A0F99E30DA5B4E34E4A","68733843-38a2-434b-a2d9-655482f9bae5","bea99957-1862-4ad8-9558-57b91e42ce64","{""participantId"":""F412D557B7CF4A0F99E30DA5B4E34E4A"",""assignmentId"":""68733843-38a2-434b-a2d9-655482f9bae5"",""projectId"":""bea99957-1862-4ad8-9558-57b91e42ce64""}","https://test12345.live/?participantId=F412D557B7CF4A0F99E30DA5B4E34E4A&assignmentId=68733843-38a2-434b-a2d9-655482f9bae5&projectId=bea99957-1862-4ad8-9558-57b91e42ce64","","null","<div style=""display: flex; justify-content: center; align-items: center;"">
                    <img src=""images/semantic/semantic_series_12/semantic_series_12_d.jpg"" style=""width: 300px; height: 300px;"" />
                  </div>","null","",""
"","","","","","html-button-response","80","237880","0.0-58.0","F412D557B7CF4A0F99E30DA5B4E34E4A","F412D557B7CF4A0F99E30DA5B4E34E4A","68733843-38a2-434b-a2d9-655482f9bae5","bea99957-1862-4ad8-9558-57b91e42ce64","{""participantId"":""F412D557B7CF4A0F99E30DA5B4E34E4A"",""assignmentId"":""68733843-38a2-434b-a2d9-655482f9bae5"",""projectId"":""bea99957-1862-4ad8-9558-57b91e42ce64""}","https://test12345.live/?participantId=F412D557B7CF4A0F99E30DA5B4E34E4A&assignmentId=68733843-38a2-434b-a2d9-655482f9bae5&projectId=bea99957-1862-4ad8-9558-57b91e42ce64","","982","Was there a person in the picture?","1","",""
"","","","","","survey-likert","81","239863","0.0-59.0","F412D557B7CF4A0F99E30DA5B4E34E4A","F412D557B7CF4A0F99E30DA5B4E34E4A","68733843-38a2-434b-a2d9-655482f9bae5","bea99957-1862-4ad8-9558-57b91e42ce64","{""participantId"":""F412D557B7CF4A0F99E30DA5B4E34E4A"",""assignmentId"":""68733843-38a2-434b-a2d9-655482f9bae5"",""projectId"":""bea99957-1862-4ad8-9558-57b91e42ce64""}","https://test12345.live/?participantId=F412D557B7CF4A0F99E30DA5B4E34E4A&assignmentId=68733843-38a2-434b-a2d9-655482f9bae5&projectId=bea99957-1862-4ad8-9558-57b91e42ce64","","1983","","{""Q0"":2}","","[0]"
"","","","","","html-button-response","82","240583","0.0-60.0","F412D557B7CF4A0F99E30DA5B4E34E4A","F412D557B7CF4A0F99E30DA5B4E34E4A","68733843-38a2-434b-a2d9-655482f9bae5","bea99957-1862-4ad8-9558-57b91e42ce64","{""participantId"":""F412D557B7CF4A0F99E30DA5B4E34E4A"",""assignmentId"":""68733843-38a2-434b-a2d9-655482f9bae5"",""projectId"":""bea99957-1862-4ad8-9558-57b91e42ce64""}","https://test12345.live/?participantId=F412D557B7CF4A0F99E30DA5B4E34E4A&assignmentId=68733843-38a2-434b-a2d9-655482f9bae5&projectId=bea99957-1862-4ad8-9558-57b91e42ce64","","719","
    <div style=""display: flex; justify-content: center; align-items: center;"">
      <img src=""images/red_deck_2.png"" style=""width: 300px; height: 300px; margin-right: 10px;"" />
      <img src=""images/blue_deck_1.png"" style=""width: 300px; height: 300px;"" />
    </div>","0","0",""
"","","","","","html-keyboard-response","83","243596","0.0-62.0-0.0","F412D557B7CF4A0F99E30DA5B4E34E4A","F412D557B7CF4A0F99E30DA5B4E34E4A","68733843-38a2-434b-a2d9-655482f9bae5","bea99957-1862-4ad8-9558-57b91e42ce64","{""participantId"":""F412D557B7CF4A0F99E30DA5B4E34E4A"",""assignmentId"":""68733843-38a2-434b-a2d9-655482f9bae5"",""projectId"":""bea99957-1862-4ad8-9558-57b91e42ce64""}","https://test12345.live/?participantId=F412D557B7CF4A0F99E30DA5B4E34E4A&assignmentId=68733843-38a2-434b-a2d9-655482f9bae5&projectId=bea99957-1862-4ad8-9558-57b91e42ce64","","null","<div style=""display: flex; justify-content: center; align-items: center;"">
                    <img src=""images/semantic/semantic_series_4/semantic_series_4_a.jpg"" style=""width: 300px; height: 300px;"" />
                  </div>","null","",""
"","","","","","html-keyboard-response","84","246606","0.0-62.0-1.0","F412D557B7CF4A0F99E30DA5B4E34E4A","F412D557B7CF4A0F99E30DA5B4E34E4A","68733843-38a2-434b-a2d9-655482f9bae5","bea99957-1862-4ad8-9558-57b91e42ce64","{""participantId"":""F412D557B7CF4A0F99E30DA5B4E34E4A"",""assignmentId"":""68733843-38a2-434b-a2d9-655482f9bae5"",""projectId"":""bea99957-1862-4ad8-9558-57b91e42ce64""}","https://test12345.live/?participantId=F412D557B7CF4A0F99E30DA5B4E34E4A&assignmentId=68733843-38a2-434b-a2d9-655482f9bae5&projectId=bea99957-1862-4ad8-9558-57b91e42ce64","","null","<div style=""display: flex; justify-content: center; align-items: center;"">
                    <img src=""images/semantic/semantic_series_4/semantic_series_4_b.jpg"" style=""width: 300px; height: 300px;"" />
                  </div>","null","",""
"","","","","","html-keyboard-response","85","249617","0.0-62.0-2.0","F412D557B7CF4A0F99E30DA5B4E34E4A","F412D557B7CF4A0F99E30DA5B4E34E4A","68733843-38a2-434b-a2d9-655482f9bae5","bea99957-1862-4ad8-9558-57b91e42ce64","{""participantId"":""F412D557B7CF4A0F99E30DA5B4E34E4A"",""assignmentId"":""68733843-38a2-434b-a2d9-655482f9bae5"",""projectId"":""bea99957-1862-4ad8-9558-57b91e42ce64""}","https://test12345.live/?participantId=F412D557B7CF4A0F99E30DA5B4E34E4A&assignmentId=68733843-38a2-434b-a2d9-655482f9bae5&projectId=bea99957-1862-4ad8-9558-57b91e42ce64","","null","<div style=""display: flex; justify-content: center; align-items: center;"">
                    <img src=""images/semantic/semantic_series_4/semantic_series_4_c.jpg"" style=""width: 300px; height: 300px;"" />
                  </div>","null","",""
"","","","","","html-keyboard-response","86","252632","0.0-62.0-3.0","F412D557B7CF4A0F99E30DA5B4E34E4A","F412D557B7CF4A0F99E30DA5B4E34E4A","68733843-38a2-434b-a2d9-655482f9bae5","bea99957-1862-4ad8-9558-57b91e42ce64","{""participantId"":""F412D557B7CF4A0F99E30DA5B4E34E4A"",""assignmentId"":""68733843-38a2-434b-a2d9-655482f9bae5"",""projectId"":""bea99957-1862-4ad8-9558-57b91e42ce64""}","https://test12345.live/?participantId=F412D557B7CF4A0F99E30DA5B4E34E4A&assignmentId=68733843-38a2-434b-a2d9-655482f9bae5&projectId=bea99957-1862-4ad8-9558-57b91e42ce64","","null","<div style=""display: flex; justify-content: center; align-items: center;"">
                    <img src=""images/semantic/semantic_series_4/semantic_series_4_d.jpg"" style=""width: 300px; height: 300px;"" />
                  </div>","null","",""
"","","","","","html-button-response","87","253720","0.0-63.0","F412D557B7CF4A0F99E30DA5B4E34E4A","F412D557B7CF4A0F99E30DA5B4E34E4A","68733843-38a2-434b-a2d9-655482f9bae5","bea99957-1862-4ad8-9558-57b91e42ce64","{""participantId"":""F412D557B7CF4A0F99E30DA5B4E34E4A"",""assignmentId"":""68733843-38a2-434b-a2d9-655482f9bae5"",""projectId"":""bea99957-1862-4ad8-9558-57b91e42ce64""}","https://test12345.live/?participantId=F412D557B7CF4A0F99E30DA5B4E34E4A&assignmentId=68733843-38a2-434b-a2d9-655482f9bae5&projectId=bea99957-1862-4ad8-9558-57b91e42ce64","","1086","Was there a person in the picture?","1","",""
"","","","","","survey-likert","88","255000","0.0-64.0","F412D557B7CF4A0F99E30DA5B4E34E4A","F412D557B7CF4A0F99E30DA5B4E34E4A","68733843-38a2-434b-a2d9-655482f9bae5","bea99957-1862-4ad8-9558-57b91e42ce64","{""participantId"":""F412D557B7CF4A0F99E30DA5B4E34E4A"",""assignmentId"":""68733843-38a2-434b-a2d9-655482f9bae5"",""projectId"":""bea99957-1862-4ad8-9558-57b91e42ce64""}","https://test12345.live/?participantId=F412D557B7CF4A0F99E30DA5B4E34E4A&assignmentId=68733843-38a2-434b-a2d9-655482f9bae5&projectId=bea99957-1862-4ad8-9558-57b91e42ce64","","1280","","{""Q0"":1}","","[0]"
"","","","","","html-button-response","89","255848","0.0-65.0","F412D557B7CF4A0F99E30DA5B4E34E4A","F412D557B7CF4A0F99E30DA5B4E34E4A","68733843-38a2-434b-a2d9-655482f9bae5","bea99957-1862-4ad8-9558-57b91e42ce64","{""participantId"":""F412D557B7CF4A0F99E30DA5B4E34E4A"",""assignmentId"":""68733843-38a2-434b-a2d9-655482f9bae5"",""projectId"":""bea99957-1862-4ad8-9558-57b91e42ce64""}","https://test12345.live/?participantId=F412D557B7CF4A0F99E30DA5B4E34E4A&assignmentId=68733843-38a2-434b-a2d9-655482f9bae5&projectId=bea99957-1862-4ad8-9558-57b91e42ce64","","847","
    <div style=""display: flex; justify-content: center; align-items: center;"">
      <img src=""images/red_deck_2.png"" style=""width: 300px; height: 300px; margin-right: 10px;"" />
      <img src=""images/blue_deck_1.png"" style=""width: 300px; height: 300px;"" />
    </div>","1","1",""
"","","","","","html-keyboard-response","90","259014","0.0-66.0-0.0","F412D557B7CF4A0F99E30DA5B4E34E4A","F412D557B7CF4A0F99E30DA5B4E34E4A","68733843-38a2-434b-a2d9-655482f9bae5","bea99957-1862-4ad8-9558-57b91e42ce64","{""participantId"":""F412D557B7CF4A0F99E30DA5B4E34E4A"",""assignmentId"":""68733843-38a2-434b-a2d9-655482f9bae5"",""projectId"":""bea99957-1862-4ad8-9558-57b91e42ce64""}","https://test12345.live/?participantId=F412D557B7CF4A0F99E30DA5B4E34E4A&assignmentId=68733843-38a2-434b-a2d9-655482f9bae5&projectId=bea99957-1862-4ad8-9558-57b91e42ce64","","null","<div style=""display: flex; justify-content: center; align-items: center;"">
                    <img src=""images/causal/causal_series_15/causal_series_15_a.jpg"" style=""width: 300px; height: 300px;"" />
                  </div>","null","",""
"","","","","","html-keyboard-response","91","262016","0.0-66.0-1.0","F412D557B7CF4A0F99E30DA5B4E34E4A","F412D557B7CF4A0F99E30DA5B4E34E4A","68733843-38a2-434b-a2d9-655482f9bae5","bea99957-1862-4ad8-9558-57b91e42ce64","{""participantId"":""F412D557B7CF4A0F99E30DA5B4E34E4A"",""assignmentId"":""68733843-38a2-434b-a2d9-655482f9bae5"",""projectId"":""bea99957-1862-4ad8-9558-57b91e42ce64""}","https://test12345.live/?participantId=F412D557B7CF4A0F99E30DA5B4E34E4A&assignmentId=68733843-38a2-434b-a2d9-655482f9bae5&projectId=bea99957-1862-4ad8-9558-57b91e42ce64","","null","<div style=""display: flex; justify-content: center; align-items: center;"">
                    <img src=""images/causal/causal_series_15/causal_series_15_b.jpg"" style=""width: 300px; height: 300px;"" />
                  </div>","null","",""
"","","","","","html-keyboard-response","92","265031","0.0-66.0-2.0","F412D557B7CF4A0F99E30DA5B4E34E4A","F412D557B7CF4A0F99E30DA5B4E34E4A","68733843-38a2-434b-a2d9-655482f9bae5","bea99957-1862-4ad8-9558-57b91e42ce64","{""participantId"":""F412D557B7CF4A0F99E30DA5B4E34E4A"",""assignmentId"":""68733843-38a2-434b-a2d9-655482f9bae5"",""projectId"":""bea99957-1862-4ad8-9558-57b91e42ce64""}","https://test12345.live/?participantId=F412D557B7CF4A0F99E30DA5B4E34E4A&assignmentId=68733843-38a2-434b-a2d9-655482f9bae5&projectId=bea99957-1862-4ad8-9558-57b91e42ce64","","null","<div style=""display: flex; justify-content: center; align-items: center;"">
                    <img src=""images/causal/causal_series_15/causal_series_15_c.jpg"" style=""width: 300px; height: 300px;"" />
                  </div>","null","",""
"","","","","","html-keyboard-response","93","268234","0.0-66.0-3.0","F412D557B7CF4A0F99E30DA5B4E34E4A","F412D557B7CF4A0F99E30DA5B4E34E4A","68733843-38a2-434b-a2d9-655482f9bae5","bea99957-1862-4ad8-9558-57b91e42ce64","{""participantId"":""F412D557B7CF4A0F99E30DA5B4E34E4A"",""assignmentId"":""68733843-38a2-434b-a2d9-655482f9bae5"",""projectId"":""bea99957-1862-4ad8-9558-57b91e42ce64""}","https://test12345.live/?participantId=F412D557B7CF4A0F99E30DA5B4E34E4A&assignmentId=68733843-38a2-434b-a2d9-655482f9bae5&projectId=bea99957-1862-4ad8-9558-57b91e42ce64","","null","<div style=""display: flex; justify-content: center; align-items: center;"">
                    <img src=""images/causal/causal_series_15/causal_series_15_d.jpg"" style=""width: 300px; height: 300px;"" />
                  </div>","null","",""
"","","","","","html-button-response","94","269263","0.0-68.0","F412D557B7CF4A0F99E30DA5B4E34E4A","F412D557B7CF4A0F99E30DA5B4E34E4A","68733843-38a2-434b-a2d9-655482f9bae5","bea99957-1862-4ad8-9558-57b91e42ce64","{""participantId"":""F412D557B7CF4A0F99E30DA5B4E34E4A"",""assignmentId"":""68733843-38a2-434b-a2d9-655482f9bae5"",""projectId"":""bea99957-1862-4ad8-9558-57b91e42ce64""}","https://test12345.live/?participantId=F412D557B7CF4A0F99E30DA5B4E34E4A&assignmentId=68733843-38a2-434b-a2d9-655482f9bae5&projectId=bea99957-1862-4ad8-9558-57b91e42ce64","","1028","Was there a person in the picture?","0","",""
"","","","","","survey-likert","95","270823","0.0-69.0","F412D557B7CF4A0F99E30DA5B4E34E4A","F412D557B7CF4A0F99E30DA5B4E34E4A","68733843-38a2-434b-a2d9-655482f9bae5","bea99957-1862-4ad8-9558-57b91e42ce64","{""participantId"":""F412D557B7CF4A0F99E30DA5B4E34E4A"",""assignmentId"":""68733843-38a2-434b-a2d9-655482f9bae5"",""projectId"":""bea99957-1862-4ad8-9558-57b91e42ce64""}","https://test12345.live/?participantId=F412D557B7CF4A0F99E30DA5B4E34E4A&assignmentId=68733843-38a2-434b-a2d9-655482f9bae5&projectId=bea99957-1862-4ad8-9558-57b91e42ce64","","1560","","{""Q0"":1}","","[0]"
"","","","","","html-button-response","96","271815","0.0-70.0","F412D557B7CF4A0F99E30DA5B4E34E4A","F412D557B7CF4A0F99E30DA5B4E34E4A","68733843-38a2-434b-a2d9-655482f9bae5","bea99957-1862-4ad8-9558-57b91e42ce64","{""participantId"":""F412D557B7CF4A0F99E30DA5B4E34E4A"",""assignmentId"":""68733843-38a2-434b-a2d9-655482f9bae5"",""projectId"":""bea99957-1862-4ad8-9558-57b91e42ce64""}","https://test12345.live/?participantId=F412D557B7CF4A0F99E30DA5B4E34E4A&assignmentId=68733843-38a2-434b-a2d9-655482f9bae5&projectId=bea99957-1862-4ad8-9558-57b91e42ce64","","991","
    <div style=""display: flex; justify-content: center; align-items: center;"">
      <img src=""images/red_deck_2.png"" style=""width: 300px; height: 300px; margin-right: 10px;"" />
      <img src=""images/blue_deck_1.png"" style=""width: 300px; height: 300px;"" />
    </div>","0","0",""
"","","","","","html-keyboard-response","97","274828","0.0-72.0-0.0","F412D557B7CF4A0F99E30DA5B4E34E4A","F412D557B7CF4A0F99E30DA5B4E34E4A","68733843-38a2-434b-a2d9-655482f9bae5","bea99957-1862-4ad8-9558-57b91e42ce64","{""participantId"":""F412D557B7CF4A0F99E30DA5B4E34E4A"",""assignmentId"":""68733843-38a2-434b-a2d9-655482f9bae5"",""projectId"":""bea99957-1862-4ad8-9558-57b91e42ce64""}","https://test12345.live/?participantId=F412D557B7CF4A0F99E30DA5B4E34E4A&assignmentId=68733843-38a2-434b-a2d9-655482f9bae5&projectId=bea99957-1862-4ad8-9558-57b91e42ce64","","null","<div style=""display: flex; justify-content: center; align-items: center;"">
                    <img src=""images/semantic/semantic_series_11/semantic_series_11_a.jpg"" style=""width: 300px; height: 300px;"" />
                  </div>","null","",""
"","","","","","html-keyboard-response","98","277842","0.0-72.0-1.0","F412D557B7CF4A0F99E30DA5B4E34E4A","F412D557B7CF4A0F99E30DA5B4E34E4A","68733843-38a2-434b-a2d9-655482f9bae5","bea99957-1862-4ad8-9558-57b91e42ce64","{""participantId"":""F412D557B7CF4A0F99E30DA5B4E34E4A"",""assignmentId"":""68733843-38a2-434b-a2d9-655482f9bae5"",""projectId"":""bea99957-1862-4ad8-9558-57b91e42ce64""}","https://test12345.live/?participantId=F412D557B7CF4A0F99E30DA5B4E34E4A&assignmentId=68733843-38a2-434b-a2d9-655482f9bae5&projectId=bea99957-1862-4ad8-9558-57b91e42ce64","","null","<div style=""display: flex; justify-content: center; align-items: center;"">
                    <img src=""images/semantic/semantic_series_11/semantic_series_11_b.jpg"" style=""width: 300px; height: 300px;"" />
                  </div>","null","",""
"","","","","","html-keyboard-response","99","280878","0.0-72.0-2.0","F412D557B7CF4A0F99E30DA5B4E34E4A","F412D557B7CF4A0F99E30DA5B4E34E4A","68733843-38a2-434b-a2d9-655482f9bae5","bea99957-1862-4ad8-9558-57b91e42ce64","{""participantId"":""F412D557B7CF4A0F99E30DA5B4E34E4A"",""assignmentId"":""68733843-38a2-434b-a2d9-655482f9bae5"",""projectId"":""bea99957-1862-4ad8-9558-57b91e42ce64""}","https://test12345.live/?participantId=F412D557B7CF4A0F99E30DA5B4E34E4A&assignmentId=68733843-38a2-434b-a2d9-655482f9bae5&projectId=bea99957-1862-4ad8-9558-57b91e42ce64","","null","<div style=""display: flex; justify-content: center; align-items: center;"">
                    <img src=""images/semantic/semantic_series_11/semantic_series_11_c.jpg"" style=""width: 300px; height: 300px;"" />
                  </div>","null","",""
"","","","","","html-keyboard-response","100","283893","0.0-72.0-3.0","F412D557B7CF4A0F99E30DA5B4E34E4A","F412D557B7CF4A0F99E30DA5B4E34E4A","68733843-38a2-434b-a2d9-655482f9bae5","bea99957-1862-4ad8-9558-57b91e42ce64","{""participantId"":""F412D557B7CF4A0F99E30DA5B4E34E4A"",""assignmentId"":""68733843-38a2-434b-a2d9-655482f9bae5"",""projectId"":""bea99957-1862-4ad8-9558-57b91e42ce64""}","https://test12345.live/?participantId=F412D557B7CF4A0F99E30DA5B4E34E4A&assignmentId=68733843-38a2-434b-a2d9-655482f9bae5&projectId=bea99957-1862-4ad8-9558-57b91e42ce64","","null","<div style=""display: flex; justify-content: center; align-items: center;"">
                    <img src=""images/semantic/semantic_series_11/semantic_series_11_d.jpg"" style=""width: 300px; height: 300px;"" />
                  </div>","null","",""
"","","","","","html-button-response","101","285055","0.0-73.0","F412D557B7CF4A0F99E30DA5B4E34E4A","F412D557B7CF4A0F99E30DA5B4E34E4A","68733843-38a2-434b-a2d9-655482f9bae5","bea99957-1862-4ad8-9558-57b91e42ce64","{""participantId"":""F412D557B7CF4A0F99E30DA5B4E34E4A"",""assignmentId"":""68733843-38a2-434b-a2d9-655482f9bae5"",""projectId"":""bea99957-1862-4ad8-9558-57b91e42ce64""}","https://test12345.live/?participantId=F412D557B7CF4A0F99E30DA5B4E34E4A&assignmentId=68733843-38a2-434b-a2d9-655482f9bae5&projectId=bea99957-1862-4ad8-9558-57b91e42ce64","","1160","Was there a person in the picture?","0","",""
"","","","","","survey-likert","102","287103","0.0-74.0","F412D557B7CF4A0F99E30DA5B4E34E4A","F412D557B7CF4A0F99E30DA5B4E34E4A","68733843-38a2-434b-a2d9-655482f9bae5","bea99957-1862-4ad8-9558-57b91e42ce64","{""participantId"":""F412D557B7CF4A0F99E30DA5B4E34E4A"",""assignmentId"":""68733843-38a2-434b-a2d9-655482f9bae5"",""projectId"":""bea99957-1862-4ad8-9558-57b91e42ce64""}","https://test12345.live/?participantId=F412D557B7CF4A0F99E30DA5B4E34E4A&assignmentId=68733843-38a2-434b-a2d9-655482f9bae5&projectId=bea99957-1862-4ad8-9558-57b91e42ce64","","2047","","{""Q0"":1}","","[0]"
"","","","","","html-button-response","103","287663","0.0-75.0","F412D557B7CF4A0F99E30DA5B4E34E4A","F412D557B7CF4A0F99E30DA5B4E34E4A","68733843-38a2-434b-a2d9-655482f9bae5","bea99957-1862-4ad8-9558-57b91e42ce64","{""participantId"":""F412D557B7CF4A0F99E30DA5B4E34E4A"",""assignmentId"":""68733843-38a2-434b-a2d9-655482f9bae5"",""projectId"":""bea99957-1862-4ad8-9558-57b91e42ce64""}","https://test12345.live/?participantId=F412D557B7CF4A0F99E30DA5B4E34E4A&assignmentId=68733843-38a2-434b-a2d9-655482f9bae5&projectId=bea99957-1862-4ad8-9558-57b91e42ce64","","559","
    <div style=""display: flex; justify-content: center; align-items: center;"">
      <img src=""images/red_deck_2.png"" style=""width: 300px; height: 300px; margin-right: 10px;"" />
      <img src=""images/blue_deck_1.png"" style=""width: 300px; height: 300px;"" />
    </div>","0","0",""
"","","","","","html-keyboard-response","104","290676","0.0-77.0-0.0","F412D557B7CF4A0F99E30DA5B4E34E4A","F412D557B7CF4A0F99E30DA5B4E34E4A","68733843-38a2-434b-a2d9-655482f9bae5","bea99957-1862-4ad8-9558-57b91e42ce64","{""participantId"":""F412D557B7CF4A0F99E30DA5B4E34E4A"",""assignmentId"":""68733843-38a2-434b-a2d9-655482f9bae5"",""projectId"":""bea99957-1862-4ad8-9558-57b91e42ce64""}","https://test12345.live/?participantId=F412D557B7CF4A0F99E30DA5B4E34E4A&assignmentId=68733843-38a2-434b-a2d9-655482f9bae5&projectId=bea99957-1862-4ad8-9558-57b91e42ce64","","null","<div style=""display: flex; justify-content: center; align-items: center;"">
                    <img src=""images/semantic/semantic_series_18/semantic_series_18_a.jpg"" style=""width: 300px; height: 300px;"" />
                  </div>","null","",""
"","","","","","html-keyboard-response","105","293686","0.0-77.0-1.0","F412D557B7CF4A0F99E30DA5B4E34E4A","F412D557B7CF4A0F99E30DA5B4E34E4A","68733843-38a2-434b-a2d9-655482f9bae5","bea99957-1862-4ad8-9558-57b91e42ce64","{""participantId"":""F412D557B7CF4A0F99E30DA5B4E34E4A"",""assignmentId"":""68733843-38a2-434b-a2d9-655482f9bae5"",""projectId"":""bea99957-1862-4ad8-9558-57b91e42ce64""}","https://test12345.live/?participantId=F412D557B7CF4A0F99E30DA5B4E34E4A&assignmentId=68733843-38a2-434b-a2d9-655482f9bae5&projectId=bea99957-1862-4ad8-9558-57b91e42ce64","","null","<div style=""display: flex; justify-content: center; align-items: center;"">
                    <img src=""images/semantic/semantic_series_18/semantic_series_18_b.jpg"" style=""width: 300px; height: 300px;"" />
                  </div>","null","",""
"","","","","","html-keyboard-response","106","296689","0.0-77.0-2.0","F412D557B7CF4A0F99E30DA5B4E34E4A","F412D557B7CF4A0F99E30DA5B4E34E4A","68733843-38a2-434b-a2d9-655482f9bae5","bea99957-1862-4ad8-9558-57b91e42ce64","{""participantId"":""F412D557B7CF4A0F99E30DA5B4E34E4A"",""assignmentId"":""68733843-38a2-434b-a2d9-655482f9bae5"",""projectId"":""bea99957-1862-4ad8-9558-57b91e42ce64""}","https://test12345.live/?participantId=F412D557B7CF4A0F99E30DA5B4E34E4A&assignmentId=68733843-38a2-434b-a2d9-655482f9bae5&projectId=bea99957-1862-4ad8-9558-57b91e42ce64","","null","<div style=""display: flex; justify-content: center; align-items: center;"">
                    <img src=""images/semantic/semantic_series_18/semantic_series_18_c.jpg"" style=""width: 300px; height: 300px;"" />
                  </div>","null","",""
"","","","","","html-keyboard-response","107","299705","0.0-77.0-3.0","F412D557B7CF4A0F99E30DA5B4E34E4A","F412D557B7CF4A0F99E30DA5B4E34E4A","68733843-38a2-434b-a2d9-655482f9bae5","bea99957-1862-4ad8-9558-57b91e42ce64","{""participantId"":""F412D557B7CF4A0F99E30DA5B4E34E4A"",""assignmentId"":""68733843-38a2-434b-a2d9-655482f9bae5"",""projectId"":""bea99957-1862-4ad8-9558-57b91e42ce64""}","https://test12345.live/?participantId=F412D557B7CF4A0F99E30DA5B4E34E4A&assignmentId=68733843-38a2-434b-a2d9-655482f9bae5&projectId=bea99957-1862-4ad8-9558-57b91e42ce64","","null","<div style=""display: flex; justify-content: center; align-items: center;"">
                    <img src=""images/semantic/semantic_series_18/semantic_series_18_d.jpg"" style=""width: 300px; height: 300px;"" />
                  </div>","null","",""
"","","","","","html-button-response","108","301734","0.0-78.0","F412D557B7CF4A0F99E30DA5B4E34E4A","F412D557B7CF4A0F99E30DA5B4E34E4A","68733843-38a2-434b-a2d9-655482f9bae5","bea99957-1862-4ad8-9558-57b91e42ce64","{""participantId"":""F412D557B7CF4A0F99E30DA5B4E34E4A"",""assignmentId"":""68733843-38a2-434b-a2d9-655482f9bae5"",""projectId"":""bea99957-1862-4ad8-9558-57b91e42ce64""}","https://test12345.live/?participantId=F412D557B7CF4A0F99E30DA5B4E34E4A&assignmentId=68733843-38a2-434b-a2d9-655482f9bae5&projectId=bea99957-1862-4ad8-9558-57b91e42ce64","","2028","Was there a person in the picture?","1","",""
"","","","","","survey-likert","109","304318","0.0-79.0","F412D557B7CF4A0F99E30DA5B4E34E4A","F412D557B7CF4A0F99E30DA5B4E34E4A","68733843-38a2-434b-a2d9-655482f9bae5","bea99957-1862-4ad8-9558-57b91e42ce64","{""participantId"":""F412D557B7CF4A0F99E30DA5B4E34E4A"",""assignmentId"":""68733843-38a2-434b-a2d9-655482f9bae5"",""projectId"":""bea99957-1862-4ad8-9558-57b91e42ce64""}","https://test12345.live/?participantId=F412D557B7CF4A0F99E30DA5B4E34E4A&assignmentId=68733843-38a2-434b-a2d9-655482f9bae5&projectId=bea99957-1862-4ad8-9558-57b91e42ce64","","2583","","{""Q0"":2}","","[0]"
"","","","","","html-button-response","110","305206","0.0-80.0","F412D557B7CF4A0F99E30DA5B4E34E4A","F412D557B7CF4A0F99E30DA5B4E34E4A","68733843-38a2-434b-a2d9-655482f9bae5","bea99957-1862-4ad8-9558-57b91e42ce64","{""participantId"":""F412D557B7CF4A0F99E30DA5B4E34E4A"",""assignmentId"":""68733843-38a2-434b-a2d9-655482f9bae5"",""projectId"":""bea99957-1862-4ad8-9558-57b91e42ce64""}","https://test12345.live/?participantId=F412D557B7CF4A0F99E30DA5B4E34E4A&assignmentId=68733843-38a2-434b-a2d9-655482f9bae5&projectId=bea99957-1862-4ad8-9558-57b91e42ce64","","886","
    <div style=""display: flex; justify-content: center; align-items: center;"">
      <img src=""images/red_deck_2.png"" style=""width: 300px; height: 300px; margin-right: 10px;"" />
      <img src=""images/blue_deck_1.png"" style=""width: 300px; height: 300px;"" />
    </div>","1","1",""
"","","","","","html-keyboard-response","111","308208","0.0-81.0-0.0","F412D557B7CF4A0F99E30DA5B4E34E4A","F412D557B7CF4A0F99E30DA5B4E34E4A","68733843-38a2-434b-a2d9-655482f9bae5","bea99957-1862-4ad8-9558-57b91e42ce64","{""participantId"":""F412D557B7CF4A0F99E30DA5B4E34E4A"",""assignmentId"":""68733843-38a2-434b-a2d9-655482f9bae5"",""projectId"":""bea99957-1862-4ad8-9558-57b91e42ce64""}","https://test12345.live/?participantId=F412D557B7CF4A0F99E30DA5B4E34E4A&assignmentId=68733843-38a2-434b-a2d9-655482f9bae5&projectId=bea99957-1862-4ad8-9558-57b91e42ce64","","null","<div style=""display: flex; justify-content: center; align-items: center;"">
                    <img src=""images/causal/causal_series_12/causal_series_12_a.jpg"" style=""width: 300px; height: 300px;"" />
                  </div>","null","",""
"","","","","","html-keyboard-response","112","311214","0.0-81.0-1.0","F412D557B7CF4A0F99E30DA5B4E34E4A","F412D557B7CF4A0F99E30DA5B4E34E4A","68733843-38a2-434b-a2d9-655482f9bae5","bea99957-1862-4ad8-9558-57b91e42ce64","{""participantId"":""F412D557B7CF4A0F99E30DA5B4E34E4A"",""assignmentId"":""68733843-38a2-434b-a2d9-655482f9bae5"",""projectId"":""bea99957-1862-4ad8-9558-57b91e42ce64""}","https://test12345.live/?participantId=F412D557B7CF4A0F99E30DA5B4E34E4A&assignmentId=68733843-38a2-434b-a2d9-655482f9bae5&projectId=bea99957-1862-4ad8-9558-57b91e42ce64","","null","<div style=""display: flex; justify-content: center; align-items: center;"">
                    <img src=""images/causal/causal_series_12/causal_series_12_b.jpg"" style=""width: 300px; height: 300px;"" />
                  </div>","null","",""
"","","","","","html-keyboard-response","113","314225","0.0-81.0-2.0","F412D557B7CF4A0F99E30DA5B4E34E4A","F412D557B7CF4A0F99E30DA5B4E34E4A","68733843-38a2-434b-a2d9-655482f9bae5","bea99957-1862-4ad8-9558-57b91e42ce64","{""participantId"":""F412D557B7CF4A0F99E30DA5B4E34E4A"",""assignmentId"":""68733843-38a2-434b-a2d9-655482f9bae5"",""projectId"":""bea99957-1862-4ad8-9558-57b91e42ce64""}","https://test12345.live/?participantId=F412D557B7CF4A0F99E30DA5B4E34E4A&assignmentId=68733843-38a2-434b-a2d9-655482f9bae5&projectId=bea99957-1862-4ad8-9558-57b91e42ce64","","null","<div style=""display: flex; justify-content: center; align-items: center;"">
                    <img src=""images/causal/causal_series_12/causal_series_12_c.jpg"" style=""width: 300px; height: 300px;"" />
                  </div>","null","",""
"","","","","","html-keyboard-response","114","317232","0.0-81.0-3.0","F412D557B7CF4A0F99E30DA5B4E34E4A","F412D557B7CF4A0F99E30DA5B4E34E4A","68733843-38a2-434b-a2d9-655482f9bae5","bea99957-1862-4ad8-9558-57b91e42ce64","{""participantId"":""F412D557B7CF4A0F99E30DA5B4E34E4A"",""assignmentId"":""68733843-38a2-434b-a2d9-655482f9bae5"",""projectId"":""bea99957-1862-4ad8-9558-57b91e42ce64""}","https://test12345.live/?participantId=F412D557B7CF4A0F99E30DA5B4E34E4A&assignmentId=68733843-38a2-434b-a2d9-655482f9bae5&projectId=bea99957-1862-4ad8-9558-57b91e42ce64","","null","<div style=""display: flex; justify-content: center; align-items: center;"">
                    <img src=""images/causal/causal_series_12/causal_series_12_d.jpg"" style=""width: 300px; height: 300px;"" />
                  </div>","null","",""
"","","","","","html-button-response","115","318334","0.0-83.0","F412D557B7CF4A0F99E30DA5B4E34E4A","F412D557B7CF4A0F99E30DA5B4E34E4A","68733843-38a2-434b-a2d9-655482f9bae5","bea99957-1862-4ad8-9558-57b91e42ce64","{""participantId"":""F412D557B7CF4A0F99E30DA5B4E34E4A"",""assignmentId"":""68733843-38a2-434b-a2d9-655482f9bae5"",""projectId"":""bea99957-1862-4ad8-9558-57b91e42ce64""}","https://test12345.live/?participantId=F412D557B7CF4A0F99E30DA5B4E34E4A&assignmentId=68733843-38a2-434b-a2d9-655482f9bae5&projectId=bea99957-1862-4ad8-9558-57b91e42ce64","","1101","Was there a person in the picture?","1","",""
"","","","","","survey-likert","116","319614","0.0-84.0","F412D557B7CF4A0F99E30DA5B4E34E4A","F412D557B7CF4A0F99E30DA5B4E34E4A","68733843-38a2-434b-a2d9-655482f9bae5","bea99957-1862-4ad8-9558-57b91e42ce64","{""participantId"":""F412D557B7CF4A0F99E30DA5B4E34E4A"",""assignmentId"":""68733843-38a2-434b-a2d9-655482f9bae5"",""projectId"":""bea99957-1862-4ad8-9558-57b91e42ce64""}","https://test12345.live/?participantId=F412D557B7CF4A0F99E30DA5B4E34E4A&assignmentId=68733843-38a2-434b-a2d9-655482f9bae5&projectId=bea99957-1862-4ad8-9558-57b91e42ce64","","1279","","{""Q0"":3}","","[0]"
"","","","","","html-button-response","117","320254","0.0-85.0","F412D557B7CF4A0F99E30DA5B4E34E4A","F412D557B7CF4A0F99E30DA5B4E34E4A","68733843-38a2-434b-a2d9-655482f9bae5","bea99957-1862-4ad8-9558-57b91e42ce64","{""participantId"":""F412D557B7CF4A0F99E30DA5B4E34E4A"",""assignmentId"":""68733843-38a2-434b-a2d9-655482f9bae5"",""projectId"":""bea99957-1862-4ad8-9558-57b91e42ce64""}","https://test12345.live/?participantId=F412D557B7CF4A0F99E30DA5B4E34E4A&assignmentId=68733843-38a2-434b-a2d9-655482f9bae5&projectId=bea99957-1862-4ad8-9558-57b91e42ce64","","639","
    <div style=""display: flex; justify-content: center; align-items: center;"">
      <img src=""images/red_deck_2.png"" style=""width: 300px; height: 300px; margin-right: 10px;"" />
      <img src=""images/blue_deck_1.png"" style=""width: 300px; height: 300px;"" />
    </div>","0","0",""
"","","","","","html-keyboard-response","118","323297","0.0-87.0-0.0","F412D557B7CF4A0F99E30DA5B4E34E4A","F412D557B7CF4A0F99E30DA5B4E34E4A","68733843-38a2-434b-a2d9-655482f9bae5","bea99957-1862-4ad8-9558-57b91e42ce64","{""participantId"":""F412D557B7CF4A0F99E30DA5B4E34E4A"",""assignmentId"":""68733843-38a2-434b-a2d9-655482f9bae5"",""projectId"":""bea99957-1862-4ad8-9558-57b91e42ce64""}","https://test12345.live/?participantId=F412D557B7CF4A0F99E30DA5B4E34E4A&assignmentId=68733843-38a2-434b-a2d9-655482f9bae5&projectId=bea99957-1862-4ad8-9558-57b91e42ce64","","null","<div style=""display: flex; justify-content: center; align-items: center;"">
                    <img src=""images/semantic/semantic_series_14/semantic_series_14_a.jpg"" style=""width: 300px; height: 300px;"" />
                  </div>","null","",""
"","","","","","html-keyboard-response","119","326420","0.0-87.0-1.0","F412D557B7CF4A0F99E30DA5B4E34E4A","F412D557B7CF4A0F99E30DA5B4E34E4A","68733843-38a2-434b-a2d9-655482f9bae5","bea99957-1862-4ad8-9558-57b91e42ce64","{""participantId"":""F412D557B7CF4A0F99E30DA5B4E34E4A"",""assignmentId"":""68733843-38a2-434b-a2d9-655482f9bae5"",""projectId"":""bea99957-1862-4ad8-9558-57b91e42ce64""}","https://test12345.live/?participantId=F412D557B7CF4A0F99E30DA5B4E34E4A&assignmentId=68733843-38a2-434b-a2d9-655482f9bae5&projectId=bea99957-1862-4ad8-9558-57b91e42ce64","","null","<div style=""display: flex; justify-content: center; align-items: center;"">
                    <img src=""images/semantic/semantic_series_14/semantic_series_14_b.jpg"" style=""width: 300px; height: 300px;"" />
                  </div>","null","",""
"","","","","","html-keyboard-response","120","329426","0.0-87.0-2.0","F412D557B7CF4A0F99E30DA5B4E34E4A","F412D557B7CF4A0F99E30DA5B4E34E4A","68733843-38a2-434b-a2d9-655482f9bae5","bea99957-1862-4ad8-9558-57b91e42ce64","{""participantId"":""F412D557B7CF4A0F99E30DA5B4E34E4A"",""assignmentId"":""68733843-38a2-434b-a2d9-655482f9bae5"",""projectId"":""bea99957-1862-4ad8-9558-57b91e42ce64""}","https://test12345.live/?participantId=F412D557B7CF4A0F99E30DA5B4E34E4A&assignmentId=68733843-38a2-434b-a2d9-655482f9bae5&projectId=bea99957-1862-4ad8-9558-57b91e42ce64","","null","<div style=""display: flex; justify-content: center; align-items: center;"">
                    <img src=""images/semantic/semantic_series_14/semantic_series_14_c.jpg"" style=""width: 300px; height: 300px;"" />
                  </div>","null","",""
"","","","","","html-keyboard-response","121","332471","0.0-87.0-3.0","F412D557B7CF4A0F99E30DA5B4E34E4A","F412D557B7CF4A0F99E30DA5B4E34E4A","68733843-38a2-434b-a2d9-655482f9bae5","bea99957-1862-4ad8-9558-57b91e42ce64","{""participantId"":""F412D557B7CF4A0F99E30DA5B4E34E4A"",""assignmentId"":""68733843-38a2-434b-a2d9-655482f9bae5"",""projectId"":""bea99957-1862-4ad8-9558-57b91e42ce64""}","https://test12345.live/?participantId=F412D557B7CF4A0F99E30DA5B4E34E4A&assignmentId=68733843-38a2-434b-a2d9-655482f9bae5&projectId=bea99957-1862-4ad8-9558-57b91e42ce64","","null","<div style=""display: flex; justify-content: center; align-items: center;"">
                    <img src=""images/semantic/semantic_series_14/semantic_series_14_d.jpg"" style=""width: 300px; height: 300px;"" />
                  </div>","null","",""
"","","","","","html-button-response","122","333413","0.0-88.0","F412D557B7CF4A0F99E30DA5B4E34E4A","F412D557B7CF4A0F99E30DA5B4E34E4A","68733843-38a2-434b-a2d9-655482f9bae5","bea99957-1862-4ad8-9558-57b91e42ce64","{""participantId"":""F412D557B7CF4A0F99E30DA5B4E34E4A"",""assignmentId"":""68733843-38a2-434b-a2d9-655482f9bae5"",""projectId"":""bea99957-1862-4ad8-9558-57b91e42ce64""}","https://test12345.live/?participantId=F412D557B7CF4A0F99E30DA5B4E34E4A&assignmentId=68733843-38a2-434b-a2d9-655482f9bae5&projectId=bea99957-1862-4ad8-9558-57b91e42ce64","","942","Was there a person in the picture?","0","",""
"","","","","","survey-likert","123","335989","0.0-89.0","F412D557B7CF4A0F99E30DA5B4E34E4A","F412D557B7CF4A0F99E30DA5B4E34E4A","68733843-38a2-434b-a2d9-655482f9bae5","bea99957-1862-4ad8-9558-57b91e42ce64","{""participantId"":""F412D557B7CF4A0F99E30DA5B4E34E4A"",""assignmentId"":""68733843-38a2-434b-a2d9-655482f9bae5"",""projectId"":""bea99957-1862-4ad8-9558-57b91e42ce64""}","https://test12345.live/?participantId=F412D557B7CF4A0F99E30DA5B4E34E4A&assignmentId=68733843-38a2-434b-a2d9-655482f9bae5&projectId=bea99957-1862-4ad8-9558-57b91e42ce64","","2576","","{""Q0"":2}","","[0]"
"","","","","","html-button-response","124","336741","0.0-90.0","F412D557B7CF4A0F99E30DA5B4E34E4A","F412D557B7CF4A0F99E30DA5B4E34E4A","68733843-38a2-434b-a2d9-655482f9bae5","bea99957-1862-4ad8-9558-57b91e42ce64","{""participantId"":""F412D557B7CF4A0F99E30DA5B4E34E4A"",""assignmentId"":""68733843-38a2-434b-a2d9-655482f9bae5"",""projectId"":""bea99957-1862-4ad8-9558-57b91e42ce64""}","https://test12345.live/?participantId=F412D557B7CF4A0F99E30DA5B4E34E4A&assignmentId=68733843-38a2-434b-a2d9-655482f9bae5&projectId=bea99957-1862-4ad8-9558-57b91e42ce64","","751","
    <div style=""display: flex; justify-content: center; align-items: center;"">
      <img src=""images/red_deck_2.png"" style=""width: 300px; height: 300px; margin-right: 10px;"" />
      <img src=""images/blue_deck_1.png"" style=""width: 300px; height: 300px;"" />
    </div>","0","0",""
"","","","","","html-keyboard-response","125","339859","0.0-92.0-0.0","F412D557B7CF4A0F99E30DA5B4E34E4A","F412D557B7CF4A0F99E30DA5B4E34E4A","68733843-38a2-434b-a2d9-655482f9bae5","bea99957-1862-4ad8-9558-57b91e42ce64","{""participantId"":""F412D557B7CF4A0F99E30DA5B4E34E4A"",""assignmentId"":""68733843-38a2-434b-a2d9-655482f9bae5"",""projectId"":""bea99957-1862-4ad8-9558-57b91e42ce64""}","https://test12345.live/?participantId=F412D557B7CF4A0F99E30DA5B4E34E4A&assignmentId=68733843-38a2-434b-a2d9-655482f9bae5&projectId=bea99957-1862-4ad8-9558-57b91e42ce64","","null","<div style=""display: flex; justify-content: center; align-items: center;"">
                    <img src=""images/semantic/semantic_series_8/semantic_series_8_a.jpg"" style=""width: 300px; height: 300px;"" />
                  </div>","null","",""
"","","","","","html-keyboard-response","126","342867","0.0-92.0-1.0","F412D557B7CF4A0F99E30DA5B4E34E4A","F412D557B7CF4A0F99E30DA5B4E34E4A","68733843-38a2-434b-a2d9-655482f9bae5","bea99957-1862-4ad8-9558-57b91e42ce64","{""participantId"":""F412D557B7CF4A0F99E30DA5B4E34E4A"",""assignmentId"":""68733843-38a2-434b-a2d9-655482f9bae5"",""projectId"":""bea99957-1862-4ad8-9558-57b91e42ce64""}","https://test12345.live/?participantId=F412D557B7CF4A0F99E30DA5B4E34E4A&assignmentId=68733843-38a2-434b-a2d9-655482f9bae5&projectId=bea99957-1862-4ad8-9558-57b91e42ce64","","null","<div style=""display: flex; justify-content: center; align-items: center;"">
                    <img src=""images/semantic/semantic_series_8/semantic_series_8_b.jpg"" style=""width: 300px; height: 300px;"" />
                  </div>","null","",""
"","","","","","html-keyboard-response","127","345926","0.0-92.0-2.0","F412D557B7CF4A0F99E30DA5B4E34E4A","F412D557B7CF4A0F99E30DA5B4E34E4A","68733843-38a2-434b-a2d9-655482f9bae5","bea99957-1862-4ad8-9558-57b91e42ce64","{""participantId"":""F412D557B7CF4A0F99E30DA5B4E34E4A"",""assignmentId"":""68733843-38a2-434b-a2d9-655482f9bae5"",""projectId"":""bea99957-1862-4ad8-9558-57b91e42ce64""}","https://test12345.live/?participantId=F412D557B7CF4A0F99E30DA5B4E34E4A&assignmentId=68733843-38a2-434b-a2d9-655482f9bae5&projectId=bea99957-1862-4ad8-9558-57b91e42ce64","","null","<div style=""display: flex; justify-content: center; align-items: center;"">
                    <img src=""images/semantic/semantic_series_8/semantic_series_8_c.jpg"" style=""width: 300px; height: 300px;"" />
                  </div>","null","",""
"","","","","","html-keyboard-response","128","348972","0.0-92.0-3.0","F412D557B7CF4A0F99E30DA5B4E34E4A","F412D557B7CF4A0F99E30DA5B4E34E4A","68733843-38a2-434b-a2d9-655482f9bae5","bea99957-1862-4ad8-9558-57b91e42ce64","{""participantId"":""F412D557B7CF4A0F99E30DA5B4E34E4A"",""assignmentId"":""68733843-38a2-434b-a2d9-655482f9bae5"",""projectId"":""bea99957-1862-4ad8-9558-57b91e42ce64""}","https://test12345.live/?participantId=F412D557B7CF4A0F99E30DA5B4E34E4A&assignmentId=68733843-38a2-434b-a2d9-655482f9bae5&projectId=bea99957-1862-4ad8-9558-57b91e42ce64","","null","<div style=""display: flex; justify-content: center; align-items: center;"">
                    <img src=""images/semantic/semantic_series_8/semantic_series_8_d.jpg"" style=""width: 300px; height: 300px;"" />
                  </div>","null","",""
"","","","","","html-button-response","129","349981","0.0-93.0","F412D557B7CF4A0F99E30DA5B4E34E4A","F412D557B7CF4A0F99E30DA5B4E34E4A","68733843-38a2-434b-a2d9-655482f9bae5","bea99957-1862-4ad8-9558-57b91e42ce64","{""participantId"":""F412D557B7CF4A0F99E30DA5B4E34E4A"",""assignmentId"":""68733843-38a2-434b-a2d9-655482f9bae5"",""projectId"":""bea99957-1862-4ad8-9558-57b91e42ce64""}","https://test12345.live/?participantId=F412D557B7CF4A0F99E30DA5B4E34E4A&assignmentId=68733843-38a2-434b-a2d9-655482f9bae5&projectId=bea99957-1862-4ad8-9558-57b91e42ce64","","1009","Was there a person in the picture?","1","",""
"","","","","","survey-likert","130","351286","0.0-94.0","F412D557B7CF4A0F99E30DA5B4E34E4A","F412D557B7CF4A0F99E30DA5B4E34E4A","68733843-38a2-434b-a2d9-655482f9bae5","bea99957-1862-4ad8-9558-57b91e42ce64","{""participantId"":""F412D557B7CF4A0F99E30DA5B4E34E4A"",""assignmentId"":""68733843-38a2-434b-a2d9-655482f9bae5"",""projectId"":""bea99957-1862-4ad8-9558-57b91e42ce64""}","https://test12345.live/?participantId=F412D557B7CF4A0F99E30DA5B4E34E4A&assignmentId=68733843-38a2-434b-a2d9-655482f9bae5&projectId=bea99957-1862-4ad8-9558-57b91e42ce64","","1304","","{""Q0"":2}","","[0]"
"","","","","","survey-text","131","374477","0.0-95.0","F412D557B7CF4A0F99E30DA5B4E34E4A","F412D557B7CF4A0F99E30DA5B4E34E4A","68733843-38a2-434b-a2d9-655482f9bae5","bea99957-1862-4ad8-9558-57b91e42ce64","{""participantId"":""F412D557B7CF4A0F99E30DA5B4E34E4A"",""assignmentId"":""68733843-38a2-434b-a2d9-655482f9bae5"",""projectId"":""bea99957-1862-4ad8-9558-57b91e42ce64""}","https://test12345.live/?participantId=F412D557B7CF4A0F99E30DA5B4E34E4A&assignmentId=68733843-38a2-434b-a2d9-655482f9bae5&projectId=bea99957-1862-4ad8-9558-57b91e42ce64","","23189","","{""Q0"":""The left side was red, the right side was blue""}","",""
