"success","timeout","failed_images","failed_audio","failed_video","trial_type","trial_index","time_elapsed","internal_node_id","subject_id","study_id","session_id","view_history","rt","stimulus","response","choice"
"true","false","[]","[]","[]","preload","0","19997","0.0-0.0","8A7803DC27D84078A2E22EAF8DA04494","633d8011-0c3e-447b-a2a7-4a6e4d67dfdc","60874837-17fe-43d8-ba5e-75a805c652dd","","","","",""
"","","","","","instructions","1","25883","0.0-1.0","8A7803DC27D84078A2E22EAF8DA04494","633d8011-0c3e-447b-a2a7-4a6e4d67dfdc","60874837-17fe-43d8-ba5e-75a805c652dd","[{""page_index"":0,""viewing_time"":5886}]","5886","","",""
"","","","","","instructions","2","104775","0.0-2.0","8A7803DC27D84078A2E22EAF8DA04494","633d8011-0c3e-447b-a2a7-4a6e4d67dfdc","60874837-17fe-43d8-ba5e-75a805c652dd","[{""page_index"":0,""viewing_time"":78891}]","78892","","",""
"true","","","","","fullscreen","3","107421","0.0-3.0","8A7803DC27D84078A2E22EAF8DA04494","633d8011-0c3e-447b-a2a7-4a6e4d67dfdc","60874837-17fe-43d8-ba5e-75a805c652dd","","1636","","",""
"","","","","","instructions","4","602210","0.0-4.0","8A7803DC27D84078A2E22EAF8DA04494","633d8011-0c3e-447b-a2a7-4a6e4d67dfdc","60874837-17fe-43d8-ba5e-75a805c652dd","[{""page_index"":0,""viewing_time"":494788}]","494788","","",""
"","","","","","html-keyboard-response","5","605222","0.0-5.0","8A7803DC27D84078A2E22EAF8DA04494","633d8011-0c3e-447b-a2a7-4a6e4d67dfdc","60874837-17fe-43d8-ba5e-75a805c652dd","","null","<div style=""display: flex; justify-content: center; align-items: center;"">
                <img src=""images/causal/causal_series_7/causal_series_7_a.jpg"" style=""width: 300px; height: 300px;"" />
              </div>","null",""
"","","","","","html-keyboard-response","6","608231","0.0-6.0","8A7803DC27D84078A2E22EAF8DA04494","633d8011-0c3e-447b-a2a7-4a6e4d67dfdc","60874837-17fe-43d8-ba5e-75a805c652dd","","null","<div style=""display: flex; justify-content: center; align-items: center;"">
                <img src=""images/causal/causal_series_7/causal_series_7_b.jpg"" style=""width: 300px; height: 300px;"" />
              </div>","null",""
"","","","","","html-keyboard-response","7","611246","0.0-7.0","8A7803DC27D84078A2E22EAF8DA04494","633d8011-0c3e-447b-a2a7-4a6e4d67dfdc","60874837-17fe-43d8-ba5e-75a805c652dd","","null","<div style=""display: flex; justify-content: center; align-items: center;"">
                <img src=""images/causal/causal_series_7/causal_series_7_c.jpg"" style=""width: 300px; height: 300px;"" />
              </div>","null",""
"","","","","","html-button-response","8","614809","0.0-8.0","8A7803DC27D84078A2E22EAF8DA04494","633d8011-0c3e-447b-a2a7-4a6e4d67dfdc","60874837-17fe-43d8-ba5e-75a805c652dd","","3561","
    <div style=""display: flex; justify-content: center; align-items: center;"">
      <img src=""images/red_deck_2.png"" style=""width: 300px; height: 300px; margin-right: 10px;"" />
      <img src=""images/blue_deck_1.png"" style=""width: 300px; height: 300px;"" />
    </div>","0","0"
"","","","","","html-keyboard-response","9","617818","0.0-9.0-0.0-0.0","8A7803DC27D84078A2E22EAF8DA04494","633d8011-0c3e-447b-a2a7-4a6e4d67dfdc","60874837-17fe-43d8-ba5e-75a805c652dd","","null","<div style=""display: flex; justify-content: center; align-items: center;"">
                <img src=""images/causal/causal_series_7/causal_series_7_d.jpg"" style=""width: 300px; height: 300px;"" />
              </div>","null",""
"","","","","","html-keyboard-response","10","620823","0.0-10.0","8A7803DC27D84078A2E22EAF8DA04494","633d8011-0c3e-447b-a2a7-4a6e4d67dfdc","60874837-17fe-43d8-ba5e-75a805c652dd","","null","<div style=""display: flex; justify-content: center; align-items: center;"">
                <img src=""images/other/blank.jpg"" style=""width: 300px; height: 300px;"" />
              </div>","null",""
"","","","","","html-keyboard-response","11","623839","0.0-11.0","8A7803DC27D84078A2E22EAF8DA04494","633d8011-0c3e-447b-a2a7-4a6e4d67dfdc","60874837-17fe-43d8-ba5e-75a805c652dd","","null","<div style=""display: flex; justify-content: center; align-items: center;"">
                <img src=""images/causal/causal_series_4/causal_series_4_a.jpg"" style=""width: 300px; height: 300px;"" />
              </div>","null",""
"","","","","","html-keyboard-response","12","626854","0.0-12.0","8A7803DC27D84078A2E22EAF8DA04494","633d8011-0c3e-447b-a2a7-4a6e4d67dfdc","60874837-17fe-43d8-ba5e-75a805c652dd","","null","<div style=""display: flex; justify-content: center; align-items: center;"">
                <img src=""images/causal/causal_series_4/causal_series_4_b.jpg"" style=""width: 300px; height: 300px;"" />
              </div>","null",""
"","","","","","html-keyboard-response","13","629863","0.0-13.0","8A7803DC27D84078A2E22EAF8DA04494","633d8011-0c3e-447b-a2a7-4a6e4d67dfdc","60874837-17fe-43d8-ba5e-75a805c652dd","","null","<div style=""display: flex; justify-content: center; align-items: center;"">
                <img src=""images/causal/causal_series_4/causal_series_4_c.jpg"" style=""width: 300px; height: 300px;"" />
              </div>","null",""
"","","","","","html-button-response","14","632107","0.0-14.0","8A7803DC27D84078A2E22EAF8DA04494","633d8011-0c3e-447b-a2a7-4a6e4d67dfdc","60874837-17fe-43d8-ba5e-75a805c652dd","","2244","
    <div style=""display: flex; justify-content: center; align-items: center;"">
      <img src=""images/red_deck_2.png"" style=""width: 300px; height: 300px; margin-right: 10px;"" />
      <img src=""images/blue_deck_1.png"" style=""width: 300px; height: 300px;"" />
    </div>","0","0"
"","","","","","html-keyboard-response","15","635118","0.0-15.0-0.0-0.0","8A7803DC27D84078A2E22EAF8DA04494","633d8011-0c3e-447b-a2a7-4a6e4d67dfdc","60874837-17fe-43d8-ba5e-75a805c652dd","","null","<div style=""display: flex; justify-content: center; align-items: center;"">
                <img src=""images/causal/causal_series_4/causal_series_4_d.jpg"" style=""width: 300px; height: 300px;"" />
              </div>","null",""
"","","","","","html-keyboard-response","16","638135","0.0-16.0","8A7803DC27D84078A2E22EAF8DA04494","633d8011-0c3e-447b-a2a7-4a6e4d67dfdc","60874837-17fe-43d8-ba5e-75a805c652dd","","null","<div style=""display: flex; justify-content: center; align-items: center;"">
                <img src=""images/other/blank.jpg"" style=""width: 300px; height: 300px;"" />
              </div>","null",""
"","","","","","html-keyboard-response","17","641145","0.0-17.0","8A7803DC27D84078A2E22EAF8DA04494","633d8011-0c3e-447b-a2a7-4a6e4d67dfdc","60874837-17fe-43d8-ba5e-75a805c652dd","","null","<div style=""display: flex; justify-content: center; align-items: center;"">
                <img src=""images/causal/causal_series_18/causal_series_18_a.jpg"" style=""width: 300px; height: 300px;"" />
              </div>","null",""
"","","","","","html-keyboard-response","18","644158","0.0-18.0","8A7803DC27D84078A2E22EAF8DA04494","633d8011-0c3e-447b-a2a7-4a6e4d67dfdc","60874837-17fe-43d8-ba5e-75a805c652dd","","null","<div style=""display: flex; justify-content: center; align-items: center;"">
                <img src=""images/causal/causal_series_18/causal_series_18_b.jpg"" style=""width: 300px; height: 300px;"" />
              </div>","null",""
"","","","","","html-keyboard-response","19","647160","0.0-19.0","8A7803DC27D84078A2E22EAF8DA04494","633d8011-0c3e-447b-a2a7-4a6e4d67dfdc","60874837-17fe-43d8-ba5e-75a805c652dd","","null","<div style=""display: flex; justify-content: center; align-items: center;"">
                <img src=""images/causal/causal_series_18/causal_series_18_c.jpg"" style=""width: 300px; height: 300px;"" />
              </div>","null",""
"","","","","","html-button-response","20","649009","0.0-20.0","8A7803DC27D84078A2E22EAF8DA04494","633d8011-0c3e-447b-a2a7-4a6e4d67dfdc","60874837-17fe-43d8-ba5e-75a805c652dd","","1848","
    <div style=""display: flex; justify-content: center; align-items: center;"">
      <img src=""images/red_deck_2.png"" style=""width: 300px; height: 300px; margin-right: 10px;"" />
      <img src=""images/blue_deck_1.png"" style=""width: 300px; height: 300px;"" />
    </div>","1","1"
"","","","","","html-keyboard-response","21","652015","0.0-21.0-1.0-0.0","8A7803DC27D84078A2E22EAF8DA04494","633d8011-0c3e-447b-a2a7-4a6e4d67dfdc","60874837-17fe-43d8-ba5e-75a805c652dd","","null","<div style=""display: flex; justify-content: center; align-items: center;"">
                <img src=""images/semantic/semantic_series_17/semantic_series_17_d.jpg"" style=""width: 300px; height: 300px;"" />
              </div>","null",""
"","","","","","html-keyboard-response","22","655021","0.0-22.0","8A7803DC27D84078A2E22EAF8DA04494","633d8011-0c3e-447b-a2a7-4a6e4d67dfdc","60874837-17fe-43d8-ba5e-75a805c652dd","","null","<div style=""display: flex; justify-content: center; align-items: center;"">
                <img src=""images/other/blank.jpg"" style=""width: 300px; height: 300px;"" />
              </div>","null",""
"","","","","","html-keyboard-response","23","658038","0.0-23.0","8A7803DC27D84078A2E22EAF8DA04494","633d8011-0c3e-447b-a2a7-4a6e4d67dfdc","60874837-17fe-43d8-ba5e-75a805c652dd","","null","<div style=""display: flex; justify-content: center; align-items: center;"">
                <img src=""images/causal/causal_series_11/causal_series_11_a.jpg"" style=""width: 300px; height: 300px;"" />
              </div>","null",""
"","","","","","html-keyboard-response","24","661046","0.0-24.0","8A7803DC27D84078A2E22EAF8DA04494","633d8011-0c3e-447b-a2a7-4a6e4d67dfdc","60874837-17fe-43d8-ba5e-75a805c652dd","","null","<div style=""display: flex; justify-content: center; align-items: center;"">
                <img src=""images/causal/causal_series_11/causal_series_11_b.jpg"" style=""width: 300px; height: 300px;"" />
              </div>","null",""
"","","","","","html-keyboard-response","25","664050","0.0-25.0","8A7803DC27D84078A2E22EAF8DA04494","633d8011-0c3e-447b-a2a7-4a6e4d67dfdc","60874837-17fe-43d8-ba5e-75a805c652dd","","null","<div style=""display: flex; justify-content: center; align-items: center;"">
                <img src=""images/causal/causal_series_11/causal_series_11_c.jpg"" style=""width: 300px; height: 300px;"" />
              </div>","null",""
"","","","","","html-button-response","26","665281","0.0-26.0","8A7803DC27D84078A2E22EAF8DA04494","633d8011-0c3e-447b-a2a7-4a6e4d67dfdc","60874837-17fe-43d8-ba5e-75a805c652dd","","1230","
    <div style=""display: flex; justify-content: center; align-items: center;"">
      <img src=""images/red_deck_2.png"" style=""width: 300px; height: 300px; margin-right: 10px;"" />
      <img src=""images/blue_deck_1.png"" style=""width: 300px; height: 300px;"" />
    </div>","1","1"
"","","","","","html-keyboard-response","27","668286","0.0-27.0-1.0-0.0","8A7803DC27D84078A2E22EAF8DA04494","633d8011-0c3e-447b-a2a7-4a6e4d67dfdc","60874837-17fe-43d8-ba5e-75a805c652dd","","null","<div style=""display: flex; justify-content: center; align-items: center;"">
                <img src=""images/semantic/semantic_series_10/semantic_series_10_d.jpg"" style=""width: 300px; height: 300px;"" />
              </div>","null",""
"","","","","","html-keyboard-response","28","671293","0.0-28.0","8A7803DC27D84078A2E22EAF8DA04494","633d8011-0c3e-447b-a2a7-4a6e4d67dfdc","60874837-17fe-43d8-ba5e-75a805c652dd","","null","<div style=""display: flex; justify-content: center; align-items: center;"">
                <img src=""images/other/blank.jpg"" style=""width: 300px; height: 300px;"" />
              </div>","null",""
"","","","","","html-keyboard-response","29","674308","0.0-29.0","8A7803DC27D84078A2E22EAF8DA04494","633d8011-0c3e-447b-a2a7-4a6e4d67dfdc","60874837-17fe-43d8-ba5e-75a805c652dd","","null","<div style=""display: flex; justify-content: center; align-items: center;"">
                <img src=""images/causal/causal_series_8/causal_series_8_a.jpg"" style=""width: 300px; height: 300px;"" />
              </div>","null",""
"","","","","","html-keyboard-response","30","677313","0.0-30.0","8A7803DC27D84078A2E22EAF8DA04494","633d8011-0c3e-447b-a2a7-4a6e4d67dfdc","60874837-17fe-43d8-ba5e-75a805c652dd","","null","<div style=""display: flex; justify-content: center; align-items: center;"">
                <img src=""images/causal/causal_series_8/causal_series_8_b.jpg"" style=""width: 300px; height: 300px;"" />
              </div>","null",""
"","","","","","html-keyboard-response","31","680328","0.0-31.0","8A7803DC27D84078A2E22EAF8DA04494","633d8011-0c3e-447b-a2a7-4a6e4d67dfdc","60874837-17fe-43d8-ba5e-75a805c652dd","","null","<div style=""display: flex; justify-content: center; align-items: center;"">
                <img src=""images/causal/causal_series_8/causal_series_8_c.jpg"" style=""width: 300px; height: 300px;"" />
              </div>","null",""
"","","","","","html-button-response","32","681717","0.0-32.0","8A7803DC27D84078A2E22EAF8DA04494","633d8011-0c3e-447b-a2a7-4a6e4d67dfdc","60874837-17fe-43d8-ba5e-75a805c652dd","","1388","
    <div style=""display: flex; justify-content: center; align-items: center;"">
      <img src=""images/red_deck_2.png"" style=""width: 300px; height: 300px; margin-right: 10px;"" />
      <img src=""images/blue_deck_1.png"" style=""width: 300px; height: 300px;"" />
    </div>","0","0"
"","","","","","html-keyboard-response","33","684718","0.0-33.0-0.0-0.0","8A7803DC27D84078A2E22EAF8DA04494","633d8011-0c3e-447b-a2a7-4a6e4d67dfdc","60874837-17fe-43d8-ba5e-75a805c652dd","","null","<div style=""display: flex; justify-content: center; align-items: center;"">
                <img src=""images/causal/causal_series_8/causal_series_8_d.jpg"" style=""width: 300px; height: 300px;"" />
              </div>","null",""
"","","","","","html-keyboard-response","34","687723","0.0-34.0","8A7803DC27D84078A2E22EAF8DA04494","633d8011-0c3e-447b-a2a7-4a6e4d67dfdc","60874837-17fe-43d8-ba5e-75a805c652dd","","null","<div style=""display: flex; justify-content: center; align-items: center;"">
                <img src=""images/other/blank.jpg"" style=""width: 300px; height: 300px;"" />
              </div>","null",""
"","","","","","html-keyboard-response","35","690734","0.0-35.0","8A7803DC27D84078A2E22EAF8DA04494","633d8011-0c3e-447b-a2a7-4a6e4d67dfdc","60874837-17fe-43d8-ba5e-75a805c652dd","","null","<div style=""display: flex; justify-content: center; align-items: center;"">
                <img src=""images/causal/causal_series_5/causal_series_5_a.jpg"" style=""width: 300px; height: 300px;"" />
              </div>","null",""
"","","","","","html-keyboard-response","36","693736","0.0-36.0","8A7803DC27D84078A2E22EAF8DA04494","633d8011-0c3e-447b-a2a7-4a6e4d67dfdc","60874837-17fe-43d8-ba5e-75a805c652dd","","null","<div style=""display: flex; justify-content: center; align-items: center;"">
                <img src=""images/causal/causal_series_5/causal_series_5_b.jpg"" style=""width: 300px; height: 300px;"" />
              </div>","null",""
"","","","","","html-keyboard-response","37","696749","0.0-37.0","8A7803DC27D84078A2E22EAF8DA04494","633d8011-0c3e-447b-a2a7-4a6e4d67dfdc","60874837-17fe-43d8-ba5e-75a805c652dd","","null","<div style=""display: flex; justify-content: center; align-items: center;"">
                <img src=""images/causal/causal_series_5/causal_series_5_c.jpg"" style=""width: 300px; height: 300px;"" />
              </div>","null",""
"","","","","","html-button-response","38","698111","0.0-38.0","8A7803DC27D84078A2E22EAF8DA04494","633d8011-0c3e-447b-a2a7-4a6e4d67dfdc","60874837-17fe-43d8-ba5e-75a805c652dd","","1361","
    <div style=""display: flex; justify-content: center; align-items: center;"">
      <img src=""images/red_deck_2.png"" style=""width: 300px; height: 300px; margin-right: 10px;"" />
      <img src=""images/blue_deck_1.png"" style=""width: 300px; height: 300px;"" />
    </div>","0","0"
"","","","","","html-keyboard-response","39","701113","0.0-39.0-0.0-0.0","8A7803DC27D84078A2E22EAF8DA04494","633d8011-0c3e-447b-a2a7-4a6e4d67dfdc","60874837-17fe-43d8-ba5e-75a805c652dd","","null","<div style=""display: flex; justify-content: center; align-items: center;"">
                <img src=""images/causal/causal_series_5/causal_series_5_d.jpg"" style=""width: 300px; height: 300px;"" />
              </div>","null",""
"","","","","","html-keyboard-response","40","704116","0.0-40.0","8A7803DC27D84078A2E22EAF8DA04494","633d8011-0c3e-447b-a2a7-4a6e4d67dfdc","60874837-17fe-43d8-ba5e-75a805c652dd","","null","<div style=""display: flex; justify-content: center; align-items: center;"">
                <img src=""images/other/blank.jpg"" style=""width: 300px; height: 300px;"" />
              </div>","null",""
"","","","","","html-keyboard-response","41","707118","0.0-41.0","8A7803DC27D84078A2E22EAF8DA04494","633d8011-0c3e-447b-a2a7-4a6e4d67dfdc","60874837-17fe-43d8-ba5e-75a805c652dd","","null","<div style=""display: flex; justify-content: center; align-items: center;"">
                <img src=""images/causal/causal_series_15/causal_series_15_a.jpg"" style=""width: 300px; height: 300px;"" />
              </div>","null",""
"","","","","","html-keyboard-response","42","710128","0.0-42.0","8A7803DC27D84078A2E22EAF8DA04494","633d8011-0c3e-447b-a2a7-4a6e4d67dfdc","60874837-17fe-43d8-ba5e-75a805c652dd","","null","<div style=""display: flex; justify-content: center; align-items: center;"">
                <img src=""images/causal/causal_series_15/causal_series_15_b.jpg"" style=""width: 300px; height: 300px;"" />
              </div>","null",""
"","","","","","html-keyboard-response","43","713132","0.0-43.0","8A7803DC27D84078A2E22EAF8DA04494","633d8011-0c3e-447b-a2a7-4a6e4d67dfdc","60874837-17fe-43d8-ba5e-75a805c652dd","","null","<div style=""display: flex; justify-content: center; align-items: center;"">
                <img src=""images/causal/causal_series_15/causal_series_15_c.jpg"" style=""width: 300px; height: 300px;"" />
              </div>","null",""
"","","","","","html-button-response","44","714934","0.0-44.0","8A7803DC27D84078A2E22EAF8DA04494","633d8011-0c3e-447b-a2a7-4a6e4d67dfdc","60874837-17fe-43d8-ba5e-75a805c652dd","","1801","
    <div style=""display: flex; justify-content: center; align-items: center;"">
      <img src=""images/red_deck_2.png"" style=""width: 300px; height: 300px; margin-right: 10px;"" />
      <img src=""images/blue_deck_1.png"" style=""width: 300px; height: 300px;"" />
    </div>","0","0"
"","","","","","html-keyboard-response","45","717947","0.0-45.0-0.0-0.0","8A7803DC27D84078A2E22EAF8DA04494","633d8011-0c3e-447b-a2a7-4a6e4d67dfdc","60874837-17fe-43d8-ba5e-75a805c652dd","","null","<div style=""display: flex; justify-content: center; align-items: center;"">
                <img src=""images/causal/causal_series_15/causal_series_15_d.jpg"" style=""width: 300px; height: 300px;"" />
              </div>","null",""
"","","","","","html-keyboard-response","46","720950","0.0-46.0","8A7803DC27D84078A2E22EAF8DA04494","633d8011-0c3e-447b-a2a7-4a6e4d67dfdc","60874837-17fe-43d8-ba5e-75a805c652dd","","null","<div style=""display: flex; justify-content: center; align-items: center;"">
                <img src=""images/other/blank.jpg"" style=""width: 300px; height: 300px;"" />
              </div>","null",""
"","","","","","html-keyboard-response","47","723965","0.0-47.0","8A7803DC27D84078A2E22EAF8DA04494","633d8011-0c3e-447b-a2a7-4a6e4d67dfdc","60874837-17fe-43d8-ba5e-75a805c652dd","","null","<div style=""display: flex; justify-content: center; align-items: center;"">
                <img src=""images/causal/causal_series_1/causal_series_1_a.jpg"" style=""width: 300px; height: 300px;"" />
              </div>","null",""
"","","","","","html-keyboard-response","48","726979","0.0-48.0","8A7803DC27D84078A2E22EAF8DA04494","633d8011-0c3e-447b-a2a7-4a6e4d67dfdc","60874837-17fe-43d8-ba5e-75a805c652dd","","null","<div style=""display: flex; justify-content: center; align-items: center;"">
                <img src=""images/causal/causal_series_1/causal_series_1_b.jpg"" style=""width: 300px; height: 300px;"" />
              </div>","null",""
"","","","","","html-keyboard-response","49","729995","0.0-49.0","8A7803DC27D84078A2E22EAF8DA04494","633d8011-0c3e-447b-a2a7-4a6e4d67dfdc","60874837-17fe-43d8-ba5e-75a805c652dd","","null","<div style=""display: flex; justify-content: center; align-items: center;"">
                <img src=""images/causal/causal_series_1/causal_series_1_c.jpg"" style=""width: 300px; height: 300px;"" />
              </div>","null",""
"","","","","","html-button-response","50","733465","0.0-50.0","8A7803DC27D84078A2E22EAF8DA04494","633d8011-0c3e-447b-a2a7-4a6e4d67dfdc","60874837-17fe-43d8-ba5e-75a805c652dd","","3469","
    <div style=""display: flex; justify-content: center; align-items: center;"">
      <img src=""images/red_deck_2.png"" style=""width: 300px; height: 300px; margin-right: 10px;"" />
      <img src=""images/blue_deck_1.png"" style=""width: 300px; height: 300px;"" />
    </div>","0","0"
"","","","","","html-keyboard-response","51","736481","0.0-51.0-0.0-0.0","8A7803DC27D84078A2E22EAF8DA04494","633d8011-0c3e-447b-a2a7-4a6e4d67dfdc","60874837-17fe-43d8-ba5e-75a805c652dd","","null","<div style=""display: flex; justify-content: center; align-items: center;"">
                <img src=""images/causal/causal_series_1/causal_series_1_d.jpg"" style=""width: 300px; height: 300px;"" />
              </div>","null",""
"","","","","","html-keyboard-response","52","739495","0.0-52.0","8A7803DC27D84078A2E22EAF8DA04494","633d8011-0c3e-447b-a2a7-4a6e4d67dfdc","60874837-17fe-43d8-ba5e-75a805c652dd","","null","<div style=""display: flex; justify-content: center; align-items: center;"">
                <img src=""images/other/blank.jpg"" style=""width: 300px; height: 300px;"" />
              </div>","null",""
"","","","","","html-keyboard-response","53","742506","0.0-53.0","8A7803DC27D84078A2E22EAF8DA04494","633d8011-0c3e-447b-a2a7-4a6e4d67dfdc","60874837-17fe-43d8-ba5e-75a805c652dd","","null","<div style=""display: flex; justify-content: center; align-items: center;"">
                <img src=""images/causal/causal_series_2/causal_series_2_a.jpg"" style=""width: 300px; height: 300px;"" />
              </div>","null",""
"","","","","","html-keyboard-response","54","745515","0.0-54.0","8A7803DC27D84078A2E22EAF8DA04494","633d8011-0c3e-447b-a2a7-4a6e4d67dfdc","60874837-17fe-43d8-ba5e-75a805c652dd","","null","<div style=""display: flex; justify-content: center; align-items: center;"">
                <img src=""images/causal/causal_series_2/causal_series_2_b.jpg"" style=""width: 300px; height: 300px;"" />
              </div>","null",""
"","","","","","html-keyboard-response","55","748530","0.0-55.0","8A7803DC27D84078A2E22EAF8DA04494","633d8011-0c3e-447b-a2a7-4a6e4d67dfdc","60874837-17fe-43d8-ba5e-75a805c652dd","","null","<div style=""display: flex; justify-content: center; align-items: center;"">
                <img src=""images/causal/causal_series_2/causal_series_2_c.jpg"" style=""width: 300px; height: 300px;"" />
              </div>","null",""
"","","","","","html-button-response","56","749629","0.0-56.0","8A7803DC27D84078A2E22EAF8DA04494","633d8011-0c3e-447b-a2a7-4a6e4d67dfdc","60874837-17fe-43d8-ba5e-75a805c652dd","","1098","
    <div style=""display: flex; justify-content: center; align-items: center;"">
      <img src=""images/red_deck_2.png"" style=""width: 300px; height: 300px; margin-right: 10px;"" />
      <img src=""images/blue_deck_1.png"" style=""width: 300px; height: 300px;"" />
    </div>","0","0"
"","","","","","html-keyboard-response","57","752639","0.0-57.0-0.0-0.0","8A7803DC27D84078A2E22EAF8DA04494","633d8011-0c3e-447b-a2a7-4a6e4d67dfdc","60874837-17fe-43d8-ba5e-75a805c652dd","","null","<div style=""display: flex; justify-content: center; align-items: center;"">
                <img src=""images/causal/causal_series_2/causal_series_2_d.jpg"" style=""width: 300px; height: 300px;"" />
              </div>","null",""
"","","","","","html-keyboard-response","58","755650","0.0-58.0","8A7803DC27D84078A2E22EAF8DA04494","633d8011-0c3e-447b-a2a7-4a6e4d67dfdc","60874837-17fe-43d8-ba5e-75a805c652dd","","null","<div style=""display: flex; justify-content: center; align-items: center;"">
                <img src=""images/other/blank.jpg"" style=""width: 300px; height: 300px;"" />
              </div>","null",""
"","","","","","html-keyboard-response","59","758661","0.0-59.0","8A7803DC27D84078A2E22EAF8DA04494","633d8011-0c3e-447b-a2a7-4a6e4d67dfdc","60874837-17fe-43d8-ba5e-75a805c652dd","","null","<div style=""display: flex; justify-content: center; align-items: center;"">
                <img src=""images/causal/causal_series_17/causal_series_17_a.jpg"" style=""width: 300px; height: 300px;"" />
              </div>","null",""
"","","","","","html-keyboard-response","60","761665","0.0-60.0","8A7803DC27D84078A2E22EAF8DA04494","633d8011-0c3e-447b-a2a7-4a6e4d67dfdc","60874837-17fe-43d8-ba5e-75a805c652dd","","null","<div style=""display: flex; justify-content: center; align-items: center;"">
                <img src=""images/causal/causal_series_17/causal_series_17_b.jpg"" style=""width: 300px; height: 300px;"" />
              </div>","null",""
"","","","","","html-keyboard-response","61","764671","0.0-61.0","8A7803DC27D84078A2E22EAF8DA04494","633d8011-0c3e-447b-a2a7-4a6e4d67dfdc","60874837-17fe-43d8-ba5e-75a805c652dd","","null","<div style=""display: flex; justify-content: center; align-items: center;"">
                <img src=""images/causal/causal_series_17/causal_series_17_c.jpg"" style=""width: 300px; height: 300px;"" />
              </div>","null",""
"","","","","","html-button-response","62","765890","0.0-62.0","8A7803DC27D84078A2E22EAF8DA04494","633d8011-0c3e-447b-a2a7-4a6e4d67dfdc","60874837-17fe-43d8-ba5e-75a805c652dd","","1218","
    <div style=""display: flex; justify-content: center; align-items: center;"">
      <img src=""images/red_deck_2.png"" style=""width: 300px; height: 300px; margin-right: 10px;"" />
      <img src=""images/blue_deck_1.png"" style=""width: 300px; height: 300px;"" />
    </div>","0","0"
"","","","","","html-keyboard-response","63","768899","0.0-63.0-0.0-0.0","8A7803DC27D84078A2E22EAF8DA04494","633d8011-0c3e-447b-a2a7-4a6e4d67dfdc","60874837-17fe-43d8-ba5e-75a805c652dd","","null","<div style=""display: flex; justify-content: center; align-items: center;"">
                <img src=""images/causal/causal_series_17/causal_series_17_d.jpg"" style=""width: 300px; height: 300px;"" />
              </div>","null",""
"","","","","","html-keyboard-response","64","771914","0.0-64.0","8A7803DC27D84078A2E22EAF8DA04494","633d8011-0c3e-447b-a2a7-4a6e4d67dfdc","60874837-17fe-43d8-ba5e-75a805c652dd","","null","<div style=""display: flex; justify-content: center; align-items: center;"">
                <img src=""images/other/blank.jpg"" style=""width: 300px; height: 300px;"" />
              </div>","null",""
"","","","","","html-keyboard-response","65","774916","0.0-65.0","8A7803DC27D84078A2E22EAF8DA04494","633d8011-0c3e-447b-a2a7-4a6e4d67dfdc","60874837-17fe-43d8-ba5e-75a805c652dd","","null","<div style=""display: flex; justify-content: center; align-items: center;"">
                <img src=""images/causal/causal_series_12/causal_series_12_a.jpg"" style=""width: 300px; height: 300px;"" />
              </div>","null",""
"","","","","","html-keyboard-response","66","777931","0.0-66.0","8A7803DC27D84078A2E22EAF8DA04494","633d8011-0c3e-447b-a2a7-4a6e4d67dfdc","60874837-17fe-43d8-ba5e-75a805c652dd","","null","<div style=""display: flex; justify-content: center; align-items: center;"">
                <img src=""images/causal/causal_series_12/causal_series_12_b.jpg"" style=""width: 300px; height: 300px;"" />
              </div>","null",""
"","","","","","html-keyboard-response","67","780942","0.0-67.0","8A7803DC27D84078A2E22EAF8DA04494","633d8011-0c3e-447b-a2a7-4a6e4d67dfdc","60874837-17fe-43d8-ba5e-75a805c652dd","","null","<div style=""display: flex; justify-content: center; align-items: center;"">
                <img src=""images/causal/causal_series_12/causal_series_12_c.jpg"" style=""width: 300px; height: 300px;"" />
              </div>","null",""
"","","","","","html-button-response","68","782097","0.0-68.0","8A7803DC27D84078A2E22EAF8DA04494","633d8011-0c3e-447b-a2a7-4a6e4d67dfdc","60874837-17fe-43d8-ba5e-75a805c652dd","","1154","
    <div style=""display: flex; justify-content: center; align-items: center;"">
      <img src=""images/red_deck_2.png"" style=""width: 300px; height: 300px; margin-right: 10px;"" />
      <img src=""images/blue_deck_1.png"" style=""width: 300px; height: 300px;"" />
    </div>","0","0"
"","","","","","html-keyboard-response","69","785099","0.0-69.0-0.0-0.0","8A7803DC27D84078A2E22EAF8DA04494","633d8011-0c3e-447b-a2a7-4a6e4d67dfdc","60874837-17fe-43d8-ba5e-75a805c652dd","","null","<div style=""display: flex; justify-content: center; align-items: center;"">
                <img src=""images/causal/causal_series_12/causal_series_12_d.jpg"" style=""width: 300px; height: 300px;"" />
              </div>","null",""
"","","","","","html-keyboard-response","70","788115","0.0-70.0","8A7803DC27D84078A2E22EAF8DA04494","633d8011-0c3e-447b-a2a7-4a6e4d67dfdc","60874837-17fe-43d8-ba5e-75a805c652dd","","null","<div style=""display: flex; justify-content: center; align-items: center;"">
                <img src=""images/other/blank.jpg"" style=""width: 300px; height: 300px;"" />
              </div>","null",""
"","","","","","html-keyboard-response","71","791131","0.0-71.0","8A7803DC27D84078A2E22EAF8DA04494","633d8011-0c3e-447b-a2a7-4a6e4d67dfdc","60874837-17fe-43d8-ba5e-75a805c652dd","","null","<div style=""display: flex; justify-content: center; align-items: center;"">
                <img src=""images/causal/causal_series_3/causal_series_3_a.jpg"" style=""width: 300px; height: 300px;"" />
              </div>","null",""
"","","","","","html-keyboard-response","72","794135","0.0-72.0","8A7803DC27D84078A2E22EAF8DA04494","633d8011-0c3e-447b-a2a7-4a6e4d67dfdc","60874837-17fe-43d8-ba5e-75a805c652dd","","null","<div style=""display: flex; justify-content: center; align-items: center;"">
                <img src=""images/causal/causal_series_3/causal_series_3_b.jpg"" style=""width: 300px; height: 300px;"" />
              </div>","null",""
"","","","","","html-keyboard-response","73","797142","0.0-73.0","8A7803DC27D84078A2E22EAF8DA04494","633d8011-0c3e-447b-a2a7-4a6e4d67dfdc","60874837-17fe-43d8-ba5e-75a805c652dd","","null","<div style=""display: flex; justify-content: center; align-items: center;"">
                <img src=""images/causal/causal_series_3/causal_series_3_c.jpg"" style=""width: 300px; height: 300px;"" />
              </div>","null",""
"","","","","","html-button-response","74","799496","0.0-74.0","8A7803DC27D84078A2E22EAF8DA04494","633d8011-0c3e-447b-a2a7-4a6e4d67dfdc","60874837-17fe-43d8-ba5e-75a805c652dd","","2353","
    <div style=""display: flex; justify-content: center; align-items: center;"">
      <img src=""images/red_deck_2.png"" style=""width: 300px; height: 300px; margin-right: 10px;"" />
      <img src=""images/blue_deck_1.png"" style=""width: 300px; height: 300px;"" />
    </div>","0","0"
"","","","","","html-keyboard-response","75","802512","0.0-75.0-0.0-0.0","8A7803DC27D84078A2E22EAF8DA04494","633d8011-0c3e-447b-a2a7-4a6e4d67dfdc","60874837-17fe-43d8-ba5e-75a805c652dd","","null","<div style=""display: flex; justify-content: center; align-items: center;"">
                <img src=""images/causal/causal_series_3/causal_series_3_d.jpg"" style=""width: 300px; height: 300px;"" />
              </div>","null",""
"","","","","","html-keyboard-response","76","805526","0.0-76.0","8A7803DC27D84078A2E22EAF8DA04494","633d8011-0c3e-447b-a2a7-4a6e4d67dfdc","60874837-17fe-43d8-ba5e-75a805c652dd","","null","<div style=""display: flex; justify-content: center; align-items: center;"">
                <img src=""images/other/blank.jpg"" style=""width: 300px; height: 300px;"" />
              </div>","null",""
"","","","","","html-keyboard-response","77","808533","0.0-77.0","8A7803DC27D84078A2E22EAF8DA04494","633d8011-0c3e-447b-a2a7-4a6e4d67dfdc","60874837-17fe-43d8-ba5e-75a805c652dd","","null","<div style=""display: flex; justify-content: center; align-items: center;"">
                <img src=""images/causal/causal_series_16/causal_series_16_a.jpg"" style=""width: 300px; height: 300px;"" />
              </div>","null",""
"","","","","","html-keyboard-response","78","811542","0.0-78.0","8A7803DC27D84078A2E22EAF8DA04494","633d8011-0c3e-447b-a2a7-4a6e4d67dfdc","60874837-17fe-43d8-ba5e-75a805c652dd","","null","<div style=""display: flex; justify-content: center; align-items: center;"">
                <img src=""images/causal/causal_series_16/causal_series_16_b.jpg"" style=""width: 300px; height: 300px;"" />
              </div>","null",""
"","","","","","html-keyboard-response","79","814550","0.0-79.0","8A7803DC27D84078A2E22EAF8DA04494","633d8011-0c3e-447b-a2a7-4a6e4d67dfdc","60874837-17fe-43d8-ba5e-75a805c652dd","","null","<div style=""display: flex; justify-content: center; align-items: center;"">
                <img src=""images/causal/causal_series_16/causal_series_16_c.jpg"" style=""width: 300px; height: 300px;"" />
              </div>","null",""
"","","","","","html-button-response","80","816761","0.0-80.0","8A7803DC27D84078A2E22EAF8DA04494","633d8011-0c3e-447b-a2a7-4a6e4d67dfdc","60874837-17fe-43d8-ba5e-75a805c652dd","","2211","
    <div style=""display: flex; justify-content: center; align-items: center;"">
      <img src=""images/red_deck_2.png"" style=""width: 300px; height: 300px; margin-right: 10px;"" />
      <img src=""images/blue_deck_1.png"" style=""width: 300px; height: 300px;"" />
    </div>","0","0"
"","","","","","html-keyboard-response","81","819776","0.0-81.0-0.0-0.0","8A7803DC27D84078A2E22EAF8DA04494","633d8011-0c3e-447b-a2a7-4a6e4d67dfdc","60874837-17fe-43d8-ba5e-75a805c652dd","","null","<div style=""display: flex; justify-content: center; align-items: center;"">
                <img src=""images/causal/causal_series_16/causal_series_16_d.jpg"" style=""width: 300px; height: 300px;"" />
              </div>","null",""
"","","","","","html-keyboard-response","82","822786","0.0-82.0","8A7803DC27D84078A2E22EAF8DA04494","633d8011-0c3e-447b-a2a7-4a6e4d67dfdc","60874837-17fe-43d8-ba5e-75a805c652dd","","null","<div style=""display: flex; justify-content: center; align-items: center;"">
                <img src=""images/other/blank.jpg"" style=""width: 300px; height: 300px;"" />
              </div>","null",""
"","","","","","html-keyboard-response","83","825796","0.0-83.0","8A7803DC27D84078A2E22EAF8DA04494","633d8011-0c3e-447b-a2a7-4a6e4d67dfdc","60874837-17fe-43d8-ba5e-75a805c652dd","","null","<div style=""display: flex; justify-content: center; align-items: center;"">
                <img src=""images/causal/causal_series_9/causal_series_9_a.jpg"" style=""width: 300px; height: 300px;"" />
              </div>","null",""
"","","","","","html-keyboard-response","84","828798","0.0-84.0","8A7803DC27D84078A2E22EAF8DA04494","633d8011-0c3e-447b-a2a7-4a6e4d67dfdc","60874837-17fe-43d8-ba5e-75a805c652dd","","null","<div style=""display: flex; justify-content: center; align-items: center;"">
                <img src=""images/causal/causal_series_9/causal_series_9_b.jpg"" style=""width: 300px; height: 300px;"" />
              </div>","null",""
"","","","","","html-keyboard-response","85","831806","0.0-85.0","8A7803DC27D84078A2E22EAF8DA04494","633d8011-0c3e-447b-a2a7-4a6e4d67dfdc","60874837-17fe-43d8-ba5e-75a805c652dd","","null","<div style=""display: flex; justify-content: center; align-items: center;"">
                <img src=""images/causal/causal_series_9/causal_series_9_c.jpg"" style=""width: 300px; height: 300px;"" />
              </div>","null",""
"","","","","","html-button-response","86","833246","0.0-86.0","8A7803DC27D84078A2E22EAF8DA04494","633d8011-0c3e-447b-a2a7-4a6e4d67dfdc","60874837-17fe-43d8-ba5e-75a805c652dd","","1439","
    <div style=""display: flex; justify-content: center; align-items: center;"">
      <img src=""images/red_deck_2.png"" style=""width: 300px; height: 300px; margin-right: 10px;"" />
      <img src=""images/blue_deck_1.png"" style=""width: 300px; height: 300px;"" />
    </div>","0","0"
"","","","","","html-keyboard-response","87","836252","0.0-87.0-0.0-0.0","8A7803DC27D84078A2E22EAF8DA04494","633d8011-0c3e-447b-a2a7-4a6e4d67dfdc","60874837-17fe-43d8-ba5e-75a805c652dd","","null","<div style=""display: flex; justify-content: center; align-items: center;"">
                <img src=""images/causal/causal_series_9/causal_series_9_d.jpg"" style=""width: 300px; height: 300px;"" />
              </div>","null",""
"","","","","","html-keyboard-response","88","839264","0.0-88.0","8A7803DC27D84078A2E22EAF8DA04494","633d8011-0c3e-447b-a2a7-4a6e4d67dfdc","60874837-17fe-43d8-ba5e-75a805c652dd","","null","<div style=""display: flex; justify-content: center; align-items: center;"">
                <img src=""images/other/blank.jpg"" style=""width: 300px; height: 300px;"" />
              </div>","null",""
"","","","","","html-keyboard-response","89","842270","0.0-89.0","8A7803DC27D84078A2E22EAF8DA04494","633d8011-0c3e-447b-a2a7-4a6e4d67dfdc","60874837-17fe-43d8-ba5e-75a805c652dd","","null","<div style=""display: flex; justify-content: center; align-items: center;"">
                <img src=""images/causal/causal_series_14/causal_series_14_a.jpg"" style=""width: 300px; height: 300px;"" />
              </div>","null",""
"","","","","","html-keyboard-response","90","845275","0.0-90.0","8A7803DC27D84078A2E22EAF8DA04494","633d8011-0c3e-447b-a2a7-4a6e4d67dfdc","60874837-17fe-43d8-ba5e-75a805c652dd","","null","<div style=""display: flex; justify-content: center; align-items: center;"">
                <img src=""images/causal/causal_series_14/causal_series_14_b.jpg"" style=""width: 300px; height: 300px;"" />
              </div>","null",""
"","","","","","html-keyboard-response","91","848287","0.0-91.0","8A7803DC27D84078A2E22EAF8DA04494","633d8011-0c3e-447b-a2a7-4a6e4d67dfdc","60874837-17fe-43d8-ba5e-75a805c652dd","","null","<div style=""display: flex; justify-content: center; align-items: center;"">
                <img src=""images/causal/causal_series_14/causal_series_14_c.jpg"" style=""width: 300px; height: 300px;"" />
              </div>","null",""
"","","","","","html-button-response","92","849381","0.0-92.0","8A7803DC27D84078A2E22EAF8DA04494","633d8011-0c3e-447b-a2a7-4a6e4d67dfdc","60874837-17fe-43d8-ba5e-75a805c652dd","","1094","
    <div style=""display: flex; justify-content: center; align-items: center;"">
      <img src=""images/red_deck_2.png"" style=""width: 300px; height: 300px; margin-right: 10px;"" />
      <img src=""images/blue_deck_1.png"" style=""width: 300px; height: 300px;"" />
    </div>","0","0"
"","","","","","html-keyboard-response","93","852392","0.0-93.0-0.0-0.0","8A7803DC27D84078A2E22EAF8DA04494","633d8011-0c3e-447b-a2a7-4a6e4d67dfdc","60874837-17fe-43d8-ba5e-75a805c652dd","","null","<div style=""display: flex; justify-content: center; align-items: center;"">
                <img src=""images/causal/causal_series_14/causal_series_14_d.jpg"" style=""width: 300px; height: 300px;"" />
              </div>","null",""
"","","","","","html-keyboard-response","94","855397","0.0-94.0","8A7803DC27D84078A2E22EAF8DA04494","633d8011-0c3e-447b-a2a7-4a6e4d67dfdc","60874837-17fe-43d8-ba5e-75a805c652dd","","null","<div style=""display: flex; justify-content: center; align-items: center;"">
                <img src=""images/other/blank.jpg"" style=""width: 300px; height: 300px;"" />
              </div>","null",""
"","","","","","html-keyboard-response","95","858408","0.0-95.0","8A7803DC27D84078A2E22EAF8DA04494","633d8011-0c3e-447b-a2a7-4a6e4d67dfdc","60874837-17fe-43d8-ba5e-75a805c652dd","","null","<div style=""display: flex; justify-content: center; align-items: center;"">
                <img src=""images/causal/causal_series_6/causal_series_6_a.jpg"" style=""width: 300px; height: 300px;"" />
              </div>","null",""
"","","","","","html-keyboard-response","96","861416","0.0-96.0","8A7803DC27D84078A2E22EAF8DA04494","633d8011-0c3e-447b-a2a7-4a6e4d67dfdc","60874837-17fe-43d8-ba5e-75a805c652dd","","null","<div style=""display: flex; justify-content: center; align-items: center;"">
                <img src=""images/causal/causal_series_6/causal_series_6_b.jpg"" style=""width: 300px; height: 300px;"" />
              </div>","null",""
"","","","","","html-keyboard-response","97","864423","0.0-97.0","8A7803DC27D84078A2E22EAF8DA04494","633d8011-0c3e-447b-a2a7-4a6e4d67dfdc","60874837-17fe-43d8-ba5e-75a805c652dd","","null","<div style=""display: flex; justify-content: center; align-items: center;"">
                <img src=""images/causal/causal_series_6/causal_series_6_c.jpg"" style=""width: 300px; height: 300px;"" />
              </div>","null",""
"","","","","","html-button-response","98","866649","0.0-98.0","8A7803DC27D84078A2E22EAF8DA04494","633d8011-0c3e-447b-a2a7-4a6e4d67dfdc","60874837-17fe-43d8-ba5e-75a805c652dd","","2225","
    <div style=""display: flex; justify-content: center; align-items: center;"">
      <img src=""images/red_deck_2.png"" style=""width: 300px; height: 300px; margin-right: 10px;"" />
      <img src=""images/blue_deck_1.png"" style=""width: 300px; height: 300px;"" />
    </div>","0","0"
"","","","","","html-keyboard-response","99","869664","0.0-99.0-0.0-0.0","8A7803DC27D84078A2E22EAF8DA04494","633d8011-0c3e-447b-a2a7-4a6e4d67dfdc","60874837-17fe-43d8-ba5e-75a805c652dd","","null","<div style=""display: flex; justify-content: center; align-items: center;"">
                <img src=""images/causal/causal_series_6/causal_series_6_d.jpg"" style=""width: 300px; height: 300px;"" />
              </div>","null",""
"","","","","","html-keyboard-response","100","872666","0.0-100.0","8A7803DC27D84078A2E22EAF8DA04494","633d8011-0c3e-447b-a2a7-4a6e4d67dfdc","60874837-17fe-43d8-ba5e-75a805c652dd","","null","<div style=""display: flex; justify-content: center; align-items: center;"">
                <img src=""images/other/blank.jpg"" style=""width: 300px; height: 300px;"" />
              </div>","null",""
"","","","","","html-keyboard-response","101","875681","0.0-101.0","8A7803DC27D84078A2E22EAF8DA04494","633d8011-0c3e-447b-a2a7-4a6e4d67dfdc","60874837-17fe-43d8-ba5e-75a805c652dd","","null","<div style=""display: flex; justify-content: center; align-items: center;"">
                <img src=""images/causal/causal_series_10/causal_series_10_a.jpg"" style=""width: 300px; height: 300px;"" />
              </div>","null",""
"","","","","","html-keyboard-response","102","878689","0.0-102.0","8A7803DC27D84078A2E22EAF8DA04494","633d8011-0c3e-447b-a2a7-4a6e4d67dfdc","60874837-17fe-43d8-ba5e-75a805c652dd","","null","<div style=""display: flex; justify-content: center; align-items: center;"">
                <img src=""images/causal/causal_series_10/causal_series_10_b.jpg"" style=""width: 300px; height: 300px;"" />
              </div>","null",""
"","","","","","html-keyboard-response","103","881703","0.0-103.0","8A7803DC27D84078A2E22EAF8DA04494","633d8011-0c3e-447b-a2a7-4a6e4d67dfdc","60874837-17fe-43d8-ba5e-75a805c652dd","","null","<div style=""display: flex; justify-content: center; align-items: center;"">
                <img src=""images/causal/causal_series_10/causal_series_10_c.jpg"" style=""width: 300px; height: 300px;"" />
              </div>","null",""
"","","","","","html-button-response","104","883925","0.0-104.0","8A7803DC27D84078A2E22EAF8DA04494","633d8011-0c3e-447b-a2a7-4a6e4d67dfdc","60874837-17fe-43d8-ba5e-75a805c652dd","","2220","
    <div style=""display: flex; justify-content: center; align-items: center;"">
      <img src=""images/red_deck_2.png"" style=""width: 300px; height: 300px; margin-right: 10px;"" />
      <img src=""images/blue_deck_1.png"" style=""width: 300px; height: 300px;"" />
    </div>","0","0"
"","","","","","html-keyboard-response","105","886931","0.0-105.0-0.0-0.0","8A7803DC27D84078A2E22EAF8DA04494","633d8011-0c3e-447b-a2a7-4a6e4d67dfdc","60874837-17fe-43d8-ba5e-75a805c652dd","","null","<div style=""display: flex; justify-content: center; align-items: center;"">
                <img src=""images/causal/causal_series_10/causal_series_10_d.jpg"" style=""width: 300px; height: 300px;"" />
              </div>","null",""
"","","","","","html-keyboard-response","106","889942","0.0-106.0","8A7803DC27D84078A2E22EAF8DA04494","633d8011-0c3e-447b-a2a7-4a6e4d67dfdc","60874837-17fe-43d8-ba5e-75a805c652dd","","null","<div style=""display: flex; justify-content: center; align-items: center;"">
                <img src=""images/other/blank.jpg"" style=""width: 300px; height: 300px;"" />
              </div>","null",""
"","","","","","html-keyboard-response","107","892952","0.0-107.0","8A7803DC27D84078A2E22EAF8DA04494","633d8011-0c3e-447b-a2a7-4a6e4d67dfdc","60874837-17fe-43d8-ba5e-75a805c652dd","","null","<div style=""display: flex; justify-content: center; align-items: center;"">
                <img src=""images/causal/causal_series_13/causal_series_13_a.jpg"" style=""width: 300px; height: 300px;"" />
              </div>","null",""
"","","","","","html-keyboard-response","108","895961","0.0-108.0","8A7803DC27D84078A2E22EAF8DA04494","633d8011-0c3e-447b-a2a7-4a6e4d67dfdc","60874837-17fe-43d8-ba5e-75a805c652dd","","null","<div style=""display: flex; justify-content: center; align-items: center;"">
                <img src=""images/causal/causal_series_13/causal_series_13_b.jpg"" style=""width: 300px; height: 300px;"" />
              </div>","null",""
"","","","","","html-keyboard-response","109","898965","0.0-109.0","8A7803DC27D84078A2E22EAF8DA04494","633d8011-0c3e-447b-a2a7-4a6e4d67dfdc","60874837-17fe-43d8-ba5e-75a805c652dd","","null","<div style=""display: flex; justify-content: center; align-items: center;"">
                <img src=""images/causal/causal_series_13/causal_series_13_c.jpg"" style=""width: 300px; height: 300px;"" />
              </div>","null",""
"","","","","","html-button-response","110","902108","0.0-110.0","8A7803DC27D84078A2E22EAF8DA04494","633d8011-0c3e-447b-a2a7-4a6e4d67dfdc","60874837-17fe-43d8-ba5e-75a805c652dd","","3142","
    <div style=""display: flex; justify-content: center; align-items: center;"">
      <img src=""images/red_deck_2.png"" style=""width: 300px; height: 300px; margin-right: 10px;"" />
      <img src=""images/blue_deck_1.png"" style=""width: 300px; height: 300px;"" />
    </div>","0","0"
"","","","","","html-keyboard-response","111","905116","0.0-111.0-0.0-0.0","8A7803DC27D84078A2E22EAF8DA04494","633d8011-0c3e-447b-a2a7-4a6e4d67dfdc","60874837-17fe-43d8-ba5e-75a805c652dd","","null","<div style=""display: flex; justify-content: center; align-items: center;"">
                <img src=""images/causal/causal_series_13/causal_series_13_d.jpg"" style=""width: 300px; height: 300px;"" />
              </div>","null",""
"","","","","","html-keyboard-response","112","908119","0.0-112.0","8A7803DC27D84078A2E22EAF8DA04494","633d8011-0c3e-447b-a2a7-4a6e4d67dfdc","60874837-17fe-43d8-ba5e-75a805c652dd","","null","<div style=""display: flex; justify-content: center; align-items: center;"">
                <img src=""images/other/blank.jpg"" style=""width: 300px; height: 300px;"" />
              </div>","null",""
"","","","","","survey-text","113","928303","0.0-113.0","8A7803DC27D84078A2E22EAF8DA04494","633d8011-0c3e-447b-a2a7-4a6e4d67dfdc","60874837-17fe-43d8-ba5e-75a805c652dd","","20180","","{""Q0"":""One is red and one is blue. The red one seems to contain the end of the story most times.""}",""
"","","","","","survey-text","114","933250","0.0-114.0","8A7803DC27D84078A2E22EAF8DA04494","633d8011-0c3e-447b-a2a7-4a6e4d67dfdc","60874837-17fe-43d8-ba5e-75a805c652dd","","4945","","{""Q0"":""The red one.""}",""
"","","","","","html-button-response","115","936947","0.0-115.0","8A7803DC27D84078A2E22EAF8DA04494","633d8011-0c3e-447b-a2a7-4a6e4d67dfdc","60874837-17fe-43d8-ba5e-75a805c652dd","","3697","Which color deck does the fourth image continue the story from the series?","1",""
"","","","","","html-button-response","116","939728","0.0-116.0","8A7803DC27D84078A2E22EAF8DA04494","633d8011-0c3e-447b-a2a7-4a6e4d67dfdc","60874837-17fe-43d8-ba5e-75a805c652dd","","2780","Which color deck does the fourth image not follow the story from the series?","0",""
"","","","","","survey-text","117","945167","0.0-117.0","8A7803DC27D84078A2E22EAF8DA04494","633d8011-0c3e-447b-a2a7-4a6e4d67dfdc","60874837-17fe-43d8-ba5e-75a805c652dd","","5437","","{""Q0"":""Female"",""Q1"":""33""}",""
"","","","","","instructions","118","951182","0.0-118.0","8A7803DC27D84078A2E22EAF8DA04494","633d8011-0c3e-447b-a2a7-4a6e4d67dfdc","60874837-17fe-43d8-ba5e-75a805c652dd","[{""page_index"":0,""viewing_time"":6014}]","6014","","",""
