"success","timeout","failed_images","failed_audio","failed_video","trial_type","trial_index","time_elapsed","internal_node_id","view_history","rt","stimulus","response","firstImageNumber","secondImageNumber","response_made"
"true","false","[]","[]","[]","preload","0","425","0.0-0.0","","","","","","",""
"","","","","","instructions","1","93173","0.0-1.0","[{""page_index"":0,""viewing_time"":92748}]","92748","","","","",""
"","","","","","html-button-response","2","107516","0.0-2.0","","14342","
          <div style=""display: flex; justify-content: center; align-items: center;"">
            <!-- Event 1 on the left -->
            <div style=""text-align: center; margin-right: 20px;"">
              <p style=""font-size: 24px; font-weight: bold;"">Event 1</p>
              <img src=""images/causal/dog_causal/dog_causal_7.png"" style=""width: 300px; height: auto;"">
            </div>
            <!-- Event 2 on the right -->
            <div style=""text-align: center; margin-left: 20px;"">
              <p style=""font-size: 24px; font-weight: bold;"">Event 2</p>
              <img src=""images/causal/dog_causal/dog_causal_6.png"" style=""width: 300px; height: auto;"">
            </div>
          </div>
          <p style=""text-align: center; margin-top: 20px;"">Does Event 1 lead to Event 2?</p>","1","7","6","true"
"","","","","","html-button-response","3","114164","0.0-3.0","","6646","
          <div style=""display: flex; justify-content: center; align-items: center;"">
            <!-- Event 1 on the left -->
            <div style=""text-align: center; margin-right: 20px;"">
              <p style=""font-size: 24px; font-weight: bold;"">Event 1</p>
              <img src=""images/causal/dog_causal/dog_causal_4.png"" style=""width: 300px; height: auto;"">
            </div>
            <!-- Event 2 on the right -->
            <div style=""text-align: center; margin-left: 20px;"">
              <p style=""font-size: 24px; font-weight: bold;"">Event 2</p>
              <img src=""images/causal/dog_causal/dog_causal_5.png"" style=""width: 300px; height: auto;"">
            </div>
          </div>
          <p style=""text-align: center; margin-top: 20px;"">Does Event 1 lead to Event 2?</p>","0","4","5","true"
"","","","","","html-button-response","4","120265","0.0-4.0","","6099","
          <div style=""display: flex; justify-content: center; align-items: center;"">
            <!-- Event 1 on the left -->
            <div style=""text-align: center; margin-right: 20px;"">
              <p style=""font-size: 24px; font-weight: bold;"">Event 1</p>
              <img src=""images/causal/dog_causal/dog_causal_10.png"" style=""width: 300px; height: auto;"">
            </div>
            <!-- Event 2 on the right -->
            <div style=""text-align: center; margin-left: 20px;"">
              <p style=""font-size: 24px; font-weight: bold;"">Event 2</p>
              <img src=""images/causal/dog_causal/dog_causal_4.png"" style=""width: 300px; height: auto;"">
            </div>
          </div>
          <p style=""text-align: center; margin-top: 20px;"">Does Event 1 lead to Event 2?</p>","2","10","4","true"
"","","","","","html-button-response","5","125753","0.0-5.0","","5487","
          <div style=""display: flex; justify-content: center; align-items: center;"">
            <!-- Event 1 on the left -->
            <div style=""text-align: center; margin-right: 20px;"">
              <p style=""font-size: 24px; font-weight: bold;"">Event 1</p>
              <img src=""images/causal/dog_causal/dog_causal_6.png"" style=""width: 300px; height: auto;"">
            </div>
            <!-- Event 2 on the right -->
            <div style=""text-align: center; margin-left: 20px;"">
              <p style=""font-size: 24px; font-weight: bold;"">Event 2</p>
              <img src=""images/causal/dog_causal/dog_causal_5.png"" style=""width: 300px; height: auto;"">
            </div>
          </div>
          <p style=""text-align: center; margin-top: 20px;"">Does Event 1 lead to Event 2?</p>","1","6","5","true"
"","","","","","html-button-response","6","132074","0.0-6.0","","6320","
          <div style=""display: flex; justify-content: center; align-items: center;"">
            <!-- Event 1 on the left -->
            <div style=""text-align: center; margin-right: 20px;"">
              <p style=""font-size: 24px; font-weight: bold;"">Event 1</p>
              <img src=""images/causal/dog_causal/dog_causal_9.png"" style=""width: 300px; height: auto;"">
            </div>
            <!-- Event 2 on the right -->
            <div style=""text-align: center; margin-left: 20px;"">
              <p style=""font-size: 24px; font-weight: bold;"">Event 2</p>
              <img src=""images/causal/dog_causal/dog_causal_8.png"" style=""width: 300px; height: auto;"">
            </div>
          </div>
          <p style=""text-align: center; margin-top: 20px;"">Does Event 1 lead to Event 2?</p>","1","9","8","true"
"","","","","","html-button-response","7","137570","0.0-7.0","","5495","
          <div style=""display: flex; justify-content: center; align-items: center;"">
            <!-- Event 1 on the left -->
            <div style=""text-align: center; margin-right: 20px;"">
              <p style=""font-size: 24px; font-weight: bold;"">Event 1</p>
              <img src=""images/causal/dog_causal/dog_causal_1.png"" style=""width: 300px; height: auto;"">
            </div>
            <!-- Event 2 on the right -->
            <div style=""text-align: center; margin-left: 20px;"">
              <p style=""font-size: 24px; font-weight: bold;"">Event 2</p>
              <img src=""images/causal/dog_causal/dog_causal_5.png"" style=""width: 300px; height: auto;"">
            </div>
          </div>
          <p style=""text-align: center; margin-top: 20px;"">Does Event 1 lead to Event 2?</p>","2","1","5","true"
"","","","","","html-button-response","8","143319","0.0-8.0","","5748","
          <div style=""display: flex; justify-content: center; align-items: center;"">
            <!-- Event 1 on the left -->
            <div style=""text-align: center; margin-right: 20px;"">
              <p style=""font-size: 24px; font-weight: bold;"">Event 1</p>
              <img src=""images/causal/dog_causal/dog_causal_3.png"" style=""width: 300px; height: auto;"">
            </div>
            <!-- Event 2 on the right -->
            <div style=""text-align: center; margin-left: 20px;"">
              <p style=""font-size: 24px; font-weight: bold;"">Event 2</p>
              <img src=""images/causal/dog_causal/dog_causal_6.png"" style=""width: 300px; height: auto;"">
            </div>
          </div>
          <p style=""text-align: center; margin-top: 20px;"">Does Event 1 lead to Event 2?</p>","2","3","6","true"
"","","","","","html-button-response","9","148985","0.0-9.0","","5664","
          <div style=""display: flex; justify-content: center; align-items: center;"">
            <!-- Event 1 on the left -->
            <div style=""text-align: center; margin-right: 20px;"">
              <p style=""font-size: 24px; font-weight: bold;"">Event 1</p>
              <img src=""images/causal/dog_causal/dog_causal_10.png"" style=""width: 300px; height: auto;"">
            </div>
            <!-- Event 2 on the right -->
            <div style=""text-align: center; margin-left: 20px;"">
              <p style=""font-size: 24px; font-weight: bold;"">Event 2</p>
              <img src=""images/causal/dog_causal/dog_causal_7.png"" style=""width: 300px; height: auto;"">
            </div>
          </div>
          <p style=""text-align: center; margin-top: 20px;"">Does Event 1 lead to Event 2?</p>","2","10","7","true"
"","","","","","html-button-response","10","154410","0.0-10.0","","5424","
          <div style=""display: flex; justify-content: center; align-items: center;"">
            <!-- Event 1 on the left -->
            <div style=""text-align: center; margin-right: 20px;"">
              <p style=""font-size: 24px; font-weight: bold;"">Event 1</p>
              <img src=""images/causal/dog_causal/dog_causal_9.png"" style=""width: 300px; height: auto;"">
            </div>
            <!-- Event 2 on the right -->
            <div style=""text-align: center; margin-left: 20px;"">
              <p style=""font-size: 24px; font-weight: bold;"">Event 2</p>
              <img src=""images/causal/dog_causal/dog_causal_4.png"" style=""width: 300px; height: auto;"">
            </div>
          </div>
          <p style=""text-align: center; margin-top: 20px;"">Does Event 1 lead to Event 2?</p>","2","9","4","true"
"","","","","","html-button-response","11","160009","0.0-11.0","","5598","
          <div style=""display: flex; justify-content: center; align-items: center;"">
            <!-- Event 1 on the left -->
            <div style=""text-align: center; margin-right: 20px;"">
              <p style=""font-size: 24px; font-weight: bold;"">Event 1</p>
              <img src=""images/causal/dog_causal/dog_causal_5.png"" style=""width: 300px; height: auto;"">
            </div>
            <!-- Event 2 on the right -->
            <div style=""text-align: center; margin-left: 20px;"">
              <p style=""font-size: 24px; font-weight: bold;"">Event 2</p>
              <img src=""images/causal/dog_causal/dog_causal_9.png"" style=""width: 300px; height: auto;"">
            </div>
          </div>
          <p style=""text-align: center; margin-top: 20px;"">Does Event 1 lead to Event 2?</p>","0","5","9","true"
"","","","","","html-button-response","12","165448","0.0-12.0","","5438","
          <div style=""display: flex; justify-content: center; align-items: center;"">
            <!-- Event 1 on the left -->
            <div style=""text-align: center; margin-right: 20px;"">
              <p style=""font-size: 24px; font-weight: bold;"">Event 1</p>
              <img src=""images/causal/dog_causal/dog_causal_9.png"" style=""width: 300px; height: auto;"">
            </div>
            <!-- Event 2 on the right -->
            <div style=""text-align: center; margin-left: 20px;"">
              <p style=""font-size: 24px; font-weight: bold;"">Event 2</p>
              <img src=""images/causal/dog_causal/dog_causal_6.png"" style=""width: 300px; height: auto;"">
            </div>
          </div>
          <p style=""text-align: center; margin-top: 20px;"">Does Event 1 lead to Event 2?</p>","2","9","6","true"
"","","","","","html-button-response","13","170978","0.0-13.0","","5529","
          <div style=""display: flex; justify-content: center; align-items: center;"">
            <!-- Event 1 on the left -->
            <div style=""text-align: center; margin-right: 20px;"">
              <p style=""font-size: 24px; font-weight: bold;"">Event 1</p>
              <img src=""images/causal/dog_causal/dog_causal_6.png"" style=""width: 300px; height: auto;"">
            </div>
            <!-- Event 2 on the right -->
            <div style=""text-align: center; margin-left: 20px;"">
              <p style=""font-size: 24px; font-weight: bold;"">Event 2</p>
              <img src=""images/causal/dog_causal/dog_causal_10.png"" style=""width: 300px; height: auto;"">
            </div>
          </div>
          <p style=""text-align: center; margin-top: 20px;"">Does Event 1 lead to Event 2?</p>","2","6","10","true"
"","","","","","html-button-response","14","177174","0.0-14.0","","6194","
          <div style=""display: flex; justify-content: center; align-items: center;"">
            <!-- Event 1 on the left -->
            <div style=""text-align: center; margin-right: 20px;"">
              <p style=""font-size: 24px; font-weight: bold;"">Event 1</p>
              <img src=""images/causal/dog_causal/dog_causal_7.png"" style=""width: 300px; height: auto;"">
            </div>
            <!-- Event 2 on the right -->
            <div style=""text-align: center; margin-left: 20px;"">
              <p style=""font-size: 24px; font-weight: bold;"">Event 2</p>
              <img src=""images/causal/dog_causal/dog_causal_5.png"" style=""width: 300px; height: auto;"">
            </div>
          </div>
          <p style=""text-align: center; margin-top: 20px;"">Does Event 1 lead to Event 2?</p>","1","7","5","true"
"","","","","","html-button-response","15","182622","0.0-15.0","","5447","
          <div style=""display: flex; justify-content: center; align-items: center;"">
            <!-- Event 1 on the left -->
            <div style=""text-align: center; margin-right: 20px;"">
              <p style=""font-size: 24px; font-weight: bold;"">Event 1</p>
              <img src=""images/causal/dog_causal/dog_causal_3.png"" style=""width: 300px; height: auto;"">
            </div>
            <!-- Event 2 on the right -->
            <div style=""text-align: center; margin-left: 20px;"">
              <p style=""font-size: 24px; font-weight: bold;"">Event 2</p>
              <img src=""images/causal/dog_causal/dog_causal_8.png"" style=""width: 300px; height: auto;"">
            </div>
          </div>
          <p style=""text-align: center; margin-top: 20px;"">Does Event 1 lead to Event 2?</p>","2","3","8","true"
"","","","","","html-button-response","16","192046","0.0-16.0","","9423","
          <div style=""display: flex; justify-content: center; align-items: center;"">
            <!-- Event 1 on the left -->
            <div style=""text-align: center; margin-right: 20px;"">
              <p style=""font-size: 24px; font-weight: bold;"">Event 1</p>
              <img src=""images/causal/dog_causal/dog_causal_6.png"" style=""width: 300px; height: auto;"">
            </div>
            <!-- Event 2 on the right -->
            <div style=""text-align: center; margin-left: 20px;"">
              <p style=""font-size: 24px; font-weight: bold;"">Event 2</p>
              <img src=""images/causal/dog_causal/dog_causal_8.png"" style=""width: 300px; height: auto;"">
            </div>
          </div>
          <p style=""text-align: center; margin-top: 20px;"">Does Event 1 lead to Event 2?</p>","2","6","8","true"
"","","","","","html-button-response","17","197577","0.0-17.0","","5530","
          <div style=""display: flex; justify-content: center; align-items: center;"">
            <!-- Event 1 on the left -->
            <div style=""text-align: center; margin-right: 20px;"">
              <p style=""font-size: 24px; font-weight: bold;"">Event 1</p>
              <img src=""images/causal/dog_causal/dog_causal_1.png"" style=""width: 300px; height: auto;"">
            </div>
            <!-- Event 2 on the right -->
            <div style=""text-align: center; margin-left: 20px;"">
              <p style=""font-size: 24px; font-weight: bold;"">Event 2</p>
              <img src=""images/causal/dog_causal/dog_causal_8.png"" style=""width: 300px; height: auto;"">
            </div>
          </div>
          <p style=""text-align: center; margin-top: 20px;"">Does Event 1 lead to Event 2?</p>","2","1","8","true"
"","","","","","html-button-response","18","202995","0.0-18.0","","5417","
          <div style=""display: flex; justify-content: center; align-items: center;"">
            <!-- Event 1 on the left -->
            <div style=""text-align: center; margin-right: 20px;"">
              <p style=""font-size: 24px; font-weight: bold;"">Event 1</p>
              <img src=""images/causal/dog_causal/dog_causal_3.png"" style=""width: 300px; height: auto;"">
            </div>
            <!-- Event 2 on the right -->
            <div style=""text-align: center; margin-left: 20px;"">
              <p style=""font-size: 24px; font-weight: bold;"">Event 2</p>
              <img src=""images/causal/dog_causal/dog_causal_10.png"" style=""width: 300px; height: auto;"">
            </div>
          </div>
          <p style=""text-align: center; margin-top: 20px;"">Does Event 1 lead to Event 2?</p>","2","3","10","true"
"","","","","","html-button-response","19","208428","0.0-19.0","","5432","
          <div style=""display: flex; justify-content: center; align-items: center;"">
            <!-- Event 1 on the left -->
            <div style=""text-align: center; margin-right: 20px;"">
              <p style=""font-size: 24px; font-weight: bold;"">Event 1</p>
              <img src=""images/causal/dog_causal/dog_causal_8.png"" style=""width: 300px; height: auto;"">
            </div>
            <!-- Event 2 on the right -->
            <div style=""text-align: center; margin-left: 20px;"">
              <p style=""font-size: 24px; font-weight: bold;"">Event 2</p>
              <img src=""images/causal/dog_causal/dog_causal_2.png"" style=""width: 300px; height: auto;"">
            </div>
          </div>
          <p style=""text-align: center; margin-top: 20px;"">Does Event 1 lead to Event 2?</p>","2","8","2","true"
"","","","","","html-button-response","20","214050","0.0-20.0","","5620","
          <div style=""display: flex; justify-content: center; align-items: center;"">
            <!-- Event 1 on the left -->
            <div style=""text-align: center; margin-right: 20px;"">
              <p style=""font-size: 24px; font-weight: bold;"">Event 1</p>
              <img src=""images/causal/dog_causal/dog_causal_5.png"" style=""width: 300px; height: auto;"">
            </div>
            <!-- Event 2 on the right -->
            <div style=""text-align: center; margin-left: 20px;"">
              <p style=""font-size: 24px; font-weight: bold;"">Event 2</p>
              <img src=""images/causal/dog_causal/dog_causal_10.png"" style=""width: 300px; height: auto;"">
            </div>
          </div>
          <p style=""text-align: center; margin-top: 20px;"">Does Event 1 lead to Event 2?</p>","2","5","10","true"
"","","","","","html-button-response","21","219707","0.0-21.0","","5656","
          <div style=""display: flex; justify-content: center; align-items: center;"">
            <!-- Event 1 on the left -->
            <div style=""text-align: center; margin-right: 20px;"">
              <p style=""font-size: 24px; font-weight: bold;"">Event 1</p>
              <img src=""images/causal/dog_causal/dog_causal_4.png"" style=""width: 300px; height: auto;"">
            </div>
            <!-- Event 2 on the right -->
            <div style=""text-align: center; margin-left: 20px;"">
              <p style=""font-size: 24px; font-weight: bold;"">Event 2</p>
              <img src=""images/causal/dog_causal/dog_causal_6.png"" style=""width: 300px; height: auto;"">
            </div>
          </div>
          <p style=""text-align: center; margin-top: 20px;"">Does Event 1 lead to Event 2?</p>","2","4","6","true"
"","","","","","html-button-response","22","225520","0.0-22.0","","5812","
          <div style=""display: flex; justify-content: center; align-items: center;"">
            <!-- Event 1 on the left -->
            <div style=""text-align: center; margin-right: 20px;"">
              <p style=""font-size: 24px; font-weight: bold;"">Event 1</p>
              <img src=""images/causal/dog_causal/dog_causal_9.png"" style=""width: 300px; height: auto;"">
            </div>
            <!-- Event 2 on the right -->
            <div style=""text-align: center; margin-left: 20px;"">
              <p style=""font-size: 24px; font-weight: bold;"">Event 2</p>
              <img src=""images/causal/dog_causal/dog_causal_2.png"" style=""width: 300px; height: auto;"">
            </div>
          </div>
          <p style=""text-align: center; margin-top: 20px;"">Does Event 1 lead to Event 2?</p>","2","9","2","true"
"","","","","","html-button-response","23","232554","0.0-23.0","","7034","
          <div style=""display: flex; justify-content: center; align-items: center;"">
            <!-- Event 1 on the left -->
            <div style=""text-align: center; margin-right: 20px;"">
              <p style=""font-size: 24px; font-weight: bold;"">Event 1</p>
              <img src=""images/causal/dog_causal/dog_causal_1.png"" style=""width: 300px; height: auto;"">
            </div>
            <!-- Event 2 on the right -->
            <div style=""text-align: center; margin-left: 20px;"">
              <p style=""font-size: 24px; font-weight: bold;"">Event 2</p>
              <img src=""images/causal/dog_causal/dog_causal_3.png"" style=""width: 300px; height: auto;"">
            </div>
          </div>
          <p style=""text-align: center; margin-top: 20px;"">Does Event 1 lead to Event 2?</p>","0","1","3","true"
"","","","","","html-button-response","24","238354","0.0-24.0","","5798","
          <div style=""display: flex; justify-content: center; align-items: center;"">
            <!-- Event 1 on the left -->
            <div style=""text-align: center; margin-right: 20px;"">
              <p style=""font-size: 24px; font-weight: bold;"">Event 1</p>
              <img src=""images/causal/dog_causal/dog_causal_1.png"" style=""width: 300px; height: auto;"">
            </div>
            <!-- Event 2 on the right -->
            <div style=""text-align: center; margin-left: 20px;"">
              <p style=""font-size: 24px; font-weight: bold;"">Event 2</p>
              <img src=""images/causal/dog_causal/dog_causal_2.png"" style=""width: 300px; height: auto;"">
            </div>
          </div>
          <p style=""text-align: center; margin-top: 20px;"">Does Event 1 lead to Event 2?</p>","0","1","2","true"
"","","","","","html-button-response","25","243860","0.0-25.0","","5505","
          <div style=""display: flex; justify-content: center; align-items: center;"">
            <!-- Event 1 on the left -->
            <div style=""text-align: center; margin-right: 20px;"">
              <p style=""font-size: 24px; font-weight: bold;"">Event 1</p>
              <img src=""images/causal/dog_causal/dog_causal_9.png"" style=""width: 300px; height: auto;"">
            </div>
            <!-- Event 2 on the right -->
            <div style=""text-align: center; margin-left: 20px;"">
              <p style=""font-size: 24px; font-weight: bold;"">Event 2</p>
              <img src=""images/causal/dog_causal/dog_causal_1.png"" style=""width: 300px; height: auto;"">
            </div>
          </div>
          <p style=""text-align: center; margin-top: 20px;"">Does Event 1 lead to Event 2?</p>","2","9","1","true"
"","","","","","html-button-response","26","249816","0.0-26.0","","5955","
          <div style=""display: flex; justify-content: center; align-items: center;"">
            <!-- Event 1 on the left -->
            <div style=""text-align: center; margin-right: 20px;"">
              <p style=""font-size: 24px; font-weight: bold;"">Event 1</p>
              <img src=""images/causal/dog_causal/dog_causal_1.png"" style=""width: 300px; height: auto;"">
            </div>
            <!-- Event 2 on the right -->
            <div style=""text-align: center; margin-left: 20px;"">
              <p style=""font-size: 24px; font-weight: bold;"">Event 2</p>
              <img src=""images/causal/dog_causal/dog_causal_4.png"" style=""width: 300px; height: auto;"">
            </div>
          </div>
          <p style=""text-align: center; margin-top: 20px;"">Does Event 1 lead to Event 2?</p>","2","1","4","true"
"","","","","","html-button-response","27","255862","0.0-27.0","","6045","
          <div style=""display: flex; justify-content: center; align-items: center;"">
            <!-- Event 1 on the left -->
            <div style=""text-align: center; margin-right: 20px;"">
              <p style=""font-size: 24px; font-weight: bold;"">Event 1</p>
              <img src=""images/causal/dog_causal/dog_causal_10.png"" style=""width: 300px; height: auto;"">
            </div>
            <!-- Event 2 on the right -->
            <div style=""text-align: center; margin-left: 20px;"">
              <p style=""font-size: 24px; font-weight: bold;"">Event 2</p>
              <img src=""images/causal/dog_causal/dog_causal_9.png"" style=""width: 300px; height: auto;"">
            </div>
          </div>
          <p style=""text-align: center; margin-top: 20px;"">Does Event 1 lead to Event 2?</p>","1","10","9","true"
"","","","","","html-button-response","28","261414","0.0-28.0","","5550","
          <div style=""display: flex; justify-content: center; align-items: center;"">
            <!-- Event 1 on the left -->
            <div style=""text-align: center; margin-right: 20px;"">
              <p style=""font-size: 24px; font-weight: bold;"">Event 1</p>
              <img src=""images/causal/dog_causal/dog_causal_1.png"" style=""width: 300px; height: auto;"">
            </div>
            <!-- Event 2 on the right -->
            <div style=""text-align: center; margin-left: 20px;"">
              <p style=""font-size: 24px; font-weight: bold;"">Event 2</p>
              <img src=""images/causal/dog_causal/dog_causal_7.png"" style=""width: 300px; height: auto;"">
            </div>
          </div>
          <p style=""text-align: center; margin-top: 20px;"">Does Event 1 lead to Event 2?</p>","2","1","7","true"
"","","","","","html-button-response","29","266937","0.0-29.0","","5522","
          <div style=""display: flex; justify-content: center; align-items: center;"">
            <!-- Event 1 on the left -->
            <div style=""text-align: center; margin-right: 20px;"">
              <p style=""font-size: 24px; font-weight: bold;"">Event 1</p>
              <img src=""images/causal/dog_causal/dog_causal_5.png"" style=""width: 300px; height: auto;"">
            </div>
            <!-- Event 2 on the right -->
            <div style=""text-align: center; margin-left: 20px;"">
              <p style=""font-size: 24px; font-weight: bold;"">Event 2</p>
              <img src=""images/causal/dog_causal/dog_causal_2.png"" style=""width: 300px; height: auto;"">
            </div>
          </div>
          <p style=""text-align: center; margin-top: 20px;"">Does Event 1 lead to Event 2?</p>","2","5","2","true"
"","","","","","html-button-response","30","272589","0.0-30.0","","5651","
          <div style=""display: flex; justify-content: center; align-items: center;"">
            <!-- Event 1 on the left -->
            <div style=""text-align: center; margin-right: 20px;"">
              <p style=""font-size: 24px; font-weight: bold;"">Event 1</p>
              <img src=""images/causal/dog_causal/dog_causal_4.png"" style=""width: 300px; height: auto;"">
            </div>
            <!-- Event 2 on the right -->
            <div style=""text-align: center; margin-left: 20px;"">
              <p style=""font-size: 24px; font-weight: bold;"">Event 2</p>
              <img src=""images/causal/dog_causal/dog_causal_3.png"" style=""width: 300px; height: auto;"">
            </div>
          </div>
          <p style=""text-align: center; margin-top: 20px;"">Does Event 1 lead to Event 2?</p>","2","4","3","true"
"","","","","","html-button-response","31","278063","0.0-31.0","","5473","
          <div style=""display: flex; justify-content: center; align-items: center;"">
            <!-- Event 1 on the left -->
            <div style=""text-align: center; margin-right: 20px;"">
              <p style=""font-size: 24px; font-weight: bold;"">Event 1</p>
              <img src=""images/causal/dog_causal/dog_causal_3.png"" style=""width: 300px; height: auto;"">
            </div>
            <!-- Event 2 on the right -->
            <div style=""text-align: center; margin-left: 20px;"">
              <p style=""font-size: 24px; font-weight: bold;"">Event 2</p>
              <img src=""images/causal/dog_causal/dog_causal_2.png"" style=""width: 300px; height: auto;"">
            </div>
          </div>
          <p style=""text-align: center; margin-top: 20px;"">Does Event 1 lead to Event 2?</p>","1","3","2","true"
"","","","","","html-button-response","32","283595","0.0-32.0","","5531","
          <div style=""display: flex; justify-content: center; align-items: center;"">
            <!-- Event 1 on the left -->
            <div style=""text-align: center; margin-right: 20px;"">
              <p style=""font-size: 24px; font-weight: bold;"">Event 1</p>
              <img src=""images/causal/dog_causal/dog_causal_5.png"" style=""width: 300px; height: auto;"">
            </div>
            <!-- Event 2 on the right -->
            <div style=""text-align: center; margin-left: 20px;"">
              <p style=""font-size: 24px; font-weight: bold;"">Event 2</p>
              <img src=""images/causal/dog_causal/dog_causal_8.png"" style=""width: 300px; height: auto;"">
            </div>
          </div>
          <p style=""text-align: center; margin-top: 20px;"">Does Event 1 lead to Event 2?</p>","0","5","8","true"
"","","","","","html-button-response","33","289210","0.0-33.0","","5614","
          <div style=""display: flex; justify-content: center; align-items: center;"">
            <!-- Event 1 on the left -->
            <div style=""text-align: center; margin-right: 20px;"">
              <p style=""font-size: 24px; font-weight: bold;"">Event 1</p>
              <img src=""images/causal/dog_causal/dog_causal_4.png"" style=""width: 300px; height: auto;"">
            </div>
            <!-- Event 2 on the right -->
            <div style=""text-align: center; margin-left: 20px;"">
              <p style=""font-size: 24px; font-weight: bold;"">Event 2</p>
              <img src=""images/causal/dog_causal/dog_causal_8.png"" style=""width: 300px; height: auto;"">
            </div>
          </div>
          <p style=""text-align: center; margin-top: 20px;"">Does Event 1 lead to Event 2?</p>","2","4","8","true"
"","","","","","html-button-response","34","294720","0.0-34.0","","5509","
          <div style=""display: flex; justify-content: center; align-items: center;"">
            <!-- Event 1 on the left -->
            <div style=""text-align: center; margin-right: 20px;"">
              <p style=""font-size: 24px; font-weight: bold;"">Event 1</p>
              <img src=""images/causal/dog_causal/dog_causal_4.png"" style=""width: 300px; height: auto;"">
            </div>
            <!-- Event 2 on the right -->
            <div style=""text-align: center; margin-left: 20px;"">
              <p style=""font-size: 24px; font-weight: bold;"">Event 2</p>
              <img src=""images/causal/dog_causal/dog_causal_2.png"" style=""width: 300px; height: auto;"">
            </div>
          </div>
          <p style=""text-align: center; margin-top: 20px;"">Does Event 1 lead to Event 2?</p>","2","4","2","true"
"","","","","","html-button-response","35","300146","0.0-35.0","","5424","
          <div style=""display: flex; justify-content: center; align-items: center;"">
            <!-- Event 1 on the left -->
            <div style=""text-align: center; margin-right: 20px;"">
              <p style=""font-size: 24px; font-weight: bold;"">Event 1</p>
              <img src=""images/causal/dog_causal/dog_causal_2.png"" style=""width: 300px; height: auto;"">
            </div>
            <!-- Event 2 on the right -->
            <div style=""text-align: center; margin-left: 20px;"">
              <p style=""font-size: 24px; font-weight: bold;"">Event 2</p>
              <img src=""images/causal/dog_causal/dog_causal_10.png"" style=""width: 300px; height: auto;"">
            </div>
          </div>
          <p style=""text-align: center; margin-top: 20px;"">Does Event 1 lead to Event 2?</p>","2","2","10","true"
"","","","","","html-button-response","36","305639","0.0-36.0","","5492","
          <div style=""display: flex; justify-content: center; align-items: center;"">
            <!-- Event 1 on the left -->
            <div style=""text-align: center; margin-right: 20px;"">
              <p style=""font-size: 24px; font-weight: bold;"">Event 1</p>
              <img src=""images/causal/dog_causal/dog_causal_8.png"" style=""width: 300px; height: auto;"">
            </div>
            <!-- Event 2 on the right -->
            <div style=""text-align: center; margin-left: 20px;"">
              <p style=""font-size: 24px; font-weight: bold;"">Event 2</p>
              <img src=""images/causal/dog_causal/dog_causal_10.png"" style=""width: 300px; height: auto;"">
            </div>
          </div>
          <p style=""text-align: center; margin-top: 20px;"">Does Event 1 lead to Event 2?</p>","0","8","10","true"
"","","","","","html-button-response","37","311454","0.0-37.0","","5814","
          <div style=""display: flex; justify-content: center; align-items: center;"">
            <!-- Event 1 on the left -->
            <div style=""text-align: center; margin-right: 20px;"">
              <p style=""font-size: 24px; font-weight: bold;"">Event 1</p>
              <img src=""images/causal/dog_causal/dog_causal_7.png"" style=""width: 300px; height: auto;"">
            </div>
            <!-- Event 2 on the right -->
            <div style=""text-align: center; margin-left: 20px;"">
              <p style=""font-size: 24px; font-weight: bold;"">Event 2</p>
              <img src=""images/causal/dog_causal/dog_causal_2.png"" style=""width: 300px; height: auto;"">
            </div>
          </div>
          <p style=""text-align: center; margin-top: 20px;"">Does Event 1 lead to Event 2?</p>","2","7","2","true"
"","","","","","html-button-response","38","316836","0.0-38.0","","5381","
          <div style=""display: flex; justify-content: center; align-items: center;"">
            <!-- Event 1 on the left -->
            <div style=""text-align: center; margin-right: 20px;"">
              <p style=""font-size: 24px; font-weight: bold;"">Event 1</p>
              <img src=""images/causal/dog_causal/dog_causal_6.png"" style=""width: 300px; height: auto;"">
            </div>
            <!-- Event 2 on the right -->
            <div style=""text-align: center; margin-left: 20px;"">
              <p style=""font-size: 24px; font-weight: bold;"">Event 2</p>
              <img src=""images/causal/dog_causal/dog_causal_1.png"" style=""width: 300px; height: auto;"">
            </div>
          </div>
          <p style=""text-align: center; margin-top: 20px;"">Does Event 1 lead to Event 2?</p>","2","6","1","true"
"","","","","","html-button-response","39","322461","0.0-39.0","","5624","
          <div style=""display: flex; justify-content: center; align-items: center;"">
            <!-- Event 1 on the left -->
            <div style=""text-align: center; margin-right: 20px;"">
              <p style=""font-size: 24px; font-weight: bold;"">Event 1</p>
              <img src=""images/causal/dog_causal/dog_causal_9.png"" style=""width: 300px; height: auto;"">
            </div>
            <!-- Event 2 on the right -->
            <div style=""text-align: center; margin-left: 20px;"">
              <p style=""font-size: 24px; font-weight: bold;"">Event 2</p>
              <img src=""images/causal/dog_causal/dog_causal_7.png"" style=""width: 300px; height: auto;"">
            </div>
          </div>
          <p style=""text-align: center; margin-top: 20px;"">Does Event 1 lead to Event 2?</p>","1","9","7","true"
"","","","","","html-button-response","40","328086","0.0-40.0","","5623","
          <div style=""display: flex; justify-content: center; align-items: center;"">
            <!-- Event 1 on the left -->
            <div style=""text-align: center; margin-right: 20px;"">
              <p style=""font-size: 24px; font-weight: bold;"">Event 1</p>
              <img src=""images/causal/dog_causal/dog_causal_10.png"" style=""width: 300px; height: auto;"">
            </div>
            <!-- Event 2 on the right -->
            <div style=""text-align: center; margin-left: 20px;"">
              <p style=""font-size: 24px; font-weight: bold;"">Event 2</p>
              <img src=""images/causal/dog_causal/dog_causal_1.png"" style=""width: 300px; height: auto;"">
            </div>
          </div>
          <p style=""text-align: center; margin-top: 20px;"">Does Event 1 lead to Event 2?</p>","2","10","1","true"
"","","","","","html-button-response","41","333695","0.0-41.0","","5608","
          <div style=""display: flex; justify-content: center; align-items: center;"">
            <!-- Event 1 on the left -->
            <div style=""text-align: center; margin-right: 20px;"">
              <p style=""font-size: 24px; font-weight: bold;"">Event 1</p>
              <img src=""images/causal/dog_causal/dog_causal_8.png"" style=""width: 300px; height: auto;"">
            </div>
            <!-- Event 2 on the right -->
            <div style=""text-align: center; margin-left: 20px;"">
              <p style=""font-size: 24px; font-weight: bold;"">Event 2</p>
              <img src=""images/causal/dog_causal/dog_causal_7.png"" style=""width: 300px; height: auto;"">
            </div>
          </div>
          <p style=""text-align: center; margin-top: 20px;"">Does Event 1 lead to Event 2?</p>","1","8","7","true"
"","","","","","html-button-response","42","339402","0.0-42.0","","5706","
          <div style=""display: flex; justify-content: center; align-items: center;"">
            <!-- Event 1 on the left -->
            <div style=""text-align: center; margin-right: 20px;"">
              <p style=""font-size: 24px; font-weight: bold;"">Event 1</p>
              <img src=""images/causal/dog_causal/dog_causal_7.png"" style=""width: 300px; height: auto;"">
            </div>
            <!-- Event 2 on the right -->
            <div style=""text-align: center; margin-left: 20px;"">
              <p style=""font-size: 24px; font-weight: bold;"">Event 2</p>
              <img src=""images/causal/dog_causal/dog_causal_4.png"" style=""width: 300px; height: auto;"">
            </div>
          </div>
          <p style=""text-align: center; margin-top: 20px;"">Does Event 1 lead to Event 2?</p>","1","7","4","true"
"","","","","","html-button-response","43","344897","0.0-43.0","","5493","
          <div style=""display: flex; justify-content: center; align-items: center;"">
            <!-- Event 1 on the left -->
            <div style=""text-align: center; margin-right: 20px;"">
              <p style=""font-size: 24px; font-weight: bold;"">Event 1</p>
              <img src=""images/causal/dog_causal/dog_causal_3.png"" style=""width: 300px; height: auto;"">
            </div>
            <!-- Event 2 on the right -->
            <div style=""text-align: center; margin-left: 20px;"">
              <p style=""font-size: 24px; font-weight: bold;"">Event 2</p>
              <img src=""images/causal/dog_causal/dog_causal_5.png"" style=""width: 300px; height: auto;"">
            </div>
          </div>
          <p style=""text-align: center; margin-top: 20px;"">Does Event 1 lead to Event 2?</p>","2","3","5","true"
"","","","","","html-button-response","44","350422","0.0-44.0","","5524","
          <div style=""display: flex; justify-content: center; align-items: center;"">
            <!-- Event 1 on the left -->
            <div style=""text-align: center; margin-right: 20px;"">
              <p style=""font-size: 24px; font-weight: bold;"">Event 1</p>
              <img src=""images/causal/dog_causal/dog_causal_6.png"" style=""width: 300px; height: auto;"">
            </div>
            <!-- Event 2 on the right -->
            <div style=""text-align: center; margin-left: 20px;"">
              <p style=""font-size: 24px; font-weight: bold;"">Event 2</p>
              <img src=""images/causal/dog_causal/dog_causal_2.png"" style=""width: 300px; height: auto;"">
            </div>
          </div>
          <p style=""text-align: center; margin-top: 20px;"">Does Event 1 lead to Event 2?</p>","2","6","2","true"
"","","","","","html-button-response","45","355841","0.0-45.0","","5418","
          <div style=""display: flex; justify-content: center; align-items: center;"">
            <!-- Event 1 on the left -->
            <div style=""text-align: center; margin-right: 20px;"">
              <p style=""font-size: 24px; font-weight: bold;"">Event 1</p>
              <img src=""images/causal/dog_causal/dog_causal_3.png"" style=""width: 300px; height: auto;"">
            </div>
            <!-- Event 2 on the right -->
            <div style=""text-align: center; margin-left: 20px;"">
              <p style=""font-size: 24px; font-weight: bold;"">Event 2</p>
              <img src=""images/causal/dog_causal/dog_causal_9.png"" style=""width: 300px; height: auto;"">
            </div>
          </div>
          <p style=""text-align: center; margin-top: 20px;"">Does Event 1 lead to Event 2?</p>","2","3","9","true"
"","","","","","html-button-response","46","361640","0.0-46.0","","5799","
          <div style=""display: flex; justify-content: center; align-items: center;"">
            <!-- Event 1 on the left -->
            <div style=""text-align: center; margin-right: 20px;"">
              <p style=""font-size: 24px; font-weight: bold;"">Event 1</p>
              <img src=""images/causal/dog_causal/dog_causal_3.png"" style=""width: 300px; height: auto;"">
            </div>
            <!-- Event 2 on the right -->
            <div style=""text-align: center; margin-left: 20px;"">
              <p style=""font-size: 24px; font-weight: bold;"">Event 2</p>
              <img src=""images/causal/dog_causal/dog_causal_7.png"" style=""width: 300px; height: auto;"">
            </div>
          </div>
          <p style=""text-align: center; margin-top: 20px;"">Does Event 1 lead to Event 2?</p>","2","3","7","true"
"","","","","","instructions","47","376502","0.0-47.0","[{""page_index"":0,""viewing_time"":14861}]","14861","","","","",""
