"success","timeout","failed_images","failed_audio","failed_video","trial_type","trial_index","time_elapsed","internal_node_id","subject","subject_id","study_id","session_id","urlvar","current_url","view_history","rt","stimulus","response","choice","question_order"
"true","false","[]","[]","[]","preload","0","7626","0.0-0.0","6C1964B0357642AD8167B7329869BDF4","6C1964B0357642AD8167B7329869BDF4","e20837ab-4b65-4bb8-a6ba-706a8107f8ea","54f8d589-66fc-4c65-830f-1dcc63bce8cc","{""participantId"":""6C1964B0357642AD8167B7329869BDF4"",""assignmentId"":""e20837ab-4b65-4bb8-a6ba-706a8107f8ea"",""projectId"":""54f8d589-66fc-4c65-830f-1dcc63bce8cc""}","https://test12345.live/?participantId=6C1964B0357642AD8167B7329869BDF4&assignmentId=e20837ab-4b65-4bb8-a6ba-706a8107f8ea&projectId=54f8d589-66fc-4c65-830f-1dcc63bce8cc","","","","","",""
"","","","","","instructions","1","9914","0.0-1.0","6C1964B0357642AD8167B7329869BDF4","6C1964B0357642AD8167B7329869BDF4","e20837ab-4b65-4bb8-a6ba-706a8107f8ea","54f8d589-66fc-4c65-830f-1dcc63bce8cc","{""participantId"":""6C1964B0357642AD8167B7329869BDF4"",""assignmentId"":""e20837ab-4b65-4bb8-a6ba-706a8107f8ea"",""projectId"":""54f8d589-66fc-4c65-830f-1dcc63bce8cc""}","https://test12345.live/?participantId=6C1964B0357642AD8167B7329869BDF4&assignmentId=e20837ab-4b65-4bb8-a6ba-706a8107f8ea&projectId=54f8d589-66fc-4c65-830f-1dcc63bce8cc","[{""page_index"":0,""viewing_time"":2286}]","2287","","","",""
"","","","","","instructions","2","85250","0.0-2.0","6C1964B0357642AD8167B7329869BDF4","6C1964B0357642AD8167B7329869BDF4","e20837ab-4b65-4bb8-a6ba-706a8107f8ea","54f8d589-66fc-4c65-830f-1dcc63bce8cc","{""participantId"":""6C1964B0357642AD8167B7329869BDF4"",""assignmentId"":""e20837ab-4b65-4bb8-a6ba-706a8107f8ea"",""projectId"":""54f8d589-66fc-4c65-830f-1dcc63bce8cc""}","https://test12345.live/?participantId=6C1964B0357642AD8167B7329869BDF4&assignmentId=e20837ab-4b65-4bb8-a6ba-706a8107f8ea&projectId=54f8d589-66fc-4c65-830f-1dcc63bce8cc","[{""page_index"":0,""viewing_time"":75333}]","75334","","","",""
"true","","","","","fullscreen","3","87829","0.0-3.0","6C1964B0357642AD8167B7329869BDF4","6C1964B0357642AD8167B7329869BDF4","e20837ab-4b65-4bb8-a6ba-706a8107f8ea","54f8d589-66fc-4c65-830f-1dcc63bce8cc","{""participantId"":""6C1964B0357642AD8167B7329869BDF4"",""assignmentId"":""e20837ab-4b65-4bb8-a6ba-706a8107f8ea"",""projectId"":""54f8d589-66fc-4c65-830f-1dcc63bce8cc""}","https://test12345.live/?participantId=6C1964B0357642AD8167B7329869BDF4&assignmentId=e20837ab-4b65-4bb8-a6ba-706a8107f8ea&projectId=54f8d589-66fc-4c65-830f-1dcc63bce8cc","","1563","","","",""
"","","","","","instructions","4","91110","0.0-4.0","6C1964B0357642AD8167B7329869BDF4","6C1964B0357642AD8167B7329869BDF4","e20837ab-4b65-4bb8-a6ba-706a8107f8ea","54f8d589-66fc-4c65-830f-1dcc63bce8cc","{""participantId"":""6C1964B0357642AD8167B7329869BDF4"",""assignmentId"":""e20837ab-4b65-4bb8-a6ba-706a8107f8ea"",""projectId"":""54f8d589-66fc-4c65-830f-1dcc63bce8cc""}","https://test12345.live/?participantId=6C1964B0357642AD8167B7329869BDF4&assignmentId=e20837ab-4b65-4bb8-a6ba-706a8107f8ea&projectId=54f8d589-66fc-4c65-830f-1dcc63bce8cc","[{""page_index"":0,""viewing_time"":3279}]","3280","","","",""
"","","","","","html-button-response","5","93743","0.0-5.0","6C1964B0357642AD8167B7329869BDF4","6C1964B0357642AD8167B7329869BDF4","e20837ab-4b65-4bb8-a6ba-706a8107f8ea","54f8d589-66fc-4c65-830f-1dcc63bce8cc","{""participantId"":""6C1964B0357642AD8167B7329869BDF4"",""assignmentId"":""e20837ab-4b65-4bb8-a6ba-706a8107f8ea"",""projectId"":""54f8d589-66fc-4c65-830f-1dcc63bce8cc""}","https://test12345.live/?participantId=6C1964B0357642AD8167B7329869BDF4&assignmentId=e20837ab-4b65-4bb8-a6ba-706a8107f8ea&projectId=54f8d589-66fc-4c65-830f-1dcc63bce8cc","","2630","
    <div style=""display: flex; justify-content: center; align-items: center;"">
      <img src=""images/red_deck_2.png"" style=""width: 300px; height: 300px; margin-right: 10px;"" />
      <img src=""images/blue_deck_1.png"" style=""width: 300px; height: 300px;"" />
    </div>","1","1",""
"","","","","","html-keyboard-response","6","96749","0.0-7.0-0.0","6C1964B0357642AD8167B7329869BDF4","6C1964B0357642AD8167B7329869BDF4","e20837ab-4b65-4bb8-a6ba-706a8107f8ea","54f8d589-66fc-4c65-830f-1dcc63bce8cc","{""participantId"":""6C1964B0357642AD8167B7329869BDF4"",""assignmentId"":""e20837ab-4b65-4bb8-a6ba-706a8107f8ea"",""projectId"":""54f8d589-66fc-4c65-830f-1dcc63bce8cc""}","https://test12345.live/?participantId=6C1964B0357642AD8167B7329869BDF4&assignmentId=e20837ab-4b65-4bb8-a6ba-706a8107f8ea&projectId=54f8d589-66fc-4c65-830f-1dcc63bce8cc","","null","<div style=""display: flex; justify-content: center; align-items: center;"">
                    <img src=""images/semantic/semantic_series_6/semantic_series_6_a.jpg"" style=""width: 300px; height: 300px;"" />
                  </div>","null","",""
"","","","","","html-keyboard-response","7","99757","0.0-7.0-1.0","6C1964B0357642AD8167B7329869BDF4","6C1964B0357642AD8167B7329869BDF4","e20837ab-4b65-4bb8-a6ba-706a8107f8ea","54f8d589-66fc-4c65-830f-1dcc63bce8cc","{""participantId"":""6C1964B0357642AD8167B7329869BDF4"",""assignmentId"":""e20837ab-4b65-4bb8-a6ba-706a8107f8ea"",""projectId"":""54f8d589-66fc-4c65-830f-1dcc63bce8cc""}","https://test12345.live/?participantId=6C1964B0357642AD8167B7329869BDF4&assignmentId=e20837ab-4b65-4bb8-a6ba-706a8107f8ea&projectId=54f8d589-66fc-4c65-830f-1dcc63bce8cc","","null","<div style=""display: flex; justify-content: center; align-items: center;"">
                    <img src=""images/semantic/semantic_series_6/semantic_series_6_b.jpg"" style=""width: 300px; height: 300px;"" />
                  </div>","null","",""
"","","","","","html-keyboard-response","8","102765","0.0-7.0-2.0","6C1964B0357642AD8167B7329869BDF4","6C1964B0357642AD8167B7329869BDF4","e20837ab-4b65-4bb8-a6ba-706a8107f8ea","54f8d589-66fc-4c65-830f-1dcc63bce8cc","{""participantId"":""6C1964B0357642AD8167B7329869BDF4"",""assignmentId"":""e20837ab-4b65-4bb8-a6ba-706a8107f8ea"",""projectId"":""54f8d589-66fc-4c65-830f-1dcc63bce8cc""}","https://test12345.live/?participantId=6C1964B0357642AD8167B7329869BDF4&assignmentId=e20837ab-4b65-4bb8-a6ba-706a8107f8ea&projectId=54f8d589-66fc-4c65-830f-1dcc63bce8cc","","null","<div style=""display: flex; justify-content: center; align-items: center;"">
                    <img src=""images/semantic/semantic_series_6/semantic_series_6_c.jpg"" style=""width: 300px; height: 300px;"" />
                  </div>","null","",""
"","","","","","html-keyboard-response","9","105774","0.0-7.0-3.0","6C1964B0357642AD8167B7329869BDF4","6C1964B0357642AD8167B7329869BDF4","e20837ab-4b65-4bb8-a6ba-706a8107f8ea","54f8d589-66fc-4c65-830f-1dcc63bce8cc","{""participantId"":""6C1964B0357642AD8167B7329869BDF4"",""assignmentId"":""e20837ab-4b65-4bb8-a6ba-706a8107f8ea"",""projectId"":""54f8d589-66fc-4c65-830f-1dcc63bce8cc""}","https://test12345.live/?participantId=6C1964B0357642AD8167B7329869BDF4&assignmentId=e20837ab-4b65-4bb8-a6ba-706a8107f8ea&projectId=54f8d589-66fc-4c65-830f-1dcc63bce8cc","","null","<div style=""display: flex; justify-content: center; align-items: center;"">
                    <img src=""images/semantic/semantic_series_6/semantic_series_6_d.jpg"" style=""width: 300px; height: 300px;"" />
                  </div>","null","",""
"","","","","","html-button-response","10","108021","0.0-8.0","6C1964B0357642AD8167B7329869BDF4","6C1964B0357642AD8167B7329869BDF4","e20837ab-4b65-4bb8-a6ba-706a8107f8ea","54f8d589-66fc-4c65-830f-1dcc63bce8cc","{""participantId"":""6C1964B0357642AD8167B7329869BDF4"",""assignmentId"":""e20837ab-4b65-4bb8-a6ba-706a8107f8ea"",""projectId"":""54f8d589-66fc-4c65-830f-1dcc63bce8cc""}","https://test12345.live/?participantId=6C1964B0357642AD8167B7329869BDF4&assignmentId=e20837ab-4b65-4bb8-a6ba-706a8107f8ea&projectId=54f8d589-66fc-4c65-830f-1dcc63bce8cc","","2246","Was there a person in the picture?","1","",""
"","","","","","survey-likert","11","110482","0.0-9.0","6C1964B0357642AD8167B7329869BDF4","6C1964B0357642AD8167B7329869BDF4","e20837ab-4b65-4bb8-a6ba-706a8107f8ea","54f8d589-66fc-4c65-830f-1dcc63bce8cc","{""participantId"":""6C1964B0357642AD8167B7329869BDF4"",""assignmentId"":""e20837ab-4b65-4bb8-a6ba-706a8107f8ea"",""projectId"":""54f8d589-66fc-4c65-830f-1dcc63bce8cc""}","https://test12345.live/?participantId=6C1964B0357642AD8167B7329869BDF4&assignmentId=e20837ab-4b65-4bb8-a6ba-706a8107f8ea&projectId=54f8d589-66fc-4c65-830f-1dcc63bce8cc","","2456","","{""Q0"":3}","","[0]"
"","","","","","html-button-response","12","111826","0.0-10.0","6C1964B0357642AD8167B7329869BDF4","6C1964B0357642AD8167B7329869BDF4","e20837ab-4b65-4bb8-a6ba-706a8107f8ea","54f8d589-66fc-4c65-830f-1dcc63bce8cc","{""participantId"":""6C1964B0357642AD8167B7329869BDF4"",""assignmentId"":""e20837ab-4b65-4bb8-a6ba-706a8107f8ea"",""projectId"":""54f8d589-66fc-4c65-830f-1dcc63bce8cc""}","https://test12345.live/?participantId=6C1964B0357642AD8167B7329869BDF4&assignmentId=e20837ab-4b65-4bb8-a6ba-706a8107f8ea&projectId=54f8d589-66fc-4c65-830f-1dcc63bce8cc","","1339","
    <div style=""display: flex; justify-content: center; align-items: center;"">
      <img src=""images/red_deck_2.png"" style=""width: 300px; height: 300px; margin-right: 10px;"" />
      <img src=""images/blue_deck_1.png"" style=""width: 300px; height: 300px;"" />
    </div>","0","0",""
"","","","","","html-keyboard-response","13","114830","0.0-11.0-0.0","6C1964B0357642AD8167B7329869BDF4","6C1964B0357642AD8167B7329869BDF4","e20837ab-4b65-4bb8-a6ba-706a8107f8ea","54f8d589-66fc-4c65-830f-1dcc63bce8cc","{""participantId"":""6C1964B0357642AD8167B7329869BDF4"",""assignmentId"":""e20837ab-4b65-4bb8-a6ba-706a8107f8ea"",""projectId"":""54f8d589-66fc-4c65-830f-1dcc63bce8cc""}","https://test12345.live/?participantId=6C1964B0357642AD8167B7329869BDF4&assignmentId=e20837ab-4b65-4bb8-a6ba-706a8107f8ea&projectId=54f8d589-66fc-4c65-830f-1dcc63bce8cc","","null","<div style=""display: flex; justify-content: center; align-items: center;"">
                    <img src=""images/causal/causal_series_12/causal_series_12_a.jpg"" style=""width: 300px; height: 300px;"" />
                  </div>","null","",""
"","","","","","html-keyboard-response","14","117837","0.0-11.0-1.0","6C1964B0357642AD8167B7329869BDF4","6C1964B0357642AD8167B7329869BDF4","e20837ab-4b65-4bb8-a6ba-706a8107f8ea","54f8d589-66fc-4c65-830f-1dcc63bce8cc","{""participantId"":""6C1964B0357642AD8167B7329869BDF4"",""assignmentId"":""e20837ab-4b65-4bb8-a6ba-706a8107f8ea"",""projectId"":""54f8d589-66fc-4c65-830f-1dcc63bce8cc""}","https://test12345.live/?participantId=6C1964B0357642AD8167B7329869BDF4&assignmentId=e20837ab-4b65-4bb8-a6ba-706a8107f8ea&projectId=54f8d589-66fc-4c65-830f-1dcc63bce8cc","","null","<div style=""display: flex; justify-content: center; align-items: center;"">
                    <img src=""images/causal/causal_series_12/causal_series_12_b.jpg"" style=""width: 300px; height: 300px;"" />
                  </div>","null","",""
"","","","","","html-keyboard-response","15","120845","0.0-11.0-2.0","6C1964B0357642AD8167B7329869BDF4","6C1964B0357642AD8167B7329869BDF4","e20837ab-4b65-4bb8-a6ba-706a8107f8ea","54f8d589-66fc-4c65-830f-1dcc63bce8cc","{""participantId"":""6C1964B0357642AD8167B7329869BDF4"",""assignmentId"":""e20837ab-4b65-4bb8-a6ba-706a8107f8ea"",""projectId"":""54f8d589-66fc-4c65-830f-1dcc63bce8cc""}","https://test12345.live/?participantId=6C1964B0357642AD8167B7329869BDF4&assignmentId=e20837ab-4b65-4bb8-a6ba-706a8107f8ea&projectId=54f8d589-66fc-4c65-830f-1dcc63bce8cc","","null","<div style=""display: flex; justify-content: center; align-items: center;"">
                    <img src=""images/causal/causal_series_12/causal_series_12_c.jpg"" style=""width: 300px; height: 300px;"" />
                  </div>","null","",""
"","","","","","html-keyboard-response","16","123853","0.0-11.0-3.0","6C1964B0357642AD8167B7329869BDF4","6C1964B0357642AD8167B7329869BDF4","e20837ab-4b65-4bb8-a6ba-706a8107f8ea","54f8d589-66fc-4c65-830f-1dcc63bce8cc","{""participantId"":""6C1964B0357642AD8167B7329869BDF4"",""assignmentId"":""e20837ab-4b65-4bb8-a6ba-706a8107f8ea"",""projectId"":""54f8d589-66fc-4c65-830f-1dcc63bce8cc""}","https://test12345.live/?participantId=6C1964B0357642AD8167B7329869BDF4&assignmentId=e20837ab-4b65-4bb8-a6ba-706a8107f8ea&projectId=54f8d589-66fc-4c65-830f-1dcc63bce8cc","","null","<div style=""display: flex; justify-content: center; align-items: center;"">
                    <img src=""images/causal/causal_series_12/causal_series_12_d.jpg"" style=""width: 300px; height: 300px;"" />
                  </div>","null","",""
"","","","","","html-button-response","17","125423","0.0-13.0","6C1964B0357642AD8167B7329869BDF4","6C1964B0357642AD8167B7329869BDF4","e20837ab-4b65-4bb8-a6ba-706a8107f8ea","54f8d589-66fc-4c65-830f-1dcc63bce8cc","{""participantId"":""6C1964B0357642AD8167B7329869BDF4"",""assignmentId"":""e20837ab-4b65-4bb8-a6ba-706a8107f8ea"",""projectId"":""54f8d589-66fc-4c65-830f-1dcc63bce8cc""}","https://test12345.live/?participantId=6C1964B0357642AD8167B7329869BDF4&assignmentId=e20837ab-4b65-4bb8-a6ba-706a8107f8ea&projectId=54f8d589-66fc-4c65-830f-1dcc63bce8cc","","1569","Was there a person in the picture?","1","",""
"","","","","","survey-likert","18","128495","0.0-14.0","6C1964B0357642AD8167B7329869BDF4","6C1964B0357642AD8167B7329869BDF4","e20837ab-4b65-4bb8-a6ba-706a8107f8ea","54f8d589-66fc-4c65-830f-1dcc63bce8cc","{""participantId"":""6C1964B0357642AD8167B7329869BDF4"",""assignmentId"":""e20837ab-4b65-4bb8-a6ba-706a8107f8ea"",""projectId"":""54f8d589-66fc-4c65-830f-1dcc63bce8cc""}","https://test12345.live/?participantId=6C1964B0357642AD8167B7329869BDF4&assignmentId=e20837ab-4b65-4bb8-a6ba-706a8107f8ea&projectId=54f8d589-66fc-4c65-830f-1dcc63bce8cc","","3070","","{""Q0"":2}","","[0]"
"","","","","","html-button-response","19","130269","0.0-15.0","6C1964B0357642AD8167B7329869BDF4","6C1964B0357642AD8167B7329869BDF4","e20837ab-4b65-4bb8-a6ba-706a8107f8ea","54f8d589-66fc-4c65-830f-1dcc63bce8cc","{""participantId"":""6C1964B0357642AD8167B7329869BDF4"",""assignmentId"":""e20837ab-4b65-4bb8-a6ba-706a8107f8ea"",""projectId"":""54f8d589-66fc-4c65-830f-1dcc63bce8cc""}","https://test12345.live/?participantId=6C1964B0357642AD8167B7329869BDF4&assignmentId=e20837ab-4b65-4bb8-a6ba-706a8107f8ea&projectId=54f8d589-66fc-4c65-830f-1dcc63bce8cc","","1768","
    <div style=""display: flex; justify-content: center; align-items: center;"">
      <img src=""images/red_deck_2.png"" style=""width: 300px; height: 300px; margin-right: 10px;"" />
      <img src=""images/blue_deck_1.png"" style=""width: 300px; height: 300px;"" />
    </div>","1","1",""
"","","","","","html-keyboard-response","20","133277","0.0-17.0-0.0","6C1964B0357642AD8167B7329869BDF4","6C1964B0357642AD8167B7329869BDF4","e20837ab-4b65-4bb8-a6ba-706a8107f8ea","54f8d589-66fc-4c65-830f-1dcc63bce8cc","{""participantId"":""6C1964B0357642AD8167B7329869BDF4"",""assignmentId"":""e20837ab-4b65-4bb8-a6ba-706a8107f8ea"",""projectId"":""54f8d589-66fc-4c65-830f-1dcc63bce8cc""}","https://test12345.live/?participantId=6C1964B0357642AD8167B7329869BDF4&assignmentId=e20837ab-4b65-4bb8-a6ba-706a8107f8ea&projectId=54f8d589-66fc-4c65-830f-1dcc63bce8cc","","null","<div style=""display: flex; justify-content: center; align-items: center;"">
                    <img src=""images/semantic/semantic_series_5/semantic_series_5_a.jpg"" style=""width: 300px; height: 300px;"" />
                  </div>","null","",""
"","","","","","html-keyboard-response","21","136285","0.0-17.0-1.0","6C1964B0357642AD8167B7329869BDF4","6C1964B0357642AD8167B7329869BDF4","e20837ab-4b65-4bb8-a6ba-706a8107f8ea","54f8d589-66fc-4c65-830f-1dcc63bce8cc","{""participantId"":""6C1964B0357642AD8167B7329869BDF4"",""assignmentId"":""e20837ab-4b65-4bb8-a6ba-706a8107f8ea"",""projectId"":""54f8d589-66fc-4c65-830f-1dcc63bce8cc""}","https://test12345.live/?participantId=6C1964B0357642AD8167B7329869BDF4&assignmentId=e20837ab-4b65-4bb8-a6ba-706a8107f8ea&projectId=54f8d589-66fc-4c65-830f-1dcc63bce8cc","","null","<div style=""display: flex; justify-content: center; align-items: center;"">
                    <img src=""images/semantic/semantic_series_5/semantic_series_5_b.jpg"" style=""width: 300px; height: 300px;"" />
                  </div>","null","",""
"","","","","","html-keyboard-response","22","139293","0.0-17.0-2.0","6C1964B0357642AD8167B7329869BDF4","6C1964B0357642AD8167B7329869BDF4","e20837ab-4b65-4bb8-a6ba-706a8107f8ea","54f8d589-66fc-4c65-830f-1dcc63bce8cc","{""participantId"":""6C1964B0357642AD8167B7329869BDF4"",""assignmentId"":""e20837ab-4b65-4bb8-a6ba-706a8107f8ea"",""projectId"":""54f8d589-66fc-4c65-830f-1dcc63bce8cc""}","https://test12345.live/?participantId=6C1964B0357642AD8167B7329869BDF4&assignmentId=e20837ab-4b65-4bb8-a6ba-706a8107f8ea&projectId=54f8d589-66fc-4c65-830f-1dcc63bce8cc","","null","<div style=""display: flex; justify-content: center; align-items: center;"">
                    <img src=""images/semantic/semantic_series_5/semantic_series_5_c.jpg"" style=""width: 300px; height: 300px;"" />
                  </div>","null","",""
"","","","","","html-keyboard-response","23","142301","0.0-17.0-3.0","6C1964B0357642AD8167B7329869BDF4","6C1964B0357642AD8167B7329869BDF4","e20837ab-4b65-4bb8-a6ba-706a8107f8ea","54f8d589-66fc-4c65-830f-1dcc63bce8cc","{""participantId"":""6C1964B0357642AD8167B7329869BDF4"",""assignmentId"":""e20837ab-4b65-4bb8-a6ba-706a8107f8ea"",""projectId"":""54f8d589-66fc-4c65-830f-1dcc63bce8cc""}","https://test12345.live/?participantId=6C1964B0357642AD8167B7329869BDF4&assignmentId=e20837ab-4b65-4bb8-a6ba-706a8107f8ea&projectId=54f8d589-66fc-4c65-830f-1dcc63bce8cc","","null","<div style=""display: flex; justify-content: center; align-items: center;"">
                    <img src=""images/semantic/semantic_series_5/semantic_series_5_d.jpg"" style=""width: 300px; height: 300px;"" />
                  </div>","null","",""
"","","","","","html-button-response","24","143522","0.0-18.0","6C1964B0357642AD8167B7329869BDF4","6C1964B0357642AD8167B7329869BDF4","e20837ab-4b65-4bb8-a6ba-706a8107f8ea","54f8d589-66fc-4c65-830f-1dcc63bce8cc","{""participantId"":""6C1964B0357642AD8167B7329869BDF4"",""assignmentId"":""e20837ab-4b65-4bb8-a6ba-706a8107f8ea"",""projectId"":""54f8d589-66fc-4c65-830f-1dcc63bce8cc""}","https://test12345.live/?participantId=6C1964B0357642AD8167B7329869BDF4&assignmentId=e20837ab-4b65-4bb8-a6ba-706a8107f8ea&projectId=54f8d589-66fc-4c65-830f-1dcc63bce8cc","","1219","Was there a person in the picture?","0","",""
"","","","","","survey-likert","25","145995","0.0-19.0","6C1964B0357642AD8167B7329869BDF4","6C1964B0357642AD8167B7329869BDF4","e20837ab-4b65-4bb8-a6ba-706a8107f8ea","54f8d589-66fc-4c65-830f-1dcc63bce8cc","{""participantId"":""6C1964B0357642AD8167B7329869BDF4"",""assignmentId"":""e20837ab-4b65-4bb8-a6ba-706a8107f8ea"",""projectId"":""54f8d589-66fc-4c65-830f-1dcc63bce8cc""}","https://test12345.live/?participantId=6C1964B0357642AD8167B7329869BDF4&assignmentId=e20837ab-4b65-4bb8-a6ba-706a8107f8ea&projectId=54f8d589-66fc-4c65-830f-1dcc63bce8cc","","2471","","{""Q0"":2}","","[0]"
"","","","","","html-button-response","26","146986","0.0-20.0","6C1964B0357642AD8167B7329869BDF4","6C1964B0357642AD8167B7329869BDF4","e20837ab-4b65-4bb8-a6ba-706a8107f8ea","54f8d589-66fc-4c65-830f-1dcc63bce8cc","{""participantId"":""6C1964B0357642AD8167B7329869BDF4"",""assignmentId"":""e20837ab-4b65-4bb8-a6ba-706a8107f8ea"",""projectId"":""54f8d589-66fc-4c65-830f-1dcc63bce8cc""}","https://test12345.live/?participantId=6C1964B0357642AD8167B7329869BDF4&assignmentId=e20837ab-4b65-4bb8-a6ba-706a8107f8ea&projectId=54f8d589-66fc-4c65-830f-1dcc63bce8cc","","985","
    <div style=""display: flex; justify-content: center; align-items: center;"">
      <img src=""images/red_deck_2.png"" style=""width: 300px; height: 300px; margin-right: 10px;"" />
      <img src=""images/blue_deck_1.png"" style=""width: 300px; height: 300px;"" />
    </div>","1","1",""
"","","","","","html-keyboard-response","27","149997","0.0-22.0-0.0","6C1964B0357642AD8167B7329869BDF4","6C1964B0357642AD8167B7329869BDF4","e20837ab-4b65-4bb8-a6ba-706a8107f8ea","54f8d589-66fc-4c65-830f-1dcc63bce8cc","{""participantId"":""6C1964B0357642AD8167B7329869BDF4"",""assignmentId"":""e20837ab-4b65-4bb8-a6ba-706a8107f8ea"",""projectId"":""54f8d589-66fc-4c65-830f-1dcc63bce8cc""}","https://test12345.live/?participantId=6C1964B0357642AD8167B7329869BDF4&assignmentId=e20837ab-4b65-4bb8-a6ba-706a8107f8ea&projectId=54f8d589-66fc-4c65-830f-1dcc63bce8cc","","null","<div style=""display: flex; justify-content: center; align-items: center;"">
                    <img src=""images/semantic/semantic_series_14/semantic_series_14_a.jpg"" style=""width: 300px; height: 300px;"" />
                  </div>","null","",""
"","","","","","html-keyboard-response","28","153005","0.0-22.0-1.0","6C1964B0357642AD8167B7329869BDF4","6C1964B0357642AD8167B7329869BDF4","e20837ab-4b65-4bb8-a6ba-706a8107f8ea","54f8d589-66fc-4c65-830f-1dcc63bce8cc","{""participantId"":""6C1964B0357642AD8167B7329869BDF4"",""assignmentId"":""e20837ab-4b65-4bb8-a6ba-706a8107f8ea"",""projectId"":""54f8d589-66fc-4c65-830f-1dcc63bce8cc""}","https://test12345.live/?participantId=6C1964B0357642AD8167B7329869BDF4&assignmentId=e20837ab-4b65-4bb8-a6ba-706a8107f8ea&projectId=54f8d589-66fc-4c65-830f-1dcc63bce8cc","","null","<div style=""display: flex; justify-content: center; align-items: center;"">
                    <img src=""images/semantic/semantic_series_14/semantic_series_14_b.jpg"" style=""width: 300px; height: 300px;"" />
                  </div>","null","",""
"","","","","","html-keyboard-response","29","156012","0.0-22.0-2.0","6C1964B0357642AD8167B7329869BDF4","6C1964B0357642AD8167B7329869BDF4","e20837ab-4b65-4bb8-a6ba-706a8107f8ea","54f8d589-66fc-4c65-830f-1dcc63bce8cc","{""participantId"":""6C1964B0357642AD8167B7329869BDF4"",""assignmentId"":""e20837ab-4b65-4bb8-a6ba-706a8107f8ea"",""projectId"":""54f8d589-66fc-4c65-830f-1dcc63bce8cc""}","https://test12345.live/?participantId=6C1964B0357642AD8167B7329869BDF4&assignmentId=e20837ab-4b65-4bb8-a6ba-706a8107f8ea&projectId=54f8d589-66fc-4c65-830f-1dcc63bce8cc","","null","<div style=""display: flex; justify-content: center; align-items: center;"">
                    <img src=""images/semantic/semantic_series_14/semantic_series_14_c.jpg"" style=""width: 300px; height: 300px;"" />
                  </div>","null","",""
"","","","","","html-keyboard-response","30","159021","0.0-22.0-3.0","6C1964B0357642AD8167B7329869BDF4","6C1964B0357642AD8167B7329869BDF4","e20837ab-4b65-4bb8-a6ba-706a8107f8ea","54f8d589-66fc-4c65-830f-1dcc63bce8cc","{""participantId"":""6C1964B0357642AD8167B7329869BDF4"",""assignmentId"":""e20837ab-4b65-4bb8-a6ba-706a8107f8ea"",""projectId"":""54f8d589-66fc-4c65-830f-1dcc63bce8cc""}","https://test12345.live/?participantId=6C1964B0357642AD8167B7329869BDF4&assignmentId=e20837ab-4b65-4bb8-a6ba-706a8107f8ea&projectId=54f8d589-66fc-4c65-830f-1dcc63bce8cc","","null","<div style=""display: flex; justify-content: center; align-items: center;"">
                    <img src=""images/semantic/semantic_series_14/semantic_series_14_d.jpg"" style=""width: 300px; height: 300px;"" />
                  </div>","null","",""
"","","","","","html-button-response","31","160495","0.0-23.0","6C1964B0357642AD8167B7329869BDF4","6C1964B0357642AD8167B7329869BDF4","e20837ab-4b65-4bb8-a6ba-706a8107f8ea","54f8d589-66fc-4c65-830f-1dcc63bce8cc","{""participantId"":""6C1964B0357642AD8167B7329869BDF4"",""assignmentId"":""e20837ab-4b65-4bb8-a6ba-706a8107f8ea"",""projectId"":""54f8d589-66fc-4c65-830f-1dcc63bce8cc""}","https://test12345.live/?participantId=6C1964B0357642AD8167B7329869BDF4&assignmentId=e20837ab-4b65-4bb8-a6ba-706a8107f8ea&projectId=54f8d589-66fc-4c65-830f-1dcc63bce8cc","","1473","Was there a person in the picture?","0","",""
"","","","","","survey-likert","32","162283","0.0-24.0","6C1964B0357642AD8167B7329869BDF4","6C1964B0357642AD8167B7329869BDF4","e20837ab-4b65-4bb8-a6ba-706a8107f8ea","54f8d589-66fc-4c65-830f-1dcc63bce8cc","{""participantId"":""6C1964B0357642AD8167B7329869BDF4"",""assignmentId"":""e20837ab-4b65-4bb8-a6ba-706a8107f8ea"",""projectId"":""54f8d589-66fc-4c65-830f-1dcc63bce8cc""}","https://test12345.live/?participantId=6C1964B0357642AD8167B7329869BDF4&assignmentId=e20837ab-4b65-4bb8-a6ba-706a8107f8ea&projectId=54f8d589-66fc-4c65-830f-1dcc63bce8cc","","1786","","{""Q0"":1}","","[0]"
"","","","","","html-button-response","33","163273","0.0-25.0","6C1964B0357642AD8167B7329869BDF4","6C1964B0357642AD8167B7329869BDF4","e20837ab-4b65-4bb8-a6ba-706a8107f8ea","54f8d589-66fc-4c65-830f-1dcc63bce8cc","{""participantId"":""6C1964B0357642AD8167B7329869BDF4"",""assignmentId"":""e20837ab-4b65-4bb8-a6ba-706a8107f8ea"",""projectId"":""54f8d589-66fc-4c65-830f-1dcc63bce8cc""}","https://test12345.live/?participantId=6C1964B0357642AD8167B7329869BDF4&assignmentId=e20837ab-4b65-4bb8-a6ba-706a8107f8ea&projectId=54f8d589-66fc-4c65-830f-1dcc63bce8cc","","986","
    <div style=""display: flex; justify-content: center; align-items: center;"">
      <img src=""images/red_deck_2.png"" style=""width: 300px; height: 300px; margin-right: 10px;"" />
      <img src=""images/blue_deck_1.png"" style=""width: 300px; height: 300px;"" />
    </div>","0","0",""
"","","","","","html-keyboard-response","34","166277","0.0-26.0-0.0","6C1964B0357642AD8167B7329869BDF4","6C1964B0357642AD8167B7329869BDF4","e20837ab-4b65-4bb8-a6ba-706a8107f8ea","54f8d589-66fc-4c65-830f-1dcc63bce8cc","{""participantId"":""6C1964B0357642AD8167B7329869BDF4"",""assignmentId"":""e20837ab-4b65-4bb8-a6ba-706a8107f8ea"",""projectId"":""54f8d589-66fc-4c65-830f-1dcc63bce8cc""}","https://test12345.live/?participantId=6C1964B0357642AD8167B7329869BDF4&assignmentId=e20837ab-4b65-4bb8-a6ba-706a8107f8ea&projectId=54f8d589-66fc-4c65-830f-1dcc63bce8cc","","null","<div style=""display: flex; justify-content: center; align-items: center;"">
                    <img src=""images/causal/causal_series_9/causal_series_9_a.jpg"" style=""width: 300px; height: 300px;"" />
                  </div>","null","",""
"","","","","","html-keyboard-response","35","169285","0.0-26.0-1.0","6C1964B0357642AD8167B7329869BDF4","6C1964B0357642AD8167B7329869BDF4","e20837ab-4b65-4bb8-a6ba-706a8107f8ea","54f8d589-66fc-4c65-830f-1dcc63bce8cc","{""participantId"":""6C1964B0357642AD8167B7329869BDF4"",""assignmentId"":""e20837ab-4b65-4bb8-a6ba-706a8107f8ea"",""projectId"":""54f8d589-66fc-4c65-830f-1dcc63bce8cc""}","https://test12345.live/?participantId=6C1964B0357642AD8167B7329869BDF4&assignmentId=e20837ab-4b65-4bb8-a6ba-706a8107f8ea&projectId=54f8d589-66fc-4c65-830f-1dcc63bce8cc","","null","<div style=""display: flex; justify-content: center; align-items: center;"">
                    <img src=""images/causal/causal_series_9/causal_series_9_b.jpg"" style=""width: 300px; height: 300px;"" />
                  </div>","null","",""
"","","","","","html-keyboard-response","36","172293","0.0-26.0-2.0","6C1964B0357642AD8167B7329869BDF4","6C1964B0357642AD8167B7329869BDF4","e20837ab-4b65-4bb8-a6ba-706a8107f8ea","54f8d589-66fc-4c65-830f-1dcc63bce8cc","{""participantId"":""6C1964B0357642AD8167B7329869BDF4"",""assignmentId"":""e20837ab-4b65-4bb8-a6ba-706a8107f8ea"",""projectId"":""54f8d589-66fc-4c65-830f-1dcc63bce8cc""}","https://test12345.live/?participantId=6C1964B0357642AD8167B7329869BDF4&assignmentId=e20837ab-4b65-4bb8-a6ba-706a8107f8ea&projectId=54f8d589-66fc-4c65-830f-1dcc63bce8cc","","null","<div style=""display: flex; justify-content: center; align-items: center;"">
                    <img src=""images/causal/causal_series_9/causal_series_9_c.jpg"" style=""width: 300px; height: 300px;"" />
                  </div>","null","",""
"","","","","","html-keyboard-response","37","175300","0.0-26.0-3.0","6C1964B0357642AD8167B7329869BDF4","6C1964B0357642AD8167B7329869BDF4","e20837ab-4b65-4bb8-a6ba-706a8107f8ea","54f8d589-66fc-4c65-830f-1dcc63bce8cc","{""participantId"":""6C1964B0357642AD8167B7329869BDF4"",""assignmentId"":""e20837ab-4b65-4bb8-a6ba-706a8107f8ea"",""projectId"":""54f8d589-66fc-4c65-830f-1dcc63bce8cc""}","https://test12345.live/?participantId=6C1964B0357642AD8167B7329869BDF4&assignmentId=e20837ab-4b65-4bb8-a6ba-706a8107f8ea&projectId=54f8d589-66fc-4c65-830f-1dcc63bce8cc","","null","<div style=""display: flex; justify-content: center; align-items: center;"">
                    <img src=""images/causal/causal_series_9/causal_series_9_d.jpg"" style=""width: 300px; height: 300px;"" />
                  </div>","null","",""
"","","","","","html-button-response","38","176711","0.0-28.0","6C1964B0357642AD8167B7329869BDF4","6C1964B0357642AD8167B7329869BDF4","e20837ab-4b65-4bb8-a6ba-706a8107f8ea","54f8d589-66fc-4c65-830f-1dcc63bce8cc","{""participantId"":""6C1964B0357642AD8167B7329869BDF4"",""assignmentId"":""e20837ab-4b65-4bb8-a6ba-706a8107f8ea"",""projectId"":""54f8d589-66fc-4c65-830f-1dcc63bce8cc""}","https://test12345.live/?participantId=6C1964B0357642AD8167B7329869BDF4&assignmentId=e20837ab-4b65-4bb8-a6ba-706a8107f8ea&projectId=54f8d589-66fc-4c65-830f-1dcc63bce8cc","","1409","Was there a person in the picture?","1","",""
"","","","","","survey-likert","39","178546","0.0-29.0","6C1964B0357642AD8167B7329869BDF4","6C1964B0357642AD8167B7329869BDF4","e20837ab-4b65-4bb8-a6ba-706a8107f8ea","54f8d589-66fc-4c65-830f-1dcc63bce8cc","{""participantId"":""6C1964B0357642AD8167B7329869BDF4"",""assignmentId"":""e20837ab-4b65-4bb8-a6ba-706a8107f8ea"",""projectId"":""54f8d589-66fc-4c65-830f-1dcc63bce8cc""}","https://test12345.live/?participantId=6C1964B0357642AD8167B7329869BDF4&assignmentId=e20837ab-4b65-4bb8-a6ba-706a8107f8ea&projectId=54f8d589-66fc-4c65-830f-1dcc63bce8cc","","1833","","{""Q0"":3}","","[0]"
"","","","","","html-button-response","40","179623","0.0-30.0","6C1964B0357642AD8167B7329869BDF4","6C1964B0357642AD8167B7329869BDF4","e20837ab-4b65-4bb8-a6ba-706a8107f8ea","54f8d589-66fc-4c65-830f-1dcc63bce8cc","{""participantId"":""6C1964B0357642AD8167B7329869BDF4"",""assignmentId"":""e20837ab-4b65-4bb8-a6ba-706a8107f8ea"",""projectId"":""54f8d589-66fc-4c65-830f-1dcc63bce8cc""}","https://test12345.live/?participantId=6C1964B0357642AD8167B7329869BDF4&assignmentId=e20837ab-4b65-4bb8-a6ba-706a8107f8ea&projectId=54f8d589-66fc-4c65-830f-1dcc63bce8cc","","1072","
    <div style=""display: flex; justify-content: center; align-items: center;"">
      <img src=""images/red_deck_2.png"" style=""width: 300px; height: 300px; margin-right: 10px;"" />
      <img src=""images/blue_deck_1.png"" style=""width: 300px; height: 300px;"" />
    </div>","1","1",""
"","","","","","html-keyboard-response","41","182628","0.0-32.0-0.0","6C1964B0357642AD8167B7329869BDF4","6C1964B0357642AD8167B7329869BDF4","e20837ab-4b65-4bb8-a6ba-706a8107f8ea","54f8d589-66fc-4c65-830f-1dcc63bce8cc","{""participantId"":""6C1964B0357642AD8167B7329869BDF4"",""assignmentId"":""e20837ab-4b65-4bb8-a6ba-706a8107f8ea"",""projectId"":""54f8d589-66fc-4c65-830f-1dcc63bce8cc""}","https://test12345.live/?participantId=6C1964B0357642AD8167B7329869BDF4&assignmentId=e20837ab-4b65-4bb8-a6ba-706a8107f8ea&projectId=54f8d589-66fc-4c65-830f-1dcc63bce8cc","","null","<div style=""display: flex; justify-content: center; align-items: center;"">
                    <img src=""images/semantic/semantic_series_3/semantic_series_3_a.jpg"" style=""width: 300px; height: 300px;"" />
                  </div>","null","",""
"","","","","","html-keyboard-response","42","185637","0.0-32.0-1.0","6C1964B0357642AD8167B7329869BDF4","6C1964B0357642AD8167B7329869BDF4","e20837ab-4b65-4bb8-a6ba-706a8107f8ea","54f8d589-66fc-4c65-830f-1dcc63bce8cc","{""participantId"":""6C1964B0357642AD8167B7329869BDF4"",""assignmentId"":""e20837ab-4b65-4bb8-a6ba-706a8107f8ea"",""projectId"":""54f8d589-66fc-4c65-830f-1dcc63bce8cc""}","https://test12345.live/?participantId=6C1964B0357642AD8167B7329869BDF4&assignmentId=e20837ab-4b65-4bb8-a6ba-706a8107f8ea&projectId=54f8d589-66fc-4c65-830f-1dcc63bce8cc","","null","<div style=""display: flex; justify-content: center; align-items: center;"">
                    <img src=""images/semantic/semantic_series_3/semantic_series_3_b.jpg"" style=""width: 300px; height: 300px;"" />
                  </div>","null","",""
"","","","","","html-keyboard-response","43","188645","0.0-32.0-2.0","6C1964B0357642AD8167B7329869BDF4","6C1964B0357642AD8167B7329869BDF4","e20837ab-4b65-4bb8-a6ba-706a8107f8ea","54f8d589-66fc-4c65-830f-1dcc63bce8cc","{""participantId"":""6C1964B0357642AD8167B7329869BDF4"",""assignmentId"":""e20837ab-4b65-4bb8-a6ba-706a8107f8ea"",""projectId"":""54f8d589-66fc-4c65-830f-1dcc63bce8cc""}","https://test12345.live/?participantId=6C1964B0357642AD8167B7329869BDF4&assignmentId=e20837ab-4b65-4bb8-a6ba-706a8107f8ea&projectId=54f8d589-66fc-4c65-830f-1dcc63bce8cc","","null","<div style=""display: flex; justify-content: center; align-items: center;"">
                    <img src=""images/semantic/semantic_series_3/semantic_series_3_c.jpg"" style=""width: 300px; height: 300px;"" />
                  </div>","null","",""
"","","","","","html-keyboard-response","44","191654","0.0-32.0-3.0","6C1964B0357642AD8167B7329869BDF4","6C1964B0357642AD8167B7329869BDF4","e20837ab-4b65-4bb8-a6ba-706a8107f8ea","54f8d589-66fc-4c65-830f-1dcc63bce8cc","{""participantId"":""6C1964B0357642AD8167B7329869BDF4"",""assignmentId"":""e20837ab-4b65-4bb8-a6ba-706a8107f8ea"",""projectId"":""54f8d589-66fc-4c65-830f-1dcc63bce8cc""}","https://test12345.live/?participantId=6C1964B0357642AD8167B7329869BDF4&assignmentId=e20837ab-4b65-4bb8-a6ba-706a8107f8ea&projectId=54f8d589-66fc-4c65-830f-1dcc63bce8cc","","null","<div style=""display: flex; justify-content: center; align-items: center;"">
                    <img src=""images/semantic/semantic_series_3/semantic_series_3_d.jpg"" style=""width: 300px; height: 300px;"" />
                  </div>","null","",""
"","","","","","html-button-response","45","193453","0.0-33.0","6C1964B0357642AD8167B7329869BDF4","6C1964B0357642AD8167B7329869BDF4","e20837ab-4b65-4bb8-a6ba-706a8107f8ea","54f8d589-66fc-4c65-830f-1dcc63bce8cc","{""participantId"":""6C1964B0357642AD8167B7329869BDF4"",""assignmentId"":""e20837ab-4b65-4bb8-a6ba-706a8107f8ea"",""projectId"":""54f8d589-66fc-4c65-830f-1dcc63bce8cc""}","https://test12345.live/?participantId=6C1964B0357642AD8167B7329869BDF4&assignmentId=e20837ab-4b65-4bb8-a6ba-706a8107f8ea&projectId=54f8d589-66fc-4c65-830f-1dcc63bce8cc","","1799","Was there a person in the picture?","0","",""
"","","","","","survey-likert","46","195804","0.0-34.0","6C1964B0357642AD8167B7329869BDF4","6C1964B0357642AD8167B7329869BDF4","e20837ab-4b65-4bb8-a6ba-706a8107f8ea","54f8d589-66fc-4c65-830f-1dcc63bce8cc","{""participantId"":""6C1964B0357642AD8167B7329869BDF4"",""assignmentId"":""e20837ab-4b65-4bb8-a6ba-706a8107f8ea"",""projectId"":""54f8d589-66fc-4c65-830f-1dcc63bce8cc""}","https://test12345.live/?participantId=6C1964B0357642AD8167B7329869BDF4&assignmentId=e20837ab-4b65-4bb8-a6ba-706a8107f8ea&projectId=54f8d589-66fc-4c65-830f-1dcc63bce8cc","","2349","","{""Q0"":1}","","[0]"
"","","","","","html-button-response","47","196536","0.0-35.0","6C1964B0357642AD8167B7329869BDF4","6C1964B0357642AD8167B7329869BDF4","e20837ab-4b65-4bb8-a6ba-706a8107f8ea","54f8d589-66fc-4c65-830f-1dcc63bce8cc","{""participantId"":""6C1964B0357642AD8167B7329869BDF4"",""assignmentId"":""e20837ab-4b65-4bb8-a6ba-706a8107f8ea"",""projectId"":""54f8d589-66fc-4c65-830f-1dcc63bce8cc""}","https://test12345.live/?participantId=6C1964B0357642AD8167B7329869BDF4&assignmentId=e20837ab-4b65-4bb8-a6ba-706a8107f8ea&projectId=54f8d589-66fc-4c65-830f-1dcc63bce8cc","","728","
    <div style=""display: flex; justify-content: center; align-items: center;"">
      <img src=""images/red_deck_2.png"" style=""width: 300px; height: 300px; margin-right: 10px;"" />
      <img src=""images/blue_deck_1.png"" style=""width: 300px; height: 300px;"" />
    </div>","0","0",""
"","","","","","html-keyboard-response","48","199541","0.0-36.0-0.0","6C1964B0357642AD8167B7329869BDF4","6C1964B0357642AD8167B7329869BDF4","e20837ab-4b65-4bb8-a6ba-706a8107f8ea","54f8d589-66fc-4c65-830f-1dcc63bce8cc","{""participantId"":""6C1964B0357642AD8167B7329869BDF4"",""assignmentId"":""e20837ab-4b65-4bb8-a6ba-706a8107f8ea"",""projectId"":""54f8d589-66fc-4c65-830f-1dcc63bce8cc""}","https://test12345.live/?participantId=6C1964B0357642AD8167B7329869BDF4&assignmentId=e20837ab-4b65-4bb8-a6ba-706a8107f8ea&projectId=54f8d589-66fc-4c65-830f-1dcc63bce8cc","","null","<div style=""display: flex; justify-content: center; align-items: center;"">
                    <img src=""images/causal/causal_series_7/causal_series_7_a.jpg"" style=""width: 300px; height: 300px;"" />
                  </div>","null","",""
"","","","","","html-keyboard-response","49","202549","0.0-36.0-1.0","6C1964B0357642AD8167B7329869BDF4","6C1964B0357642AD8167B7329869BDF4","e20837ab-4b65-4bb8-a6ba-706a8107f8ea","54f8d589-66fc-4c65-830f-1dcc63bce8cc","{""participantId"":""6C1964B0357642AD8167B7329869BDF4"",""assignmentId"":""e20837ab-4b65-4bb8-a6ba-706a8107f8ea"",""projectId"":""54f8d589-66fc-4c65-830f-1dcc63bce8cc""}","https://test12345.live/?participantId=6C1964B0357642AD8167B7329869BDF4&assignmentId=e20837ab-4b65-4bb8-a6ba-706a8107f8ea&projectId=54f8d589-66fc-4c65-830f-1dcc63bce8cc","","null","<div style=""display: flex; justify-content: center; align-items: center;"">
                    <img src=""images/causal/causal_series_7/causal_series_7_b.jpg"" style=""width: 300px; height: 300px;"" />
                  </div>","null","",""
"","","","","","html-keyboard-response","50","205557","0.0-36.0-2.0","6C1964B0357642AD8167B7329869BDF4","6C1964B0357642AD8167B7329869BDF4","e20837ab-4b65-4bb8-a6ba-706a8107f8ea","54f8d589-66fc-4c65-830f-1dcc63bce8cc","{""participantId"":""6C1964B0357642AD8167B7329869BDF4"",""assignmentId"":""e20837ab-4b65-4bb8-a6ba-706a8107f8ea"",""projectId"":""54f8d589-66fc-4c65-830f-1dcc63bce8cc""}","https://test12345.live/?participantId=6C1964B0357642AD8167B7329869BDF4&assignmentId=e20837ab-4b65-4bb8-a6ba-706a8107f8ea&projectId=54f8d589-66fc-4c65-830f-1dcc63bce8cc","","null","<div style=""display: flex; justify-content: center; align-items: center;"">
                    <img src=""images/causal/causal_series_7/causal_series_7_c.jpg"" style=""width: 300px; height: 300px;"" />
                  </div>","null","",""
"","","","","","html-keyboard-response","51","208565","0.0-36.0-3.0","6C1964B0357642AD8167B7329869BDF4","6C1964B0357642AD8167B7329869BDF4","e20837ab-4b65-4bb8-a6ba-706a8107f8ea","54f8d589-66fc-4c65-830f-1dcc63bce8cc","{""participantId"":""6C1964B0357642AD8167B7329869BDF4"",""assignmentId"":""e20837ab-4b65-4bb8-a6ba-706a8107f8ea"",""projectId"":""54f8d589-66fc-4c65-830f-1dcc63bce8cc""}","https://test12345.live/?participantId=6C1964B0357642AD8167B7329869BDF4&assignmentId=e20837ab-4b65-4bb8-a6ba-706a8107f8ea&projectId=54f8d589-66fc-4c65-830f-1dcc63bce8cc","","null","<div style=""display: flex; justify-content: center; align-items: center;"">
                    <img src=""images/causal/causal_series_7/causal_series_7_d.jpg"" style=""width: 300px; height: 300px;"" />
                  </div>","null","",""
"","","","","","html-button-response","52","214735","0.0-38.0","6C1964B0357642AD8167B7329869BDF4","6C1964B0357642AD8167B7329869BDF4","e20837ab-4b65-4bb8-a6ba-706a8107f8ea","54f8d589-66fc-4c65-830f-1dcc63bce8cc","{""participantId"":""6C1964B0357642AD8167B7329869BDF4"",""assignmentId"":""e20837ab-4b65-4bb8-a6ba-706a8107f8ea"",""projectId"":""54f8d589-66fc-4c65-830f-1dcc63bce8cc""}","https://test12345.live/?participantId=6C1964B0357642AD8167B7329869BDF4&assignmentId=e20837ab-4b65-4bb8-a6ba-706a8107f8ea&projectId=54f8d589-66fc-4c65-830f-1dcc63bce8cc","","6168","Was there a person in the picture?","1","",""
"","","","","","survey-likert","53","217219","0.0-39.0","6C1964B0357642AD8167B7329869BDF4","6C1964B0357642AD8167B7329869BDF4","e20837ab-4b65-4bb8-a6ba-706a8107f8ea","54f8d589-66fc-4c65-830f-1dcc63bce8cc","{""participantId"":""6C1964B0357642AD8167B7329869BDF4"",""assignmentId"":""e20837ab-4b65-4bb8-a6ba-706a8107f8ea"",""projectId"":""54f8d589-66fc-4c65-830f-1dcc63bce8cc""}","https://test12345.live/?participantId=6C1964B0357642AD8167B7329869BDF4&assignmentId=e20837ab-4b65-4bb8-a6ba-706a8107f8ea&projectId=54f8d589-66fc-4c65-830f-1dcc63bce8cc","","2482","","{""Q0"":2}","","[0]"
"","","","","","html-button-response","54","218637","0.0-40.0","6C1964B0357642AD8167B7329869BDF4","6C1964B0357642AD8167B7329869BDF4","e20837ab-4b65-4bb8-a6ba-706a8107f8ea","54f8d589-66fc-4c65-830f-1dcc63bce8cc","{""participantId"":""6C1964B0357642AD8167B7329869BDF4"",""assignmentId"":""e20837ab-4b65-4bb8-a6ba-706a8107f8ea"",""projectId"":""54f8d589-66fc-4c65-830f-1dcc63bce8cc""}","https://test12345.live/?participantId=6C1964B0357642AD8167B7329869BDF4&assignmentId=e20837ab-4b65-4bb8-a6ba-706a8107f8ea&projectId=54f8d589-66fc-4c65-830f-1dcc63bce8cc","","1413","
    <div style=""display: flex; justify-content: center; align-items: center;"">
      <img src=""images/red_deck_2.png"" style=""width: 300px; height: 300px; margin-right: 10px;"" />
      <img src=""images/blue_deck_1.png"" style=""width: 300px; height: 300px;"" />
    </div>","0","0",""
"","","","","","html-keyboard-response","55","221645","0.0-41.0-0.0","6C1964B0357642AD8167B7329869BDF4","6C1964B0357642AD8167B7329869BDF4","e20837ab-4b65-4bb8-a6ba-706a8107f8ea","54f8d589-66fc-4c65-830f-1dcc63bce8cc","{""participantId"":""6C1964B0357642AD8167B7329869BDF4"",""assignmentId"":""e20837ab-4b65-4bb8-a6ba-706a8107f8ea"",""projectId"":""54f8d589-66fc-4c65-830f-1dcc63bce8cc""}","https://test12345.live/?participantId=6C1964B0357642AD8167B7329869BDF4&assignmentId=e20837ab-4b65-4bb8-a6ba-706a8107f8ea&projectId=54f8d589-66fc-4c65-830f-1dcc63bce8cc","","null","<div style=""display: flex; justify-content: center; align-items: center;"">
                    <img src=""images/causal/causal_series_17/causal_series_17_a.jpg"" style=""width: 300px; height: 300px;"" />
                  </div>","null","",""
"","","","","","html-keyboard-response","56","224654","0.0-41.0-1.0","6C1964B0357642AD8167B7329869BDF4","6C1964B0357642AD8167B7329869BDF4","e20837ab-4b65-4bb8-a6ba-706a8107f8ea","54f8d589-66fc-4c65-830f-1dcc63bce8cc","{""participantId"":""6C1964B0357642AD8167B7329869BDF4"",""assignmentId"":""e20837ab-4b65-4bb8-a6ba-706a8107f8ea"",""projectId"":""54f8d589-66fc-4c65-830f-1dcc63bce8cc""}","https://test12345.live/?participantId=6C1964B0357642AD8167B7329869BDF4&assignmentId=e20837ab-4b65-4bb8-a6ba-706a8107f8ea&projectId=54f8d589-66fc-4c65-830f-1dcc63bce8cc","","null","<div style=""display: flex; justify-content: center; align-items: center;"">
                    <img src=""images/causal/causal_series_17/causal_series_17_b.jpg"" style=""width: 300px; height: 300px;"" />
                  </div>","null","",""
"","","","","","html-keyboard-response","57","227661","0.0-41.0-2.0","6C1964B0357642AD8167B7329869BDF4","6C1964B0357642AD8167B7329869BDF4","e20837ab-4b65-4bb8-a6ba-706a8107f8ea","54f8d589-66fc-4c65-830f-1dcc63bce8cc","{""participantId"":""6C1964B0357642AD8167B7329869BDF4"",""assignmentId"":""e20837ab-4b65-4bb8-a6ba-706a8107f8ea"",""projectId"":""54f8d589-66fc-4c65-830f-1dcc63bce8cc""}","https://test12345.live/?participantId=6C1964B0357642AD8167B7329869BDF4&assignmentId=e20837ab-4b65-4bb8-a6ba-706a8107f8ea&projectId=54f8d589-66fc-4c65-830f-1dcc63bce8cc","","null","<div style=""display: flex; justify-content: center; align-items: center;"">
                    <img src=""images/causal/causal_series_17/causal_series_17_c.jpg"" style=""width: 300px; height: 300px;"" />
                  </div>","null","",""
"","","","","","html-keyboard-response","58","230669","0.0-41.0-3.0","6C1964B0357642AD8167B7329869BDF4","6C1964B0357642AD8167B7329869BDF4","e20837ab-4b65-4bb8-a6ba-706a8107f8ea","54f8d589-66fc-4c65-830f-1dcc63bce8cc","{""participantId"":""6C1964B0357642AD8167B7329869BDF4"",""assignmentId"":""e20837ab-4b65-4bb8-a6ba-706a8107f8ea"",""projectId"":""54f8d589-66fc-4c65-830f-1dcc63bce8cc""}","https://test12345.live/?participantId=6C1964B0357642AD8167B7329869BDF4&assignmentId=e20837ab-4b65-4bb8-a6ba-706a8107f8ea&projectId=54f8d589-66fc-4c65-830f-1dcc63bce8cc","","null","<div style=""display: flex; justify-content: center; align-items: center;"">
                    <img src=""images/causal/causal_series_17/causal_series_17_d.jpg"" style=""width: 300px; height: 300px;"" />
                  </div>","null","",""
"","","","","","html-button-response","59","232771","0.0-43.0","6C1964B0357642AD8167B7329869BDF4","6C1964B0357642AD8167B7329869BDF4","e20837ab-4b65-4bb8-a6ba-706a8107f8ea","54f8d589-66fc-4c65-830f-1dcc63bce8cc","{""participantId"":""6C1964B0357642AD8167B7329869BDF4"",""assignmentId"":""e20837ab-4b65-4bb8-a6ba-706a8107f8ea"",""projectId"":""54f8d589-66fc-4c65-830f-1dcc63bce8cc""}","https://test12345.live/?participantId=6C1964B0357642AD8167B7329869BDF4&assignmentId=e20837ab-4b65-4bb8-a6ba-706a8107f8ea&projectId=54f8d589-66fc-4c65-830f-1dcc63bce8cc","","2100","Was there a person in the picture?","0","",""
"","","","","","survey-likert","60","235331","0.0-44.0","6C1964B0357642AD8167B7329869BDF4","6C1964B0357642AD8167B7329869BDF4","e20837ab-4b65-4bb8-a6ba-706a8107f8ea","54f8d589-66fc-4c65-830f-1dcc63bce8cc","{""participantId"":""6C1964B0357642AD8167B7329869BDF4"",""assignmentId"":""e20837ab-4b65-4bb8-a6ba-706a8107f8ea"",""projectId"":""54f8d589-66fc-4c65-830f-1dcc63bce8cc""}","https://test12345.live/?participantId=6C1964B0357642AD8167B7329869BDF4&assignmentId=e20837ab-4b65-4bb8-a6ba-706a8107f8ea&projectId=54f8d589-66fc-4c65-830f-1dcc63bce8cc","","2558","","{""Q0"":1}","","[0]"
"","","","","","html-button-response","61","379071","0.0-45.0","6C1964B0357642AD8167B7329869BDF4","6C1964B0357642AD8167B7329869BDF4","e20837ab-4b65-4bb8-a6ba-706a8107f8ea","54f8d589-66fc-4c65-830f-1dcc63bce8cc","{""participantId"":""6C1964B0357642AD8167B7329869BDF4"",""assignmentId"":""e20837ab-4b65-4bb8-a6ba-706a8107f8ea"",""projectId"":""54f8d589-66fc-4c65-830f-1dcc63bce8cc""}","https://test12345.live/?participantId=6C1964B0357642AD8167B7329869BDF4&assignmentId=e20837ab-4b65-4bb8-a6ba-706a8107f8ea&projectId=54f8d589-66fc-4c65-830f-1dcc63bce8cc","","143732","
    <div style=""display: flex; justify-content: center; align-items: center;"">
      <img src=""images/red_deck_2.png"" style=""width: 300px; height: 300px; margin-right: 10px;"" />
      <img src=""images/blue_deck_1.png"" style=""width: 300px; height: 300px;"" />
    </div>","0","0",""
"","","","","","html-keyboard-response","62","382080","0.0-46.0-0.0","6C1964B0357642AD8167B7329869BDF4","6C1964B0357642AD8167B7329869BDF4","e20837ab-4b65-4bb8-a6ba-706a8107f8ea","54f8d589-66fc-4c65-830f-1dcc63bce8cc","{""participantId"":""6C1964B0357642AD8167B7329869BDF4"",""assignmentId"":""e20837ab-4b65-4bb8-a6ba-706a8107f8ea"",""projectId"":""54f8d589-66fc-4c65-830f-1dcc63bce8cc""}","https://test12345.live/?participantId=6C1964B0357642AD8167B7329869BDF4&assignmentId=e20837ab-4b65-4bb8-a6ba-706a8107f8ea&projectId=54f8d589-66fc-4c65-830f-1dcc63bce8cc","","null","<div style=""display: flex; justify-content: center; align-items: center;"">
                    <img src=""images/causal/causal_series_4/causal_series_4_a.jpg"" style=""width: 300px; height: 300px;"" />
                  </div>","null","",""
"","","","","","html-keyboard-response","63","385088","0.0-46.0-1.0","6C1964B0357642AD8167B7329869BDF4","6C1964B0357642AD8167B7329869BDF4","e20837ab-4b65-4bb8-a6ba-706a8107f8ea","54f8d589-66fc-4c65-830f-1dcc63bce8cc","{""participantId"":""6C1964B0357642AD8167B7329869BDF4"",""assignmentId"":""e20837ab-4b65-4bb8-a6ba-706a8107f8ea"",""projectId"":""54f8d589-66fc-4c65-830f-1dcc63bce8cc""}","https://test12345.live/?participantId=6C1964B0357642AD8167B7329869BDF4&assignmentId=e20837ab-4b65-4bb8-a6ba-706a8107f8ea&projectId=54f8d589-66fc-4c65-830f-1dcc63bce8cc","","null","<div style=""display: flex; justify-content: center; align-items: center;"">
                    <img src=""images/causal/causal_series_4/causal_series_4_b.jpg"" style=""width: 300px; height: 300px;"" />
                  </div>","null","",""
"","","","","","html-keyboard-response","64","388096","0.0-46.0-2.0","6C1964B0357642AD8167B7329869BDF4","6C1964B0357642AD8167B7329869BDF4","e20837ab-4b65-4bb8-a6ba-706a8107f8ea","54f8d589-66fc-4c65-830f-1dcc63bce8cc","{""participantId"":""6C1964B0357642AD8167B7329869BDF4"",""assignmentId"":""e20837ab-4b65-4bb8-a6ba-706a8107f8ea"",""projectId"":""54f8d589-66fc-4c65-830f-1dcc63bce8cc""}","https://test12345.live/?participantId=6C1964B0357642AD8167B7329869BDF4&assignmentId=e20837ab-4b65-4bb8-a6ba-706a8107f8ea&projectId=54f8d589-66fc-4c65-830f-1dcc63bce8cc","","null","<div style=""display: flex; justify-content: center; align-items: center;"">
                    <img src=""images/causal/causal_series_4/causal_series_4_c.jpg"" style=""width: 300px; height: 300px;"" />
                  </div>","null","",""
"","","","","","html-keyboard-response","65","391103","0.0-46.0-3.0","6C1964B0357642AD8167B7329869BDF4","6C1964B0357642AD8167B7329869BDF4","e20837ab-4b65-4bb8-a6ba-706a8107f8ea","54f8d589-66fc-4c65-830f-1dcc63bce8cc","{""participantId"":""6C1964B0357642AD8167B7329869BDF4"",""assignmentId"":""e20837ab-4b65-4bb8-a6ba-706a8107f8ea"",""projectId"":""54f8d589-66fc-4c65-830f-1dcc63bce8cc""}","https://test12345.live/?participantId=6C1964B0357642AD8167B7329869BDF4&assignmentId=e20837ab-4b65-4bb8-a6ba-706a8107f8ea&projectId=54f8d589-66fc-4c65-830f-1dcc63bce8cc","","null","<div style=""display: flex; justify-content: center; align-items: center;"">
                    <img src=""images/causal/causal_series_4/causal_series_4_d.jpg"" style=""width: 300px; height: 300px;"" />
                  </div>","null","",""
"","","","","","html-button-response","66","393010","0.0-48.0","6C1964B0357642AD8167B7329869BDF4","6C1964B0357642AD8167B7329869BDF4","e20837ab-4b65-4bb8-a6ba-706a8107f8ea","54f8d589-66fc-4c65-830f-1dcc63bce8cc","{""participantId"":""6C1964B0357642AD8167B7329869BDF4"",""assignmentId"":""e20837ab-4b65-4bb8-a6ba-706a8107f8ea"",""projectId"":""54f8d589-66fc-4c65-830f-1dcc63bce8cc""}","https://test12345.live/?participantId=6C1964B0357642AD8167B7329869BDF4&assignmentId=e20837ab-4b65-4bb8-a6ba-706a8107f8ea&projectId=54f8d589-66fc-4c65-830f-1dcc63bce8cc","","1905","Was there a person in the picture?","1","",""
"","","","","","survey-likert","67","394785","0.0-49.0","6C1964B0357642AD8167B7329869BDF4","6C1964B0357642AD8167B7329869BDF4","e20837ab-4b65-4bb8-a6ba-706a8107f8ea","54f8d589-66fc-4c65-830f-1dcc63bce8cc","{""participantId"":""6C1964B0357642AD8167B7329869BDF4"",""assignmentId"":""e20837ab-4b65-4bb8-a6ba-706a8107f8ea"",""projectId"":""54f8d589-66fc-4c65-830f-1dcc63bce8cc""}","https://test12345.live/?participantId=6C1964B0357642AD8167B7329869BDF4&assignmentId=e20837ab-4b65-4bb8-a6ba-706a8107f8ea&projectId=54f8d589-66fc-4c65-830f-1dcc63bce8cc","","1773","","{""Q0"":4}","","[0]"
"","","","","","html-button-response","68","396020","0.0-50.0","6C1964B0357642AD8167B7329869BDF4","6C1964B0357642AD8167B7329869BDF4","e20837ab-4b65-4bb8-a6ba-706a8107f8ea","54f8d589-66fc-4c65-830f-1dcc63bce8cc","{""participantId"":""6C1964B0357642AD8167B7329869BDF4"",""assignmentId"":""e20837ab-4b65-4bb8-a6ba-706a8107f8ea"",""projectId"":""54f8d589-66fc-4c65-830f-1dcc63bce8cc""}","https://test12345.live/?participantId=6C1964B0357642AD8167B7329869BDF4&assignmentId=e20837ab-4b65-4bb8-a6ba-706a8107f8ea&projectId=54f8d589-66fc-4c65-830f-1dcc63bce8cc","","1230","
    <div style=""display: flex; justify-content: center; align-items: center;"">
      <img src=""images/red_deck_2.png"" style=""width: 300px; height: 300px; margin-right: 10px;"" />
      <img src=""images/blue_deck_1.png"" style=""width: 300px; height: 300px;"" />
    </div>","1","1",""
"","","","","","html-keyboard-response","69","399023","0.0-52.0-0.0","6C1964B0357642AD8167B7329869BDF4","6C1964B0357642AD8167B7329869BDF4","e20837ab-4b65-4bb8-a6ba-706a8107f8ea","54f8d589-66fc-4c65-830f-1dcc63bce8cc","{""participantId"":""6C1964B0357642AD8167B7329869BDF4"",""assignmentId"":""e20837ab-4b65-4bb8-a6ba-706a8107f8ea"",""projectId"":""54f8d589-66fc-4c65-830f-1dcc63bce8cc""}","https://test12345.live/?participantId=6C1964B0357642AD8167B7329869BDF4&assignmentId=e20837ab-4b65-4bb8-a6ba-706a8107f8ea&projectId=54f8d589-66fc-4c65-830f-1dcc63bce8cc","","null","<div style=""display: flex; justify-content: center; align-items: center;"">
                    <img src=""images/semantic/semantic_series_11/semantic_series_11_a.jpg"" style=""width: 300px; height: 300px;"" />
                  </div>","null","",""
"","","","","","html-keyboard-response","70","402032","0.0-52.0-1.0","6C1964B0357642AD8167B7329869BDF4","6C1964B0357642AD8167B7329869BDF4","e20837ab-4b65-4bb8-a6ba-706a8107f8ea","54f8d589-66fc-4c65-830f-1dcc63bce8cc","{""participantId"":""6C1964B0357642AD8167B7329869BDF4"",""assignmentId"":""e20837ab-4b65-4bb8-a6ba-706a8107f8ea"",""projectId"":""54f8d589-66fc-4c65-830f-1dcc63bce8cc""}","https://test12345.live/?participantId=6C1964B0357642AD8167B7329869BDF4&assignmentId=e20837ab-4b65-4bb8-a6ba-706a8107f8ea&projectId=54f8d589-66fc-4c65-830f-1dcc63bce8cc","","null","<div style=""display: flex; justify-content: center; align-items: center;"">
                    <img src=""images/semantic/semantic_series_11/semantic_series_11_b.jpg"" style=""width: 300px; height: 300px;"" />
                  </div>","null","",""
"","","","","","html-keyboard-response","71","405040","0.0-52.0-2.0","6C1964B0357642AD8167B7329869BDF4","6C1964B0357642AD8167B7329869BDF4","e20837ab-4b65-4bb8-a6ba-706a8107f8ea","54f8d589-66fc-4c65-830f-1dcc63bce8cc","{""participantId"":""6C1964B0357642AD8167B7329869BDF4"",""assignmentId"":""e20837ab-4b65-4bb8-a6ba-706a8107f8ea"",""projectId"":""54f8d589-66fc-4c65-830f-1dcc63bce8cc""}","https://test12345.live/?participantId=6C1964B0357642AD8167B7329869BDF4&assignmentId=e20837ab-4b65-4bb8-a6ba-706a8107f8ea&projectId=54f8d589-66fc-4c65-830f-1dcc63bce8cc","","null","<div style=""display: flex; justify-content: center; align-items: center;"">
                    <img src=""images/semantic/semantic_series_11/semantic_series_11_c.jpg"" style=""width: 300px; height: 300px;"" />
                  </div>","null","",""
"","","","","","html-keyboard-response","72","408048","0.0-52.0-3.0","6C1964B0357642AD8167B7329869BDF4","6C1964B0357642AD8167B7329869BDF4","e20837ab-4b65-4bb8-a6ba-706a8107f8ea","54f8d589-66fc-4c65-830f-1dcc63bce8cc","{""participantId"":""6C1964B0357642AD8167B7329869BDF4"",""assignmentId"":""e20837ab-4b65-4bb8-a6ba-706a8107f8ea"",""projectId"":""54f8d589-66fc-4c65-830f-1dcc63bce8cc""}","https://test12345.live/?participantId=6C1964B0357642AD8167B7329869BDF4&assignmentId=e20837ab-4b65-4bb8-a6ba-706a8107f8ea&projectId=54f8d589-66fc-4c65-830f-1dcc63bce8cc","","null","<div style=""display: flex; justify-content: center; align-items: center;"">
                    <img src=""images/semantic/semantic_series_11/semantic_series_11_d.jpg"" style=""width: 300px; height: 300px;"" />
                  </div>","null","",""
"","","","","","html-button-response","73","410436","0.0-53.0","6C1964B0357642AD8167B7329869BDF4","6C1964B0357642AD8167B7329869BDF4","e20837ab-4b65-4bb8-a6ba-706a8107f8ea","54f8d589-66fc-4c65-830f-1dcc63bce8cc","{""participantId"":""6C1964B0357642AD8167B7329869BDF4"",""assignmentId"":""e20837ab-4b65-4bb8-a6ba-706a8107f8ea"",""projectId"":""54f8d589-66fc-4c65-830f-1dcc63bce8cc""}","https://test12345.live/?participantId=6C1964B0357642AD8167B7329869BDF4&assignmentId=e20837ab-4b65-4bb8-a6ba-706a8107f8ea&projectId=54f8d589-66fc-4c65-830f-1dcc63bce8cc","","2387","Was there a person in the picture?","0","",""
"","","","","","survey-likert","74","412077","0.0-54.0","6C1964B0357642AD8167B7329869BDF4","6C1964B0357642AD8167B7329869BDF4","e20837ab-4b65-4bb8-a6ba-706a8107f8ea","54f8d589-66fc-4c65-830f-1dcc63bce8cc","{""participantId"":""6C1964B0357642AD8167B7329869BDF4"",""assignmentId"":""e20837ab-4b65-4bb8-a6ba-706a8107f8ea"",""projectId"":""54f8d589-66fc-4c65-830f-1dcc63bce8cc""}","https://test12345.live/?participantId=6C1964B0357642AD8167B7329869BDF4&assignmentId=e20837ab-4b65-4bb8-a6ba-706a8107f8ea&projectId=54f8d589-66fc-4c65-830f-1dcc63bce8cc","","1639","","{""Q0"":1}","","[0]"
"","","","","","html-button-response","75","412786","0.0-55.0","6C1964B0357642AD8167B7329869BDF4","6C1964B0357642AD8167B7329869BDF4","e20837ab-4b65-4bb8-a6ba-706a8107f8ea","54f8d589-66fc-4c65-830f-1dcc63bce8cc","{""participantId"":""6C1964B0357642AD8167B7329869BDF4"",""assignmentId"":""e20837ab-4b65-4bb8-a6ba-706a8107f8ea"",""projectId"":""54f8d589-66fc-4c65-830f-1dcc63bce8cc""}","https://test12345.live/?participantId=6C1964B0357642AD8167B7329869BDF4&assignmentId=e20837ab-4b65-4bb8-a6ba-706a8107f8ea&projectId=54f8d589-66fc-4c65-830f-1dcc63bce8cc","","705","
    <div style=""display: flex; justify-content: center; align-items: center;"">
      <img src=""images/red_deck_2.png"" style=""width: 300px; height: 300px; margin-right: 10px;"" />
      <img src=""images/blue_deck_1.png"" style=""width: 300px; height: 300px;"" />
    </div>","0","0",""
"","","","","","html-keyboard-response","76","415791","0.0-56.0-0.0","6C1964B0357642AD8167B7329869BDF4","6C1964B0357642AD8167B7329869BDF4","e20837ab-4b65-4bb8-a6ba-706a8107f8ea","54f8d589-66fc-4c65-830f-1dcc63bce8cc","{""participantId"":""6C1964B0357642AD8167B7329869BDF4"",""assignmentId"":""e20837ab-4b65-4bb8-a6ba-706a8107f8ea"",""projectId"":""54f8d589-66fc-4c65-830f-1dcc63bce8cc""}","https://test12345.live/?participantId=6C1964B0357642AD8167B7329869BDF4&assignmentId=e20837ab-4b65-4bb8-a6ba-706a8107f8ea&projectId=54f8d589-66fc-4c65-830f-1dcc63bce8cc","","null","<div style=""display: flex; justify-content: center; align-items: center;"">
                    <img src=""images/causal/causal_series_1/causal_series_1_a.jpg"" style=""width: 300px; height: 300px;"" />
                  </div>","null","",""
"","","","","","html-keyboard-response","77","418799","0.0-56.0-1.0","6C1964B0357642AD8167B7329869BDF4","6C1964B0357642AD8167B7329869BDF4","e20837ab-4b65-4bb8-a6ba-706a8107f8ea","54f8d589-66fc-4c65-830f-1dcc63bce8cc","{""participantId"":""6C1964B0357642AD8167B7329869BDF4"",""assignmentId"":""e20837ab-4b65-4bb8-a6ba-706a8107f8ea"",""projectId"":""54f8d589-66fc-4c65-830f-1dcc63bce8cc""}","https://test12345.live/?participantId=6C1964B0357642AD8167B7329869BDF4&assignmentId=e20837ab-4b65-4bb8-a6ba-706a8107f8ea&projectId=54f8d589-66fc-4c65-830f-1dcc63bce8cc","","null","<div style=""display: flex; justify-content: center; align-items: center;"">
                    <img src=""images/causal/causal_series_1/causal_series_1_b.jpg"" style=""width: 300px; height: 300px;"" />
                  </div>","null","",""
"","","","","","html-keyboard-response","78","421808","0.0-56.0-2.0","6C1964B0357642AD8167B7329869BDF4","6C1964B0357642AD8167B7329869BDF4","e20837ab-4b65-4bb8-a6ba-706a8107f8ea","54f8d589-66fc-4c65-830f-1dcc63bce8cc","{""participantId"":""6C1964B0357642AD8167B7329869BDF4"",""assignmentId"":""e20837ab-4b65-4bb8-a6ba-706a8107f8ea"",""projectId"":""54f8d589-66fc-4c65-830f-1dcc63bce8cc""}","https://test12345.live/?participantId=6C1964B0357642AD8167B7329869BDF4&assignmentId=e20837ab-4b65-4bb8-a6ba-706a8107f8ea&projectId=54f8d589-66fc-4c65-830f-1dcc63bce8cc","","null","<div style=""display: flex; justify-content: center; align-items: center;"">
                    <img src=""images/causal/causal_series_1/causal_series_1_c.jpg"" style=""width: 300px; height: 300px;"" />
                  </div>","null","",""
"","","","","","html-keyboard-response","79","424816","0.0-56.0-3.0","6C1964B0357642AD8167B7329869BDF4","6C1964B0357642AD8167B7329869BDF4","e20837ab-4b65-4bb8-a6ba-706a8107f8ea","54f8d589-66fc-4c65-830f-1dcc63bce8cc","{""participantId"":""6C1964B0357642AD8167B7329869BDF4"",""assignmentId"":""e20837ab-4b65-4bb8-a6ba-706a8107f8ea"",""projectId"":""54f8d589-66fc-4c65-830f-1dcc63bce8cc""}","https://test12345.live/?participantId=6C1964B0357642AD8167B7329869BDF4&assignmentId=e20837ab-4b65-4bb8-a6ba-706a8107f8ea&projectId=54f8d589-66fc-4c65-830f-1dcc63bce8cc","","null","<div style=""display: flex; justify-content: center; align-items: center;"">
                    <img src=""images/causal/causal_series_1/causal_series_1_d.jpg"" style=""width: 300px; height: 300px;"" />
                  </div>","null","",""
"","","","","","html-button-response","80","425672","0.0-58.0","6C1964B0357642AD8167B7329869BDF4","6C1964B0357642AD8167B7329869BDF4","e20837ab-4b65-4bb8-a6ba-706a8107f8ea","54f8d589-66fc-4c65-830f-1dcc63bce8cc","{""participantId"":""6C1964B0357642AD8167B7329869BDF4"",""assignmentId"":""e20837ab-4b65-4bb8-a6ba-706a8107f8ea"",""projectId"":""54f8d589-66fc-4c65-830f-1dcc63bce8cc""}","https://test12345.live/?participantId=6C1964B0357642AD8167B7329869BDF4&assignmentId=e20837ab-4b65-4bb8-a6ba-706a8107f8ea&projectId=54f8d589-66fc-4c65-830f-1dcc63bce8cc","","855","Was there a person in the picture?","0","",""
"","","","","","survey-likert","81","427277","0.0-59.0","6C1964B0357642AD8167B7329869BDF4","6C1964B0357642AD8167B7329869BDF4","e20837ab-4b65-4bb8-a6ba-706a8107f8ea","54f8d589-66fc-4c65-830f-1dcc63bce8cc","{""participantId"":""6C1964B0357642AD8167B7329869BDF4"",""assignmentId"":""e20837ab-4b65-4bb8-a6ba-706a8107f8ea"",""projectId"":""54f8d589-66fc-4c65-830f-1dcc63bce8cc""}","https://test12345.live/?participantId=6C1964B0357642AD8167B7329869BDF4&assignmentId=e20837ab-4b65-4bb8-a6ba-706a8107f8ea&projectId=54f8d589-66fc-4c65-830f-1dcc63bce8cc","","1604","","{""Q0"":0}","","[0]"
"","","","","","html-button-response","82","428207","0.0-60.0","6C1964B0357642AD8167B7329869BDF4","6C1964B0357642AD8167B7329869BDF4","e20837ab-4b65-4bb8-a6ba-706a8107f8ea","54f8d589-66fc-4c65-830f-1dcc63bce8cc","{""participantId"":""6C1964B0357642AD8167B7329869BDF4"",""assignmentId"":""e20837ab-4b65-4bb8-a6ba-706a8107f8ea"",""projectId"":""54f8d589-66fc-4c65-830f-1dcc63bce8cc""}","https://test12345.live/?participantId=6C1964B0357642AD8167B7329869BDF4&assignmentId=e20837ab-4b65-4bb8-a6ba-706a8107f8ea&projectId=54f8d589-66fc-4c65-830f-1dcc63bce8cc","","924","
    <div style=""display: flex; justify-content: center; align-items: center;"">
      <img src=""images/red_deck_2.png"" style=""width: 300px; height: 300px; margin-right: 10px;"" />
      <img src=""images/blue_deck_1.png"" style=""width: 300px; height: 300px;"" />
    </div>","0","0",""
"","","","","","html-keyboard-response","83","431216","0.0-61.0-0.0","6C1964B0357642AD8167B7329869BDF4","6C1964B0357642AD8167B7329869BDF4","e20837ab-4b65-4bb8-a6ba-706a8107f8ea","54f8d589-66fc-4c65-830f-1dcc63bce8cc","{""participantId"":""6C1964B0357642AD8167B7329869BDF4"",""assignmentId"":""e20837ab-4b65-4bb8-a6ba-706a8107f8ea"",""projectId"":""54f8d589-66fc-4c65-830f-1dcc63bce8cc""}","https://test12345.live/?participantId=6C1964B0357642AD8167B7329869BDF4&assignmentId=e20837ab-4b65-4bb8-a6ba-706a8107f8ea&projectId=54f8d589-66fc-4c65-830f-1dcc63bce8cc","","null","<div style=""display: flex; justify-content: center; align-items: center;"">
                    <img src=""images/causal/causal_series_13/causal_series_13_a.jpg"" style=""width: 300px; height: 300px;"" />
                  </div>","null","",""
"","","","","","html-keyboard-response","84","434223","0.0-61.0-1.0","6C1964B0357642AD8167B7329869BDF4","6C1964B0357642AD8167B7329869BDF4","e20837ab-4b65-4bb8-a6ba-706a8107f8ea","54f8d589-66fc-4c65-830f-1dcc63bce8cc","{""participantId"":""6C1964B0357642AD8167B7329869BDF4"",""assignmentId"":""e20837ab-4b65-4bb8-a6ba-706a8107f8ea"",""projectId"":""54f8d589-66fc-4c65-830f-1dcc63bce8cc""}","https://test12345.live/?participantId=6C1964B0357642AD8167B7329869BDF4&assignmentId=e20837ab-4b65-4bb8-a6ba-706a8107f8ea&projectId=54f8d589-66fc-4c65-830f-1dcc63bce8cc","","null","<div style=""display: flex; justify-content: center; align-items: center;"">
                    <img src=""images/causal/causal_series_13/causal_series_13_b.jpg"" style=""width: 300px; height: 300px;"" />
                  </div>","null","",""
"","","","","","html-keyboard-response","85","437231","0.0-61.0-2.0","6C1964B0357642AD8167B7329869BDF4","6C1964B0357642AD8167B7329869BDF4","e20837ab-4b65-4bb8-a6ba-706a8107f8ea","54f8d589-66fc-4c65-830f-1dcc63bce8cc","{""participantId"":""6C1964B0357642AD8167B7329869BDF4"",""assignmentId"":""e20837ab-4b65-4bb8-a6ba-706a8107f8ea"",""projectId"":""54f8d589-66fc-4c65-830f-1dcc63bce8cc""}","https://test12345.live/?participantId=6C1964B0357642AD8167B7329869BDF4&assignmentId=e20837ab-4b65-4bb8-a6ba-706a8107f8ea&projectId=54f8d589-66fc-4c65-830f-1dcc63bce8cc","","null","<div style=""display: flex; justify-content: center; align-items: center;"">
                    <img src=""images/causal/causal_series_13/causal_series_13_c.jpg"" style=""width: 300px; height: 300px;"" />
                  </div>","null","",""
"","","","","","html-keyboard-response","86","440240","0.0-61.0-3.0","6C1964B0357642AD8167B7329869BDF4","6C1964B0357642AD8167B7329869BDF4","e20837ab-4b65-4bb8-a6ba-706a8107f8ea","54f8d589-66fc-4c65-830f-1dcc63bce8cc","{""participantId"":""6C1964B0357642AD8167B7329869BDF4"",""assignmentId"":""e20837ab-4b65-4bb8-a6ba-706a8107f8ea"",""projectId"":""54f8d589-66fc-4c65-830f-1dcc63bce8cc""}","https://test12345.live/?participantId=6C1964B0357642AD8167B7329869BDF4&assignmentId=e20837ab-4b65-4bb8-a6ba-706a8107f8ea&projectId=54f8d589-66fc-4c65-830f-1dcc63bce8cc","","null","<div style=""display: flex; justify-content: center; align-items: center;"">
                    <img src=""images/causal/causal_series_13/causal_series_13_d.jpg"" style=""width: 300px; height: 300px;"" />
                  </div>","null","",""
"","","","","","html-button-response","87","441399","0.0-63.0","6C1964B0357642AD8167B7329869BDF4","6C1964B0357642AD8167B7329869BDF4","e20837ab-4b65-4bb8-a6ba-706a8107f8ea","54f8d589-66fc-4c65-830f-1dcc63bce8cc","{""participantId"":""6C1964B0357642AD8167B7329869BDF4"",""assignmentId"":""e20837ab-4b65-4bb8-a6ba-706a8107f8ea"",""projectId"":""54f8d589-66fc-4c65-830f-1dcc63bce8cc""}","https://test12345.live/?participantId=6C1964B0357642AD8167B7329869BDF4&assignmentId=e20837ab-4b65-4bb8-a6ba-706a8107f8ea&projectId=54f8d589-66fc-4c65-830f-1dcc63bce8cc","","1157","Was there a person in the picture?","0","",""
"","","","","","survey-likert","88","442844","0.0-64.0","6C1964B0357642AD8167B7329869BDF4","6C1964B0357642AD8167B7329869BDF4","e20837ab-4b65-4bb8-a6ba-706a8107f8ea","54f8d589-66fc-4c65-830f-1dcc63bce8cc","{""participantId"":""6C1964B0357642AD8167B7329869BDF4"",""assignmentId"":""e20837ab-4b65-4bb8-a6ba-706a8107f8ea"",""projectId"":""54f8d589-66fc-4c65-830f-1dcc63bce8cc""}","https://test12345.live/?participantId=6C1964B0357642AD8167B7329869BDF4&assignmentId=e20837ab-4b65-4bb8-a6ba-706a8107f8ea&projectId=54f8d589-66fc-4c65-830f-1dcc63bce8cc","","1443","","{""Q0"":2}","","[0]"
"","","","","","html-button-response","89","444104","0.0-65.0","6C1964B0357642AD8167B7329869BDF4","6C1964B0357642AD8167B7329869BDF4","e20837ab-4b65-4bb8-a6ba-706a8107f8ea","54f8d589-66fc-4c65-830f-1dcc63bce8cc","{""participantId"":""6C1964B0357642AD8167B7329869BDF4"",""assignmentId"":""e20837ab-4b65-4bb8-a6ba-706a8107f8ea"",""projectId"":""54f8d589-66fc-4c65-830f-1dcc63bce8cc""}","https://test12345.live/?participantId=6C1964B0357642AD8167B7329869BDF4&assignmentId=e20837ab-4b65-4bb8-a6ba-706a8107f8ea&projectId=54f8d589-66fc-4c65-830f-1dcc63bce8cc","","1255","
    <div style=""display: flex; justify-content: center; align-items: center;"">
      <img src=""images/red_deck_2.png"" style=""width: 300px; height: 300px; margin-right: 10px;"" />
      <img src=""images/blue_deck_1.png"" style=""width: 300px; height: 300px;"" />
    </div>","1","1",""
"","","","","","html-keyboard-response","90","447112","0.0-67.0-0.0","6C1964B0357642AD8167B7329869BDF4","6C1964B0357642AD8167B7329869BDF4","e20837ab-4b65-4bb8-a6ba-706a8107f8ea","54f8d589-66fc-4c65-830f-1dcc63bce8cc","{""participantId"":""6C1964B0357642AD8167B7329869BDF4"",""assignmentId"":""e20837ab-4b65-4bb8-a6ba-706a8107f8ea"",""projectId"":""54f8d589-66fc-4c65-830f-1dcc63bce8cc""}","https://test12345.live/?participantId=6C1964B0357642AD8167B7329869BDF4&assignmentId=e20837ab-4b65-4bb8-a6ba-706a8107f8ea&projectId=54f8d589-66fc-4c65-830f-1dcc63bce8cc","","null","<div style=""display: flex; justify-content: center; align-items: center;"">
                    <img src=""images/semantic/semantic_series_12/semantic_series_12_a.jpg"" style=""width: 300px; height: 300px;"" />
                  </div>","null","",""
"","","","","","html-keyboard-response","91","450120","0.0-67.0-1.0","6C1964B0357642AD8167B7329869BDF4","6C1964B0357642AD8167B7329869BDF4","e20837ab-4b65-4bb8-a6ba-706a8107f8ea","54f8d589-66fc-4c65-830f-1dcc63bce8cc","{""participantId"":""6C1964B0357642AD8167B7329869BDF4"",""assignmentId"":""e20837ab-4b65-4bb8-a6ba-706a8107f8ea"",""projectId"":""54f8d589-66fc-4c65-830f-1dcc63bce8cc""}","https://test12345.live/?participantId=6C1964B0357642AD8167B7329869BDF4&assignmentId=e20837ab-4b65-4bb8-a6ba-706a8107f8ea&projectId=54f8d589-66fc-4c65-830f-1dcc63bce8cc","","null","<div style=""display: flex; justify-content: center; align-items: center;"">
                    <img src=""images/semantic/semantic_series_12/semantic_series_12_b.jpg"" style=""width: 300px; height: 300px;"" />
                  </div>","null","",""
"","","","","","html-keyboard-response","92","453129","0.0-67.0-2.0","6C1964B0357642AD8167B7329869BDF4","6C1964B0357642AD8167B7329869BDF4","e20837ab-4b65-4bb8-a6ba-706a8107f8ea","54f8d589-66fc-4c65-830f-1dcc63bce8cc","{""participantId"":""6C1964B0357642AD8167B7329869BDF4"",""assignmentId"":""e20837ab-4b65-4bb8-a6ba-706a8107f8ea"",""projectId"":""54f8d589-66fc-4c65-830f-1dcc63bce8cc""}","https://test12345.live/?participantId=6C1964B0357642AD8167B7329869BDF4&assignmentId=e20837ab-4b65-4bb8-a6ba-706a8107f8ea&projectId=54f8d589-66fc-4c65-830f-1dcc63bce8cc","","null","<div style=""display: flex; justify-content: center; align-items: center;"">
                    <img src=""images/semantic/semantic_series_12/semantic_series_12_c.jpg"" style=""width: 300px; height: 300px;"" />
                  </div>","null","",""
"","","","","","html-keyboard-response","93","456136","0.0-67.0-3.0","6C1964B0357642AD8167B7329869BDF4","6C1964B0357642AD8167B7329869BDF4","e20837ab-4b65-4bb8-a6ba-706a8107f8ea","54f8d589-66fc-4c65-830f-1dcc63bce8cc","{""participantId"":""6C1964B0357642AD8167B7329869BDF4"",""assignmentId"":""e20837ab-4b65-4bb8-a6ba-706a8107f8ea"",""projectId"":""54f8d589-66fc-4c65-830f-1dcc63bce8cc""}","https://test12345.live/?participantId=6C1964B0357642AD8167B7329869BDF4&assignmentId=e20837ab-4b65-4bb8-a6ba-706a8107f8ea&projectId=54f8d589-66fc-4c65-830f-1dcc63bce8cc","","null","<div style=""display: flex; justify-content: center; align-items: center;"">
                    <img src=""images/semantic/semantic_series_12/semantic_series_12_d.jpg"" style=""width: 300px; height: 300px;"" />
                  </div>","null","",""
"","","","","","html-button-response","94","459084","0.0-68.0","6C1964B0357642AD8167B7329869BDF4","6C1964B0357642AD8167B7329869BDF4","e20837ab-4b65-4bb8-a6ba-706a8107f8ea","54f8d589-66fc-4c65-830f-1dcc63bce8cc","{""participantId"":""6C1964B0357642AD8167B7329869BDF4"",""assignmentId"":""e20837ab-4b65-4bb8-a6ba-706a8107f8ea"",""projectId"":""54f8d589-66fc-4c65-830f-1dcc63bce8cc""}","https://test12345.live/?participantId=6C1964B0357642AD8167B7329869BDF4&assignmentId=e20837ab-4b65-4bb8-a6ba-706a8107f8ea&projectId=54f8d589-66fc-4c65-830f-1dcc63bce8cc","","2947","Was there a person in the picture?","1","",""
"","","","","","survey-likert","95","460931","0.0-69.0","6C1964B0357642AD8167B7329869BDF4","6C1964B0357642AD8167B7329869BDF4","e20837ab-4b65-4bb8-a6ba-706a8107f8ea","54f8d589-66fc-4c65-830f-1dcc63bce8cc","{""participantId"":""6C1964B0357642AD8167B7329869BDF4"",""assignmentId"":""e20837ab-4b65-4bb8-a6ba-706a8107f8ea"",""projectId"":""54f8d589-66fc-4c65-830f-1dcc63bce8cc""}","https://test12345.live/?participantId=6C1964B0357642AD8167B7329869BDF4&assignmentId=e20837ab-4b65-4bb8-a6ba-706a8107f8ea&projectId=54f8d589-66fc-4c65-830f-1dcc63bce8cc","","1845","","{""Q0"":2}","","[0]"
"","","","","","html-button-response","96","462032","0.0-70.0","6C1964B0357642AD8167B7329869BDF4","6C1964B0357642AD8167B7329869BDF4","e20837ab-4b65-4bb8-a6ba-706a8107f8ea","54f8d589-66fc-4c65-830f-1dcc63bce8cc","{""participantId"":""6C1964B0357642AD8167B7329869BDF4"",""assignmentId"":""e20837ab-4b65-4bb8-a6ba-706a8107f8ea"",""projectId"":""54f8d589-66fc-4c65-830f-1dcc63bce8cc""}","https://test12345.live/?participantId=6C1964B0357642AD8167B7329869BDF4&assignmentId=e20837ab-4b65-4bb8-a6ba-706a8107f8ea&projectId=54f8d589-66fc-4c65-830f-1dcc63bce8cc","","1095","
    <div style=""display: flex; justify-content: center; align-items: center;"">
      <img src=""images/red_deck_2.png"" style=""width: 300px; height: 300px; margin-right: 10px;"" />
      <img src=""images/blue_deck_1.png"" style=""width: 300px; height: 300px;"" />
    </div>","0","0",""
"","","","","","html-keyboard-response","97","465040","0.0-71.0-0.0","6C1964B0357642AD8167B7329869BDF4","6C1964B0357642AD8167B7329869BDF4","e20837ab-4b65-4bb8-a6ba-706a8107f8ea","54f8d589-66fc-4c65-830f-1dcc63bce8cc","{""participantId"":""6C1964B0357642AD8167B7329869BDF4"",""assignmentId"":""e20837ab-4b65-4bb8-a6ba-706a8107f8ea"",""projectId"":""54f8d589-66fc-4c65-830f-1dcc63bce8cc""}","https://test12345.live/?participantId=6C1964B0357642AD8167B7329869BDF4&assignmentId=e20837ab-4b65-4bb8-a6ba-706a8107f8ea&projectId=54f8d589-66fc-4c65-830f-1dcc63bce8cc","","null","<div style=""display: flex; justify-content: center; align-items: center;"">
                    <img src=""images/causal/causal_series_15/causal_series_15_a.jpg"" style=""width: 300px; height: 300px;"" />
                  </div>","null","",""
"","","","","","html-keyboard-response","98","468048","0.0-71.0-1.0","6C1964B0357642AD8167B7329869BDF4","6C1964B0357642AD8167B7329869BDF4","e20837ab-4b65-4bb8-a6ba-706a8107f8ea","54f8d589-66fc-4c65-830f-1dcc63bce8cc","{""participantId"":""6C1964B0357642AD8167B7329869BDF4"",""assignmentId"":""e20837ab-4b65-4bb8-a6ba-706a8107f8ea"",""projectId"":""54f8d589-66fc-4c65-830f-1dcc63bce8cc""}","https://test12345.live/?participantId=6C1964B0357642AD8167B7329869BDF4&assignmentId=e20837ab-4b65-4bb8-a6ba-706a8107f8ea&projectId=54f8d589-66fc-4c65-830f-1dcc63bce8cc","","null","<div style=""display: flex; justify-content: center; align-items: center;"">
                    <img src=""images/causal/causal_series_15/causal_series_15_b.jpg"" style=""width: 300px; height: 300px;"" />
                  </div>","null","",""
"","","","","","html-keyboard-response","99","471056","0.0-71.0-2.0","6C1964B0357642AD8167B7329869BDF4","6C1964B0357642AD8167B7329869BDF4","e20837ab-4b65-4bb8-a6ba-706a8107f8ea","54f8d589-66fc-4c65-830f-1dcc63bce8cc","{""participantId"":""6C1964B0357642AD8167B7329869BDF4"",""assignmentId"":""e20837ab-4b65-4bb8-a6ba-706a8107f8ea"",""projectId"":""54f8d589-66fc-4c65-830f-1dcc63bce8cc""}","https://test12345.live/?participantId=6C1964B0357642AD8167B7329869BDF4&assignmentId=e20837ab-4b65-4bb8-a6ba-706a8107f8ea&projectId=54f8d589-66fc-4c65-830f-1dcc63bce8cc","","null","<div style=""display: flex; justify-content: center; align-items: center;"">
                    <img src=""images/causal/causal_series_15/causal_series_15_c.jpg"" style=""width: 300px; height: 300px;"" />
                  </div>","null","",""
"","","","","","html-keyboard-response","100","474065","0.0-71.0-3.0","6C1964B0357642AD8167B7329869BDF4","6C1964B0357642AD8167B7329869BDF4","e20837ab-4b65-4bb8-a6ba-706a8107f8ea","54f8d589-66fc-4c65-830f-1dcc63bce8cc","{""participantId"":""6C1964B0357642AD8167B7329869BDF4"",""assignmentId"":""e20837ab-4b65-4bb8-a6ba-706a8107f8ea"",""projectId"":""54f8d589-66fc-4c65-830f-1dcc63bce8cc""}","https://test12345.live/?participantId=6C1964B0357642AD8167B7329869BDF4&assignmentId=e20837ab-4b65-4bb8-a6ba-706a8107f8ea&projectId=54f8d589-66fc-4c65-830f-1dcc63bce8cc","","null","<div style=""display: flex; justify-content: center; align-items: center;"">
                    <img src=""images/causal/causal_series_15/causal_series_15_d.jpg"" style=""width: 300px; height: 300px;"" />
                  </div>","null","",""
"","","","","","html-button-response","101","477072","0.0-73.0","6C1964B0357642AD8167B7329869BDF4","6C1964B0357642AD8167B7329869BDF4","e20837ab-4b65-4bb8-a6ba-706a8107f8ea","54f8d589-66fc-4c65-830f-1dcc63bce8cc","{""participantId"":""6C1964B0357642AD8167B7329869BDF4"",""assignmentId"":""e20837ab-4b65-4bb8-a6ba-706a8107f8ea"",""projectId"":""54f8d589-66fc-4c65-830f-1dcc63bce8cc""}","https://test12345.live/?participantId=6C1964B0357642AD8167B7329869BDF4&assignmentId=e20837ab-4b65-4bb8-a6ba-706a8107f8ea&projectId=54f8d589-66fc-4c65-830f-1dcc63bce8cc","","3006","Was there a person in the picture?","0","",""
"","","","","","survey-likert","102","478554","0.0-74.0","6C1964B0357642AD8167B7329869BDF4","6C1964B0357642AD8167B7329869BDF4","e20837ab-4b65-4bb8-a6ba-706a8107f8ea","54f8d589-66fc-4c65-830f-1dcc63bce8cc","{""participantId"":""6C1964B0357642AD8167B7329869BDF4"",""assignmentId"":""e20837ab-4b65-4bb8-a6ba-706a8107f8ea"",""projectId"":""54f8d589-66fc-4c65-830f-1dcc63bce8cc""}","https://test12345.live/?participantId=6C1964B0357642AD8167B7329869BDF4&assignmentId=e20837ab-4b65-4bb8-a6ba-706a8107f8ea&projectId=54f8d589-66fc-4c65-830f-1dcc63bce8cc","","1480","","{""Q0"":1}","","[0]"
"","","","","","html-button-response","103","479251","0.0-75.0","6C1964B0357642AD8167B7329869BDF4","6C1964B0357642AD8167B7329869BDF4","e20837ab-4b65-4bb8-a6ba-706a8107f8ea","54f8d589-66fc-4c65-830f-1dcc63bce8cc","{""participantId"":""6C1964B0357642AD8167B7329869BDF4"",""assignmentId"":""e20837ab-4b65-4bb8-a6ba-706a8107f8ea"",""projectId"":""54f8d589-66fc-4c65-830f-1dcc63bce8cc""}","https://test12345.live/?participantId=6C1964B0357642AD8167B7329869BDF4&assignmentId=e20837ab-4b65-4bb8-a6ba-706a8107f8ea&projectId=54f8d589-66fc-4c65-830f-1dcc63bce8cc","","692","
    <div style=""display: flex; justify-content: center; align-items: center;"">
      <img src=""images/red_deck_2.png"" style=""width: 300px; height: 300px; margin-right: 10px;"" />
      <img src=""images/blue_deck_1.png"" style=""width: 300px; height: 300px;"" />
    </div>","0","0",""
"","","","","","html-keyboard-response","104","482256","0.0-76.0-0.0","6C1964B0357642AD8167B7329869BDF4","6C1964B0357642AD8167B7329869BDF4","e20837ab-4b65-4bb8-a6ba-706a8107f8ea","54f8d589-66fc-4c65-830f-1dcc63bce8cc","{""participantId"":""6C1964B0357642AD8167B7329869BDF4"",""assignmentId"":""e20837ab-4b65-4bb8-a6ba-706a8107f8ea"",""projectId"":""54f8d589-66fc-4c65-830f-1dcc63bce8cc""}","https://test12345.live/?participantId=6C1964B0357642AD8167B7329869BDF4&assignmentId=e20837ab-4b65-4bb8-a6ba-706a8107f8ea&projectId=54f8d589-66fc-4c65-830f-1dcc63bce8cc","","null","<div style=""display: flex; justify-content: center; align-items: center;"">
                    <img src=""images/causal/causal_series_14/causal_series_14_a.jpg"" style=""width: 300px; height: 300px;"" />
                  </div>","null","",""
"","","","","","html-keyboard-response","105","485264","0.0-76.0-1.0","6C1964B0357642AD8167B7329869BDF4","6C1964B0357642AD8167B7329869BDF4","e20837ab-4b65-4bb8-a6ba-706a8107f8ea","54f8d589-66fc-4c65-830f-1dcc63bce8cc","{""participantId"":""6C1964B0357642AD8167B7329869BDF4"",""assignmentId"":""e20837ab-4b65-4bb8-a6ba-706a8107f8ea"",""projectId"":""54f8d589-66fc-4c65-830f-1dcc63bce8cc""}","https://test12345.live/?participantId=6C1964B0357642AD8167B7329869BDF4&assignmentId=e20837ab-4b65-4bb8-a6ba-706a8107f8ea&projectId=54f8d589-66fc-4c65-830f-1dcc63bce8cc","","null","<div style=""display: flex; justify-content: center; align-items: center;"">
                    <img src=""images/causal/causal_series_14/causal_series_14_b.jpg"" style=""width: 300px; height: 300px;"" />
                  </div>","null","",""
"","","","","","html-keyboard-response","106","488272","0.0-76.0-2.0","6C1964B0357642AD8167B7329869BDF4","6C1964B0357642AD8167B7329869BDF4","e20837ab-4b65-4bb8-a6ba-706a8107f8ea","54f8d589-66fc-4c65-830f-1dcc63bce8cc","{""participantId"":""6C1964B0357642AD8167B7329869BDF4"",""assignmentId"":""e20837ab-4b65-4bb8-a6ba-706a8107f8ea"",""projectId"":""54f8d589-66fc-4c65-830f-1dcc63bce8cc""}","https://test12345.live/?participantId=6C1964B0357642AD8167B7329869BDF4&assignmentId=e20837ab-4b65-4bb8-a6ba-706a8107f8ea&projectId=54f8d589-66fc-4c65-830f-1dcc63bce8cc","","null","<div style=""display: flex; justify-content: center; align-items: center;"">
                    <img src=""images/causal/causal_series_14/causal_series_14_c.jpg"" style=""width: 300px; height: 300px;"" />
                  </div>","null","",""
"","","","","","html-keyboard-response","107","491280","0.0-76.0-3.0","6C1964B0357642AD8167B7329869BDF4","6C1964B0357642AD8167B7329869BDF4","e20837ab-4b65-4bb8-a6ba-706a8107f8ea","54f8d589-66fc-4c65-830f-1dcc63bce8cc","{""participantId"":""6C1964B0357642AD8167B7329869BDF4"",""assignmentId"":""e20837ab-4b65-4bb8-a6ba-706a8107f8ea"",""projectId"":""54f8d589-66fc-4c65-830f-1dcc63bce8cc""}","https://test12345.live/?participantId=6C1964B0357642AD8167B7329869BDF4&assignmentId=e20837ab-4b65-4bb8-a6ba-706a8107f8ea&projectId=54f8d589-66fc-4c65-830f-1dcc63bce8cc","","null","<div style=""display: flex; justify-content: center; align-items: center;"">
                    <img src=""images/causal/causal_series_14/causal_series_14_d.jpg"" style=""width: 300px; height: 300px;"" />
                  </div>","null","",""
"","","","","","html-button-response","108","492089","0.0-78.0","6C1964B0357642AD8167B7329869BDF4","6C1964B0357642AD8167B7329869BDF4","e20837ab-4b65-4bb8-a6ba-706a8107f8ea","54f8d589-66fc-4c65-830f-1dcc63bce8cc","{""participantId"":""6C1964B0357642AD8167B7329869BDF4"",""assignmentId"":""e20837ab-4b65-4bb8-a6ba-706a8107f8ea"",""projectId"":""54f8d589-66fc-4c65-830f-1dcc63bce8cc""}","https://test12345.live/?participantId=6C1964B0357642AD8167B7329869BDF4&assignmentId=e20837ab-4b65-4bb8-a6ba-706a8107f8ea&projectId=54f8d589-66fc-4c65-830f-1dcc63bce8cc","","808","Was there a person in the picture?","0","",""
"","","","","","survey-likert","109","493375","0.0-79.0","6C1964B0357642AD8167B7329869BDF4","6C1964B0357642AD8167B7329869BDF4","e20837ab-4b65-4bb8-a6ba-706a8107f8ea","54f8d589-66fc-4c65-830f-1dcc63bce8cc","{""participantId"":""6C1964B0357642AD8167B7329869BDF4"",""assignmentId"":""e20837ab-4b65-4bb8-a6ba-706a8107f8ea"",""projectId"":""54f8d589-66fc-4c65-830f-1dcc63bce8cc""}","https://test12345.live/?participantId=6C1964B0357642AD8167B7329869BDF4&assignmentId=e20837ab-4b65-4bb8-a6ba-706a8107f8ea&projectId=54f8d589-66fc-4c65-830f-1dcc63bce8cc","","1284","","{""Q0"":1}","","[0]"
"","","","","","html-button-response","110","494391","0.0-80.0","6C1964B0357642AD8167B7329869BDF4","6C1964B0357642AD8167B7329869BDF4","e20837ab-4b65-4bb8-a6ba-706a8107f8ea","54f8d589-66fc-4c65-830f-1dcc63bce8cc","{""participantId"":""6C1964B0357642AD8167B7329869BDF4"",""assignmentId"":""e20837ab-4b65-4bb8-a6ba-706a8107f8ea"",""projectId"":""54f8d589-66fc-4c65-830f-1dcc63bce8cc""}","https://test12345.live/?participantId=6C1964B0357642AD8167B7329869BDF4&assignmentId=e20837ab-4b65-4bb8-a6ba-706a8107f8ea&projectId=54f8d589-66fc-4c65-830f-1dcc63bce8cc","","1010","
    <div style=""display: flex; justify-content: center; align-items: center;"">
      <img src=""images/red_deck_2.png"" style=""width: 300px; height: 300px; margin-right: 10px;"" />
      <img src=""images/blue_deck_1.png"" style=""width: 300px; height: 300px;"" />
    </div>","0","0",""
"","","","","","html-keyboard-response","111","497401","0.0-81.0-0.0","6C1964B0357642AD8167B7329869BDF4","6C1964B0357642AD8167B7329869BDF4","e20837ab-4b65-4bb8-a6ba-706a8107f8ea","54f8d589-66fc-4c65-830f-1dcc63bce8cc","{""participantId"":""6C1964B0357642AD8167B7329869BDF4"",""assignmentId"":""e20837ab-4b65-4bb8-a6ba-706a8107f8ea"",""projectId"":""54f8d589-66fc-4c65-830f-1dcc63bce8cc""}","https://test12345.live/?participantId=6C1964B0357642AD8167B7329869BDF4&assignmentId=e20837ab-4b65-4bb8-a6ba-706a8107f8ea&projectId=54f8d589-66fc-4c65-830f-1dcc63bce8cc","","null","<div style=""display: flex; justify-content: center; align-items: center;"">
                    <img src=""images/causal/causal_series_11/causal_series_11_a.jpg"" style=""width: 300px; height: 300px;"" />
                  </div>","null","",""
"","","","","","html-keyboard-response","112","500408","0.0-81.0-1.0","6C1964B0357642AD8167B7329869BDF4","6C1964B0357642AD8167B7329869BDF4","e20837ab-4b65-4bb8-a6ba-706a8107f8ea","54f8d589-66fc-4c65-830f-1dcc63bce8cc","{""participantId"":""6C1964B0357642AD8167B7329869BDF4"",""assignmentId"":""e20837ab-4b65-4bb8-a6ba-706a8107f8ea"",""projectId"":""54f8d589-66fc-4c65-830f-1dcc63bce8cc""}","https://test12345.live/?participantId=6C1964B0357642AD8167B7329869BDF4&assignmentId=e20837ab-4b65-4bb8-a6ba-706a8107f8ea&projectId=54f8d589-66fc-4c65-830f-1dcc63bce8cc","","null","<div style=""display: flex; justify-content: center; align-items: center;"">
                    <img src=""images/causal/causal_series_11/causal_series_11_b.jpg"" style=""width: 300px; height: 300px;"" />
                  </div>","null","",""
"","","","","","html-keyboard-response","113","503416","0.0-81.0-2.0","6C1964B0357642AD8167B7329869BDF4","6C1964B0357642AD8167B7329869BDF4","e20837ab-4b65-4bb8-a6ba-706a8107f8ea","54f8d589-66fc-4c65-830f-1dcc63bce8cc","{""participantId"":""6C1964B0357642AD8167B7329869BDF4"",""assignmentId"":""e20837ab-4b65-4bb8-a6ba-706a8107f8ea"",""projectId"":""54f8d589-66fc-4c65-830f-1dcc63bce8cc""}","https://test12345.live/?participantId=6C1964B0357642AD8167B7329869BDF4&assignmentId=e20837ab-4b65-4bb8-a6ba-706a8107f8ea&projectId=54f8d589-66fc-4c65-830f-1dcc63bce8cc","","null","<div style=""display: flex; justify-content: center; align-items: center;"">
                    <img src=""images/causal/causal_series_11/causal_series_11_c.jpg"" style=""width: 300px; height: 300px;"" />
                  </div>","null","",""
"","","","","","html-keyboard-response","114","506419","0.0-81.0-3.0","6C1964B0357642AD8167B7329869BDF4","6C1964B0357642AD8167B7329869BDF4","e20837ab-4b65-4bb8-a6ba-706a8107f8ea","54f8d589-66fc-4c65-830f-1dcc63bce8cc","{""participantId"":""6C1964B0357642AD8167B7329869BDF4"",""assignmentId"":""e20837ab-4b65-4bb8-a6ba-706a8107f8ea"",""projectId"":""54f8d589-66fc-4c65-830f-1dcc63bce8cc""}","https://test12345.live/?participantId=6C1964B0357642AD8167B7329869BDF4&assignmentId=e20837ab-4b65-4bb8-a6ba-706a8107f8ea&projectId=54f8d589-66fc-4c65-830f-1dcc63bce8cc","","null","<div style=""display: flex; justify-content: center; align-items: center;"">
                    <img src=""images/causal/causal_series_11/causal_series_11_d.jpg"" style=""width: 300px; height: 300px;"" />
                  </div>","null","",""
"","","","","","html-button-response","115","507656","0.0-83.0","6C1964B0357642AD8167B7329869BDF4","6C1964B0357642AD8167B7329869BDF4","e20837ab-4b65-4bb8-a6ba-706a8107f8ea","54f8d589-66fc-4c65-830f-1dcc63bce8cc","{""participantId"":""6C1964B0357642AD8167B7329869BDF4"",""assignmentId"":""e20837ab-4b65-4bb8-a6ba-706a8107f8ea"",""projectId"":""54f8d589-66fc-4c65-830f-1dcc63bce8cc""}","https://test12345.live/?participantId=6C1964B0357642AD8167B7329869BDF4&assignmentId=e20837ab-4b65-4bb8-a6ba-706a8107f8ea&projectId=54f8d589-66fc-4c65-830f-1dcc63bce8cc","","1235","Was there a person in the picture?","0","",""
"","","","","","survey-likert","116","509211","0.0-84.0","6C1964B0357642AD8167B7329869BDF4","6C1964B0357642AD8167B7329869BDF4","e20837ab-4b65-4bb8-a6ba-706a8107f8ea","54f8d589-66fc-4c65-830f-1dcc63bce8cc","{""participantId"":""6C1964B0357642AD8167B7329869BDF4"",""assignmentId"":""e20837ab-4b65-4bb8-a6ba-706a8107f8ea"",""projectId"":""54f8d589-66fc-4c65-830f-1dcc63bce8cc""}","https://test12345.live/?participantId=6C1964B0357642AD8167B7329869BDF4&assignmentId=e20837ab-4b65-4bb8-a6ba-706a8107f8ea&projectId=54f8d589-66fc-4c65-830f-1dcc63bce8cc","","1552","","{""Q0"":2}","","[0]"
"","","","","","html-button-response","117","510300","0.0-85.0","6C1964B0357642AD8167B7329869BDF4","6C1964B0357642AD8167B7329869BDF4","e20837ab-4b65-4bb8-a6ba-706a8107f8ea","54f8d589-66fc-4c65-830f-1dcc63bce8cc","{""participantId"":""6C1964B0357642AD8167B7329869BDF4"",""assignmentId"":""e20837ab-4b65-4bb8-a6ba-706a8107f8ea"",""projectId"":""54f8d589-66fc-4c65-830f-1dcc63bce8cc""}","https://test12345.live/?participantId=6C1964B0357642AD8167B7329869BDF4&assignmentId=e20837ab-4b65-4bb8-a6ba-706a8107f8ea&projectId=54f8d589-66fc-4c65-830f-1dcc63bce8cc","","1084","
    <div style=""display: flex; justify-content: center; align-items: center;"">
      <img src=""images/red_deck_2.png"" style=""width: 300px; height: 300px; margin-right: 10px;"" />
      <img src=""images/blue_deck_1.png"" style=""width: 300px; height: 300px;"" />
    </div>","1","1",""
"","","","","","html-keyboard-response","118","513305","0.0-87.0-0.0","6C1964B0357642AD8167B7329869BDF4","6C1964B0357642AD8167B7329869BDF4","e20837ab-4b65-4bb8-a6ba-706a8107f8ea","54f8d589-66fc-4c65-830f-1dcc63bce8cc","{""participantId"":""6C1964B0357642AD8167B7329869BDF4"",""assignmentId"":""e20837ab-4b65-4bb8-a6ba-706a8107f8ea"",""projectId"":""54f8d589-66fc-4c65-830f-1dcc63bce8cc""}","https://test12345.live/?participantId=6C1964B0357642AD8167B7329869BDF4&assignmentId=e20837ab-4b65-4bb8-a6ba-706a8107f8ea&projectId=54f8d589-66fc-4c65-830f-1dcc63bce8cc","","null","<div style=""display: flex; justify-content: center; align-items: center;"">
                    <img src=""images/semantic/semantic_series_7/semantic_series_7_a.jpg"" style=""width: 300px; height: 300px;"" />
                  </div>","null","",""
"","","","","","html-keyboard-response","119","516313","0.0-87.0-1.0","6C1964B0357642AD8167B7329869BDF4","6C1964B0357642AD8167B7329869BDF4","e20837ab-4b65-4bb8-a6ba-706a8107f8ea","54f8d589-66fc-4c65-830f-1dcc63bce8cc","{""participantId"":""6C1964B0357642AD8167B7329869BDF4"",""assignmentId"":""e20837ab-4b65-4bb8-a6ba-706a8107f8ea"",""projectId"":""54f8d589-66fc-4c65-830f-1dcc63bce8cc""}","https://test12345.live/?participantId=6C1964B0357642AD8167B7329869BDF4&assignmentId=e20837ab-4b65-4bb8-a6ba-706a8107f8ea&projectId=54f8d589-66fc-4c65-830f-1dcc63bce8cc","","null","<div style=""display: flex; justify-content: center; align-items: center;"">
                    <img src=""images/semantic/semantic_series_7/semantic_series_7_b.jpg"" style=""width: 300px; height: 300px;"" />
                  </div>","null","",""
"","","","","","html-keyboard-response","120","519321","0.0-87.0-2.0","6C1964B0357642AD8167B7329869BDF4","6C1964B0357642AD8167B7329869BDF4","e20837ab-4b65-4bb8-a6ba-706a8107f8ea","54f8d589-66fc-4c65-830f-1dcc63bce8cc","{""participantId"":""6C1964B0357642AD8167B7329869BDF4"",""assignmentId"":""e20837ab-4b65-4bb8-a6ba-706a8107f8ea"",""projectId"":""54f8d589-66fc-4c65-830f-1dcc63bce8cc""}","https://test12345.live/?participantId=6C1964B0357642AD8167B7329869BDF4&assignmentId=e20837ab-4b65-4bb8-a6ba-706a8107f8ea&projectId=54f8d589-66fc-4c65-830f-1dcc63bce8cc","","null","<div style=""display: flex; justify-content: center; align-items: center;"">
                    <img src=""images/semantic/semantic_series_7/semantic_series_7_c.jpg"" style=""width: 300px; height: 300px;"" />
                  </div>","null","",""
"","","","","","html-keyboard-response","121","522328","0.0-87.0-3.0","6C1964B0357642AD8167B7329869BDF4","6C1964B0357642AD8167B7329869BDF4","e20837ab-4b65-4bb8-a6ba-706a8107f8ea","54f8d589-66fc-4c65-830f-1dcc63bce8cc","{""participantId"":""6C1964B0357642AD8167B7329869BDF4"",""assignmentId"":""e20837ab-4b65-4bb8-a6ba-706a8107f8ea"",""projectId"":""54f8d589-66fc-4c65-830f-1dcc63bce8cc""}","https://test12345.live/?participantId=6C1964B0357642AD8167B7329869BDF4&assignmentId=e20837ab-4b65-4bb8-a6ba-706a8107f8ea&projectId=54f8d589-66fc-4c65-830f-1dcc63bce8cc","","null","<div style=""display: flex; justify-content: center; align-items: center;"">
                    <img src=""images/semantic/semantic_series_7/semantic_series_7_d.jpg"" style=""width: 300px; height: 300px;"" />
                  </div>","null","",""
"","","","","","html-button-response","122","523382","0.0-88.0","6C1964B0357642AD8167B7329869BDF4","6C1964B0357642AD8167B7329869BDF4","e20837ab-4b65-4bb8-a6ba-706a8107f8ea","54f8d589-66fc-4c65-830f-1dcc63bce8cc","{""participantId"":""6C1964B0357642AD8167B7329869BDF4"",""assignmentId"":""e20837ab-4b65-4bb8-a6ba-706a8107f8ea"",""projectId"":""54f8d589-66fc-4c65-830f-1dcc63bce8cc""}","https://test12345.live/?participantId=6C1964B0357642AD8167B7329869BDF4&assignmentId=e20837ab-4b65-4bb8-a6ba-706a8107f8ea&projectId=54f8d589-66fc-4c65-830f-1dcc63bce8cc","","1053","Was there a person in the picture?","1","",""
"","","","","","survey-likert","123","524962","0.0-89.0","6C1964B0357642AD8167B7329869BDF4","6C1964B0357642AD8167B7329869BDF4","e20837ab-4b65-4bb8-a6ba-706a8107f8ea","54f8d589-66fc-4c65-830f-1dcc63bce8cc","{""participantId"":""6C1964B0357642AD8167B7329869BDF4"",""assignmentId"":""e20837ab-4b65-4bb8-a6ba-706a8107f8ea"",""projectId"":""54f8d589-66fc-4c65-830f-1dcc63bce8cc""}","https://test12345.live/?participantId=6C1964B0357642AD8167B7329869BDF4&assignmentId=e20837ab-4b65-4bb8-a6ba-706a8107f8ea&projectId=54f8d589-66fc-4c65-830f-1dcc63bce8cc","","1578","","{""Q0"":2}","","[0]"
"","","","","","html-button-response","124","526026","0.0-90.0","6C1964B0357642AD8167B7329869BDF4","6C1964B0357642AD8167B7329869BDF4","e20837ab-4b65-4bb8-a6ba-706a8107f8ea","54f8d589-66fc-4c65-830f-1dcc63bce8cc","{""participantId"":""6C1964B0357642AD8167B7329869BDF4"",""assignmentId"":""e20837ab-4b65-4bb8-a6ba-706a8107f8ea"",""projectId"":""54f8d589-66fc-4c65-830f-1dcc63bce8cc""}","https://test12345.live/?participantId=6C1964B0357642AD8167B7329869BDF4&assignmentId=e20837ab-4b65-4bb8-a6ba-706a8107f8ea&projectId=54f8d589-66fc-4c65-830f-1dcc63bce8cc","","1058","
    <div style=""display: flex; justify-content: center; align-items: center;"">
      <img src=""images/red_deck_2.png"" style=""width: 300px; height: 300px; margin-right: 10px;"" />
      <img src=""images/blue_deck_1.png"" style=""width: 300px; height: 300px;"" />
    </div>","1","1",""
"","","","","","html-keyboard-response","125","529033","0.0-92.0-0.0","6C1964B0357642AD8167B7329869BDF4","6C1964B0357642AD8167B7329869BDF4","e20837ab-4b65-4bb8-a6ba-706a8107f8ea","54f8d589-66fc-4c65-830f-1dcc63bce8cc","{""participantId"":""6C1964B0357642AD8167B7329869BDF4"",""assignmentId"":""e20837ab-4b65-4bb8-a6ba-706a8107f8ea"",""projectId"":""54f8d589-66fc-4c65-830f-1dcc63bce8cc""}","https://test12345.live/?participantId=6C1964B0357642AD8167B7329869BDF4&assignmentId=e20837ab-4b65-4bb8-a6ba-706a8107f8ea&projectId=54f8d589-66fc-4c65-830f-1dcc63bce8cc","","null","<div style=""display: flex; justify-content: center; align-items: center;"">
                    <img src=""images/semantic/semantic_series_1/semantic_series_1_a.jpg"" style=""width: 300px; height: 300px;"" />
                  </div>","null","",""
"","","","","","html-keyboard-response","126","532041","0.0-92.0-1.0","6C1964B0357642AD8167B7329869BDF4","6C1964B0357642AD8167B7329869BDF4","e20837ab-4b65-4bb8-a6ba-706a8107f8ea","54f8d589-66fc-4c65-830f-1dcc63bce8cc","{""participantId"":""6C1964B0357642AD8167B7329869BDF4"",""assignmentId"":""e20837ab-4b65-4bb8-a6ba-706a8107f8ea"",""projectId"":""54f8d589-66fc-4c65-830f-1dcc63bce8cc""}","https://test12345.live/?participantId=6C1964B0357642AD8167B7329869BDF4&assignmentId=e20837ab-4b65-4bb8-a6ba-706a8107f8ea&projectId=54f8d589-66fc-4c65-830f-1dcc63bce8cc","","null","<div style=""display: flex; justify-content: center; align-items: center;"">
                    <img src=""images/semantic/semantic_series_1/semantic_series_1_b.jpg"" style=""width: 300px; height: 300px;"" />
                  </div>","null","",""
"","","","","","html-keyboard-response","127","535049","0.0-92.0-2.0","6C1964B0357642AD8167B7329869BDF4","6C1964B0357642AD8167B7329869BDF4","e20837ab-4b65-4bb8-a6ba-706a8107f8ea","54f8d589-66fc-4c65-830f-1dcc63bce8cc","{""participantId"":""6C1964B0357642AD8167B7329869BDF4"",""assignmentId"":""e20837ab-4b65-4bb8-a6ba-706a8107f8ea"",""projectId"":""54f8d589-66fc-4c65-830f-1dcc63bce8cc""}","https://test12345.live/?participantId=6C1964B0357642AD8167B7329869BDF4&assignmentId=e20837ab-4b65-4bb8-a6ba-706a8107f8ea&projectId=54f8d589-66fc-4c65-830f-1dcc63bce8cc","","null","<div style=""display: flex; justify-content: center; align-items: center;"">
                    <img src=""images/semantic/semantic_series_1/semantic_series_1_c.jpg"" style=""width: 300px; height: 300px;"" />
                  </div>","null","",""
"","","","","","html-keyboard-response","128","538057","0.0-92.0-3.0","6C1964B0357642AD8167B7329869BDF4","6C1964B0357642AD8167B7329869BDF4","e20837ab-4b65-4bb8-a6ba-706a8107f8ea","54f8d589-66fc-4c65-830f-1dcc63bce8cc","{""participantId"":""6C1964B0357642AD8167B7329869BDF4"",""assignmentId"":""e20837ab-4b65-4bb8-a6ba-706a8107f8ea"",""projectId"":""54f8d589-66fc-4c65-830f-1dcc63bce8cc""}","https://test12345.live/?participantId=6C1964B0357642AD8167B7329869BDF4&assignmentId=e20837ab-4b65-4bb8-a6ba-706a8107f8ea&projectId=54f8d589-66fc-4c65-830f-1dcc63bce8cc","","null","<div style=""display: flex; justify-content: center; align-items: center;"">
                    <img src=""images/semantic/semantic_series_1/semantic_series_1_d.jpg"" style=""width: 300px; height: 300px;"" />
                  </div>","null","",""
"","","","","","html-button-response","129","539832","0.0-93.0","6C1964B0357642AD8167B7329869BDF4","6C1964B0357642AD8167B7329869BDF4","e20837ab-4b65-4bb8-a6ba-706a8107f8ea","54f8d589-66fc-4c65-830f-1dcc63bce8cc","{""participantId"":""6C1964B0357642AD8167B7329869BDF4"",""assignmentId"":""e20837ab-4b65-4bb8-a6ba-706a8107f8ea"",""projectId"":""54f8d589-66fc-4c65-830f-1dcc63bce8cc""}","https://test12345.live/?participantId=6C1964B0357642AD8167B7329869BDF4&assignmentId=e20837ab-4b65-4bb8-a6ba-706a8107f8ea&projectId=54f8d589-66fc-4c65-830f-1dcc63bce8cc","","1774","Was there a person in the picture?","0","",""
"","","","","","survey-likert","130","541055","0.0-94.0","6C1964B0357642AD8167B7329869BDF4","6C1964B0357642AD8167B7329869BDF4","e20837ab-4b65-4bb8-a6ba-706a8107f8ea","54f8d589-66fc-4c65-830f-1dcc63bce8cc","{""participantId"":""6C1964B0357642AD8167B7329869BDF4"",""assignmentId"":""e20837ab-4b65-4bb8-a6ba-706a8107f8ea"",""projectId"":""54f8d589-66fc-4c65-830f-1dcc63bce8cc""}","https://test12345.live/?participantId=6C1964B0357642AD8167B7329869BDF4&assignmentId=e20837ab-4b65-4bb8-a6ba-706a8107f8ea&projectId=54f8d589-66fc-4c65-830f-1dcc63bce8cc","","1221","","{""Q0"":1}","","[0]"
"","","","","","survey-text","131","559723","0.0-95.0","6C1964B0357642AD8167B7329869BDF4","6C1964B0357642AD8167B7329869BDF4","e20837ab-4b65-4bb8-a6ba-706a8107f8ea","54f8d589-66fc-4c65-830f-1dcc63bce8cc","{""participantId"":""6C1964B0357642AD8167B7329869BDF4"",""assignmentId"":""e20837ab-4b65-4bb8-a6ba-706a8107f8ea"",""projectId"":""54f8d589-66fc-4c65-830f-1dcc63bce8cc""}","https://test12345.live/?participantId=6C1964B0357642AD8167B7329869BDF4&assignmentId=e20837ab-4b65-4bb8-a6ba-706a8107f8ea&projectId=54f8d589-66fc-4c65-830f-1dcc63bce8cc","","18658","","{""Q0"":""One seemed more likely to have people, while the other seemed more likely to have animal cartoons.""}","",""
