"success","timeout","failed_images","failed_audio","failed_video","trial_type","trial_index","time_elapsed","internal_node_id","subject","subject_id","study_id","session_id","urlvar","current_url","view_history","rt","stimulus","response","choice","question_order"
"true","false","[]","[]","[]","preload","0","2337","0.0-0.0","16426D67E81A4AC58B6E3D9D00A53641","16426D67E81A4AC58B6E3D9D00A53641","150a3973-67bc-4fef-a378-9460b85d7c89","54f8d589-66fc-4c65-830f-1dcc63bce8cc","{""participantId"":""16426D67E81A4AC58B6E3D9D00A53641"",""assignmentId"":""150a3973-67bc-4fef-a378-9460b85d7c89"",""projectId"":""54f8d589-66fc-4c65-830f-1dcc63bce8cc""}","https://test12345.live/?participantId=16426D67E81A4AC58B6E3D9D00A53641&assignmentId=150a3973-67bc-4fef-a378-9460b85d7c89&projectId=54f8d589-66fc-4c65-830f-1dcc63bce8cc","","","","","",""
"","","","","","instructions","1","3860","0.0-1.0","16426D67E81A4AC58B6E3D9D00A53641","16426D67E81A4AC58B6E3D9D00A53641","150a3973-67bc-4fef-a378-9460b85d7c89","54f8d589-66fc-4c65-830f-1dcc63bce8cc","{""participantId"":""16426D67E81A4AC58B6E3D9D00A53641"",""assignmentId"":""150a3973-67bc-4fef-a378-9460b85d7c89"",""projectId"":""54f8d589-66fc-4c65-830f-1dcc63bce8cc""}","https://test12345.live/?participantId=16426D67E81A4AC58B6E3D9D00A53641&assignmentId=150a3973-67bc-4fef-a378-9460b85d7c89&projectId=54f8d589-66fc-4c65-830f-1dcc63bce8cc","[{""page_index"":0,""viewing_time"":1523}]","1523","","","",""
"","","","","","instructions","2","13973","0.0-2.0","16426D67E81A4AC58B6E3D9D00A53641","16426D67E81A4AC58B6E3D9D00A53641","150a3973-67bc-4fef-a378-9460b85d7c89","54f8d589-66fc-4c65-830f-1dcc63bce8cc","{""participantId"":""16426D67E81A4AC58B6E3D9D00A53641"",""assignmentId"":""150a3973-67bc-4fef-a378-9460b85d7c89"",""projectId"":""54f8d589-66fc-4c65-830f-1dcc63bce8cc""}","https://test12345.live/?participantId=16426D67E81A4AC58B6E3D9D00A53641&assignmentId=150a3973-67bc-4fef-a378-9460b85d7c89&projectId=54f8d589-66fc-4c65-830f-1dcc63bce8cc","[{""page_index"":0,""viewing_time"":10111}]","10112","","","",""
"true","","","","","fullscreen","3","16714","0.0-3.0","16426D67E81A4AC58B6E3D9D00A53641","16426D67E81A4AC58B6E3D9D00A53641","150a3973-67bc-4fef-a378-9460b85d7c89","54f8d589-66fc-4c65-830f-1dcc63bce8cc","{""participantId"":""16426D67E81A4AC58B6E3D9D00A53641"",""assignmentId"":""150a3973-67bc-4fef-a378-9460b85d7c89"",""projectId"":""54f8d589-66fc-4c65-830f-1dcc63bce8cc""}","https://test12345.live/?participantId=16426D67E81A4AC58B6E3D9D00A53641&assignmentId=150a3973-67bc-4fef-a378-9460b85d7c89&projectId=54f8d589-66fc-4c65-830f-1dcc63bce8cc","","1735","","","",""
"","","","","","instructions","4","23209","0.0-4.0","16426D67E81A4AC58B6E3D9D00A53641","16426D67E81A4AC58B6E3D9D00A53641","150a3973-67bc-4fef-a378-9460b85d7c89","54f8d589-66fc-4c65-830f-1dcc63bce8cc","{""participantId"":""16426D67E81A4AC58B6E3D9D00A53641"",""assignmentId"":""150a3973-67bc-4fef-a378-9460b85d7c89"",""projectId"":""54f8d589-66fc-4c65-830f-1dcc63bce8cc""}","https://test12345.live/?participantId=16426D67E81A4AC58B6E3D9D00A53641&assignmentId=150a3973-67bc-4fef-a378-9460b85d7c89&projectId=54f8d589-66fc-4c65-830f-1dcc63bce8cc","[{""page_index"":0,""viewing_time"":6493}]","6494","","","",""
"","","","","","html-button-response","5","27919","0.0-5.0","16426D67E81A4AC58B6E3D9D00A53641","16426D67E81A4AC58B6E3D9D00A53641","150a3973-67bc-4fef-a378-9460b85d7c89","54f8d589-66fc-4c65-830f-1dcc63bce8cc","{""participantId"":""16426D67E81A4AC58B6E3D9D00A53641"",""assignmentId"":""150a3973-67bc-4fef-a378-9460b85d7c89"",""projectId"":""54f8d589-66fc-4c65-830f-1dcc63bce8cc""}","https://test12345.live/?participantId=16426D67E81A4AC58B6E3D9D00A53641&assignmentId=150a3973-67bc-4fef-a378-9460b85d7c89&projectId=54f8d589-66fc-4c65-830f-1dcc63bce8cc","","4709","
    <div style=""display: flex; justify-content: center; align-items: center;"">
      <img src=""images/red_deck_2.png"" style=""width: 300px; height: 300px; margin-right: 10px;"" />
      <img src=""images/blue_deck_1.png"" style=""width: 300px; height: 300px;"" />
    </div>","0","0",""
"","","","","","html-keyboard-response","6","30943","0.0-6.0-0.0","16426D67E81A4AC58B6E3D9D00A53641","16426D67E81A4AC58B6E3D9D00A53641","150a3973-67bc-4fef-a378-9460b85d7c89","54f8d589-66fc-4c65-830f-1dcc63bce8cc","{""participantId"":""16426D67E81A4AC58B6E3D9D00A53641"",""assignmentId"":""150a3973-67bc-4fef-a378-9460b85d7c89"",""projectId"":""54f8d589-66fc-4c65-830f-1dcc63bce8cc""}","https://test12345.live/?participantId=16426D67E81A4AC58B6E3D9D00A53641&assignmentId=150a3973-67bc-4fef-a378-9460b85d7c89&projectId=54f8d589-66fc-4c65-830f-1dcc63bce8cc","","null","<div style=""display: flex; justify-content: center; align-items: center;"">
                    <img src=""images/causal/causal_series_16/causal_series_16_a.jpg"" style=""width: 300px; height: 300px;"" />
                  </div>","null","",""
"","","","","","html-keyboard-response","7","33976","0.0-6.0-1.0","16426D67E81A4AC58B6E3D9D00A53641","16426D67E81A4AC58B6E3D9D00A53641","150a3973-67bc-4fef-a378-9460b85d7c89","54f8d589-66fc-4c65-830f-1dcc63bce8cc","{""participantId"":""16426D67E81A4AC58B6E3D9D00A53641"",""assignmentId"":""150a3973-67bc-4fef-a378-9460b85d7c89"",""projectId"":""54f8d589-66fc-4c65-830f-1dcc63bce8cc""}","https://test12345.live/?participantId=16426D67E81A4AC58B6E3D9D00A53641&assignmentId=150a3973-67bc-4fef-a378-9460b85d7c89&projectId=54f8d589-66fc-4c65-830f-1dcc63bce8cc","","null","<div style=""display: flex; justify-content: center; align-items: center;"">
                    <img src=""images/causal/causal_series_16/causal_series_16_b.jpg"" style=""width: 300px; height: 300px;"" />
                  </div>","null","",""
"","","","","","html-keyboard-response","8","37004","0.0-6.0-2.0","16426D67E81A4AC58B6E3D9D00A53641","16426D67E81A4AC58B6E3D9D00A53641","150a3973-67bc-4fef-a378-9460b85d7c89","54f8d589-66fc-4c65-830f-1dcc63bce8cc","{""participantId"":""16426D67E81A4AC58B6E3D9D00A53641"",""assignmentId"":""150a3973-67bc-4fef-a378-9460b85d7c89"",""projectId"":""54f8d589-66fc-4c65-830f-1dcc63bce8cc""}","https://test12345.live/?participantId=16426D67E81A4AC58B6E3D9D00A53641&assignmentId=150a3973-67bc-4fef-a378-9460b85d7c89&projectId=54f8d589-66fc-4c65-830f-1dcc63bce8cc","","null","<div style=""display: flex; justify-content: center; align-items: center;"">
                    <img src=""images/causal/causal_series_16/causal_series_16_c.jpg"" style=""width: 300px; height: 300px;"" />
                  </div>","null","",""
"","","","","","html-keyboard-response","9","40037","0.0-6.0-3.0","16426D67E81A4AC58B6E3D9D00A53641","16426D67E81A4AC58B6E3D9D00A53641","150a3973-67bc-4fef-a378-9460b85d7c89","54f8d589-66fc-4c65-830f-1dcc63bce8cc","{""participantId"":""16426D67E81A4AC58B6E3D9D00A53641"",""assignmentId"":""150a3973-67bc-4fef-a378-9460b85d7c89"",""projectId"":""54f8d589-66fc-4c65-830f-1dcc63bce8cc""}","https://test12345.live/?participantId=16426D67E81A4AC58B6E3D9D00A53641&assignmentId=150a3973-67bc-4fef-a378-9460b85d7c89&projectId=54f8d589-66fc-4c65-830f-1dcc63bce8cc","","null","<div style=""display: flex; justify-content: center; align-items: center;"">
                    <img src=""images/causal/causal_series_16/causal_series_16_d.jpg"" style=""width: 300px; height: 300px;"" />
                  </div>","null","",""
"","","","","","html-button-response","10","42343","0.0-8.0","16426D67E81A4AC58B6E3D9D00A53641","16426D67E81A4AC58B6E3D9D00A53641","150a3973-67bc-4fef-a378-9460b85d7c89","54f8d589-66fc-4c65-830f-1dcc63bce8cc","{""participantId"":""16426D67E81A4AC58B6E3D9D00A53641"",""assignmentId"":""150a3973-67bc-4fef-a378-9460b85d7c89"",""projectId"":""54f8d589-66fc-4c65-830f-1dcc63bce8cc""}","https://test12345.live/?participantId=16426D67E81A4AC58B6E3D9D00A53641&assignmentId=150a3973-67bc-4fef-a378-9460b85d7c89&projectId=54f8d589-66fc-4c65-830f-1dcc63bce8cc","","2304","Was there a person in the picture?","0","",""
"","","","","","survey-likert","11","44881","0.0-9.0","16426D67E81A4AC58B6E3D9D00A53641","16426D67E81A4AC58B6E3D9D00A53641","150a3973-67bc-4fef-a378-9460b85d7c89","54f8d589-66fc-4c65-830f-1dcc63bce8cc","{""participantId"":""16426D67E81A4AC58B6E3D9D00A53641"",""assignmentId"":""150a3973-67bc-4fef-a378-9460b85d7c89"",""projectId"":""54f8d589-66fc-4c65-830f-1dcc63bce8cc""}","https://test12345.live/?participantId=16426D67E81A4AC58B6E3D9D00A53641&assignmentId=150a3973-67bc-4fef-a378-9460b85d7c89&projectId=54f8d589-66fc-4c65-830f-1dcc63bce8cc","","2537","","{""Q0"":3}","","[0]"
"","","","","","html-button-response","12","47601","0.0-10.0","16426D67E81A4AC58B6E3D9D00A53641","16426D67E81A4AC58B6E3D9D00A53641","150a3973-67bc-4fef-a378-9460b85d7c89","54f8d589-66fc-4c65-830f-1dcc63bce8cc","{""participantId"":""16426D67E81A4AC58B6E3D9D00A53641"",""assignmentId"":""150a3973-67bc-4fef-a378-9460b85d7c89"",""projectId"":""54f8d589-66fc-4c65-830f-1dcc63bce8cc""}","https://test12345.live/?participantId=16426D67E81A4AC58B6E3D9D00A53641&assignmentId=150a3973-67bc-4fef-a378-9460b85d7c89&projectId=54f8d589-66fc-4c65-830f-1dcc63bce8cc","","2719","
    <div style=""display: flex; justify-content: center; align-items: center;"">
      <img src=""images/red_deck_2.png"" style=""width: 300px; height: 300px; margin-right: 10px;"" />
      <img src=""images/blue_deck_1.png"" style=""width: 300px; height: 300px;"" />
    </div>","1","1",""
"","","","","","html-keyboard-response","13","50608","0.0-12.0-0.0","16426D67E81A4AC58B6E3D9D00A53641","16426D67E81A4AC58B6E3D9D00A53641","150a3973-67bc-4fef-a378-9460b85d7c89","54f8d589-66fc-4c65-830f-1dcc63bce8cc","{""participantId"":""16426D67E81A4AC58B6E3D9D00A53641"",""assignmentId"":""150a3973-67bc-4fef-a378-9460b85d7c89"",""projectId"":""54f8d589-66fc-4c65-830f-1dcc63bce8cc""}","https://test12345.live/?participantId=16426D67E81A4AC58B6E3D9D00A53641&assignmentId=150a3973-67bc-4fef-a378-9460b85d7c89&projectId=54f8d589-66fc-4c65-830f-1dcc63bce8cc","","null","<div style=""display: flex; justify-content: center; align-items: center;"">
                    <img src=""images/semantic/semantic_series_5/semantic_series_5_a.jpg"" style=""width: 300px; height: 300px;"" />
                  </div>","null","",""
"","","","","","html-keyboard-response","14","53620","0.0-12.0-1.0","16426D67E81A4AC58B6E3D9D00A53641","16426D67E81A4AC58B6E3D9D00A53641","150a3973-67bc-4fef-a378-9460b85d7c89","54f8d589-66fc-4c65-830f-1dcc63bce8cc","{""participantId"":""16426D67E81A4AC58B6E3D9D00A53641"",""assignmentId"":""150a3973-67bc-4fef-a378-9460b85d7c89"",""projectId"":""54f8d589-66fc-4c65-830f-1dcc63bce8cc""}","https://test12345.live/?participantId=16426D67E81A4AC58B6E3D9D00A53641&assignmentId=150a3973-67bc-4fef-a378-9460b85d7c89&projectId=54f8d589-66fc-4c65-830f-1dcc63bce8cc","","null","<div style=""display: flex; justify-content: center; align-items: center;"">
                    <img src=""images/semantic/semantic_series_5/semantic_series_5_b.jpg"" style=""width: 300px; height: 300px;"" />
                  </div>","null","",""
"","","","","","html-keyboard-response","15","56650","0.0-12.0-2.0","16426D67E81A4AC58B6E3D9D00A53641","16426D67E81A4AC58B6E3D9D00A53641","150a3973-67bc-4fef-a378-9460b85d7c89","54f8d589-66fc-4c65-830f-1dcc63bce8cc","{""participantId"":""16426D67E81A4AC58B6E3D9D00A53641"",""assignmentId"":""150a3973-67bc-4fef-a378-9460b85d7c89"",""projectId"":""54f8d589-66fc-4c65-830f-1dcc63bce8cc""}","https://test12345.live/?participantId=16426D67E81A4AC58B6E3D9D00A53641&assignmentId=150a3973-67bc-4fef-a378-9460b85d7c89&projectId=54f8d589-66fc-4c65-830f-1dcc63bce8cc","","null","<div style=""display: flex; justify-content: center; align-items: center;"">
                    <img src=""images/semantic/semantic_series_5/semantic_series_5_c.jpg"" style=""width: 300px; height: 300px;"" />
                  </div>","null","",""
"","","","","","html-keyboard-response","16","59682","0.0-12.0-3.0","16426D67E81A4AC58B6E3D9D00A53641","16426D67E81A4AC58B6E3D9D00A53641","150a3973-67bc-4fef-a378-9460b85d7c89","54f8d589-66fc-4c65-830f-1dcc63bce8cc","{""participantId"":""16426D67E81A4AC58B6E3D9D00A53641"",""assignmentId"":""150a3973-67bc-4fef-a378-9460b85d7c89"",""projectId"":""54f8d589-66fc-4c65-830f-1dcc63bce8cc""}","https://test12345.live/?participantId=16426D67E81A4AC58B6E3D9D00A53641&assignmentId=150a3973-67bc-4fef-a378-9460b85d7c89&projectId=54f8d589-66fc-4c65-830f-1dcc63bce8cc","","null","<div style=""display: flex; justify-content: center; align-items: center;"">
                    <img src=""images/semantic/semantic_series_5/semantic_series_5_d.jpg"" style=""width: 300px; height: 300px;"" />
                  </div>","null","",""
"","","","","","html-button-response","17","60962","0.0-13.0","16426D67E81A4AC58B6E3D9D00A53641","16426D67E81A4AC58B6E3D9D00A53641","150a3973-67bc-4fef-a378-9460b85d7c89","54f8d589-66fc-4c65-830f-1dcc63bce8cc","{""participantId"":""16426D67E81A4AC58B6E3D9D00A53641"",""assignmentId"":""150a3973-67bc-4fef-a378-9460b85d7c89"",""projectId"":""54f8d589-66fc-4c65-830f-1dcc63bce8cc""}","https://test12345.live/?participantId=16426D67E81A4AC58B6E3D9D00A53641&assignmentId=150a3973-67bc-4fef-a378-9460b85d7c89&projectId=54f8d589-66fc-4c65-830f-1dcc63bce8cc","","1280","Was there a person in the picture?","0","",""
"","","","","","survey-likert","18","63659","0.0-14.0","16426D67E81A4AC58B6E3D9D00A53641","16426D67E81A4AC58B6E3D9D00A53641","150a3973-67bc-4fef-a378-9460b85d7c89","54f8d589-66fc-4c65-830f-1dcc63bce8cc","{""participantId"":""16426D67E81A4AC58B6E3D9D00A53641"",""assignmentId"":""150a3973-67bc-4fef-a378-9460b85d7c89"",""projectId"":""54f8d589-66fc-4c65-830f-1dcc63bce8cc""}","https://test12345.live/?participantId=16426D67E81A4AC58B6E3D9D00A53641&assignmentId=150a3973-67bc-4fef-a378-9460b85d7c89&projectId=54f8d589-66fc-4c65-830f-1dcc63bce8cc","","2696","","{""Q0"":1}","","[0]"
"","","","","","html-button-response","19","65925","0.0-15.0","16426D67E81A4AC58B6E3D9D00A53641","16426D67E81A4AC58B6E3D9D00A53641","150a3973-67bc-4fef-a378-9460b85d7c89","54f8d589-66fc-4c65-830f-1dcc63bce8cc","{""participantId"":""16426D67E81A4AC58B6E3D9D00A53641"",""assignmentId"":""150a3973-67bc-4fef-a378-9460b85d7c89"",""projectId"":""54f8d589-66fc-4c65-830f-1dcc63bce8cc""}","https://test12345.live/?participantId=16426D67E81A4AC58B6E3D9D00A53641&assignmentId=150a3973-67bc-4fef-a378-9460b85d7c89&projectId=54f8d589-66fc-4c65-830f-1dcc63bce8cc","","2264","
    <div style=""display: flex; justify-content: center; align-items: center;"">
      <img src=""images/red_deck_2.png"" style=""width: 300px; height: 300px; margin-right: 10px;"" />
      <img src=""images/blue_deck_1.png"" style=""width: 300px; height: 300px;"" />
    </div>","0","0",""
"","","","","","html-keyboard-response","20","68949","0.0-16.0-0.0","16426D67E81A4AC58B6E3D9D00A53641","16426D67E81A4AC58B6E3D9D00A53641","150a3973-67bc-4fef-a378-9460b85d7c89","54f8d589-66fc-4c65-830f-1dcc63bce8cc","{""participantId"":""16426D67E81A4AC58B6E3D9D00A53641"",""assignmentId"":""150a3973-67bc-4fef-a378-9460b85d7c89"",""projectId"":""54f8d589-66fc-4c65-830f-1dcc63bce8cc""}","https://test12345.live/?participantId=16426D67E81A4AC58B6E3D9D00A53641&assignmentId=150a3973-67bc-4fef-a378-9460b85d7c89&projectId=54f8d589-66fc-4c65-830f-1dcc63bce8cc","","null","<div style=""display: flex; justify-content: center; align-items: center;"">
                    <img src=""images/causal/causal_series_18/causal_series_18_a.jpg"" style=""width: 300px; height: 300px;"" />
                  </div>","null","",""
"","","","","","html-keyboard-response","21","71990","0.0-16.0-1.0","16426D67E81A4AC58B6E3D9D00A53641","16426D67E81A4AC58B6E3D9D00A53641","150a3973-67bc-4fef-a378-9460b85d7c89","54f8d589-66fc-4c65-830f-1dcc63bce8cc","{""participantId"":""16426D67E81A4AC58B6E3D9D00A53641"",""assignmentId"":""150a3973-67bc-4fef-a378-9460b85d7c89"",""projectId"":""54f8d589-66fc-4c65-830f-1dcc63bce8cc""}","https://test12345.live/?participantId=16426D67E81A4AC58B6E3D9D00A53641&assignmentId=150a3973-67bc-4fef-a378-9460b85d7c89&projectId=54f8d589-66fc-4c65-830f-1dcc63bce8cc","","null","<div style=""display: flex; justify-content: center; align-items: center;"">
                    <img src=""images/causal/causal_series_18/causal_series_18_b.jpg"" style=""width: 300px; height: 300px;"" />
                  </div>","null","",""
"","","","","","html-keyboard-response","22","75018","0.0-16.0-2.0","16426D67E81A4AC58B6E3D9D00A53641","16426D67E81A4AC58B6E3D9D00A53641","150a3973-67bc-4fef-a378-9460b85d7c89","54f8d589-66fc-4c65-830f-1dcc63bce8cc","{""participantId"":""16426D67E81A4AC58B6E3D9D00A53641"",""assignmentId"":""150a3973-67bc-4fef-a378-9460b85d7c89"",""projectId"":""54f8d589-66fc-4c65-830f-1dcc63bce8cc""}","https://test12345.live/?participantId=16426D67E81A4AC58B6E3D9D00A53641&assignmentId=150a3973-67bc-4fef-a378-9460b85d7c89&projectId=54f8d589-66fc-4c65-830f-1dcc63bce8cc","","null","<div style=""display: flex; justify-content: center; align-items: center;"">
                    <img src=""images/causal/causal_series_18/causal_series_18_c.jpg"" style=""width: 300px; height: 300px;"" />
                  </div>","null","",""
"","","","","","html-keyboard-response","23","78043","0.0-16.0-3.0","16426D67E81A4AC58B6E3D9D00A53641","16426D67E81A4AC58B6E3D9D00A53641","150a3973-67bc-4fef-a378-9460b85d7c89","54f8d589-66fc-4c65-830f-1dcc63bce8cc","{""participantId"":""16426D67E81A4AC58B6E3D9D00A53641"",""assignmentId"":""150a3973-67bc-4fef-a378-9460b85d7c89"",""projectId"":""54f8d589-66fc-4c65-830f-1dcc63bce8cc""}","https://test12345.live/?participantId=16426D67E81A4AC58B6E3D9D00A53641&assignmentId=150a3973-67bc-4fef-a378-9460b85d7c89&projectId=54f8d589-66fc-4c65-830f-1dcc63bce8cc","","null","<div style=""display: flex; justify-content: center; align-items: center;"">
                    <img src=""images/causal/causal_series_18/causal_series_18_d.jpg"" style=""width: 300px; height: 300px;"" />
                  </div>","null","",""
"","","","","","html-button-response","24","79480","0.0-18.0","16426D67E81A4AC58B6E3D9D00A53641","16426D67E81A4AC58B6E3D9D00A53641","150a3973-67bc-4fef-a378-9460b85d7c89","54f8d589-66fc-4c65-830f-1dcc63bce8cc","{""participantId"":""16426D67E81A4AC58B6E3D9D00A53641"",""assignmentId"":""150a3973-67bc-4fef-a378-9460b85d7c89"",""projectId"":""54f8d589-66fc-4c65-830f-1dcc63bce8cc""}","https://test12345.live/?participantId=16426D67E81A4AC58B6E3D9D00A53641&assignmentId=150a3973-67bc-4fef-a378-9460b85d7c89&projectId=54f8d589-66fc-4c65-830f-1dcc63bce8cc","","1436","Was there a person in the picture?","1","",""
"","","","","","survey-likert","25","81357","0.0-19.0","16426D67E81A4AC58B6E3D9D00A53641","16426D67E81A4AC58B6E3D9D00A53641","150a3973-67bc-4fef-a378-9460b85d7c89","54f8d589-66fc-4c65-830f-1dcc63bce8cc","{""participantId"":""16426D67E81A4AC58B6E3D9D00A53641"",""assignmentId"":""150a3973-67bc-4fef-a378-9460b85d7c89"",""projectId"":""54f8d589-66fc-4c65-830f-1dcc63bce8cc""}","https://test12345.live/?participantId=16426D67E81A4AC58B6E3D9D00A53641&assignmentId=150a3973-67bc-4fef-a378-9460b85d7c89&projectId=54f8d589-66fc-4c65-830f-1dcc63bce8cc","","1876","","{""Q0"":4}","","[0]"
"","","","","","html-button-response","26","82457","0.0-20.0","16426D67E81A4AC58B6E3D9D00A53641","16426D67E81A4AC58B6E3D9D00A53641","150a3973-67bc-4fef-a378-9460b85d7c89","54f8d589-66fc-4c65-830f-1dcc63bce8cc","{""participantId"":""16426D67E81A4AC58B6E3D9D00A53641"",""assignmentId"":""150a3973-67bc-4fef-a378-9460b85d7c89"",""projectId"":""54f8d589-66fc-4c65-830f-1dcc63bce8cc""}","https://test12345.live/?participantId=16426D67E81A4AC58B6E3D9D00A53641&assignmentId=150a3973-67bc-4fef-a378-9460b85d7c89&projectId=54f8d589-66fc-4c65-830f-1dcc63bce8cc","","1099","
    <div style=""display: flex; justify-content: center; align-items: center;"">
      <img src=""images/red_deck_2.png"" style=""width: 300px; height: 300px; margin-right: 10px;"" />
      <img src=""images/blue_deck_1.png"" style=""width: 300px; height: 300px;"" />
    </div>","1","1",""
"","","","","","html-keyboard-response","27","85493","0.0-22.0-0.0","16426D67E81A4AC58B6E3D9D00A53641","16426D67E81A4AC58B6E3D9D00A53641","150a3973-67bc-4fef-a378-9460b85d7c89","54f8d589-66fc-4c65-830f-1dcc63bce8cc","{""participantId"":""16426D67E81A4AC58B6E3D9D00A53641"",""assignmentId"":""150a3973-67bc-4fef-a378-9460b85d7c89"",""projectId"":""54f8d589-66fc-4c65-830f-1dcc63bce8cc""}","https://test12345.live/?participantId=16426D67E81A4AC58B6E3D9D00A53641&assignmentId=150a3973-67bc-4fef-a378-9460b85d7c89&projectId=54f8d589-66fc-4c65-830f-1dcc63bce8cc","","null","<div style=""display: flex; justify-content: center; align-items: center;"">
                    <img src=""images/semantic/semantic_series_14/semantic_series_14_a.jpg"" style=""width: 300px; height: 300px;"" />
                  </div>","null","",""
"","","","","","html-keyboard-response","28","88513","0.0-22.0-1.0","16426D67E81A4AC58B6E3D9D00A53641","16426D67E81A4AC58B6E3D9D00A53641","150a3973-67bc-4fef-a378-9460b85d7c89","54f8d589-66fc-4c65-830f-1dcc63bce8cc","{""participantId"":""16426D67E81A4AC58B6E3D9D00A53641"",""assignmentId"":""150a3973-67bc-4fef-a378-9460b85d7c89"",""projectId"":""54f8d589-66fc-4c65-830f-1dcc63bce8cc""}","https://test12345.live/?participantId=16426D67E81A4AC58B6E3D9D00A53641&assignmentId=150a3973-67bc-4fef-a378-9460b85d7c89&projectId=54f8d589-66fc-4c65-830f-1dcc63bce8cc","","null","<div style=""display: flex; justify-content: center; align-items: center;"">
                    <img src=""images/semantic/semantic_series_14/semantic_series_14_b.jpg"" style=""width: 300px; height: 300px;"" />
                  </div>","null","",""
"","","","","","html-keyboard-response","29","91543","0.0-22.0-2.0","16426D67E81A4AC58B6E3D9D00A53641","16426D67E81A4AC58B6E3D9D00A53641","150a3973-67bc-4fef-a378-9460b85d7c89","54f8d589-66fc-4c65-830f-1dcc63bce8cc","{""participantId"":""16426D67E81A4AC58B6E3D9D00A53641"",""assignmentId"":""150a3973-67bc-4fef-a378-9460b85d7c89"",""projectId"":""54f8d589-66fc-4c65-830f-1dcc63bce8cc""}","https://test12345.live/?participantId=16426D67E81A4AC58B6E3D9D00A53641&assignmentId=150a3973-67bc-4fef-a378-9460b85d7c89&projectId=54f8d589-66fc-4c65-830f-1dcc63bce8cc","","null","<div style=""display: flex; justify-content: center; align-items: center;"">
                    <img src=""images/semantic/semantic_series_14/semantic_series_14_c.jpg"" style=""width: 300px; height: 300px;"" />
                  </div>","null","",""
"","","","","","html-keyboard-response","30","94576","0.0-22.0-3.0","16426D67E81A4AC58B6E3D9D00A53641","16426D67E81A4AC58B6E3D9D00A53641","150a3973-67bc-4fef-a378-9460b85d7c89","54f8d589-66fc-4c65-830f-1dcc63bce8cc","{""participantId"":""16426D67E81A4AC58B6E3D9D00A53641"",""assignmentId"":""150a3973-67bc-4fef-a378-9460b85d7c89"",""projectId"":""54f8d589-66fc-4c65-830f-1dcc63bce8cc""}","https://test12345.live/?participantId=16426D67E81A4AC58B6E3D9D00A53641&assignmentId=150a3973-67bc-4fef-a378-9460b85d7c89&projectId=54f8d589-66fc-4c65-830f-1dcc63bce8cc","","null","<div style=""display: flex; justify-content: center; align-items: center;"">
                    <img src=""images/semantic/semantic_series_14/semantic_series_14_d.jpg"" style=""width: 300px; height: 300px;"" />
                  </div>","null","",""
"","","","","","html-button-response","31","95931","0.0-23.0","16426D67E81A4AC58B6E3D9D00A53641","16426D67E81A4AC58B6E3D9D00A53641","150a3973-67bc-4fef-a378-9460b85d7c89","54f8d589-66fc-4c65-830f-1dcc63bce8cc","{""participantId"":""16426D67E81A4AC58B6E3D9D00A53641"",""assignmentId"":""150a3973-67bc-4fef-a378-9460b85d7c89"",""projectId"":""54f8d589-66fc-4c65-830f-1dcc63bce8cc""}","https://test12345.live/?participantId=16426D67E81A4AC58B6E3D9D00A53641&assignmentId=150a3973-67bc-4fef-a378-9460b85d7c89&projectId=54f8d589-66fc-4c65-830f-1dcc63bce8cc","","1355","Was there a person in the picture?","0","",""
"","","","","","survey-likert","32","98613","0.0-24.0","16426D67E81A4AC58B6E3D9D00A53641","16426D67E81A4AC58B6E3D9D00A53641","150a3973-67bc-4fef-a378-9460b85d7c89","54f8d589-66fc-4c65-830f-1dcc63bce8cc","{""participantId"":""16426D67E81A4AC58B6E3D9D00A53641"",""assignmentId"":""150a3973-67bc-4fef-a378-9460b85d7c89"",""projectId"":""54f8d589-66fc-4c65-830f-1dcc63bce8cc""}","https://test12345.live/?participantId=16426D67E81A4AC58B6E3D9D00A53641&assignmentId=150a3973-67bc-4fef-a378-9460b85d7c89&projectId=54f8d589-66fc-4c65-830f-1dcc63bce8cc","","2681","","{""Q0"":2}","","[0]"
"","","","","","html-button-response","33","99389","0.0-25.0","16426D67E81A4AC58B6E3D9D00A53641","16426D67E81A4AC58B6E3D9D00A53641","150a3973-67bc-4fef-a378-9460b85d7c89","54f8d589-66fc-4c65-830f-1dcc63bce8cc","{""participantId"":""16426D67E81A4AC58B6E3D9D00A53641"",""assignmentId"":""150a3973-67bc-4fef-a378-9460b85d7c89"",""projectId"":""54f8d589-66fc-4c65-830f-1dcc63bce8cc""}","https://test12345.live/?participantId=16426D67E81A4AC58B6E3D9D00A53641&assignmentId=150a3973-67bc-4fef-a378-9460b85d7c89&projectId=54f8d589-66fc-4c65-830f-1dcc63bce8cc","","774","
    <div style=""display: flex; justify-content: center; align-items: center;"">
      <img src=""images/red_deck_2.png"" style=""width: 300px; height: 300px; margin-right: 10px;"" />
      <img src=""images/blue_deck_1.png"" style=""width: 300px; height: 300px;"" />
    </div>","0","0",""
"","","","","","html-keyboard-response","34","102409","0.0-26.0-0.0","16426D67E81A4AC58B6E3D9D00A53641","16426D67E81A4AC58B6E3D9D00A53641","150a3973-67bc-4fef-a378-9460b85d7c89","54f8d589-66fc-4c65-830f-1dcc63bce8cc","{""participantId"":""16426D67E81A4AC58B6E3D9D00A53641"",""assignmentId"":""150a3973-67bc-4fef-a378-9460b85d7c89"",""projectId"":""54f8d589-66fc-4c65-830f-1dcc63bce8cc""}","https://test12345.live/?participantId=16426D67E81A4AC58B6E3D9D00A53641&assignmentId=150a3973-67bc-4fef-a378-9460b85d7c89&projectId=54f8d589-66fc-4c65-830f-1dcc63bce8cc","","null","<div style=""display: flex; justify-content: center; align-items: center;"">
                    <img src=""images/causal/causal_series_15/causal_series_15_a.jpg"" style=""width: 300px; height: 300px;"" />
                  </div>","null","",""
"","","","","","html-keyboard-response","35","105432","0.0-26.0-1.0","16426D67E81A4AC58B6E3D9D00A53641","16426D67E81A4AC58B6E3D9D00A53641","150a3973-67bc-4fef-a378-9460b85d7c89","54f8d589-66fc-4c65-830f-1dcc63bce8cc","{""participantId"":""16426D67E81A4AC58B6E3D9D00A53641"",""assignmentId"":""150a3973-67bc-4fef-a378-9460b85d7c89"",""projectId"":""54f8d589-66fc-4c65-830f-1dcc63bce8cc""}","https://test12345.live/?participantId=16426D67E81A4AC58B6E3D9D00A53641&assignmentId=150a3973-67bc-4fef-a378-9460b85d7c89&projectId=54f8d589-66fc-4c65-830f-1dcc63bce8cc","","null","<div style=""display: flex; justify-content: center; align-items: center;"">
                    <img src=""images/causal/causal_series_15/causal_series_15_b.jpg"" style=""width: 300px; height: 300px;"" />
                  </div>","null","",""
"","","","","","html-keyboard-response","36","108460","0.0-26.0-2.0","16426D67E81A4AC58B6E3D9D00A53641","16426D67E81A4AC58B6E3D9D00A53641","150a3973-67bc-4fef-a378-9460b85d7c89","54f8d589-66fc-4c65-830f-1dcc63bce8cc","{""participantId"":""16426D67E81A4AC58B6E3D9D00A53641"",""assignmentId"":""150a3973-67bc-4fef-a378-9460b85d7c89"",""projectId"":""54f8d589-66fc-4c65-830f-1dcc63bce8cc""}","https://test12345.live/?participantId=16426D67E81A4AC58B6E3D9D00A53641&assignmentId=150a3973-67bc-4fef-a378-9460b85d7c89&projectId=54f8d589-66fc-4c65-830f-1dcc63bce8cc","","null","<div style=""display: flex; justify-content: center; align-items: center;"">
                    <img src=""images/causal/causal_series_15/causal_series_15_c.jpg"" style=""width: 300px; height: 300px;"" />
                  </div>","null","",""
"","","","","","html-keyboard-response","37","111490","0.0-26.0-3.0","16426D67E81A4AC58B6E3D9D00A53641","16426D67E81A4AC58B6E3D9D00A53641","150a3973-67bc-4fef-a378-9460b85d7c89","54f8d589-66fc-4c65-830f-1dcc63bce8cc","{""participantId"":""16426D67E81A4AC58B6E3D9D00A53641"",""assignmentId"":""150a3973-67bc-4fef-a378-9460b85d7c89"",""projectId"":""54f8d589-66fc-4c65-830f-1dcc63bce8cc""}","https://test12345.live/?participantId=16426D67E81A4AC58B6E3D9D00A53641&assignmentId=150a3973-67bc-4fef-a378-9460b85d7c89&projectId=54f8d589-66fc-4c65-830f-1dcc63bce8cc","","null","<div style=""display: flex; justify-content: center; align-items: center;"">
                    <img src=""images/causal/causal_series_15/causal_series_15_d.jpg"" style=""width: 300px; height: 300px;"" />
                  </div>","null","",""
"","","","","","html-button-response","38","112472","0.0-28.0","16426D67E81A4AC58B6E3D9D00A53641","16426D67E81A4AC58B6E3D9D00A53641","150a3973-67bc-4fef-a378-9460b85d7c89","54f8d589-66fc-4c65-830f-1dcc63bce8cc","{""participantId"":""16426D67E81A4AC58B6E3D9D00A53641"",""assignmentId"":""150a3973-67bc-4fef-a378-9460b85d7c89"",""projectId"":""54f8d589-66fc-4c65-830f-1dcc63bce8cc""}","https://test12345.live/?participantId=16426D67E81A4AC58B6E3D9D00A53641&assignmentId=150a3973-67bc-4fef-a378-9460b85d7c89&projectId=54f8d589-66fc-4c65-830f-1dcc63bce8cc","","980","Was there a person in the picture?","0","",""
"","","","","","survey-likert","39","113981","0.0-29.0","16426D67E81A4AC58B6E3D9D00A53641","16426D67E81A4AC58B6E3D9D00A53641","150a3973-67bc-4fef-a378-9460b85d7c89","54f8d589-66fc-4c65-830f-1dcc63bce8cc","{""participantId"":""16426D67E81A4AC58B6E3D9D00A53641"",""assignmentId"":""150a3973-67bc-4fef-a378-9460b85d7c89"",""projectId"":""54f8d589-66fc-4c65-830f-1dcc63bce8cc""}","https://test12345.live/?participantId=16426D67E81A4AC58B6E3D9D00A53641&assignmentId=150a3973-67bc-4fef-a378-9460b85d7c89&projectId=54f8d589-66fc-4c65-830f-1dcc63bce8cc","","1508","","{""Q0"":3}","","[0]"
"","","","","","html-button-response","40","114937","0.0-30.0","16426D67E81A4AC58B6E3D9D00A53641","16426D67E81A4AC58B6E3D9D00A53641","150a3973-67bc-4fef-a378-9460b85d7c89","54f8d589-66fc-4c65-830f-1dcc63bce8cc","{""participantId"":""16426D67E81A4AC58B6E3D9D00A53641"",""assignmentId"":""150a3973-67bc-4fef-a378-9460b85d7c89"",""projectId"":""54f8d589-66fc-4c65-830f-1dcc63bce8cc""}","https://test12345.live/?participantId=16426D67E81A4AC58B6E3D9D00A53641&assignmentId=150a3973-67bc-4fef-a378-9460b85d7c89&projectId=54f8d589-66fc-4c65-830f-1dcc63bce8cc","","954","
    <div style=""display: flex; justify-content: center; align-items: center;"">
      <img src=""images/red_deck_2.png"" style=""width: 300px; height: 300px; margin-right: 10px;"" />
      <img src=""images/blue_deck_1.png"" style=""width: 300px; height: 300px;"" />
    </div>","1","1",""
"","","","","","html-keyboard-response","41","117974","0.0-32.0-0.0","16426D67E81A4AC58B6E3D9D00A53641","16426D67E81A4AC58B6E3D9D00A53641","150a3973-67bc-4fef-a378-9460b85d7c89","54f8d589-66fc-4c65-830f-1dcc63bce8cc","{""participantId"":""16426D67E81A4AC58B6E3D9D00A53641"",""assignmentId"":""150a3973-67bc-4fef-a378-9460b85d7c89"",""projectId"":""54f8d589-66fc-4c65-830f-1dcc63bce8cc""}","https://test12345.live/?participantId=16426D67E81A4AC58B6E3D9D00A53641&assignmentId=150a3973-67bc-4fef-a378-9460b85d7c89&projectId=54f8d589-66fc-4c65-830f-1dcc63bce8cc","","null","<div style=""display: flex; justify-content: center; align-items: center;"">
                    <img src=""images/semantic/semantic_series_13/semantic_series_13_a.jpg"" style=""width: 300px; height: 300px;"" />
                  </div>","null","",""
"","","","","","html-keyboard-response","42","121011","0.0-32.0-1.0","16426D67E81A4AC58B6E3D9D00A53641","16426D67E81A4AC58B6E3D9D00A53641","150a3973-67bc-4fef-a378-9460b85d7c89","54f8d589-66fc-4c65-830f-1dcc63bce8cc","{""participantId"":""16426D67E81A4AC58B6E3D9D00A53641"",""assignmentId"":""150a3973-67bc-4fef-a378-9460b85d7c89"",""projectId"":""54f8d589-66fc-4c65-830f-1dcc63bce8cc""}","https://test12345.live/?participantId=16426D67E81A4AC58B6E3D9D00A53641&assignmentId=150a3973-67bc-4fef-a378-9460b85d7c89&projectId=54f8d589-66fc-4c65-830f-1dcc63bce8cc","","null","<div style=""display: flex; justify-content: center; align-items: center;"">
                    <img src=""images/semantic/semantic_series_13/semantic_series_13_b.jpg"" style=""width: 300px; height: 300px;"" />
                  </div>","null","",""
"","","","","","html-keyboard-response","43","124038","0.0-32.0-2.0","16426D67E81A4AC58B6E3D9D00A53641","16426D67E81A4AC58B6E3D9D00A53641","150a3973-67bc-4fef-a378-9460b85d7c89","54f8d589-66fc-4c65-830f-1dcc63bce8cc","{""participantId"":""16426D67E81A4AC58B6E3D9D00A53641"",""assignmentId"":""150a3973-67bc-4fef-a378-9460b85d7c89"",""projectId"":""54f8d589-66fc-4c65-830f-1dcc63bce8cc""}","https://test12345.live/?participantId=16426D67E81A4AC58B6E3D9D00A53641&assignmentId=150a3973-67bc-4fef-a378-9460b85d7c89&projectId=54f8d589-66fc-4c65-830f-1dcc63bce8cc","","null","<div style=""display: flex; justify-content: center; align-items: center;"">
                    <img src=""images/semantic/semantic_series_13/semantic_series_13_c.jpg"" style=""width: 300px; height: 300px;"" />
                  </div>","null","",""
"","","","","","html-keyboard-response","44","127063","0.0-32.0-3.0","16426D67E81A4AC58B6E3D9D00A53641","16426D67E81A4AC58B6E3D9D00A53641","150a3973-67bc-4fef-a378-9460b85d7c89","54f8d589-66fc-4c65-830f-1dcc63bce8cc","{""participantId"":""16426D67E81A4AC58B6E3D9D00A53641"",""assignmentId"":""150a3973-67bc-4fef-a378-9460b85d7c89"",""projectId"":""54f8d589-66fc-4c65-830f-1dcc63bce8cc""}","https://test12345.live/?participantId=16426D67E81A4AC58B6E3D9D00A53641&assignmentId=150a3973-67bc-4fef-a378-9460b85d7c89&projectId=54f8d589-66fc-4c65-830f-1dcc63bce8cc","","null","<div style=""display: flex; justify-content: center; align-items: center;"">
                    <img src=""images/semantic/semantic_series_13/semantic_series_13_d.jpg"" style=""width: 300px; height: 300px;"" />
                  </div>","null","",""
"","","","","","html-button-response","45","128658","0.0-33.0","16426D67E81A4AC58B6E3D9D00A53641","16426D67E81A4AC58B6E3D9D00A53641","150a3973-67bc-4fef-a378-9460b85d7c89","54f8d589-66fc-4c65-830f-1dcc63bce8cc","{""participantId"":""16426D67E81A4AC58B6E3D9D00A53641"",""assignmentId"":""150a3973-67bc-4fef-a378-9460b85d7c89"",""projectId"":""54f8d589-66fc-4c65-830f-1dcc63bce8cc""}","https://test12345.live/?participantId=16426D67E81A4AC58B6E3D9D00A53641&assignmentId=150a3973-67bc-4fef-a378-9460b85d7c89&projectId=54f8d589-66fc-4c65-830f-1dcc63bce8cc","","1594","Was there a person in the picture?","0","",""
"","","","","","survey-likert","46","130187","0.0-34.0","16426D67E81A4AC58B6E3D9D00A53641","16426D67E81A4AC58B6E3D9D00A53641","150a3973-67bc-4fef-a378-9460b85d7c89","54f8d589-66fc-4c65-830f-1dcc63bce8cc","{""participantId"":""16426D67E81A4AC58B6E3D9D00A53641"",""assignmentId"":""150a3973-67bc-4fef-a378-9460b85d7c89"",""projectId"":""54f8d589-66fc-4c65-830f-1dcc63bce8cc""}","https://test12345.live/?participantId=16426D67E81A4AC58B6E3D9D00A53641&assignmentId=150a3973-67bc-4fef-a378-9460b85d7c89&projectId=54f8d589-66fc-4c65-830f-1dcc63bce8cc","","1529","","{""Q0"":1}","","[0]"
"","","","","","html-button-response","47","131124","0.0-35.0","16426D67E81A4AC58B6E3D9D00A53641","16426D67E81A4AC58B6E3D9D00A53641","150a3973-67bc-4fef-a378-9460b85d7c89","54f8d589-66fc-4c65-830f-1dcc63bce8cc","{""participantId"":""16426D67E81A4AC58B6E3D9D00A53641"",""assignmentId"":""150a3973-67bc-4fef-a378-9460b85d7c89"",""projectId"":""54f8d589-66fc-4c65-830f-1dcc63bce8cc""}","https://test12345.live/?participantId=16426D67E81A4AC58B6E3D9D00A53641&assignmentId=150a3973-67bc-4fef-a378-9460b85d7c89&projectId=54f8d589-66fc-4c65-830f-1dcc63bce8cc","","935","
    <div style=""display: flex; justify-content: center; align-items: center;"">
      <img src=""images/red_deck_2.png"" style=""width: 300px; height: 300px; margin-right: 10px;"" />
      <img src=""images/blue_deck_1.png"" style=""width: 300px; height: 300px;"" />
    </div>","0","0",""
"","","","","","html-keyboard-response","48","134149","0.0-36.0-0.0","16426D67E81A4AC58B6E3D9D00A53641","16426D67E81A4AC58B6E3D9D00A53641","150a3973-67bc-4fef-a378-9460b85d7c89","54f8d589-66fc-4c65-830f-1dcc63bce8cc","{""participantId"":""16426D67E81A4AC58B6E3D9D00A53641"",""assignmentId"":""150a3973-67bc-4fef-a378-9460b85d7c89"",""projectId"":""54f8d589-66fc-4c65-830f-1dcc63bce8cc""}","https://test12345.live/?participantId=16426D67E81A4AC58B6E3D9D00A53641&assignmentId=150a3973-67bc-4fef-a378-9460b85d7c89&projectId=54f8d589-66fc-4c65-830f-1dcc63bce8cc","","null","<div style=""display: flex; justify-content: center; align-items: center;"">
                    <img src=""images/causal/causal_series_3/causal_series_3_a.jpg"" style=""width: 300px; height: 300px;"" />
                  </div>","null","",""
"","","","","","html-keyboard-response","49","137171","0.0-36.0-1.0","16426D67E81A4AC58B6E3D9D00A53641","16426D67E81A4AC58B6E3D9D00A53641","150a3973-67bc-4fef-a378-9460b85d7c89","54f8d589-66fc-4c65-830f-1dcc63bce8cc","{""participantId"":""16426D67E81A4AC58B6E3D9D00A53641"",""assignmentId"":""150a3973-67bc-4fef-a378-9460b85d7c89"",""projectId"":""54f8d589-66fc-4c65-830f-1dcc63bce8cc""}","https://test12345.live/?participantId=16426D67E81A4AC58B6E3D9D00A53641&assignmentId=150a3973-67bc-4fef-a378-9460b85d7c89&projectId=54f8d589-66fc-4c65-830f-1dcc63bce8cc","","null","<div style=""display: flex; justify-content: center; align-items: center;"">
                    <img src=""images/causal/causal_series_3/causal_series_3_b.jpg"" style=""width: 300px; height: 300px;"" />
                  </div>","null","",""
"","","","","","html-keyboard-response","50","140201","0.0-36.0-2.0","16426D67E81A4AC58B6E3D9D00A53641","16426D67E81A4AC58B6E3D9D00A53641","150a3973-67bc-4fef-a378-9460b85d7c89","54f8d589-66fc-4c65-830f-1dcc63bce8cc","{""participantId"":""16426D67E81A4AC58B6E3D9D00A53641"",""assignmentId"":""150a3973-67bc-4fef-a378-9460b85d7c89"",""projectId"":""54f8d589-66fc-4c65-830f-1dcc63bce8cc""}","https://test12345.live/?participantId=16426D67E81A4AC58B6E3D9D00A53641&assignmentId=150a3973-67bc-4fef-a378-9460b85d7c89&projectId=54f8d589-66fc-4c65-830f-1dcc63bce8cc","","null","<div style=""display: flex; justify-content: center; align-items: center;"">
                    <img src=""images/causal/causal_series_3/causal_series_3_c.jpg"" style=""width: 300px; height: 300px;"" />
                  </div>","null","",""
"","","","","","html-keyboard-response","51","143231","0.0-36.0-3.0","16426D67E81A4AC58B6E3D9D00A53641","16426D67E81A4AC58B6E3D9D00A53641","150a3973-67bc-4fef-a378-9460b85d7c89","54f8d589-66fc-4c65-830f-1dcc63bce8cc","{""participantId"":""16426D67E81A4AC58B6E3D9D00A53641"",""assignmentId"":""150a3973-67bc-4fef-a378-9460b85d7c89"",""projectId"":""54f8d589-66fc-4c65-830f-1dcc63bce8cc""}","https://test12345.live/?participantId=16426D67E81A4AC58B6E3D9D00A53641&assignmentId=150a3973-67bc-4fef-a378-9460b85d7c89&projectId=54f8d589-66fc-4c65-830f-1dcc63bce8cc","","null","<div style=""display: flex; justify-content: center; align-items: center;"">
                    <img src=""images/causal/causal_series_3/causal_series_3_d.jpg"" style=""width: 300px; height: 300px;"" />
                  </div>","null","",""
"","","","","","html-button-response","52","144186","0.0-38.0","16426D67E81A4AC58B6E3D9D00A53641","16426D67E81A4AC58B6E3D9D00A53641","150a3973-67bc-4fef-a378-9460b85d7c89","54f8d589-66fc-4c65-830f-1dcc63bce8cc","{""participantId"":""16426D67E81A4AC58B6E3D9D00A53641"",""assignmentId"":""150a3973-67bc-4fef-a378-9460b85d7c89"",""projectId"":""54f8d589-66fc-4c65-830f-1dcc63bce8cc""}","https://test12345.live/?participantId=16426D67E81A4AC58B6E3D9D00A53641&assignmentId=150a3973-67bc-4fef-a378-9460b85d7c89&projectId=54f8d589-66fc-4c65-830f-1dcc63bce8cc","","952","Was there a person in the picture?","0","",""
"","","","","","survey-likert","53","146299","0.0-39.0","16426D67E81A4AC58B6E3D9D00A53641","16426D67E81A4AC58B6E3D9D00A53641","150a3973-67bc-4fef-a378-9460b85d7c89","54f8d589-66fc-4c65-830f-1dcc63bce8cc","{""participantId"":""16426D67E81A4AC58B6E3D9D00A53641"",""assignmentId"":""150a3973-67bc-4fef-a378-9460b85d7c89"",""projectId"":""54f8d589-66fc-4c65-830f-1dcc63bce8cc""}","https://test12345.live/?participantId=16426D67E81A4AC58B6E3D9D00A53641&assignmentId=150a3973-67bc-4fef-a378-9460b85d7c89&projectId=54f8d589-66fc-4c65-830f-1dcc63bce8cc","","2112","","{""Q0"":4}","","[0]"
"","","","","","html-button-response","54","147223","0.0-40.0","16426D67E81A4AC58B6E3D9D00A53641","16426D67E81A4AC58B6E3D9D00A53641","150a3973-67bc-4fef-a378-9460b85d7c89","54f8d589-66fc-4c65-830f-1dcc63bce8cc","{""participantId"":""16426D67E81A4AC58B6E3D9D00A53641"",""assignmentId"":""150a3973-67bc-4fef-a378-9460b85d7c89"",""projectId"":""54f8d589-66fc-4c65-830f-1dcc63bce8cc""}","https://test12345.live/?participantId=16426D67E81A4AC58B6E3D9D00A53641&assignmentId=150a3973-67bc-4fef-a378-9460b85d7c89&projectId=54f8d589-66fc-4c65-830f-1dcc63bce8cc","","923","
    <div style=""display: flex; justify-content: center; align-items: center;"">
      <img src=""images/red_deck_2.png"" style=""width: 300px; height: 300px; margin-right: 10px;"" />
      <img src=""images/blue_deck_1.png"" style=""width: 300px; height: 300px;"" />
    </div>","1","1",""
"","","","","","html-keyboard-response","55","150259","0.0-42.0-0.0","16426D67E81A4AC58B6E3D9D00A53641","16426D67E81A4AC58B6E3D9D00A53641","150a3973-67bc-4fef-a378-9460b85d7c89","54f8d589-66fc-4c65-830f-1dcc63bce8cc","{""participantId"":""16426D67E81A4AC58B6E3D9D00A53641"",""assignmentId"":""150a3973-67bc-4fef-a378-9460b85d7c89"",""projectId"":""54f8d589-66fc-4c65-830f-1dcc63bce8cc""}","https://test12345.live/?participantId=16426D67E81A4AC58B6E3D9D00A53641&assignmentId=150a3973-67bc-4fef-a378-9460b85d7c89&projectId=54f8d589-66fc-4c65-830f-1dcc63bce8cc","","null","<div style=""display: flex; justify-content: center; align-items: center;"">
                    <img src=""images/semantic/semantic_series_16/semantic_series_16_a.jpg"" style=""width: 300px; height: 300px;"" />
                  </div>","null","",""
"","","","","","html-keyboard-response","56","153285","0.0-42.0-1.0","16426D67E81A4AC58B6E3D9D00A53641","16426D67E81A4AC58B6E3D9D00A53641","150a3973-67bc-4fef-a378-9460b85d7c89","54f8d589-66fc-4c65-830f-1dcc63bce8cc","{""participantId"":""16426D67E81A4AC58B6E3D9D00A53641"",""assignmentId"":""150a3973-67bc-4fef-a378-9460b85d7c89"",""projectId"":""54f8d589-66fc-4c65-830f-1dcc63bce8cc""}","https://test12345.live/?participantId=16426D67E81A4AC58B6E3D9D00A53641&assignmentId=150a3973-67bc-4fef-a378-9460b85d7c89&projectId=54f8d589-66fc-4c65-830f-1dcc63bce8cc","","null","<div style=""display: flex; justify-content: center; align-items: center;"">
                    <img src=""images/semantic/semantic_series_16/semantic_series_16_b.jpg"" style=""width: 300px; height: 300px;"" />
                  </div>","null","",""
"","","","","","html-keyboard-response","57","156311","0.0-42.0-2.0","16426D67E81A4AC58B6E3D9D00A53641","16426D67E81A4AC58B6E3D9D00A53641","150a3973-67bc-4fef-a378-9460b85d7c89","54f8d589-66fc-4c65-830f-1dcc63bce8cc","{""participantId"":""16426D67E81A4AC58B6E3D9D00A53641"",""assignmentId"":""150a3973-67bc-4fef-a378-9460b85d7c89"",""projectId"":""54f8d589-66fc-4c65-830f-1dcc63bce8cc""}","https://test12345.live/?participantId=16426D67E81A4AC58B6E3D9D00A53641&assignmentId=150a3973-67bc-4fef-a378-9460b85d7c89&projectId=54f8d589-66fc-4c65-830f-1dcc63bce8cc","","null","<div style=""display: flex; justify-content: center; align-items: center;"">
                    <img src=""images/semantic/semantic_series_16/semantic_series_16_c.jpg"" style=""width: 300px; height: 300px;"" />
                  </div>","null","",""
"","","","","","html-keyboard-response","58","159343","0.0-42.0-3.0","16426D67E81A4AC58B6E3D9D00A53641","16426D67E81A4AC58B6E3D9D00A53641","150a3973-67bc-4fef-a378-9460b85d7c89","54f8d589-66fc-4c65-830f-1dcc63bce8cc","{""participantId"":""16426D67E81A4AC58B6E3D9D00A53641"",""assignmentId"":""150a3973-67bc-4fef-a378-9460b85d7c89"",""projectId"":""54f8d589-66fc-4c65-830f-1dcc63bce8cc""}","https://test12345.live/?participantId=16426D67E81A4AC58B6E3D9D00A53641&assignmentId=150a3973-67bc-4fef-a378-9460b85d7c89&projectId=54f8d589-66fc-4c65-830f-1dcc63bce8cc","","null","<div style=""display: flex; justify-content: center; align-items: center;"">
                    <img src=""images/semantic/semantic_series_16/semantic_series_16_d.jpg"" style=""width: 300px; height: 300px;"" />
                  </div>","null","",""
"","","","","","html-button-response","59","160229","0.0-43.0","16426D67E81A4AC58B6E3D9D00A53641","16426D67E81A4AC58B6E3D9D00A53641","150a3973-67bc-4fef-a378-9460b85d7c89","54f8d589-66fc-4c65-830f-1dcc63bce8cc","{""participantId"":""16426D67E81A4AC58B6E3D9D00A53641"",""assignmentId"":""150a3973-67bc-4fef-a378-9460b85d7c89"",""projectId"":""54f8d589-66fc-4c65-830f-1dcc63bce8cc""}","https://test12345.live/?participantId=16426D67E81A4AC58B6E3D9D00A53641&assignmentId=150a3973-67bc-4fef-a378-9460b85d7c89&projectId=54f8d589-66fc-4c65-830f-1dcc63bce8cc","","885","Was there a person in the picture?","0","",""
"","","","","","survey-likert","60","162183","0.0-44.0","16426D67E81A4AC58B6E3D9D00A53641","16426D67E81A4AC58B6E3D9D00A53641","150a3973-67bc-4fef-a378-9460b85d7c89","54f8d589-66fc-4c65-830f-1dcc63bce8cc","{""participantId"":""16426D67E81A4AC58B6E3D9D00A53641"",""assignmentId"":""150a3973-67bc-4fef-a378-9460b85d7c89"",""projectId"":""54f8d589-66fc-4c65-830f-1dcc63bce8cc""}","https://test12345.live/?participantId=16426D67E81A4AC58B6E3D9D00A53641&assignmentId=150a3973-67bc-4fef-a378-9460b85d7c89&projectId=54f8d589-66fc-4c65-830f-1dcc63bce8cc","","1952","","{""Q0"":1}","","[0]"
"","","","","","html-button-response","61","163391","0.0-45.0","16426D67E81A4AC58B6E3D9D00A53641","16426D67E81A4AC58B6E3D9D00A53641","150a3973-67bc-4fef-a378-9460b85d7c89","54f8d589-66fc-4c65-830f-1dcc63bce8cc","{""participantId"":""16426D67E81A4AC58B6E3D9D00A53641"",""assignmentId"":""150a3973-67bc-4fef-a378-9460b85d7c89"",""projectId"":""54f8d589-66fc-4c65-830f-1dcc63bce8cc""}","https://test12345.live/?participantId=16426D67E81A4AC58B6E3D9D00A53641&assignmentId=150a3973-67bc-4fef-a378-9460b85d7c89&projectId=54f8d589-66fc-4c65-830f-1dcc63bce8cc","","1207","
    <div style=""display: flex; justify-content: center; align-items: center;"">
      <img src=""images/red_deck_2.png"" style=""width: 300px; height: 300px; margin-right: 10px;"" />
      <img src=""images/blue_deck_1.png"" style=""width: 300px; height: 300px;"" />
    </div>","0","0",""
"","","","","","html-keyboard-response","62","166428","0.0-46.0-0.0","16426D67E81A4AC58B6E3D9D00A53641","16426D67E81A4AC58B6E3D9D00A53641","150a3973-67bc-4fef-a378-9460b85d7c89","54f8d589-66fc-4c65-830f-1dcc63bce8cc","{""participantId"":""16426D67E81A4AC58B6E3D9D00A53641"",""assignmentId"":""150a3973-67bc-4fef-a378-9460b85d7c89"",""projectId"":""54f8d589-66fc-4c65-830f-1dcc63bce8cc""}","https://test12345.live/?participantId=16426D67E81A4AC58B6E3D9D00A53641&assignmentId=150a3973-67bc-4fef-a378-9460b85d7c89&projectId=54f8d589-66fc-4c65-830f-1dcc63bce8cc","","null","<div style=""display: flex; justify-content: center; align-items: center;"">
                    <img src=""images/causal/causal_series_12/causal_series_12_a.jpg"" style=""width: 300px; height: 300px;"" />
                  </div>","null","",""
"","","","","","html-keyboard-response","63","169459","0.0-46.0-1.0","16426D67E81A4AC58B6E3D9D00A53641","16426D67E81A4AC58B6E3D9D00A53641","150a3973-67bc-4fef-a378-9460b85d7c89","54f8d589-66fc-4c65-830f-1dcc63bce8cc","{""participantId"":""16426D67E81A4AC58B6E3D9D00A53641"",""assignmentId"":""150a3973-67bc-4fef-a378-9460b85d7c89"",""projectId"":""54f8d589-66fc-4c65-830f-1dcc63bce8cc""}","https://test12345.live/?participantId=16426D67E81A4AC58B6E3D9D00A53641&assignmentId=150a3973-67bc-4fef-a378-9460b85d7c89&projectId=54f8d589-66fc-4c65-830f-1dcc63bce8cc","","null","<div style=""display: flex; justify-content: center; align-items: center;"">
                    <img src=""images/causal/causal_series_12/causal_series_12_b.jpg"" style=""width: 300px; height: 300px;"" />
                  </div>","null","",""
"","","","","","html-keyboard-response","64","172488","0.0-46.0-2.0","16426D67E81A4AC58B6E3D9D00A53641","16426D67E81A4AC58B6E3D9D00A53641","150a3973-67bc-4fef-a378-9460b85d7c89","54f8d589-66fc-4c65-830f-1dcc63bce8cc","{""participantId"":""16426D67E81A4AC58B6E3D9D00A53641"",""assignmentId"":""150a3973-67bc-4fef-a378-9460b85d7c89"",""projectId"":""54f8d589-66fc-4c65-830f-1dcc63bce8cc""}","https://test12345.live/?participantId=16426D67E81A4AC58B6E3D9D00A53641&assignmentId=150a3973-67bc-4fef-a378-9460b85d7c89&projectId=54f8d589-66fc-4c65-830f-1dcc63bce8cc","","null","<div style=""display: flex; justify-content: center; align-items: center;"">
                    <img src=""images/causal/causal_series_12/causal_series_12_c.jpg"" style=""width: 300px; height: 300px;"" />
                  </div>","null","",""
"","","","","","html-keyboard-response","65","175514","0.0-46.0-3.0","16426D67E81A4AC58B6E3D9D00A53641","16426D67E81A4AC58B6E3D9D00A53641","150a3973-67bc-4fef-a378-9460b85d7c89","54f8d589-66fc-4c65-830f-1dcc63bce8cc","{""participantId"":""16426D67E81A4AC58B6E3D9D00A53641"",""assignmentId"":""150a3973-67bc-4fef-a378-9460b85d7c89"",""projectId"":""54f8d589-66fc-4c65-830f-1dcc63bce8cc""}","https://test12345.live/?participantId=16426D67E81A4AC58B6E3D9D00A53641&assignmentId=150a3973-67bc-4fef-a378-9460b85d7c89&projectId=54f8d589-66fc-4c65-830f-1dcc63bce8cc","","null","<div style=""display: flex; justify-content: center; align-items: center;"">
                    <img src=""images/causal/causal_series_12/causal_series_12_d.jpg"" style=""width: 300px; height: 300px;"" />
                  </div>","null","",""
"","","","","","html-button-response","66","176745","0.0-48.0","16426D67E81A4AC58B6E3D9D00A53641","16426D67E81A4AC58B6E3D9D00A53641","150a3973-67bc-4fef-a378-9460b85d7c89","54f8d589-66fc-4c65-830f-1dcc63bce8cc","{""participantId"":""16426D67E81A4AC58B6E3D9D00A53641"",""assignmentId"":""150a3973-67bc-4fef-a378-9460b85d7c89"",""projectId"":""54f8d589-66fc-4c65-830f-1dcc63bce8cc""}","https://test12345.live/?participantId=16426D67E81A4AC58B6E3D9D00A53641&assignmentId=150a3973-67bc-4fef-a378-9460b85d7c89&projectId=54f8d589-66fc-4c65-830f-1dcc63bce8cc","","1229","Was there a person in the picture?","1","",""
"","","","","","survey-likert","67","178519","0.0-49.0","16426D67E81A4AC58B6E3D9D00A53641","16426D67E81A4AC58B6E3D9D00A53641","150a3973-67bc-4fef-a378-9460b85d7c89","54f8d589-66fc-4c65-830f-1dcc63bce8cc","{""participantId"":""16426D67E81A4AC58B6E3D9D00A53641"",""assignmentId"":""150a3973-67bc-4fef-a378-9460b85d7c89"",""projectId"":""54f8d589-66fc-4c65-830f-1dcc63bce8cc""}","https://test12345.live/?participantId=16426D67E81A4AC58B6E3D9D00A53641&assignmentId=150a3973-67bc-4fef-a378-9460b85d7c89&projectId=54f8d589-66fc-4c65-830f-1dcc63bce8cc","","1773","","{""Q0"":2}","","[0]"
"","","","","","html-button-response","68","179472","0.0-50.0","16426D67E81A4AC58B6E3D9D00A53641","16426D67E81A4AC58B6E3D9D00A53641","150a3973-67bc-4fef-a378-9460b85d7c89","54f8d589-66fc-4c65-830f-1dcc63bce8cc","{""participantId"":""16426D67E81A4AC58B6E3D9D00A53641"",""assignmentId"":""150a3973-67bc-4fef-a378-9460b85d7c89"",""projectId"":""54f8d589-66fc-4c65-830f-1dcc63bce8cc""}","https://test12345.live/?participantId=16426D67E81A4AC58B6E3D9D00A53641&assignmentId=150a3973-67bc-4fef-a378-9460b85d7c89&projectId=54f8d589-66fc-4c65-830f-1dcc63bce8cc","","951","
    <div style=""display: flex; justify-content: center; align-items: center;"">
      <img src=""images/red_deck_2.png"" style=""width: 300px; height: 300px; margin-right: 10px;"" />
      <img src=""images/blue_deck_1.png"" style=""width: 300px; height: 300px;"" />
    </div>","1","1",""
"","","","","","html-keyboard-response","69","182502","0.0-52.0-0.0","16426D67E81A4AC58B6E3D9D00A53641","16426D67E81A4AC58B6E3D9D00A53641","150a3973-67bc-4fef-a378-9460b85d7c89","54f8d589-66fc-4c65-830f-1dcc63bce8cc","{""participantId"":""16426D67E81A4AC58B6E3D9D00A53641"",""assignmentId"":""150a3973-67bc-4fef-a378-9460b85d7c89"",""projectId"":""54f8d589-66fc-4c65-830f-1dcc63bce8cc""}","https://test12345.live/?participantId=16426D67E81A4AC58B6E3D9D00A53641&assignmentId=150a3973-67bc-4fef-a378-9460b85d7c89&projectId=54f8d589-66fc-4c65-830f-1dcc63bce8cc","","null","<div style=""display: flex; justify-content: center; align-items: center;"">
                    <img src=""images/semantic/semantic_series_3/semantic_series_3_a.jpg"" style=""width: 300px; height: 300px;"" />
                  </div>","null","",""
"","","","","","html-keyboard-response","70","185523","0.0-52.0-1.0","16426D67E81A4AC58B6E3D9D00A53641","16426D67E81A4AC58B6E3D9D00A53641","150a3973-67bc-4fef-a378-9460b85d7c89","54f8d589-66fc-4c65-830f-1dcc63bce8cc","{""participantId"":""16426D67E81A4AC58B6E3D9D00A53641"",""assignmentId"":""150a3973-67bc-4fef-a378-9460b85d7c89"",""projectId"":""54f8d589-66fc-4c65-830f-1dcc63bce8cc""}","https://test12345.live/?participantId=16426D67E81A4AC58B6E3D9D00A53641&assignmentId=150a3973-67bc-4fef-a378-9460b85d7c89&projectId=54f8d589-66fc-4c65-830f-1dcc63bce8cc","","null","<div style=""display: flex; justify-content: center; align-items: center;"">
                    <img src=""images/semantic/semantic_series_3/semantic_series_3_b.jpg"" style=""width: 300px; height: 300px;"" />
                  </div>","null","",""
"","","","","","html-keyboard-response","71","188561","0.0-52.0-2.0","16426D67E81A4AC58B6E3D9D00A53641","16426D67E81A4AC58B6E3D9D00A53641","150a3973-67bc-4fef-a378-9460b85d7c89","54f8d589-66fc-4c65-830f-1dcc63bce8cc","{""participantId"":""16426D67E81A4AC58B6E3D9D00A53641"",""assignmentId"":""150a3973-67bc-4fef-a378-9460b85d7c89"",""projectId"":""54f8d589-66fc-4c65-830f-1dcc63bce8cc""}","https://test12345.live/?participantId=16426D67E81A4AC58B6E3D9D00A53641&assignmentId=150a3973-67bc-4fef-a378-9460b85d7c89&projectId=54f8d589-66fc-4c65-830f-1dcc63bce8cc","","null","<div style=""display: flex; justify-content: center; align-items: center;"">
                    <img src=""images/semantic/semantic_series_3/semantic_series_3_c.jpg"" style=""width: 300px; height: 300px;"" />
                  </div>","null","",""
"","","","","","html-keyboard-response","72","191587","0.0-52.0-3.0","16426D67E81A4AC58B6E3D9D00A53641","16426D67E81A4AC58B6E3D9D00A53641","150a3973-67bc-4fef-a378-9460b85d7c89","54f8d589-66fc-4c65-830f-1dcc63bce8cc","{""participantId"":""16426D67E81A4AC58B6E3D9D00A53641"",""assignmentId"":""150a3973-67bc-4fef-a378-9460b85d7c89"",""projectId"":""54f8d589-66fc-4c65-830f-1dcc63bce8cc""}","https://test12345.live/?participantId=16426D67E81A4AC58B6E3D9D00A53641&assignmentId=150a3973-67bc-4fef-a378-9460b85d7c89&projectId=54f8d589-66fc-4c65-830f-1dcc63bce8cc","","null","<div style=""display: flex; justify-content: center; align-items: center;"">
                    <img src=""images/semantic/semantic_series_3/semantic_series_3_d.jpg"" style=""width: 300px; height: 300px;"" />
                  </div>","null","",""
"","","","","","html-button-response","73","193881","0.0-53.0","16426D67E81A4AC58B6E3D9D00A53641","16426D67E81A4AC58B6E3D9D00A53641","150a3973-67bc-4fef-a378-9460b85d7c89","54f8d589-66fc-4c65-830f-1dcc63bce8cc","{""participantId"":""16426D67E81A4AC58B6E3D9D00A53641"",""assignmentId"":""150a3973-67bc-4fef-a378-9460b85d7c89"",""projectId"":""54f8d589-66fc-4c65-830f-1dcc63bce8cc""}","https://test12345.live/?participantId=16426D67E81A4AC58B6E3D9D00A53641&assignmentId=150a3973-67bc-4fef-a378-9460b85d7c89&projectId=54f8d589-66fc-4c65-830f-1dcc63bce8cc","","2293","Was there a person in the picture?","0","",""
"","","","","","survey-likert","74","196306","0.0-54.0","16426D67E81A4AC58B6E3D9D00A53641","16426D67E81A4AC58B6E3D9D00A53641","150a3973-67bc-4fef-a378-9460b85d7c89","54f8d589-66fc-4c65-830f-1dcc63bce8cc","{""participantId"":""16426D67E81A4AC58B6E3D9D00A53641"",""assignmentId"":""150a3973-67bc-4fef-a378-9460b85d7c89"",""projectId"":""54f8d589-66fc-4c65-830f-1dcc63bce8cc""}","https://test12345.live/?participantId=16426D67E81A4AC58B6E3D9D00A53641&assignmentId=150a3973-67bc-4fef-a378-9460b85d7c89&projectId=54f8d589-66fc-4c65-830f-1dcc63bce8cc","","2423","","{""Q0"":3}","","[0]"
"","","","","","html-button-response","75","208132","0.0-55.0","16426D67E81A4AC58B6E3D9D00A53641","16426D67E81A4AC58B6E3D9D00A53641","150a3973-67bc-4fef-a378-9460b85d7c89","54f8d589-66fc-4c65-830f-1dcc63bce8cc","{""participantId"":""16426D67E81A4AC58B6E3D9D00A53641"",""assignmentId"":""150a3973-67bc-4fef-a378-9460b85d7c89"",""projectId"":""54f8d589-66fc-4c65-830f-1dcc63bce8cc""}","https://test12345.live/?participantId=16426D67E81A4AC58B6E3D9D00A53641&assignmentId=150a3973-67bc-4fef-a378-9460b85d7c89&projectId=54f8d589-66fc-4c65-830f-1dcc63bce8cc","","11825","
    <div style=""display: flex; justify-content: center; align-items: center;"">
      <img src=""images/red_deck_2.png"" style=""width: 300px; height: 300px; margin-right: 10px;"" />
      <img src=""images/blue_deck_1.png"" style=""width: 300px; height: 300px;"" />
    </div>","0","0",""
"","","","","","html-keyboard-response","76","211142","0.0-56.0-0.0","16426D67E81A4AC58B6E3D9D00A53641","16426D67E81A4AC58B6E3D9D00A53641","150a3973-67bc-4fef-a378-9460b85d7c89","54f8d589-66fc-4c65-830f-1dcc63bce8cc","{""participantId"":""16426D67E81A4AC58B6E3D9D00A53641"",""assignmentId"":""150a3973-67bc-4fef-a378-9460b85d7c89"",""projectId"":""54f8d589-66fc-4c65-830f-1dcc63bce8cc""}","https://test12345.live/?participantId=16426D67E81A4AC58B6E3D9D00A53641&assignmentId=150a3973-67bc-4fef-a378-9460b85d7c89&projectId=54f8d589-66fc-4c65-830f-1dcc63bce8cc","","null","<div style=""display: flex; justify-content: center; align-items: center;"">
                    <img src=""images/causal/causal_series_5/causal_series_5_a.jpg"" style=""width: 300px; height: 300px;"" />
                  </div>","null","",""
"","","","","","html-keyboard-response","77","214185","0.0-56.0-1.0","16426D67E81A4AC58B6E3D9D00A53641","16426D67E81A4AC58B6E3D9D00A53641","150a3973-67bc-4fef-a378-9460b85d7c89","54f8d589-66fc-4c65-830f-1dcc63bce8cc","{""participantId"":""16426D67E81A4AC58B6E3D9D00A53641"",""assignmentId"":""150a3973-67bc-4fef-a378-9460b85d7c89"",""projectId"":""54f8d589-66fc-4c65-830f-1dcc63bce8cc""}","https://test12345.live/?participantId=16426D67E81A4AC58B6E3D9D00A53641&assignmentId=150a3973-67bc-4fef-a378-9460b85d7c89&projectId=54f8d589-66fc-4c65-830f-1dcc63bce8cc","","null","<div style=""display: flex; justify-content: center; align-items: center;"">
                    <img src=""images/causal/causal_series_5/causal_series_5_b.jpg"" style=""width: 300px; height: 300px;"" />
                  </div>","null","",""
"","","","","","html-keyboard-response","78","217215","0.0-56.0-2.0","16426D67E81A4AC58B6E3D9D00A53641","16426D67E81A4AC58B6E3D9D00A53641","150a3973-67bc-4fef-a378-9460b85d7c89","54f8d589-66fc-4c65-830f-1dcc63bce8cc","{""participantId"":""16426D67E81A4AC58B6E3D9D00A53641"",""assignmentId"":""150a3973-67bc-4fef-a378-9460b85d7c89"",""projectId"":""54f8d589-66fc-4c65-830f-1dcc63bce8cc""}","https://test12345.live/?participantId=16426D67E81A4AC58B6E3D9D00A53641&assignmentId=150a3973-67bc-4fef-a378-9460b85d7c89&projectId=54f8d589-66fc-4c65-830f-1dcc63bce8cc","","null","<div style=""display: flex; justify-content: center; align-items: center;"">
                    <img src=""images/causal/causal_series_5/causal_series_5_c.jpg"" style=""width: 300px; height: 300px;"" />
                  </div>","null","",""
"","","","","","html-keyboard-response","79","220232","0.0-56.0-3.0","16426D67E81A4AC58B6E3D9D00A53641","16426D67E81A4AC58B6E3D9D00A53641","150a3973-67bc-4fef-a378-9460b85d7c89","54f8d589-66fc-4c65-830f-1dcc63bce8cc","{""participantId"":""16426D67E81A4AC58B6E3D9D00A53641"",""assignmentId"":""150a3973-67bc-4fef-a378-9460b85d7c89"",""projectId"":""54f8d589-66fc-4c65-830f-1dcc63bce8cc""}","https://test12345.live/?participantId=16426D67E81A4AC58B6E3D9D00A53641&assignmentId=150a3973-67bc-4fef-a378-9460b85d7c89&projectId=54f8d589-66fc-4c65-830f-1dcc63bce8cc","","null","<div style=""display: flex; justify-content: center; align-items: center;"">
                    <img src=""images/causal/causal_series_5/causal_series_5_d.jpg"" style=""width: 300px; height: 300px;"" />
                  </div>","null","",""
"","","","","","html-button-response","80","221242","0.0-58.0","16426D67E81A4AC58B6E3D9D00A53641","16426D67E81A4AC58B6E3D9D00A53641","150a3973-67bc-4fef-a378-9460b85d7c89","54f8d589-66fc-4c65-830f-1dcc63bce8cc","{""participantId"":""16426D67E81A4AC58B6E3D9D00A53641"",""assignmentId"":""150a3973-67bc-4fef-a378-9460b85d7c89"",""projectId"":""54f8d589-66fc-4c65-830f-1dcc63bce8cc""}","https://test12345.live/?participantId=16426D67E81A4AC58B6E3D9D00A53641&assignmentId=150a3973-67bc-4fef-a378-9460b85d7c89&projectId=54f8d589-66fc-4c65-830f-1dcc63bce8cc","","1008","Was there a person in the picture?","0","",""
"","","","","","survey-likert","81","222892","0.0-59.0","16426D67E81A4AC58B6E3D9D00A53641","16426D67E81A4AC58B6E3D9D00A53641","150a3973-67bc-4fef-a378-9460b85d7c89","54f8d589-66fc-4c65-830f-1dcc63bce8cc","{""participantId"":""16426D67E81A4AC58B6E3D9D00A53641"",""assignmentId"":""150a3973-67bc-4fef-a378-9460b85d7c89"",""projectId"":""54f8d589-66fc-4c65-830f-1dcc63bce8cc""}","https://test12345.live/?participantId=16426D67E81A4AC58B6E3D9D00A53641&assignmentId=150a3973-67bc-4fef-a378-9460b85d7c89&projectId=54f8d589-66fc-4c65-830f-1dcc63bce8cc","","1648","","{""Q0"":3}","","[0]"
"","","","","","html-button-response","82","224901","0.0-60.0","16426D67E81A4AC58B6E3D9D00A53641","16426D67E81A4AC58B6E3D9D00A53641","150a3973-67bc-4fef-a378-9460b85d7c89","54f8d589-66fc-4c65-830f-1dcc63bce8cc","{""participantId"":""16426D67E81A4AC58B6E3D9D00A53641"",""assignmentId"":""150a3973-67bc-4fef-a378-9460b85d7c89"",""projectId"":""54f8d589-66fc-4c65-830f-1dcc63bce8cc""}","https://test12345.live/?participantId=16426D67E81A4AC58B6E3D9D00A53641&assignmentId=150a3973-67bc-4fef-a378-9460b85d7c89&projectId=54f8d589-66fc-4c65-830f-1dcc63bce8cc","","2008","
    <div style=""display: flex; justify-content: center; align-items: center;"">
      <img src=""images/red_deck_2.png"" style=""width: 300px; height: 300px; margin-right: 10px;"" />
      <img src=""images/blue_deck_1.png"" style=""width: 300px; height: 300px;"" />
    </div>","1","1",""
"","","","","","html-keyboard-response","83","227916","0.0-62.0-0.0","16426D67E81A4AC58B6E3D9D00A53641","16426D67E81A4AC58B6E3D9D00A53641","150a3973-67bc-4fef-a378-9460b85d7c89","54f8d589-66fc-4c65-830f-1dcc63bce8cc","{""participantId"":""16426D67E81A4AC58B6E3D9D00A53641"",""assignmentId"":""150a3973-67bc-4fef-a378-9460b85d7c89"",""projectId"":""54f8d589-66fc-4c65-830f-1dcc63bce8cc""}","https://test12345.live/?participantId=16426D67E81A4AC58B6E3D9D00A53641&assignmentId=150a3973-67bc-4fef-a378-9460b85d7c89&projectId=54f8d589-66fc-4c65-830f-1dcc63bce8cc","","null","<div style=""display: flex; justify-content: center; align-items: center;"">
                    <img src=""images/semantic/semantic_series_2/semantic_series_2_a.jpg"" style=""width: 300px; height: 300px;"" />
                  </div>","null","",""
"","","","","","html-keyboard-response","84","230942","0.0-62.0-1.0","16426D67E81A4AC58B6E3D9D00A53641","16426D67E81A4AC58B6E3D9D00A53641","150a3973-67bc-4fef-a378-9460b85d7c89","54f8d589-66fc-4c65-830f-1dcc63bce8cc","{""participantId"":""16426D67E81A4AC58B6E3D9D00A53641"",""assignmentId"":""150a3973-67bc-4fef-a378-9460b85d7c89"",""projectId"":""54f8d589-66fc-4c65-830f-1dcc63bce8cc""}","https://test12345.live/?participantId=16426D67E81A4AC58B6E3D9D00A53641&assignmentId=150a3973-67bc-4fef-a378-9460b85d7c89&projectId=54f8d589-66fc-4c65-830f-1dcc63bce8cc","","null","<div style=""display: flex; justify-content: center; align-items: center;"">
                    <img src=""images/semantic/semantic_series_2/semantic_series_2_b.jpg"" style=""width: 300px; height: 300px;"" />
                  </div>","null","",""
"","","","","","html-keyboard-response","85","233972","0.0-62.0-2.0","16426D67E81A4AC58B6E3D9D00A53641","16426D67E81A4AC58B6E3D9D00A53641","150a3973-67bc-4fef-a378-9460b85d7c89","54f8d589-66fc-4c65-830f-1dcc63bce8cc","{""participantId"":""16426D67E81A4AC58B6E3D9D00A53641"",""assignmentId"":""150a3973-67bc-4fef-a378-9460b85d7c89"",""projectId"":""54f8d589-66fc-4c65-830f-1dcc63bce8cc""}","https://test12345.live/?participantId=16426D67E81A4AC58B6E3D9D00A53641&assignmentId=150a3973-67bc-4fef-a378-9460b85d7c89&projectId=54f8d589-66fc-4c65-830f-1dcc63bce8cc","","null","<div style=""display: flex; justify-content: center; align-items: center;"">
                    <img src=""images/semantic/semantic_series_2/semantic_series_2_c.jpg"" style=""width: 300px; height: 300px;"" />
                  </div>","null","",""
"","","","","","html-keyboard-response","86","237007","0.0-62.0-3.0","16426D67E81A4AC58B6E3D9D00A53641","16426D67E81A4AC58B6E3D9D00A53641","150a3973-67bc-4fef-a378-9460b85d7c89","54f8d589-66fc-4c65-830f-1dcc63bce8cc","{""participantId"":""16426D67E81A4AC58B6E3D9D00A53641"",""assignmentId"":""150a3973-67bc-4fef-a378-9460b85d7c89"",""projectId"":""54f8d589-66fc-4c65-830f-1dcc63bce8cc""}","https://test12345.live/?participantId=16426D67E81A4AC58B6E3D9D00A53641&assignmentId=150a3973-67bc-4fef-a378-9460b85d7c89&projectId=54f8d589-66fc-4c65-830f-1dcc63bce8cc","","null","<div style=""display: flex; justify-content: center; align-items: center;"">
                    <img src=""images/semantic/semantic_series_2/semantic_series_2_d.jpg"" style=""width: 300px; height: 300px;"" />
                  </div>","null","",""
"","","","","","html-button-response","87","238171","0.0-63.0","16426D67E81A4AC58B6E3D9D00A53641","16426D67E81A4AC58B6E3D9D00A53641","150a3973-67bc-4fef-a378-9460b85d7c89","54f8d589-66fc-4c65-830f-1dcc63bce8cc","{""participantId"":""16426D67E81A4AC58B6E3D9D00A53641"",""assignmentId"":""150a3973-67bc-4fef-a378-9460b85d7c89"",""projectId"":""54f8d589-66fc-4c65-830f-1dcc63bce8cc""}","https://test12345.live/?participantId=16426D67E81A4AC58B6E3D9D00A53641&assignmentId=150a3973-67bc-4fef-a378-9460b85d7c89&projectId=54f8d589-66fc-4c65-830f-1dcc63bce8cc","","1163","Was there a person in the picture?","0","",""
"","","","","","survey-likert","88","240036","0.0-64.0","16426D67E81A4AC58B6E3D9D00A53641","16426D67E81A4AC58B6E3D9D00A53641","150a3973-67bc-4fef-a378-9460b85d7c89","54f8d589-66fc-4c65-830f-1dcc63bce8cc","{""participantId"":""16426D67E81A4AC58B6E3D9D00A53641"",""assignmentId"":""150a3973-67bc-4fef-a378-9460b85d7c89"",""projectId"":""54f8d589-66fc-4c65-830f-1dcc63bce8cc""}","https://test12345.live/?participantId=16426D67E81A4AC58B6E3D9D00A53641&assignmentId=150a3973-67bc-4fef-a378-9460b85d7c89&projectId=54f8d589-66fc-4c65-830f-1dcc63bce8cc","","1865","","{""Q0"":2}","","[0]"
"","","","","","html-button-response","89","240956","0.0-65.0","16426D67E81A4AC58B6E3D9D00A53641","16426D67E81A4AC58B6E3D9D00A53641","150a3973-67bc-4fef-a378-9460b85d7c89","54f8d589-66fc-4c65-830f-1dcc63bce8cc","{""participantId"":""16426D67E81A4AC58B6E3D9D00A53641"",""assignmentId"":""150a3973-67bc-4fef-a378-9460b85d7c89"",""projectId"":""54f8d589-66fc-4c65-830f-1dcc63bce8cc""}","https://test12345.live/?participantId=16426D67E81A4AC58B6E3D9D00A53641&assignmentId=150a3973-67bc-4fef-a378-9460b85d7c89&projectId=54f8d589-66fc-4c65-830f-1dcc63bce8cc","","910","
    <div style=""display: flex; justify-content: center; align-items: center;"">
      <img src=""images/red_deck_2.png"" style=""width: 300px; height: 300px; margin-right: 10px;"" />
      <img src=""images/blue_deck_1.png"" style=""width: 300px; height: 300px;"" />
    </div>","0","0",""
"","","","","","html-keyboard-response","90","243970","0.0-66.0-0.0","16426D67E81A4AC58B6E3D9D00A53641","16426D67E81A4AC58B6E3D9D00A53641","150a3973-67bc-4fef-a378-9460b85d7c89","54f8d589-66fc-4c65-830f-1dcc63bce8cc","{""participantId"":""16426D67E81A4AC58B6E3D9D00A53641"",""assignmentId"":""150a3973-67bc-4fef-a378-9460b85d7c89"",""projectId"":""54f8d589-66fc-4c65-830f-1dcc63bce8cc""}","https://test12345.live/?participantId=16426D67E81A4AC58B6E3D9D00A53641&assignmentId=150a3973-67bc-4fef-a378-9460b85d7c89&projectId=54f8d589-66fc-4c65-830f-1dcc63bce8cc","","null","<div style=""display: flex; justify-content: center; align-items: center;"">
                    <img src=""images/causal/causal_series_4/causal_series_4_a.jpg"" style=""width: 300px; height: 300px;"" />
                  </div>","null","",""
"","","","","","html-keyboard-response","91","247005","0.0-66.0-1.0","16426D67E81A4AC58B6E3D9D00A53641","16426D67E81A4AC58B6E3D9D00A53641","150a3973-67bc-4fef-a378-9460b85d7c89","54f8d589-66fc-4c65-830f-1dcc63bce8cc","{""participantId"":""16426D67E81A4AC58B6E3D9D00A53641"",""assignmentId"":""150a3973-67bc-4fef-a378-9460b85d7c89"",""projectId"":""54f8d589-66fc-4c65-830f-1dcc63bce8cc""}","https://test12345.live/?participantId=16426D67E81A4AC58B6E3D9D00A53641&assignmentId=150a3973-67bc-4fef-a378-9460b85d7c89&projectId=54f8d589-66fc-4c65-830f-1dcc63bce8cc","","null","<div style=""display: flex; justify-content: center; align-items: center;"">
                    <img src=""images/causal/causal_series_4/causal_series_4_b.jpg"" style=""width: 300px; height: 300px;"" />
                  </div>","null","",""
"","","","","","html-keyboard-response","92","250036","0.0-66.0-2.0","16426D67E81A4AC58B6E3D9D00A53641","16426D67E81A4AC58B6E3D9D00A53641","150a3973-67bc-4fef-a378-9460b85d7c89","54f8d589-66fc-4c65-830f-1dcc63bce8cc","{""participantId"":""16426D67E81A4AC58B6E3D9D00A53641"",""assignmentId"":""150a3973-67bc-4fef-a378-9460b85d7c89"",""projectId"":""54f8d589-66fc-4c65-830f-1dcc63bce8cc""}","https://test12345.live/?participantId=16426D67E81A4AC58B6E3D9D00A53641&assignmentId=150a3973-67bc-4fef-a378-9460b85d7c89&projectId=54f8d589-66fc-4c65-830f-1dcc63bce8cc","","null","<div style=""display: flex; justify-content: center; align-items: center;"">
                    <img src=""images/causal/causal_series_4/causal_series_4_c.jpg"" style=""width: 300px; height: 300px;"" />
                  </div>","null","",""
"","","","","","html-keyboard-response","93","253069","0.0-66.0-3.0","16426D67E81A4AC58B6E3D9D00A53641","16426D67E81A4AC58B6E3D9D00A53641","150a3973-67bc-4fef-a378-9460b85d7c89","54f8d589-66fc-4c65-830f-1dcc63bce8cc","{""participantId"":""16426D67E81A4AC58B6E3D9D00A53641"",""assignmentId"":""150a3973-67bc-4fef-a378-9460b85d7c89"",""projectId"":""54f8d589-66fc-4c65-830f-1dcc63bce8cc""}","https://test12345.live/?participantId=16426D67E81A4AC58B6E3D9D00A53641&assignmentId=150a3973-67bc-4fef-a378-9460b85d7c89&projectId=54f8d589-66fc-4c65-830f-1dcc63bce8cc","","null","<div style=""display: flex; justify-content: center; align-items: center;"">
                    <img src=""images/causal/causal_series_4/causal_series_4_d.jpg"" style=""width: 300px; height: 300px;"" />
                  </div>","null","",""
"","","","","","html-button-response","94","254187","0.0-68.0","16426D67E81A4AC58B6E3D9D00A53641","16426D67E81A4AC58B6E3D9D00A53641","150a3973-67bc-4fef-a378-9460b85d7c89","54f8d589-66fc-4c65-830f-1dcc63bce8cc","{""participantId"":""16426D67E81A4AC58B6E3D9D00A53641"",""assignmentId"":""150a3973-67bc-4fef-a378-9460b85d7c89"",""projectId"":""54f8d589-66fc-4c65-830f-1dcc63bce8cc""}","https://test12345.live/?participantId=16426D67E81A4AC58B6E3D9D00A53641&assignmentId=150a3973-67bc-4fef-a378-9460b85d7c89&projectId=54f8d589-66fc-4c65-830f-1dcc63bce8cc","","1117","Was there a person in the picture?","1","",""
"","","","","","survey-likert","95","255563","0.0-69.0","16426D67E81A4AC58B6E3D9D00A53641","16426D67E81A4AC58B6E3D9D00A53641","150a3973-67bc-4fef-a378-9460b85d7c89","54f8d589-66fc-4c65-830f-1dcc63bce8cc","{""participantId"":""16426D67E81A4AC58B6E3D9D00A53641"",""assignmentId"":""150a3973-67bc-4fef-a378-9460b85d7c89"",""projectId"":""54f8d589-66fc-4c65-830f-1dcc63bce8cc""}","https://test12345.live/?participantId=16426D67E81A4AC58B6E3D9D00A53641&assignmentId=150a3973-67bc-4fef-a378-9460b85d7c89&projectId=54f8d589-66fc-4c65-830f-1dcc63bce8cc","","1375","","{""Q0"":3}","","[0]"
"","","","","","html-button-response","96","256233","0.0-70.0","16426D67E81A4AC58B6E3D9D00A53641","16426D67E81A4AC58B6E3D9D00A53641","150a3973-67bc-4fef-a378-9460b85d7c89","54f8d589-66fc-4c65-830f-1dcc63bce8cc","{""participantId"":""16426D67E81A4AC58B6E3D9D00A53641"",""assignmentId"":""150a3973-67bc-4fef-a378-9460b85d7c89"",""projectId"":""54f8d589-66fc-4c65-830f-1dcc63bce8cc""}","https://test12345.live/?participantId=16426D67E81A4AC58B6E3D9D00A53641&assignmentId=150a3973-67bc-4fef-a378-9460b85d7c89&projectId=54f8d589-66fc-4c65-830f-1dcc63bce8cc","","668","
    <div style=""display: flex; justify-content: center; align-items: center;"">
      <img src=""images/red_deck_2.png"" style=""width: 300px; height: 300px; margin-right: 10px;"" />
      <img src=""images/blue_deck_1.png"" style=""width: 300px; height: 300px;"" />
    </div>","1","1",""
"","","","","","html-keyboard-response","97","259238","0.0-72.0-0.0","16426D67E81A4AC58B6E3D9D00A53641","16426D67E81A4AC58B6E3D9D00A53641","150a3973-67bc-4fef-a378-9460b85d7c89","54f8d589-66fc-4c65-830f-1dcc63bce8cc","{""participantId"":""16426D67E81A4AC58B6E3D9D00A53641"",""assignmentId"":""150a3973-67bc-4fef-a378-9460b85d7c89"",""projectId"":""54f8d589-66fc-4c65-830f-1dcc63bce8cc""}","https://test12345.live/?participantId=16426D67E81A4AC58B6E3D9D00A53641&assignmentId=150a3973-67bc-4fef-a378-9460b85d7c89&projectId=54f8d589-66fc-4c65-830f-1dcc63bce8cc","","null","<div style=""display: flex; justify-content: center; align-items: center;"">
                    <img src=""images/semantic/semantic_series_12/semantic_series_12_a.jpg"" style=""width: 300px; height: 300px;"" />
                  </div>","null","",""
"","","","","","html-keyboard-response","98","262270","0.0-72.0-1.0","16426D67E81A4AC58B6E3D9D00A53641","16426D67E81A4AC58B6E3D9D00A53641","150a3973-67bc-4fef-a378-9460b85d7c89","54f8d589-66fc-4c65-830f-1dcc63bce8cc","{""participantId"":""16426D67E81A4AC58B6E3D9D00A53641"",""assignmentId"":""150a3973-67bc-4fef-a378-9460b85d7c89"",""projectId"":""54f8d589-66fc-4c65-830f-1dcc63bce8cc""}","https://test12345.live/?participantId=16426D67E81A4AC58B6E3D9D00A53641&assignmentId=150a3973-67bc-4fef-a378-9460b85d7c89&projectId=54f8d589-66fc-4c65-830f-1dcc63bce8cc","","null","<div style=""display: flex; justify-content: center; align-items: center;"">
                    <img src=""images/semantic/semantic_series_12/semantic_series_12_b.jpg"" style=""width: 300px; height: 300px;"" />
                  </div>","null","",""
"","","","","","html-keyboard-response","99","265312","0.0-72.0-2.0","16426D67E81A4AC58B6E3D9D00A53641","16426D67E81A4AC58B6E3D9D00A53641","150a3973-67bc-4fef-a378-9460b85d7c89","54f8d589-66fc-4c65-830f-1dcc63bce8cc","{""participantId"":""16426D67E81A4AC58B6E3D9D00A53641"",""assignmentId"":""150a3973-67bc-4fef-a378-9460b85d7c89"",""projectId"":""54f8d589-66fc-4c65-830f-1dcc63bce8cc""}","https://test12345.live/?participantId=16426D67E81A4AC58B6E3D9D00A53641&assignmentId=150a3973-67bc-4fef-a378-9460b85d7c89&projectId=54f8d589-66fc-4c65-830f-1dcc63bce8cc","","null","<div style=""display: flex; justify-content: center; align-items: center;"">
                    <img src=""images/semantic/semantic_series_12/semantic_series_12_c.jpg"" style=""width: 300px; height: 300px;"" />
                  </div>","null","",""
"","","","","","html-keyboard-response","100","268341","0.0-72.0-3.0","16426D67E81A4AC58B6E3D9D00A53641","16426D67E81A4AC58B6E3D9D00A53641","150a3973-67bc-4fef-a378-9460b85d7c89","54f8d589-66fc-4c65-830f-1dcc63bce8cc","{""participantId"":""16426D67E81A4AC58B6E3D9D00A53641"",""assignmentId"":""150a3973-67bc-4fef-a378-9460b85d7c89"",""projectId"":""54f8d589-66fc-4c65-830f-1dcc63bce8cc""}","https://test12345.live/?participantId=16426D67E81A4AC58B6E3D9D00A53641&assignmentId=150a3973-67bc-4fef-a378-9460b85d7c89&projectId=54f8d589-66fc-4c65-830f-1dcc63bce8cc","","null","<div style=""display: flex; justify-content: center; align-items: center;"">
                    <img src=""images/semantic/semantic_series_12/semantic_series_12_d.jpg"" style=""width: 300px; height: 300px;"" />
                  </div>","null","",""
"","","","","","html-button-response","101","272600","0.0-73.0","16426D67E81A4AC58B6E3D9D00A53641","16426D67E81A4AC58B6E3D9D00A53641","150a3973-67bc-4fef-a378-9460b85d7c89","54f8d589-66fc-4c65-830f-1dcc63bce8cc","{""participantId"":""16426D67E81A4AC58B6E3D9D00A53641"",""assignmentId"":""150a3973-67bc-4fef-a378-9460b85d7c89"",""projectId"":""54f8d589-66fc-4c65-830f-1dcc63bce8cc""}","https://test12345.live/?participantId=16426D67E81A4AC58B6E3D9D00A53641&assignmentId=150a3973-67bc-4fef-a378-9460b85d7c89&projectId=54f8d589-66fc-4c65-830f-1dcc63bce8cc","","4258","Was there a person in the picture?","1","",""
"","","","","","survey-likert","102","274109","0.0-74.0","16426D67E81A4AC58B6E3D9D00A53641","16426D67E81A4AC58B6E3D9D00A53641","150a3973-67bc-4fef-a378-9460b85d7c89","54f8d589-66fc-4c65-830f-1dcc63bce8cc","{""participantId"":""16426D67E81A4AC58B6E3D9D00A53641"",""assignmentId"":""150a3973-67bc-4fef-a378-9460b85d7c89"",""projectId"":""54f8d589-66fc-4c65-830f-1dcc63bce8cc""}","https://test12345.live/?participantId=16426D67E81A4AC58B6E3D9D00A53641&assignmentId=150a3973-67bc-4fef-a378-9460b85d7c89&projectId=54f8d589-66fc-4c65-830f-1dcc63bce8cc","","1508","","{""Q0"":4}","","[0]"
"","","","","","html-button-response","103","275049","0.0-75.0","16426D67E81A4AC58B6E3D9D00A53641","16426D67E81A4AC58B6E3D9D00A53641","150a3973-67bc-4fef-a378-9460b85d7c89","54f8d589-66fc-4c65-830f-1dcc63bce8cc","{""participantId"":""16426D67E81A4AC58B6E3D9D00A53641"",""assignmentId"":""150a3973-67bc-4fef-a378-9460b85d7c89"",""projectId"":""54f8d589-66fc-4c65-830f-1dcc63bce8cc""}","https://test12345.live/?participantId=16426D67E81A4AC58B6E3D9D00A53641&assignmentId=150a3973-67bc-4fef-a378-9460b85d7c89&projectId=54f8d589-66fc-4c65-830f-1dcc63bce8cc","","938","
    <div style=""display: flex; justify-content: center; align-items: center;"">
      <img src=""images/red_deck_2.png"" style=""width: 300px; height: 300px; margin-right: 10px;"" />
      <img src=""images/blue_deck_1.png"" style=""width: 300px; height: 300px;"" />
    </div>","0","0",""
"","","","","","html-keyboard-response","104","278065","0.0-76.0-0.0","16426D67E81A4AC58B6E3D9D00A53641","16426D67E81A4AC58B6E3D9D00A53641","150a3973-67bc-4fef-a378-9460b85d7c89","54f8d589-66fc-4c65-830f-1dcc63bce8cc","{""participantId"":""16426D67E81A4AC58B6E3D9D00A53641"",""assignmentId"":""150a3973-67bc-4fef-a378-9460b85d7c89"",""projectId"":""54f8d589-66fc-4c65-830f-1dcc63bce8cc""}","https://test12345.live/?participantId=16426D67E81A4AC58B6E3D9D00A53641&assignmentId=150a3973-67bc-4fef-a378-9460b85d7c89&projectId=54f8d589-66fc-4c65-830f-1dcc63bce8cc","","null","<div style=""display: flex; justify-content: center; align-items: center;"">
                    <img src=""images/causal/causal_series_7/causal_series_7_a.jpg"" style=""width: 300px; height: 300px;"" />
                  </div>","null","",""
"","","","","","html-keyboard-response","105","281079","0.0-76.0-1.0","16426D67E81A4AC58B6E3D9D00A53641","16426D67E81A4AC58B6E3D9D00A53641","150a3973-67bc-4fef-a378-9460b85d7c89","54f8d589-66fc-4c65-830f-1dcc63bce8cc","{""participantId"":""16426D67E81A4AC58B6E3D9D00A53641"",""assignmentId"":""150a3973-67bc-4fef-a378-9460b85d7c89"",""projectId"":""54f8d589-66fc-4c65-830f-1dcc63bce8cc""}","https://test12345.live/?participantId=16426D67E81A4AC58B6E3D9D00A53641&assignmentId=150a3973-67bc-4fef-a378-9460b85d7c89&projectId=54f8d589-66fc-4c65-830f-1dcc63bce8cc","","null","<div style=""display: flex; justify-content: center; align-items: center;"">
                    <img src=""images/causal/causal_series_7/causal_series_7_b.jpg"" style=""width: 300px; height: 300px;"" />
                  </div>","null","",""
"","","","","","html-keyboard-response","106","284122","0.0-76.0-2.0","16426D67E81A4AC58B6E3D9D00A53641","16426D67E81A4AC58B6E3D9D00A53641","150a3973-67bc-4fef-a378-9460b85d7c89","54f8d589-66fc-4c65-830f-1dcc63bce8cc","{""participantId"":""16426D67E81A4AC58B6E3D9D00A53641"",""assignmentId"":""150a3973-67bc-4fef-a378-9460b85d7c89"",""projectId"":""54f8d589-66fc-4c65-830f-1dcc63bce8cc""}","https://test12345.live/?participantId=16426D67E81A4AC58B6E3D9D00A53641&assignmentId=150a3973-67bc-4fef-a378-9460b85d7c89&projectId=54f8d589-66fc-4c65-830f-1dcc63bce8cc","","null","<div style=""display: flex; justify-content: center; align-items: center;"">
                    <img src=""images/causal/causal_series_7/causal_series_7_c.jpg"" style=""width: 300px; height: 300px;"" />
                  </div>","null","",""
"","","","","","html-keyboard-response","107","287141","0.0-76.0-3.0","16426D67E81A4AC58B6E3D9D00A53641","16426D67E81A4AC58B6E3D9D00A53641","150a3973-67bc-4fef-a378-9460b85d7c89","54f8d589-66fc-4c65-830f-1dcc63bce8cc","{""participantId"":""16426D67E81A4AC58B6E3D9D00A53641"",""assignmentId"":""150a3973-67bc-4fef-a378-9460b85d7c89"",""projectId"":""54f8d589-66fc-4c65-830f-1dcc63bce8cc""}","https://test12345.live/?participantId=16426D67E81A4AC58B6E3D9D00A53641&assignmentId=150a3973-67bc-4fef-a378-9460b85d7c89&projectId=54f8d589-66fc-4c65-830f-1dcc63bce8cc","","null","<div style=""display: flex; justify-content: center; align-items: center;"">
                    <img src=""images/causal/causal_series_7/causal_series_7_d.jpg"" style=""width: 300px; height: 300px;"" />
                  </div>","null","",""
"","","","","","html-button-response","108","288235","0.0-78.0","16426D67E81A4AC58B6E3D9D00A53641","16426D67E81A4AC58B6E3D9D00A53641","150a3973-67bc-4fef-a378-9460b85d7c89","54f8d589-66fc-4c65-830f-1dcc63bce8cc","{""participantId"":""16426D67E81A4AC58B6E3D9D00A53641"",""assignmentId"":""150a3973-67bc-4fef-a378-9460b85d7c89"",""projectId"":""54f8d589-66fc-4c65-830f-1dcc63bce8cc""}","https://test12345.live/?participantId=16426D67E81A4AC58B6E3D9D00A53641&assignmentId=150a3973-67bc-4fef-a378-9460b85d7c89&projectId=54f8d589-66fc-4c65-830f-1dcc63bce8cc","","1093","Was there a person in the picture?","1","",""
"","","","","","survey-likert","109","290393","0.0-79.0","16426D67E81A4AC58B6E3D9D00A53641","16426D67E81A4AC58B6E3D9D00A53641","150a3973-67bc-4fef-a378-9460b85d7c89","54f8d589-66fc-4c65-830f-1dcc63bce8cc","{""participantId"":""16426D67E81A4AC58B6E3D9D00A53641"",""assignmentId"":""150a3973-67bc-4fef-a378-9460b85d7c89"",""projectId"":""54f8d589-66fc-4c65-830f-1dcc63bce8cc""}","https://test12345.live/?participantId=16426D67E81A4AC58B6E3D9D00A53641&assignmentId=150a3973-67bc-4fef-a378-9460b85d7c89&projectId=54f8d589-66fc-4c65-830f-1dcc63bce8cc","","2157","","{""Q0"":1}","","[0]"
"","","","","","html-button-response","110","291357","0.0-80.0","16426D67E81A4AC58B6E3D9D00A53641","16426D67E81A4AC58B6E3D9D00A53641","150a3973-67bc-4fef-a378-9460b85d7c89","54f8d589-66fc-4c65-830f-1dcc63bce8cc","{""participantId"":""16426D67E81A4AC58B6E3D9D00A53641"",""assignmentId"":""150a3973-67bc-4fef-a378-9460b85d7c89"",""projectId"":""54f8d589-66fc-4c65-830f-1dcc63bce8cc""}","https://test12345.live/?participantId=16426D67E81A4AC58B6E3D9D00A53641&assignmentId=150a3973-67bc-4fef-a378-9460b85d7c89&projectId=54f8d589-66fc-4c65-830f-1dcc63bce8cc","","963","
    <div style=""display: flex; justify-content: center; align-items: center;"">
      <img src=""images/red_deck_2.png"" style=""width: 300px; height: 300px; margin-right: 10px;"" />
      <img src=""images/blue_deck_1.png"" style=""width: 300px; height: 300px;"" />
    </div>","1","1",""
"","","","","","html-keyboard-response","111","294381","0.0-82.0-0.0","16426D67E81A4AC58B6E3D9D00A53641","16426D67E81A4AC58B6E3D9D00A53641","150a3973-67bc-4fef-a378-9460b85d7c89","54f8d589-66fc-4c65-830f-1dcc63bce8cc","{""participantId"":""16426D67E81A4AC58B6E3D9D00A53641"",""assignmentId"":""150a3973-67bc-4fef-a378-9460b85d7c89"",""projectId"":""54f8d589-66fc-4c65-830f-1dcc63bce8cc""}","https://test12345.live/?participantId=16426D67E81A4AC58B6E3D9D00A53641&assignmentId=150a3973-67bc-4fef-a378-9460b85d7c89&projectId=54f8d589-66fc-4c65-830f-1dcc63bce8cc","","null","<div style=""display: flex; justify-content: center; align-items: center;"">
                    <img src=""images/semantic/semantic_series_1/semantic_series_1_a.jpg"" style=""width: 300px; height: 300px;"" />
                  </div>","null","",""
"","","","","","html-keyboard-response","112","297404","0.0-82.0-1.0","16426D67E81A4AC58B6E3D9D00A53641","16426D67E81A4AC58B6E3D9D00A53641","150a3973-67bc-4fef-a378-9460b85d7c89","54f8d589-66fc-4c65-830f-1dcc63bce8cc","{""participantId"":""16426D67E81A4AC58B6E3D9D00A53641"",""assignmentId"":""150a3973-67bc-4fef-a378-9460b85d7c89"",""projectId"":""54f8d589-66fc-4c65-830f-1dcc63bce8cc""}","https://test12345.live/?participantId=16426D67E81A4AC58B6E3D9D00A53641&assignmentId=150a3973-67bc-4fef-a378-9460b85d7c89&projectId=54f8d589-66fc-4c65-830f-1dcc63bce8cc","","null","<div style=""display: flex; justify-content: center; align-items: center;"">
                    <img src=""images/semantic/semantic_series_1/semantic_series_1_b.jpg"" style=""width: 300px; height: 300px;"" />
                  </div>","null","",""
"","","","","","html-keyboard-response","113","300430","0.0-82.0-2.0","16426D67E81A4AC58B6E3D9D00A53641","16426D67E81A4AC58B6E3D9D00A53641","150a3973-67bc-4fef-a378-9460b85d7c89","54f8d589-66fc-4c65-830f-1dcc63bce8cc","{""participantId"":""16426D67E81A4AC58B6E3D9D00A53641"",""assignmentId"":""150a3973-67bc-4fef-a378-9460b85d7c89"",""projectId"":""54f8d589-66fc-4c65-830f-1dcc63bce8cc""}","https://test12345.live/?participantId=16426D67E81A4AC58B6E3D9D00A53641&assignmentId=150a3973-67bc-4fef-a378-9460b85d7c89&projectId=54f8d589-66fc-4c65-830f-1dcc63bce8cc","","null","<div style=""display: flex; justify-content: center; align-items: center;"">
                    <img src=""images/semantic/semantic_series_1/semantic_series_1_c.jpg"" style=""width: 300px; height: 300px;"" />
                  </div>","null","",""
"","","","","","html-keyboard-response","114","303461","0.0-82.0-3.0","16426D67E81A4AC58B6E3D9D00A53641","16426D67E81A4AC58B6E3D9D00A53641","150a3973-67bc-4fef-a378-9460b85d7c89","54f8d589-66fc-4c65-830f-1dcc63bce8cc","{""participantId"":""16426D67E81A4AC58B6E3D9D00A53641"",""assignmentId"":""150a3973-67bc-4fef-a378-9460b85d7c89"",""projectId"":""54f8d589-66fc-4c65-830f-1dcc63bce8cc""}","https://test12345.live/?participantId=16426D67E81A4AC58B6E3D9D00A53641&assignmentId=150a3973-67bc-4fef-a378-9460b85d7c89&projectId=54f8d589-66fc-4c65-830f-1dcc63bce8cc","","null","<div style=""display: flex; justify-content: center; align-items: center;"">
                    <img src=""images/semantic/semantic_series_1/semantic_series_1_d.jpg"" style=""width: 300px; height: 300px;"" />
                  </div>","null","",""
"","","","","","html-button-response","115","304821","0.0-83.0","16426D67E81A4AC58B6E3D9D00A53641","16426D67E81A4AC58B6E3D9D00A53641","150a3973-67bc-4fef-a378-9460b85d7c89","54f8d589-66fc-4c65-830f-1dcc63bce8cc","{""participantId"":""16426D67E81A4AC58B6E3D9D00A53641"",""assignmentId"":""150a3973-67bc-4fef-a378-9460b85d7c89"",""projectId"":""54f8d589-66fc-4c65-830f-1dcc63bce8cc""}","https://test12345.live/?participantId=16426D67E81A4AC58B6E3D9D00A53641&assignmentId=150a3973-67bc-4fef-a378-9460b85d7c89&projectId=54f8d589-66fc-4c65-830f-1dcc63bce8cc","","1358","Was there a person in the picture?","0","",""
"","","","","","survey-likert","116","306157","0.0-84.0","16426D67E81A4AC58B6E3D9D00A53641","16426D67E81A4AC58B6E3D9D00A53641","150a3973-67bc-4fef-a378-9460b85d7c89","54f8d589-66fc-4c65-830f-1dcc63bce8cc","{""participantId"":""16426D67E81A4AC58B6E3D9D00A53641"",""assignmentId"":""150a3973-67bc-4fef-a378-9460b85d7c89"",""projectId"":""54f8d589-66fc-4c65-830f-1dcc63bce8cc""}","https://test12345.live/?participantId=16426D67E81A4AC58B6E3D9D00A53641&assignmentId=150a3973-67bc-4fef-a378-9460b85d7c89&projectId=54f8d589-66fc-4c65-830f-1dcc63bce8cc","","1335","","{""Q0"":1}","","[0]"
"","","","","","html-button-response","117","307110","0.0-85.0","16426D67E81A4AC58B6E3D9D00A53641","16426D67E81A4AC58B6E3D9D00A53641","150a3973-67bc-4fef-a378-9460b85d7c89","54f8d589-66fc-4c65-830f-1dcc63bce8cc","{""participantId"":""16426D67E81A4AC58B6E3D9D00A53641"",""assignmentId"":""150a3973-67bc-4fef-a378-9460b85d7c89"",""projectId"":""54f8d589-66fc-4c65-830f-1dcc63bce8cc""}","https://test12345.live/?participantId=16426D67E81A4AC58B6E3D9D00A53641&assignmentId=150a3973-67bc-4fef-a378-9460b85d7c89&projectId=54f8d589-66fc-4c65-830f-1dcc63bce8cc","","951","
    <div style=""display: flex; justify-content: center; align-items: center;"">
      <img src=""images/red_deck_2.png"" style=""width: 300px; height: 300px; margin-right: 10px;"" />
      <img src=""images/blue_deck_1.png"" style=""width: 300px; height: 300px;"" />
    </div>","0","0",""
"","","","","","html-keyboard-response","118","310120","0.0-86.0-0.0","16426D67E81A4AC58B6E3D9D00A53641","16426D67E81A4AC58B6E3D9D00A53641","150a3973-67bc-4fef-a378-9460b85d7c89","54f8d589-66fc-4c65-830f-1dcc63bce8cc","{""participantId"":""16426D67E81A4AC58B6E3D9D00A53641"",""assignmentId"":""150a3973-67bc-4fef-a378-9460b85d7c89"",""projectId"":""54f8d589-66fc-4c65-830f-1dcc63bce8cc""}","https://test12345.live/?participantId=16426D67E81A4AC58B6E3D9D00A53641&assignmentId=150a3973-67bc-4fef-a378-9460b85d7c89&projectId=54f8d589-66fc-4c65-830f-1dcc63bce8cc","","null","<div style=""display: flex; justify-content: center; align-items: center;"">
                    <img src=""images/causal/causal_series_10/causal_series_10_a.jpg"" style=""width: 300px; height: 300px;"" />
                  </div>","null","",""
"","","","","","html-keyboard-response","119","313151","0.0-86.0-1.0","16426D67E81A4AC58B6E3D9D00A53641","16426D67E81A4AC58B6E3D9D00A53641","150a3973-67bc-4fef-a378-9460b85d7c89","54f8d589-66fc-4c65-830f-1dcc63bce8cc","{""participantId"":""16426D67E81A4AC58B6E3D9D00A53641"",""assignmentId"":""150a3973-67bc-4fef-a378-9460b85d7c89"",""projectId"":""54f8d589-66fc-4c65-830f-1dcc63bce8cc""}","https://test12345.live/?participantId=16426D67E81A4AC58B6E3D9D00A53641&assignmentId=150a3973-67bc-4fef-a378-9460b85d7c89&projectId=54f8d589-66fc-4c65-830f-1dcc63bce8cc","","null","<div style=""display: flex; justify-content: center; align-items: center;"">
                    <img src=""images/causal/causal_series_10/causal_series_10_b.jpg"" style=""width: 300px; height: 300px;"" />
                  </div>","null","",""
"","","","","","html-keyboard-response","120","316182","0.0-86.0-2.0","16426D67E81A4AC58B6E3D9D00A53641","16426D67E81A4AC58B6E3D9D00A53641","150a3973-67bc-4fef-a378-9460b85d7c89","54f8d589-66fc-4c65-830f-1dcc63bce8cc","{""participantId"":""16426D67E81A4AC58B6E3D9D00A53641"",""assignmentId"":""150a3973-67bc-4fef-a378-9460b85d7c89"",""projectId"":""54f8d589-66fc-4c65-830f-1dcc63bce8cc""}","https://test12345.live/?participantId=16426D67E81A4AC58B6E3D9D00A53641&assignmentId=150a3973-67bc-4fef-a378-9460b85d7c89&projectId=54f8d589-66fc-4c65-830f-1dcc63bce8cc","","null","<div style=""display: flex; justify-content: center; align-items: center;"">
                    <img src=""images/causal/causal_series_10/causal_series_10_c.jpg"" style=""width: 300px; height: 300px;"" />
                  </div>","null","",""
"","","","","","html-keyboard-response","121","319216","0.0-86.0-3.0","16426D67E81A4AC58B6E3D9D00A53641","16426D67E81A4AC58B6E3D9D00A53641","150a3973-67bc-4fef-a378-9460b85d7c89","54f8d589-66fc-4c65-830f-1dcc63bce8cc","{""participantId"":""16426D67E81A4AC58B6E3D9D00A53641"",""assignmentId"":""150a3973-67bc-4fef-a378-9460b85d7c89"",""projectId"":""54f8d589-66fc-4c65-830f-1dcc63bce8cc""}","https://test12345.live/?participantId=16426D67E81A4AC58B6E3D9D00A53641&assignmentId=150a3973-67bc-4fef-a378-9460b85d7c89&projectId=54f8d589-66fc-4c65-830f-1dcc63bce8cc","","null","<div style=""display: flex; justify-content: center; align-items: center;"">
                    <img src=""images/causal/causal_series_10/causal_series_10_d.jpg"" style=""width: 300px; height: 300px;"" />
                  </div>","null","",""
"","","","","","html-button-response","122","320589","0.0-88.0","16426D67E81A4AC58B6E3D9D00A53641","16426D67E81A4AC58B6E3D9D00A53641","150a3973-67bc-4fef-a378-9460b85d7c89","54f8d589-66fc-4c65-830f-1dcc63bce8cc","{""participantId"":""16426D67E81A4AC58B6E3D9D00A53641"",""assignmentId"":""150a3973-67bc-4fef-a378-9460b85d7c89"",""projectId"":""54f8d589-66fc-4c65-830f-1dcc63bce8cc""}","https://test12345.live/?participantId=16426D67E81A4AC58B6E3D9D00A53641&assignmentId=150a3973-67bc-4fef-a378-9460b85d7c89&projectId=54f8d589-66fc-4c65-830f-1dcc63bce8cc","","1372","Was there a person in the picture?","1","",""
"","","","","","survey-likert","123","321709","0.0-89.0","16426D67E81A4AC58B6E3D9D00A53641","16426D67E81A4AC58B6E3D9D00A53641","150a3973-67bc-4fef-a378-9460b85d7c89","54f8d589-66fc-4c65-830f-1dcc63bce8cc","{""participantId"":""16426D67E81A4AC58B6E3D9D00A53641"",""assignmentId"":""150a3973-67bc-4fef-a378-9460b85d7c89"",""projectId"":""54f8d589-66fc-4c65-830f-1dcc63bce8cc""}","https://test12345.live/?participantId=16426D67E81A4AC58B6E3D9D00A53641&assignmentId=150a3973-67bc-4fef-a378-9460b85d7c89&projectId=54f8d589-66fc-4c65-830f-1dcc63bce8cc","","1119","","{""Q0"":3}","","[0]"
"","","","","","html-button-response","124","322743","0.0-90.0","16426D67E81A4AC58B6E3D9D00A53641","16426D67E81A4AC58B6E3D9D00A53641","150a3973-67bc-4fef-a378-9460b85d7c89","54f8d589-66fc-4c65-830f-1dcc63bce8cc","{""participantId"":""16426D67E81A4AC58B6E3D9D00A53641"",""assignmentId"":""150a3973-67bc-4fef-a378-9460b85d7c89"",""projectId"":""54f8d589-66fc-4c65-830f-1dcc63bce8cc""}","https://test12345.live/?participantId=16426D67E81A4AC58B6E3D9D00A53641&assignmentId=150a3973-67bc-4fef-a378-9460b85d7c89&projectId=54f8d589-66fc-4c65-830f-1dcc63bce8cc","","1032","
    <div style=""display: flex; justify-content: center; align-items: center;"">
      <img src=""images/red_deck_2.png"" style=""width: 300px; height: 300px; margin-right: 10px;"" />
      <img src=""images/blue_deck_1.png"" style=""width: 300px; height: 300px;"" />
    </div>","1","1",""
"","","","","","html-keyboard-response","125","325760","0.0-92.0-0.0","16426D67E81A4AC58B6E3D9D00A53641","16426D67E81A4AC58B6E3D9D00A53641","150a3973-67bc-4fef-a378-9460b85d7c89","54f8d589-66fc-4c65-830f-1dcc63bce8cc","{""participantId"":""16426D67E81A4AC58B6E3D9D00A53641"",""assignmentId"":""150a3973-67bc-4fef-a378-9460b85d7c89"",""projectId"":""54f8d589-66fc-4c65-830f-1dcc63bce8cc""}","https://test12345.live/?participantId=16426D67E81A4AC58B6E3D9D00A53641&assignmentId=150a3973-67bc-4fef-a378-9460b85d7c89&projectId=54f8d589-66fc-4c65-830f-1dcc63bce8cc","","null","<div style=""display: flex; justify-content: center; align-items: center;"">
                    <img src=""images/semantic/semantic_series_7/semantic_series_7_a.jpg"" style=""width: 300px; height: 300px;"" />
                  </div>","null","",""
"","","","","","html-keyboard-response","126","328791","0.0-92.0-1.0","16426D67E81A4AC58B6E3D9D00A53641","16426D67E81A4AC58B6E3D9D00A53641","150a3973-67bc-4fef-a378-9460b85d7c89","54f8d589-66fc-4c65-830f-1dcc63bce8cc","{""participantId"":""16426D67E81A4AC58B6E3D9D00A53641"",""assignmentId"":""150a3973-67bc-4fef-a378-9460b85d7c89"",""projectId"":""54f8d589-66fc-4c65-830f-1dcc63bce8cc""}","https://test12345.live/?participantId=16426D67E81A4AC58B6E3D9D00A53641&assignmentId=150a3973-67bc-4fef-a378-9460b85d7c89&projectId=54f8d589-66fc-4c65-830f-1dcc63bce8cc","","null","<div style=""display: flex; justify-content: center; align-items: center;"">
                    <img src=""images/semantic/semantic_series_7/semantic_series_7_b.jpg"" style=""width: 300px; height: 300px;"" />
                  </div>","null","",""
"","","","","","html-keyboard-response","127","331818","0.0-92.0-2.0","16426D67E81A4AC58B6E3D9D00A53641","16426D67E81A4AC58B6E3D9D00A53641","150a3973-67bc-4fef-a378-9460b85d7c89","54f8d589-66fc-4c65-830f-1dcc63bce8cc","{""participantId"":""16426D67E81A4AC58B6E3D9D00A53641"",""assignmentId"":""150a3973-67bc-4fef-a378-9460b85d7c89"",""projectId"":""54f8d589-66fc-4c65-830f-1dcc63bce8cc""}","https://test12345.live/?participantId=16426D67E81A4AC58B6E3D9D00A53641&assignmentId=150a3973-67bc-4fef-a378-9460b85d7c89&projectId=54f8d589-66fc-4c65-830f-1dcc63bce8cc","","null","<div style=""display: flex; justify-content: center; align-items: center;"">
                    <img src=""images/semantic/semantic_series_7/semantic_series_7_c.jpg"" style=""width: 300px; height: 300px;"" />
                  </div>","null","",""
"","","","","","html-keyboard-response","128","334850","0.0-92.0-3.0","16426D67E81A4AC58B6E3D9D00A53641","16426D67E81A4AC58B6E3D9D00A53641","150a3973-67bc-4fef-a378-9460b85d7c89","54f8d589-66fc-4c65-830f-1dcc63bce8cc","{""participantId"":""16426D67E81A4AC58B6E3D9D00A53641"",""assignmentId"":""150a3973-67bc-4fef-a378-9460b85d7c89"",""projectId"":""54f8d589-66fc-4c65-830f-1dcc63bce8cc""}","https://test12345.live/?participantId=16426D67E81A4AC58B6E3D9D00A53641&assignmentId=150a3973-67bc-4fef-a378-9460b85d7c89&projectId=54f8d589-66fc-4c65-830f-1dcc63bce8cc","","null","<div style=""display: flex; justify-content: center; align-items: center;"">
                    <img src=""images/semantic/semantic_series_7/semantic_series_7_d.jpg"" style=""width: 300px; height: 300px;"" />
                  </div>","null","",""
"","","","","","html-button-response","129","336012","0.0-93.0","16426D67E81A4AC58B6E3D9D00A53641","16426D67E81A4AC58B6E3D9D00A53641","150a3973-67bc-4fef-a378-9460b85d7c89","54f8d589-66fc-4c65-830f-1dcc63bce8cc","{""participantId"":""16426D67E81A4AC58B6E3D9D00A53641"",""assignmentId"":""150a3973-67bc-4fef-a378-9460b85d7c89"",""projectId"":""54f8d589-66fc-4c65-830f-1dcc63bce8cc""}","https://test12345.live/?participantId=16426D67E81A4AC58B6E3D9D00A53641&assignmentId=150a3973-67bc-4fef-a378-9460b85d7c89&projectId=54f8d589-66fc-4c65-830f-1dcc63bce8cc","","1162","Was there a person in the picture?","1","",""
"","","","","","survey-likert","130","337646","0.0-94.0","16426D67E81A4AC58B6E3D9D00A53641","16426D67E81A4AC58B6E3D9D00A53641","150a3973-67bc-4fef-a378-9460b85d7c89","54f8d589-66fc-4c65-830f-1dcc63bce8cc","{""participantId"":""16426D67E81A4AC58B6E3D9D00A53641"",""assignmentId"":""150a3973-67bc-4fef-a378-9460b85d7c89"",""projectId"":""54f8d589-66fc-4c65-830f-1dcc63bce8cc""}","https://test12345.live/?participantId=16426D67E81A4AC58B6E3D9D00A53641&assignmentId=150a3973-67bc-4fef-a378-9460b85d7c89&projectId=54f8d589-66fc-4c65-830f-1dcc63bce8cc","","1633","","{""Q0"":2}","","[0]"
"","","","","","survey-text","131","359725","0.0-95.0","16426D67E81A4AC58B6E3D9D00A53641","16426D67E81A4AC58B6E3D9D00A53641","150a3973-67bc-4fef-a378-9460b85d7c89","54f8d589-66fc-4c65-830f-1dcc63bce8cc","{""participantId"":""16426D67E81A4AC58B6E3D9D00A53641"",""assignmentId"":""150a3973-67bc-4fef-a378-9460b85d7c89"",""projectId"":""54f8d589-66fc-4c65-830f-1dcc63bce8cc""}","https://test12345.live/?participantId=16426D67E81A4AC58B6E3D9D00A53641&assignmentId=150a3973-67bc-4fef-a378-9460b85d7c89&projectId=54f8d589-66fc-4c65-830f-1dcc63bce8cc","","22075","","{""Q0"":""They each show different cartoons/photos ""}","",""
