"success","timeout","failed_images","failed_audio","failed_video","trial_type","trial_index","time_elapsed","internal_node_id","subject_id","study_id","session_id","view_history","rt","stimulus","response","choice"
"true","false","[]","[]","[]","preload","0","25758","0.0-0.0","6A3B35B2FFD647FC93BC71B0C64D79D7","f059da46-ae0a-4cab-9396-4cbea53d55d1","58046770-4c03-4bc2-b4bc-e7359011db5d","","","","",""
"","","","","","instructions","1","29309","0.0-1.0","6A3B35B2FFD647FC93BC71B0C64D79D7","f059da46-ae0a-4cab-9396-4cbea53d55d1","58046770-4c03-4bc2-b4bc-e7359011db5d","[{""page_index"":0,""viewing_time"":3550}]","3550","","",""
"","","","","","instructions","2","33208","0.0-2.0","6A3B35B2FFD647FC93BC71B0C64D79D7","f059da46-ae0a-4cab-9396-4cbea53d55d1","58046770-4c03-4bc2-b4bc-e7359011db5d","[{""page_index"":0,""viewing_time"":3898}]","3899","","",""
"true","","","","","fullscreen","3","35777","0.0-3.0","6A3B35B2FFD647FC93BC71B0C64D79D7","f059da46-ae0a-4cab-9396-4cbea53d55d1","58046770-4c03-4bc2-b4bc-e7359011db5d","","1551","","",""
"","","","","","instructions","4","41767","0.0-4.0","6A3B35B2FFD647FC93BC71B0C64D79D7","f059da46-ae0a-4cab-9396-4cbea53d55d1","58046770-4c03-4bc2-b4bc-e7359011db5d","[{""page_index"":0,""viewing_time"":5990}]","5990","","",""
"","","","","","html-keyboard-response","5","44780","0.0-5.0","6A3B35B2FFD647FC93BC71B0C64D79D7","f059da46-ae0a-4cab-9396-4cbea53d55d1","58046770-4c03-4bc2-b4bc-e7359011db5d","","null","<div style=""display: flex; justify-content: center; align-items: center;"">
                <img src=""images/causal/causal_series_7/causal_series_7_a.jpg"" style=""width: 300px; height: 300px;"" />
              </div>","null",""
"","","","","","html-keyboard-response","6","47788","0.0-6.0","6A3B35B2FFD647FC93BC71B0C64D79D7","f059da46-ae0a-4cab-9396-4cbea53d55d1","58046770-4c03-4bc2-b4bc-e7359011db5d","","null","<div style=""display: flex; justify-content: center; align-items: center;"">
                <img src=""images/causal/causal_series_7/causal_series_7_b.jpg"" style=""width: 300px; height: 300px;"" />
              </div>","null",""
"","","","","","html-keyboard-response","7","50798","0.0-7.0","6A3B35B2FFD647FC93BC71B0C64D79D7","f059da46-ae0a-4cab-9396-4cbea53d55d1","58046770-4c03-4bc2-b4bc-e7359011db5d","","null","<div style=""display: flex; justify-content: center; align-items: center;"">
                <img src=""images/causal/causal_series_7/causal_series_7_c.jpg"" style=""width: 300px; height: 300px;"" />
              </div>","null",""
"","","","","","html-button-response","8","53181","0.0-8.0","6A3B35B2FFD647FC93BC71B0C64D79D7","f059da46-ae0a-4cab-9396-4cbea53d55d1","58046770-4c03-4bc2-b4bc-e7359011db5d","","2379","
    <div style=""display: flex; justify-content: center; align-items: center;"">
      <img src=""images/red_deck_2.png"" style=""width: 300px; height: 300px; margin-right: 10px;"" />
      <img src=""images/blue_deck_1.png"" style=""width: 300px; height: 300px;"" />
    </div>","1","1"
"","","","","","html-keyboard-response","9","56184","0.0-9.0-1.0-0.0","6A3B35B2FFD647FC93BC71B0C64D79D7","f059da46-ae0a-4cab-9396-4cbea53d55d1","58046770-4c03-4bc2-b4bc-e7359011db5d","","null","<div style=""display: flex; justify-content: center; align-items: center;"">
                <img src=""images/semantic/semantic_series_6/semantic_series_6_d.jpg"" style=""width: 300px; height: 300px;"" />
              </div>","null",""
"","","","","","html-keyboard-response","10","59198","0.0-10.0","6A3B35B2FFD647FC93BC71B0C64D79D7","f059da46-ae0a-4cab-9396-4cbea53d55d1","58046770-4c03-4bc2-b4bc-e7359011db5d","","null","<div style=""display: flex; justify-content: center; align-items: center;"">
                <img src=""images/other/blank.jpg"" style=""width: 300px; height: 300px;"" />
              </div>","null",""
"","","","","","html-keyboard-response","11","62201","0.0-11.0","6A3B35B2FFD647FC93BC71B0C64D79D7","f059da46-ae0a-4cab-9396-4cbea53d55d1","58046770-4c03-4bc2-b4bc-e7359011db5d","","null","<div style=""display: flex; justify-content: center; align-items: center;"">
                <img src=""images/causal/causal_series_15/causal_series_15_a.jpg"" style=""width: 300px; height: 300px;"" />
              </div>","null",""
"","","","","","html-keyboard-response","12","65214","0.0-12.0","6A3B35B2FFD647FC93BC71B0C64D79D7","f059da46-ae0a-4cab-9396-4cbea53d55d1","58046770-4c03-4bc2-b4bc-e7359011db5d","","null","<div style=""display: flex; justify-content: center; align-items: center;"">
                <img src=""images/causal/causal_series_15/causal_series_15_b.jpg"" style=""width: 300px; height: 300px;"" />
              </div>","null",""
"","","","","","html-keyboard-response","13","68224","0.0-13.0","6A3B35B2FFD647FC93BC71B0C64D79D7","f059da46-ae0a-4cab-9396-4cbea53d55d1","58046770-4c03-4bc2-b4bc-e7359011db5d","","null","<div style=""display: flex; justify-content: center; align-items: center;"">
                <img src=""images/causal/causal_series_15/causal_series_15_c.jpg"" style=""width: 300px; height: 300px;"" />
              </div>","null",""
"","","","","","html-button-response","14","68952","0.0-14.0","6A3B35B2FFD647FC93BC71B0C64D79D7","f059da46-ae0a-4cab-9396-4cbea53d55d1","58046770-4c03-4bc2-b4bc-e7359011db5d","","726","
    <div style=""display: flex; justify-content: center; align-items: center;"">
      <img src=""images/red_deck_2.png"" style=""width: 300px; height: 300px; margin-right: 10px;"" />
      <img src=""images/blue_deck_1.png"" style=""width: 300px; height: 300px;"" />
    </div>","0","0"
"","","","","","html-keyboard-response","15","71958","0.0-15.0-0.0-0.0","6A3B35B2FFD647FC93BC71B0C64D79D7","f059da46-ae0a-4cab-9396-4cbea53d55d1","58046770-4c03-4bc2-b4bc-e7359011db5d","","null","<div style=""display: flex; justify-content: center; align-items: center;"">
                <img src=""images/causal/causal_series_15/causal_series_15_d.jpg"" style=""width: 300px; height: 300px;"" />
              </div>","null",""
"","","","","","html-keyboard-response","16","74972","0.0-16.0","6A3B35B2FFD647FC93BC71B0C64D79D7","f059da46-ae0a-4cab-9396-4cbea53d55d1","58046770-4c03-4bc2-b4bc-e7359011db5d","","null","<div style=""display: flex; justify-content: center; align-items: center;"">
                <img src=""images/other/blank.jpg"" style=""width: 300px; height: 300px;"" />
              </div>","null",""
"","","","","","html-keyboard-response","17","77988","0.0-17.0","6A3B35B2FFD647FC93BC71B0C64D79D7","f059da46-ae0a-4cab-9396-4cbea53d55d1","58046770-4c03-4bc2-b4bc-e7359011db5d","","null","<div style=""display: flex; justify-content: center; align-items: center;"">
                <img src=""images/causal/causal_series_4/causal_series_4_a.jpg"" style=""width: 300px; height: 300px;"" />
              </div>","null",""
"","","","","","html-keyboard-response","18","80996","0.0-18.0","6A3B35B2FFD647FC93BC71B0C64D79D7","f059da46-ae0a-4cab-9396-4cbea53d55d1","58046770-4c03-4bc2-b4bc-e7359011db5d","","null","<div style=""display: flex; justify-content: center; align-items: center;"">
                <img src=""images/causal/causal_series_4/causal_series_4_b.jpg"" style=""width: 300px; height: 300px;"" />
              </div>","null",""
"","","","","","html-keyboard-response","19","84000","0.0-19.0","6A3B35B2FFD647FC93BC71B0C64D79D7","f059da46-ae0a-4cab-9396-4cbea53d55d1","58046770-4c03-4bc2-b4bc-e7359011db5d","","null","<div style=""display: flex; justify-content: center; align-items: center;"">
                <img src=""images/causal/causal_series_4/causal_series_4_c.jpg"" style=""width: 300px; height: 300px;"" />
              </div>","null",""
"","","","","","html-button-response","20","84780","0.0-20.0","6A3B35B2FFD647FC93BC71B0C64D79D7","f059da46-ae0a-4cab-9396-4cbea53d55d1","58046770-4c03-4bc2-b4bc-e7359011db5d","","778","
    <div style=""display: flex; justify-content: center; align-items: center;"">
      <img src=""images/red_deck_2.png"" style=""width: 300px; height: 300px; margin-right: 10px;"" />
      <img src=""images/blue_deck_1.png"" style=""width: 300px; height: 300px;"" />
    </div>","1","1"
"","","","","","html-keyboard-response","21","87782","0.0-21.0-1.0-0.0","6A3B35B2FFD647FC93BC71B0C64D79D7","f059da46-ae0a-4cab-9396-4cbea53d55d1","58046770-4c03-4bc2-b4bc-e7359011db5d","","null","<div style=""display: flex; justify-content: center; align-items: center;"">
                <img src=""images/semantic/semantic_series_3/semantic_series_3_d.jpg"" style=""width: 300px; height: 300px;"" />
              </div>","null",""
"","","","","","html-keyboard-response","22","90794","0.0-22.0","6A3B35B2FFD647FC93BC71B0C64D79D7","f059da46-ae0a-4cab-9396-4cbea53d55d1","58046770-4c03-4bc2-b4bc-e7359011db5d","","null","<div style=""display: flex; justify-content: center; align-items: center;"">
                <img src=""images/other/blank.jpg"" style=""width: 300px; height: 300px;"" />
              </div>","null",""
"","","","","","html-keyboard-response","23","93810","0.0-23.0","6A3B35B2FFD647FC93BC71B0C64D79D7","f059da46-ae0a-4cab-9396-4cbea53d55d1","58046770-4c03-4bc2-b4bc-e7359011db5d","","null","<div style=""display: flex; justify-content: center; align-items: center;"">
                <img src=""images/causal/causal_series_17/causal_series_17_a.jpg"" style=""width: 300px; height: 300px;"" />
              </div>","null",""
"","","","","","html-keyboard-response","24","96814","0.0-24.0","6A3B35B2FFD647FC93BC71B0C64D79D7","f059da46-ae0a-4cab-9396-4cbea53d55d1","58046770-4c03-4bc2-b4bc-e7359011db5d","","null","<div style=""display: flex; justify-content: center; align-items: center;"">
                <img src=""images/causal/causal_series_17/causal_series_17_b.jpg"" style=""width: 300px; height: 300px;"" />
              </div>","null",""
"","","","","","html-keyboard-response","25","99825","0.0-25.0","6A3B35B2FFD647FC93BC71B0C64D79D7","f059da46-ae0a-4cab-9396-4cbea53d55d1","58046770-4c03-4bc2-b4bc-e7359011db5d","","null","<div style=""display: flex; justify-content: center; align-items: center;"">
                <img src=""images/causal/causal_series_17/causal_series_17_c.jpg"" style=""width: 300px; height: 300px;"" />
              </div>","null",""
"","","","","","html-button-response","26","100577","0.0-26.0","6A3B35B2FFD647FC93BC71B0C64D79D7","f059da46-ae0a-4cab-9396-4cbea53d55d1","58046770-4c03-4bc2-b4bc-e7359011db5d","","751","
    <div style=""display: flex; justify-content: center; align-items: center;"">
      <img src=""images/red_deck_2.png"" style=""width: 300px; height: 300px; margin-right: 10px;"" />
      <img src=""images/blue_deck_1.png"" style=""width: 300px; height: 300px;"" />
    </div>","0","0"
"","","","","","html-keyboard-response","27","103584","0.0-27.0-0.0-0.0","6A3B35B2FFD647FC93BC71B0C64D79D7","f059da46-ae0a-4cab-9396-4cbea53d55d1","58046770-4c03-4bc2-b4bc-e7359011db5d","","null","<div style=""display: flex; justify-content: center; align-items: center;"">
                <img src=""images/causal/causal_series_17/causal_series_17_d.jpg"" style=""width: 300px; height: 300px;"" />
              </div>","null",""
"","","","","","html-keyboard-response","28","106591","0.0-28.0","6A3B35B2FFD647FC93BC71B0C64D79D7","f059da46-ae0a-4cab-9396-4cbea53d55d1","58046770-4c03-4bc2-b4bc-e7359011db5d","","null","<div style=""display: flex; justify-content: center; align-items: center;"">
                <img src=""images/other/blank.jpg"" style=""width: 300px; height: 300px;"" />
              </div>","null",""
"","","","","","html-keyboard-response","29","109593","0.0-29.0","6A3B35B2FFD647FC93BC71B0C64D79D7","f059da46-ae0a-4cab-9396-4cbea53d55d1","58046770-4c03-4bc2-b4bc-e7359011db5d","","null","<div style=""display: flex; justify-content: center; align-items: center;"">
                <img src=""images/causal/causal_series_6/causal_series_6_a.jpg"" style=""width: 300px; height: 300px;"" />
              </div>","null",""
"","","","","","html-keyboard-response","30","112605","0.0-30.0","6A3B35B2FFD647FC93BC71B0C64D79D7","f059da46-ae0a-4cab-9396-4cbea53d55d1","58046770-4c03-4bc2-b4bc-e7359011db5d","","null","<div style=""display: flex; justify-content: center; align-items: center;"">
                <img src=""images/causal/causal_series_6/causal_series_6_b.jpg"" style=""width: 300px; height: 300px;"" />
              </div>","null",""
"","","","","","html-keyboard-response","31","115608","0.0-31.0","6A3B35B2FFD647FC93BC71B0C64D79D7","f059da46-ae0a-4cab-9396-4cbea53d55d1","58046770-4c03-4bc2-b4bc-e7359011db5d","","null","<div style=""display: flex; justify-content: center; align-items: center;"">
                <img src=""images/causal/causal_series_6/causal_series_6_c.jpg"" style=""width: 300px; height: 300px;"" />
              </div>","null",""
"","","","","","html-button-response","32","116435","0.0-32.0","6A3B35B2FFD647FC93BC71B0C64D79D7","f059da46-ae0a-4cab-9396-4cbea53d55d1","58046770-4c03-4bc2-b4bc-e7359011db5d","","825","
    <div style=""display: flex; justify-content: center; align-items: center;"">
      <img src=""images/red_deck_2.png"" style=""width: 300px; height: 300px; margin-right: 10px;"" />
      <img src=""images/blue_deck_1.png"" style=""width: 300px; height: 300px;"" />
    </div>","1","1"
"","","","","","html-keyboard-response","33","119437","0.0-33.0-1.0-0.0","6A3B35B2FFD647FC93BC71B0C64D79D7","f059da46-ae0a-4cab-9396-4cbea53d55d1","58046770-4c03-4bc2-b4bc-e7359011db5d","","null","<div style=""display: flex; justify-content: center; align-items: center;"">
                <img src=""images/semantic/semantic_series_5/semantic_series_5_d.jpg"" style=""width: 300px; height: 300px;"" />
              </div>","null",""
"","","","","","html-keyboard-response","34","122439","0.0-34.0","6A3B35B2FFD647FC93BC71B0C64D79D7","f059da46-ae0a-4cab-9396-4cbea53d55d1","58046770-4c03-4bc2-b4bc-e7359011db5d","","null","<div style=""display: flex; justify-content: center; align-items: center;"">
                <img src=""images/other/blank.jpg"" style=""width: 300px; height: 300px;"" />
              </div>","null",""
"","","","","","html-keyboard-response","35","125441","0.0-35.0","6A3B35B2FFD647FC93BC71B0C64D79D7","f059da46-ae0a-4cab-9396-4cbea53d55d1","58046770-4c03-4bc2-b4bc-e7359011db5d","","null","<div style=""display: flex; justify-content: center; align-items: center;"">
                <img src=""images/causal/causal_series_14/causal_series_14_a.jpg"" style=""width: 300px; height: 300px;"" />
              </div>","null",""
"","","","","","html-keyboard-response","36","128454","0.0-36.0","6A3B35B2FFD647FC93BC71B0C64D79D7","f059da46-ae0a-4cab-9396-4cbea53d55d1","58046770-4c03-4bc2-b4bc-e7359011db5d","","null","<div style=""display: flex; justify-content: center; align-items: center;"">
                <img src=""images/causal/causal_series_14/causal_series_14_b.jpg"" style=""width: 300px; height: 300px;"" />
              </div>","null",""
"","","","","","html-keyboard-response","37","131470","0.0-37.0","6A3B35B2FFD647FC93BC71B0C64D79D7","f059da46-ae0a-4cab-9396-4cbea53d55d1","58046770-4c03-4bc2-b4bc-e7359011db5d","","null","<div style=""display: flex; justify-content: center; align-items: center;"">
                <img src=""images/causal/causal_series_14/causal_series_14_c.jpg"" style=""width: 300px; height: 300px;"" />
              </div>","null",""
"","","","","","html-button-response","38","132175","0.0-38.0","6A3B35B2FFD647FC93BC71B0C64D79D7","f059da46-ae0a-4cab-9396-4cbea53d55d1","58046770-4c03-4bc2-b4bc-e7359011db5d","","703","
    <div style=""display: flex; justify-content: center; align-items: center;"">
      <img src=""images/red_deck_2.png"" style=""width: 300px; height: 300px; margin-right: 10px;"" />
      <img src=""images/blue_deck_1.png"" style=""width: 300px; height: 300px;"" />
    </div>","0","0"
"","","","","","html-keyboard-response","39","135183","0.0-39.0-0.0-0.0","6A3B35B2FFD647FC93BC71B0C64D79D7","f059da46-ae0a-4cab-9396-4cbea53d55d1","58046770-4c03-4bc2-b4bc-e7359011db5d","","null","<div style=""display: flex; justify-content: center; align-items: center;"">
                <img src=""images/causal/causal_series_14/causal_series_14_d.jpg"" style=""width: 300px; height: 300px;"" />
              </div>","null",""
"","","","","","html-keyboard-response","40","138194","0.0-40.0","6A3B35B2FFD647FC93BC71B0C64D79D7","f059da46-ae0a-4cab-9396-4cbea53d55d1","58046770-4c03-4bc2-b4bc-e7359011db5d","","null","<div style=""display: flex; justify-content: center; align-items: center;"">
                <img src=""images/other/blank.jpg"" style=""width: 300px; height: 300px;"" />
              </div>","null",""
"","","","","","html-keyboard-response","41","141212","0.0-41.0","6A3B35B2FFD647FC93BC71B0C64D79D7","f059da46-ae0a-4cab-9396-4cbea53d55d1","58046770-4c03-4bc2-b4bc-e7359011db5d","","null","<div style=""display: flex; justify-content: center; align-items: center;"">
                <img src=""images/causal/causal_series_1/causal_series_1_a.jpg"" style=""width: 300px; height: 300px;"" />
              </div>","null",""
"","","","","","html-keyboard-response","42","144222","0.0-42.0","6A3B35B2FFD647FC93BC71B0C64D79D7","f059da46-ae0a-4cab-9396-4cbea53d55d1","58046770-4c03-4bc2-b4bc-e7359011db5d","","null","<div style=""display: flex; justify-content: center; align-items: center;"">
                <img src=""images/causal/causal_series_1/causal_series_1_b.jpg"" style=""width: 300px; height: 300px;"" />
              </div>","null",""
"","","","","","html-keyboard-response","43","147224","0.0-43.0","6A3B35B2FFD647FC93BC71B0C64D79D7","f059da46-ae0a-4cab-9396-4cbea53d55d1","58046770-4c03-4bc2-b4bc-e7359011db5d","","null","<div style=""display: flex; justify-content: center; align-items: center;"">
                <img src=""images/causal/causal_series_1/causal_series_1_c.jpg"" style=""width: 300px; height: 300px;"" />
              </div>","null",""
"","","","","","html-button-response","44","147920","0.0-44.0","6A3B35B2FFD647FC93BC71B0C64D79D7","f059da46-ae0a-4cab-9396-4cbea53d55d1","58046770-4c03-4bc2-b4bc-e7359011db5d","","694","
    <div style=""display: flex; justify-content: center; align-items: center;"">
      <img src=""images/red_deck_2.png"" style=""width: 300px; height: 300px; margin-right: 10px;"" />
      <img src=""images/blue_deck_1.png"" style=""width: 300px; height: 300px;"" />
    </div>","0","0"
"","","","","","html-keyboard-response","45","150922","0.0-45.0-0.0-0.0","6A3B35B2FFD647FC93BC71B0C64D79D7","f059da46-ae0a-4cab-9396-4cbea53d55d1","58046770-4c03-4bc2-b4bc-e7359011db5d","","null","<div style=""display: flex; justify-content: center; align-items: center;"">
                <img src=""images/causal/causal_series_1/causal_series_1_d.jpg"" style=""width: 300px; height: 300px;"" />
              </div>","null",""
"","","","","","html-keyboard-response","46","153931","0.0-46.0","6A3B35B2FFD647FC93BC71B0C64D79D7","f059da46-ae0a-4cab-9396-4cbea53d55d1","58046770-4c03-4bc2-b4bc-e7359011db5d","","null","<div style=""display: flex; justify-content: center; align-items: center;"">
                <img src=""images/other/blank.jpg"" style=""width: 300px; height: 300px;"" />
              </div>","null",""
"","","","","","html-keyboard-response","47","156948","0.0-47.0","6A3B35B2FFD647FC93BC71B0C64D79D7","f059da46-ae0a-4cab-9396-4cbea53d55d1","58046770-4c03-4bc2-b4bc-e7359011db5d","","null","<div style=""display: flex; justify-content: center; align-items: center;"">
                <img src=""images/causal/causal_series_9/causal_series_9_a.jpg"" style=""width: 300px; height: 300px;"" />
              </div>","null",""
"","","","","","html-keyboard-response","48","159956","0.0-48.0","6A3B35B2FFD647FC93BC71B0C64D79D7","f059da46-ae0a-4cab-9396-4cbea53d55d1","58046770-4c03-4bc2-b4bc-e7359011db5d","","null","<div style=""display: flex; justify-content: center; align-items: center;"">
                <img src=""images/causal/causal_series_9/causal_series_9_b.jpg"" style=""width: 300px; height: 300px;"" />
              </div>","null",""
"","","","","","html-keyboard-response","49","162964","0.0-49.0","6A3B35B2FFD647FC93BC71B0C64D79D7","f059da46-ae0a-4cab-9396-4cbea53d55d1","58046770-4c03-4bc2-b4bc-e7359011db5d","","null","<div style=""display: flex; justify-content: center; align-items: center;"">
                <img src=""images/causal/causal_series_9/causal_series_9_c.jpg"" style=""width: 300px; height: 300px;"" />
              </div>","null",""
"","","","","","html-button-response","50","165196","0.0-50.0","6A3B35B2FFD647FC93BC71B0C64D79D7","f059da46-ae0a-4cab-9396-4cbea53d55d1","58046770-4c03-4bc2-b4bc-e7359011db5d","","2230","
    <div style=""display: flex; justify-content: center; align-items: center;"">
      <img src=""images/red_deck_2.png"" style=""width: 300px; height: 300px; margin-right: 10px;"" />
      <img src=""images/blue_deck_1.png"" style=""width: 300px; height: 300px;"" />
    </div>","1","1"
"","","","","","html-keyboard-response","51","168203","0.0-51.0-1.0-0.0","6A3B35B2FFD647FC93BC71B0C64D79D7","f059da46-ae0a-4cab-9396-4cbea53d55d1","58046770-4c03-4bc2-b4bc-e7359011db5d","","null","<div style=""display: flex; justify-content: center; align-items: center;"">
                <img src=""images/semantic/semantic_series_8/semantic_series_8_d.jpg"" style=""width: 300px; height: 300px;"" />
              </div>","null",""
"","","","","","html-keyboard-response","52","171216","0.0-52.0","6A3B35B2FFD647FC93BC71B0C64D79D7","f059da46-ae0a-4cab-9396-4cbea53d55d1","58046770-4c03-4bc2-b4bc-e7359011db5d","","null","<div style=""display: flex; justify-content: center; align-items: center;"">
                <img src=""images/other/blank.jpg"" style=""width: 300px; height: 300px;"" />
              </div>","null",""
"","","","","","html-keyboard-response","53","174219","0.0-53.0","6A3B35B2FFD647FC93BC71B0C64D79D7","f059da46-ae0a-4cab-9396-4cbea53d55d1","58046770-4c03-4bc2-b4bc-e7359011db5d","","null","<div style=""display: flex; justify-content: center; align-items: center;"">
                <img src=""images/causal/causal_series_10/causal_series_10_a.jpg"" style=""width: 300px; height: 300px;"" />
              </div>","null",""
"","","","","","html-keyboard-response","54","177221","0.0-54.0","6A3B35B2FFD647FC93BC71B0C64D79D7","f059da46-ae0a-4cab-9396-4cbea53d55d1","58046770-4c03-4bc2-b4bc-e7359011db5d","","null","<div style=""display: flex; justify-content: center; align-items: center;"">
                <img src=""images/causal/causal_series_10/causal_series_10_b.jpg"" style=""width: 300px; height: 300px;"" />
              </div>","null",""
"","","","","","html-keyboard-response","55","180228","0.0-55.0","6A3B35B2FFD647FC93BC71B0C64D79D7","f059da46-ae0a-4cab-9396-4cbea53d55d1","58046770-4c03-4bc2-b4bc-e7359011db5d","","null","<div style=""display: flex; justify-content: center; align-items: center;"">
                <img src=""images/causal/causal_series_10/causal_series_10_c.jpg"" style=""width: 300px; height: 300px;"" />
              </div>","null",""
"","","","","","html-button-response","56","181523","0.0-56.0","6A3B35B2FFD647FC93BC71B0C64D79D7","f059da46-ae0a-4cab-9396-4cbea53d55d1","58046770-4c03-4bc2-b4bc-e7359011db5d","","1293","
    <div style=""display: flex; justify-content: center; align-items: center;"">
      <img src=""images/red_deck_2.png"" style=""width: 300px; height: 300px; margin-right: 10px;"" />
      <img src=""images/blue_deck_1.png"" style=""width: 300px; height: 300px;"" />
    </div>","1","1"
"","","","","","html-keyboard-response","57","184535","0.0-57.0-1.0-0.0","6A3B35B2FFD647FC93BC71B0C64D79D7","f059da46-ae0a-4cab-9396-4cbea53d55d1","58046770-4c03-4bc2-b4bc-e7359011db5d","","null","<div style=""display: flex; justify-content: center; align-items: center;"">
                <img src=""images/semantic/semantic_series_9/semantic_series_9_d.jpg"" style=""width: 300px; height: 300px;"" />
              </div>","null",""
"","","","","","html-keyboard-response","58","187545","0.0-58.0","6A3B35B2FFD647FC93BC71B0C64D79D7","f059da46-ae0a-4cab-9396-4cbea53d55d1","58046770-4c03-4bc2-b4bc-e7359011db5d","","null","<div style=""display: flex; justify-content: center; align-items: center;"">
                <img src=""images/other/blank.jpg"" style=""width: 300px; height: 300px;"" />
              </div>","null",""
"","","","","","html-keyboard-response","59","190553","0.0-59.0","6A3B35B2FFD647FC93BC71B0C64D79D7","f059da46-ae0a-4cab-9396-4cbea53d55d1","58046770-4c03-4bc2-b4bc-e7359011db5d","","null","<div style=""display: flex; justify-content: center; align-items: center;"">
                <img src=""images/causal/causal_series_18/causal_series_18_a.jpg"" style=""width: 300px; height: 300px;"" />
              </div>","null",""
"","","","","","html-keyboard-response","60","193563","0.0-60.0","6A3B35B2FFD647FC93BC71B0C64D79D7","f059da46-ae0a-4cab-9396-4cbea53d55d1","58046770-4c03-4bc2-b4bc-e7359011db5d","","null","<div style=""display: flex; justify-content: center; align-items: center;"">
                <img src=""images/causal/causal_series_18/causal_series_18_b.jpg"" style=""width: 300px; height: 300px;"" />
              </div>","null",""
"","","","","","html-keyboard-response","61","196564","0.0-61.0","6A3B35B2FFD647FC93BC71B0C64D79D7","f059da46-ae0a-4cab-9396-4cbea53d55d1","58046770-4c03-4bc2-b4bc-e7359011db5d","","null","<div style=""display: flex; justify-content: center; align-items: center;"">
                <img src=""images/causal/causal_series_18/causal_series_18_c.jpg"" style=""width: 300px; height: 300px;"" />
              </div>","null",""
"","","","","","html-button-response","62","197396","0.0-62.0","6A3B35B2FFD647FC93BC71B0C64D79D7","f059da46-ae0a-4cab-9396-4cbea53d55d1","58046770-4c03-4bc2-b4bc-e7359011db5d","","831","
    <div style=""display: flex; justify-content: center; align-items: center;"">
      <img src=""images/red_deck_2.png"" style=""width: 300px; height: 300px; margin-right: 10px;"" />
      <img src=""images/blue_deck_1.png"" style=""width: 300px; height: 300px;"" />
    </div>","1","1"
"","","","","","html-keyboard-response","63","200406","0.0-63.0-1.0-0.0","6A3B35B2FFD647FC93BC71B0C64D79D7","f059da46-ae0a-4cab-9396-4cbea53d55d1","58046770-4c03-4bc2-b4bc-e7359011db5d","","null","<div style=""display: flex; justify-content: center; align-items: center;"">
                <img src=""images/semantic/semantic_series_17/semantic_series_17_d.jpg"" style=""width: 300px; height: 300px;"" />
              </div>","null",""
"","","","","","html-keyboard-response","64","203408","0.0-64.0","6A3B35B2FFD647FC93BC71B0C64D79D7","f059da46-ae0a-4cab-9396-4cbea53d55d1","58046770-4c03-4bc2-b4bc-e7359011db5d","","null","<div style=""display: flex; justify-content: center; align-items: center;"">
                <img src=""images/other/blank.jpg"" style=""width: 300px; height: 300px;"" />
              </div>","null",""
"","","","","","html-keyboard-response","65","206419","0.0-65.0","6A3B35B2FFD647FC93BC71B0C64D79D7","f059da46-ae0a-4cab-9396-4cbea53d55d1","58046770-4c03-4bc2-b4bc-e7359011db5d","","null","<div style=""display: flex; justify-content: center; align-items: center;"">
                <img src=""images/causal/causal_series_3/causal_series_3_a.jpg"" style=""width: 300px; height: 300px;"" />
              </div>","null",""
"","","","","","html-keyboard-response","66","209425","0.0-66.0","6A3B35B2FFD647FC93BC71B0C64D79D7","f059da46-ae0a-4cab-9396-4cbea53d55d1","58046770-4c03-4bc2-b4bc-e7359011db5d","","null","<div style=""display: flex; justify-content: center; align-items: center;"">
                <img src=""images/causal/causal_series_3/causal_series_3_b.jpg"" style=""width: 300px; height: 300px;"" />
              </div>","null",""
"","","","","","html-keyboard-response","67","212442","0.0-67.0","6A3B35B2FFD647FC93BC71B0C64D79D7","f059da46-ae0a-4cab-9396-4cbea53d55d1","58046770-4c03-4bc2-b4bc-e7359011db5d","","null","<div style=""display: flex; justify-content: center; align-items: center;"">
                <img src=""images/causal/causal_series_3/causal_series_3_c.jpg"" style=""width: 300px; height: 300px;"" />
              </div>","null",""
"","","","","","html-button-response","68","213848","0.0-68.0","6A3B35B2FFD647FC93BC71B0C64D79D7","f059da46-ae0a-4cab-9396-4cbea53d55d1","58046770-4c03-4bc2-b4bc-e7359011db5d","","1404","
    <div style=""display: flex; justify-content: center; align-items: center;"">
      <img src=""images/red_deck_2.png"" style=""width: 300px; height: 300px; margin-right: 10px;"" />
      <img src=""images/blue_deck_1.png"" style=""width: 300px; height: 300px;"" />
    </div>","0","0"
"","","","","","html-keyboard-response","69","216857","0.0-69.0-0.0-0.0","6A3B35B2FFD647FC93BC71B0C64D79D7","f059da46-ae0a-4cab-9396-4cbea53d55d1","58046770-4c03-4bc2-b4bc-e7359011db5d","","null","<div style=""display: flex; justify-content: center; align-items: center;"">
                <img src=""images/causal/causal_series_3/causal_series_3_d.jpg"" style=""width: 300px; height: 300px;"" />
              </div>","null",""
"","","","","","html-keyboard-response","70","219861","0.0-70.0","6A3B35B2FFD647FC93BC71B0C64D79D7","f059da46-ae0a-4cab-9396-4cbea53d55d1","58046770-4c03-4bc2-b4bc-e7359011db5d","","null","<div style=""display: flex; justify-content: center; align-items: center;"">
                <img src=""images/other/blank.jpg"" style=""width: 300px; height: 300px;"" />
              </div>","null",""
"","","","","","html-keyboard-response","71","222874","0.0-71.0","6A3B35B2FFD647FC93BC71B0C64D79D7","f059da46-ae0a-4cab-9396-4cbea53d55d1","58046770-4c03-4bc2-b4bc-e7359011db5d","","null","<div style=""display: flex; justify-content: center; align-items: center;"">
                <img src=""images/causal/causal_series_16/causal_series_16_a.jpg"" style=""width: 300px; height: 300px;"" />
              </div>","null",""
"","","","","","html-keyboard-response","72","225890","0.0-72.0","6A3B35B2FFD647FC93BC71B0C64D79D7","f059da46-ae0a-4cab-9396-4cbea53d55d1","58046770-4c03-4bc2-b4bc-e7359011db5d","","null","<div style=""display: flex; justify-content: center; align-items: center;"">
                <img src=""images/causal/causal_series_16/causal_series_16_b.jpg"" style=""width: 300px; height: 300px;"" />
              </div>","null",""
"","","","","","html-keyboard-response","73","228906","0.0-73.0","6A3B35B2FFD647FC93BC71B0C64D79D7","f059da46-ae0a-4cab-9396-4cbea53d55d1","58046770-4c03-4bc2-b4bc-e7359011db5d","","null","<div style=""display: flex; justify-content: center; align-items: center;"">
                <img src=""images/causal/causal_series_16/causal_series_16_c.jpg"" style=""width: 300px; height: 300px;"" />
              </div>","null",""
"","","","","","html-button-response","74","230811","0.0-74.0","6A3B35B2FFD647FC93BC71B0C64D79D7","f059da46-ae0a-4cab-9396-4cbea53d55d1","58046770-4c03-4bc2-b4bc-e7359011db5d","","1903","
    <div style=""display: flex; justify-content: center; align-items: center;"">
      <img src=""images/red_deck_2.png"" style=""width: 300px; height: 300px; margin-right: 10px;"" />
      <img src=""images/blue_deck_1.png"" style=""width: 300px; height: 300px;"" />
    </div>","0","0"
"","","","","","html-keyboard-response","75","233826","0.0-75.0-0.0-0.0","6A3B35B2FFD647FC93BC71B0C64D79D7","f059da46-ae0a-4cab-9396-4cbea53d55d1","58046770-4c03-4bc2-b4bc-e7359011db5d","","null","<div style=""display: flex; justify-content: center; align-items: center;"">
                <img src=""images/causal/causal_series_16/causal_series_16_d.jpg"" style=""width: 300px; height: 300px;"" />
              </div>","null",""
"","","","","","html-keyboard-response","76","236834","0.0-76.0","6A3B35B2FFD647FC93BC71B0C64D79D7","f059da46-ae0a-4cab-9396-4cbea53d55d1","58046770-4c03-4bc2-b4bc-e7359011db5d","","null","<div style=""display: flex; justify-content: center; align-items: center;"">
                <img src=""images/other/blank.jpg"" style=""width: 300px; height: 300px;"" />
              </div>","null",""
"","","","","","html-keyboard-response","77","239845","0.0-77.0","6A3B35B2FFD647FC93BC71B0C64D79D7","f059da46-ae0a-4cab-9396-4cbea53d55d1","58046770-4c03-4bc2-b4bc-e7359011db5d","","null","<div style=""display: flex; justify-content: center; align-items: center;"">
                <img src=""images/causal/causal_series_8/causal_series_8_a.jpg"" style=""width: 300px; height: 300px;"" />
              </div>","null",""
"","","","","","html-keyboard-response","78","242862","0.0-78.0","6A3B35B2FFD647FC93BC71B0C64D79D7","f059da46-ae0a-4cab-9396-4cbea53d55d1","58046770-4c03-4bc2-b4bc-e7359011db5d","","null","<div style=""display: flex; justify-content: center; align-items: center;"">
                <img src=""images/causal/causal_series_8/causal_series_8_b.jpg"" style=""width: 300px; height: 300px;"" />
              </div>","null",""
"","","","","","html-keyboard-response","79","245869","0.0-79.0","6A3B35B2FFD647FC93BC71B0C64D79D7","f059da46-ae0a-4cab-9396-4cbea53d55d1","58046770-4c03-4bc2-b4bc-e7359011db5d","","null","<div style=""display: flex; justify-content: center; align-items: center;"">
                <img src=""images/causal/causal_series_8/causal_series_8_c.jpg"" style=""width: 300px; height: 300px;"" />
              </div>","null",""
"","","","","","html-button-response","80","247760","0.0-80.0","6A3B35B2FFD647FC93BC71B0C64D79D7","f059da46-ae0a-4cab-9396-4cbea53d55d1","58046770-4c03-4bc2-b4bc-e7359011db5d","","1889","
    <div style=""display: flex; justify-content: center; align-items: center;"">
      <img src=""images/red_deck_2.png"" style=""width: 300px; height: 300px; margin-right: 10px;"" />
      <img src=""images/blue_deck_1.png"" style=""width: 300px; height: 300px;"" />
    </div>","1","1"
"","","","","","html-keyboard-response","81","250763","0.0-81.0-1.0-0.0","6A3B35B2FFD647FC93BC71B0C64D79D7","f059da46-ae0a-4cab-9396-4cbea53d55d1","58046770-4c03-4bc2-b4bc-e7359011db5d","","null","<div style=""display: flex; justify-content: center; align-items: center;"">
                <img src=""images/semantic/semantic_series_7/semantic_series_7_d.jpg"" style=""width: 300px; height: 300px;"" />
              </div>","null",""
"","","","","","html-keyboard-response","82","253765","0.0-82.0","6A3B35B2FFD647FC93BC71B0C64D79D7","f059da46-ae0a-4cab-9396-4cbea53d55d1","58046770-4c03-4bc2-b4bc-e7359011db5d","","null","<div style=""display: flex; justify-content: center; align-items: center;"">
                <img src=""images/other/blank.jpg"" style=""width: 300px; height: 300px;"" />
              </div>","null",""
"","","","","","html-keyboard-response","83","256779","0.0-83.0","6A3B35B2FFD647FC93BC71B0C64D79D7","f059da46-ae0a-4cab-9396-4cbea53d55d1","58046770-4c03-4bc2-b4bc-e7359011db5d","","null","<div style=""display: flex; justify-content: center; align-items: center;"">
                <img src=""images/causal/causal_series_13/causal_series_13_a.jpg"" style=""width: 300px; height: 300px;"" />
              </div>","null",""
"","","","","","html-keyboard-response","84","259797","0.0-84.0","6A3B35B2FFD647FC93BC71B0C64D79D7","f059da46-ae0a-4cab-9396-4cbea53d55d1","58046770-4c03-4bc2-b4bc-e7359011db5d","","null","<div style=""display: flex; justify-content: center; align-items: center;"">
                <img src=""images/causal/causal_series_13/causal_series_13_b.jpg"" style=""width: 300px; height: 300px;"" />
              </div>","null",""
"","","","","","html-keyboard-response","85","262803","0.0-85.0","6A3B35B2FFD647FC93BC71B0C64D79D7","f059da46-ae0a-4cab-9396-4cbea53d55d1","58046770-4c03-4bc2-b4bc-e7359011db5d","","null","<div style=""display: flex; justify-content: center; align-items: center;"">
                <img src=""images/causal/causal_series_13/causal_series_13_c.jpg"" style=""width: 300px; height: 300px;"" />
              </div>","null",""
"","","","","","html-button-response","86","264636","0.0-86.0","6A3B35B2FFD647FC93BC71B0C64D79D7","f059da46-ae0a-4cab-9396-4cbea53d55d1","58046770-4c03-4bc2-b4bc-e7359011db5d","","1831","
    <div style=""display: flex; justify-content: center; align-items: center;"">
      <img src=""images/red_deck_2.png"" style=""width: 300px; height: 300px; margin-right: 10px;"" />
      <img src=""images/blue_deck_1.png"" style=""width: 300px; height: 300px;"" />
    </div>","0","0"
"","","","","","html-keyboard-response","87","267652","0.0-87.0-0.0-0.0","6A3B35B2FFD647FC93BC71B0C64D79D7","f059da46-ae0a-4cab-9396-4cbea53d55d1","58046770-4c03-4bc2-b4bc-e7359011db5d","","null","<div style=""display: flex; justify-content: center; align-items: center;"">
                <img src=""images/causal/causal_series_13/causal_series_13_d.jpg"" style=""width: 300px; height: 300px;"" />
              </div>","null",""
"","","","","","html-keyboard-response","88","270663","0.0-88.0","6A3B35B2FFD647FC93BC71B0C64D79D7","f059da46-ae0a-4cab-9396-4cbea53d55d1","58046770-4c03-4bc2-b4bc-e7359011db5d","","null","<div style=""display: flex; justify-content: center; align-items: center;"">
                <img src=""images/other/blank.jpg"" style=""width: 300px; height: 300px;"" />
              </div>","null",""
"","","","","","html-keyboard-response","89","273675","0.0-89.0","6A3B35B2FFD647FC93BC71B0C64D79D7","f059da46-ae0a-4cab-9396-4cbea53d55d1","58046770-4c03-4bc2-b4bc-e7359011db5d","","null","<div style=""display: flex; justify-content: center; align-items: center;"">
                <img src=""images/causal/causal_series_2/causal_series_2_a.jpg"" style=""width: 300px; height: 300px;"" />
              </div>","null",""
"","","","","","html-keyboard-response","90","276680","0.0-90.0","6A3B35B2FFD647FC93BC71B0C64D79D7","f059da46-ae0a-4cab-9396-4cbea53d55d1","58046770-4c03-4bc2-b4bc-e7359011db5d","","null","<div style=""display: flex; justify-content: center; align-items: center;"">
                <img src=""images/causal/causal_series_2/causal_series_2_b.jpg"" style=""width: 300px; height: 300px;"" />
              </div>","null",""
"","","","","","html-keyboard-response","91","279683","0.0-91.0","6A3B35B2FFD647FC93BC71B0C64D79D7","f059da46-ae0a-4cab-9396-4cbea53d55d1","58046770-4c03-4bc2-b4bc-e7359011db5d","","null","<div style=""display: flex; justify-content: center; align-items: center;"">
                <img src=""images/causal/causal_series_2/causal_series_2_c.jpg"" style=""width: 300px; height: 300px;"" />
              </div>","null",""
"","","","","","html-button-response","92","281348","0.0-92.0","6A3B35B2FFD647FC93BC71B0C64D79D7","f059da46-ae0a-4cab-9396-4cbea53d55d1","58046770-4c03-4bc2-b4bc-e7359011db5d","","1663","
    <div style=""display: flex; justify-content: center; align-items: center;"">
      <img src=""images/red_deck_2.png"" style=""width: 300px; height: 300px; margin-right: 10px;"" />
      <img src=""images/blue_deck_1.png"" style=""width: 300px; height: 300px;"" />
    </div>","0","0"
"","","","","","html-keyboard-response","93","284360","0.0-93.0-0.0-0.0","6A3B35B2FFD647FC93BC71B0C64D79D7","f059da46-ae0a-4cab-9396-4cbea53d55d1","58046770-4c03-4bc2-b4bc-e7359011db5d","","null","<div style=""display: flex; justify-content: center; align-items: center;"">
                <img src=""images/causal/causal_series_2/causal_series_2_d.jpg"" style=""width: 300px; height: 300px;"" />
              </div>","null",""
"","","","","","html-keyboard-response","94","287376","0.0-94.0","6A3B35B2FFD647FC93BC71B0C64D79D7","f059da46-ae0a-4cab-9396-4cbea53d55d1","58046770-4c03-4bc2-b4bc-e7359011db5d","","null","<div style=""display: flex; justify-content: center; align-items: center;"">
                <img src=""images/other/blank.jpg"" style=""width: 300px; height: 300px;"" />
              </div>","null",""
"","","","","","html-keyboard-response","95","290384","0.0-95.0","6A3B35B2FFD647FC93BC71B0C64D79D7","f059da46-ae0a-4cab-9396-4cbea53d55d1","58046770-4c03-4bc2-b4bc-e7359011db5d","","null","<div style=""display: flex; justify-content: center; align-items: center;"">
                <img src=""images/causal/causal_series_12/causal_series_12_a.jpg"" style=""width: 300px; height: 300px;"" />
              </div>","null",""
"","","","","","html-keyboard-response","96","293391","0.0-96.0","6A3B35B2FFD647FC93BC71B0C64D79D7","f059da46-ae0a-4cab-9396-4cbea53d55d1","58046770-4c03-4bc2-b4bc-e7359011db5d","","null","<div style=""display: flex; justify-content: center; align-items: center;"">
                <img src=""images/causal/causal_series_12/causal_series_12_b.jpg"" style=""width: 300px; height: 300px;"" />
              </div>","null",""
"","","","","","html-keyboard-response","97","296407","0.0-97.0","6A3B35B2FFD647FC93BC71B0C64D79D7","f059da46-ae0a-4cab-9396-4cbea53d55d1","58046770-4c03-4bc2-b4bc-e7359011db5d","","null","<div style=""display: flex; justify-content: center; align-items: center;"">
                <img src=""images/causal/causal_series_12/causal_series_12_c.jpg"" style=""width: 300px; height: 300px;"" />
              </div>","null",""
"","","","","","html-button-response","98","297592","0.0-98.0","6A3B35B2FFD647FC93BC71B0C64D79D7","f059da46-ae0a-4cab-9396-4cbea53d55d1","58046770-4c03-4bc2-b4bc-e7359011db5d","","1183","
    <div style=""display: flex; justify-content: center; align-items: center;"">
      <img src=""images/red_deck_2.png"" style=""width: 300px; height: 300px; margin-right: 10px;"" />
      <img src=""images/blue_deck_1.png"" style=""width: 300px; height: 300px;"" />
    </div>","1","1"
"","","","","","html-keyboard-response","99","300602","0.0-99.0-1.0-0.0","6A3B35B2FFD647FC93BC71B0C64D79D7","f059da46-ae0a-4cab-9396-4cbea53d55d1","58046770-4c03-4bc2-b4bc-e7359011db5d","","null","<div style=""display: flex; justify-content: center; align-items: center;"">
                <img src=""images/semantic/semantic_series_11/semantic_series_11_d.jpg"" style=""width: 300px; height: 300px;"" />
              </div>","null",""
"","","","","","html-keyboard-response","100","303619","0.0-100.0","6A3B35B2FFD647FC93BC71B0C64D79D7","f059da46-ae0a-4cab-9396-4cbea53d55d1","58046770-4c03-4bc2-b4bc-e7359011db5d","","null","<div style=""display: flex; justify-content: center; align-items: center;"">
                <img src=""images/other/blank.jpg"" style=""width: 300px; height: 300px;"" />
              </div>","null",""
"","","","","","html-keyboard-response","101","306624","0.0-101.0","6A3B35B2FFD647FC93BC71B0C64D79D7","f059da46-ae0a-4cab-9396-4cbea53d55d1","58046770-4c03-4bc2-b4bc-e7359011db5d","","null","<div style=""display: flex; justify-content: center; align-items: center;"">
                <img src=""images/causal/causal_series_11/causal_series_11_a.jpg"" style=""width: 300px; height: 300px;"" />
              </div>","null",""
"","","","","","html-keyboard-response","102","309627","0.0-102.0","6A3B35B2FFD647FC93BC71B0C64D79D7","f059da46-ae0a-4cab-9396-4cbea53d55d1","58046770-4c03-4bc2-b4bc-e7359011db5d","","null","<div style=""display: flex; justify-content: center; align-items: center;"">
                <img src=""images/causal/causal_series_11/causal_series_11_b.jpg"" style=""width: 300px; height: 300px;"" />
              </div>","null",""
"","","","","","html-keyboard-response","103","312642","0.0-103.0","6A3B35B2FFD647FC93BC71B0C64D79D7","f059da46-ae0a-4cab-9396-4cbea53d55d1","58046770-4c03-4bc2-b4bc-e7359011db5d","","null","<div style=""display: flex; justify-content: center; align-items: center;"">
                <img src=""images/causal/causal_series_11/causal_series_11_c.jpg"" style=""width: 300px; height: 300px;"" />
              </div>","null",""
"","","","","","html-button-response","104","313828","0.0-104.0","6A3B35B2FFD647FC93BC71B0C64D79D7","f059da46-ae0a-4cab-9396-4cbea53d55d1","58046770-4c03-4bc2-b4bc-e7359011db5d","","1184","
    <div style=""display: flex; justify-content: center; align-items: center;"">
      <img src=""images/red_deck_2.png"" style=""width: 300px; height: 300px; margin-right: 10px;"" />
      <img src=""images/blue_deck_1.png"" style=""width: 300px; height: 300px;"" />
    </div>","0","0"
"","","","","","html-keyboard-response","105","316843","0.0-105.0-0.0-0.0","6A3B35B2FFD647FC93BC71B0C64D79D7","f059da46-ae0a-4cab-9396-4cbea53d55d1","58046770-4c03-4bc2-b4bc-e7359011db5d","","null","<div style=""display: flex; justify-content: center; align-items: center;"">
                <img src=""images/causal/causal_series_11/causal_series_11_d.jpg"" style=""width: 300px; height: 300px;"" />
              </div>","null",""
"","","","","","html-keyboard-response","106","319856","0.0-106.0","6A3B35B2FFD647FC93BC71B0C64D79D7","f059da46-ae0a-4cab-9396-4cbea53d55d1","58046770-4c03-4bc2-b4bc-e7359011db5d","","null","<div style=""display: flex; justify-content: center; align-items: center;"">
                <img src=""images/other/blank.jpg"" style=""width: 300px; height: 300px;"" />
              </div>","null",""
"","","","","","html-keyboard-response","107","322870","0.0-107.0","6A3B35B2FFD647FC93BC71B0C64D79D7","f059da46-ae0a-4cab-9396-4cbea53d55d1","58046770-4c03-4bc2-b4bc-e7359011db5d","","null","<div style=""display: flex; justify-content: center; align-items: center;"">
                <img src=""images/causal/causal_series_5/causal_series_5_a.jpg"" style=""width: 300px; height: 300px;"" />
              </div>","null",""
"","","","","","html-keyboard-response","108","325886","0.0-108.0","6A3B35B2FFD647FC93BC71B0C64D79D7","f059da46-ae0a-4cab-9396-4cbea53d55d1","58046770-4c03-4bc2-b4bc-e7359011db5d","","null","<div style=""display: flex; justify-content: center; align-items: center;"">
                <img src=""images/causal/causal_series_5/causal_series_5_b.jpg"" style=""width: 300px; height: 300px;"" />
              </div>","null",""
"","","","","","html-keyboard-response","109","328889","0.0-109.0","6A3B35B2FFD647FC93BC71B0C64D79D7","f059da46-ae0a-4cab-9396-4cbea53d55d1","58046770-4c03-4bc2-b4bc-e7359011db5d","","null","<div style=""display: flex; justify-content: center; align-items: center;"">
                <img src=""images/causal/causal_series_5/causal_series_5_c.jpg"" style=""width: 300px; height: 300px;"" />
              </div>","null",""
"","","","","","html-button-response","110","332472","0.0-110.0","6A3B35B2FFD647FC93BC71B0C64D79D7","f059da46-ae0a-4cab-9396-4cbea53d55d1","58046770-4c03-4bc2-b4bc-e7359011db5d","","3581","
    <div style=""display: flex; justify-content: center; align-items: center;"">
      <img src=""images/red_deck_2.png"" style=""width: 300px; height: 300px; margin-right: 10px;"" />
      <img src=""images/blue_deck_1.png"" style=""width: 300px; height: 300px;"" />
    </div>","1","1"
"","","","","","html-keyboard-response","111","335479","0.0-111.0-1.0-0.0","6A3B35B2FFD647FC93BC71B0C64D79D7","f059da46-ae0a-4cab-9396-4cbea53d55d1","58046770-4c03-4bc2-b4bc-e7359011db5d","","null","<div style=""display: flex; justify-content: center; align-items: center;"">
                <img src=""images/semantic/semantic_series_4/semantic_series_4_d.jpg"" style=""width: 300px; height: 300px;"" />
              </div>","null",""
"","","","","","html-keyboard-response","112","338485","0.0-112.0","6A3B35B2FFD647FC93BC71B0C64D79D7","f059da46-ae0a-4cab-9396-4cbea53d55d1","58046770-4c03-4bc2-b4bc-e7359011db5d","","null","<div style=""display: flex; justify-content: center; align-items: center;"">
                <img src=""images/other/blank.jpg"" style=""width: 300px; height: 300px;"" />
              </div>","null",""
"","","","","","survey-text","113","354254","0.0-113.0","6A3B35B2FFD647FC93BC71B0C64D79D7","f059da46-ae0a-4cab-9396-4cbea53d55d1","58046770-4c03-4bc2-b4bc-e7359011db5d","","15758","","{""Q0"":""One's back design is red, the other's is blue""}",""
"","","","","","survey-text","114","379025","0.0-114.0","6A3B35B2FFD647FC93BC71B0C64D79D7","f059da46-ae0a-4cab-9396-4cbea53d55d1","58046770-4c03-4bc2-b4bc-e7359011db5d","","24766","","{""Q0"":""I liked the color of the blue deck better""}",""
"","","","","","html-button-response","115","398528","0.0-115.0","6A3B35B2FFD647FC93BC71B0C64D79D7","f059da46-ae0a-4cab-9396-4cbea53d55d1","58046770-4c03-4bc2-b4bc-e7359011db5d","","19502","Which color deck does the fourth image continue the story from the series?","0",""
"","","","","","html-button-response","116","400133","0.0-116.0","6A3B35B2FFD647FC93BC71B0C64D79D7","f059da46-ae0a-4cab-9396-4cbea53d55d1","58046770-4c03-4bc2-b4bc-e7359011db5d","","1605","Which color deck does the fourth image not follow the story from the series?","1",""
"","","","","","survey-text","117","405017","0.0-117.0","6A3B35B2FFD647FC93BC71B0C64D79D7","f059da46-ae0a-4cab-9396-4cbea53d55d1","58046770-4c03-4bc2-b4bc-e7359011db5d","","4879","","{""Q0"":""Female"",""Q1"":""23""}",""
"","","","","","instructions","118","408735","0.0-118.0","6A3B35B2FFD647FC93BC71B0C64D79D7","f059da46-ae0a-4cab-9396-4cbea53d55d1","58046770-4c03-4bc2-b4bc-e7359011db5d","[{""page_index"":0,""viewing_time"":3717}]","3718","","",""
