"success","timeout","failed_images","failed_audio","failed_video","trial_type","trial_index","time_elapsed","internal_node_id","subject_id","study_id","session_id","view_history","rt","stimulus","response","choice"
"true","false","[]","[]","[]","preload","0","7865","0.0-0.0","A42BA04C170F45ABBC2B667FF87CDA16","0db5d0dc-54d5-463c-a7f4-783d7f8c6c22","7c9f784d-5202-4c36-a6e2-1fcf7bf41701","","","","",""
"","","","","","instructions","1","136164","0.0-1.0","A42BA04C170F45ABBC2B667FF87CDA16","0db5d0dc-54d5-463c-a7f4-783d7f8c6c22","7c9f784d-5202-4c36-a6e2-1fcf7bf41701","[{""page_index"":0,""viewing_time"":128308}]","128308","","",""
"","","","","","instructions","2","149794","0.0-2.0","A42BA04C170F45ABBC2B667FF87CDA16","0db5d0dc-54d5-463c-a7f4-783d7f8c6c22","7c9f784d-5202-4c36-a6e2-1fcf7bf41701","[{""page_index"":0,""viewing_time"":13629}]","13630","","",""
"true","","","","","fullscreen","3","301704","0.0-3.0","A42BA04C170F45ABBC2B667FF87CDA16","0db5d0dc-54d5-463c-a7f4-783d7f8c6c22","7c9f784d-5202-4c36-a6e2-1fcf7bf41701","","150881","","",""
"","","","","","instructions","4","319522","0.0-4.0","A42BA04C170F45ABBC2B667FF87CDA16","0db5d0dc-54d5-463c-a7f4-783d7f8c6c22","7c9f784d-5202-4c36-a6e2-1fcf7bf41701","[{""page_index"":0,""viewing_time"":17817}]","17818","","",""
"","","","","","html-keyboard-response","5","322525","0.0-5.0","A42BA04C170F45ABBC2B667FF87CDA16","0db5d0dc-54d5-463c-a7f4-783d7f8c6c22","7c9f784d-5202-4c36-a6e2-1fcf7bf41701","","null","<div style=""display: flex; justify-content: center; align-items: center;"">
                <img src=""images/causal/causal_series_10/causal_series_10_a.jpg"" style=""width: 300px; height: 300px;"" />
              </div>","null",""
"","","","","","html-keyboard-response","6","325538","0.0-6.0","A42BA04C170F45ABBC2B667FF87CDA16","0db5d0dc-54d5-463c-a7f4-783d7f8c6c22","7c9f784d-5202-4c36-a6e2-1fcf7bf41701","","null","<div style=""display: flex; justify-content: center; align-items: center;"">
                <img src=""images/causal/causal_series_10/causal_series_10_b.jpg"" style=""width: 300px; height: 300px;"" />
              </div>","null",""
"","","","","","html-keyboard-response","7","328549","0.0-7.0","A42BA04C170F45ABBC2B667FF87CDA16","0db5d0dc-54d5-463c-a7f4-783d7f8c6c22","7c9f784d-5202-4c36-a6e2-1fcf7bf41701","","null","<div style=""display: flex; justify-content: center; align-items: center;"">
                <img src=""images/causal/causal_series_10/causal_series_10_c.jpg"" style=""width: 300px; height: 300px;"" />
              </div>","null",""
"","","","","","html-button-response","8","333667","0.0-8.0","A42BA04C170F45ABBC2B667FF87CDA16","0db5d0dc-54d5-463c-a7f4-783d7f8c6c22","7c9f784d-5202-4c36-a6e2-1fcf7bf41701","","5116","
    <div style=""display: flex; justify-content: center; align-items: center;"">
      <img src=""images/blue_deck_1.png"" style=""width: 300px; height: 300px; margin-right: 10px;"" />
      <img src=""images/red_deck_2.png"" style=""width: 300px; height: 300px;"" />
    </div>","0","0"
"","","","","","html-keyboard-response","9","336675","0.0-9.0-0.0-0.0","A42BA04C170F45ABBC2B667FF87CDA16","0db5d0dc-54d5-463c-a7f4-783d7f8c6c22","7c9f784d-5202-4c36-a6e2-1fcf7bf41701","","null","<div style=""display: flex; justify-content: center; align-items: center;"">
                <img src=""images/causal/causal_series_10/causal_series_10_d.jpg"" style=""width: 300px; height: 300px;"" />
              </div>","null",""
"","","","","","html-keyboard-response","10","339678","0.0-10.0","A42BA04C170F45ABBC2B667FF87CDA16","0db5d0dc-54d5-463c-a7f4-783d7f8c6c22","7c9f784d-5202-4c36-a6e2-1fcf7bf41701","","null","<div style=""display: flex; justify-content: center; align-items: center;"">
                <img src=""images/other/blank.jpg"" style=""width: 300px; height: 300px;"" />
              </div>","null",""
"","","","","","html-keyboard-response","11","342680","0.0-11.0","A42BA04C170F45ABBC2B667FF87CDA16","0db5d0dc-54d5-463c-a7f4-783d7f8c6c22","7c9f784d-5202-4c36-a6e2-1fcf7bf41701","","null","<div style=""display: flex; justify-content: center; align-items: center;"">
                <img src=""images/causal/causal_series_11/causal_series_11_a.jpg"" style=""width: 300px; height: 300px;"" />
              </div>","null",""
"","","","","","html-keyboard-response","12","345694","0.0-12.0","A42BA04C170F45ABBC2B667FF87CDA16","0db5d0dc-54d5-463c-a7f4-783d7f8c6c22","7c9f784d-5202-4c36-a6e2-1fcf7bf41701","","null","<div style=""display: flex; justify-content: center; align-items: center;"">
                <img src=""images/causal/causal_series_11/causal_series_11_b.jpg"" style=""width: 300px; height: 300px;"" />
              </div>","null",""
"","","","","","html-keyboard-response","13","348699","0.0-13.0","A42BA04C170F45ABBC2B667FF87CDA16","0db5d0dc-54d5-463c-a7f4-783d7f8c6c22","7c9f784d-5202-4c36-a6e2-1fcf7bf41701","","null","<div style=""display: flex; justify-content: center; align-items: center;"">
                <img src=""images/causal/causal_series_11/causal_series_11_c.jpg"" style=""width: 300px; height: 300px;"" />
              </div>","null",""
"","","","","","html-button-response","14","350953","0.0-14.0","A42BA04C170F45ABBC2B667FF87CDA16","0db5d0dc-54d5-463c-a7f4-783d7f8c6c22","7c9f784d-5202-4c36-a6e2-1fcf7bf41701","","2253","
    <div style=""display: flex; justify-content: center; align-items: center;"">
      <img src=""images/blue_deck_1.png"" style=""width: 300px; height: 300px; margin-right: 10px;"" />
      <img src=""images/red_deck_2.png"" style=""width: 300px; height: 300px;"" />
    </div>","0","0"
"","","","","","html-keyboard-response","15","353966","0.0-15.0-0.0-0.0","A42BA04C170F45ABBC2B667FF87CDA16","0db5d0dc-54d5-463c-a7f4-783d7f8c6c22","7c9f784d-5202-4c36-a6e2-1fcf7bf41701","","null","<div style=""display: flex; justify-content: center; align-items: center;"">
                <img src=""images/causal/causal_series_11/causal_series_11_d.jpg"" style=""width: 300px; height: 300px;"" />
              </div>","null",""
"","","","","","html-keyboard-response","16","356973","0.0-16.0","A42BA04C170F45ABBC2B667FF87CDA16","0db5d0dc-54d5-463c-a7f4-783d7f8c6c22","7c9f784d-5202-4c36-a6e2-1fcf7bf41701","","null","<div style=""display: flex; justify-content: center; align-items: center;"">
                <img src=""images/other/blank.jpg"" style=""width: 300px; height: 300px;"" />
              </div>","null",""
"","","","","","html-keyboard-response","17","359986","0.0-17.0","A42BA04C170F45ABBC2B667FF87CDA16","0db5d0dc-54d5-463c-a7f4-783d7f8c6c22","7c9f784d-5202-4c36-a6e2-1fcf7bf41701","","null","<div style=""display: flex; justify-content: center; align-items: center;"">
                <img src=""images/causal/causal_series_18/causal_series_18_a.jpg"" style=""width: 300px; height: 300px;"" />
              </div>","null",""
"","","","","","html-keyboard-response","18","362990","0.0-18.0","A42BA04C170F45ABBC2B667FF87CDA16","0db5d0dc-54d5-463c-a7f4-783d7f8c6c22","7c9f784d-5202-4c36-a6e2-1fcf7bf41701","","null","<div style=""display: flex; justify-content: center; align-items: center;"">
                <img src=""images/causal/causal_series_18/causal_series_18_b.jpg"" style=""width: 300px; height: 300px;"" />
              </div>","null",""
"","","","","","html-keyboard-response","19","366006","0.0-19.0","A42BA04C170F45ABBC2B667FF87CDA16","0db5d0dc-54d5-463c-a7f4-783d7f8c6c22","7c9f784d-5202-4c36-a6e2-1fcf7bf41701","","null","<div style=""display: flex; justify-content: center; align-items: center;"">
                <img src=""images/causal/causal_series_18/causal_series_18_c.jpg"" style=""width: 300px; height: 300px;"" />
              </div>","null",""
"","","","","","html-button-response","20","368036","0.0-20.0","A42BA04C170F45ABBC2B667FF87CDA16","0db5d0dc-54d5-463c-a7f4-783d7f8c6c22","7c9f784d-5202-4c36-a6e2-1fcf7bf41701","","2028","
    <div style=""display: flex; justify-content: center; align-items: center;"">
      <img src=""images/blue_deck_1.png"" style=""width: 300px; height: 300px; margin-right: 10px;"" />
      <img src=""images/red_deck_2.png"" style=""width: 300px; height: 300px;"" />
    </div>","1","1"
"","","","","","html-keyboard-response","21","371041","0.0-21.0-1.0-0.0","A42BA04C170F45ABBC2B667FF87CDA16","0db5d0dc-54d5-463c-a7f4-783d7f8c6c22","7c9f784d-5202-4c36-a6e2-1fcf7bf41701","","null","<div style=""display: flex; justify-content: center; align-items: center;"">
                <img src=""images/semantic/semantic_series_17/semantic_series_17_d.jpg"" style=""width: 300px; height: 300px;"" />
              </div>","null",""
"","","","","","html-keyboard-response","22","374044","0.0-22.0","A42BA04C170F45ABBC2B667FF87CDA16","0db5d0dc-54d5-463c-a7f4-783d7f8c6c22","7c9f784d-5202-4c36-a6e2-1fcf7bf41701","","null","<div style=""display: flex; justify-content: center; align-items: center;"">
                <img src=""images/other/blank.jpg"" style=""width: 300px; height: 300px;"" />
              </div>","null",""
"","","","","","html-keyboard-response","23","377046","0.0-23.0","A42BA04C170F45ABBC2B667FF87CDA16","0db5d0dc-54d5-463c-a7f4-783d7f8c6c22","7c9f784d-5202-4c36-a6e2-1fcf7bf41701","","null","<div style=""display: flex; justify-content: center; align-items: center;"">
                <img src=""images/causal/causal_series_13/causal_series_13_a.jpg"" style=""width: 300px; height: 300px;"" />
              </div>","null",""
"","","","","","html-keyboard-response","24","380058","0.0-24.0","A42BA04C170F45ABBC2B667FF87CDA16","0db5d0dc-54d5-463c-a7f4-783d7f8c6c22","7c9f784d-5202-4c36-a6e2-1fcf7bf41701","","null","<div style=""display: flex; justify-content: center; align-items: center;"">
                <img src=""images/causal/causal_series_13/causal_series_13_b.jpg"" style=""width: 300px; height: 300px;"" />
              </div>","null",""
"","","","","","html-keyboard-response","25","383061","0.0-25.0","A42BA04C170F45ABBC2B667FF87CDA16","0db5d0dc-54d5-463c-a7f4-783d7f8c6c22","7c9f784d-5202-4c36-a6e2-1fcf7bf41701","","null","<div style=""display: flex; justify-content: center; align-items: center;"">
                <img src=""images/causal/causal_series_13/causal_series_13_c.jpg"" style=""width: 300px; height: 300px;"" />
              </div>","null",""
"","","","","","html-button-response","26","385084","0.0-26.0","A42BA04C170F45ABBC2B667FF87CDA16","0db5d0dc-54d5-463c-a7f4-783d7f8c6c22","7c9f784d-5202-4c36-a6e2-1fcf7bf41701","","2022","
    <div style=""display: flex; justify-content: center; align-items: center;"">
      <img src=""images/blue_deck_1.png"" style=""width: 300px; height: 300px; margin-right: 10px;"" />
      <img src=""images/red_deck_2.png"" style=""width: 300px; height: 300px;"" />
    </div>","0","0"
"","","","","","html-keyboard-response","27","388095","0.0-27.0-0.0-0.0","A42BA04C170F45ABBC2B667FF87CDA16","0db5d0dc-54d5-463c-a7f4-783d7f8c6c22","7c9f784d-5202-4c36-a6e2-1fcf7bf41701","","null","<div style=""display: flex; justify-content: center; align-items: center;"">
                <img src=""images/causal/causal_series_13/causal_series_13_d.jpg"" style=""width: 300px; height: 300px;"" />
              </div>","null",""
"","","","","","html-keyboard-response","28","391107","0.0-28.0","A42BA04C170F45ABBC2B667FF87CDA16","0db5d0dc-54d5-463c-a7f4-783d7f8c6c22","7c9f784d-5202-4c36-a6e2-1fcf7bf41701","","null","<div style=""display: flex; justify-content: center; align-items: center;"">
                <img src=""images/other/blank.jpg"" style=""width: 300px; height: 300px;"" />
              </div>","null",""
"","","","","","html-keyboard-response","29","394119","0.0-29.0","A42BA04C170F45ABBC2B667FF87CDA16","0db5d0dc-54d5-463c-a7f4-783d7f8c6c22","7c9f784d-5202-4c36-a6e2-1fcf7bf41701","","null","<div style=""display: flex; justify-content: center; align-items: center;"">
                <img src=""images/causal/causal_series_7/causal_series_7_a.jpg"" style=""width: 300px; height: 300px;"" />
              </div>","null",""
"","","","","","html-keyboard-response","30","397124","0.0-30.0","A42BA04C170F45ABBC2B667FF87CDA16","0db5d0dc-54d5-463c-a7f4-783d7f8c6c22","7c9f784d-5202-4c36-a6e2-1fcf7bf41701","","null","<div style=""display: flex; justify-content: center; align-items: center;"">
                <img src=""images/causal/causal_series_7/causal_series_7_b.jpg"" style=""width: 300px; height: 300px;"" />
              </div>","null",""
"","","","","","html-keyboard-response","31","400132","0.0-31.0","A42BA04C170F45ABBC2B667FF87CDA16","0db5d0dc-54d5-463c-a7f4-783d7f8c6c22","7c9f784d-5202-4c36-a6e2-1fcf7bf41701","","null","<div style=""display: flex; justify-content: center; align-items: center;"">
                <img src=""images/causal/causal_series_7/causal_series_7_c.jpg"" style=""width: 300px; height: 300px;"" />
              </div>","null",""
"","","","","","html-button-response","32","401787","0.0-32.0","A42BA04C170F45ABBC2B667FF87CDA16","0db5d0dc-54d5-463c-a7f4-783d7f8c6c22","7c9f784d-5202-4c36-a6e2-1fcf7bf41701","","1654","
    <div style=""display: flex; justify-content: center; align-items: center;"">
      <img src=""images/blue_deck_1.png"" style=""width: 300px; height: 300px; margin-right: 10px;"" />
      <img src=""images/red_deck_2.png"" style=""width: 300px; height: 300px;"" />
    </div>","0","0"
"","","","","","html-keyboard-response","33","404789","0.0-33.0-0.0-0.0","A42BA04C170F45ABBC2B667FF87CDA16","0db5d0dc-54d5-463c-a7f4-783d7f8c6c22","7c9f784d-5202-4c36-a6e2-1fcf7bf41701","","null","<div style=""display: flex; justify-content: center; align-items: center;"">
                <img src=""images/causal/causal_series_7/causal_series_7_d.jpg"" style=""width: 300px; height: 300px;"" />
              </div>","null",""
"","","","","","html-keyboard-response","34","407802","0.0-34.0","A42BA04C170F45ABBC2B667FF87CDA16","0db5d0dc-54d5-463c-a7f4-783d7f8c6c22","7c9f784d-5202-4c36-a6e2-1fcf7bf41701","","null","<div style=""display: flex; justify-content: center; align-items: center;"">
                <img src=""images/other/blank.jpg"" style=""width: 300px; height: 300px;"" />
              </div>","null",""
"","","","","","html-keyboard-response","35","410808","0.0-35.0","A42BA04C170F45ABBC2B667FF87CDA16","0db5d0dc-54d5-463c-a7f4-783d7f8c6c22","7c9f784d-5202-4c36-a6e2-1fcf7bf41701","","null","<div style=""display: flex; justify-content: center; align-items: center;"">
                <img src=""images/causal/causal_series_12/causal_series_12_a.jpg"" style=""width: 300px; height: 300px;"" />
              </div>","null",""
"","","","","","html-keyboard-response","36","413812","0.0-36.0","A42BA04C170F45ABBC2B667FF87CDA16","0db5d0dc-54d5-463c-a7f4-783d7f8c6c22","7c9f784d-5202-4c36-a6e2-1fcf7bf41701","","null","<div style=""display: flex; justify-content: center; align-items: center;"">
                <img src=""images/causal/causal_series_12/causal_series_12_b.jpg"" style=""width: 300px; height: 300px;"" />
              </div>","null",""
"","","","","","html-keyboard-response","37","416817","0.0-37.0","A42BA04C170F45ABBC2B667FF87CDA16","0db5d0dc-54d5-463c-a7f4-783d7f8c6c22","7c9f784d-5202-4c36-a6e2-1fcf7bf41701","","null","<div style=""display: flex; justify-content: center; align-items: center;"">
                <img src=""images/causal/causal_series_12/causal_series_12_c.jpg"" style=""width: 300px; height: 300px;"" />
              </div>","null",""
"","","","","","html-button-response","38","418444","0.0-38.0","A42BA04C170F45ABBC2B667FF87CDA16","0db5d0dc-54d5-463c-a7f4-783d7f8c6c22","7c9f784d-5202-4c36-a6e2-1fcf7bf41701","","1626","
    <div style=""display: flex; justify-content: center; align-items: center;"">
      <img src=""images/blue_deck_1.png"" style=""width: 300px; height: 300px; margin-right: 10px;"" />
      <img src=""images/red_deck_2.png"" style=""width: 300px; height: 300px;"" />
    </div>","0","0"
"","","","","","html-keyboard-response","39","421446","0.0-39.0-0.0-0.0","A42BA04C170F45ABBC2B667FF87CDA16","0db5d0dc-54d5-463c-a7f4-783d7f8c6c22","7c9f784d-5202-4c36-a6e2-1fcf7bf41701","","null","<div style=""display: flex; justify-content: center; align-items: center;"">
                <img src=""images/causal/causal_series_12/causal_series_12_d.jpg"" style=""width: 300px; height: 300px;"" />
              </div>","null",""
"","","","","","html-keyboard-response","40","424458","0.0-40.0","A42BA04C170F45ABBC2B667FF87CDA16","0db5d0dc-54d5-463c-a7f4-783d7f8c6c22","7c9f784d-5202-4c36-a6e2-1fcf7bf41701","","null","<div style=""display: flex; justify-content: center; align-items: center;"">
                <img src=""images/other/blank.jpg"" style=""width: 300px; height: 300px;"" />
              </div>","null",""
"","","","","","html-keyboard-response","41","427468","0.0-41.0","A42BA04C170F45ABBC2B667FF87CDA16","0db5d0dc-54d5-463c-a7f4-783d7f8c6c22","7c9f784d-5202-4c36-a6e2-1fcf7bf41701","","null","<div style=""display: flex; justify-content: center; align-items: center;"">
                <img src=""images/causal/causal_series_2/causal_series_2_a.jpg"" style=""width: 300px; height: 300px;"" />
              </div>","null",""
"","","","","","html-keyboard-response","42","430482","0.0-42.0","A42BA04C170F45ABBC2B667FF87CDA16","0db5d0dc-54d5-463c-a7f4-783d7f8c6c22","7c9f784d-5202-4c36-a6e2-1fcf7bf41701","","null","<div style=""display: flex; justify-content: center; align-items: center;"">
                <img src=""images/causal/causal_series_2/causal_series_2_b.jpg"" style=""width: 300px; height: 300px;"" />
              </div>","null",""
"","","","","","html-keyboard-response","43","433485","0.0-43.0","A42BA04C170F45ABBC2B667FF87CDA16","0db5d0dc-54d5-463c-a7f4-783d7f8c6c22","7c9f784d-5202-4c36-a6e2-1fcf7bf41701","","null","<div style=""display: flex; justify-content: center; align-items: center;"">
                <img src=""images/causal/causal_series_2/causal_series_2_c.jpg"" style=""width: 300px; height: 300px;"" />
              </div>","null",""
"","","","","","html-button-response","44","434747","0.0-44.0","A42BA04C170F45ABBC2B667FF87CDA16","0db5d0dc-54d5-463c-a7f4-783d7f8c6c22","7c9f784d-5202-4c36-a6e2-1fcf7bf41701","","1260","
    <div style=""display: flex; justify-content: center; align-items: center;"">
      <img src=""images/blue_deck_1.png"" style=""width: 300px; height: 300px; margin-right: 10px;"" />
      <img src=""images/red_deck_2.png"" style=""width: 300px; height: 300px;"" />
    </div>","0","0"
"","","","","","html-keyboard-response","45","437761","0.0-45.0-0.0-0.0","A42BA04C170F45ABBC2B667FF87CDA16","0db5d0dc-54d5-463c-a7f4-783d7f8c6c22","7c9f784d-5202-4c36-a6e2-1fcf7bf41701","","null","<div style=""display: flex; justify-content: center; align-items: center;"">
                <img src=""images/causal/causal_series_2/causal_series_2_d.jpg"" style=""width: 300px; height: 300px;"" />
              </div>","null",""
"","","","","","html-keyboard-response","46","440763","0.0-46.0","A42BA04C170F45ABBC2B667FF87CDA16","0db5d0dc-54d5-463c-a7f4-783d7f8c6c22","7c9f784d-5202-4c36-a6e2-1fcf7bf41701","","null","<div style=""display: flex; justify-content: center; align-items: center;"">
                <img src=""images/other/blank.jpg"" style=""width: 300px; height: 300px;"" />
              </div>","null",""
"","","","","","html-keyboard-response","47","443765","0.0-47.0","A42BA04C170F45ABBC2B667FF87CDA16","0db5d0dc-54d5-463c-a7f4-783d7f8c6c22","7c9f784d-5202-4c36-a6e2-1fcf7bf41701","","null","<div style=""display: flex; justify-content: center; align-items: center;"">
                <img src=""images/causal/causal_series_16/causal_series_16_a.jpg"" style=""width: 300px; height: 300px;"" />
              </div>","null",""
"","","","","","html-keyboard-response","48","446774","0.0-48.0","A42BA04C170F45ABBC2B667FF87CDA16","0db5d0dc-54d5-463c-a7f4-783d7f8c6c22","7c9f784d-5202-4c36-a6e2-1fcf7bf41701","","null","<div style=""display: flex; justify-content: center; align-items: center;"">
                <img src=""images/causal/causal_series_16/causal_series_16_b.jpg"" style=""width: 300px; height: 300px;"" />
              </div>","null",""
"","","","","","html-keyboard-response","49","449787","0.0-49.0","A42BA04C170F45ABBC2B667FF87CDA16","0db5d0dc-54d5-463c-a7f4-783d7f8c6c22","7c9f784d-5202-4c36-a6e2-1fcf7bf41701","","null","<div style=""display: flex; justify-content: center; align-items: center;"">
                <img src=""images/causal/causal_series_16/causal_series_16_c.jpg"" style=""width: 300px; height: 300px;"" />
              </div>","null",""
"","","","","","html-button-response","50","451091","0.0-50.0","A42BA04C170F45ABBC2B667FF87CDA16","0db5d0dc-54d5-463c-a7f4-783d7f8c6c22","7c9f784d-5202-4c36-a6e2-1fcf7bf41701","","1303","
    <div style=""display: flex; justify-content: center; align-items: center;"">
      <img src=""images/blue_deck_1.png"" style=""width: 300px; height: 300px; margin-right: 10px;"" />
      <img src=""images/red_deck_2.png"" style=""width: 300px; height: 300px;"" />
    </div>","1","1"
"","","","","","html-keyboard-response","51","454103","0.0-51.0-1.0-0.0","A42BA04C170F45ABBC2B667FF87CDA16","0db5d0dc-54d5-463c-a7f4-783d7f8c6c22","7c9f784d-5202-4c36-a6e2-1fcf7bf41701","","null","<div style=""display: flex; justify-content: center; align-items: center;"">
                <img src=""images/semantic/semantic_series_15/semantic_series_15_d.jpg"" style=""width: 300px; height: 300px;"" />
              </div>","null",""
"","","","","","html-keyboard-response","52","457110","0.0-52.0","A42BA04C170F45ABBC2B667FF87CDA16","0db5d0dc-54d5-463c-a7f4-783d7f8c6c22","7c9f784d-5202-4c36-a6e2-1fcf7bf41701","","null","<div style=""display: flex; justify-content: center; align-items: center;"">
                <img src=""images/other/blank.jpg"" style=""width: 300px; height: 300px;"" />
              </div>","null",""
"","","","","","html-keyboard-response","53","460111","0.0-53.0","A42BA04C170F45ABBC2B667FF87CDA16","0db5d0dc-54d5-463c-a7f4-783d7f8c6c22","7c9f784d-5202-4c36-a6e2-1fcf7bf41701","","null","<div style=""display: flex; justify-content: center; align-items: center;"">
                <img src=""images/causal/causal_series_1/causal_series_1_a.jpg"" style=""width: 300px; height: 300px;"" />
              </div>","null",""
"","","","","","html-keyboard-response","54","463115","0.0-54.0","A42BA04C170F45ABBC2B667FF87CDA16","0db5d0dc-54d5-463c-a7f4-783d7f8c6c22","7c9f784d-5202-4c36-a6e2-1fcf7bf41701","","null","<div style=""display: flex; justify-content: center; align-items: center;"">
                <img src=""images/causal/causal_series_1/causal_series_1_b.jpg"" style=""width: 300px; height: 300px;"" />
              </div>","null",""
"","","","","","html-keyboard-response","55","466131","0.0-55.0","A42BA04C170F45ABBC2B667FF87CDA16","0db5d0dc-54d5-463c-a7f4-783d7f8c6c22","7c9f784d-5202-4c36-a6e2-1fcf7bf41701","","null","<div style=""display: flex; justify-content: center; align-items: center;"">
                <img src=""images/causal/causal_series_1/causal_series_1_c.jpg"" style=""width: 300px; height: 300px;"" />
              </div>","null",""
"","","","","","html-button-response","56","467678","0.0-56.0","A42BA04C170F45ABBC2B667FF87CDA16","0db5d0dc-54d5-463c-a7f4-783d7f8c6c22","7c9f784d-5202-4c36-a6e2-1fcf7bf41701","","1545","
    <div style=""display: flex; justify-content: center; align-items: center;"">
      <img src=""images/blue_deck_1.png"" style=""width: 300px; height: 300px; margin-right: 10px;"" />
      <img src=""images/red_deck_2.png"" style=""width: 300px; height: 300px;"" />
    </div>","0","0"
"","","","","","html-keyboard-response","57","470687","0.0-57.0-0.0-0.0","A42BA04C170F45ABBC2B667FF87CDA16","0db5d0dc-54d5-463c-a7f4-783d7f8c6c22","7c9f784d-5202-4c36-a6e2-1fcf7bf41701","","null","<div style=""display: flex; justify-content: center; align-items: center;"">
                <img src=""images/causal/causal_series_1/causal_series_1_d.jpg"" style=""width: 300px; height: 300px;"" />
              </div>","null",""
"","","","","","html-keyboard-response","58","473690","0.0-58.0","A42BA04C170F45ABBC2B667FF87CDA16","0db5d0dc-54d5-463c-a7f4-783d7f8c6c22","7c9f784d-5202-4c36-a6e2-1fcf7bf41701","","null","<div style=""display: flex; justify-content: center; align-items: center;"">
                <img src=""images/other/blank.jpg"" style=""width: 300px; height: 300px;"" />
              </div>","null",""
"","","","","","html-keyboard-response","59","476699","0.0-59.0","A42BA04C170F45ABBC2B667FF87CDA16","0db5d0dc-54d5-463c-a7f4-783d7f8c6c22","7c9f784d-5202-4c36-a6e2-1fcf7bf41701","","null","<div style=""display: flex; justify-content: center; align-items: center;"">
                <img src=""images/causal/causal_series_14/causal_series_14_a.jpg"" style=""width: 300px; height: 300px;"" />
              </div>","null",""
"","","","","","html-keyboard-response","60","479715","0.0-60.0","A42BA04C170F45ABBC2B667FF87CDA16","0db5d0dc-54d5-463c-a7f4-783d7f8c6c22","7c9f784d-5202-4c36-a6e2-1fcf7bf41701","","null","<div style=""display: flex; justify-content: center; align-items: center;"">
                <img src=""images/causal/causal_series_14/causal_series_14_b.jpg"" style=""width: 300px; height: 300px;"" />
              </div>","null",""
"","","","","","html-keyboard-response","61","482720","0.0-61.0","A42BA04C170F45ABBC2B667FF87CDA16","0db5d0dc-54d5-463c-a7f4-783d7f8c6c22","7c9f784d-5202-4c36-a6e2-1fcf7bf41701","","null","<div style=""display: flex; justify-content: center; align-items: center;"">
                <img src=""images/causal/causal_series_14/causal_series_14_c.jpg"" style=""width: 300px; height: 300px;"" />
              </div>","null",""
"","","","","","html-button-response","62","483936","0.0-62.0","A42BA04C170F45ABBC2B667FF87CDA16","0db5d0dc-54d5-463c-a7f4-783d7f8c6c22","7c9f784d-5202-4c36-a6e2-1fcf7bf41701","","1215","
    <div style=""display: flex; justify-content: center; align-items: center;"">
      <img src=""images/blue_deck_1.png"" style=""width: 300px; height: 300px; margin-right: 10px;"" />
      <img src=""images/red_deck_2.png"" style=""width: 300px; height: 300px;"" />
    </div>","0","0"
"","","","","","html-keyboard-response","63","486937","0.0-63.0-0.0-0.0","A42BA04C170F45ABBC2B667FF87CDA16","0db5d0dc-54d5-463c-a7f4-783d7f8c6c22","7c9f784d-5202-4c36-a6e2-1fcf7bf41701","","null","<div style=""display: flex; justify-content: center; align-items: center;"">
                <img src=""images/causal/causal_series_14/causal_series_14_d.jpg"" style=""width: 300px; height: 300px;"" />
              </div>","null",""
"","","","","","html-keyboard-response","64","489947","0.0-64.0","A42BA04C170F45ABBC2B667FF87CDA16","0db5d0dc-54d5-463c-a7f4-783d7f8c6c22","7c9f784d-5202-4c36-a6e2-1fcf7bf41701","","null","<div style=""display: flex; justify-content: center; align-items: center;"">
                <img src=""images/other/blank.jpg"" style=""width: 300px; height: 300px;"" />
              </div>","null",""
"","","","","","html-keyboard-response","65","492959","0.0-65.0","A42BA04C170F45ABBC2B667FF87CDA16","0db5d0dc-54d5-463c-a7f4-783d7f8c6c22","7c9f784d-5202-4c36-a6e2-1fcf7bf41701","","null","<div style=""display: flex; justify-content: center; align-items: center;"">
                <img src=""images/causal/causal_series_5/causal_series_5_a.jpg"" style=""width: 300px; height: 300px;"" />
              </div>","null",""
"","","","","","html-keyboard-response","66","495963","0.0-66.0","A42BA04C170F45ABBC2B667FF87CDA16","0db5d0dc-54d5-463c-a7f4-783d7f8c6c22","7c9f784d-5202-4c36-a6e2-1fcf7bf41701","","null","<div style=""display: flex; justify-content: center; align-items: center;"">
                <img src=""images/causal/causal_series_5/causal_series_5_b.jpg"" style=""width: 300px; height: 300px;"" />
              </div>","null",""
"","","","","","html-keyboard-response","67","498972","0.0-67.0","A42BA04C170F45ABBC2B667FF87CDA16","0db5d0dc-54d5-463c-a7f4-783d7f8c6c22","7c9f784d-5202-4c36-a6e2-1fcf7bf41701","","null","<div style=""display: flex; justify-content: center; align-items: center;"">
                <img src=""images/causal/causal_series_5/causal_series_5_c.jpg"" style=""width: 300px; height: 300px;"" />
              </div>","null",""
"","","","","","html-button-response","68","500887","0.0-68.0","A42BA04C170F45ABBC2B667FF87CDA16","0db5d0dc-54d5-463c-a7f4-783d7f8c6c22","7c9f784d-5202-4c36-a6e2-1fcf7bf41701","","1913","
    <div style=""display: flex; justify-content: center; align-items: center;"">
      <img src=""images/blue_deck_1.png"" style=""width: 300px; height: 300px; margin-right: 10px;"" />
      <img src=""images/red_deck_2.png"" style=""width: 300px; height: 300px;"" />
    </div>","0","0"
"","","","","","html-keyboard-response","69","503894","0.0-69.0-0.0-0.0","A42BA04C170F45ABBC2B667FF87CDA16","0db5d0dc-54d5-463c-a7f4-783d7f8c6c22","7c9f784d-5202-4c36-a6e2-1fcf7bf41701","","null","<div style=""display: flex; justify-content: center; align-items: center;"">
                <img src=""images/causal/causal_series_5/causal_series_5_d.jpg"" style=""width: 300px; height: 300px;"" />
              </div>","null",""
"","","","","","html-keyboard-response","70","506907","0.0-70.0","A42BA04C170F45ABBC2B667FF87CDA16","0db5d0dc-54d5-463c-a7f4-783d7f8c6c22","7c9f784d-5202-4c36-a6e2-1fcf7bf41701","","null","<div style=""display: flex; justify-content: center; align-items: center;"">
                <img src=""images/other/blank.jpg"" style=""width: 300px; height: 300px;"" />
              </div>","null",""
"","","","","","html-keyboard-response","71","509909","0.0-71.0","A42BA04C170F45ABBC2B667FF87CDA16","0db5d0dc-54d5-463c-a7f4-783d7f8c6c22","7c9f784d-5202-4c36-a6e2-1fcf7bf41701","","null","<div style=""display: flex; justify-content: center; align-items: center;"">
                <img src=""images/causal/causal_series_4/causal_series_4_a.jpg"" style=""width: 300px; height: 300px;"" />
              </div>","null",""
"","","","","","html-keyboard-response","72","512922","0.0-72.0","A42BA04C170F45ABBC2B667FF87CDA16","0db5d0dc-54d5-463c-a7f4-783d7f8c6c22","7c9f784d-5202-4c36-a6e2-1fcf7bf41701","","null","<div style=""display: flex; justify-content: center; align-items: center;"">
                <img src=""images/causal/causal_series_4/causal_series_4_b.jpg"" style=""width: 300px; height: 300px;"" />
              </div>","null",""
"","","","","","html-keyboard-response","73","515925","0.0-73.0","A42BA04C170F45ABBC2B667FF87CDA16","0db5d0dc-54d5-463c-a7f4-783d7f8c6c22","7c9f784d-5202-4c36-a6e2-1fcf7bf41701","","null","<div style=""display: flex; justify-content: center; align-items: center;"">
                <img src=""images/causal/causal_series_4/causal_series_4_c.jpg"" style=""width: 300px; height: 300px;"" />
              </div>","null",""
"","","","","","html-button-response","74","517324","0.0-74.0","A42BA04C170F45ABBC2B667FF87CDA16","0db5d0dc-54d5-463c-a7f4-783d7f8c6c22","7c9f784d-5202-4c36-a6e2-1fcf7bf41701","","1397","
    <div style=""display: flex; justify-content: center; align-items: center;"">
      <img src=""images/blue_deck_1.png"" style=""width: 300px; height: 300px; margin-right: 10px;"" />
      <img src=""images/red_deck_2.png"" style=""width: 300px; height: 300px;"" />
    </div>","0","0"
"","","","","","html-keyboard-response","75","520331","0.0-75.0-0.0-0.0","A42BA04C170F45ABBC2B667FF87CDA16","0db5d0dc-54d5-463c-a7f4-783d7f8c6c22","7c9f784d-5202-4c36-a6e2-1fcf7bf41701","","null","<div style=""display: flex; justify-content: center; align-items: center;"">
                <img src=""images/causal/causal_series_4/causal_series_4_d.jpg"" style=""width: 300px; height: 300px;"" />
              </div>","null",""
"","","","","","html-keyboard-response","76","523338","0.0-76.0","A42BA04C170F45ABBC2B667FF87CDA16","0db5d0dc-54d5-463c-a7f4-783d7f8c6c22","7c9f784d-5202-4c36-a6e2-1fcf7bf41701","","null","<div style=""display: flex; justify-content: center; align-items: center;"">
                <img src=""images/other/blank.jpg"" style=""width: 300px; height: 300px;"" />
              </div>","null",""
"","","","","","html-keyboard-response","77","526352","0.0-77.0","A42BA04C170F45ABBC2B667FF87CDA16","0db5d0dc-54d5-463c-a7f4-783d7f8c6c22","7c9f784d-5202-4c36-a6e2-1fcf7bf41701","","null","<div style=""display: flex; justify-content: center; align-items: center;"">
                <img src=""images/causal/causal_series_9/causal_series_9_a.jpg"" style=""width: 300px; height: 300px;"" />
              </div>","null",""
"","","","","","html-keyboard-response","78","529368","0.0-78.0","A42BA04C170F45ABBC2B667FF87CDA16","0db5d0dc-54d5-463c-a7f4-783d7f8c6c22","7c9f784d-5202-4c36-a6e2-1fcf7bf41701","","null","<div style=""display: flex; justify-content: center; align-items: center;"">
                <img src=""images/causal/causal_series_9/causal_series_9_b.jpg"" style=""width: 300px; height: 300px;"" />
              </div>","null",""
"","","","","","html-keyboard-response","79","532370","0.0-79.0","A42BA04C170F45ABBC2B667FF87CDA16","0db5d0dc-54d5-463c-a7f4-783d7f8c6c22","7c9f784d-5202-4c36-a6e2-1fcf7bf41701","","null","<div style=""display: flex; justify-content: center; align-items: center;"">
                <img src=""images/causal/causal_series_9/causal_series_9_c.jpg"" style=""width: 300px; height: 300px;"" />
              </div>","null",""
"","","","","","html-button-response","80","534023","0.0-80.0","A42BA04C170F45ABBC2B667FF87CDA16","0db5d0dc-54d5-463c-a7f4-783d7f8c6c22","7c9f784d-5202-4c36-a6e2-1fcf7bf41701","","1651","
    <div style=""display: flex; justify-content: center; align-items: center;"">
      <img src=""images/blue_deck_1.png"" style=""width: 300px; height: 300px; margin-right: 10px;"" />
      <img src=""images/red_deck_2.png"" style=""width: 300px; height: 300px;"" />
    </div>","0","0"
"","","","","","html-keyboard-response","81","537039","0.0-81.0-0.0-0.0","A42BA04C170F45ABBC2B667FF87CDA16","0db5d0dc-54d5-463c-a7f4-783d7f8c6c22","7c9f784d-5202-4c36-a6e2-1fcf7bf41701","","null","<div style=""display: flex; justify-content: center; align-items: center;"">
                <img src=""images/causal/causal_series_9/causal_series_9_d.jpg"" style=""width: 300px; height: 300px;"" />
              </div>","null",""
"","","","","","html-keyboard-response","82","540046","0.0-82.0","A42BA04C170F45ABBC2B667FF87CDA16","0db5d0dc-54d5-463c-a7f4-783d7f8c6c22","7c9f784d-5202-4c36-a6e2-1fcf7bf41701","","null","<div style=""display: flex; justify-content: center; align-items: center;"">
                <img src=""images/other/blank.jpg"" style=""width: 300px; height: 300px;"" />
              </div>","null",""
"","","","","","html-keyboard-response","83","543050","0.0-83.0","A42BA04C170F45ABBC2B667FF87CDA16","0db5d0dc-54d5-463c-a7f4-783d7f8c6c22","7c9f784d-5202-4c36-a6e2-1fcf7bf41701","","null","<div style=""display: flex; justify-content: center; align-items: center;"">
                <img src=""images/causal/causal_series_15/causal_series_15_a.jpg"" style=""width: 300px; height: 300px;"" />
              </div>","null",""
"","","","","","html-keyboard-response","84","546056","0.0-84.0","A42BA04C170F45ABBC2B667FF87CDA16","0db5d0dc-54d5-463c-a7f4-783d7f8c6c22","7c9f784d-5202-4c36-a6e2-1fcf7bf41701","","null","<div style=""display: flex; justify-content: center; align-items: center;"">
                <img src=""images/causal/causal_series_15/causal_series_15_b.jpg"" style=""width: 300px; height: 300px;"" />
              </div>","null",""
"","","","","","html-keyboard-response","85","549065","0.0-85.0","A42BA04C170F45ABBC2B667FF87CDA16","0db5d0dc-54d5-463c-a7f4-783d7f8c6c22","7c9f784d-5202-4c36-a6e2-1fcf7bf41701","","null","<div style=""display: flex; justify-content: center; align-items: center;"">
                <img src=""images/causal/causal_series_15/causal_series_15_c.jpg"" style=""width: 300px; height: 300px;"" />
              </div>","null",""
"","","","","","html-button-response","86","550420","0.0-86.0","A42BA04C170F45ABBC2B667FF87CDA16","0db5d0dc-54d5-463c-a7f4-783d7f8c6c22","7c9f784d-5202-4c36-a6e2-1fcf7bf41701","","1353","
    <div style=""display: flex; justify-content: center; align-items: center;"">
      <img src=""images/blue_deck_1.png"" style=""width: 300px; height: 300px; margin-right: 10px;"" />
      <img src=""images/red_deck_2.png"" style=""width: 300px; height: 300px;"" />
    </div>","1","1"
"","","","","","html-keyboard-response","87","553423","0.0-87.0-1.0-0.0","A42BA04C170F45ABBC2B667FF87CDA16","0db5d0dc-54d5-463c-a7f4-783d7f8c6c22","7c9f784d-5202-4c36-a6e2-1fcf7bf41701","","null","<div style=""display: flex; justify-content: center; align-items: center;"">
                <img src=""images/semantic/semantic_series_14/semantic_series_14_d.jpg"" style=""width: 300px; height: 300px;"" />
              </div>","null",""
"","","","","","html-keyboard-response","88","556432","0.0-88.0","A42BA04C170F45ABBC2B667FF87CDA16","0db5d0dc-54d5-463c-a7f4-783d7f8c6c22","7c9f784d-5202-4c36-a6e2-1fcf7bf41701","","null","<div style=""display: flex; justify-content: center; align-items: center;"">
                <img src=""images/other/blank.jpg"" style=""width: 300px; height: 300px;"" />
              </div>","null",""
"","","","","","html-keyboard-response","89","559447","0.0-89.0","A42BA04C170F45ABBC2B667FF87CDA16","0db5d0dc-54d5-463c-a7f4-783d7f8c6c22","7c9f784d-5202-4c36-a6e2-1fcf7bf41701","","null","<div style=""display: flex; justify-content: center; align-items: center;"">
                <img src=""images/causal/causal_series_6/causal_series_6_a.jpg"" style=""width: 300px; height: 300px;"" />
              </div>","null",""
"","","","","","html-keyboard-response","90","562452","0.0-90.0","A42BA04C170F45ABBC2B667FF87CDA16","0db5d0dc-54d5-463c-a7f4-783d7f8c6c22","7c9f784d-5202-4c36-a6e2-1fcf7bf41701","","null","<div style=""display: flex; justify-content: center; align-items: center;"">
                <img src=""images/causal/causal_series_6/causal_series_6_b.jpg"" style=""width: 300px; height: 300px;"" />
              </div>","null",""
"","","","","","html-keyboard-response","91","565458","0.0-91.0","A42BA04C170F45ABBC2B667FF87CDA16","0db5d0dc-54d5-463c-a7f4-783d7f8c6c22","7c9f784d-5202-4c36-a6e2-1fcf7bf41701","","null","<div style=""display: flex; justify-content: center; align-items: center;"">
                <img src=""images/causal/causal_series_6/causal_series_6_c.jpg"" style=""width: 300px; height: 300px;"" />
              </div>","null",""
"","","","","","html-button-response","92","566752","0.0-92.0","A42BA04C170F45ABBC2B667FF87CDA16","0db5d0dc-54d5-463c-a7f4-783d7f8c6c22","7c9f784d-5202-4c36-a6e2-1fcf7bf41701","","1293","
    <div style=""display: flex; justify-content: center; align-items: center;"">
      <img src=""images/blue_deck_1.png"" style=""width: 300px; height: 300px; margin-right: 10px;"" />
      <img src=""images/red_deck_2.png"" style=""width: 300px; height: 300px;"" />
    </div>","0","0"
"","","","","","html-keyboard-response","93","569760","0.0-93.0-0.0-0.0","A42BA04C170F45ABBC2B667FF87CDA16","0db5d0dc-54d5-463c-a7f4-783d7f8c6c22","7c9f784d-5202-4c36-a6e2-1fcf7bf41701","","null","<div style=""display: flex; justify-content: center; align-items: center;"">
                <img src=""images/causal/causal_series_6/causal_series_6_d.jpg"" style=""width: 300px; height: 300px;"" />
              </div>","null",""
"","","","","","html-keyboard-response","94","572763","0.0-94.0","A42BA04C170F45ABBC2B667FF87CDA16","0db5d0dc-54d5-463c-a7f4-783d7f8c6c22","7c9f784d-5202-4c36-a6e2-1fcf7bf41701","","null","<div style=""display: flex; justify-content: center; align-items: center;"">
                <img src=""images/other/blank.jpg"" style=""width: 300px; height: 300px;"" />
              </div>","null",""
"","","","","","html-keyboard-response","95","575777","0.0-95.0","A42BA04C170F45ABBC2B667FF87CDA16","0db5d0dc-54d5-463c-a7f4-783d7f8c6c22","7c9f784d-5202-4c36-a6e2-1fcf7bf41701","","null","<div style=""display: flex; justify-content: center; align-items: center;"">
                <img src=""images/causal/causal_series_8/causal_series_8_a.jpg"" style=""width: 300px; height: 300px;"" />
              </div>","null",""
"","","","","","html-keyboard-response","96","578787","0.0-96.0","A42BA04C170F45ABBC2B667FF87CDA16","0db5d0dc-54d5-463c-a7f4-783d7f8c6c22","7c9f784d-5202-4c36-a6e2-1fcf7bf41701","","null","<div style=""display: flex; justify-content: center; align-items: center;"">
                <img src=""images/causal/causal_series_8/causal_series_8_b.jpg"" style=""width: 300px; height: 300px;"" />
              </div>","null",""
"","","","","","html-keyboard-response","97","581796","0.0-97.0","A42BA04C170F45ABBC2B667FF87CDA16","0db5d0dc-54d5-463c-a7f4-783d7f8c6c22","7c9f784d-5202-4c36-a6e2-1fcf7bf41701","","null","<div style=""display: flex; justify-content: center; align-items: center;"">
                <img src=""images/causal/causal_series_8/causal_series_8_c.jpg"" style=""width: 300px; height: 300px;"" />
              </div>","null",""
"","","","","","html-button-response","98","583584","0.0-98.0","A42BA04C170F45ABBC2B667FF87CDA16","0db5d0dc-54d5-463c-a7f4-783d7f8c6c22","7c9f784d-5202-4c36-a6e2-1fcf7bf41701","","1786","
    <div style=""display: flex; justify-content: center; align-items: center;"">
      <img src=""images/blue_deck_1.png"" style=""width: 300px; height: 300px; margin-right: 10px;"" />
      <img src=""images/red_deck_2.png"" style=""width: 300px; height: 300px;"" />
    </div>","0","0"
"","","","","","html-keyboard-response","99","586591","0.0-99.0-0.0-0.0","A42BA04C170F45ABBC2B667FF87CDA16","0db5d0dc-54d5-463c-a7f4-783d7f8c6c22","7c9f784d-5202-4c36-a6e2-1fcf7bf41701","","null","<div style=""display: flex; justify-content: center; align-items: center;"">
                <img src=""images/causal/causal_series_8/causal_series_8_d.jpg"" style=""width: 300px; height: 300px;"" />
              </div>","null",""
"","","","","","html-keyboard-response","100","589593","0.0-100.0","A42BA04C170F45ABBC2B667FF87CDA16","0db5d0dc-54d5-463c-a7f4-783d7f8c6c22","7c9f784d-5202-4c36-a6e2-1fcf7bf41701","","null","<div style=""display: flex; justify-content: center; align-items: center;"">
                <img src=""images/other/blank.jpg"" style=""width: 300px; height: 300px;"" />
              </div>","null",""
"","","","","","html-keyboard-response","101","592597","0.0-101.0","A42BA04C170F45ABBC2B667FF87CDA16","0db5d0dc-54d5-463c-a7f4-783d7f8c6c22","7c9f784d-5202-4c36-a6e2-1fcf7bf41701","","null","<div style=""display: flex; justify-content: center; align-items: center;"">
                <img src=""images/causal/causal_series_17/causal_series_17_a.jpg"" style=""width: 300px; height: 300px;"" />
              </div>","null",""
"","","","","","html-keyboard-response","102","595605","0.0-102.0","A42BA04C170F45ABBC2B667FF87CDA16","0db5d0dc-54d5-463c-a7f4-783d7f8c6c22","7c9f784d-5202-4c36-a6e2-1fcf7bf41701","","null","<div style=""display: flex; justify-content: center; align-items: center;"">
                <img src=""images/causal/causal_series_17/causal_series_17_b.jpg"" style=""width: 300px; height: 300px;"" />
              </div>","null",""
"","","","","","html-keyboard-response","103","598607","0.0-103.0","A42BA04C170F45ABBC2B667FF87CDA16","0db5d0dc-54d5-463c-a7f4-783d7f8c6c22","7c9f784d-5202-4c36-a6e2-1fcf7bf41701","","null","<div style=""display: flex; justify-content: center; align-items: center;"">
                <img src=""images/causal/causal_series_17/causal_series_17_c.jpg"" style=""width: 300px; height: 300px;"" />
              </div>","null",""
"","","","","","html-button-response","104","599787","0.0-104.0","A42BA04C170F45ABBC2B667FF87CDA16","0db5d0dc-54d5-463c-a7f4-783d7f8c6c22","7c9f784d-5202-4c36-a6e2-1fcf7bf41701","","1179","
    <div style=""display: flex; justify-content: center; align-items: center;"">
      <img src=""images/blue_deck_1.png"" style=""width: 300px; height: 300px; margin-right: 10px;"" />
      <img src=""images/red_deck_2.png"" style=""width: 300px; height: 300px;"" />
    </div>","0","0"
"","","","","","html-keyboard-response","105","602799","0.0-105.0-0.0-0.0","A42BA04C170F45ABBC2B667FF87CDA16","0db5d0dc-54d5-463c-a7f4-783d7f8c6c22","7c9f784d-5202-4c36-a6e2-1fcf7bf41701","","null","<div style=""display: flex; justify-content: center; align-items: center;"">
                <img src=""images/causal/causal_series_17/causal_series_17_d.jpg"" style=""width: 300px; height: 300px;"" />
              </div>","null",""
"","","","","","html-keyboard-response","106","605814","0.0-106.0","A42BA04C170F45ABBC2B667FF87CDA16","0db5d0dc-54d5-463c-a7f4-783d7f8c6c22","7c9f784d-5202-4c36-a6e2-1fcf7bf41701","","null","<div style=""display: flex; justify-content: center; align-items: center;"">
                <img src=""images/other/blank.jpg"" style=""width: 300px; height: 300px;"" />
              </div>","null",""
"","","","","","html-keyboard-response","107","608828","0.0-107.0","A42BA04C170F45ABBC2B667FF87CDA16","0db5d0dc-54d5-463c-a7f4-783d7f8c6c22","7c9f784d-5202-4c36-a6e2-1fcf7bf41701","","null","<div style=""display: flex; justify-content: center; align-items: center;"">
                <img src=""images/causal/causal_series_3/causal_series_3_a.jpg"" style=""width: 300px; height: 300px;"" />
              </div>","null",""
"","","","","","html-keyboard-response","108","611830","0.0-108.0","A42BA04C170F45ABBC2B667FF87CDA16","0db5d0dc-54d5-463c-a7f4-783d7f8c6c22","7c9f784d-5202-4c36-a6e2-1fcf7bf41701","","null","<div style=""display: flex; justify-content: center; align-items: center;"">
                <img src=""images/causal/causal_series_3/causal_series_3_b.jpg"" style=""width: 300px; height: 300px;"" />
              </div>","null",""
"","","","","","html-keyboard-response","109","614843","0.0-109.0","A42BA04C170F45ABBC2B667FF87CDA16","0db5d0dc-54d5-463c-a7f4-783d7f8c6c22","7c9f784d-5202-4c36-a6e2-1fcf7bf41701","","null","<div style=""display: flex; justify-content: center; align-items: center;"">
                <img src=""images/causal/causal_series_3/causal_series_3_c.jpg"" style=""width: 300px; height: 300px;"" />
              </div>","null",""
"","","","","","html-button-response","110","616452","0.0-110.0","A42BA04C170F45ABBC2B667FF87CDA16","0db5d0dc-54d5-463c-a7f4-783d7f8c6c22","7c9f784d-5202-4c36-a6e2-1fcf7bf41701","","1607","
    <div style=""display: flex; justify-content: center; align-items: center;"">
      <img src=""images/blue_deck_1.png"" style=""width: 300px; height: 300px; margin-right: 10px;"" />
      <img src=""images/red_deck_2.png"" style=""width: 300px; height: 300px;"" />
    </div>","0","0"
"","","","","","html-keyboard-response","111","619463","0.0-111.0-0.0-0.0","A42BA04C170F45ABBC2B667FF87CDA16","0db5d0dc-54d5-463c-a7f4-783d7f8c6c22","7c9f784d-5202-4c36-a6e2-1fcf7bf41701","","null","<div style=""display: flex; justify-content: center; align-items: center;"">
                <img src=""images/causal/causal_series_3/causal_series_3_d.jpg"" style=""width: 300px; height: 300px;"" />
              </div>","null",""
"","","","","","html-keyboard-response","112","622479","0.0-112.0","A42BA04C170F45ABBC2B667FF87CDA16","0db5d0dc-54d5-463c-a7f4-783d7f8c6c22","7c9f784d-5202-4c36-a6e2-1fcf7bf41701","","null","<div style=""display: flex; justify-content: center; align-items: center;"">
                <img src=""images/other/blank.jpg"" style=""width: 300px; height: 300px;"" />
              </div>","null",""
"","","","","","survey-text","113","647239","0.0-113.0","A42BA04C170F45ABBC2B667FF87CDA16","0db5d0dc-54d5-463c-a7f4-783d7f8c6c22","7c9f784d-5202-4c36-a6e2-1fcf7bf41701","","24750","","{""Q0"":""The red deck just has a random image with a month stamp, but the blue deck has a related \""end\"" to the story""}",""
"","","","","","survey-text","114","656388","0.0-114.0","A42BA04C170F45ABBC2B667FF87CDA16","0db5d0dc-54d5-463c-a7f4-783d7f8c6c22","7c9f784d-5202-4c36-a6e2-1fcf7bf41701","","9145","","{""Q0"":""Definitely blue. Red is just random""}",""
"","","","","","html-button-response","115","662969","0.0-115.0","A42BA04C170F45ABBC2B667FF87CDA16","0db5d0dc-54d5-463c-a7f4-783d7f8c6c22","7c9f784d-5202-4c36-a6e2-1fcf7bf41701","","6580","Which color deck does the fourth image continue the story from the series?","0",""
"","","","","","html-button-response","116","666470","0.0-116.0","A42BA04C170F45ABBC2B667FF87CDA16","0db5d0dc-54d5-463c-a7f4-783d7f8c6c22","7c9f784d-5202-4c36-a6e2-1fcf7bf41701","","3500","Which color deck does the fourth image not follow the story from the series?","1",""
"","","","","","survey-text","117","672499","0.0-117.0","A42BA04C170F45ABBC2B667FF87CDA16","0db5d0dc-54d5-463c-a7f4-783d7f8c6c22","7c9f784d-5202-4c36-a6e2-1fcf7bf41701","","6024","","{""Q0"":""FEMALE"",""Q1"":""30""}",""
"","","","","","instructions","118","676804","0.0-118.0","A42BA04C170F45ABBC2B667FF87CDA16","0db5d0dc-54d5-463c-a7f4-783d7f8c6c22","7c9f784d-5202-4c36-a6e2-1fcf7bf41701","[{""page_index"":0,""viewing_time"":4304}]","4304","","",""
