"success","timeout","failed_images","failed_audio","failed_video","trial_type","trial_index","time_elapsed","internal_node_id","view_history","rt","stimulus","response","choice","trial_name"
"true","false","[]","[]","[]","preload","0","1454","0.0-0.0","","","","","",""
"","","","","","instructions","1","27288","0.0-1.0","[{""page_index"":0,""viewing_time"":25833}]","25834","","","",""
"","","","","","instructions","2","37721","0.0-2.0","[{""page_index"":0,""viewing_time"":10432}]","10432","","","",""
"true","","","","","fullscreen","3","41488","0.0-3.0","","2764","","","",""
"","","","","","instructions","4","55325","0.0-4.0","[{""page_index"":0,""viewing_time"":13837}]","13837","","","",""
"","","","","","html-button-response","5","61270","0.0-5.0","","5943","
    <div style=""display: flex; justify-content: center; align-items: center; flex-direction: column;"">
      <div style=""display: flex; justify-content: center; align-items: center;"">
        <img src=""images/instructions/1.png"" style=""width: 300px; height: 300px; margin-right: 10px;"" />
        <img src=""images/instructions/2.png"" style=""width: 300px; height: 300px;"" />
      </div>
      <p>Does event 1 lead to event 2?</p>
    </div>","0","0",""
"","","","","","html-button-response","6","62941","0.0-6.0","","1671","
    <div style=""display: flex; justify-content: center; align-items: center; flex-direction: column;"">
      <div style=""display: flex; justify-content: center; align-items: center;"">
        <img src=""images/instructions/3.png"" style=""width: 300px; height: 300px; margin-right: 10px;"" />
        <img src=""images/instructions/4.png"" style=""width: 300px; height: 300px;"" />
      </div>
      <p>YES, event 1 does lead to event 2.</p>
    </div>","0","0",""
"","","","","","html-button-response","7","66928","0.0-7.0","","3985","
    <div style=""display: flex; justify-content: center; align-items: center; flex-direction: column;"">
      <div style=""display: flex; justify-content: center; align-items: center;"">
        <img src=""images/instructions/5.png"" style=""width: 300px; height: 300px; margin-right: 10px;"" />
        <img src=""images/instructions/6.png"" style=""width: 300px; height: 300px;"" />
      </div>
      <p>Does event 1 lead to event 2?</p>
    </div>","1","1",""
"","","","","","html-button-response","8","68568","0.0-8.0","","1640","
    <div style=""display: flex; justify-content: center; align-items: center; flex-direction: column;"">
      <div style=""display: flex; justify-content: center; align-items: center;"">
        <img src=""images/instructions/7.png"" style=""width: 300px; height: 300px; margin-right: 10px;"" />
        <img src=""images/instructions/8.png"" style=""width: 300px; height: 300px;"" />
      </div>
      <p>NO, event 1 does not lead to event 2.</p>
    </div>","0","0",""
"","","","","","instructions","9","71182","0.0-9.0","[{""page_index"":0,""viewing_time"":2614}]","2614","","","",""
"","","","","","html-button-response","10","78015","0.0-10.0","","6832","
    <div style=""display: flex; justify-content: center; align-items: center; flex-direction: column;"">
      <div style=""display: flex; justify-content: center; align-items: center;"">
        <img src=""images/causal/causal_3/1.png"" style=""width: 300px; height: 300px; margin-right: 10px;"" />
        <img src=""images/causal/causal_3/2.png"" style=""width: 300px; height: 300px;"" />
      </div>
      <p>Does event 1 lead to event 2?</p>
    </div>","1","1","causal_3"
"","","","","","html-button-response","11","82374","0.0-11.0","","4358","
    <div style=""display: flex; justify-content: center; align-items: center; flex-direction: column;"">
      <div style=""display: flex; justify-content: center; align-items: center;"">
        <img src=""images/causal/causal_4/1.png"" style=""width: 300px; height: 300px; margin-right: 10px;"" />
        <img src=""images/causal/causal_4/2.png"" style=""width: 300px; height: 300px;"" />
      </div>
      <p>Does event 1 lead to event 2?</p>
    </div>","0","0","causal_4"
"","","","","","html-button-response","12","89044","0.0-12.0","","6669","
    <div style=""display: flex; justify-content: center; align-items: center; flex-direction: column;"">
      <div style=""display: flex; justify-content: center; align-items: center;"">
        <img src=""images/semantic/semantic_6/1.png"" style=""width: 300px; height: 300px; margin-right: 10px;"" />
        <img src=""images/semantic/semantic_6/2.png"" style=""width: 300px; height: 300px;"" />
      </div>
      <p>Does event 1 lead to event 2?</p>
    </div>","1","1","semantic_6"
"","","","","","html-button-response","13","91072","0.0-13.0","","2027","
    <div style=""display: flex; justify-content: center; align-items: center; flex-direction: column;"">
      <div style=""display: flex; justify-content: center; align-items: center;"">
        <img src=""images/schematic/schematic_5/1.png"" style=""width: 300px; height: 300px; margin-right: 10px;"" />
        <img src=""images/schematic/schematic_5/2.png"" style=""width: 300px; height: 300px;"" />
      </div>
      <p>Does event 1 lead to event 2?</p>
    </div>","0","0","schematic_5"
"","","","","","html-button-response","14","95440","0.0-14.0","","4367","
    <div style=""display: flex; justify-content: center; align-items: center; flex-direction: column;"">
      <div style=""display: flex; justify-content: center; align-items: center;"">
        <img src=""images/semantic/semantic_5/1.png"" style=""width: 300px; height: 300px; margin-right: 10px;"" />
        <img src=""images/semantic/semantic_5/2.png"" style=""width: 300px; height: 300px;"" />
      </div>
      <p>Does event 1 lead to event 2?</p>
    </div>","1","1","semantic_5"
"","","","","","html-button-response","15","98096","0.0-15.0","","2655","
    <div style=""display: flex; justify-content: center; align-items: center; flex-direction: column;"">
      <div style=""display: flex; justify-content: center; align-items: center;"">
        <img src=""images/semantic/semantic_2/1.png"" style=""width: 300px; height: 300px; margin-right: 10px;"" />
        <img src=""images/semantic/semantic_2/2.png"" style=""width: 300px; height: 300px;"" />
      </div>
      <p>Does event 1 lead to event 2?</p>
    </div>","1","1","semantic_2"
"","","","","","html-button-response","16","105249","0.0-16.0","","7152","
    <div style=""display: flex; justify-content: center; align-items: center; flex-direction: column;"">
      <div style=""display: flex; justify-content: center; align-items: center;"">
        <img src=""images/semantic/semantic_1/1.png"" style=""width: 300px; height: 300px; margin-right: 10px;"" />
        <img src=""images/semantic/semantic_1/2.png"" style=""width: 300px; height: 300px;"" />
      </div>
      <p>Does event 1 lead to event 2?</p>
    </div>","1","1","semantic_1"
"","","","","","html-button-response","17","111923","0.0-17.0","","6673","
    <div style=""display: flex; justify-content: center; align-items: center; flex-direction: column;"">
      <div style=""display: flex; justify-content: center; align-items: center;"">
        <img src=""images/causal/causal_8/1.png"" style=""width: 300px; height: 300px; margin-right: 10px;"" />
        <img src=""images/causal/causal_8/2.png"" style=""width: 300px; height: 300px;"" />
      </div>
      <p>Does event 1 lead to event 2?</p>
    </div>","1","1","causal_8"
"","","","","","html-button-response","18","117567","0.0-18.0","","5643","
    <div style=""display: flex; justify-content: center; align-items: center; flex-direction: column;"">
      <div style=""display: flex; justify-content: center; align-items: center;"">
        <img src=""images/semantic/semantic_8/1.png"" style=""width: 300px; height: 300px; margin-right: 10px;"" />
        <img src=""images/semantic/semantic_8/2.png"" style=""width: 300px; height: 300px;"" />
      </div>
      <p>Does event 1 lead to event 2?</p>
    </div>","0","0","semantic_8"
"","","","","","html-button-response","19","122299","0.0-19.0","","4731","
    <div style=""display: flex; justify-content: center; align-items: center; flex-direction: column;"">
      <div style=""display: flex; justify-content: center; align-items: center;"">
        <img src=""images/schematic/schematic_4/1.png"" style=""width: 300px; height: 300px; margin-right: 10px;"" />
        <img src=""images/schematic/schematic_4/2.png"" style=""width: 300px; height: 300px;"" />
      </div>
      <p>Does event 1 lead to event 2?</p>
    </div>","0","0","schematic_4"
"","","","","","html-button-response","20","125420","0.0-20.0","","3120","
    <div style=""display: flex; justify-content: center; align-items: center; flex-direction: column;"">
      <div style=""display: flex; justify-content: center; align-items: center;"">
        <img src=""images/schematic/schematic_1/1.png"" style=""width: 300px; height: 300px; margin-right: 10px;"" />
        <img src=""images/schematic/schematic_1/2.png"" style=""width: 300px; height: 300px;"" />
      </div>
      <p>Does event 1 lead to event 2?</p>
    </div>","0","0","schematic_1"
"","","","","","html-button-response","21","128276","0.0-21.0","","2856","
    <div style=""display: flex; justify-content: center; align-items: center; flex-direction: column;"">
      <div style=""display: flex; justify-content: center; align-items: center;"">
        <img src=""images/causal/causal_7/1.png"" style=""width: 300px; height: 300px; margin-right: 10px;"" />
        <img src=""images/causal/causal_7/2.png"" style=""width: 300px; height: 300px;"" />
      </div>
      <p>Does event 1 lead to event 2?</p>
    </div>","0","0","causal_7"
"","","","","","html-button-response","22","132093","0.0-22.0","","3816","
    <div style=""display: flex; justify-content: center; align-items: center; flex-direction: column;"">
      <div style=""display: flex; justify-content: center; align-items: center;"">
        <img src=""images/semantic/semantic_3/1.png"" style=""width: 300px; height: 300px; margin-right: 10px;"" />
        <img src=""images/semantic/semantic_3/2.png"" style=""width: 300px; height: 300px;"" />
      </div>
      <p>Does event 1 lead to event 2?</p>
    </div>","0","0","semantic_3"
"","","","","","html-button-response","23","134706","0.0-23.0","","2612","
    <div style=""display: flex; justify-content: center; align-items: center; flex-direction: column;"">
      <div style=""display: flex; justify-content: center; align-items: center;"">
        <img src=""images/schematic/schematic_6/1.png"" style=""width: 300px; height: 300px; margin-right: 10px;"" />
        <img src=""images/schematic/schematic_6/2.png"" style=""width: 300px; height: 300px;"" />
      </div>
      <p>Does event 1 lead to event 2?</p>
    </div>","0","0","schematic_6"
"","","","","","html-button-response","24","136649","0.0-24.0","","1942","
    <div style=""display: flex; justify-content: center; align-items: center; flex-direction: column;"">
      <div style=""display: flex; justify-content: center; align-items: center;"">
        <img src=""images/schematic/schematic_3/1.png"" style=""width: 300px; height: 300px; margin-right: 10px;"" />
        <img src=""images/schematic/schematic_3/2.png"" style=""width: 300px; height: 300px;"" />
      </div>
      <p>Does event 1 lead to event 2?</p>
    </div>","0","0","schematic_3"
"","","","","","html-button-response","25","139182","0.0-25.0","","2532","
    <div style=""display: flex; justify-content: center; align-items: center; flex-direction: column;"">
      <div style=""display: flex; justify-content: center; align-items: center;"">
        <img src=""images/semantic/semantic_7/1.png"" style=""width: 300px; height: 300px; margin-right: 10px;"" />
        <img src=""images/semantic/semantic_7/2.png"" style=""width: 300px; height: 300px;"" />
      </div>
      <p>Does event 1 lead to event 2?</p>
    </div>","1","1","semantic_7"
"","","","","","html-button-response","26","145390","0.0-26.0","","6208","
    <div style=""display: flex; justify-content: center; align-items: center; flex-direction: column;"">
      <div style=""display: flex; justify-content: center; align-items: center;"">
        <img src=""images/causal/causal_5/1.png"" style=""width: 300px; height: 300px; margin-right: 10px;"" />
        <img src=""images/causal/causal_5/2.png"" style=""width: 300px; height: 300px;"" />
      </div>
      <p>Does event 1 lead to event 2?</p>
    </div>","0","0","causal_5"
"","","","","","html-button-response","27","152044","0.0-27.0","","6653","
    <div style=""display: flex; justify-content: center; align-items: center; flex-direction: column;"">
      <div style=""display: flex; justify-content: center; align-items: center;"">
        <img src=""images/causal/causal_1/1.png"" style=""width: 300px; height: 300px; margin-right: 10px;"" />
        <img src=""images/causal/causal_1/2.png"" style=""width: 300px; height: 300px;"" />
      </div>
      <p>Does event 1 lead to event 2?</p>
    </div>","0","0","causal_1"
"","","","","","html-button-response","28","157420","0.0-28.0","","5375","
    <div style=""display: flex; justify-content: center; align-items: center; flex-direction: column;"">
      <div style=""display: flex; justify-content: center; align-items: center;"">
        <img src=""images/schematic/schematic_8/1.png"" style=""width: 300px; height: 300px; margin-right: 10px;"" />
        <img src=""images/schematic/schematic_8/2.png"" style=""width: 300px; height: 300px;"" />
      </div>
      <p>Does event 1 lead to event 2?</p>
    </div>","0","0","schematic_8"
"","","","","","html-button-response","29","160041","0.0-29.0","","2620","
    <div style=""display: flex; justify-content: center; align-items: center; flex-direction: column;"">
      <div style=""display: flex; justify-content: center; align-items: center;"">
        <img src=""images/schematic/schematic_7/1.png"" style=""width: 300px; height: 300px; margin-right: 10px;"" />
        <img src=""images/schematic/schematic_7/2.png"" style=""width: 300px; height: 300px;"" />
      </div>
      <p>Does event 1 lead to event 2?</p>
    </div>","0","0","schematic_7"
"","","","","","html-button-response","30","161475","0.0-30.0","","1433","
    <div style=""display: flex; justify-content: center; align-items: center; flex-direction: column;"">
      <div style=""display: flex; justify-content: center; align-items: center;"">
        <img src=""images/causal/causal_2/1.png"" style=""width: 300px; height: 300px; margin-right: 10px;"" />
        <img src=""images/causal/causal_2/2.png"" style=""width: 300px; height: 300px;"" />
      </div>
      <p>Does event 1 lead to event 2?</p>
    </div>","0","0","causal_2"
"","","","","","html-button-response","31","163989","0.0-31.0","","2513","
    <div style=""display: flex; justify-content: center; align-items: center; flex-direction: column;"">
      <div style=""display: flex; justify-content: center; align-items: center;"">
        <img src=""images/schematic/schematic_2/1.png"" style=""width: 300px; height: 300px; margin-right: 10px;"" />
        <img src=""images/schematic/schematic_2/2.png"" style=""width: 300px; height: 300px;"" />
      </div>
      <p>Does event 1 lead to event 2?</p>
    </div>","0","0","schematic_2"
"","","","","","html-button-response","32","166308","0.0-32.0","","2318","
    <div style=""display: flex; justify-content: center; align-items: center; flex-direction: column;"">
      <div style=""display: flex; justify-content: center; align-items: center;"">
        <img src=""images/semantic/semantic_4/1.png"" style=""width: 300px; height: 300px; margin-right: 10px;"" />
        <img src=""images/semantic/semantic_4/2.png"" style=""width: 300px; height: 300px;"" />
      </div>
      <p>Does event 1 lead to event 2?</p>
    </div>","1","1","semantic_4"
"","","","","","html-button-response","33","171279","0.0-33.0","","4970","
    <div style=""display: flex; justify-content: center; align-items: center; flex-direction: column;"">
      <div style=""display: flex; justify-content: center; align-items: center;"">
        <img src=""images/causal/causal_6/1.png"" style=""width: 300px; height: 300px; margin-right: 10px;"" />
        <img src=""images/causal/causal_6/2.png"" style=""width: 300px; height: 300px;"" />
      </div>
      <p>Does event 1 lead to event 2?</p>
    </div>","0","0","causal_6"
"","","","","","survey-text","34","180224","0.0-34.0","","8941","","{""Q0"":""Male"",""Q1"":""25""}","",""
"","","","","","instructions","35","190478","0.0-35.0","[{""page_index"":0,""viewing_time"":10254}]","10254","","","",""
"","","","","","survey-text","36","194178","0.0-36.0","","3699","","{""Q0"":""AJFHBG898""}","",""
