"success","timeout","failed_images","failed_audio","failed_video","trial_type","trial_index","time_elapsed","internal_node_id","subject","subject_id","study_id","session_id","urlvar","current_url","view_history","rt","stimulus","response","choice","question_order"
"true","false","[]","[]","[]","preload","0","8804","0.0-0.0","CBC5B19884B24A59A4433D736D767EDD","CBC5B19884B24A59A4433D736D767EDD","91b4b3cc-c392-4fb5-9ab6-f8f237d2b9f4","e622c465-ee29-4445-8260-1f3431e06587","{""participantId"":""CBC5B19884B24A59A4433D736D767EDD"",""assignmentId"":""91b4b3cc-c392-4fb5-9ab6-f8f237d2b9f4"",""projectId"":""e622c465-ee29-4445-8260-1f3431e06587""}","https://test12345.live/?participantId=CBC5B19884B24A59A4433D736D767EDD&assignmentId=91b4b3cc-c392-4fb5-9ab6-f8f237d2b9f4&projectId=e622c465-ee29-4445-8260-1f3431e06587","","","","","",""
"","","","","","instructions","1","40706","0.0-1.0","CBC5B19884B24A59A4433D736D767EDD","CBC5B19884B24A59A4433D736D767EDD","91b4b3cc-c392-4fb5-9ab6-f8f237d2b9f4","e622c465-ee29-4445-8260-1f3431e06587","{""participantId"":""CBC5B19884B24A59A4433D736D767EDD"",""assignmentId"":""91b4b3cc-c392-4fb5-9ab6-f8f237d2b9f4"",""projectId"":""e622c465-ee29-4445-8260-1f3431e06587""}","https://test12345.live/?participantId=CBC5B19884B24A59A4433D736D767EDD&assignmentId=91b4b3cc-c392-4fb5-9ab6-f8f237d2b9f4&projectId=e622c465-ee29-4445-8260-1f3431e06587","[{""page_index"":0,""viewing_time"":31899}]","31900","","","",""
"","","","","","instructions","2","45729","0.0-2.0","CBC5B19884B24A59A4433D736D767EDD","CBC5B19884B24A59A4433D736D767EDD","91b4b3cc-c392-4fb5-9ab6-f8f237d2b9f4","e622c465-ee29-4445-8260-1f3431e06587","{""participantId"":""CBC5B19884B24A59A4433D736D767EDD"",""assignmentId"":""91b4b3cc-c392-4fb5-9ab6-f8f237d2b9f4"",""projectId"":""e622c465-ee29-4445-8260-1f3431e06587""}","https://test12345.live/?participantId=CBC5B19884B24A59A4433D736D767EDD&assignmentId=91b4b3cc-c392-4fb5-9ab6-f8f237d2b9f4&projectId=e622c465-ee29-4445-8260-1f3431e06587","[{""page_index"":0,""viewing_time"":5022}]","5022","","","",""
"true","","","","","fullscreen","3","57732","0.0-3.0","CBC5B19884B24A59A4433D736D767EDD","CBC5B19884B24A59A4433D736D767EDD","91b4b3cc-c392-4fb5-9ab6-f8f237d2b9f4","e622c465-ee29-4445-8260-1f3431e06587","{""participantId"":""CBC5B19884B24A59A4433D736D767EDD"",""assignmentId"":""91b4b3cc-c392-4fb5-9ab6-f8f237d2b9f4"",""projectId"":""e622c465-ee29-4445-8260-1f3431e06587""}","https://test12345.live/?participantId=CBC5B19884B24A59A4433D736D767EDD&assignmentId=91b4b3cc-c392-4fb5-9ab6-f8f237d2b9f4&projectId=e622c465-ee29-4445-8260-1f3431e06587","","10992","","","",""
"","","","","","instructions","4","90206","0.0-4.0","CBC5B19884B24A59A4433D736D767EDD","CBC5B19884B24A59A4433D736D767EDD","91b4b3cc-c392-4fb5-9ab6-f8f237d2b9f4","e622c465-ee29-4445-8260-1f3431e06587","{""participantId"":""CBC5B19884B24A59A4433D736D767EDD"",""assignmentId"":""91b4b3cc-c392-4fb5-9ab6-f8f237d2b9f4"",""projectId"":""e622c465-ee29-4445-8260-1f3431e06587""}","https://test12345.live/?participantId=CBC5B19884B24A59A4433D736D767EDD&assignmentId=91b4b3cc-c392-4fb5-9ab6-f8f237d2b9f4&projectId=e622c465-ee29-4445-8260-1f3431e06587","[{""page_index"":0,""viewing_time"":32472}]","32472","","","",""
"","","","","","html-button-response","5","94598","0.0-5.0","CBC5B19884B24A59A4433D736D767EDD","CBC5B19884B24A59A4433D736D767EDD","91b4b3cc-c392-4fb5-9ab6-f8f237d2b9f4","e622c465-ee29-4445-8260-1f3431e06587","{""participantId"":""CBC5B19884B24A59A4433D736D767EDD"",""assignmentId"":""91b4b3cc-c392-4fb5-9ab6-f8f237d2b9f4"",""projectId"":""e622c465-ee29-4445-8260-1f3431e06587""}","https://test12345.live/?participantId=CBC5B19884B24A59A4433D736D767EDD&assignmentId=91b4b3cc-c392-4fb5-9ab6-f8f237d2b9f4&projectId=e622c465-ee29-4445-8260-1f3431e06587","","4391","
    <div style=""display: flex; justify-content: center; align-items: center;"">
      <img src=""images/blue_deck_1.png"" style=""width: 300px; height: 300px; margin-right: 10px;"" />
      <img src=""images/red_deck_2.png"" style=""width: 300px; height: 300px;"" />
    </div>","0","0",""
"","","","","","html-keyboard-response","6","97601","0.0-6.0-0.0","CBC5B19884B24A59A4433D736D767EDD","CBC5B19884B24A59A4433D736D767EDD","91b4b3cc-c392-4fb5-9ab6-f8f237d2b9f4","e622c465-ee29-4445-8260-1f3431e06587","{""participantId"":""CBC5B19884B24A59A4433D736D767EDD"",""assignmentId"":""91b4b3cc-c392-4fb5-9ab6-f8f237d2b9f4"",""projectId"":""e622c465-ee29-4445-8260-1f3431e06587""}","https://test12345.live/?participantId=CBC5B19884B24A59A4433D736D767EDD&assignmentId=91b4b3cc-c392-4fb5-9ab6-f8f237d2b9f4&projectId=e622c465-ee29-4445-8260-1f3431e06587","","null","<div style=""display: flex; justify-content: center; align-items: center;"">
                    <img src=""images/causal/causal_series_15/causal_series_15_a.jpg"" style=""width: 300px; height: 300px;"" />
                  </div>","null","",""
"","","","","","html-keyboard-response","7","100613","0.0-6.0-1.0","CBC5B19884B24A59A4433D736D767EDD","CBC5B19884B24A59A4433D736D767EDD","91b4b3cc-c392-4fb5-9ab6-f8f237d2b9f4","e622c465-ee29-4445-8260-1f3431e06587","{""participantId"":""CBC5B19884B24A59A4433D736D767EDD"",""assignmentId"":""91b4b3cc-c392-4fb5-9ab6-f8f237d2b9f4"",""projectId"":""e622c465-ee29-4445-8260-1f3431e06587""}","https://test12345.live/?participantId=CBC5B19884B24A59A4433D736D767EDD&assignmentId=91b4b3cc-c392-4fb5-9ab6-f8f237d2b9f4&projectId=e622c465-ee29-4445-8260-1f3431e06587","","null","<div style=""display: flex; justify-content: center; align-items: center;"">
                    <img src=""images/causal/causal_series_15/causal_series_15_b.jpg"" style=""width: 300px; height: 300px;"" />
                  </div>","null","",""
"","","","","","html-keyboard-response","8","103620","0.0-6.0-2.0","CBC5B19884B24A59A4433D736D767EDD","CBC5B19884B24A59A4433D736D767EDD","91b4b3cc-c392-4fb5-9ab6-f8f237d2b9f4","e622c465-ee29-4445-8260-1f3431e06587","{""participantId"":""CBC5B19884B24A59A4433D736D767EDD"",""assignmentId"":""91b4b3cc-c392-4fb5-9ab6-f8f237d2b9f4"",""projectId"":""e622c465-ee29-4445-8260-1f3431e06587""}","https://test12345.live/?participantId=CBC5B19884B24A59A4433D736D767EDD&assignmentId=91b4b3cc-c392-4fb5-9ab6-f8f237d2b9f4&projectId=e622c465-ee29-4445-8260-1f3431e06587","","null","<div style=""display: flex; justify-content: center; align-items: center;"">
                    <img src=""images/causal/causal_series_15/causal_series_15_c.jpg"" style=""width: 300px; height: 300px;"" />
                  </div>","null","",""
"","","","","","html-keyboard-response","9","106635","0.0-6.0-3.0","CBC5B19884B24A59A4433D736D767EDD","CBC5B19884B24A59A4433D736D767EDD","91b4b3cc-c392-4fb5-9ab6-f8f237d2b9f4","e622c465-ee29-4445-8260-1f3431e06587","{""participantId"":""CBC5B19884B24A59A4433D736D767EDD"",""assignmentId"":""91b4b3cc-c392-4fb5-9ab6-f8f237d2b9f4"",""projectId"":""e622c465-ee29-4445-8260-1f3431e06587""}","https://test12345.live/?participantId=CBC5B19884B24A59A4433D736D767EDD&assignmentId=91b4b3cc-c392-4fb5-9ab6-f8f237d2b9f4&projectId=e622c465-ee29-4445-8260-1f3431e06587","","null","<div style=""display: flex; justify-content: center; align-items: center;"">
                    <img src=""images/causal/causal_series_15/causal_series_15_d.jpg"" style=""width: 300px; height: 300px;"" />
                  </div>","null","",""
"","","","","","html-button-response","10","114731","0.0-8.0","CBC5B19884B24A59A4433D736D767EDD","CBC5B19884B24A59A4433D736D767EDD","91b4b3cc-c392-4fb5-9ab6-f8f237d2b9f4","e622c465-ee29-4445-8260-1f3431e06587","{""participantId"":""CBC5B19884B24A59A4433D736D767EDD"",""assignmentId"":""91b4b3cc-c392-4fb5-9ab6-f8f237d2b9f4"",""projectId"":""e622c465-ee29-4445-8260-1f3431e06587""}","https://test12345.live/?participantId=CBC5B19884B24A59A4433D736D767EDD&assignmentId=91b4b3cc-c392-4fb5-9ab6-f8f237d2b9f4&projectId=e622c465-ee29-4445-8260-1f3431e06587","","8095","Was there a person in the picture?","0","",""
"","","","","","survey-likert","11","119014","0.0-9.0","CBC5B19884B24A59A4433D736D767EDD","CBC5B19884B24A59A4433D736D767EDD","91b4b3cc-c392-4fb5-9ab6-f8f237d2b9f4","e622c465-ee29-4445-8260-1f3431e06587","{""participantId"":""CBC5B19884B24A59A4433D736D767EDD"",""assignmentId"":""91b4b3cc-c392-4fb5-9ab6-f8f237d2b9f4"",""projectId"":""e622c465-ee29-4445-8260-1f3431e06587""}","https://test12345.live/?participantId=CBC5B19884B24A59A4433D736D767EDD&assignmentId=91b4b3cc-c392-4fb5-9ab6-f8f237d2b9f4&projectId=e622c465-ee29-4445-8260-1f3431e06587","","4280","","{""Q0"":4}","","[0]"
"","","","","","html-button-response","12","120386","0.0-10.0","CBC5B19884B24A59A4433D736D767EDD","CBC5B19884B24A59A4433D736D767EDD","91b4b3cc-c392-4fb5-9ab6-f8f237d2b9f4","e622c465-ee29-4445-8260-1f3431e06587","{""participantId"":""CBC5B19884B24A59A4433D736D767EDD"",""assignmentId"":""91b4b3cc-c392-4fb5-9ab6-f8f237d2b9f4"",""projectId"":""e622c465-ee29-4445-8260-1f3431e06587""}","https://test12345.live/?participantId=CBC5B19884B24A59A4433D736D767EDD&assignmentId=91b4b3cc-c392-4fb5-9ab6-f8f237d2b9f4&projectId=e622c465-ee29-4445-8260-1f3431e06587","","1370","
    <div style=""display: flex; justify-content: center; align-items: center;"">
      <img src=""images/blue_deck_1.png"" style=""width: 300px; height: 300px; margin-right: 10px;"" />
      <img src=""images/red_deck_2.png"" style=""width: 300px; height: 300px;"" />
    </div>","1","1",""
"","","","","","html-keyboard-response","13","123397","0.0-12.0-0.0","CBC5B19884B24A59A4433D736D767EDD","CBC5B19884B24A59A4433D736D767EDD","91b4b3cc-c392-4fb5-9ab6-f8f237d2b9f4","e622c465-ee29-4445-8260-1f3431e06587","{""participantId"":""CBC5B19884B24A59A4433D736D767EDD"",""assignmentId"":""91b4b3cc-c392-4fb5-9ab6-f8f237d2b9f4"",""projectId"":""e622c465-ee29-4445-8260-1f3431e06587""}","https://test12345.live/?participantId=CBC5B19884B24A59A4433D736D767EDD&assignmentId=91b4b3cc-c392-4fb5-9ab6-f8f237d2b9f4&projectId=e622c465-ee29-4445-8260-1f3431e06587","","null","<div style=""display: flex; justify-content: center; align-items: center;"">
                    <img src=""images/semantic/semantic_series_2/semantic_series_2_a.jpg"" style=""width: 300px; height: 300px;"" />
                  </div>","null","",""
"","","","","","html-keyboard-response","14","126401","0.0-12.0-1.0","CBC5B19884B24A59A4433D736D767EDD","CBC5B19884B24A59A4433D736D767EDD","91b4b3cc-c392-4fb5-9ab6-f8f237d2b9f4","e622c465-ee29-4445-8260-1f3431e06587","{""participantId"":""CBC5B19884B24A59A4433D736D767EDD"",""assignmentId"":""91b4b3cc-c392-4fb5-9ab6-f8f237d2b9f4"",""projectId"":""e622c465-ee29-4445-8260-1f3431e06587""}","https://test12345.live/?participantId=CBC5B19884B24A59A4433D736D767EDD&assignmentId=91b4b3cc-c392-4fb5-9ab6-f8f237d2b9f4&projectId=e622c465-ee29-4445-8260-1f3431e06587","","null","<div style=""display: flex; justify-content: center; align-items: center;"">
                    <img src=""images/semantic/semantic_series_2/semantic_series_2_b.jpg"" style=""width: 300px; height: 300px;"" />
                  </div>","null","",""
"","","","","","html-keyboard-response","15","129416","0.0-12.0-2.0","CBC5B19884B24A59A4433D736D767EDD","CBC5B19884B24A59A4433D736D767EDD","91b4b3cc-c392-4fb5-9ab6-f8f237d2b9f4","e622c465-ee29-4445-8260-1f3431e06587","{""participantId"":""CBC5B19884B24A59A4433D736D767EDD"",""assignmentId"":""91b4b3cc-c392-4fb5-9ab6-f8f237d2b9f4"",""projectId"":""e622c465-ee29-4445-8260-1f3431e06587""}","https://test12345.live/?participantId=CBC5B19884B24A59A4433D736D767EDD&assignmentId=91b4b3cc-c392-4fb5-9ab6-f8f237d2b9f4&projectId=e622c465-ee29-4445-8260-1f3431e06587","","null","<div style=""display: flex; justify-content: center; align-items: center;"">
                    <img src=""images/semantic/semantic_series_2/semantic_series_2_c.jpg"" style=""width: 300px; height: 300px;"" />
                  </div>","null","",""
"","","","","","html-keyboard-response","16","132424","0.0-12.0-3.0","CBC5B19884B24A59A4433D736D767EDD","CBC5B19884B24A59A4433D736D767EDD","91b4b3cc-c392-4fb5-9ab6-f8f237d2b9f4","e622c465-ee29-4445-8260-1f3431e06587","{""participantId"":""CBC5B19884B24A59A4433D736D767EDD"",""assignmentId"":""91b4b3cc-c392-4fb5-9ab6-f8f237d2b9f4"",""projectId"":""e622c465-ee29-4445-8260-1f3431e06587""}","https://test12345.live/?participantId=CBC5B19884B24A59A4433D736D767EDD&assignmentId=91b4b3cc-c392-4fb5-9ab6-f8f237d2b9f4&projectId=e622c465-ee29-4445-8260-1f3431e06587","","null","<div style=""display: flex; justify-content: center; align-items: center;"">
                    <img src=""images/semantic/semantic_series_2/semantic_series_2_d.jpg"" style=""width: 300px; height: 300px;"" />
                  </div>","null","",""
"","","","","","html-button-response","17","134559","0.0-13.0","CBC5B19884B24A59A4433D736D767EDD","CBC5B19884B24A59A4433D736D767EDD","91b4b3cc-c392-4fb5-9ab6-f8f237d2b9f4","e622c465-ee29-4445-8260-1f3431e06587","{""participantId"":""CBC5B19884B24A59A4433D736D767EDD"",""assignmentId"":""91b4b3cc-c392-4fb5-9ab6-f8f237d2b9f4"",""projectId"":""e622c465-ee29-4445-8260-1f3431e06587""}","https://test12345.live/?participantId=CBC5B19884B24A59A4433D736D767EDD&assignmentId=91b4b3cc-c392-4fb5-9ab6-f8f237d2b9f4&projectId=e622c465-ee29-4445-8260-1f3431e06587","","2134","Was there a person in the picture?","0","",""
"","","","","","survey-likert","18","181453","0.0-14.0","CBC5B19884B24A59A4433D736D767EDD","CBC5B19884B24A59A4433D736D767EDD","91b4b3cc-c392-4fb5-9ab6-f8f237d2b9f4","e622c465-ee29-4445-8260-1f3431e06587","{""participantId"":""CBC5B19884B24A59A4433D736D767EDD"",""assignmentId"":""91b4b3cc-c392-4fb5-9ab6-f8f237d2b9f4"",""projectId"":""e622c465-ee29-4445-8260-1f3431e06587""}","https://test12345.live/?participantId=CBC5B19884B24A59A4433D736D767EDD&assignmentId=91b4b3cc-c392-4fb5-9ab6-f8f237d2b9f4&projectId=e622c465-ee29-4445-8260-1f3431e06587","","46893","","{""Q0"":4}","","[0]"
"","","","","","html-button-response","19","182689","0.0-15.0","CBC5B19884B24A59A4433D736D767EDD","CBC5B19884B24A59A4433D736D767EDD","91b4b3cc-c392-4fb5-9ab6-f8f237d2b9f4","e622c465-ee29-4445-8260-1f3431e06587","{""participantId"":""CBC5B19884B24A59A4433D736D767EDD"",""assignmentId"":""91b4b3cc-c392-4fb5-9ab6-f8f237d2b9f4"",""projectId"":""e622c465-ee29-4445-8260-1f3431e06587""}","https://test12345.live/?participantId=CBC5B19884B24A59A4433D736D767EDD&assignmentId=91b4b3cc-c392-4fb5-9ab6-f8f237d2b9f4&projectId=e622c465-ee29-4445-8260-1f3431e06587","","1235","
    <div style=""display: flex; justify-content: center; align-items: center;"">
      <img src=""images/blue_deck_1.png"" style=""width: 300px; height: 300px; margin-right: 10px;"" />
      <img src=""images/red_deck_2.png"" style=""width: 300px; height: 300px;"" />
    </div>","0","0",""
"","","","","","html-keyboard-response","20","185703","0.0-16.0-0.0","CBC5B19884B24A59A4433D736D767EDD","CBC5B19884B24A59A4433D736D767EDD","91b4b3cc-c392-4fb5-9ab6-f8f237d2b9f4","e622c465-ee29-4445-8260-1f3431e06587","{""participantId"":""CBC5B19884B24A59A4433D736D767EDD"",""assignmentId"":""91b4b3cc-c392-4fb5-9ab6-f8f237d2b9f4"",""projectId"":""e622c465-ee29-4445-8260-1f3431e06587""}","https://test12345.live/?participantId=CBC5B19884B24A59A4433D736D767EDD&assignmentId=91b4b3cc-c392-4fb5-9ab6-f8f237d2b9f4&projectId=e622c465-ee29-4445-8260-1f3431e06587","","null","<div style=""display: flex; justify-content: center; align-items: center;"">
                    <img src=""images/causal/causal_series_3/causal_series_3_a.jpg"" style=""width: 300px; height: 300px;"" />
                  </div>","null","",""
"","","","","","html-keyboard-response","21","188714","0.0-16.0-1.0","CBC5B19884B24A59A4433D736D767EDD","CBC5B19884B24A59A4433D736D767EDD","91b4b3cc-c392-4fb5-9ab6-f8f237d2b9f4","e622c465-ee29-4445-8260-1f3431e06587","{""participantId"":""CBC5B19884B24A59A4433D736D767EDD"",""assignmentId"":""91b4b3cc-c392-4fb5-9ab6-f8f237d2b9f4"",""projectId"":""e622c465-ee29-4445-8260-1f3431e06587""}","https://test12345.live/?participantId=CBC5B19884B24A59A4433D736D767EDD&assignmentId=91b4b3cc-c392-4fb5-9ab6-f8f237d2b9f4&projectId=e622c465-ee29-4445-8260-1f3431e06587","","null","<div style=""display: flex; justify-content: center; align-items: center;"">
                    <img src=""images/causal/causal_series_3/causal_series_3_b.jpg"" style=""width: 300px; height: 300px;"" />
                  </div>","null","",""
"","","","","","html-keyboard-response","22","191719","0.0-16.0-2.0","CBC5B19884B24A59A4433D736D767EDD","CBC5B19884B24A59A4433D736D767EDD","91b4b3cc-c392-4fb5-9ab6-f8f237d2b9f4","e622c465-ee29-4445-8260-1f3431e06587","{""participantId"":""CBC5B19884B24A59A4433D736D767EDD"",""assignmentId"":""91b4b3cc-c392-4fb5-9ab6-f8f237d2b9f4"",""projectId"":""e622c465-ee29-4445-8260-1f3431e06587""}","https://test12345.live/?participantId=CBC5B19884B24A59A4433D736D767EDD&assignmentId=91b4b3cc-c392-4fb5-9ab6-f8f237d2b9f4&projectId=e622c465-ee29-4445-8260-1f3431e06587","","null","<div style=""display: flex; justify-content: center; align-items: center;"">
                    <img src=""images/causal/causal_series_3/causal_series_3_c.jpg"" style=""width: 300px; height: 300px;"" />
                  </div>","null","",""
"","","","","","html-keyboard-response","23","194729","0.0-16.0-3.0","CBC5B19884B24A59A4433D736D767EDD","CBC5B19884B24A59A4433D736D767EDD","91b4b3cc-c392-4fb5-9ab6-f8f237d2b9f4","e622c465-ee29-4445-8260-1f3431e06587","{""participantId"":""CBC5B19884B24A59A4433D736D767EDD"",""assignmentId"":""91b4b3cc-c392-4fb5-9ab6-f8f237d2b9f4"",""projectId"":""e622c465-ee29-4445-8260-1f3431e06587""}","https://test12345.live/?participantId=CBC5B19884B24A59A4433D736D767EDD&assignmentId=91b4b3cc-c392-4fb5-9ab6-f8f237d2b9f4&projectId=e622c465-ee29-4445-8260-1f3431e06587","","null","<div style=""display: flex; justify-content: center; align-items: center;"">
                    <img src=""images/causal/causal_series_3/causal_series_3_d.jpg"" style=""width: 300px; height: 300px;"" />
                  </div>","null","",""
"","","","","","html-button-response","24","198026","0.0-18.0","CBC5B19884B24A59A4433D736D767EDD","CBC5B19884B24A59A4433D736D767EDD","91b4b3cc-c392-4fb5-9ab6-f8f237d2b9f4","e622c465-ee29-4445-8260-1f3431e06587","{""participantId"":""CBC5B19884B24A59A4433D736D767EDD"",""assignmentId"":""91b4b3cc-c392-4fb5-9ab6-f8f237d2b9f4"",""projectId"":""e622c465-ee29-4445-8260-1f3431e06587""}","https://test12345.live/?participantId=CBC5B19884B24A59A4433D736D767EDD&assignmentId=91b4b3cc-c392-4fb5-9ab6-f8f237d2b9f4&projectId=e622c465-ee29-4445-8260-1f3431e06587","","3295","Was there a person in the picture?","0","",""
"","","","","","survey-likert","25","199588","0.0-19.0","CBC5B19884B24A59A4433D736D767EDD","CBC5B19884B24A59A4433D736D767EDD","91b4b3cc-c392-4fb5-9ab6-f8f237d2b9f4","e622c465-ee29-4445-8260-1f3431e06587","{""participantId"":""CBC5B19884B24A59A4433D736D767EDD"",""assignmentId"":""91b4b3cc-c392-4fb5-9ab6-f8f237d2b9f4"",""projectId"":""e622c465-ee29-4445-8260-1f3431e06587""}","https://test12345.live/?participantId=CBC5B19884B24A59A4433D736D767EDD&assignmentId=91b4b3cc-c392-4fb5-9ab6-f8f237d2b9f4&projectId=e622c465-ee29-4445-8260-1f3431e06587","","1560","","{""Q0"":4}","","[0]"
"","","","","","html-button-response","26","201730","0.0-20.0","CBC5B19884B24A59A4433D736D767EDD","CBC5B19884B24A59A4433D736D767EDD","91b4b3cc-c392-4fb5-9ab6-f8f237d2b9f4","e622c465-ee29-4445-8260-1f3431e06587","{""participantId"":""CBC5B19884B24A59A4433D736D767EDD"",""assignmentId"":""91b4b3cc-c392-4fb5-9ab6-f8f237d2b9f4"",""projectId"":""e622c465-ee29-4445-8260-1f3431e06587""}","https://test12345.live/?participantId=CBC5B19884B24A59A4433D736D767EDD&assignmentId=91b4b3cc-c392-4fb5-9ab6-f8f237d2b9f4&projectId=e622c465-ee29-4445-8260-1f3431e06587","","2140","
    <div style=""display: flex; justify-content: center; align-items: center;"">
      <img src=""images/blue_deck_1.png"" style=""width: 300px; height: 300px; margin-right: 10px;"" />
      <img src=""images/red_deck_2.png"" style=""width: 300px; height: 300px;"" />
    </div>","0","0",""
"","","","","","html-keyboard-response","27","204734","0.0-21.0-0.0","CBC5B19884B24A59A4433D736D767EDD","CBC5B19884B24A59A4433D736D767EDD","91b4b3cc-c392-4fb5-9ab6-f8f237d2b9f4","e622c465-ee29-4445-8260-1f3431e06587","{""participantId"":""CBC5B19884B24A59A4433D736D767EDD"",""assignmentId"":""91b4b3cc-c392-4fb5-9ab6-f8f237d2b9f4"",""projectId"":""e622c465-ee29-4445-8260-1f3431e06587""}","https://test12345.live/?participantId=CBC5B19884B24A59A4433D736D767EDD&assignmentId=91b4b3cc-c392-4fb5-9ab6-f8f237d2b9f4&projectId=e622c465-ee29-4445-8260-1f3431e06587","","null","<div style=""display: flex; justify-content: center; align-items: center;"">
                    <img src=""images/causal/causal_series_10/causal_series_10_a.jpg"" style=""width: 300px; height: 300px;"" />
                  </div>","null","",""
"","","","","","html-keyboard-response","28","207734","0.0-21.0-1.0","CBC5B19884B24A59A4433D736D767EDD","CBC5B19884B24A59A4433D736D767EDD","91b4b3cc-c392-4fb5-9ab6-f8f237d2b9f4","e622c465-ee29-4445-8260-1f3431e06587","{""participantId"":""CBC5B19884B24A59A4433D736D767EDD"",""assignmentId"":""91b4b3cc-c392-4fb5-9ab6-f8f237d2b9f4"",""projectId"":""e622c465-ee29-4445-8260-1f3431e06587""}","https://test12345.live/?participantId=CBC5B19884B24A59A4433D736D767EDD&assignmentId=91b4b3cc-c392-4fb5-9ab6-f8f237d2b9f4&projectId=e622c465-ee29-4445-8260-1f3431e06587","","null","<div style=""display: flex; justify-content: center; align-items: center;"">
                    <img src=""images/causal/causal_series_10/causal_series_10_b.jpg"" style=""width: 300px; height: 300px;"" />
                  </div>","null","",""
"","","","","","html-keyboard-response","29","210747","0.0-21.0-2.0","CBC5B19884B24A59A4433D736D767EDD","CBC5B19884B24A59A4433D736D767EDD","91b4b3cc-c392-4fb5-9ab6-f8f237d2b9f4","e622c465-ee29-4445-8260-1f3431e06587","{""participantId"":""CBC5B19884B24A59A4433D736D767EDD"",""assignmentId"":""91b4b3cc-c392-4fb5-9ab6-f8f237d2b9f4"",""projectId"":""e622c465-ee29-4445-8260-1f3431e06587""}","https://test12345.live/?participantId=CBC5B19884B24A59A4433D736D767EDD&assignmentId=91b4b3cc-c392-4fb5-9ab6-f8f237d2b9f4&projectId=e622c465-ee29-4445-8260-1f3431e06587","","null","<div style=""display: flex; justify-content: center; align-items: center;"">
                    <img src=""images/causal/causal_series_10/causal_series_10_c.jpg"" style=""width: 300px; height: 300px;"" />
                  </div>","null","",""
"","","","","","html-keyboard-response","30","213758","0.0-21.0-3.0","CBC5B19884B24A59A4433D736D767EDD","CBC5B19884B24A59A4433D736D767EDD","91b4b3cc-c392-4fb5-9ab6-f8f237d2b9f4","e622c465-ee29-4445-8260-1f3431e06587","{""participantId"":""CBC5B19884B24A59A4433D736D767EDD"",""assignmentId"":""91b4b3cc-c392-4fb5-9ab6-f8f237d2b9f4"",""projectId"":""e622c465-ee29-4445-8260-1f3431e06587""}","https://test12345.live/?participantId=CBC5B19884B24A59A4433D736D767EDD&assignmentId=91b4b3cc-c392-4fb5-9ab6-f8f237d2b9f4&projectId=e622c465-ee29-4445-8260-1f3431e06587","","null","<div style=""display: flex; justify-content: center; align-items: center;"">
                    <img src=""images/causal/causal_series_10/causal_series_10_d.jpg"" style=""width: 300px; height: 300px;"" />
                  </div>","null","",""
"","","","","","html-button-response","31","214791","0.0-23.0","CBC5B19884B24A59A4433D736D767EDD","CBC5B19884B24A59A4433D736D767EDD","91b4b3cc-c392-4fb5-9ab6-f8f237d2b9f4","e622c465-ee29-4445-8260-1f3431e06587","{""participantId"":""CBC5B19884B24A59A4433D736D767EDD"",""assignmentId"":""91b4b3cc-c392-4fb5-9ab6-f8f237d2b9f4"",""projectId"":""e622c465-ee29-4445-8260-1f3431e06587""}","https://test12345.live/?participantId=CBC5B19884B24A59A4433D736D767EDD&assignmentId=91b4b3cc-c392-4fb5-9ab6-f8f237d2b9f4&projectId=e622c465-ee29-4445-8260-1f3431e06587","","1031","Was there a person in the picture?","1","",""
"","","","","","survey-likert","32","216098","0.0-24.0","CBC5B19884B24A59A4433D736D767EDD","CBC5B19884B24A59A4433D736D767EDD","91b4b3cc-c392-4fb5-9ab6-f8f237d2b9f4","e622c465-ee29-4445-8260-1f3431e06587","{""participantId"":""CBC5B19884B24A59A4433D736D767EDD"",""assignmentId"":""91b4b3cc-c392-4fb5-9ab6-f8f237d2b9f4"",""projectId"":""e622c465-ee29-4445-8260-1f3431e06587""}","https://test12345.live/?participantId=CBC5B19884B24A59A4433D736D767EDD&assignmentId=91b4b3cc-c392-4fb5-9ab6-f8f237d2b9f4&projectId=e622c465-ee29-4445-8260-1f3431e06587","","1306","","{""Q0"":4}","","[0]"
"","","","","","html-button-response","33","217009","0.0-25.0","CBC5B19884B24A59A4433D736D767EDD","CBC5B19884B24A59A4433D736D767EDD","91b4b3cc-c392-4fb5-9ab6-f8f237d2b9f4","e622c465-ee29-4445-8260-1f3431e06587","{""participantId"":""CBC5B19884B24A59A4433D736D767EDD"",""assignmentId"":""91b4b3cc-c392-4fb5-9ab6-f8f237d2b9f4"",""projectId"":""e622c465-ee29-4445-8260-1f3431e06587""}","https://test12345.live/?participantId=CBC5B19884B24A59A4433D736D767EDD&assignmentId=91b4b3cc-c392-4fb5-9ab6-f8f237d2b9f4&projectId=e622c465-ee29-4445-8260-1f3431e06587","","908","
    <div style=""display: flex; justify-content: center; align-items: center;"">
      <img src=""images/blue_deck_1.png"" style=""width: 300px; height: 300px; margin-right: 10px;"" />
      <img src=""images/red_deck_2.png"" style=""width: 300px; height: 300px;"" />
    </div>","1","1",""
"","","","","","html-keyboard-response","34","220023","0.0-27.0-0.0","CBC5B19884B24A59A4433D736D767EDD","CBC5B19884B24A59A4433D736D767EDD","91b4b3cc-c392-4fb5-9ab6-f8f237d2b9f4","e622c465-ee29-4445-8260-1f3431e06587","{""participantId"":""CBC5B19884B24A59A4433D736D767EDD"",""assignmentId"":""91b4b3cc-c392-4fb5-9ab6-f8f237d2b9f4"",""projectId"":""e622c465-ee29-4445-8260-1f3431e06587""}","https://test12345.live/?participantId=CBC5B19884B24A59A4433D736D767EDD&assignmentId=91b4b3cc-c392-4fb5-9ab6-f8f237d2b9f4&projectId=e622c465-ee29-4445-8260-1f3431e06587","","null","<div style=""display: flex; justify-content: center; align-items: center;"">
                    <img src=""images/semantic/semantic_series_18/semantic_series_18_a.jpg"" style=""width: 300px; height: 300px;"" />
                  </div>","null","",""
"","","","","","html-keyboard-response","35","223033","0.0-27.0-1.0","CBC5B19884B24A59A4433D736D767EDD","CBC5B19884B24A59A4433D736D767EDD","91b4b3cc-c392-4fb5-9ab6-f8f237d2b9f4","e622c465-ee29-4445-8260-1f3431e06587","{""participantId"":""CBC5B19884B24A59A4433D736D767EDD"",""assignmentId"":""91b4b3cc-c392-4fb5-9ab6-f8f237d2b9f4"",""projectId"":""e622c465-ee29-4445-8260-1f3431e06587""}","https://test12345.live/?participantId=CBC5B19884B24A59A4433D736D767EDD&assignmentId=91b4b3cc-c392-4fb5-9ab6-f8f237d2b9f4&projectId=e622c465-ee29-4445-8260-1f3431e06587","","null","<div style=""display: flex; justify-content: center; align-items: center;"">
                    <img src=""images/semantic/semantic_series_18/semantic_series_18_b.jpg"" style=""width: 300px; height: 300px;"" />
                  </div>","null","",""
"","","","","","html-keyboard-response","36","226049","0.0-27.0-2.0","CBC5B19884B24A59A4433D736D767EDD","CBC5B19884B24A59A4433D736D767EDD","91b4b3cc-c392-4fb5-9ab6-f8f237d2b9f4","e622c465-ee29-4445-8260-1f3431e06587","{""participantId"":""CBC5B19884B24A59A4433D736D767EDD"",""assignmentId"":""91b4b3cc-c392-4fb5-9ab6-f8f237d2b9f4"",""projectId"":""e622c465-ee29-4445-8260-1f3431e06587""}","https://test12345.live/?participantId=CBC5B19884B24A59A4433D736D767EDD&assignmentId=91b4b3cc-c392-4fb5-9ab6-f8f237d2b9f4&projectId=e622c465-ee29-4445-8260-1f3431e06587","","null","<div style=""display: flex; justify-content: center; align-items: center;"">
                    <img src=""images/semantic/semantic_series_18/semantic_series_18_c.jpg"" style=""width: 300px; height: 300px;"" />
                  </div>","null","",""
"","","","","","html-keyboard-response","37","229060","0.0-27.0-3.0","CBC5B19884B24A59A4433D736D767EDD","CBC5B19884B24A59A4433D736D767EDD","91b4b3cc-c392-4fb5-9ab6-f8f237d2b9f4","e622c465-ee29-4445-8260-1f3431e06587","{""participantId"":""CBC5B19884B24A59A4433D736D767EDD"",""assignmentId"":""91b4b3cc-c392-4fb5-9ab6-f8f237d2b9f4"",""projectId"":""e622c465-ee29-4445-8260-1f3431e06587""}","https://test12345.live/?participantId=CBC5B19884B24A59A4433D736D767EDD&assignmentId=91b4b3cc-c392-4fb5-9ab6-f8f237d2b9f4&projectId=e622c465-ee29-4445-8260-1f3431e06587","","null","<div style=""display: flex; justify-content: center; align-items: center;"">
                    <img src=""images/semantic/semantic_series_18/semantic_series_18_d.jpg"" style=""width: 300px; height: 300px;"" />
                  </div>","null","",""
"","","","","","html-button-response","38","230958","0.0-28.0","CBC5B19884B24A59A4433D736D767EDD","CBC5B19884B24A59A4433D736D767EDD","91b4b3cc-c392-4fb5-9ab6-f8f237d2b9f4","e622c465-ee29-4445-8260-1f3431e06587","{""participantId"":""CBC5B19884B24A59A4433D736D767EDD"",""assignmentId"":""91b4b3cc-c392-4fb5-9ab6-f8f237d2b9f4"",""projectId"":""e622c465-ee29-4445-8260-1f3431e06587""}","https://test12345.live/?participantId=CBC5B19884B24A59A4433D736D767EDD&assignmentId=91b4b3cc-c392-4fb5-9ab6-f8f237d2b9f4&projectId=e622c465-ee29-4445-8260-1f3431e06587","","1897","Was there a person in the picture?","1","",""
"","","","","","survey-likert","39","238664","0.0-29.0","CBC5B19884B24A59A4433D736D767EDD","CBC5B19884B24A59A4433D736D767EDD","91b4b3cc-c392-4fb5-9ab6-f8f237d2b9f4","e622c465-ee29-4445-8260-1f3431e06587","{""participantId"":""CBC5B19884B24A59A4433D736D767EDD"",""assignmentId"":""91b4b3cc-c392-4fb5-9ab6-f8f237d2b9f4"",""projectId"":""e622c465-ee29-4445-8260-1f3431e06587""}","https://test12345.live/?participantId=CBC5B19884B24A59A4433D736D767EDD&assignmentId=91b4b3cc-c392-4fb5-9ab6-f8f237d2b9f4&projectId=e622c465-ee29-4445-8260-1f3431e06587","","7704","","{""Q0"":2}","","[0]"
"","","","","","html-button-response","40","239571","0.0-30.0","CBC5B19884B24A59A4433D736D767EDD","CBC5B19884B24A59A4433D736D767EDD","91b4b3cc-c392-4fb5-9ab6-f8f237d2b9f4","e622c465-ee29-4445-8260-1f3431e06587","{""participantId"":""CBC5B19884B24A59A4433D736D767EDD"",""assignmentId"":""91b4b3cc-c392-4fb5-9ab6-f8f237d2b9f4"",""projectId"":""e622c465-ee29-4445-8260-1f3431e06587""}","https://test12345.live/?participantId=CBC5B19884B24A59A4433D736D767EDD&assignmentId=91b4b3cc-c392-4fb5-9ab6-f8f237d2b9f4&projectId=e622c465-ee29-4445-8260-1f3431e06587","","906","
    <div style=""display: flex; justify-content: center; align-items: center;"">
      <img src=""images/blue_deck_1.png"" style=""width: 300px; height: 300px; margin-right: 10px;"" />
      <img src=""images/red_deck_2.png"" style=""width: 300px; height: 300px;"" />
    </div>","0","0",""
"","","","","","html-keyboard-response","41","242584","0.0-31.0-0.0","CBC5B19884B24A59A4433D736D767EDD","CBC5B19884B24A59A4433D736D767EDD","91b4b3cc-c392-4fb5-9ab6-f8f237d2b9f4","e622c465-ee29-4445-8260-1f3431e06587","{""participantId"":""CBC5B19884B24A59A4433D736D767EDD"",""assignmentId"":""91b4b3cc-c392-4fb5-9ab6-f8f237d2b9f4"",""projectId"":""e622c465-ee29-4445-8260-1f3431e06587""}","https://test12345.live/?participantId=CBC5B19884B24A59A4433D736D767EDD&assignmentId=91b4b3cc-c392-4fb5-9ab6-f8f237d2b9f4&projectId=e622c465-ee29-4445-8260-1f3431e06587","","null","<div style=""display: flex; justify-content: center; align-items: center;"">
                    <img src=""images/causal/causal_series_18/causal_series_18_a.jpg"" style=""width: 300px; height: 300px;"" />
                  </div>","null","",""
"","","","","","html-keyboard-response","42","245594","0.0-31.0-1.0","CBC5B19884B24A59A4433D736D767EDD","CBC5B19884B24A59A4433D736D767EDD","91b4b3cc-c392-4fb5-9ab6-f8f237d2b9f4","e622c465-ee29-4445-8260-1f3431e06587","{""participantId"":""CBC5B19884B24A59A4433D736D767EDD"",""assignmentId"":""91b4b3cc-c392-4fb5-9ab6-f8f237d2b9f4"",""projectId"":""e622c465-ee29-4445-8260-1f3431e06587""}","https://test12345.live/?participantId=CBC5B19884B24A59A4433D736D767EDD&assignmentId=91b4b3cc-c392-4fb5-9ab6-f8f237d2b9f4&projectId=e622c465-ee29-4445-8260-1f3431e06587","","null","<div style=""display: flex; justify-content: center; align-items: center;"">
                    <img src=""images/causal/causal_series_18/causal_series_18_b.jpg"" style=""width: 300px; height: 300px;"" />
                  </div>","null","",""
"","","","","","html-keyboard-response","43","248603","0.0-31.0-2.0","CBC5B19884B24A59A4433D736D767EDD","CBC5B19884B24A59A4433D736D767EDD","91b4b3cc-c392-4fb5-9ab6-f8f237d2b9f4","e622c465-ee29-4445-8260-1f3431e06587","{""participantId"":""CBC5B19884B24A59A4433D736D767EDD"",""assignmentId"":""91b4b3cc-c392-4fb5-9ab6-f8f237d2b9f4"",""projectId"":""e622c465-ee29-4445-8260-1f3431e06587""}","https://test12345.live/?participantId=CBC5B19884B24A59A4433D736D767EDD&assignmentId=91b4b3cc-c392-4fb5-9ab6-f8f237d2b9f4&projectId=e622c465-ee29-4445-8260-1f3431e06587","","null","<div style=""display: flex; justify-content: center; align-items: center;"">
                    <img src=""images/causal/causal_series_18/causal_series_18_c.jpg"" style=""width: 300px; height: 300px;"" />
                  </div>","null","",""
"","","","","","html-keyboard-response","44","251618","0.0-31.0-3.0","CBC5B19884B24A59A4433D736D767EDD","CBC5B19884B24A59A4433D736D767EDD","91b4b3cc-c392-4fb5-9ab6-f8f237d2b9f4","e622c465-ee29-4445-8260-1f3431e06587","{""participantId"":""CBC5B19884B24A59A4433D736D767EDD"",""assignmentId"":""91b4b3cc-c392-4fb5-9ab6-f8f237d2b9f4"",""projectId"":""e622c465-ee29-4445-8260-1f3431e06587""}","https://test12345.live/?participantId=CBC5B19884B24A59A4433D736D767EDD&assignmentId=91b4b3cc-c392-4fb5-9ab6-f8f237d2b9f4&projectId=e622c465-ee29-4445-8260-1f3431e06587","","null","<div style=""display: flex; justify-content: center; align-items: center;"">
                    <img src=""images/causal/causal_series_18/causal_series_18_d.jpg"" style=""width: 300px; height: 300px;"" />
                  </div>","null","",""
"","","","","","html-button-response","45","267296","0.0-33.0","CBC5B19884B24A59A4433D736D767EDD","CBC5B19884B24A59A4433D736D767EDD","91b4b3cc-c392-4fb5-9ab6-f8f237d2b9f4","e622c465-ee29-4445-8260-1f3431e06587","{""participantId"":""CBC5B19884B24A59A4433D736D767EDD"",""assignmentId"":""91b4b3cc-c392-4fb5-9ab6-f8f237d2b9f4"",""projectId"":""e622c465-ee29-4445-8260-1f3431e06587""}","https://test12345.live/?participantId=CBC5B19884B24A59A4433D736D767EDD&assignmentId=91b4b3cc-c392-4fb5-9ab6-f8f237d2b9f4&projectId=e622c465-ee29-4445-8260-1f3431e06587","","15677","Was there a person in the picture?","1","",""
"","","","","","survey-likert","46","269484","0.0-34.0","CBC5B19884B24A59A4433D736D767EDD","CBC5B19884B24A59A4433D736D767EDD","91b4b3cc-c392-4fb5-9ab6-f8f237d2b9f4","e622c465-ee29-4445-8260-1f3431e06587","{""participantId"":""CBC5B19884B24A59A4433D736D767EDD"",""assignmentId"":""91b4b3cc-c392-4fb5-9ab6-f8f237d2b9f4"",""projectId"":""e622c465-ee29-4445-8260-1f3431e06587""}","https://test12345.live/?participantId=CBC5B19884B24A59A4433D736D767EDD&assignmentId=91b4b3cc-c392-4fb5-9ab6-f8f237d2b9f4&projectId=e622c465-ee29-4445-8260-1f3431e06587","","2187","","{""Q0"":2}","","[0]"
"","","","","","html-button-response","47","271224","0.0-35.0","CBC5B19884B24A59A4433D736D767EDD","CBC5B19884B24A59A4433D736D767EDD","91b4b3cc-c392-4fb5-9ab6-f8f237d2b9f4","e622c465-ee29-4445-8260-1f3431e06587","{""participantId"":""CBC5B19884B24A59A4433D736D767EDD"",""assignmentId"":""91b4b3cc-c392-4fb5-9ab6-f8f237d2b9f4"",""projectId"":""e622c465-ee29-4445-8260-1f3431e06587""}","https://test12345.live/?participantId=CBC5B19884B24A59A4433D736D767EDD&assignmentId=91b4b3cc-c392-4fb5-9ab6-f8f237d2b9f4&projectId=e622c465-ee29-4445-8260-1f3431e06587","","1739","
    <div style=""display: flex; justify-content: center; align-items: center;"">
      <img src=""images/blue_deck_1.png"" style=""width: 300px; height: 300px; margin-right: 10px;"" />
      <img src=""images/red_deck_2.png"" style=""width: 300px; height: 300px;"" />
    </div>","1","1",""
"","","","","","html-keyboard-response","48","274240","0.0-37.0-0.0","CBC5B19884B24A59A4433D736D767EDD","CBC5B19884B24A59A4433D736D767EDD","91b4b3cc-c392-4fb5-9ab6-f8f237d2b9f4","e622c465-ee29-4445-8260-1f3431e06587","{""participantId"":""CBC5B19884B24A59A4433D736D767EDD"",""assignmentId"":""91b4b3cc-c392-4fb5-9ab6-f8f237d2b9f4"",""projectId"":""e622c465-ee29-4445-8260-1f3431e06587""}","https://test12345.live/?participantId=CBC5B19884B24A59A4433D736D767EDD&assignmentId=91b4b3cc-c392-4fb5-9ab6-f8f237d2b9f4&projectId=e622c465-ee29-4445-8260-1f3431e06587","","null","<div style=""display: flex; justify-content: center; align-items: center;"">
                    <img src=""images/semantic/semantic_series_15/semantic_series_15_a.jpg"" style=""width: 300px; height: 300px;"" />
                  </div>","null","",""
"","","","","","html-keyboard-response","49","277251","0.0-37.0-1.0","CBC5B19884B24A59A4433D736D767EDD","CBC5B19884B24A59A4433D736D767EDD","91b4b3cc-c392-4fb5-9ab6-f8f237d2b9f4","e622c465-ee29-4445-8260-1f3431e06587","{""participantId"":""CBC5B19884B24A59A4433D736D767EDD"",""assignmentId"":""91b4b3cc-c392-4fb5-9ab6-f8f237d2b9f4"",""projectId"":""e622c465-ee29-4445-8260-1f3431e06587""}","https://test12345.live/?participantId=CBC5B19884B24A59A4433D736D767EDD&assignmentId=91b4b3cc-c392-4fb5-9ab6-f8f237d2b9f4&projectId=e622c465-ee29-4445-8260-1f3431e06587","","null","<div style=""display: flex; justify-content: center; align-items: center;"">
                    <img src=""images/semantic/semantic_series_15/semantic_series_15_b.jpg"" style=""width: 300px; height: 300px;"" />
                  </div>","null","",""
"","","","","","html-keyboard-response","50","280266","0.0-37.0-2.0","CBC5B19884B24A59A4433D736D767EDD","CBC5B19884B24A59A4433D736D767EDD","91b4b3cc-c392-4fb5-9ab6-f8f237d2b9f4","e622c465-ee29-4445-8260-1f3431e06587","{""participantId"":""CBC5B19884B24A59A4433D736D767EDD"",""assignmentId"":""91b4b3cc-c392-4fb5-9ab6-f8f237d2b9f4"",""projectId"":""e622c465-ee29-4445-8260-1f3431e06587""}","https://test12345.live/?participantId=CBC5B19884B24A59A4433D736D767EDD&assignmentId=91b4b3cc-c392-4fb5-9ab6-f8f237d2b9f4&projectId=e622c465-ee29-4445-8260-1f3431e06587","","null","<div style=""display: flex; justify-content: center; align-items: center;"">
                    <img src=""images/semantic/semantic_series_15/semantic_series_15_c.jpg"" style=""width: 300px; height: 300px;"" />
                  </div>","null","",""
"","","","","","html-keyboard-response","51","283280","0.0-37.0-3.0","CBC5B19884B24A59A4433D736D767EDD","CBC5B19884B24A59A4433D736D767EDD","91b4b3cc-c392-4fb5-9ab6-f8f237d2b9f4","e622c465-ee29-4445-8260-1f3431e06587","{""participantId"":""CBC5B19884B24A59A4433D736D767EDD"",""assignmentId"":""91b4b3cc-c392-4fb5-9ab6-f8f237d2b9f4"",""projectId"":""e622c465-ee29-4445-8260-1f3431e06587""}","https://test12345.live/?participantId=CBC5B19884B24A59A4433D736D767EDD&assignmentId=91b4b3cc-c392-4fb5-9ab6-f8f237d2b9f4&projectId=e622c465-ee29-4445-8260-1f3431e06587","","null","<div style=""display: flex; justify-content: center; align-items: center;"">
                    <img src=""images/semantic/semantic_series_15/semantic_series_15_d.jpg"" style=""width: 300px; height: 300px;"" />
                  </div>","null","",""
"","","","","","html-button-response","52","284681","0.0-38.0","CBC5B19884B24A59A4433D736D767EDD","CBC5B19884B24A59A4433D736D767EDD","91b4b3cc-c392-4fb5-9ab6-f8f237d2b9f4","e622c465-ee29-4445-8260-1f3431e06587","{""participantId"":""CBC5B19884B24A59A4433D736D767EDD"",""assignmentId"":""91b4b3cc-c392-4fb5-9ab6-f8f237d2b9f4"",""projectId"":""e622c465-ee29-4445-8260-1f3431e06587""}","https://test12345.live/?participantId=CBC5B19884B24A59A4433D736D767EDD&assignmentId=91b4b3cc-c392-4fb5-9ab6-f8f237d2b9f4&projectId=e622c465-ee29-4445-8260-1f3431e06587","","1400","Was there a person in the picture?","1","",""
"","","","","","survey-likert","53","285731","0.0-39.0","CBC5B19884B24A59A4433D736D767EDD","CBC5B19884B24A59A4433D736D767EDD","91b4b3cc-c392-4fb5-9ab6-f8f237d2b9f4","e622c465-ee29-4445-8260-1f3431e06587","{""participantId"":""CBC5B19884B24A59A4433D736D767EDD"",""assignmentId"":""91b4b3cc-c392-4fb5-9ab6-f8f237d2b9f4"",""projectId"":""e622c465-ee29-4445-8260-1f3431e06587""}","https://test12345.live/?participantId=CBC5B19884B24A59A4433D736D767EDD&assignmentId=91b4b3cc-c392-4fb5-9ab6-f8f237d2b9f4&projectId=e622c465-ee29-4445-8260-1f3431e06587","","1048","","{""Q0"":4}","","[0]"
"","","","","","html-button-response","54","286495","0.0-40.0","CBC5B19884B24A59A4433D736D767EDD","CBC5B19884B24A59A4433D736D767EDD","91b4b3cc-c392-4fb5-9ab6-f8f237d2b9f4","e622c465-ee29-4445-8260-1f3431e06587","{""participantId"":""CBC5B19884B24A59A4433D736D767EDD"",""assignmentId"":""91b4b3cc-c392-4fb5-9ab6-f8f237d2b9f4"",""projectId"":""e622c465-ee29-4445-8260-1f3431e06587""}","https://test12345.live/?participantId=CBC5B19884B24A59A4433D736D767EDD&assignmentId=91b4b3cc-c392-4fb5-9ab6-f8f237d2b9f4&projectId=e622c465-ee29-4445-8260-1f3431e06587","","763","
    <div style=""display: flex; justify-content: center; align-items: center;"">
      <img src=""images/blue_deck_1.png"" style=""width: 300px; height: 300px; margin-right: 10px;"" />
      <img src=""images/red_deck_2.png"" style=""width: 300px; height: 300px;"" />
    </div>","0","0",""
"","","","","","html-keyboard-response","55","289497","0.0-41.0-0.0","CBC5B19884B24A59A4433D736D767EDD","CBC5B19884B24A59A4433D736D767EDD","91b4b3cc-c392-4fb5-9ab6-f8f237d2b9f4","e622c465-ee29-4445-8260-1f3431e06587","{""participantId"":""CBC5B19884B24A59A4433D736D767EDD"",""assignmentId"":""91b4b3cc-c392-4fb5-9ab6-f8f237d2b9f4"",""projectId"":""e622c465-ee29-4445-8260-1f3431e06587""}","https://test12345.live/?participantId=CBC5B19884B24A59A4433D736D767EDD&assignmentId=91b4b3cc-c392-4fb5-9ab6-f8f237d2b9f4&projectId=e622c465-ee29-4445-8260-1f3431e06587","","null","<div style=""display: flex; justify-content: center; align-items: center;"">
                    <img src=""images/causal/causal_series_11/causal_series_11_a.jpg"" style=""width: 300px; height: 300px;"" />
                  </div>","null","",""
"","","","","","html-keyboard-response","56","292514","0.0-41.0-1.0","CBC5B19884B24A59A4433D736D767EDD","CBC5B19884B24A59A4433D736D767EDD","91b4b3cc-c392-4fb5-9ab6-f8f237d2b9f4","e622c465-ee29-4445-8260-1f3431e06587","{""participantId"":""CBC5B19884B24A59A4433D736D767EDD"",""assignmentId"":""91b4b3cc-c392-4fb5-9ab6-f8f237d2b9f4"",""projectId"":""e622c465-ee29-4445-8260-1f3431e06587""}","https://test12345.live/?participantId=CBC5B19884B24A59A4433D736D767EDD&assignmentId=91b4b3cc-c392-4fb5-9ab6-f8f237d2b9f4&projectId=e622c465-ee29-4445-8260-1f3431e06587","","null","<div style=""display: flex; justify-content: center; align-items: center;"">
                    <img src=""images/causal/causal_series_11/causal_series_11_b.jpg"" style=""width: 300px; height: 300px;"" />
                  </div>","null","",""
"","","","","","html-keyboard-response","57","295530","0.0-41.0-2.0","CBC5B19884B24A59A4433D736D767EDD","CBC5B19884B24A59A4433D736D767EDD","91b4b3cc-c392-4fb5-9ab6-f8f237d2b9f4","e622c465-ee29-4445-8260-1f3431e06587","{""participantId"":""CBC5B19884B24A59A4433D736D767EDD"",""assignmentId"":""91b4b3cc-c392-4fb5-9ab6-f8f237d2b9f4"",""projectId"":""e622c465-ee29-4445-8260-1f3431e06587""}","https://test12345.live/?participantId=CBC5B19884B24A59A4433D736D767EDD&assignmentId=91b4b3cc-c392-4fb5-9ab6-f8f237d2b9f4&projectId=e622c465-ee29-4445-8260-1f3431e06587","","null","<div style=""display: flex; justify-content: center; align-items: center;"">
                    <img src=""images/causal/causal_series_11/causal_series_11_c.jpg"" style=""width: 300px; height: 300px;"" />
                  </div>","null","",""
"","","","","","html-keyboard-response","58","298533","0.0-41.0-3.0","CBC5B19884B24A59A4433D736D767EDD","CBC5B19884B24A59A4433D736D767EDD","91b4b3cc-c392-4fb5-9ab6-f8f237d2b9f4","e622c465-ee29-4445-8260-1f3431e06587","{""participantId"":""CBC5B19884B24A59A4433D736D767EDD"",""assignmentId"":""91b4b3cc-c392-4fb5-9ab6-f8f237d2b9f4"",""projectId"":""e622c465-ee29-4445-8260-1f3431e06587""}","https://test12345.live/?participantId=CBC5B19884B24A59A4433D736D767EDD&assignmentId=91b4b3cc-c392-4fb5-9ab6-f8f237d2b9f4&projectId=e622c465-ee29-4445-8260-1f3431e06587","","null","<div style=""display: flex; justify-content: center; align-items: center;"">
                    <img src=""images/causal/causal_series_11/causal_series_11_d.jpg"" style=""width: 300px; height: 300px;"" />
                  </div>","null","",""
"","","","","","html-button-response","59","299776","0.0-43.0","CBC5B19884B24A59A4433D736D767EDD","CBC5B19884B24A59A4433D736D767EDD","91b4b3cc-c392-4fb5-9ab6-f8f237d2b9f4","e622c465-ee29-4445-8260-1f3431e06587","{""participantId"":""CBC5B19884B24A59A4433D736D767EDD"",""assignmentId"":""91b4b3cc-c392-4fb5-9ab6-f8f237d2b9f4"",""projectId"":""e622c465-ee29-4445-8260-1f3431e06587""}","https://test12345.live/?participantId=CBC5B19884B24A59A4433D736D767EDD&assignmentId=91b4b3cc-c392-4fb5-9ab6-f8f237d2b9f4&projectId=e622c465-ee29-4445-8260-1f3431e06587","","1242","Was there a person in the picture?","0","",""
"","","","","","survey-likert","60","301649","0.0-44.0","CBC5B19884B24A59A4433D736D767EDD","CBC5B19884B24A59A4433D736D767EDD","91b4b3cc-c392-4fb5-9ab6-f8f237d2b9f4","e622c465-ee29-4445-8260-1f3431e06587","{""participantId"":""CBC5B19884B24A59A4433D736D767EDD"",""assignmentId"":""91b4b3cc-c392-4fb5-9ab6-f8f237d2b9f4"",""projectId"":""e622c465-ee29-4445-8260-1f3431e06587""}","https://test12345.live/?participantId=CBC5B19884B24A59A4433D736D767EDD&assignmentId=91b4b3cc-c392-4fb5-9ab6-f8f237d2b9f4&projectId=e622c465-ee29-4445-8260-1f3431e06587","","1872","","{""Q0"":4}","","[0]"
"","","","","","html-button-response","61","302749","0.0-45.0","CBC5B19884B24A59A4433D736D767EDD","CBC5B19884B24A59A4433D736D767EDD","91b4b3cc-c392-4fb5-9ab6-f8f237d2b9f4","e622c465-ee29-4445-8260-1f3431e06587","{""participantId"":""CBC5B19884B24A59A4433D736D767EDD"",""assignmentId"":""91b4b3cc-c392-4fb5-9ab6-f8f237d2b9f4"",""projectId"":""e622c465-ee29-4445-8260-1f3431e06587""}","https://test12345.live/?participantId=CBC5B19884B24A59A4433D736D767EDD&assignmentId=91b4b3cc-c392-4fb5-9ab6-f8f237d2b9f4&projectId=e622c465-ee29-4445-8260-1f3431e06587","","1096","
    <div style=""display: flex; justify-content: center; align-items: center;"">
      <img src=""images/blue_deck_1.png"" style=""width: 300px; height: 300px; margin-right: 10px;"" />
      <img src=""images/red_deck_2.png"" style=""width: 300px; height: 300px;"" />
    </div>","1","1",""
"","","","","","html-keyboard-response","62","305764","0.0-47.0-0.0","CBC5B19884B24A59A4433D736D767EDD","CBC5B19884B24A59A4433D736D767EDD","91b4b3cc-c392-4fb5-9ab6-f8f237d2b9f4","e622c465-ee29-4445-8260-1f3431e06587","{""participantId"":""CBC5B19884B24A59A4433D736D767EDD"",""assignmentId"":""91b4b3cc-c392-4fb5-9ab6-f8f237d2b9f4"",""projectId"":""e622c465-ee29-4445-8260-1f3431e06587""}","https://test12345.live/?participantId=CBC5B19884B24A59A4433D736D767EDD&assignmentId=91b4b3cc-c392-4fb5-9ab6-f8f237d2b9f4&projectId=e622c465-ee29-4445-8260-1f3431e06587","","null","<div style=""display: flex; justify-content: center; align-items: center;"">
                    <img src=""images/semantic/semantic_series_14/semantic_series_14_a.jpg"" style=""width: 300px; height: 300px;"" />
                  </div>","null","",""
"","","","","","html-keyboard-response","63","308781","0.0-47.0-1.0","CBC5B19884B24A59A4433D736D767EDD","CBC5B19884B24A59A4433D736D767EDD","91b4b3cc-c392-4fb5-9ab6-f8f237d2b9f4","e622c465-ee29-4445-8260-1f3431e06587","{""participantId"":""CBC5B19884B24A59A4433D736D767EDD"",""assignmentId"":""91b4b3cc-c392-4fb5-9ab6-f8f237d2b9f4"",""projectId"":""e622c465-ee29-4445-8260-1f3431e06587""}","https://test12345.live/?participantId=CBC5B19884B24A59A4433D736D767EDD&assignmentId=91b4b3cc-c392-4fb5-9ab6-f8f237d2b9f4&projectId=e622c465-ee29-4445-8260-1f3431e06587","","null","<div style=""display: flex; justify-content: center; align-items: center;"">
                    <img src=""images/semantic/semantic_series_14/semantic_series_14_b.jpg"" style=""width: 300px; height: 300px;"" />
                  </div>","null","",""
"","","","","","html-keyboard-response","64","311794","0.0-47.0-2.0","CBC5B19884B24A59A4433D736D767EDD","CBC5B19884B24A59A4433D736D767EDD","91b4b3cc-c392-4fb5-9ab6-f8f237d2b9f4","e622c465-ee29-4445-8260-1f3431e06587","{""participantId"":""CBC5B19884B24A59A4433D736D767EDD"",""assignmentId"":""91b4b3cc-c392-4fb5-9ab6-f8f237d2b9f4"",""projectId"":""e622c465-ee29-4445-8260-1f3431e06587""}","https://test12345.live/?participantId=CBC5B19884B24A59A4433D736D767EDD&assignmentId=91b4b3cc-c392-4fb5-9ab6-f8f237d2b9f4&projectId=e622c465-ee29-4445-8260-1f3431e06587","","null","<div style=""display: flex; justify-content: center; align-items: center;"">
                    <img src=""images/semantic/semantic_series_14/semantic_series_14_c.jpg"" style=""width: 300px; height: 300px;"" />
                  </div>","null","",""
"","","","","","html-keyboard-response","65","314810","0.0-47.0-3.0","CBC5B19884B24A59A4433D736D767EDD","CBC5B19884B24A59A4433D736D767EDD","91b4b3cc-c392-4fb5-9ab6-f8f237d2b9f4","e622c465-ee29-4445-8260-1f3431e06587","{""participantId"":""CBC5B19884B24A59A4433D736D767EDD"",""assignmentId"":""91b4b3cc-c392-4fb5-9ab6-f8f237d2b9f4"",""projectId"":""e622c465-ee29-4445-8260-1f3431e06587""}","https://test12345.live/?participantId=CBC5B19884B24A59A4433D736D767EDD&assignmentId=91b4b3cc-c392-4fb5-9ab6-f8f237d2b9f4&projectId=e622c465-ee29-4445-8260-1f3431e06587","","null","<div style=""display: flex; justify-content: center; align-items: center;"">
                    <img src=""images/semantic/semantic_series_14/semantic_series_14_d.jpg"" style=""width: 300px; height: 300px;"" />
                  </div>","null","",""
"","","","","","html-button-response","66","316506","0.0-48.0","CBC5B19884B24A59A4433D736D767EDD","CBC5B19884B24A59A4433D736D767EDD","91b4b3cc-c392-4fb5-9ab6-f8f237d2b9f4","e622c465-ee29-4445-8260-1f3431e06587","{""participantId"":""CBC5B19884B24A59A4433D736D767EDD"",""assignmentId"":""91b4b3cc-c392-4fb5-9ab6-f8f237d2b9f4"",""projectId"":""e622c465-ee29-4445-8260-1f3431e06587""}","https://test12345.live/?participantId=CBC5B19884B24A59A4433D736D767EDD&assignmentId=91b4b3cc-c392-4fb5-9ab6-f8f237d2b9f4&projectId=e622c465-ee29-4445-8260-1f3431e06587","","1694","Was there a person in the picture?","0","",""
"","","","","","survey-likert","67","318759","0.0-49.0","CBC5B19884B24A59A4433D736D767EDD","CBC5B19884B24A59A4433D736D767EDD","91b4b3cc-c392-4fb5-9ab6-f8f237d2b9f4","e622c465-ee29-4445-8260-1f3431e06587","{""participantId"":""CBC5B19884B24A59A4433D736D767EDD"",""assignmentId"":""91b4b3cc-c392-4fb5-9ab6-f8f237d2b9f4"",""projectId"":""e622c465-ee29-4445-8260-1f3431e06587""}","https://test12345.live/?participantId=CBC5B19884B24A59A4433D736D767EDD&assignmentId=91b4b3cc-c392-4fb5-9ab6-f8f237d2b9f4&projectId=e622c465-ee29-4445-8260-1f3431e06587","","2252","","{""Q0"":3}","","[0]"
"","","","","","html-button-response","68","319724","0.0-50.0","CBC5B19884B24A59A4433D736D767EDD","CBC5B19884B24A59A4433D736D767EDD","91b4b3cc-c392-4fb5-9ab6-f8f237d2b9f4","e622c465-ee29-4445-8260-1f3431e06587","{""participantId"":""CBC5B19884B24A59A4433D736D767EDD"",""assignmentId"":""91b4b3cc-c392-4fb5-9ab6-f8f237d2b9f4"",""projectId"":""e622c465-ee29-4445-8260-1f3431e06587""}","https://test12345.live/?participantId=CBC5B19884B24A59A4433D736D767EDD&assignmentId=91b4b3cc-c392-4fb5-9ab6-f8f237d2b9f4&projectId=e622c465-ee29-4445-8260-1f3431e06587","","964","
    <div style=""display: flex; justify-content: center; align-items: center;"">
      <img src=""images/blue_deck_1.png"" style=""width: 300px; height: 300px; margin-right: 10px;"" />
      <img src=""images/red_deck_2.png"" style=""width: 300px; height: 300px;"" />
    </div>","0","0",""
"","","","","","html-keyboard-response","69","322726","0.0-51.0-0.0","CBC5B19884B24A59A4433D736D767EDD","CBC5B19884B24A59A4433D736D767EDD","91b4b3cc-c392-4fb5-9ab6-f8f237d2b9f4","e622c465-ee29-4445-8260-1f3431e06587","{""participantId"":""CBC5B19884B24A59A4433D736D767EDD"",""assignmentId"":""91b4b3cc-c392-4fb5-9ab6-f8f237d2b9f4"",""projectId"":""e622c465-ee29-4445-8260-1f3431e06587""}","https://test12345.live/?participantId=CBC5B19884B24A59A4433D736D767EDD&assignmentId=91b4b3cc-c392-4fb5-9ab6-f8f237d2b9f4&projectId=e622c465-ee29-4445-8260-1f3431e06587","","null","<div style=""display: flex; justify-content: center; align-items: center;"">
                    <img src=""images/causal/causal_series_4/causal_series_4_a.jpg"" style=""width: 300px; height: 300px;"" />
                  </div>","null","",""
"","","","","","html-keyboard-response","70","325731","0.0-51.0-1.0","CBC5B19884B24A59A4433D736D767EDD","CBC5B19884B24A59A4433D736D767EDD","91b4b3cc-c392-4fb5-9ab6-f8f237d2b9f4","e622c465-ee29-4445-8260-1f3431e06587","{""participantId"":""CBC5B19884B24A59A4433D736D767EDD"",""assignmentId"":""91b4b3cc-c392-4fb5-9ab6-f8f237d2b9f4"",""projectId"":""e622c465-ee29-4445-8260-1f3431e06587""}","https://test12345.live/?participantId=CBC5B19884B24A59A4433D736D767EDD&assignmentId=91b4b3cc-c392-4fb5-9ab6-f8f237d2b9f4&projectId=e622c465-ee29-4445-8260-1f3431e06587","","null","<div style=""display: flex; justify-content: center; align-items: center;"">
                    <img src=""images/causal/causal_series_4/causal_series_4_b.jpg"" style=""width: 300px; height: 300px;"" />
                  </div>","null","",""
"","","","","","html-keyboard-response","71","328739","0.0-51.0-2.0","CBC5B19884B24A59A4433D736D767EDD","CBC5B19884B24A59A4433D736D767EDD","91b4b3cc-c392-4fb5-9ab6-f8f237d2b9f4","e622c465-ee29-4445-8260-1f3431e06587","{""participantId"":""CBC5B19884B24A59A4433D736D767EDD"",""assignmentId"":""91b4b3cc-c392-4fb5-9ab6-f8f237d2b9f4"",""projectId"":""e622c465-ee29-4445-8260-1f3431e06587""}","https://test12345.live/?participantId=CBC5B19884B24A59A4433D736D767EDD&assignmentId=91b4b3cc-c392-4fb5-9ab6-f8f237d2b9f4&projectId=e622c465-ee29-4445-8260-1f3431e06587","","null","<div style=""display: flex; justify-content: center; align-items: center;"">
                    <img src=""images/causal/causal_series_4/causal_series_4_c.jpg"" style=""width: 300px; height: 300px;"" />
                  </div>","null","",""
"","","","","","html-keyboard-response","72","331741","0.0-51.0-3.0","CBC5B19884B24A59A4433D736D767EDD","CBC5B19884B24A59A4433D736D767EDD","91b4b3cc-c392-4fb5-9ab6-f8f237d2b9f4","e622c465-ee29-4445-8260-1f3431e06587","{""participantId"":""CBC5B19884B24A59A4433D736D767EDD"",""assignmentId"":""91b4b3cc-c392-4fb5-9ab6-f8f237d2b9f4"",""projectId"":""e622c465-ee29-4445-8260-1f3431e06587""}","https://test12345.live/?participantId=CBC5B19884B24A59A4433D736D767EDD&assignmentId=91b4b3cc-c392-4fb5-9ab6-f8f237d2b9f4&projectId=e622c465-ee29-4445-8260-1f3431e06587","","null","<div style=""display: flex; justify-content: center; align-items: center;"">
                    <img src=""images/causal/causal_series_4/causal_series_4_d.jpg"" style=""width: 300px; height: 300px;"" />
                  </div>","null","",""
"","","","","","html-button-response","73","333237","0.0-53.0","CBC5B19884B24A59A4433D736D767EDD","CBC5B19884B24A59A4433D736D767EDD","91b4b3cc-c392-4fb5-9ab6-f8f237d2b9f4","e622c465-ee29-4445-8260-1f3431e06587","{""participantId"":""CBC5B19884B24A59A4433D736D767EDD"",""assignmentId"":""91b4b3cc-c392-4fb5-9ab6-f8f237d2b9f4"",""projectId"":""e622c465-ee29-4445-8260-1f3431e06587""}","https://test12345.live/?participantId=CBC5B19884B24A59A4433D736D767EDD&assignmentId=91b4b3cc-c392-4fb5-9ab6-f8f237d2b9f4&projectId=e622c465-ee29-4445-8260-1f3431e06587","","1494","Was there a person in the picture?","1","",""
"","","","","","survey-likert","74","336860","0.0-54.0","CBC5B19884B24A59A4433D736D767EDD","CBC5B19884B24A59A4433D736D767EDD","91b4b3cc-c392-4fb5-9ab6-f8f237d2b9f4","e622c465-ee29-4445-8260-1f3431e06587","{""participantId"":""CBC5B19884B24A59A4433D736D767EDD"",""assignmentId"":""91b4b3cc-c392-4fb5-9ab6-f8f237d2b9f4"",""projectId"":""e622c465-ee29-4445-8260-1f3431e06587""}","https://test12345.live/?participantId=CBC5B19884B24A59A4433D736D767EDD&assignmentId=91b4b3cc-c392-4fb5-9ab6-f8f237d2b9f4&projectId=e622c465-ee29-4445-8260-1f3431e06587","","3621","","{""Q0"":0}","","[0]"
"","","","","","html-button-response","75","337844","0.0-55.0","CBC5B19884B24A59A4433D736D767EDD","CBC5B19884B24A59A4433D736D767EDD","91b4b3cc-c392-4fb5-9ab6-f8f237d2b9f4","e622c465-ee29-4445-8260-1f3431e06587","{""participantId"":""CBC5B19884B24A59A4433D736D767EDD"",""assignmentId"":""91b4b3cc-c392-4fb5-9ab6-f8f237d2b9f4"",""projectId"":""e622c465-ee29-4445-8260-1f3431e06587""}","https://test12345.live/?participantId=CBC5B19884B24A59A4433D736D767EDD&assignmentId=91b4b3cc-c392-4fb5-9ab6-f8f237d2b9f4&projectId=e622c465-ee29-4445-8260-1f3431e06587","","982","
    <div style=""display: flex; justify-content: center; align-items: center;"">
      <img src=""images/blue_deck_1.png"" style=""width: 300px; height: 300px; margin-right: 10px;"" />
      <img src=""images/red_deck_2.png"" style=""width: 300px; height: 300px;"" />
    </div>","0","0",""
"","","","","","html-keyboard-response","76","340855","0.0-56.0-0.0","CBC5B19884B24A59A4433D736D767EDD","CBC5B19884B24A59A4433D736D767EDD","91b4b3cc-c392-4fb5-9ab6-f8f237d2b9f4","e622c465-ee29-4445-8260-1f3431e06587","{""participantId"":""CBC5B19884B24A59A4433D736D767EDD"",""assignmentId"":""91b4b3cc-c392-4fb5-9ab6-f8f237d2b9f4"",""projectId"":""e622c465-ee29-4445-8260-1f3431e06587""}","https://test12345.live/?participantId=CBC5B19884B24A59A4433D736D767EDD&assignmentId=91b4b3cc-c392-4fb5-9ab6-f8f237d2b9f4&projectId=e622c465-ee29-4445-8260-1f3431e06587","","null","<div style=""display: flex; justify-content: center; align-items: center;"">
                    <img src=""images/causal/causal_series_17/causal_series_17_a.jpg"" style=""width: 300px; height: 300px;"" />
                  </div>","null","",""
"","","","","","html-keyboard-response","77","343868","0.0-56.0-1.0","CBC5B19884B24A59A4433D736D767EDD","CBC5B19884B24A59A4433D736D767EDD","91b4b3cc-c392-4fb5-9ab6-f8f237d2b9f4","e622c465-ee29-4445-8260-1f3431e06587","{""participantId"":""CBC5B19884B24A59A4433D736D767EDD"",""assignmentId"":""91b4b3cc-c392-4fb5-9ab6-f8f237d2b9f4"",""projectId"":""e622c465-ee29-4445-8260-1f3431e06587""}","https://test12345.live/?participantId=CBC5B19884B24A59A4433D736D767EDD&assignmentId=91b4b3cc-c392-4fb5-9ab6-f8f237d2b9f4&projectId=e622c465-ee29-4445-8260-1f3431e06587","","null","<div style=""display: flex; justify-content: center; align-items: center;"">
                    <img src=""images/causal/causal_series_17/causal_series_17_b.jpg"" style=""width: 300px; height: 300px;"" />
                  </div>","null","",""
"","","","","","html-keyboard-response","78","346884","0.0-56.0-2.0","CBC5B19884B24A59A4433D736D767EDD","CBC5B19884B24A59A4433D736D767EDD","91b4b3cc-c392-4fb5-9ab6-f8f237d2b9f4","e622c465-ee29-4445-8260-1f3431e06587","{""participantId"":""CBC5B19884B24A59A4433D736D767EDD"",""assignmentId"":""91b4b3cc-c392-4fb5-9ab6-f8f237d2b9f4"",""projectId"":""e622c465-ee29-4445-8260-1f3431e06587""}","https://test12345.live/?participantId=CBC5B19884B24A59A4433D736D767EDD&assignmentId=91b4b3cc-c392-4fb5-9ab6-f8f237d2b9f4&projectId=e622c465-ee29-4445-8260-1f3431e06587","","null","<div style=""display: flex; justify-content: center; align-items: center;"">
                    <img src=""images/causal/causal_series_17/causal_series_17_c.jpg"" style=""width: 300px; height: 300px;"" />
                  </div>","null","",""
"","","","","","html-keyboard-response","79","349893","0.0-56.0-3.0","CBC5B19884B24A59A4433D736D767EDD","CBC5B19884B24A59A4433D736D767EDD","91b4b3cc-c392-4fb5-9ab6-f8f237d2b9f4","e622c465-ee29-4445-8260-1f3431e06587","{""participantId"":""CBC5B19884B24A59A4433D736D767EDD"",""assignmentId"":""91b4b3cc-c392-4fb5-9ab6-f8f237d2b9f4"",""projectId"":""e622c465-ee29-4445-8260-1f3431e06587""}","https://test12345.live/?participantId=CBC5B19884B24A59A4433D736D767EDD&assignmentId=91b4b3cc-c392-4fb5-9ab6-f8f237d2b9f4&projectId=e622c465-ee29-4445-8260-1f3431e06587","","null","<div style=""display: flex; justify-content: center; align-items: center;"">
                    <img src=""images/causal/causal_series_17/causal_series_17_d.jpg"" style=""width: 300px; height: 300px;"" />
                  </div>","null","",""
"","","","","","html-button-response","80","350837","0.0-58.0","CBC5B19884B24A59A4433D736D767EDD","CBC5B19884B24A59A4433D736D767EDD","91b4b3cc-c392-4fb5-9ab6-f8f237d2b9f4","e622c465-ee29-4445-8260-1f3431e06587","{""participantId"":""CBC5B19884B24A59A4433D736D767EDD"",""assignmentId"":""91b4b3cc-c392-4fb5-9ab6-f8f237d2b9f4"",""projectId"":""e622c465-ee29-4445-8260-1f3431e06587""}","https://test12345.live/?participantId=CBC5B19884B24A59A4433D736D767EDD&assignmentId=91b4b3cc-c392-4fb5-9ab6-f8f237d2b9f4&projectId=e622c465-ee29-4445-8260-1f3431e06587","","942","Was there a person in the picture?","1","",""
"","","","","","survey-likert","81","355624","0.0-59.0","CBC5B19884B24A59A4433D736D767EDD","CBC5B19884B24A59A4433D736D767EDD","91b4b3cc-c392-4fb5-9ab6-f8f237d2b9f4","e622c465-ee29-4445-8260-1f3431e06587","{""participantId"":""CBC5B19884B24A59A4433D736D767EDD"",""assignmentId"":""91b4b3cc-c392-4fb5-9ab6-f8f237d2b9f4"",""projectId"":""e622c465-ee29-4445-8260-1f3431e06587""}","https://test12345.live/?participantId=CBC5B19884B24A59A4433D736D767EDD&assignmentId=91b4b3cc-c392-4fb5-9ab6-f8f237d2b9f4&projectId=e622c465-ee29-4445-8260-1f3431e06587","","4787","","{""Q0"":3}","","[0]"
"","","","","","html-button-response","82","356553","0.0-60.0","CBC5B19884B24A59A4433D736D767EDD","CBC5B19884B24A59A4433D736D767EDD","91b4b3cc-c392-4fb5-9ab6-f8f237d2b9f4","e622c465-ee29-4445-8260-1f3431e06587","{""participantId"":""CBC5B19884B24A59A4433D736D767EDD"",""assignmentId"":""91b4b3cc-c392-4fb5-9ab6-f8f237d2b9f4"",""projectId"":""e622c465-ee29-4445-8260-1f3431e06587""}","https://test12345.live/?participantId=CBC5B19884B24A59A4433D736D767EDD&assignmentId=91b4b3cc-c392-4fb5-9ab6-f8f237d2b9f4&projectId=e622c465-ee29-4445-8260-1f3431e06587","","926","
    <div style=""display: flex; justify-content: center; align-items: center;"">
      <img src=""images/blue_deck_1.png"" style=""width: 300px; height: 300px; margin-right: 10px;"" />
      <img src=""images/red_deck_2.png"" style=""width: 300px; height: 300px;"" />
    </div>","0","0",""
"","","","","","html-keyboard-response","83","359569","0.0-61.0-0.0","CBC5B19884B24A59A4433D736D767EDD","CBC5B19884B24A59A4433D736D767EDD","91b4b3cc-c392-4fb5-9ab6-f8f237d2b9f4","e622c465-ee29-4445-8260-1f3431e06587","{""participantId"":""CBC5B19884B24A59A4433D736D767EDD"",""assignmentId"":""91b4b3cc-c392-4fb5-9ab6-f8f237d2b9f4"",""projectId"":""e622c465-ee29-4445-8260-1f3431e06587""}","https://test12345.live/?participantId=CBC5B19884B24A59A4433D736D767EDD&assignmentId=91b4b3cc-c392-4fb5-9ab6-f8f237d2b9f4&projectId=e622c465-ee29-4445-8260-1f3431e06587","","null","<div style=""display: flex; justify-content: center; align-items: center;"">
                    <img src=""images/causal/causal_series_8/causal_series_8_a.jpg"" style=""width: 300px; height: 300px;"" />
                  </div>","null","",""
"","","","","","html-keyboard-response","84","362582","0.0-61.0-1.0","CBC5B19884B24A59A4433D736D767EDD","CBC5B19884B24A59A4433D736D767EDD","91b4b3cc-c392-4fb5-9ab6-f8f237d2b9f4","e622c465-ee29-4445-8260-1f3431e06587","{""participantId"":""CBC5B19884B24A59A4433D736D767EDD"",""assignmentId"":""91b4b3cc-c392-4fb5-9ab6-f8f237d2b9f4"",""projectId"":""e622c465-ee29-4445-8260-1f3431e06587""}","https://test12345.live/?participantId=CBC5B19884B24A59A4433D736D767EDD&assignmentId=91b4b3cc-c392-4fb5-9ab6-f8f237d2b9f4&projectId=e622c465-ee29-4445-8260-1f3431e06587","","null","<div style=""display: flex; justify-content: center; align-items: center;"">
                    <img src=""images/causal/causal_series_8/causal_series_8_b.jpg"" style=""width: 300px; height: 300px;"" />
                  </div>","null","",""
"","","","","","html-keyboard-response","85","365585","0.0-61.0-2.0","CBC5B19884B24A59A4433D736D767EDD","CBC5B19884B24A59A4433D736D767EDD","91b4b3cc-c392-4fb5-9ab6-f8f237d2b9f4","e622c465-ee29-4445-8260-1f3431e06587","{""participantId"":""CBC5B19884B24A59A4433D736D767EDD"",""assignmentId"":""91b4b3cc-c392-4fb5-9ab6-f8f237d2b9f4"",""projectId"":""e622c465-ee29-4445-8260-1f3431e06587""}","https://test12345.live/?participantId=CBC5B19884B24A59A4433D736D767EDD&assignmentId=91b4b3cc-c392-4fb5-9ab6-f8f237d2b9f4&projectId=e622c465-ee29-4445-8260-1f3431e06587","","null","<div style=""display: flex; justify-content: center; align-items: center;"">
                    <img src=""images/causal/causal_series_8/causal_series_8_c.jpg"" style=""width: 300px; height: 300px;"" />
                  </div>","null","",""
"","","","","","html-keyboard-response","86","368592","0.0-61.0-3.0","CBC5B19884B24A59A4433D736D767EDD","CBC5B19884B24A59A4433D736D767EDD","91b4b3cc-c392-4fb5-9ab6-f8f237d2b9f4","e622c465-ee29-4445-8260-1f3431e06587","{""participantId"":""CBC5B19884B24A59A4433D736D767EDD"",""assignmentId"":""91b4b3cc-c392-4fb5-9ab6-f8f237d2b9f4"",""projectId"":""e622c465-ee29-4445-8260-1f3431e06587""}","https://test12345.live/?participantId=CBC5B19884B24A59A4433D736D767EDD&assignmentId=91b4b3cc-c392-4fb5-9ab6-f8f237d2b9f4&projectId=e622c465-ee29-4445-8260-1f3431e06587","","null","<div style=""display: flex; justify-content: center; align-items: center;"">
                    <img src=""images/causal/causal_series_8/causal_series_8_d.jpg"" style=""width: 300px; height: 300px;"" />
                  </div>","null","",""
"","","","","","html-button-response","87","370357","0.0-63.0","CBC5B19884B24A59A4433D736D767EDD","CBC5B19884B24A59A4433D736D767EDD","91b4b3cc-c392-4fb5-9ab6-f8f237d2b9f4","e622c465-ee29-4445-8260-1f3431e06587","{""participantId"":""CBC5B19884B24A59A4433D736D767EDD"",""assignmentId"":""91b4b3cc-c392-4fb5-9ab6-f8f237d2b9f4"",""projectId"":""e622c465-ee29-4445-8260-1f3431e06587""}","https://test12345.live/?participantId=CBC5B19884B24A59A4433D736D767EDD&assignmentId=91b4b3cc-c392-4fb5-9ab6-f8f237d2b9f4&projectId=e622c465-ee29-4445-8260-1f3431e06587","","1763","Was there a person in the picture?","1","",""
"","","","","","survey-likert","88","372226","0.0-64.0","CBC5B19884B24A59A4433D736D767EDD","CBC5B19884B24A59A4433D736D767EDD","91b4b3cc-c392-4fb5-9ab6-f8f237d2b9f4","e622c465-ee29-4445-8260-1f3431e06587","{""participantId"":""CBC5B19884B24A59A4433D736D767EDD"",""assignmentId"":""91b4b3cc-c392-4fb5-9ab6-f8f237d2b9f4"",""projectId"":""e622c465-ee29-4445-8260-1f3431e06587""}","https://test12345.live/?participantId=CBC5B19884B24A59A4433D736D767EDD&assignmentId=91b4b3cc-c392-4fb5-9ab6-f8f237d2b9f4&projectId=e622c465-ee29-4445-8260-1f3431e06587","","1867","","{""Q0"":0}","","[0]"
"","","","","","html-button-response","89","373640","0.0-65.0","CBC5B19884B24A59A4433D736D767EDD","CBC5B19884B24A59A4433D736D767EDD","91b4b3cc-c392-4fb5-9ab6-f8f237d2b9f4","e622c465-ee29-4445-8260-1f3431e06587","{""participantId"":""CBC5B19884B24A59A4433D736D767EDD"",""assignmentId"":""91b4b3cc-c392-4fb5-9ab6-f8f237d2b9f4"",""projectId"":""e622c465-ee29-4445-8260-1f3431e06587""}","https://test12345.live/?participantId=CBC5B19884B24A59A4433D736D767EDD&assignmentId=91b4b3cc-c392-4fb5-9ab6-f8f237d2b9f4&projectId=e622c465-ee29-4445-8260-1f3431e06587","","1412","
    <div style=""display: flex; justify-content: center; align-items: center;"">
      <img src=""images/blue_deck_1.png"" style=""width: 300px; height: 300px; margin-right: 10px;"" />
      <img src=""images/red_deck_2.png"" style=""width: 300px; height: 300px;"" />
    </div>","1","1",""
"","","","","","html-keyboard-response","90","376654","0.0-67.0-0.0","CBC5B19884B24A59A4433D736D767EDD","CBC5B19884B24A59A4433D736D767EDD","91b4b3cc-c392-4fb5-9ab6-f8f237d2b9f4","e622c465-ee29-4445-8260-1f3431e06587","{""participantId"":""CBC5B19884B24A59A4433D736D767EDD"",""assignmentId"":""91b4b3cc-c392-4fb5-9ab6-f8f237d2b9f4"",""projectId"":""e622c465-ee29-4445-8260-1f3431e06587""}","https://test12345.live/?participantId=CBC5B19884B24A59A4433D736D767EDD&assignmentId=91b4b3cc-c392-4fb5-9ab6-f8f237d2b9f4&projectId=e622c465-ee29-4445-8260-1f3431e06587","","null","<div style=""display: flex; justify-content: center; align-items: center;"">
                    <img src=""images/semantic/semantic_series_4/semantic_series_4_a.jpg"" style=""width: 300px; height: 300px;"" />
                  </div>","null","",""
"","","","","","html-keyboard-response","91","379665","0.0-67.0-1.0","CBC5B19884B24A59A4433D736D767EDD","CBC5B19884B24A59A4433D736D767EDD","91b4b3cc-c392-4fb5-9ab6-f8f237d2b9f4","e622c465-ee29-4445-8260-1f3431e06587","{""participantId"":""CBC5B19884B24A59A4433D736D767EDD"",""assignmentId"":""91b4b3cc-c392-4fb5-9ab6-f8f237d2b9f4"",""projectId"":""e622c465-ee29-4445-8260-1f3431e06587""}","https://test12345.live/?participantId=CBC5B19884B24A59A4433D736D767EDD&assignmentId=91b4b3cc-c392-4fb5-9ab6-f8f237d2b9f4&projectId=e622c465-ee29-4445-8260-1f3431e06587","","null","<div style=""display: flex; justify-content: center; align-items: center;"">
                    <img src=""images/semantic/semantic_series_4/semantic_series_4_b.jpg"" style=""width: 300px; height: 300px;"" />
                  </div>","null","",""
"","","","","","html-keyboard-response","92","382679","0.0-67.0-2.0","CBC5B19884B24A59A4433D736D767EDD","CBC5B19884B24A59A4433D736D767EDD","91b4b3cc-c392-4fb5-9ab6-f8f237d2b9f4","e622c465-ee29-4445-8260-1f3431e06587","{""participantId"":""CBC5B19884B24A59A4433D736D767EDD"",""assignmentId"":""91b4b3cc-c392-4fb5-9ab6-f8f237d2b9f4"",""projectId"":""e622c465-ee29-4445-8260-1f3431e06587""}","https://test12345.live/?participantId=CBC5B19884B24A59A4433D736D767EDD&assignmentId=91b4b3cc-c392-4fb5-9ab6-f8f237d2b9f4&projectId=e622c465-ee29-4445-8260-1f3431e06587","","null","<div style=""display: flex; justify-content: center; align-items: center;"">
                    <img src=""images/semantic/semantic_series_4/semantic_series_4_c.jpg"" style=""width: 300px; height: 300px;"" />
                  </div>","null","",""
"","","","","","html-keyboard-response","93","385681","0.0-67.0-3.0","CBC5B19884B24A59A4433D736D767EDD","CBC5B19884B24A59A4433D736D767EDD","91b4b3cc-c392-4fb5-9ab6-f8f237d2b9f4","e622c465-ee29-4445-8260-1f3431e06587","{""participantId"":""CBC5B19884B24A59A4433D736D767EDD"",""assignmentId"":""91b4b3cc-c392-4fb5-9ab6-f8f237d2b9f4"",""projectId"":""e622c465-ee29-4445-8260-1f3431e06587""}","https://test12345.live/?participantId=CBC5B19884B24A59A4433D736D767EDD&assignmentId=91b4b3cc-c392-4fb5-9ab6-f8f237d2b9f4&projectId=e622c465-ee29-4445-8260-1f3431e06587","","null","<div style=""display: flex; justify-content: center; align-items: center;"">
                    <img src=""images/semantic/semantic_series_4/semantic_series_4_d.jpg"" style=""width: 300px; height: 300px;"" />
                  </div>","null","",""
"","","","","","html-button-response","94","386447","0.0-68.0","CBC5B19884B24A59A4433D736D767EDD","CBC5B19884B24A59A4433D736D767EDD","91b4b3cc-c392-4fb5-9ab6-f8f237d2b9f4","e622c465-ee29-4445-8260-1f3431e06587","{""participantId"":""CBC5B19884B24A59A4433D736D767EDD"",""assignmentId"":""91b4b3cc-c392-4fb5-9ab6-f8f237d2b9f4"",""projectId"":""e622c465-ee29-4445-8260-1f3431e06587""}","https://test12345.live/?participantId=CBC5B19884B24A59A4433D736D767EDD&assignmentId=91b4b3cc-c392-4fb5-9ab6-f8f237d2b9f4&projectId=e622c465-ee29-4445-8260-1f3431e06587","","765","Was there a person in the picture?","1","",""
"","","","","","survey-likert","95","387554","0.0-69.0","CBC5B19884B24A59A4433D736D767EDD","CBC5B19884B24A59A4433D736D767EDD","91b4b3cc-c392-4fb5-9ab6-f8f237d2b9f4","e622c465-ee29-4445-8260-1f3431e06587","{""participantId"":""CBC5B19884B24A59A4433D736D767EDD"",""assignmentId"":""91b4b3cc-c392-4fb5-9ab6-f8f237d2b9f4"",""projectId"":""e622c465-ee29-4445-8260-1f3431e06587""}","https://test12345.live/?participantId=CBC5B19884B24A59A4433D736D767EDD&assignmentId=91b4b3cc-c392-4fb5-9ab6-f8f237d2b9f4&projectId=e622c465-ee29-4445-8260-1f3431e06587","","1107","","{""Q0"":0}","","[0]"
"","","","","","html-button-response","96","388265","0.0-70.0","CBC5B19884B24A59A4433D736D767EDD","CBC5B19884B24A59A4433D736D767EDD","91b4b3cc-c392-4fb5-9ab6-f8f237d2b9f4","e622c465-ee29-4445-8260-1f3431e06587","{""participantId"":""CBC5B19884B24A59A4433D736D767EDD"",""assignmentId"":""91b4b3cc-c392-4fb5-9ab6-f8f237d2b9f4"",""projectId"":""e622c465-ee29-4445-8260-1f3431e06587""}","https://test12345.live/?participantId=CBC5B19884B24A59A4433D736D767EDD&assignmentId=91b4b3cc-c392-4fb5-9ab6-f8f237d2b9f4&projectId=e622c465-ee29-4445-8260-1f3431e06587","","710","
    <div style=""display: flex; justify-content: center; align-items: center;"">
      <img src=""images/blue_deck_1.png"" style=""width: 300px; height: 300px; margin-right: 10px;"" />
      <img src=""images/red_deck_2.png"" style=""width: 300px; height: 300px;"" />
    </div>","0","0",""
"","","","","","html-keyboard-response","97","391270","0.0-71.0-0.0","CBC5B19884B24A59A4433D736D767EDD","CBC5B19884B24A59A4433D736D767EDD","91b4b3cc-c392-4fb5-9ab6-f8f237d2b9f4","e622c465-ee29-4445-8260-1f3431e06587","{""participantId"":""CBC5B19884B24A59A4433D736D767EDD"",""assignmentId"":""91b4b3cc-c392-4fb5-9ab6-f8f237d2b9f4"",""projectId"":""e622c465-ee29-4445-8260-1f3431e06587""}","https://test12345.live/?participantId=CBC5B19884B24A59A4433D736D767EDD&assignmentId=91b4b3cc-c392-4fb5-9ab6-f8f237d2b9f4&projectId=e622c465-ee29-4445-8260-1f3431e06587","","null","<div style=""display: flex; justify-content: center; align-items: center;"">
                    <img src=""images/causal/causal_series_14/causal_series_14_a.jpg"" style=""width: 300px; height: 300px;"" />
                  </div>","null","",""
"","","","","","html-keyboard-response","98","394280","0.0-71.0-1.0","CBC5B19884B24A59A4433D736D767EDD","CBC5B19884B24A59A4433D736D767EDD","91b4b3cc-c392-4fb5-9ab6-f8f237d2b9f4","e622c465-ee29-4445-8260-1f3431e06587","{""participantId"":""CBC5B19884B24A59A4433D736D767EDD"",""assignmentId"":""91b4b3cc-c392-4fb5-9ab6-f8f237d2b9f4"",""projectId"":""e622c465-ee29-4445-8260-1f3431e06587""}","https://test12345.live/?participantId=CBC5B19884B24A59A4433D736D767EDD&assignmentId=91b4b3cc-c392-4fb5-9ab6-f8f237d2b9f4&projectId=e622c465-ee29-4445-8260-1f3431e06587","","null","<div style=""display: flex; justify-content: center; align-items: center;"">
                    <img src=""images/causal/causal_series_14/causal_series_14_b.jpg"" style=""width: 300px; height: 300px;"" />
                  </div>","null","",""
"","","","","","html-keyboard-response","99","397292","0.0-71.0-2.0","CBC5B19884B24A59A4433D736D767EDD","CBC5B19884B24A59A4433D736D767EDD","91b4b3cc-c392-4fb5-9ab6-f8f237d2b9f4","e622c465-ee29-4445-8260-1f3431e06587","{""participantId"":""CBC5B19884B24A59A4433D736D767EDD"",""assignmentId"":""91b4b3cc-c392-4fb5-9ab6-f8f237d2b9f4"",""projectId"":""e622c465-ee29-4445-8260-1f3431e06587""}","https://test12345.live/?participantId=CBC5B19884B24A59A4433D736D767EDD&assignmentId=91b4b3cc-c392-4fb5-9ab6-f8f237d2b9f4&projectId=e622c465-ee29-4445-8260-1f3431e06587","","null","<div style=""display: flex; justify-content: center; align-items: center;"">
                    <img src=""images/causal/causal_series_14/causal_series_14_c.jpg"" style=""width: 300px; height: 300px;"" />
                  </div>","null","",""
"","","","","","html-keyboard-response","100","400300","0.0-71.0-3.0","CBC5B19884B24A59A4433D736D767EDD","CBC5B19884B24A59A4433D736D767EDD","91b4b3cc-c392-4fb5-9ab6-f8f237d2b9f4","e622c465-ee29-4445-8260-1f3431e06587","{""participantId"":""CBC5B19884B24A59A4433D736D767EDD"",""assignmentId"":""91b4b3cc-c392-4fb5-9ab6-f8f237d2b9f4"",""projectId"":""e622c465-ee29-4445-8260-1f3431e06587""}","https://test12345.live/?participantId=CBC5B19884B24A59A4433D736D767EDD&assignmentId=91b4b3cc-c392-4fb5-9ab6-f8f237d2b9f4&projectId=e622c465-ee29-4445-8260-1f3431e06587","","null","<div style=""display: flex; justify-content: center; align-items: center;"">
                    <img src=""images/causal/causal_series_14/causal_series_14_d.jpg"" style=""width: 300px; height: 300px;"" />
                  </div>","null","",""
"","","","","","html-button-response","101","404943","0.0-73.0","CBC5B19884B24A59A4433D736D767EDD","CBC5B19884B24A59A4433D736D767EDD","91b4b3cc-c392-4fb5-9ab6-f8f237d2b9f4","e622c465-ee29-4445-8260-1f3431e06587","{""participantId"":""CBC5B19884B24A59A4433D736D767EDD"",""assignmentId"":""91b4b3cc-c392-4fb5-9ab6-f8f237d2b9f4"",""projectId"":""e622c465-ee29-4445-8260-1f3431e06587""}","https://test12345.live/?participantId=CBC5B19884B24A59A4433D736D767EDD&assignmentId=91b4b3cc-c392-4fb5-9ab6-f8f237d2b9f4&projectId=e622c465-ee29-4445-8260-1f3431e06587","","4641","Was there a person in the picture?","1","",""
"","","","","","survey-likert","102","406487","0.0-74.0","CBC5B19884B24A59A4433D736D767EDD","CBC5B19884B24A59A4433D736D767EDD","91b4b3cc-c392-4fb5-9ab6-f8f237d2b9f4","e622c465-ee29-4445-8260-1f3431e06587","{""participantId"":""CBC5B19884B24A59A4433D736D767EDD"",""assignmentId"":""91b4b3cc-c392-4fb5-9ab6-f8f237d2b9f4"",""projectId"":""e622c465-ee29-4445-8260-1f3431e06587""}","https://test12345.live/?participantId=CBC5B19884B24A59A4433D736D767EDD&assignmentId=91b4b3cc-c392-4fb5-9ab6-f8f237d2b9f4&projectId=e622c465-ee29-4445-8260-1f3431e06587","","1543","","{""Q0"":2}","","[0]"
"","","","","","html-button-response","103","407859","0.0-75.0","CBC5B19884B24A59A4433D736D767EDD","CBC5B19884B24A59A4433D736D767EDD","91b4b3cc-c392-4fb5-9ab6-f8f237d2b9f4","e622c465-ee29-4445-8260-1f3431e06587","{""participantId"":""CBC5B19884B24A59A4433D736D767EDD"",""assignmentId"":""91b4b3cc-c392-4fb5-9ab6-f8f237d2b9f4"",""projectId"":""e622c465-ee29-4445-8260-1f3431e06587""}","https://test12345.live/?participantId=CBC5B19884B24A59A4433D736D767EDD&assignmentId=91b4b3cc-c392-4fb5-9ab6-f8f237d2b9f4&projectId=e622c465-ee29-4445-8260-1f3431e06587","","1370","
    <div style=""display: flex; justify-content: center; align-items: center;"">
      <img src=""images/blue_deck_1.png"" style=""width: 300px; height: 300px; margin-right: 10px;"" />
      <img src=""images/red_deck_2.png"" style=""width: 300px; height: 300px;"" />
    </div>","1","1",""
"","","","","","html-keyboard-response","104","410861","0.0-77.0-0.0","CBC5B19884B24A59A4433D736D767EDD","CBC5B19884B24A59A4433D736D767EDD","91b4b3cc-c392-4fb5-9ab6-f8f237d2b9f4","e622c465-ee29-4445-8260-1f3431e06587","{""participantId"":""CBC5B19884B24A59A4433D736D767EDD"",""assignmentId"":""91b4b3cc-c392-4fb5-9ab6-f8f237d2b9f4"",""projectId"":""e622c465-ee29-4445-8260-1f3431e06587""}","https://test12345.live/?participantId=CBC5B19884B24A59A4433D736D767EDD&assignmentId=91b4b3cc-c392-4fb5-9ab6-f8f237d2b9f4&projectId=e622c465-ee29-4445-8260-1f3431e06587","","null","<div style=""display: flex; justify-content: center; align-items: center;"">
                    <img src=""images/semantic/semantic_series_11/semantic_series_11_a.jpg"" style=""width: 300px; height: 300px;"" />
                  </div>","null","",""
"","","","","","html-keyboard-response","105","413873","0.0-77.0-1.0","CBC5B19884B24A59A4433D736D767EDD","CBC5B19884B24A59A4433D736D767EDD","91b4b3cc-c392-4fb5-9ab6-f8f237d2b9f4","e622c465-ee29-4445-8260-1f3431e06587","{""participantId"":""CBC5B19884B24A59A4433D736D767EDD"",""assignmentId"":""91b4b3cc-c392-4fb5-9ab6-f8f237d2b9f4"",""projectId"":""e622c465-ee29-4445-8260-1f3431e06587""}","https://test12345.live/?participantId=CBC5B19884B24A59A4433D736D767EDD&assignmentId=91b4b3cc-c392-4fb5-9ab6-f8f237d2b9f4&projectId=e622c465-ee29-4445-8260-1f3431e06587","","null","<div style=""display: flex; justify-content: center; align-items: center;"">
                    <img src=""images/semantic/semantic_series_11/semantic_series_11_b.jpg"" style=""width: 300px; height: 300px;"" />
                  </div>","null","",""
"","","","","","html-keyboard-response","106","416889","0.0-77.0-2.0","CBC5B19884B24A59A4433D736D767EDD","CBC5B19884B24A59A4433D736D767EDD","91b4b3cc-c392-4fb5-9ab6-f8f237d2b9f4","e622c465-ee29-4445-8260-1f3431e06587","{""participantId"":""CBC5B19884B24A59A4433D736D767EDD"",""assignmentId"":""91b4b3cc-c392-4fb5-9ab6-f8f237d2b9f4"",""projectId"":""e622c465-ee29-4445-8260-1f3431e06587""}","https://test12345.live/?participantId=CBC5B19884B24A59A4433D736D767EDD&assignmentId=91b4b3cc-c392-4fb5-9ab6-f8f237d2b9f4&projectId=e622c465-ee29-4445-8260-1f3431e06587","","null","<div style=""display: flex; justify-content: center; align-items: center;"">
                    <img src=""images/semantic/semantic_series_11/semantic_series_11_c.jpg"" style=""width: 300px; height: 300px;"" />
                  </div>","null","",""
"","","","","","html-keyboard-response","107","419891","0.0-77.0-3.0","CBC5B19884B24A59A4433D736D767EDD","CBC5B19884B24A59A4433D736D767EDD","91b4b3cc-c392-4fb5-9ab6-f8f237d2b9f4","e622c465-ee29-4445-8260-1f3431e06587","{""participantId"":""CBC5B19884B24A59A4433D736D767EDD"",""assignmentId"":""91b4b3cc-c392-4fb5-9ab6-f8f237d2b9f4"",""projectId"":""e622c465-ee29-4445-8260-1f3431e06587""}","https://test12345.live/?participantId=CBC5B19884B24A59A4433D736D767EDD&assignmentId=91b4b3cc-c392-4fb5-9ab6-f8f237d2b9f4&projectId=e622c465-ee29-4445-8260-1f3431e06587","","null","<div style=""display: flex; justify-content: center; align-items: center;"">
                    <img src=""images/semantic/semantic_series_11/semantic_series_11_d.jpg"" style=""width: 300px; height: 300px;"" />
                  </div>","null","",""
"","","","","","html-button-response","108","420811","0.0-78.0","CBC5B19884B24A59A4433D736D767EDD","CBC5B19884B24A59A4433D736D767EDD","91b4b3cc-c392-4fb5-9ab6-f8f237d2b9f4","e622c465-ee29-4445-8260-1f3431e06587","{""participantId"":""CBC5B19884B24A59A4433D736D767EDD"",""assignmentId"":""91b4b3cc-c392-4fb5-9ab6-f8f237d2b9f4"",""projectId"":""e622c465-ee29-4445-8260-1f3431e06587""}","https://test12345.live/?participantId=CBC5B19884B24A59A4433D736D767EDD&assignmentId=91b4b3cc-c392-4fb5-9ab6-f8f237d2b9f4&projectId=e622c465-ee29-4445-8260-1f3431e06587","","918","Was there a person in the picture?","0","",""
"","","","","","survey-likert","109","422995","0.0-79.0","CBC5B19884B24A59A4433D736D767EDD","CBC5B19884B24A59A4433D736D767EDD","91b4b3cc-c392-4fb5-9ab6-f8f237d2b9f4","e622c465-ee29-4445-8260-1f3431e06587","{""participantId"":""CBC5B19884B24A59A4433D736D767EDD"",""assignmentId"":""91b4b3cc-c392-4fb5-9ab6-f8f237d2b9f4"",""projectId"":""e622c465-ee29-4445-8260-1f3431e06587""}","https://test12345.live/?participantId=CBC5B19884B24A59A4433D736D767EDD&assignmentId=91b4b3cc-c392-4fb5-9ab6-f8f237d2b9f4&projectId=e622c465-ee29-4445-8260-1f3431e06587","","2183","","{""Q0"":2}","","[0]"
"","","","","","html-button-response","110","424063","0.0-80.0","CBC5B19884B24A59A4433D736D767EDD","CBC5B19884B24A59A4433D736D767EDD","91b4b3cc-c392-4fb5-9ab6-f8f237d2b9f4","e622c465-ee29-4445-8260-1f3431e06587","{""participantId"":""CBC5B19884B24A59A4433D736D767EDD"",""assignmentId"":""91b4b3cc-c392-4fb5-9ab6-f8f237d2b9f4"",""projectId"":""e622c465-ee29-4445-8260-1f3431e06587""}","https://test12345.live/?participantId=CBC5B19884B24A59A4433D736D767EDD&assignmentId=91b4b3cc-c392-4fb5-9ab6-f8f237d2b9f4&projectId=e622c465-ee29-4445-8260-1f3431e06587","","1066","
    <div style=""display: flex; justify-content: center; align-items: center;"">
      <img src=""images/blue_deck_1.png"" style=""width: 300px; height: 300px; margin-right: 10px;"" />
      <img src=""images/red_deck_2.png"" style=""width: 300px; height: 300px;"" />
    </div>","0","0",""
"","","","","","html-keyboard-response","111","427070","0.0-81.0-0.0","CBC5B19884B24A59A4433D736D767EDD","CBC5B19884B24A59A4433D736D767EDD","91b4b3cc-c392-4fb5-9ab6-f8f237d2b9f4","e622c465-ee29-4445-8260-1f3431e06587","{""participantId"":""CBC5B19884B24A59A4433D736D767EDD"",""assignmentId"":""91b4b3cc-c392-4fb5-9ab6-f8f237d2b9f4"",""projectId"":""e622c465-ee29-4445-8260-1f3431e06587""}","https://test12345.live/?participantId=CBC5B19884B24A59A4433D736D767EDD&assignmentId=91b4b3cc-c392-4fb5-9ab6-f8f237d2b9f4&projectId=e622c465-ee29-4445-8260-1f3431e06587","","null","<div style=""display: flex; justify-content: center; align-items: center;"">
                    <img src=""images/causal/causal_series_12/causal_series_12_a.jpg"" style=""width: 300px; height: 300px;"" />
                  </div>","null","",""
"","","","","","html-keyboard-response","112","430075","0.0-81.0-1.0","CBC5B19884B24A59A4433D736D767EDD","CBC5B19884B24A59A4433D736D767EDD","91b4b3cc-c392-4fb5-9ab6-f8f237d2b9f4","e622c465-ee29-4445-8260-1f3431e06587","{""participantId"":""CBC5B19884B24A59A4433D736D767EDD"",""assignmentId"":""91b4b3cc-c392-4fb5-9ab6-f8f237d2b9f4"",""projectId"":""e622c465-ee29-4445-8260-1f3431e06587""}","https://test12345.live/?participantId=CBC5B19884B24A59A4433D736D767EDD&assignmentId=91b4b3cc-c392-4fb5-9ab6-f8f237d2b9f4&projectId=e622c465-ee29-4445-8260-1f3431e06587","","null","<div style=""display: flex; justify-content: center; align-items: center;"">
                    <img src=""images/causal/causal_series_12/causal_series_12_b.jpg"" style=""width: 300px; height: 300px;"" />
                  </div>","null","",""
"","","","","","html-keyboard-response","113","433081","0.0-81.0-2.0","CBC5B19884B24A59A4433D736D767EDD","CBC5B19884B24A59A4433D736D767EDD","91b4b3cc-c392-4fb5-9ab6-f8f237d2b9f4","e622c465-ee29-4445-8260-1f3431e06587","{""participantId"":""CBC5B19884B24A59A4433D736D767EDD"",""assignmentId"":""91b4b3cc-c392-4fb5-9ab6-f8f237d2b9f4"",""projectId"":""e622c465-ee29-4445-8260-1f3431e06587""}","https://test12345.live/?participantId=CBC5B19884B24A59A4433D736D767EDD&assignmentId=91b4b3cc-c392-4fb5-9ab6-f8f237d2b9f4&projectId=e622c465-ee29-4445-8260-1f3431e06587","","null","<div style=""display: flex; justify-content: center; align-items: center;"">
                    <img src=""images/causal/causal_series_12/causal_series_12_c.jpg"" style=""width: 300px; height: 300px;"" />
                  </div>","null","",""
"","","","","","html-keyboard-response","114","436095","0.0-81.0-3.0","CBC5B19884B24A59A4433D736D767EDD","CBC5B19884B24A59A4433D736D767EDD","91b4b3cc-c392-4fb5-9ab6-f8f237d2b9f4","e622c465-ee29-4445-8260-1f3431e06587","{""participantId"":""CBC5B19884B24A59A4433D736D767EDD"",""assignmentId"":""91b4b3cc-c392-4fb5-9ab6-f8f237d2b9f4"",""projectId"":""e622c465-ee29-4445-8260-1f3431e06587""}","https://test12345.live/?participantId=CBC5B19884B24A59A4433D736D767EDD&assignmentId=91b4b3cc-c392-4fb5-9ab6-f8f237d2b9f4&projectId=e622c465-ee29-4445-8260-1f3431e06587","","null","<div style=""display: flex; justify-content: center; align-items: center;"">
                    <img src=""images/causal/causal_series_12/causal_series_12_d.jpg"" style=""width: 300px; height: 300px;"" />
                  </div>","null","",""
"","","","","","html-button-response","115","437424","0.0-83.0","CBC5B19884B24A59A4433D736D767EDD","CBC5B19884B24A59A4433D736D767EDD","91b4b3cc-c392-4fb5-9ab6-f8f237d2b9f4","e622c465-ee29-4445-8260-1f3431e06587","{""participantId"":""CBC5B19884B24A59A4433D736D767EDD"",""assignmentId"":""91b4b3cc-c392-4fb5-9ab6-f8f237d2b9f4"",""projectId"":""e622c465-ee29-4445-8260-1f3431e06587""}","https://test12345.live/?participantId=CBC5B19884B24A59A4433D736D767EDD&assignmentId=91b4b3cc-c392-4fb5-9ab6-f8f237d2b9f4&projectId=e622c465-ee29-4445-8260-1f3431e06587","","1328","Was there a person in the picture?","1","",""
"","","","","","survey-likert","116","438865","0.0-84.0","CBC5B19884B24A59A4433D736D767EDD","CBC5B19884B24A59A4433D736D767EDD","91b4b3cc-c392-4fb5-9ab6-f8f237d2b9f4","e622c465-ee29-4445-8260-1f3431e06587","{""participantId"":""CBC5B19884B24A59A4433D736D767EDD"",""assignmentId"":""91b4b3cc-c392-4fb5-9ab6-f8f237d2b9f4"",""projectId"":""e622c465-ee29-4445-8260-1f3431e06587""}","https://test12345.live/?participantId=CBC5B19884B24A59A4433D736D767EDD&assignmentId=91b4b3cc-c392-4fb5-9ab6-f8f237d2b9f4&projectId=e622c465-ee29-4445-8260-1f3431e06587","","1439","","{""Q0"":0}","","[0]"
"","","","","","html-button-response","117","440471","0.0-85.0","CBC5B19884B24A59A4433D736D767EDD","CBC5B19884B24A59A4433D736D767EDD","91b4b3cc-c392-4fb5-9ab6-f8f237d2b9f4","e622c465-ee29-4445-8260-1f3431e06587","{""participantId"":""CBC5B19884B24A59A4433D736D767EDD"",""assignmentId"":""91b4b3cc-c392-4fb5-9ab6-f8f237d2b9f4"",""projectId"":""e622c465-ee29-4445-8260-1f3431e06587""}","https://test12345.live/?participantId=CBC5B19884B24A59A4433D736D767EDD&assignmentId=91b4b3cc-c392-4fb5-9ab6-f8f237d2b9f4&projectId=e622c465-ee29-4445-8260-1f3431e06587","","1603","
    <div style=""display: flex; justify-content: center; align-items: center;"">
      <img src=""images/blue_deck_1.png"" style=""width: 300px; height: 300px; margin-right: 10px;"" />
      <img src=""images/red_deck_2.png"" style=""width: 300px; height: 300px;"" />
    </div>","1","1",""
"","","","","","html-keyboard-response","118","443483","0.0-87.0-0.0","CBC5B19884B24A59A4433D736D767EDD","CBC5B19884B24A59A4433D736D767EDD","91b4b3cc-c392-4fb5-9ab6-f8f237d2b9f4","e622c465-ee29-4445-8260-1f3431e06587","{""participantId"":""CBC5B19884B24A59A4433D736D767EDD"",""assignmentId"":""91b4b3cc-c392-4fb5-9ab6-f8f237d2b9f4"",""projectId"":""e622c465-ee29-4445-8260-1f3431e06587""}","https://test12345.live/?participantId=CBC5B19884B24A59A4433D736D767EDD&assignmentId=91b4b3cc-c392-4fb5-9ab6-f8f237d2b9f4&projectId=e622c465-ee29-4445-8260-1f3431e06587","","null","<div style=""display: flex; justify-content: center; align-items: center;"">
                    <img src=""images/semantic/semantic_series_16/semantic_series_16_a.jpg"" style=""width: 300px; height: 300px;"" />
                  </div>","null","",""
"","","","","","html-keyboard-response","119","446494","0.0-87.0-1.0","CBC5B19884B24A59A4433D736D767EDD","CBC5B19884B24A59A4433D736D767EDD","91b4b3cc-c392-4fb5-9ab6-f8f237d2b9f4","e622c465-ee29-4445-8260-1f3431e06587","{""participantId"":""CBC5B19884B24A59A4433D736D767EDD"",""assignmentId"":""91b4b3cc-c392-4fb5-9ab6-f8f237d2b9f4"",""projectId"":""e622c465-ee29-4445-8260-1f3431e06587""}","https://test12345.live/?participantId=CBC5B19884B24A59A4433D736D767EDD&assignmentId=91b4b3cc-c392-4fb5-9ab6-f8f237d2b9f4&projectId=e622c465-ee29-4445-8260-1f3431e06587","","null","<div style=""display: flex; justify-content: center; align-items: center;"">
                    <img src=""images/semantic/semantic_series_16/semantic_series_16_b.jpg"" style=""width: 300px; height: 300px;"" />
                  </div>","null","",""
"","","","","","html-keyboard-response","120","449507","0.0-87.0-2.0","CBC5B19884B24A59A4433D736D767EDD","CBC5B19884B24A59A4433D736D767EDD","91b4b3cc-c392-4fb5-9ab6-f8f237d2b9f4","e622c465-ee29-4445-8260-1f3431e06587","{""participantId"":""CBC5B19884B24A59A4433D736D767EDD"",""assignmentId"":""91b4b3cc-c392-4fb5-9ab6-f8f237d2b9f4"",""projectId"":""e622c465-ee29-4445-8260-1f3431e06587""}","https://test12345.live/?participantId=CBC5B19884B24A59A4433D736D767EDD&assignmentId=91b4b3cc-c392-4fb5-9ab6-f8f237d2b9f4&projectId=e622c465-ee29-4445-8260-1f3431e06587","","null","<div style=""display: flex; justify-content: center; align-items: center;"">
                    <img src=""images/semantic/semantic_series_16/semantic_series_16_c.jpg"" style=""width: 300px; height: 300px;"" />
                  </div>","null","",""
"","","","","","html-keyboard-response","121","452518","0.0-87.0-3.0","CBC5B19884B24A59A4433D736D767EDD","CBC5B19884B24A59A4433D736D767EDD","91b4b3cc-c392-4fb5-9ab6-f8f237d2b9f4","e622c465-ee29-4445-8260-1f3431e06587","{""participantId"":""CBC5B19884B24A59A4433D736D767EDD"",""assignmentId"":""91b4b3cc-c392-4fb5-9ab6-f8f237d2b9f4"",""projectId"":""e622c465-ee29-4445-8260-1f3431e06587""}","https://test12345.live/?participantId=CBC5B19884B24A59A4433D736D767EDD&assignmentId=91b4b3cc-c392-4fb5-9ab6-f8f237d2b9f4&projectId=e622c465-ee29-4445-8260-1f3431e06587","","null","<div style=""display: flex; justify-content: center; align-items: center;"">
                    <img src=""images/semantic/semantic_series_16/semantic_series_16_d.jpg"" style=""width: 300px; height: 300px;"" />
                  </div>","null","",""
"","","","","","html-button-response","122","453578","0.0-88.0","CBC5B19884B24A59A4433D736D767EDD","CBC5B19884B24A59A4433D736D767EDD","91b4b3cc-c392-4fb5-9ab6-f8f237d2b9f4","e622c465-ee29-4445-8260-1f3431e06587","{""participantId"":""CBC5B19884B24A59A4433D736D767EDD"",""assignmentId"":""91b4b3cc-c392-4fb5-9ab6-f8f237d2b9f4"",""projectId"":""e622c465-ee29-4445-8260-1f3431e06587""}","https://test12345.live/?participantId=CBC5B19884B24A59A4433D736D767EDD&assignmentId=91b4b3cc-c392-4fb5-9ab6-f8f237d2b9f4&projectId=e622c465-ee29-4445-8260-1f3431e06587","","1059","Was there a person in the picture?","0","",""
"","","","","","survey-likert","123","455196","0.0-89.0","CBC5B19884B24A59A4433D736D767EDD","CBC5B19884B24A59A4433D736D767EDD","91b4b3cc-c392-4fb5-9ab6-f8f237d2b9f4","e622c465-ee29-4445-8260-1f3431e06587","{""participantId"":""CBC5B19884B24A59A4433D736D767EDD"",""assignmentId"":""91b4b3cc-c392-4fb5-9ab6-f8f237d2b9f4"",""projectId"":""e622c465-ee29-4445-8260-1f3431e06587""}","https://test12345.live/?participantId=CBC5B19884B24A59A4433D736D767EDD&assignmentId=91b4b3cc-c392-4fb5-9ab6-f8f237d2b9f4&projectId=e622c465-ee29-4445-8260-1f3431e06587","","1617","","{""Q0"":2}","","[0]"
"","","","","","html-button-response","124","456193","0.0-90.0","CBC5B19884B24A59A4433D736D767EDD","CBC5B19884B24A59A4433D736D767EDD","91b4b3cc-c392-4fb5-9ab6-f8f237d2b9f4","e622c465-ee29-4445-8260-1f3431e06587","{""participantId"":""CBC5B19884B24A59A4433D736D767EDD"",""assignmentId"":""91b4b3cc-c392-4fb5-9ab6-f8f237d2b9f4"",""projectId"":""e622c465-ee29-4445-8260-1f3431e06587""}","https://test12345.live/?participantId=CBC5B19884B24A59A4433D736D767EDD&assignmentId=91b4b3cc-c392-4fb5-9ab6-f8f237d2b9f4&projectId=e622c465-ee29-4445-8260-1f3431e06587","","996","
    <div style=""display: flex; justify-content: center; align-items: center;"">
      <img src=""images/blue_deck_1.png"" style=""width: 300px; height: 300px; margin-right: 10px;"" />
      <img src=""images/red_deck_2.png"" style=""width: 300px; height: 300px;"" />
    </div>","1","1",""
"","","","","","html-keyboard-response","125","459206","0.0-92.0-0.0","CBC5B19884B24A59A4433D736D767EDD","CBC5B19884B24A59A4433D736D767EDD","91b4b3cc-c392-4fb5-9ab6-f8f237d2b9f4","e622c465-ee29-4445-8260-1f3431e06587","{""participantId"":""CBC5B19884B24A59A4433D736D767EDD"",""assignmentId"":""91b4b3cc-c392-4fb5-9ab6-f8f237d2b9f4"",""projectId"":""e622c465-ee29-4445-8260-1f3431e06587""}","https://test12345.live/?participantId=CBC5B19884B24A59A4433D736D767EDD&assignmentId=91b4b3cc-c392-4fb5-9ab6-f8f237d2b9f4&projectId=e622c465-ee29-4445-8260-1f3431e06587","","null","<div style=""display: flex; justify-content: center; align-items: center;"">
                    <img src=""images/semantic/semantic_series_9/semantic_series_9_a.jpg"" style=""width: 300px; height: 300px;"" />
                  </div>","null","",""
"","","","","","html-keyboard-response","126","462218","0.0-92.0-1.0","CBC5B19884B24A59A4433D736D767EDD","CBC5B19884B24A59A4433D736D767EDD","91b4b3cc-c392-4fb5-9ab6-f8f237d2b9f4","e622c465-ee29-4445-8260-1f3431e06587","{""participantId"":""CBC5B19884B24A59A4433D736D767EDD"",""assignmentId"":""91b4b3cc-c392-4fb5-9ab6-f8f237d2b9f4"",""projectId"":""e622c465-ee29-4445-8260-1f3431e06587""}","https://test12345.live/?participantId=CBC5B19884B24A59A4433D736D767EDD&assignmentId=91b4b3cc-c392-4fb5-9ab6-f8f237d2b9f4&projectId=e622c465-ee29-4445-8260-1f3431e06587","","null","<div style=""display: flex; justify-content: center; align-items: center;"">
                    <img src=""images/semantic/semantic_series_9/semantic_series_9_b.jpg"" style=""width: 300px; height: 300px;"" />
                  </div>","null","",""
"","","","","","html-keyboard-response","127","465232","0.0-92.0-2.0","CBC5B19884B24A59A4433D736D767EDD","CBC5B19884B24A59A4433D736D767EDD","91b4b3cc-c392-4fb5-9ab6-f8f237d2b9f4","e622c465-ee29-4445-8260-1f3431e06587","{""participantId"":""CBC5B19884B24A59A4433D736D767EDD"",""assignmentId"":""91b4b3cc-c392-4fb5-9ab6-f8f237d2b9f4"",""projectId"":""e622c465-ee29-4445-8260-1f3431e06587""}","https://test12345.live/?participantId=CBC5B19884B24A59A4433D736D767EDD&assignmentId=91b4b3cc-c392-4fb5-9ab6-f8f237d2b9f4&projectId=e622c465-ee29-4445-8260-1f3431e06587","","null","<div style=""display: flex; justify-content: center; align-items: center;"">
                    <img src=""images/semantic/semantic_series_9/semantic_series_9_c.jpg"" style=""width: 300px; height: 300px;"" />
                  </div>","null","",""
"","","","","","html-keyboard-response","128","468242","0.0-92.0-3.0","CBC5B19884B24A59A4433D736D767EDD","CBC5B19884B24A59A4433D736D767EDD","91b4b3cc-c392-4fb5-9ab6-f8f237d2b9f4","e622c465-ee29-4445-8260-1f3431e06587","{""participantId"":""CBC5B19884B24A59A4433D736D767EDD"",""assignmentId"":""91b4b3cc-c392-4fb5-9ab6-f8f237d2b9f4"",""projectId"":""e622c465-ee29-4445-8260-1f3431e06587""}","https://test12345.live/?participantId=CBC5B19884B24A59A4433D736D767EDD&assignmentId=91b4b3cc-c392-4fb5-9ab6-f8f237d2b9f4&projectId=e622c465-ee29-4445-8260-1f3431e06587","","null","<div style=""display: flex; justify-content: center; align-items: center;"">
                    <img src=""images/semantic/semantic_series_9/semantic_series_9_d.jpg"" style=""width: 300px; height: 300px;"" />
                  </div>","null","",""
"","","","","","html-button-response","129","469897","0.0-93.0","CBC5B19884B24A59A4433D736D767EDD","CBC5B19884B24A59A4433D736D767EDD","91b4b3cc-c392-4fb5-9ab6-f8f237d2b9f4","e622c465-ee29-4445-8260-1f3431e06587","{""participantId"":""CBC5B19884B24A59A4433D736D767EDD"",""assignmentId"":""91b4b3cc-c392-4fb5-9ab6-f8f237d2b9f4"",""projectId"":""e622c465-ee29-4445-8260-1f3431e06587""}","https://test12345.live/?participantId=CBC5B19884B24A59A4433D736D767EDD&assignmentId=91b4b3cc-c392-4fb5-9ab6-f8f237d2b9f4&projectId=e622c465-ee29-4445-8260-1f3431e06587","","1654","Was there a person in the picture?","1","",""
"","","","","","survey-likert","130","471739","0.0-94.0","CBC5B19884B24A59A4433D736D767EDD","CBC5B19884B24A59A4433D736D767EDD","91b4b3cc-c392-4fb5-9ab6-f8f237d2b9f4","e622c465-ee29-4445-8260-1f3431e06587","{""participantId"":""CBC5B19884B24A59A4433D736D767EDD"",""assignmentId"":""91b4b3cc-c392-4fb5-9ab6-f8f237d2b9f4"",""projectId"":""e622c465-ee29-4445-8260-1f3431e06587""}","https://test12345.live/?participantId=CBC5B19884B24A59A4433D736D767EDD&assignmentId=91b4b3cc-c392-4fb5-9ab6-f8f237d2b9f4&projectId=e622c465-ee29-4445-8260-1f3431e06587","","1840","","{""Q0"":0}","","[0]"
"","","","","","survey-text","131","605616","0.0-95.0","CBC5B19884B24A59A4433D736D767EDD","CBC5B19884B24A59A4433D736D767EDD","91b4b3cc-c392-4fb5-9ab6-f8f237d2b9f4","e622c465-ee29-4445-8260-1f3431e06587","{""participantId"":""CBC5B19884B24A59A4433D736D767EDD"",""assignmentId"":""91b4b3cc-c392-4fb5-9ab6-f8f237d2b9f4"",""projectId"":""e622c465-ee29-4445-8260-1f3431e06587""}","https://test12345.live/?participantId=CBC5B19884B24A59A4433D736D767EDD&assignmentId=91b4b3cc-c392-4fb5-9ab6-f8f237d2b9f4&projectId=e622c465-ee29-4445-8260-1f3431e06587","","133869","","{""Q0"":""The deck of card to the left almost always has someone present in the picture while the deck to the right does not.""}","",""
