"success","timeout","failed_images","failed_audio","failed_video","trial_type","trial_index","time_elapsed","internal_node_id","subject","subject_id","study_id","session_id","urlvar","current_url","view_history","rt","stimulus","response","choice","question_order"
"true","false","[]","[]","[]","preload","0","1849","0.0-0.0","9542EAD3CA434146BEE2D324017222DB","9542EAD3CA434146BEE2D324017222DB","8519da94-5f23-43d9-bf1d-13fdd7f34f7d","bea99957-1862-4ad8-9558-57b91e42ce64","{""participantId"":""9542EAD3CA434146BEE2D324017222DB"",""assignmentId"":""8519da94-5f23-43d9-bf1d-13fdd7f34f7d"",""projectId"":""bea99957-1862-4ad8-9558-57b91e42ce64""}","https://test12345.live/?participantId=9542EAD3CA434146BEE2D324017222DB&assignmentId=8519da94-5f23-43d9-bf1d-13fdd7f34f7d&projectId=bea99957-1862-4ad8-9558-57b91e42ce64","","","","","",""
"","","","","","instructions","1","4682","0.0-1.0","9542EAD3CA434146BEE2D324017222DB","9542EAD3CA434146BEE2D324017222DB","8519da94-5f23-43d9-bf1d-13fdd7f34f7d","bea99957-1862-4ad8-9558-57b91e42ce64","{""participantId"":""9542EAD3CA434146BEE2D324017222DB"",""assignmentId"":""8519da94-5f23-43d9-bf1d-13fdd7f34f7d"",""projectId"":""bea99957-1862-4ad8-9558-57b91e42ce64""}","https://test12345.live/?participantId=9542EAD3CA434146BEE2D324017222DB&assignmentId=8519da94-5f23-43d9-bf1d-13fdd7f34f7d&projectId=bea99957-1862-4ad8-9558-57b91e42ce64","[{""page_index"":0,""viewing_time"":2830}]","2831","","","",""
"","","","","","instructions","2","20454","0.0-2.0","9542EAD3CA434146BEE2D324017222DB","9542EAD3CA434146BEE2D324017222DB","8519da94-5f23-43d9-bf1d-13fdd7f34f7d","bea99957-1862-4ad8-9558-57b91e42ce64","{""participantId"":""9542EAD3CA434146BEE2D324017222DB"",""assignmentId"":""8519da94-5f23-43d9-bf1d-13fdd7f34f7d"",""projectId"":""bea99957-1862-4ad8-9558-57b91e42ce64""}","https://test12345.live/?participantId=9542EAD3CA434146BEE2D324017222DB&assignmentId=8519da94-5f23-43d9-bf1d-13fdd7f34f7d&projectId=bea99957-1862-4ad8-9558-57b91e42ce64","[{""page_index"":0,""viewing_time"":15769}]","15770","","","",""
"true","","","","","fullscreen","3","23489","0.0-3.0","9542EAD3CA434146BEE2D324017222DB","9542EAD3CA434146BEE2D324017222DB","8519da94-5f23-43d9-bf1d-13fdd7f34f7d","bea99957-1862-4ad8-9558-57b91e42ce64","{""participantId"":""9542EAD3CA434146BEE2D324017222DB"",""assignmentId"":""8519da94-5f23-43d9-bf1d-13fdd7f34f7d"",""projectId"":""bea99957-1862-4ad8-9558-57b91e42ce64""}","https://test12345.live/?participantId=9542EAD3CA434146BEE2D324017222DB&assignmentId=8519da94-5f23-43d9-bf1d-13fdd7f34f7d&projectId=bea99957-1862-4ad8-9558-57b91e42ce64","","2023","","","",""
"","","","","","instructions","4","45255","0.0-4.0","9542EAD3CA434146BEE2D324017222DB","9542EAD3CA434146BEE2D324017222DB","8519da94-5f23-43d9-bf1d-13fdd7f34f7d","bea99957-1862-4ad8-9558-57b91e42ce64","{""participantId"":""9542EAD3CA434146BEE2D324017222DB"",""assignmentId"":""8519da94-5f23-43d9-bf1d-13fdd7f34f7d"",""projectId"":""bea99957-1862-4ad8-9558-57b91e42ce64""}","https://test12345.live/?participantId=9542EAD3CA434146BEE2D324017222DB&assignmentId=8519da94-5f23-43d9-bf1d-13fdd7f34f7d&projectId=bea99957-1862-4ad8-9558-57b91e42ce64","[{""page_index"":0,""viewing_time"":21759}]","21760","","","",""
"","","","","","html-button-response","5","62409","0.0-5.0","9542EAD3CA434146BEE2D324017222DB","9542EAD3CA434146BEE2D324017222DB","8519da94-5f23-43d9-bf1d-13fdd7f34f7d","bea99957-1862-4ad8-9558-57b91e42ce64","{""participantId"":""9542EAD3CA434146BEE2D324017222DB"",""assignmentId"":""8519da94-5f23-43d9-bf1d-13fdd7f34f7d"",""projectId"":""bea99957-1862-4ad8-9558-57b91e42ce64""}","https://test12345.live/?participantId=9542EAD3CA434146BEE2D324017222DB&assignmentId=8519da94-5f23-43d9-bf1d-13fdd7f34f7d&projectId=bea99957-1862-4ad8-9558-57b91e42ce64","","17147","
    <div style=""display: flex; justify-content: center; align-items: center;"">
      <img src=""images/red_deck_2.png"" style=""width: 300px; height: 300px; margin-right: 10px;"" />
      <img src=""images/blue_deck_1.png"" style=""width: 300px; height: 300px;"" />
    </div>","0","0",""
"","","","","","html-keyboard-response","6","65414","0.0-7.0-0.0","9542EAD3CA434146BEE2D324017222DB","9542EAD3CA434146BEE2D324017222DB","8519da94-5f23-43d9-bf1d-13fdd7f34f7d","bea99957-1862-4ad8-9558-57b91e42ce64","{""participantId"":""9542EAD3CA434146BEE2D324017222DB"",""assignmentId"":""8519da94-5f23-43d9-bf1d-13fdd7f34f7d"",""projectId"":""bea99957-1862-4ad8-9558-57b91e42ce64""}","https://test12345.live/?participantId=9542EAD3CA434146BEE2D324017222DB&assignmentId=8519da94-5f23-43d9-bf1d-13fdd7f34f7d&projectId=bea99957-1862-4ad8-9558-57b91e42ce64","","null","<div style=""display: flex; justify-content: center; align-items: center;"">
                    <img src=""images/semantic/semantic_series_5/semantic_series_5_a.jpg"" style=""width: 300px; height: 300px;"" />
                  </div>","null","",""
"","","","","","html-keyboard-response","7","68429","0.0-7.0-1.0","9542EAD3CA434146BEE2D324017222DB","9542EAD3CA434146BEE2D324017222DB","8519da94-5f23-43d9-bf1d-13fdd7f34f7d","bea99957-1862-4ad8-9558-57b91e42ce64","{""participantId"":""9542EAD3CA434146BEE2D324017222DB"",""assignmentId"":""8519da94-5f23-43d9-bf1d-13fdd7f34f7d"",""projectId"":""bea99957-1862-4ad8-9558-57b91e42ce64""}","https://test12345.live/?participantId=9542EAD3CA434146BEE2D324017222DB&assignmentId=8519da94-5f23-43d9-bf1d-13fdd7f34f7d&projectId=bea99957-1862-4ad8-9558-57b91e42ce64","","null","<div style=""display: flex; justify-content: center; align-items: center;"">
                    <img src=""images/semantic/semantic_series_5/semantic_series_5_b.jpg"" style=""width: 300px; height: 300px;"" />
                  </div>","null","",""
"","","","","","html-keyboard-response","8","71443","0.0-7.0-2.0","9542EAD3CA434146BEE2D324017222DB","9542EAD3CA434146BEE2D324017222DB","8519da94-5f23-43d9-bf1d-13fdd7f34f7d","bea99957-1862-4ad8-9558-57b91e42ce64","{""participantId"":""9542EAD3CA434146BEE2D324017222DB"",""assignmentId"":""8519da94-5f23-43d9-bf1d-13fdd7f34f7d"",""projectId"":""bea99957-1862-4ad8-9558-57b91e42ce64""}","https://test12345.live/?participantId=9542EAD3CA434146BEE2D324017222DB&assignmentId=8519da94-5f23-43d9-bf1d-13fdd7f34f7d&projectId=bea99957-1862-4ad8-9558-57b91e42ce64","","null","<div style=""display: flex; justify-content: center; align-items: center;"">
                    <img src=""images/semantic/semantic_series_5/semantic_series_5_c.jpg"" style=""width: 300px; height: 300px;"" />
                  </div>","null","",""
"","","","","","html-keyboard-response","9","74455","0.0-7.0-3.0","9542EAD3CA434146BEE2D324017222DB","9542EAD3CA434146BEE2D324017222DB","8519da94-5f23-43d9-bf1d-13fdd7f34f7d","bea99957-1862-4ad8-9558-57b91e42ce64","{""participantId"":""9542EAD3CA434146BEE2D324017222DB"",""assignmentId"":""8519da94-5f23-43d9-bf1d-13fdd7f34f7d"",""projectId"":""bea99957-1862-4ad8-9558-57b91e42ce64""}","https://test12345.live/?participantId=9542EAD3CA434146BEE2D324017222DB&assignmentId=8519da94-5f23-43d9-bf1d-13fdd7f34f7d&projectId=bea99957-1862-4ad8-9558-57b91e42ce64","","null","<div style=""display: flex; justify-content: center; align-items: center;"">
                    <img src=""images/semantic/semantic_series_5/semantic_series_5_d.jpg"" style=""width: 300px; height: 300px;"" />
                  </div>","null","",""
"","","","","","html-button-response","10","77663","0.0-8.0","9542EAD3CA434146BEE2D324017222DB","9542EAD3CA434146BEE2D324017222DB","8519da94-5f23-43d9-bf1d-13fdd7f34f7d","bea99957-1862-4ad8-9558-57b91e42ce64","{""participantId"":""9542EAD3CA434146BEE2D324017222DB"",""assignmentId"":""8519da94-5f23-43d9-bf1d-13fdd7f34f7d"",""projectId"":""bea99957-1862-4ad8-9558-57b91e42ce64""}","https://test12345.live/?participantId=9542EAD3CA434146BEE2D324017222DB&assignmentId=8519da94-5f23-43d9-bf1d-13fdd7f34f7d&projectId=bea99957-1862-4ad8-9558-57b91e42ce64","","3205","Was there a person in the picture?","0","",""
"","","","","","survey-likert","11","84520","0.0-9.0","9542EAD3CA434146BEE2D324017222DB","9542EAD3CA434146BEE2D324017222DB","8519da94-5f23-43d9-bf1d-13fdd7f34f7d","bea99957-1862-4ad8-9558-57b91e42ce64","{""participantId"":""9542EAD3CA434146BEE2D324017222DB"",""assignmentId"":""8519da94-5f23-43d9-bf1d-13fdd7f34f7d"",""projectId"":""bea99957-1862-4ad8-9558-57b91e42ce64""}","https://test12345.live/?participantId=9542EAD3CA434146BEE2D324017222DB&assignmentId=8519da94-5f23-43d9-bf1d-13fdd7f34f7d&projectId=bea99957-1862-4ad8-9558-57b91e42ce64","","6839","","{""Q0"":4}","","[0]"
"","","","","","html-button-response","12","86904","0.0-10.0","9542EAD3CA434146BEE2D324017222DB","9542EAD3CA434146BEE2D324017222DB","8519da94-5f23-43d9-bf1d-13fdd7f34f7d","bea99957-1862-4ad8-9558-57b91e42ce64","{""participantId"":""9542EAD3CA434146BEE2D324017222DB"",""assignmentId"":""8519da94-5f23-43d9-bf1d-13fdd7f34f7d"",""projectId"":""bea99957-1862-4ad8-9558-57b91e42ce64""}","https://test12345.live/?participantId=9542EAD3CA434146BEE2D324017222DB&assignmentId=8519da94-5f23-43d9-bf1d-13fdd7f34f7d&projectId=bea99957-1862-4ad8-9558-57b91e42ce64","","2377","
    <div style=""display: flex; justify-content: center; align-items: center;"">
      <img src=""images/red_deck_2.png"" style=""width: 300px; height: 300px; margin-right: 10px;"" />
      <img src=""images/blue_deck_1.png"" style=""width: 300px; height: 300px;"" />
    </div>","1","1",""
"","","","","","html-keyboard-response","13","89926","0.0-11.0-0.0","9542EAD3CA434146BEE2D324017222DB","9542EAD3CA434146BEE2D324017222DB","8519da94-5f23-43d9-bf1d-13fdd7f34f7d","bea99957-1862-4ad8-9558-57b91e42ce64","{""participantId"":""9542EAD3CA434146BEE2D324017222DB"",""assignmentId"":""8519da94-5f23-43d9-bf1d-13fdd7f34f7d"",""projectId"":""bea99957-1862-4ad8-9558-57b91e42ce64""}","https://test12345.live/?participantId=9542EAD3CA434146BEE2D324017222DB&assignmentId=8519da94-5f23-43d9-bf1d-13fdd7f34f7d&projectId=bea99957-1862-4ad8-9558-57b91e42ce64","","null","<div style=""display: flex; justify-content: center; align-items: center;"">
                    <img src=""images/causal/causal_series_3/causal_series_3_a.jpg"" style=""width: 300px; height: 300px;"" />
                  </div>","null","",""
"","","","","","html-keyboard-response","14","92939","0.0-11.0-1.0","9542EAD3CA434146BEE2D324017222DB","9542EAD3CA434146BEE2D324017222DB","8519da94-5f23-43d9-bf1d-13fdd7f34f7d","bea99957-1862-4ad8-9558-57b91e42ce64","{""participantId"":""9542EAD3CA434146BEE2D324017222DB"",""assignmentId"":""8519da94-5f23-43d9-bf1d-13fdd7f34f7d"",""projectId"":""bea99957-1862-4ad8-9558-57b91e42ce64""}","https://test12345.live/?participantId=9542EAD3CA434146BEE2D324017222DB&assignmentId=8519da94-5f23-43d9-bf1d-13fdd7f34f7d&projectId=bea99957-1862-4ad8-9558-57b91e42ce64","","null","<div style=""display: flex; justify-content: center; align-items: center;"">
                    <img src=""images/causal/causal_series_3/causal_series_3_b.jpg"" style=""width: 300px; height: 300px;"" />
                  </div>","null","",""
"","","","","","html-keyboard-response","15","95951","0.0-11.0-2.0","9542EAD3CA434146BEE2D324017222DB","9542EAD3CA434146BEE2D324017222DB","8519da94-5f23-43d9-bf1d-13fdd7f34f7d","bea99957-1862-4ad8-9558-57b91e42ce64","{""participantId"":""9542EAD3CA434146BEE2D324017222DB"",""assignmentId"":""8519da94-5f23-43d9-bf1d-13fdd7f34f7d"",""projectId"":""bea99957-1862-4ad8-9558-57b91e42ce64""}","https://test12345.live/?participantId=9542EAD3CA434146BEE2D324017222DB&assignmentId=8519da94-5f23-43d9-bf1d-13fdd7f34f7d&projectId=bea99957-1862-4ad8-9558-57b91e42ce64","","null","<div style=""display: flex; justify-content: center; align-items: center;"">
                    <img src=""images/causal/causal_series_3/causal_series_3_c.jpg"" style=""width: 300px; height: 300px;"" />
                  </div>","null","",""
"","","","","","html-keyboard-response","16","98963","0.0-11.0-3.0","9542EAD3CA434146BEE2D324017222DB","9542EAD3CA434146BEE2D324017222DB","8519da94-5f23-43d9-bf1d-13fdd7f34f7d","bea99957-1862-4ad8-9558-57b91e42ce64","{""participantId"":""9542EAD3CA434146BEE2D324017222DB"",""assignmentId"":""8519da94-5f23-43d9-bf1d-13fdd7f34f7d"",""projectId"":""bea99957-1862-4ad8-9558-57b91e42ce64""}","https://test12345.live/?participantId=9542EAD3CA434146BEE2D324017222DB&assignmentId=8519da94-5f23-43d9-bf1d-13fdd7f34f7d&projectId=bea99957-1862-4ad8-9558-57b91e42ce64","","null","<div style=""display: flex; justify-content: center; align-items: center;"">
                    <img src=""images/causal/causal_series_3/causal_series_3_d.jpg"" style=""width: 300px; height: 300px;"" />
                  </div>","null","",""
"","","","","","html-button-response","17","101386","0.0-13.0","9542EAD3CA434146BEE2D324017222DB","9542EAD3CA434146BEE2D324017222DB","8519da94-5f23-43d9-bf1d-13fdd7f34f7d","bea99957-1862-4ad8-9558-57b91e42ce64","{""participantId"":""9542EAD3CA434146BEE2D324017222DB"",""assignmentId"":""8519da94-5f23-43d9-bf1d-13fdd7f34f7d"",""projectId"":""bea99957-1862-4ad8-9558-57b91e42ce64""}","https://test12345.live/?participantId=9542EAD3CA434146BEE2D324017222DB&assignmentId=8519da94-5f23-43d9-bf1d-13fdd7f34f7d&projectId=bea99957-1862-4ad8-9558-57b91e42ce64","","2420","Was there a person in the picture?","0","",""
"","","","","","survey-likert","18","105074","0.0-14.0","9542EAD3CA434146BEE2D324017222DB","9542EAD3CA434146BEE2D324017222DB","8519da94-5f23-43d9-bf1d-13fdd7f34f7d","bea99957-1862-4ad8-9558-57b91e42ce64","{""participantId"":""9542EAD3CA434146BEE2D324017222DB"",""assignmentId"":""8519da94-5f23-43d9-bf1d-13fdd7f34f7d"",""projectId"":""bea99957-1862-4ad8-9558-57b91e42ce64""}","https://test12345.live/?participantId=9542EAD3CA434146BEE2D324017222DB&assignmentId=8519da94-5f23-43d9-bf1d-13fdd7f34f7d&projectId=bea99957-1862-4ad8-9558-57b91e42ce64","","3684","","{""Q0"":2}","","[0]"
"","","","","","html-button-response","19","106461","0.0-15.0","9542EAD3CA434146BEE2D324017222DB","9542EAD3CA434146BEE2D324017222DB","8519da94-5f23-43d9-bf1d-13fdd7f34f7d","bea99957-1862-4ad8-9558-57b91e42ce64","{""participantId"":""9542EAD3CA434146BEE2D324017222DB"",""assignmentId"":""8519da94-5f23-43d9-bf1d-13fdd7f34f7d"",""projectId"":""bea99957-1862-4ad8-9558-57b91e42ce64""}","https://test12345.live/?participantId=9542EAD3CA434146BEE2D324017222DB&assignmentId=8519da94-5f23-43d9-bf1d-13fdd7f34f7d&projectId=bea99957-1862-4ad8-9558-57b91e42ce64","","1377","
    <div style=""display: flex; justify-content: center; align-items: center;"">
      <img src=""images/red_deck_2.png"" style=""width: 300px; height: 300px; margin-right: 10px;"" />
      <img src=""images/blue_deck_1.png"" style=""width: 300px; height: 300px;"" />
    </div>","0","0",""
"","","","","","html-keyboard-response","20","109467","0.0-17.0-0.0","9542EAD3CA434146BEE2D324017222DB","9542EAD3CA434146BEE2D324017222DB","8519da94-5f23-43d9-bf1d-13fdd7f34f7d","bea99957-1862-4ad8-9558-57b91e42ce64","{""participantId"":""9542EAD3CA434146BEE2D324017222DB"",""assignmentId"":""8519da94-5f23-43d9-bf1d-13fdd7f34f7d"",""projectId"":""bea99957-1862-4ad8-9558-57b91e42ce64""}","https://test12345.live/?participantId=9542EAD3CA434146BEE2D324017222DB&assignmentId=8519da94-5f23-43d9-bf1d-13fdd7f34f7d&projectId=bea99957-1862-4ad8-9558-57b91e42ce64","","null","<div style=""display: flex; justify-content: center; align-items: center;"">
                    <img src=""images/semantic/semantic_series_3/semantic_series_3_a.jpg"" style=""width: 300px; height: 300px;"" />
                  </div>","null","",""
"","","","","","html-keyboard-response","21","112483","0.0-17.0-1.0","9542EAD3CA434146BEE2D324017222DB","9542EAD3CA434146BEE2D324017222DB","8519da94-5f23-43d9-bf1d-13fdd7f34f7d","bea99957-1862-4ad8-9558-57b91e42ce64","{""participantId"":""9542EAD3CA434146BEE2D324017222DB"",""assignmentId"":""8519da94-5f23-43d9-bf1d-13fdd7f34f7d"",""projectId"":""bea99957-1862-4ad8-9558-57b91e42ce64""}","https://test12345.live/?participantId=9542EAD3CA434146BEE2D324017222DB&assignmentId=8519da94-5f23-43d9-bf1d-13fdd7f34f7d&projectId=bea99957-1862-4ad8-9558-57b91e42ce64","","null","<div style=""display: flex; justify-content: center; align-items: center;"">
                    <img src=""images/semantic/semantic_series_3/semantic_series_3_b.jpg"" style=""width: 300px; height: 300px;"" />
                  </div>","null","",""
"","","","","","html-keyboard-response","22","115499","0.0-17.0-2.0","9542EAD3CA434146BEE2D324017222DB","9542EAD3CA434146BEE2D324017222DB","8519da94-5f23-43d9-bf1d-13fdd7f34f7d","bea99957-1862-4ad8-9558-57b91e42ce64","{""participantId"":""9542EAD3CA434146BEE2D324017222DB"",""assignmentId"":""8519da94-5f23-43d9-bf1d-13fdd7f34f7d"",""projectId"":""bea99957-1862-4ad8-9558-57b91e42ce64""}","https://test12345.live/?participantId=9542EAD3CA434146BEE2D324017222DB&assignmentId=8519da94-5f23-43d9-bf1d-13fdd7f34f7d&projectId=bea99957-1862-4ad8-9558-57b91e42ce64","","null","<div style=""display: flex; justify-content: center; align-items: center;"">
                    <img src=""images/semantic/semantic_series_3/semantic_series_3_c.jpg"" style=""width: 300px; height: 300px;"" />
                  </div>","null","",""
"","","","","","html-keyboard-response","23","118512","0.0-17.0-3.0","9542EAD3CA434146BEE2D324017222DB","9542EAD3CA434146BEE2D324017222DB","8519da94-5f23-43d9-bf1d-13fdd7f34f7d","bea99957-1862-4ad8-9558-57b91e42ce64","{""participantId"":""9542EAD3CA434146BEE2D324017222DB"",""assignmentId"":""8519da94-5f23-43d9-bf1d-13fdd7f34f7d"",""projectId"":""bea99957-1862-4ad8-9558-57b91e42ce64""}","https://test12345.live/?participantId=9542EAD3CA434146BEE2D324017222DB&assignmentId=8519da94-5f23-43d9-bf1d-13fdd7f34f7d&projectId=bea99957-1862-4ad8-9558-57b91e42ce64","","null","<div style=""display: flex; justify-content: center; align-items: center;"">
                    <img src=""images/semantic/semantic_series_3/semantic_series_3_d.jpg"" style=""width: 300px; height: 300px;"" />
                  </div>","null","",""
"","","","","","html-button-response","24","120622","0.0-18.0","9542EAD3CA434146BEE2D324017222DB","9542EAD3CA434146BEE2D324017222DB","8519da94-5f23-43d9-bf1d-13fdd7f34f7d","bea99957-1862-4ad8-9558-57b91e42ce64","{""participantId"":""9542EAD3CA434146BEE2D324017222DB"",""assignmentId"":""8519da94-5f23-43d9-bf1d-13fdd7f34f7d"",""projectId"":""bea99957-1862-4ad8-9558-57b91e42ce64""}","https://test12345.live/?participantId=9542EAD3CA434146BEE2D324017222DB&assignmentId=8519da94-5f23-43d9-bf1d-13fdd7f34f7d&projectId=bea99957-1862-4ad8-9558-57b91e42ce64","","2108","Was there a person in the picture?","0","",""
"","","","","","survey-likert","25","125773","0.0-19.0","9542EAD3CA434146BEE2D324017222DB","9542EAD3CA434146BEE2D324017222DB","8519da94-5f23-43d9-bf1d-13fdd7f34f7d","bea99957-1862-4ad8-9558-57b91e42ce64","{""participantId"":""9542EAD3CA434146BEE2D324017222DB"",""assignmentId"":""8519da94-5f23-43d9-bf1d-13fdd7f34f7d"",""projectId"":""bea99957-1862-4ad8-9558-57b91e42ce64""}","https://test12345.live/?participantId=9542EAD3CA434146BEE2D324017222DB&assignmentId=8519da94-5f23-43d9-bf1d-13fdd7f34f7d&projectId=bea99957-1862-4ad8-9558-57b91e42ce64","","5146","","{""Q0"":2}","","[0]"
"","","","","","html-button-response","26","127282","0.0-20.0","9542EAD3CA434146BEE2D324017222DB","9542EAD3CA434146BEE2D324017222DB","8519da94-5f23-43d9-bf1d-13fdd7f34f7d","bea99957-1862-4ad8-9558-57b91e42ce64","{""participantId"":""9542EAD3CA434146BEE2D324017222DB"",""assignmentId"":""8519da94-5f23-43d9-bf1d-13fdd7f34f7d"",""projectId"":""bea99957-1862-4ad8-9558-57b91e42ce64""}","https://test12345.live/?participantId=9542EAD3CA434146BEE2D324017222DB&assignmentId=8519da94-5f23-43d9-bf1d-13fdd7f34f7d&projectId=bea99957-1862-4ad8-9558-57b91e42ce64","","1502","
    <div style=""display: flex; justify-content: center; align-items: center;"">
      <img src=""images/red_deck_2.png"" style=""width: 300px; height: 300px; margin-right: 10px;"" />
      <img src=""images/blue_deck_1.png"" style=""width: 300px; height: 300px;"" />
    </div>","1","1",""
"","","","","","html-keyboard-response","27","130298","0.0-21.0-0.0","9542EAD3CA434146BEE2D324017222DB","9542EAD3CA434146BEE2D324017222DB","8519da94-5f23-43d9-bf1d-13fdd7f34f7d","bea99957-1862-4ad8-9558-57b91e42ce64","{""participantId"":""9542EAD3CA434146BEE2D324017222DB"",""assignmentId"":""8519da94-5f23-43d9-bf1d-13fdd7f34f7d"",""projectId"":""bea99957-1862-4ad8-9558-57b91e42ce64""}","https://test12345.live/?participantId=9542EAD3CA434146BEE2D324017222DB&assignmentId=8519da94-5f23-43d9-bf1d-13fdd7f34f7d&projectId=bea99957-1862-4ad8-9558-57b91e42ce64","","null","<div style=""display: flex; justify-content: center; align-items: center;"">
                    <img src=""images/causal/causal_series_16/causal_series_16_a.jpg"" style=""width: 300px; height: 300px;"" />
                  </div>","null","",""
"","","","","","html-keyboard-response","28","133311","0.0-21.0-1.0","9542EAD3CA434146BEE2D324017222DB","9542EAD3CA434146BEE2D324017222DB","8519da94-5f23-43d9-bf1d-13fdd7f34f7d","bea99957-1862-4ad8-9558-57b91e42ce64","{""participantId"":""9542EAD3CA434146BEE2D324017222DB"",""assignmentId"":""8519da94-5f23-43d9-bf1d-13fdd7f34f7d"",""projectId"":""bea99957-1862-4ad8-9558-57b91e42ce64""}","https://test12345.live/?participantId=9542EAD3CA434146BEE2D324017222DB&assignmentId=8519da94-5f23-43d9-bf1d-13fdd7f34f7d&projectId=bea99957-1862-4ad8-9558-57b91e42ce64","","null","<div style=""display: flex; justify-content: center; align-items: center;"">
                    <img src=""images/causal/causal_series_16/causal_series_16_b.jpg"" style=""width: 300px; height: 300px;"" />
                  </div>","null","",""
"","","","","","html-keyboard-response","29","136330","0.0-21.0-2.0","9542EAD3CA434146BEE2D324017222DB","9542EAD3CA434146BEE2D324017222DB","8519da94-5f23-43d9-bf1d-13fdd7f34f7d","bea99957-1862-4ad8-9558-57b91e42ce64","{""participantId"":""9542EAD3CA434146BEE2D324017222DB"",""assignmentId"":""8519da94-5f23-43d9-bf1d-13fdd7f34f7d"",""projectId"":""bea99957-1862-4ad8-9558-57b91e42ce64""}","https://test12345.live/?participantId=9542EAD3CA434146BEE2D324017222DB&assignmentId=8519da94-5f23-43d9-bf1d-13fdd7f34f7d&projectId=bea99957-1862-4ad8-9558-57b91e42ce64","","null","<div style=""display: flex; justify-content: center; align-items: center;"">
                    <img src=""images/causal/causal_series_16/causal_series_16_c.jpg"" style=""width: 300px; height: 300px;"" />
                  </div>","null","",""
"","","","","","html-keyboard-response","30","139340","0.0-21.0-3.0","9542EAD3CA434146BEE2D324017222DB","9542EAD3CA434146BEE2D324017222DB","8519da94-5f23-43d9-bf1d-13fdd7f34f7d","bea99957-1862-4ad8-9558-57b91e42ce64","{""participantId"":""9542EAD3CA434146BEE2D324017222DB"",""assignmentId"":""8519da94-5f23-43d9-bf1d-13fdd7f34f7d"",""projectId"":""bea99957-1862-4ad8-9558-57b91e42ce64""}","https://test12345.live/?participantId=9542EAD3CA434146BEE2D324017222DB&assignmentId=8519da94-5f23-43d9-bf1d-13fdd7f34f7d&projectId=bea99957-1862-4ad8-9558-57b91e42ce64","","null","<div style=""display: flex; justify-content: center; align-items: center;"">
                    <img src=""images/causal/causal_series_16/causal_series_16_d.jpg"" style=""width: 300px; height: 300px;"" />
                  </div>","null","",""
"","","","","","html-button-response","31","143350","0.0-23.0","9542EAD3CA434146BEE2D324017222DB","9542EAD3CA434146BEE2D324017222DB","8519da94-5f23-43d9-bf1d-13fdd7f34f7d","bea99957-1862-4ad8-9558-57b91e42ce64","{""participantId"":""9542EAD3CA434146BEE2D324017222DB"",""assignmentId"":""8519da94-5f23-43d9-bf1d-13fdd7f34f7d"",""projectId"":""bea99957-1862-4ad8-9558-57b91e42ce64""}","https://test12345.live/?participantId=9542EAD3CA434146BEE2D324017222DB&assignmentId=8519da94-5f23-43d9-bf1d-13fdd7f34f7d&projectId=bea99957-1862-4ad8-9558-57b91e42ce64","","4007","Was there a person in the picture?","0","",""
"","","","","","survey-likert","32","149219","0.0-24.0","9542EAD3CA434146BEE2D324017222DB","9542EAD3CA434146BEE2D324017222DB","8519da94-5f23-43d9-bf1d-13fdd7f34f7d","bea99957-1862-4ad8-9558-57b91e42ce64","{""participantId"":""9542EAD3CA434146BEE2D324017222DB"",""assignmentId"":""8519da94-5f23-43d9-bf1d-13fdd7f34f7d"",""projectId"":""bea99957-1862-4ad8-9558-57b91e42ce64""}","https://test12345.live/?participantId=9542EAD3CA434146BEE2D324017222DB&assignmentId=8519da94-5f23-43d9-bf1d-13fdd7f34f7d&projectId=bea99957-1862-4ad8-9558-57b91e42ce64","","5860","","{""Q0"":1}","","[0]"
"","","","","","html-button-response","33","150307","0.0-25.0","9542EAD3CA434146BEE2D324017222DB","9542EAD3CA434146BEE2D324017222DB","8519da94-5f23-43d9-bf1d-13fdd7f34f7d","bea99957-1862-4ad8-9558-57b91e42ce64","{""participantId"":""9542EAD3CA434146BEE2D324017222DB"",""assignmentId"":""8519da94-5f23-43d9-bf1d-13fdd7f34f7d"",""projectId"":""bea99957-1862-4ad8-9558-57b91e42ce64""}","https://test12345.live/?participantId=9542EAD3CA434146BEE2D324017222DB&assignmentId=8519da94-5f23-43d9-bf1d-13fdd7f34f7d&projectId=bea99957-1862-4ad8-9558-57b91e42ce64","","1079","
    <div style=""display: flex; justify-content: center; align-items: center;"">
      <img src=""images/red_deck_2.png"" style=""width: 300px; height: 300px; margin-right: 10px;"" />
      <img src=""images/blue_deck_1.png"" style=""width: 300px; height: 300px;"" />
    </div>","0","0",""
"","","","","","html-keyboard-response","34","153324","0.0-27.0-0.0","9542EAD3CA434146BEE2D324017222DB","9542EAD3CA434146BEE2D324017222DB","8519da94-5f23-43d9-bf1d-13fdd7f34f7d","bea99957-1862-4ad8-9558-57b91e42ce64","{""participantId"":""9542EAD3CA434146BEE2D324017222DB"",""assignmentId"":""8519da94-5f23-43d9-bf1d-13fdd7f34f7d"",""projectId"":""bea99957-1862-4ad8-9558-57b91e42ce64""}","https://test12345.live/?participantId=9542EAD3CA434146BEE2D324017222DB&assignmentId=8519da94-5f23-43d9-bf1d-13fdd7f34f7d&projectId=bea99957-1862-4ad8-9558-57b91e42ce64","","null","<div style=""display: flex; justify-content: center; align-items: center;"">
                    <img src=""images/semantic/semantic_series_11/semantic_series_11_a.jpg"" style=""width: 300px; height: 300px;"" />
                  </div>","null","",""
"","","","","","html-keyboard-response","35","156328","0.0-27.0-1.0","9542EAD3CA434146BEE2D324017222DB","9542EAD3CA434146BEE2D324017222DB","8519da94-5f23-43d9-bf1d-13fdd7f34f7d","bea99957-1862-4ad8-9558-57b91e42ce64","{""participantId"":""9542EAD3CA434146BEE2D324017222DB"",""assignmentId"":""8519da94-5f23-43d9-bf1d-13fdd7f34f7d"",""projectId"":""bea99957-1862-4ad8-9558-57b91e42ce64""}","https://test12345.live/?participantId=9542EAD3CA434146BEE2D324017222DB&assignmentId=8519da94-5f23-43d9-bf1d-13fdd7f34f7d&projectId=bea99957-1862-4ad8-9558-57b91e42ce64","","null","<div style=""display: flex; justify-content: center; align-items: center;"">
                    <img src=""images/semantic/semantic_series_11/semantic_series_11_b.jpg"" style=""width: 300px; height: 300px;"" />
                  </div>","null","",""
"","","","","","html-keyboard-response","36","159333","0.0-27.0-2.0","9542EAD3CA434146BEE2D324017222DB","9542EAD3CA434146BEE2D324017222DB","8519da94-5f23-43d9-bf1d-13fdd7f34f7d","bea99957-1862-4ad8-9558-57b91e42ce64","{""participantId"":""9542EAD3CA434146BEE2D324017222DB"",""assignmentId"":""8519da94-5f23-43d9-bf1d-13fdd7f34f7d"",""projectId"":""bea99957-1862-4ad8-9558-57b91e42ce64""}","https://test12345.live/?participantId=9542EAD3CA434146BEE2D324017222DB&assignmentId=8519da94-5f23-43d9-bf1d-13fdd7f34f7d&projectId=bea99957-1862-4ad8-9558-57b91e42ce64","","null","<div style=""display: flex; justify-content: center; align-items: center;"">
                    <img src=""images/semantic/semantic_series_11/semantic_series_11_c.jpg"" style=""width: 300px; height: 300px;"" />
                  </div>","null","",""
"","","","","","html-keyboard-response","37","162355","0.0-27.0-3.0","9542EAD3CA434146BEE2D324017222DB","9542EAD3CA434146BEE2D324017222DB","8519da94-5f23-43d9-bf1d-13fdd7f34f7d","bea99957-1862-4ad8-9558-57b91e42ce64","{""participantId"":""9542EAD3CA434146BEE2D324017222DB"",""assignmentId"":""8519da94-5f23-43d9-bf1d-13fdd7f34f7d"",""projectId"":""bea99957-1862-4ad8-9558-57b91e42ce64""}","https://test12345.live/?participantId=9542EAD3CA434146BEE2D324017222DB&assignmentId=8519da94-5f23-43d9-bf1d-13fdd7f34f7d&projectId=bea99957-1862-4ad8-9558-57b91e42ce64","","null","<div style=""display: flex; justify-content: center; align-items: center;"">
                    <img src=""images/semantic/semantic_series_11/semantic_series_11_d.jpg"" style=""width: 300px; height: 300px;"" />
                  </div>","null","",""
"","","","","","html-button-response","38","163831","0.0-28.0","9542EAD3CA434146BEE2D324017222DB","9542EAD3CA434146BEE2D324017222DB","8519da94-5f23-43d9-bf1d-13fdd7f34f7d","bea99957-1862-4ad8-9558-57b91e42ce64","{""participantId"":""9542EAD3CA434146BEE2D324017222DB"",""assignmentId"":""8519da94-5f23-43d9-bf1d-13fdd7f34f7d"",""projectId"":""bea99957-1862-4ad8-9558-57b91e42ce64""}","https://test12345.live/?participantId=9542EAD3CA434146BEE2D324017222DB&assignmentId=8519da94-5f23-43d9-bf1d-13fdd7f34f7d&projectId=bea99957-1862-4ad8-9558-57b91e42ce64","","1474","Was there a person in the picture?","0","",""
"","","","","","survey-likert","39","167987","0.0-29.0","9542EAD3CA434146BEE2D324017222DB","9542EAD3CA434146BEE2D324017222DB","8519da94-5f23-43d9-bf1d-13fdd7f34f7d","bea99957-1862-4ad8-9558-57b91e42ce64","{""participantId"":""9542EAD3CA434146BEE2D324017222DB"",""assignmentId"":""8519da94-5f23-43d9-bf1d-13fdd7f34f7d"",""projectId"":""bea99957-1862-4ad8-9558-57b91e42ce64""}","https://test12345.live/?participantId=9542EAD3CA434146BEE2D324017222DB&assignmentId=8519da94-5f23-43d9-bf1d-13fdd7f34f7d&projectId=bea99957-1862-4ad8-9558-57b91e42ce64","","4152","","{""Q0"":0}","","[0]"
"","","","","","html-button-response","40","169128","0.0-30.0","9542EAD3CA434146BEE2D324017222DB","9542EAD3CA434146BEE2D324017222DB","8519da94-5f23-43d9-bf1d-13fdd7f34f7d","bea99957-1862-4ad8-9558-57b91e42ce64","{""participantId"":""9542EAD3CA434146BEE2D324017222DB"",""assignmentId"":""8519da94-5f23-43d9-bf1d-13fdd7f34f7d"",""projectId"":""bea99957-1862-4ad8-9558-57b91e42ce64""}","https://test12345.live/?participantId=9542EAD3CA434146BEE2D324017222DB&assignmentId=8519da94-5f23-43d9-bf1d-13fdd7f34f7d&projectId=bea99957-1862-4ad8-9558-57b91e42ce64","","1133","
    <div style=""display: flex; justify-content: center; align-items: center;"">
      <img src=""images/red_deck_2.png"" style=""width: 300px; height: 300px; margin-right: 10px;"" />
      <img src=""images/blue_deck_1.png"" style=""width: 300px; height: 300px;"" />
    </div>","1","1",""
"","","","","","html-keyboard-response","41","172139","0.0-31.0-0.0","9542EAD3CA434146BEE2D324017222DB","9542EAD3CA434146BEE2D324017222DB","8519da94-5f23-43d9-bf1d-13fdd7f34f7d","bea99957-1862-4ad8-9558-57b91e42ce64","{""participantId"":""9542EAD3CA434146BEE2D324017222DB"",""assignmentId"":""8519da94-5f23-43d9-bf1d-13fdd7f34f7d"",""projectId"":""bea99957-1862-4ad8-9558-57b91e42ce64""}","https://test12345.live/?participantId=9542EAD3CA434146BEE2D324017222DB&assignmentId=8519da94-5f23-43d9-bf1d-13fdd7f34f7d&projectId=bea99957-1862-4ad8-9558-57b91e42ce64","","null","<div style=""display: flex; justify-content: center; align-items: center;"">
                    <img src=""images/causal/causal_series_7/causal_series_7_a.jpg"" style=""width: 300px; height: 300px;"" />
                  </div>","null","",""
"","","","","","html-keyboard-response","42","175156","0.0-31.0-1.0","9542EAD3CA434146BEE2D324017222DB","9542EAD3CA434146BEE2D324017222DB","8519da94-5f23-43d9-bf1d-13fdd7f34f7d","bea99957-1862-4ad8-9558-57b91e42ce64","{""participantId"":""9542EAD3CA434146BEE2D324017222DB"",""assignmentId"":""8519da94-5f23-43d9-bf1d-13fdd7f34f7d"",""projectId"":""bea99957-1862-4ad8-9558-57b91e42ce64""}","https://test12345.live/?participantId=9542EAD3CA434146BEE2D324017222DB&assignmentId=8519da94-5f23-43d9-bf1d-13fdd7f34f7d&projectId=bea99957-1862-4ad8-9558-57b91e42ce64","","null","<div style=""display: flex; justify-content: center; align-items: center;"">
                    <img src=""images/causal/causal_series_7/causal_series_7_b.jpg"" style=""width: 300px; height: 300px;"" />
                  </div>","null","",""
"","","","","","html-keyboard-response","43","178164","0.0-31.0-2.0","9542EAD3CA434146BEE2D324017222DB","9542EAD3CA434146BEE2D324017222DB","8519da94-5f23-43d9-bf1d-13fdd7f34f7d","bea99957-1862-4ad8-9558-57b91e42ce64","{""participantId"":""9542EAD3CA434146BEE2D324017222DB"",""assignmentId"":""8519da94-5f23-43d9-bf1d-13fdd7f34f7d"",""projectId"":""bea99957-1862-4ad8-9558-57b91e42ce64""}","https://test12345.live/?participantId=9542EAD3CA434146BEE2D324017222DB&assignmentId=8519da94-5f23-43d9-bf1d-13fdd7f34f7d&projectId=bea99957-1862-4ad8-9558-57b91e42ce64","","null","<div style=""display: flex; justify-content: center; align-items: center;"">
                    <img src=""images/causal/causal_series_7/causal_series_7_c.jpg"" style=""width: 300px; height: 300px;"" />
                  </div>","null","",""
"","","","","","html-keyboard-response","44","181175","0.0-31.0-3.0","9542EAD3CA434146BEE2D324017222DB","9542EAD3CA434146BEE2D324017222DB","8519da94-5f23-43d9-bf1d-13fdd7f34f7d","bea99957-1862-4ad8-9558-57b91e42ce64","{""participantId"":""9542EAD3CA434146BEE2D324017222DB"",""assignmentId"":""8519da94-5f23-43d9-bf1d-13fdd7f34f7d"",""projectId"":""bea99957-1862-4ad8-9558-57b91e42ce64""}","https://test12345.live/?participantId=9542EAD3CA434146BEE2D324017222DB&assignmentId=8519da94-5f23-43d9-bf1d-13fdd7f34f7d&projectId=bea99957-1862-4ad8-9558-57b91e42ce64","","null","<div style=""display: flex; justify-content: center; align-items: center;"">
                    <img src=""images/causal/causal_series_7/causal_series_7_d.jpg"" style=""width: 300px; height: 300px;"" />
                  </div>","null","",""
"","","","","","html-button-response","45","183438","0.0-33.0","9542EAD3CA434146BEE2D324017222DB","9542EAD3CA434146BEE2D324017222DB","8519da94-5f23-43d9-bf1d-13fdd7f34f7d","bea99957-1862-4ad8-9558-57b91e42ce64","{""participantId"":""9542EAD3CA434146BEE2D324017222DB"",""assignmentId"":""8519da94-5f23-43d9-bf1d-13fdd7f34f7d"",""projectId"":""bea99957-1862-4ad8-9558-57b91e42ce64""}","https://test12345.live/?participantId=9542EAD3CA434146BEE2D324017222DB&assignmentId=8519da94-5f23-43d9-bf1d-13fdd7f34f7d&projectId=bea99957-1862-4ad8-9558-57b91e42ce64","","2261","Was there a person in the picture?","1","",""
"","","","","","survey-likert","46","187773","0.0-34.0","9542EAD3CA434146BEE2D324017222DB","9542EAD3CA434146BEE2D324017222DB","8519da94-5f23-43d9-bf1d-13fdd7f34f7d","bea99957-1862-4ad8-9558-57b91e42ce64","{""participantId"":""9542EAD3CA434146BEE2D324017222DB"",""assignmentId"":""8519da94-5f23-43d9-bf1d-13fdd7f34f7d"",""projectId"":""bea99957-1862-4ad8-9558-57b91e42ce64""}","https://test12345.live/?participantId=9542EAD3CA434146BEE2D324017222DB&assignmentId=8519da94-5f23-43d9-bf1d-13fdd7f34f7d&projectId=bea99957-1862-4ad8-9558-57b91e42ce64","","4330","","{""Q0"":4}","","[0]"
"","","","","","html-button-response","47","189083","0.0-35.0","9542EAD3CA434146BEE2D324017222DB","9542EAD3CA434146BEE2D324017222DB","8519da94-5f23-43d9-bf1d-13fdd7f34f7d","bea99957-1862-4ad8-9558-57b91e42ce64","{""participantId"":""9542EAD3CA434146BEE2D324017222DB"",""assignmentId"":""8519da94-5f23-43d9-bf1d-13fdd7f34f7d"",""projectId"":""bea99957-1862-4ad8-9558-57b91e42ce64""}","https://test12345.live/?participantId=9542EAD3CA434146BEE2D324017222DB&assignmentId=8519da94-5f23-43d9-bf1d-13fdd7f34f7d&projectId=bea99957-1862-4ad8-9558-57b91e42ce64","","1299","
    <div style=""display: flex; justify-content: center; align-items: center;"">
      <img src=""images/red_deck_2.png"" style=""width: 300px; height: 300px; margin-right: 10px;"" />
      <img src=""images/blue_deck_1.png"" style=""width: 300px; height: 300px;"" />
    </div>","0","0",""
"","","","","","html-keyboard-response","48","192089","0.0-37.0-0.0","9542EAD3CA434146BEE2D324017222DB","9542EAD3CA434146BEE2D324017222DB","8519da94-5f23-43d9-bf1d-13fdd7f34f7d","bea99957-1862-4ad8-9558-57b91e42ce64","{""participantId"":""9542EAD3CA434146BEE2D324017222DB"",""assignmentId"":""8519da94-5f23-43d9-bf1d-13fdd7f34f7d"",""projectId"":""bea99957-1862-4ad8-9558-57b91e42ce64""}","https://test12345.live/?participantId=9542EAD3CA434146BEE2D324017222DB&assignmentId=8519da94-5f23-43d9-bf1d-13fdd7f34f7d&projectId=bea99957-1862-4ad8-9558-57b91e42ce64","","null","<div style=""display: flex; justify-content: center; align-items: center;"">
                    <img src=""images/semantic/semantic_series_6/semantic_series_6_a.jpg"" style=""width: 300px; height: 300px;"" />
                  </div>","null","",""
"","","","","","html-keyboard-response","49","195103","0.0-37.0-1.0","9542EAD3CA434146BEE2D324017222DB","9542EAD3CA434146BEE2D324017222DB","8519da94-5f23-43d9-bf1d-13fdd7f34f7d","bea99957-1862-4ad8-9558-57b91e42ce64","{""participantId"":""9542EAD3CA434146BEE2D324017222DB"",""assignmentId"":""8519da94-5f23-43d9-bf1d-13fdd7f34f7d"",""projectId"":""bea99957-1862-4ad8-9558-57b91e42ce64""}","https://test12345.live/?participantId=9542EAD3CA434146BEE2D324017222DB&assignmentId=8519da94-5f23-43d9-bf1d-13fdd7f34f7d&projectId=bea99957-1862-4ad8-9558-57b91e42ce64","","null","<div style=""display: flex; justify-content: center; align-items: center;"">
                    <img src=""images/semantic/semantic_series_6/semantic_series_6_b.jpg"" style=""width: 300px; height: 300px;"" />
                  </div>","null","",""
"","","","","","html-keyboard-response","50","198116","0.0-37.0-2.0","9542EAD3CA434146BEE2D324017222DB","9542EAD3CA434146BEE2D324017222DB","8519da94-5f23-43d9-bf1d-13fdd7f34f7d","bea99957-1862-4ad8-9558-57b91e42ce64","{""participantId"":""9542EAD3CA434146BEE2D324017222DB"",""assignmentId"":""8519da94-5f23-43d9-bf1d-13fdd7f34f7d"",""projectId"":""bea99957-1862-4ad8-9558-57b91e42ce64""}","https://test12345.live/?participantId=9542EAD3CA434146BEE2D324017222DB&assignmentId=8519da94-5f23-43d9-bf1d-13fdd7f34f7d&projectId=bea99957-1862-4ad8-9558-57b91e42ce64","","null","<div style=""display: flex; justify-content: center; align-items: center;"">
                    <img src=""images/semantic/semantic_series_6/semantic_series_6_c.jpg"" style=""width: 300px; height: 300px;"" />
                  </div>","null","",""
"","","","","","html-keyboard-response","51","201131","0.0-37.0-3.0","9542EAD3CA434146BEE2D324017222DB","9542EAD3CA434146BEE2D324017222DB","8519da94-5f23-43d9-bf1d-13fdd7f34f7d","bea99957-1862-4ad8-9558-57b91e42ce64","{""participantId"":""9542EAD3CA434146BEE2D324017222DB"",""assignmentId"":""8519da94-5f23-43d9-bf1d-13fdd7f34f7d"",""projectId"":""bea99957-1862-4ad8-9558-57b91e42ce64""}","https://test12345.live/?participantId=9542EAD3CA434146BEE2D324017222DB&assignmentId=8519da94-5f23-43d9-bf1d-13fdd7f34f7d&projectId=bea99957-1862-4ad8-9558-57b91e42ce64","","null","<div style=""display: flex; justify-content: center; align-items: center;"">
                    <img src=""images/semantic/semantic_series_6/semantic_series_6_d.jpg"" style=""width: 300px; height: 300px;"" />
                  </div>","null","",""
"","","","","","html-button-response","52","203144","0.0-38.0","9542EAD3CA434146BEE2D324017222DB","9542EAD3CA434146BEE2D324017222DB","8519da94-5f23-43d9-bf1d-13fdd7f34f7d","bea99957-1862-4ad8-9558-57b91e42ce64","{""participantId"":""9542EAD3CA434146BEE2D324017222DB"",""assignmentId"":""8519da94-5f23-43d9-bf1d-13fdd7f34f7d"",""projectId"":""bea99957-1862-4ad8-9558-57b91e42ce64""}","https://test12345.live/?participantId=9542EAD3CA434146BEE2D324017222DB&assignmentId=8519da94-5f23-43d9-bf1d-13fdd7f34f7d&projectId=bea99957-1862-4ad8-9558-57b91e42ce64","","2007","Was there a person in the picture?","1","",""
"","","","","","survey-likert","53","206921","0.0-39.0","9542EAD3CA434146BEE2D324017222DB","9542EAD3CA434146BEE2D324017222DB","8519da94-5f23-43d9-bf1d-13fdd7f34f7d","bea99957-1862-4ad8-9558-57b91e42ce64","{""participantId"":""9542EAD3CA434146BEE2D324017222DB"",""assignmentId"":""8519da94-5f23-43d9-bf1d-13fdd7f34f7d"",""projectId"":""bea99957-1862-4ad8-9558-57b91e42ce64""}","https://test12345.live/?participantId=9542EAD3CA434146BEE2D324017222DB&assignmentId=8519da94-5f23-43d9-bf1d-13fdd7f34f7d&projectId=bea99957-1862-4ad8-9558-57b91e42ce64","","3771","","{""Q0"":4}","","[0]"
"","","","","","html-button-response","54","208472","0.0-40.0","9542EAD3CA434146BEE2D324017222DB","9542EAD3CA434146BEE2D324017222DB","8519da94-5f23-43d9-bf1d-13fdd7f34f7d","bea99957-1862-4ad8-9558-57b91e42ce64","{""participantId"":""9542EAD3CA434146BEE2D324017222DB"",""assignmentId"":""8519da94-5f23-43d9-bf1d-13fdd7f34f7d"",""projectId"":""bea99957-1862-4ad8-9558-57b91e42ce64""}","https://test12345.live/?participantId=9542EAD3CA434146BEE2D324017222DB&assignmentId=8519da94-5f23-43d9-bf1d-13fdd7f34f7d&projectId=bea99957-1862-4ad8-9558-57b91e42ce64","","1542","
    <div style=""display: flex; justify-content: center; align-items: center;"">
      <img src=""images/red_deck_2.png"" style=""width: 300px; height: 300px; margin-right: 10px;"" />
      <img src=""images/blue_deck_1.png"" style=""width: 300px; height: 300px;"" />
    </div>","1","1",""
"","","","","","html-keyboard-response","55","211483","0.0-41.0-0.0","9542EAD3CA434146BEE2D324017222DB","9542EAD3CA434146BEE2D324017222DB","8519da94-5f23-43d9-bf1d-13fdd7f34f7d","bea99957-1862-4ad8-9558-57b91e42ce64","{""participantId"":""9542EAD3CA434146BEE2D324017222DB"",""assignmentId"":""8519da94-5f23-43d9-bf1d-13fdd7f34f7d"",""projectId"":""bea99957-1862-4ad8-9558-57b91e42ce64""}","https://test12345.live/?participantId=9542EAD3CA434146BEE2D324017222DB&assignmentId=8519da94-5f23-43d9-bf1d-13fdd7f34f7d&projectId=bea99957-1862-4ad8-9558-57b91e42ce64","","null","<div style=""display: flex; justify-content: center; align-items: center;"">
                    <img src=""images/causal/causal_series_1/causal_series_1_a.jpg"" style=""width: 300px; height: 300px;"" />
                  </div>","null","",""
"","","","","","html-keyboard-response","56","214501","0.0-41.0-1.0","9542EAD3CA434146BEE2D324017222DB","9542EAD3CA434146BEE2D324017222DB","8519da94-5f23-43d9-bf1d-13fdd7f34f7d","bea99957-1862-4ad8-9558-57b91e42ce64","{""participantId"":""9542EAD3CA434146BEE2D324017222DB"",""assignmentId"":""8519da94-5f23-43d9-bf1d-13fdd7f34f7d"",""projectId"":""bea99957-1862-4ad8-9558-57b91e42ce64""}","https://test12345.live/?participantId=9542EAD3CA434146BEE2D324017222DB&assignmentId=8519da94-5f23-43d9-bf1d-13fdd7f34f7d&projectId=bea99957-1862-4ad8-9558-57b91e42ce64","","null","<div style=""display: flex; justify-content: center; align-items: center;"">
                    <img src=""images/causal/causal_series_1/causal_series_1_b.jpg"" style=""width: 300px; height: 300px;"" />
                  </div>","null","",""
"","","","","","html-keyboard-response","57","217510","0.0-41.0-2.0","9542EAD3CA434146BEE2D324017222DB","9542EAD3CA434146BEE2D324017222DB","8519da94-5f23-43d9-bf1d-13fdd7f34f7d","bea99957-1862-4ad8-9558-57b91e42ce64","{""participantId"":""9542EAD3CA434146BEE2D324017222DB"",""assignmentId"":""8519da94-5f23-43d9-bf1d-13fdd7f34f7d"",""projectId"":""bea99957-1862-4ad8-9558-57b91e42ce64""}","https://test12345.live/?participantId=9542EAD3CA434146BEE2D324017222DB&assignmentId=8519da94-5f23-43d9-bf1d-13fdd7f34f7d&projectId=bea99957-1862-4ad8-9558-57b91e42ce64","","null","<div style=""display: flex; justify-content: center; align-items: center;"">
                    <img src=""images/causal/causal_series_1/causal_series_1_c.jpg"" style=""width: 300px; height: 300px;"" />
                  </div>","null","",""
"","","","","","html-keyboard-response","58","220529","0.0-41.0-3.0","9542EAD3CA434146BEE2D324017222DB","9542EAD3CA434146BEE2D324017222DB","8519da94-5f23-43d9-bf1d-13fdd7f34f7d","bea99957-1862-4ad8-9558-57b91e42ce64","{""participantId"":""9542EAD3CA434146BEE2D324017222DB"",""assignmentId"":""8519da94-5f23-43d9-bf1d-13fdd7f34f7d"",""projectId"":""bea99957-1862-4ad8-9558-57b91e42ce64""}","https://test12345.live/?participantId=9542EAD3CA434146BEE2D324017222DB&assignmentId=8519da94-5f23-43d9-bf1d-13fdd7f34f7d&projectId=bea99957-1862-4ad8-9558-57b91e42ce64","","null","<div style=""display: flex; justify-content: center; align-items: center;"">
                    <img src=""images/causal/causal_series_1/causal_series_1_d.jpg"" style=""width: 300px; height: 300px;"" />
                  </div>","null","",""
"","","","","","html-button-response","59","222002","0.0-43.0","9542EAD3CA434146BEE2D324017222DB","9542EAD3CA434146BEE2D324017222DB","8519da94-5f23-43d9-bf1d-13fdd7f34f7d","bea99957-1862-4ad8-9558-57b91e42ce64","{""participantId"":""9542EAD3CA434146BEE2D324017222DB"",""assignmentId"":""8519da94-5f23-43d9-bf1d-13fdd7f34f7d"",""projectId"":""bea99957-1862-4ad8-9558-57b91e42ce64""}","https://test12345.live/?participantId=9542EAD3CA434146BEE2D324017222DB&assignmentId=8519da94-5f23-43d9-bf1d-13fdd7f34f7d&projectId=bea99957-1862-4ad8-9558-57b91e42ce64","","1470","Was there a person in the picture?","0","",""
"","","","","","survey-likert","60","227083","0.0-44.0","9542EAD3CA434146BEE2D324017222DB","9542EAD3CA434146BEE2D324017222DB","8519da94-5f23-43d9-bf1d-13fdd7f34f7d","bea99957-1862-4ad8-9558-57b91e42ce64","{""participantId"":""9542EAD3CA434146BEE2D324017222DB"",""assignmentId"":""8519da94-5f23-43d9-bf1d-13fdd7f34f7d"",""projectId"":""bea99957-1862-4ad8-9558-57b91e42ce64""}","https://test12345.live/?participantId=9542EAD3CA434146BEE2D324017222DB&assignmentId=8519da94-5f23-43d9-bf1d-13fdd7f34f7d&projectId=bea99957-1862-4ad8-9558-57b91e42ce64","","5077","","{""Q0"":2}","","[0]"
"","","","","","html-button-response","61","228534","0.0-45.0","9542EAD3CA434146BEE2D324017222DB","9542EAD3CA434146BEE2D324017222DB","8519da94-5f23-43d9-bf1d-13fdd7f34f7d","bea99957-1862-4ad8-9558-57b91e42ce64","{""participantId"":""9542EAD3CA434146BEE2D324017222DB"",""assignmentId"":""8519da94-5f23-43d9-bf1d-13fdd7f34f7d"",""projectId"":""bea99957-1862-4ad8-9558-57b91e42ce64""}","https://test12345.live/?participantId=9542EAD3CA434146BEE2D324017222DB&assignmentId=8519da94-5f23-43d9-bf1d-13fdd7f34f7d&projectId=bea99957-1862-4ad8-9558-57b91e42ce64","","1443","
    <div style=""display: flex; justify-content: center; align-items: center;"">
      <img src=""images/red_deck_2.png"" style=""width: 300px; height: 300px; margin-right: 10px;"" />
      <img src=""images/blue_deck_1.png"" style=""width: 300px; height: 300px;"" />
    </div>","1","1",""
"","","","","","html-keyboard-response","62","231543","0.0-46.0-0.0","9542EAD3CA434146BEE2D324017222DB","9542EAD3CA434146BEE2D324017222DB","8519da94-5f23-43d9-bf1d-13fdd7f34f7d","bea99957-1862-4ad8-9558-57b91e42ce64","{""participantId"":""9542EAD3CA434146BEE2D324017222DB"",""assignmentId"":""8519da94-5f23-43d9-bf1d-13fdd7f34f7d"",""projectId"":""bea99957-1862-4ad8-9558-57b91e42ce64""}","https://test12345.live/?participantId=9542EAD3CA434146BEE2D324017222DB&assignmentId=8519da94-5f23-43d9-bf1d-13fdd7f34f7d&projectId=bea99957-1862-4ad8-9558-57b91e42ce64","","null","<div style=""display: flex; justify-content: center; align-items: center;"">
                    <img src=""images/causal/causal_series_8/causal_series_8_a.jpg"" style=""width: 300px; height: 300px;"" />
                  </div>","null","",""
"","","","","","html-keyboard-response","63","234547","0.0-46.0-1.0","9542EAD3CA434146BEE2D324017222DB","9542EAD3CA434146BEE2D324017222DB","8519da94-5f23-43d9-bf1d-13fdd7f34f7d","bea99957-1862-4ad8-9558-57b91e42ce64","{""participantId"":""9542EAD3CA434146BEE2D324017222DB"",""assignmentId"":""8519da94-5f23-43d9-bf1d-13fdd7f34f7d"",""projectId"":""bea99957-1862-4ad8-9558-57b91e42ce64""}","https://test12345.live/?participantId=9542EAD3CA434146BEE2D324017222DB&assignmentId=8519da94-5f23-43d9-bf1d-13fdd7f34f7d&projectId=bea99957-1862-4ad8-9558-57b91e42ce64","","null","<div style=""display: flex; justify-content: center; align-items: center;"">
                    <img src=""images/causal/causal_series_8/causal_series_8_b.jpg"" style=""width: 300px; height: 300px;"" />
                  </div>","null","",""
"","","","","","html-keyboard-response","64","237551","0.0-46.0-2.0","9542EAD3CA434146BEE2D324017222DB","9542EAD3CA434146BEE2D324017222DB","8519da94-5f23-43d9-bf1d-13fdd7f34f7d","bea99957-1862-4ad8-9558-57b91e42ce64","{""participantId"":""9542EAD3CA434146BEE2D324017222DB"",""assignmentId"":""8519da94-5f23-43d9-bf1d-13fdd7f34f7d"",""projectId"":""bea99957-1862-4ad8-9558-57b91e42ce64""}","https://test12345.live/?participantId=9542EAD3CA434146BEE2D324017222DB&assignmentId=8519da94-5f23-43d9-bf1d-13fdd7f34f7d&projectId=bea99957-1862-4ad8-9558-57b91e42ce64","","null","<div style=""display: flex; justify-content: center; align-items: center;"">
                    <img src=""images/causal/causal_series_8/causal_series_8_c.jpg"" style=""width: 300px; height: 300px;"" />
                  </div>","null","",""
"","","","","","html-keyboard-response","65","240555","0.0-46.0-3.0","9542EAD3CA434146BEE2D324017222DB","9542EAD3CA434146BEE2D324017222DB","8519da94-5f23-43d9-bf1d-13fdd7f34f7d","bea99957-1862-4ad8-9558-57b91e42ce64","{""participantId"":""9542EAD3CA434146BEE2D324017222DB"",""assignmentId"":""8519da94-5f23-43d9-bf1d-13fdd7f34f7d"",""projectId"":""bea99957-1862-4ad8-9558-57b91e42ce64""}","https://test12345.live/?participantId=9542EAD3CA434146BEE2D324017222DB&assignmentId=8519da94-5f23-43d9-bf1d-13fdd7f34f7d&projectId=bea99957-1862-4ad8-9558-57b91e42ce64","","null","<div style=""display: flex; justify-content: center; align-items: center;"">
                    <img src=""images/causal/causal_series_8/causal_series_8_d.jpg"" style=""width: 300px; height: 300px;"" />
                  </div>","null","",""
"","","","","","html-button-response","66","242895","0.0-48.0","9542EAD3CA434146BEE2D324017222DB","9542EAD3CA434146BEE2D324017222DB","8519da94-5f23-43d9-bf1d-13fdd7f34f7d","bea99957-1862-4ad8-9558-57b91e42ce64","{""participantId"":""9542EAD3CA434146BEE2D324017222DB"",""assignmentId"":""8519da94-5f23-43d9-bf1d-13fdd7f34f7d"",""projectId"":""bea99957-1862-4ad8-9558-57b91e42ce64""}","https://test12345.live/?participantId=9542EAD3CA434146BEE2D324017222DB&assignmentId=8519da94-5f23-43d9-bf1d-13fdd7f34f7d&projectId=bea99957-1862-4ad8-9558-57b91e42ce64","","2335","Was there a person in the picture?","0","",""
"","","","","","survey-likert","67","245821","0.0-49.0","9542EAD3CA434146BEE2D324017222DB","9542EAD3CA434146BEE2D324017222DB","8519da94-5f23-43d9-bf1d-13fdd7f34f7d","bea99957-1862-4ad8-9558-57b91e42ce64","{""participantId"":""9542EAD3CA434146BEE2D324017222DB"",""assignmentId"":""8519da94-5f23-43d9-bf1d-13fdd7f34f7d"",""projectId"":""bea99957-1862-4ad8-9558-57b91e42ce64""}","https://test12345.live/?participantId=9542EAD3CA434146BEE2D324017222DB&assignmentId=8519da94-5f23-43d9-bf1d-13fdd7f34f7d&projectId=bea99957-1862-4ad8-9558-57b91e42ce64","","2923","","{""Q0"":4}","","[0]"
"","","","","","html-button-response","68","247309","0.0-50.0","9542EAD3CA434146BEE2D324017222DB","9542EAD3CA434146BEE2D324017222DB","8519da94-5f23-43d9-bf1d-13fdd7f34f7d","bea99957-1862-4ad8-9558-57b91e42ce64","{""participantId"":""9542EAD3CA434146BEE2D324017222DB"",""assignmentId"":""8519da94-5f23-43d9-bf1d-13fdd7f34f7d"",""projectId"":""bea99957-1862-4ad8-9558-57b91e42ce64""}","https://test12345.live/?participantId=9542EAD3CA434146BEE2D324017222DB&assignmentId=8519da94-5f23-43d9-bf1d-13fdd7f34f7d&projectId=bea99957-1862-4ad8-9558-57b91e42ce64","","1479","
    <div style=""display: flex; justify-content: center; align-items: center;"">
      <img src=""images/red_deck_2.png"" style=""width: 300px; height: 300px; margin-right: 10px;"" />
      <img src=""images/blue_deck_1.png"" style=""width: 300px; height: 300px;"" />
    </div>","1","1",""
"","","","","","html-keyboard-response","69","250327","0.0-51.0-0.0","9542EAD3CA434146BEE2D324017222DB","9542EAD3CA434146BEE2D324017222DB","8519da94-5f23-43d9-bf1d-13fdd7f34f7d","bea99957-1862-4ad8-9558-57b91e42ce64","{""participantId"":""9542EAD3CA434146BEE2D324017222DB"",""assignmentId"":""8519da94-5f23-43d9-bf1d-13fdd7f34f7d"",""projectId"":""bea99957-1862-4ad8-9558-57b91e42ce64""}","https://test12345.live/?participantId=9542EAD3CA434146BEE2D324017222DB&assignmentId=8519da94-5f23-43d9-bf1d-13fdd7f34f7d&projectId=bea99957-1862-4ad8-9558-57b91e42ce64","","null","<div style=""display: flex; justify-content: center; align-items: center;"">
                    <img src=""images/causal/causal_series_11/causal_series_11_a.jpg"" style=""width: 300px; height: 300px;"" />
                  </div>","null","",""
"","","","","","html-keyboard-response","70","253331","0.0-51.0-1.0","9542EAD3CA434146BEE2D324017222DB","9542EAD3CA434146BEE2D324017222DB","8519da94-5f23-43d9-bf1d-13fdd7f34f7d","bea99957-1862-4ad8-9558-57b91e42ce64","{""participantId"":""9542EAD3CA434146BEE2D324017222DB"",""assignmentId"":""8519da94-5f23-43d9-bf1d-13fdd7f34f7d"",""projectId"":""bea99957-1862-4ad8-9558-57b91e42ce64""}","https://test12345.live/?participantId=9542EAD3CA434146BEE2D324017222DB&assignmentId=8519da94-5f23-43d9-bf1d-13fdd7f34f7d&projectId=bea99957-1862-4ad8-9558-57b91e42ce64","","null","<div style=""display: flex; justify-content: center; align-items: center;"">
                    <img src=""images/causal/causal_series_11/causal_series_11_b.jpg"" style=""width: 300px; height: 300px;"" />
                  </div>","null","",""
"","","","","","html-keyboard-response","71","256342","0.0-51.0-2.0","9542EAD3CA434146BEE2D324017222DB","9542EAD3CA434146BEE2D324017222DB","8519da94-5f23-43d9-bf1d-13fdd7f34f7d","bea99957-1862-4ad8-9558-57b91e42ce64","{""participantId"":""9542EAD3CA434146BEE2D324017222DB"",""assignmentId"":""8519da94-5f23-43d9-bf1d-13fdd7f34f7d"",""projectId"":""bea99957-1862-4ad8-9558-57b91e42ce64""}","https://test12345.live/?participantId=9542EAD3CA434146BEE2D324017222DB&assignmentId=8519da94-5f23-43d9-bf1d-13fdd7f34f7d&projectId=bea99957-1862-4ad8-9558-57b91e42ce64","","null","<div style=""display: flex; justify-content: center; align-items: center;"">
                    <img src=""images/causal/causal_series_11/causal_series_11_c.jpg"" style=""width: 300px; height: 300px;"" />
                  </div>","null","",""
"","","","","","html-keyboard-response","72","259353","0.0-51.0-3.0","9542EAD3CA434146BEE2D324017222DB","9542EAD3CA434146BEE2D324017222DB","8519da94-5f23-43d9-bf1d-13fdd7f34f7d","bea99957-1862-4ad8-9558-57b91e42ce64","{""participantId"":""9542EAD3CA434146BEE2D324017222DB"",""assignmentId"":""8519da94-5f23-43d9-bf1d-13fdd7f34f7d"",""projectId"":""bea99957-1862-4ad8-9558-57b91e42ce64""}","https://test12345.live/?participantId=9542EAD3CA434146BEE2D324017222DB&assignmentId=8519da94-5f23-43d9-bf1d-13fdd7f34f7d&projectId=bea99957-1862-4ad8-9558-57b91e42ce64","","null","<div style=""display: flex; justify-content: center; align-items: center;"">
                    <img src=""images/causal/causal_series_11/causal_series_11_d.jpg"" style=""width: 300px; height: 300px;"" />
                  </div>","null","",""
"","","","","","html-button-response","73","260964","0.0-53.0","9542EAD3CA434146BEE2D324017222DB","9542EAD3CA434146BEE2D324017222DB","8519da94-5f23-43d9-bf1d-13fdd7f34f7d","bea99957-1862-4ad8-9558-57b91e42ce64","{""participantId"":""9542EAD3CA434146BEE2D324017222DB"",""assignmentId"":""8519da94-5f23-43d9-bf1d-13fdd7f34f7d"",""projectId"":""bea99957-1862-4ad8-9558-57b91e42ce64""}","https://test12345.live/?participantId=9542EAD3CA434146BEE2D324017222DB&assignmentId=8519da94-5f23-43d9-bf1d-13fdd7f34f7d&projectId=bea99957-1862-4ad8-9558-57b91e42ce64","","1604","Was there a person in the picture?","0","",""
"","","","","","survey-likert","74","263799","0.0-54.0","9542EAD3CA434146BEE2D324017222DB","9542EAD3CA434146BEE2D324017222DB","8519da94-5f23-43d9-bf1d-13fdd7f34f7d","bea99957-1862-4ad8-9558-57b91e42ce64","{""participantId"":""9542EAD3CA434146BEE2D324017222DB"",""assignmentId"":""8519da94-5f23-43d9-bf1d-13fdd7f34f7d"",""projectId"":""bea99957-1862-4ad8-9558-57b91e42ce64""}","https://test12345.live/?participantId=9542EAD3CA434146BEE2D324017222DB&assignmentId=8519da94-5f23-43d9-bf1d-13fdd7f34f7d&projectId=bea99957-1862-4ad8-9558-57b91e42ce64","","2828","","{""Q0"":0}","","[0]"
"","","","","","html-button-response","75","265384","0.0-55.0","9542EAD3CA434146BEE2D324017222DB","9542EAD3CA434146BEE2D324017222DB","8519da94-5f23-43d9-bf1d-13fdd7f34f7d","bea99957-1862-4ad8-9558-57b91e42ce64","{""participantId"":""9542EAD3CA434146BEE2D324017222DB"",""assignmentId"":""8519da94-5f23-43d9-bf1d-13fdd7f34f7d"",""projectId"":""bea99957-1862-4ad8-9558-57b91e42ce64""}","https://test12345.live/?participantId=9542EAD3CA434146BEE2D324017222DB&assignmentId=8519da94-5f23-43d9-bf1d-13fdd7f34f7d&projectId=bea99957-1862-4ad8-9558-57b91e42ce64","","1571","
    <div style=""display: flex; justify-content: center; align-items: center;"">
      <img src=""images/red_deck_2.png"" style=""width: 300px; height: 300px; margin-right: 10px;"" />
      <img src=""images/blue_deck_1.png"" style=""width: 300px; height: 300px;"" />
    </div>","0","0",""
"","","","","","html-keyboard-response","76","268394","0.0-57.0-0.0","9542EAD3CA434146BEE2D324017222DB","9542EAD3CA434146BEE2D324017222DB","8519da94-5f23-43d9-bf1d-13fdd7f34f7d","bea99957-1862-4ad8-9558-57b91e42ce64","{""participantId"":""9542EAD3CA434146BEE2D324017222DB"",""assignmentId"":""8519da94-5f23-43d9-bf1d-13fdd7f34f7d"",""projectId"":""bea99957-1862-4ad8-9558-57b91e42ce64""}","https://test12345.live/?participantId=9542EAD3CA434146BEE2D324017222DB&assignmentId=8519da94-5f23-43d9-bf1d-13fdd7f34f7d&projectId=bea99957-1862-4ad8-9558-57b91e42ce64","","null","<div style=""display: flex; justify-content: center; align-items: center;"">
                    <img src=""images/semantic/semantic_series_15/semantic_series_15_a.jpg"" style=""width: 300px; height: 300px;"" />
                  </div>","null","",""
"","","","","","html-keyboard-response","77","271407","0.0-57.0-1.0","9542EAD3CA434146BEE2D324017222DB","9542EAD3CA434146BEE2D324017222DB","8519da94-5f23-43d9-bf1d-13fdd7f34f7d","bea99957-1862-4ad8-9558-57b91e42ce64","{""participantId"":""9542EAD3CA434146BEE2D324017222DB"",""assignmentId"":""8519da94-5f23-43d9-bf1d-13fdd7f34f7d"",""projectId"":""bea99957-1862-4ad8-9558-57b91e42ce64""}","https://test12345.live/?participantId=9542EAD3CA434146BEE2D324017222DB&assignmentId=8519da94-5f23-43d9-bf1d-13fdd7f34f7d&projectId=bea99957-1862-4ad8-9558-57b91e42ce64","","null","<div style=""display: flex; justify-content: center; align-items: center;"">
                    <img src=""images/semantic/semantic_series_15/semantic_series_15_b.jpg"" style=""width: 300px; height: 300px;"" />
                  </div>","null","",""
"","","","","","html-keyboard-response","78","274426","0.0-57.0-2.0","9542EAD3CA434146BEE2D324017222DB","9542EAD3CA434146BEE2D324017222DB","8519da94-5f23-43d9-bf1d-13fdd7f34f7d","bea99957-1862-4ad8-9558-57b91e42ce64","{""participantId"":""9542EAD3CA434146BEE2D324017222DB"",""assignmentId"":""8519da94-5f23-43d9-bf1d-13fdd7f34f7d"",""projectId"":""bea99957-1862-4ad8-9558-57b91e42ce64""}","https://test12345.live/?participantId=9542EAD3CA434146BEE2D324017222DB&assignmentId=8519da94-5f23-43d9-bf1d-13fdd7f34f7d&projectId=bea99957-1862-4ad8-9558-57b91e42ce64","","null","<div style=""display: flex; justify-content: center; align-items: center;"">
                    <img src=""images/semantic/semantic_series_15/semantic_series_15_c.jpg"" style=""width: 300px; height: 300px;"" />
                  </div>","null","",""
"","","","","","html-keyboard-response","79","277436","0.0-57.0-3.0","9542EAD3CA434146BEE2D324017222DB","9542EAD3CA434146BEE2D324017222DB","8519da94-5f23-43d9-bf1d-13fdd7f34f7d","bea99957-1862-4ad8-9558-57b91e42ce64","{""participantId"":""9542EAD3CA434146BEE2D324017222DB"",""assignmentId"":""8519da94-5f23-43d9-bf1d-13fdd7f34f7d"",""projectId"":""bea99957-1862-4ad8-9558-57b91e42ce64""}","https://test12345.live/?participantId=9542EAD3CA434146BEE2D324017222DB&assignmentId=8519da94-5f23-43d9-bf1d-13fdd7f34f7d&projectId=bea99957-1862-4ad8-9558-57b91e42ce64","","null","<div style=""display: flex; justify-content: center; align-items: center;"">
                    <img src=""images/semantic/semantic_series_15/semantic_series_15_d.jpg"" style=""width: 300px; height: 300px;"" />
                  </div>","null","",""
"","","","","","html-button-response","80","278883","0.0-58.0","9542EAD3CA434146BEE2D324017222DB","9542EAD3CA434146BEE2D324017222DB","8519da94-5f23-43d9-bf1d-13fdd7f34f7d","bea99957-1862-4ad8-9558-57b91e42ce64","{""participantId"":""9542EAD3CA434146BEE2D324017222DB"",""assignmentId"":""8519da94-5f23-43d9-bf1d-13fdd7f34f7d"",""projectId"":""bea99957-1862-4ad8-9558-57b91e42ce64""}","https://test12345.live/?participantId=9542EAD3CA434146BEE2D324017222DB&assignmentId=8519da94-5f23-43d9-bf1d-13fdd7f34f7d&projectId=bea99957-1862-4ad8-9558-57b91e42ce64","","1441","Was there a person in the picture?","1","",""
"","","","","","survey-likert","81","281407","0.0-59.0","9542EAD3CA434146BEE2D324017222DB","9542EAD3CA434146BEE2D324017222DB","8519da94-5f23-43d9-bf1d-13fdd7f34f7d","bea99957-1862-4ad8-9558-57b91e42ce64","{""participantId"":""9542EAD3CA434146BEE2D324017222DB"",""assignmentId"":""8519da94-5f23-43d9-bf1d-13fdd7f34f7d"",""projectId"":""bea99957-1862-4ad8-9558-57b91e42ce64""}","https://test12345.live/?participantId=9542EAD3CA434146BEE2D324017222DB&assignmentId=8519da94-5f23-43d9-bf1d-13fdd7f34f7d&projectId=bea99957-1862-4ad8-9558-57b91e42ce64","","2519","","{""Q0"":2}","","[0]"
"","","","","","html-button-response","82","285293","0.0-60.0","9542EAD3CA434146BEE2D324017222DB","9542EAD3CA434146BEE2D324017222DB","8519da94-5f23-43d9-bf1d-13fdd7f34f7d","bea99957-1862-4ad8-9558-57b91e42ce64","{""participantId"":""9542EAD3CA434146BEE2D324017222DB"",""assignmentId"":""8519da94-5f23-43d9-bf1d-13fdd7f34f7d"",""projectId"":""bea99957-1862-4ad8-9558-57b91e42ce64""}","https://test12345.live/?participantId=9542EAD3CA434146BEE2D324017222DB&assignmentId=8519da94-5f23-43d9-bf1d-13fdd7f34f7d&projectId=bea99957-1862-4ad8-9558-57b91e42ce64","","3879","
    <div style=""display: flex; justify-content: center; align-items: center;"">
      <img src=""images/red_deck_2.png"" style=""width: 300px; height: 300px; margin-right: 10px;"" />
      <img src=""images/blue_deck_1.png"" style=""width: 300px; height: 300px;"" />
    </div>","1","1",""
"","","","","","html-keyboard-response","83","288305","0.0-61.0-0.0","9542EAD3CA434146BEE2D324017222DB","9542EAD3CA434146BEE2D324017222DB","8519da94-5f23-43d9-bf1d-13fdd7f34f7d","bea99957-1862-4ad8-9558-57b91e42ce64","{""participantId"":""9542EAD3CA434146BEE2D324017222DB"",""assignmentId"":""8519da94-5f23-43d9-bf1d-13fdd7f34f7d"",""projectId"":""bea99957-1862-4ad8-9558-57b91e42ce64""}","https://test12345.live/?participantId=9542EAD3CA434146BEE2D324017222DB&assignmentId=8519da94-5f23-43d9-bf1d-13fdd7f34f7d&projectId=bea99957-1862-4ad8-9558-57b91e42ce64","","null","<div style=""display: flex; justify-content: center; align-items: center;"">
                    <img src=""images/causal/causal_series_13/causal_series_13_a.jpg"" style=""width: 300px; height: 300px;"" />
                  </div>","null","",""
"","","","","","html-keyboard-response","84","291310","0.0-61.0-1.0","9542EAD3CA434146BEE2D324017222DB","9542EAD3CA434146BEE2D324017222DB","8519da94-5f23-43d9-bf1d-13fdd7f34f7d","bea99957-1862-4ad8-9558-57b91e42ce64","{""participantId"":""9542EAD3CA434146BEE2D324017222DB"",""assignmentId"":""8519da94-5f23-43d9-bf1d-13fdd7f34f7d"",""projectId"":""bea99957-1862-4ad8-9558-57b91e42ce64""}","https://test12345.live/?participantId=9542EAD3CA434146BEE2D324017222DB&assignmentId=8519da94-5f23-43d9-bf1d-13fdd7f34f7d&projectId=bea99957-1862-4ad8-9558-57b91e42ce64","","null","<div style=""display: flex; justify-content: center; align-items: center;"">
                    <img src=""images/causal/causal_series_13/causal_series_13_b.jpg"" style=""width: 300px; height: 300px;"" />
                  </div>","null","",""
"","","","","","html-keyboard-response","85","294327","0.0-61.0-2.0","9542EAD3CA434146BEE2D324017222DB","9542EAD3CA434146BEE2D324017222DB","8519da94-5f23-43d9-bf1d-13fdd7f34f7d","bea99957-1862-4ad8-9558-57b91e42ce64","{""participantId"":""9542EAD3CA434146BEE2D324017222DB"",""assignmentId"":""8519da94-5f23-43d9-bf1d-13fdd7f34f7d"",""projectId"":""bea99957-1862-4ad8-9558-57b91e42ce64""}","https://test12345.live/?participantId=9542EAD3CA434146BEE2D324017222DB&assignmentId=8519da94-5f23-43d9-bf1d-13fdd7f34f7d&projectId=bea99957-1862-4ad8-9558-57b91e42ce64","","null","<div style=""display: flex; justify-content: center; align-items: center;"">
                    <img src=""images/causal/causal_series_13/causal_series_13_c.jpg"" style=""width: 300px; height: 300px;"" />
                  </div>","null","",""
"","","","","","html-keyboard-response","86","297337","0.0-61.0-3.0","9542EAD3CA434146BEE2D324017222DB","9542EAD3CA434146BEE2D324017222DB","8519da94-5f23-43d9-bf1d-13fdd7f34f7d","bea99957-1862-4ad8-9558-57b91e42ce64","{""participantId"":""9542EAD3CA434146BEE2D324017222DB"",""assignmentId"":""8519da94-5f23-43d9-bf1d-13fdd7f34f7d"",""projectId"":""bea99957-1862-4ad8-9558-57b91e42ce64""}","https://test12345.live/?participantId=9542EAD3CA434146BEE2D324017222DB&assignmentId=8519da94-5f23-43d9-bf1d-13fdd7f34f7d&projectId=bea99957-1862-4ad8-9558-57b91e42ce64","","null","<div style=""display: flex; justify-content: center; align-items: center;"">
                    <img src=""images/causal/causal_series_13/causal_series_13_d.jpg"" style=""width: 300px; height: 300px;"" />
                  </div>","null","",""
"","","","","","html-button-response","87","302980","0.0-63.0","9542EAD3CA434146BEE2D324017222DB","9542EAD3CA434146BEE2D324017222DB","8519da94-5f23-43d9-bf1d-13fdd7f34f7d","bea99957-1862-4ad8-9558-57b91e42ce64","{""participantId"":""9542EAD3CA434146BEE2D324017222DB"",""assignmentId"":""8519da94-5f23-43d9-bf1d-13fdd7f34f7d"",""projectId"":""bea99957-1862-4ad8-9558-57b91e42ce64""}","https://test12345.live/?participantId=9542EAD3CA434146BEE2D324017222DB&assignmentId=8519da94-5f23-43d9-bf1d-13fdd7f34f7d&projectId=bea99957-1862-4ad8-9558-57b91e42ce64","","5640","Was there a person in the picture?","0","",""
"","","","","","survey-likert","88","305049","0.0-64.0","9542EAD3CA434146BEE2D324017222DB","9542EAD3CA434146BEE2D324017222DB","8519da94-5f23-43d9-bf1d-13fdd7f34f7d","bea99957-1862-4ad8-9558-57b91e42ce64","{""participantId"":""9542EAD3CA434146BEE2D324017222DB"",""assignmentId"":""8519da94-5f23-43d9-bf1d-13fdd7f34f7d"",""projectId"":""bea99957-1862-4ad8-9558-57b91e42ce64""}","https://test12345.live/?participantId=9542EAD3CA434146BEE2D324017222DB&assignmentId=8519da94-5f23-43d9-bf1d-13fdd7f34f7d&projectId=bea99957-1862-4ad8-9558-57b91e42ce64","","2066","","{""Q0"":2}","","[0]"
"","","","","","html-button-response","89","311259","0.0-65.0","9542EAD3CA434146BEE2D324017222DB","9542EAD3CA434146BEE2D324017222DB","8519da94-5f23-43d9-bf1d-13fdd7f34f7d","bea99957-1862-4ad8-9558-57b91e42ce64","{""participantId"":""9542EAD3CA434146BEE2D324017222DB"",""assignmentId"":""8519da94-5f23-43d9-bf1d-13fdd7f34f7d"",""projectId"":""bea99957-1862-4ad8-9558-57b91e42ce64""}","https://test12345.live/?participantId=9542EAD3CA434146BEE2D324017222DB&assignmentId=8519da94-5f23-43d9-bf1d-13fdd7f34f7d&projectId=bea99957-1862-4ad8-9558-57b91e42ce64","","6204","
    <div style=""display: flex; justify-content: center; align-items: center;"">
      <img src=""images/red_deck_2.png"" style=""width: 300px; height: 300px; margin-right: 10px;"" />
      <img src=""images/blue_deck_1.png"" style=""width: 300px; height: 300px;"" />
    </div>","0","0",""
"","","","","","html-keyboard-response","90","314269","0.0-67.0-0.0","9542EAD3CA434146BEE2D324017222DB","9542EAD3CA434146BEE2D324017222DB","8519da94-5f23-43d9-bf1d-13fdd7f34f7d","bea99957-1862-4ad8-9558-57b91e42ce64","{""participantId"":""9542EAD3CA434146BEE2D324017222DB"",""assignmentId"":""8519da94-5f23-43d9-bf1d-13fdd7f34f7d"",""projectId"":""bea99957-1862-4ad8-9558-57b91e42ce64""}","https://test12345.live/?participantId=9542EAD3CA434146BEE2D324017222DB&assignmentId=8519da94-5f23-43d9-bf1d-13fdd7f34f7d&projectId=bea99957-1862-4ad8-9558-57b91e42ce64","","null","<div style=""display: flex; justify-content: center; align-items: center;"">
                    <img src=""images/semantic/semantic_series_17/semantic_series_17_a.jpg"" style=""width: 300px; height: 300px;"" />
                  </div>","null","",""
"","","","","","html-keyboard-response","91","317287","0.0-67.0-1.0","9542EAD3CA434146BEE2D324017222DB","9542EAD3CA434146BEE2D324017222DB","8519da94-5f23-43d9-bf1d-13fdd7f34f7d","bea99957-1862-4ad8-9558-57b91e42ce64","{""participantId"":""9542EAD3CA434146BEE2D324017222DB"",""assignmentId"":""8519da94-5f23-43d9-bf1d-13fdd7f34f7d"",""projectId"":""bea99957-1862-4ad8-9558-57b91e42ce64""}","https://test12345.live/?participantId=9542EAD3CA434146BEE2D324017222DB&assignmentId=8519da94-5f23-43d9-bf1d-13fdd7f34f7d&projectId=bea99957-1862-4ad8-9558-57b91e42ce64","","null","<div style=""display: flex; justify-content: center; align-items: center;"">
                    <img src=""images/semantic/semantic_series_17/semantic_series_17_b.jpg"" style=""width: 300px; height: 300px;"" />
                  </div>","null","",""
"","","","","","html-keyboard-response","92","320293","0.0-67.0-2.0","9542EAD3CA434146BEE2D324017222DB","9542EAD3CA434146BEE2D324017222DB","8519da94-5f23-43d9-bf1d-13fdd7f34f7d","bea99957-1862-4ad8-9558-57b91e42ce64","{""participantId"":""9542EAD3CA434146BEE2D324017222DB"",""assignmentId"":""8519da94-5f23-43d9-bf1d-13fdd7f34f7d"",""projectId"":""bea99957-1862-4ad8-9558-57b91e42ce64""}","https://test12345.live/?participantId=9542EAD3CA434146BEE2D324017222DB&assignmentId=8519da94-5f23-43d9-bf1d-13fdd7f34f7d&projectId=bea99957-1862-4ad8-9558-57b91e42ce64","","null","<div style=""display: flex; justify-content: center; align-items: center;"">
                    <img src=""images/semantic/semantic_series_17/semantic_series_17_c.jpg"" style=""width: 300px; height: 300px;"" />
                  </div>","null","",""
"","","","","","html-keyboard-response","93","323306","0.0-67.0-3.0","9542EAD3CA434146BEE2D324017222DB","9542EAD3CA434146BEE2D324017222DB","8519da94-5f23-43d9-bf1d-13fdd7f34f7d","bea99957-1862-4ad8-9558-57b91e42ce64","{""participantId"":""9542EAD3CA434146BEE2D324017222DB"",""assignmentId"":""8519da94-5f23-43d9-bf1d-13fdd7f34f7d"",""projectId"":""bea99957-1862-4ad8-9558-57b91e42ce64""}","https://test12345.live/?participantId=9542EAD3CA434146BEE2D324017222DB&assignmentId=8519da94-5f23-43d9-bf1d-13fdd7f34f7d&projectId=bea99957-1862-4ad8-9558-57b91e42ce64","","null","<div style=""display: flex; justify-content: center; align-items: center;"">
                    <img src=""images/semantic/semantic_series_17/semantic_series_17_d.jpg"" style=""width: 300px; height: 300px;"" />
                  </div>","null","",""
"","","","","","html-button-response","94","324795","0.0-68.0","9542EAD3CA434146BEE2D324017222DB","9542EAD3CA434146BEE2D324017222DB","8519da94-5f23-43d9-bf1d-13fdd7f34f7d","bea99957-1862-4ad8-9558-57b91e42ce64","{""participantId"":""9542EAD3CA434146BEE2D324017222DB"",""assignmentId"":""8519da94-5f23-43d9-bf1d-13fdd7f34f7d"",""projectId"":""bea99957-1862-4ad8-9558-57b91e42ce64""}","https://test12345.live/?participantId=9542EAD3CA434146BEE2D324017222DB&assignmentId=8519da94-5f23-43d9-bf1d-13fdd7f34f7d&projectId=bea99957-1862-4ad8-9558-57b91e42ce64","","1483","Was there a person in the picture?","0","",""
"","","","","","survey-likert","95","326847","0.0-69.0","9542EAD3CA434146BEE2D324017222DB","9542EAD3CA434146BEE2D324017222DB","8519da94-5f23-43d9-bf1d-13fdd7f34f7d","bea99957-1862-4ad8-9558-57b91e42ce64","{""participantId"":""9542EAD3CA434146BEE2D324017222DB"",""assignmentId"":""8519da94-5f23-43d9-bf1d-13fdd7f34f7d"",""projectId"":""bea99957-1862-4ad8-9558-57b91e42ce64""}","https://test12345.live/?participantId=9542EAD3CA434146BEE2D324017222DB&assignmentId=8519da94-5f23-43d9-bf1d-13fdd7f34f7d&projectId=bea99957-1862-4ad8-9558-57b91e42ce64","","2048","","{""Q0"":2}","","[0]"
"","","","","","html-button-response","96","333179","0.0-70.0","9542EAD3CA434146BEE2D324017222DB","9542EAD3CA434146BEE2D324017222DB","8519da94-5f23-43d9-bf1d-13fdd7f34f7d","bea99957-1862-4ad8-9558-57b91e42ce64","{""participantId"":""9542EAD3CA434146BEE2D324017222DB"",""assignmentId"":""8519da94-5f23-43d9-bf1d-13fdd7f34f7d"",""projectId"":""bea99957-1862-4ad8-9558-57b91e42ce64""}","https://test12345.live/?participantId=9542EAD3CA434146BEE2D324017222DB&assignmentId=8519da94-5f23-43d9-bf1d-13fdd7f34f7d&projectId=bea99957-1862-4ad8-9558-57b91e42ce64","","6325","
    <div style=""display: flex; justify-content: center; align-items: center;"">
      <img src=""images/red_deck_2.png"" style=""width: 300px; height: 300px; margin-right: 10px;"" />
      <img src=""images/blue_deck_1.png"" style=""width: 300px; height: 300px;"" />
    </div>","1","1",""
"","","","","","html-keyboard-response","97","336192","0.0-71.0-0.0","9542EAD3CA434146BEE2D324017222DB","9542EAD3CA434146BEE2D324017222DB","8519da94-5f23-43d9-bf1d-13fdd7f34f7d","bea99957-1862-4ad8-9558-57b91e42ce64","{""participantId"":""9542EAD3CA434146BEE2D324017222DB"",""assignmentId"":""8519da94-5f23-43d9-bf1d-13fdd7f34f7d"",""projectId"":""bea99957-1862-4ad8-9558-57b91e42ce64""}","https://test12345.live/?participantId=9542EAD3CA434146BEE2D324017222DB&assignmentId=8519da94-5f23-43d9-bf1d-13fdd7f34f7d&projectId=bea99957-1862-4ad8-9558-57b91e42ce64","","null","<div style=""display: flex; justify-content: center; align-items: center;"">
                    <img src=""images/causal/causal_series_12/causal_series_12_a.jpg"" style=""width: 300px; height: 300px;"" />
                  </div>","null","",""
"","","","","","html-keyboard-response","98","339212","0.0-71.0-1.0","9542EAD3CA434146BEE2D324017222DB","9542EAD3CA434146BEE2D324017222DB","8519da94-5f23-43d9-bf1d-13fdd7f34f7d","bea99957-1862-4ad8-9558-57b91e42ce64","{""participantId"":""9542EAD3CA434146BEE2D324017222DB"",""assignmentId"":""8519da94-5f23-43d9-bf1d-13fdd7f34f7d"",""projectId"":""bea99957-1862-4ad8-9558-57b91e42ce64""}","https://test12345.live/?participantId=9542EAD3CA434146BEE2D324017222DB&assignmentId=8519da94-5f23-43d9-bf1d-13fdd7f34f7d&projectId=bea99957-1862-4ad8-9558-57b91e42ce64","","null","<div style=""display: flex; justify-content: center; align-items: center;"">
                    <img src=""images/causal/causal_series_12/causal_series_12_b.jpg"" style=""width: 300px; height: 300px;"" />
                  </div>","null","",""
"","","","","","html-keyboard-response","99","342220","0.0-71.0-2.0","9542EAD3CA434146BEE2D324017222DB","9542EAD3CA434146BEE2D324017222DB","8519da94-5f23-43d9-bf1d-13fdd7f34f7d","bea99957-1862-4ad8-9558-57b91e42ce64","{""participantId"":""9542EAD3CA434146BEE2D324017222DB"",""assignmentId"":""8519da94-5f23-43d9-bf1d-13fdd7f34f7d"",""projectId"":""bea99957-1862-4ad8-9558-57b91e42ce64""}","https://test12345.live/?participantId=9542EAD3CA434146BEE2D324017222DB&assignmentId=8519da94-5f23-43d9-bf1d-13fdd7f34f7d&projectId=bea99957-1862-4ad8-9558-57b91e42ce64","","null","<div style=""display: flex; justify-content: center; align-items: center;"">
                    <img src=""images/causal/causal_series_12/causal_series_12_c.jpg"" style=""width: 300px; height: 300px;"" />
                  </div>","null","",""
"","","","","","html-keyboard-response","100","345238","0.0-71.0-3.0","9542EAD3CA434146BEE2D324017222DB","9542EAD3CA434146BEE2D324017222DB","8519da94-5f23-43d9-bf1d-13fdd7f34f7d","bea99957-1862-4ad8-9558-57b91e42ce64","{""participantId"":""9542EAD3CA434146BEE2D324017222DB"",""assignmentId"":""8519da94-5f23-43d9-bf1d-13fdd7f34f7d"",""projectId"":""bea99957-1862-4ad8-9558-57b91e42ce64""}","https://test12345.live/?participantId=9542EAD3CA434146BEE2D324017222DB&assignmentId=8519da94-5f23-43d9-bf1d-13fdd7f34f7d&projectId=bea99957-1862-4ad8-9558-57b91e42ce64","","null","<div style=""display: flex; justify-content: center; align-items: center;"">
                    <img src=""images/causal/causal_series_12/causal_series_12_d.jpg"" style=""width: 300px; height: 300px;"" />
                  </div>","null","",""
"","","","","","html-button-response","101","350353","0.0-73.0","9542EAD3CA434146BEE2D324017222DB","9542EAD3CA434146BEE2D324017222DB","8519da94-5f23-43d9-bf1d-13fdd7f34f7d","bea99957-1862-4ad8-9558-57b91e42ce64","{""participantId"":""9542EAD3CA434146BEE2D324017222DB"",""assignmentId"":""8519da94-5f23-43d9-bf1d-13fdd7f34f7d"",""projectId"":""bea99957-1862-4ad8-9558-57b91e42ce64""}","https://test12345.live/?participantId=9542EAD3CA434146BEE2D324017222DB&assignmentId=8519da94-5f23-43d9-bf1d-13fdd7f34f7d&projectId=bea99957-1862-4ad8-9558-57b91e42ce64","","5111","Was there a person in the picture?","1","",""
"","","","","","survey-likert","102","360965","0.0-74.0","9542EAD3CA434146BEE2D324017222DB","9542EAD3CA434146BEE2D324017222DB","8519da94-5f23-43d9-bf1d-13fdd7f34f7d","bea99957-1862-4ad8-9558-57b91e42ce64","{""participantId"":""9542EAD3CA434146BEE2D324017222DB"",""assignmentId"":""8519da94-5f23-43d9-bf1d-13fdd7f34f7d"",""projectId"":""bea99957-1862-4ad8-9558-57b91e42ce64""}","https://test12345.live/?participantId=9542EAD3CA434146BEE2D324017222DB&assignmentId=8519da94-5f23-43d9-bf1d-13fdd7f34f7d&projectId=bea99957-1862-4ad8-9558-57b91e42ce64","","10608","","{""Q0"":3}","","[0]"
"","","","","","html-button-response","103","362231","0.0-75.0","9542EAD3CA434146BEE2D324017222DB","9542EAD3CA434146BEE2D324017222DB","8519da94-5f23-43d9-bf1d-13fdd7f34f7d","bea99957-1862-4ad8-9558-57b91e42ce64","{""participantId"":""9542EAD3CA434146BEE2D324017222DB"",""assignmentId"":""8519da94-5f23-43d9-bf1d-13fdd7f34f7d"",""projectId"":""bea99957-1862-4ad8-9558-57b91e42ce64""}","https://test12345.live/?participantId=9542EAD3CA434146BEE2D324017222DB&assignmentId=8519da94-5f23-43d9-bf1d-13fdd7f34f7d&projectId=bea99957-1862-4ad8-9558-57b91e42ce64","","1256","
    <div style=""display: flex; justify-content: center; align-items: center;"">
      <img src=""images/red_deck_2.png"" style=""width: 300px; height: 300px; margin-right: 10px;"" />
      <img src=""images/blue_deck_1.png"" style=""width: 300px; height: 300px;"" />
    </div>","1","1",""
"","","","","","html-keyboard-response","104","365253","0.0-76.0-0.0","9542EAD3CA434146BEE2D324017222DB","9542EAD3CA434146BEE2D324017222DB","8519da94-5f23-43d9-bf1d-13fdd7f34f7d","bea99957-1862-4ad8-9558-57b91e42ce64","{""participantId"":""9542EAD3CA434146BEE2D324017222DB"",""assignmentId"":""8519da94-5f23-43d9-bf1d-13fdd7f34f7d"",""projectId"":""bea99957-1862-4ad8-9558-57b91e42ce64""}","https://test12345.live/?participantId=9542EAD3CA434146BEE2D324017222DB&assignmentId=8519da94-5f23-43d9-bf1d-13fdd7f34f7d&projectId=bea99957-1862-4ad8-9558-57b91e42ce64","","null","<div style=""display: flex; justify-content: center; align-items: center;"">
                    <img src=""images/causal/causal_series_5/causal_series_5_a.jpg"" style=""width: 300px; height: 300px;"" />
                  </div>","null","",""
"","","","","","html-keyboard-response","105","368266","0.0-76.0-1.0","9542EAD3CA434146BEE2D324017222DB","9542EAD3CA434146BEE2D324017222DB","8519da94-5f23-43d9-bf1d-13fdd7f34f7d","bea99957-1862-4ad8-9558-57b91e42ce64","{""participantId"":""9542EAD3CA434146BEE2D324017222DB"",""assignmentId"":""8519da94-5f23-43d9-bf1d-13fdd7f34f7d"",""projectId"":""bea99957-1862-4ad8-9558-57b91e42ce64""}","https://test12345.live/?participantId=9542EAD3CA434146BEE2D324017222DB&assignmentId=8519da94-5f23-43d9-bf1d-13fdd7f34f7d&projectId=bea99957-1862-4ad8-9558-57b91e42ce64","","null","<div style=""display: flex; justify-content: center; align-items: center;"">
                    <img src=""images/causal/causal_series_5/causal_series_5_b.jpg"" style=""width: 300px; height: 300px;"" />
                  </div>","null","",""
"","","","","","html-keyboard-response","106","371280","0.0-76.0-2.0","9542EAD3CA434146BEE2D324017222DB","9542EAD3CA434146BEE2D324017222DB","8519da94-5f23-43d9-bf1d-13fdd7f34f7d","bea99957-1862-4ad8-9558-57b91e42ce64","{""participantId"":""9542EAD3CA434146BEE2D324017222DB"",""assignmentId"":""8519da94-5f23-43d9-bf1d-13fdd7f34f7d"",""projectId"":""bea99957-1862-4ad8-9558-57b91e42ce64""}","https://test12345.live/?participantId=9542EAD3CA434146BEE2D324017222DB&assignmentId=8519da94-5f23-43d9-bf1d-13fdd7f34f7d&projectId=bea99957-1862-4ad8-9558-57b91e42ce64","","null","<div style=""display: flex; justify-content: center; align-items: center;"">
                    <img src=""images/causal/causal_series_5/causal_series_5_c.jpg"" style=""width: 300px; height: 300px;"" />
                  </div>","null","",""
"","","","","","html-keyboard-response","107","374289","0.0-76.0-3.0","9542EAD3CA434146BEE2D324017222DB","9542EAD3CA434146BEE2D324017222DB","8519da94-5f23-43d9-bf1d-13fdd7f34f7d","bea99957-1862-4ad8-9558-57b91e42ce64","{""participantId"":""9542EAD3CA434146BEE2D324017222DB"",""assignmentId"":""8519da94-5f23-43d9-bf1d-13fdd7f34f7d"",""projectId"":""bea99957-1862-4ad8-9558-57b91e42ce64""}","https://test12345.live/?participantId=9542EAD3CA434146BEE2D324017222DB&assignmentId=8519da94-5f23-43d9-bf1d-13fdd7f34f7d&projectId=bea99957-1862-4ad8-9558-57b91e42ce64","","null","<div style=""display: flex; justify-content: center; align-items: center;"">
                    <img src=""images/causal/causal_series_5/causal_series_5_d.jpg"" style=""width: 300px; height: 300px;"" />
                  </div>","null","",""
"","","","","","html-button-response","108","375405","0.0-78.0","9542EAD3CA434146BEE2D324017222DB","9542EAD3CA434146BEE2D324017222DB","8519da94-5f23-43d9-bf1d-13fdd7f34f7d","bea99957-1862-4ad8-9558-57b91e42ce64","{""participantId"":""9542EAD3CA434146BEE2D324017222DB"",""assignmentId"":""8519da94-5f23-43d9-bf1d-13fdd7f34f7d"",""projectId"":""bea99957-1862-4ad8-9558-57b91e42ce64""}","https://test12345.live/?participantId=9542EAD3CA434146BEE2D324017222DB&assignmentId=8519da94-5f23-43d9-bf1d-13fdd7f34f7d&projectId=bea99957-1862-4ad8-9558-57b91e42ce64","","1111","Was there a person in the picture?","0","",""
"","","","","","survey-likert","109","379059","0.0-79.0","9542EAD3CA434146BEE2D324017222DB","9542EAD3CA434146BEE2D324017222DB","8519da94-5f23-43d9-bf1d-13fdd7f34f7d","bea99957-1862-4ad8-9558-57b91e42ce64","{""participantId"":""9542EAD3CA434146BEE2D324017222DB"",""assignmentId"":""8519da94-5f23-43d9-bf1d-13fdd7f34f7d"",""projectId"":""bea99957-1862-4ad8-9558-57b91e42ce64""}","https://test12345.live/?participantId=9542EAD3CA434146BEE2D324017222DB&assignmentId=8519da94-5f23-43d9-bf1d-13fdd7f34f7d&projectId=bea99957-1862-4ad8-9558-57b91e42ce64","","3647","","{""Q0"":4}","","[0]"
"","","","","","html-button-response","110","381768","0.0-80.0","9542EAD3CA434146BEE2D324017222DB","9542EAD3CA434146BEE2D324017222DB","8519da94-5f23-43d9-bf1d-13fdd7f34f7d","bea99957-1862-4ad8-9558-57b91e42ce64","{""participantId"":""9542EAD3CA434146BEE2D324017222DB"",""assignmentId"":""8519da94-5f23-43d9-bf1d-13fdd7f34f7d"",""projectId"":""bea99957-1862-4ad8-9558-57b91e42ce64""}","https://test12345.live/?participantId=9542EAD3CA434146BEE2D324017222DB&assignmentId=8519da94-5f23-43d9-bf1d-13fdd7f34f7d&projectId=bea99957-1862-4ad8-9558-57b91e42ce64","","2702","
    <div style=""display: flex; justify-content: center; align-items: center;"">
      <img src=""images/red_deck_2.png"" style=""width: 300px; height: 300px; margin-right: 10px;"" />
      <img src=""images/blue_deck_1.png"" style=""width: 300px; height: 300px;"" />
    </div>","1","1",""
"","","","","","html-keyboard-response","111","384783","0.0-81.0-0.0","9542EAD3CA434146BEE2D324017222DB","9542EAD3CA434146BEE2D324017222DB","8519da94-5f23-43d9-bf1d-13fdd7f34f7d","bea99957-1862-4ad8-9558-57b91e42ce64","{""participantId"":""9542EAD3CA434146BEE2D324017222DB"",""assignmentId"":""8519da94-5f23-43d9-bf1d-13fdd7f34f7d"",""projectId"":""bea99957-1862-4ad8-9558-57b91e42ce64""}","https://test12345.live/?participantId=9542EAD3CA434146BEE2D324017222DB&assignmentId=8519da94-5f23-43d9-bf1d-13fdd7f34f7d&projectId=bea99957-1862-4ad8-9558-57b91e42ce64","","null","<div style=""display: flex; justify-content: center; align-items: center;"">
                    <img src=""images/causal/causal_series_15/causal_series_15_a.jpg"" style=""width: 300px; height: 300px;"" />
                  </div>","null","",""
"","","","","","html-keyboard-response","112","387792","0.0-81.0-1.0","9542EAD3CA434146BEE2D324017222DB","9542EAD3CA434146BEE2D324017222DB","8519da94-5f23-43d9-bf1d-13fdd7f34f7d","bea99957-1862-4ad8-9558-57b91e42ce64","{""participantId"":""9542EAD3CA434146BEE2D324017222DB"",""assignmentId"":""8519da94-5f23-43d9-bf1d-13fdd7f34f7d"",""projectId"":""bea99957-1862-4ad8-9558-57b91e42ce64""}","https://test12345.live/?participantId=9542EAD3CA434146BEE2D324017222DB&assignmentId=8519da94-5f23-43d9-bf1d-13fdd7f34f7d&projectId=bea99957-1862-4ad8-9558-57b91e42ce64","","null","<div style=""display: flex; justify-content: center; align-items: center;"">
                    <img src=""images/causal/causal_series_15/causal_series_15_b.jpg"" style=""width: 300px; height: 300px;"" />
                  </div>","null","",""
"","","","","","html-keyboard-response","113","390807","0.0-81.0-2.0","9542EAD3CA434146BEE2D324017222DB","9542EAD3CA434146BEE2D324017222DB","8519da94-5f23-43d9-bf1d-13fdd7f34f7d","bea99957-1862-4ad8-9558-57b91e42ce64","{""participantId"":""9542EAD3CA434146BEE2D324017222DB"",""assignmentId"":""8519da94-5f23-43d9-bf1d-13fdd7f34f7d"",""projectId"":""bea99957-1862-4ad8-9558-57b91e42ce64""}","https://test12345.live/?participantId=9542EAD3CA434146BEE2D324017222DB&assignmentId=8519da94-5f23-43d9-bf1d-13fdd7f34f7d&projectId=bea99957-1862-4ad8-9558-57b91e42ce64","","null","<div style=""display: flex; justify-content: center; align-items: center;"">
                    <img src=""images/causal/causal_series_15/causal_series_15_c.jpg"" style=""width: 300px; height: 300px;"" />
                  </div>","null","",""
"","","","","","html-keyboard-response","114","393820","0.0-81.0-3.0","9542EAD3CA434146BEE2D324017222DB","9542EAD3CA434146BEE2D324017222DB","8519da94-5f23-43d9-bf1d-13fdd7f34f7d","bea99957-1862-4ad8-9558-57b91e42ce64","{""participantId"":""9542EAD3CA434146BEE2D324017222DB"",""assignmentId"":""8519da94-5f23-43d9-bf1d-13fdd7f34f7d"",""projectId"":""bea99957-1862-4ad8-9558-57b91e42ce64""}","https://test12345.live/?participantId=9542EAD3CA434146BEE2D324017222DB&assignmentId=8519da94-5f23-43d9-bf1d-13fdd7f34f7d&projectId=bea99957-1862-4ad8-9558-57b91e42ce64","","null","<div style=""display: flex; justify-content: center; align-items: center;"">
                    <img src=""images/causal/causal_series_15/causal_series_15_d.jpg"" style=""width: 300px; height: 300px;"" />
                  </div>","null","",""
"","","","","","html-button-response","115","395501","0.0-83.0","9542EAD3CA434146BEE2D324017222DB","9542EAD3CA434146BEE2D324017222DB","8519da94-5f23-43d9-bf1d-13fdd7f34f7d","bea99957-1862-4ad8-9558-57b91e42ce64","{""participantId"":""9542EAD3CA434146BEE2D324017222DB"",""assignmentId"":""8519da94-5f23-43d9-bf1d-13fdd7f34f7d"",""projectId"":""bea99957-1862-4ad8-9558-57b91e42ce64""}","https://test12345.live/?participantId=9542EAD3CA434146BEE2D324017222DB&assignmentId=8519da94-5f23-43d9-bf1d-13fdd7f34f7d&projectId=bea99957-1862-4ad8-9558-57b91e42ce64","","1674","Was there a person in the picture?","0","",""
"","","","","","survey-likert","116","398928","0.0-84.0","9542EAD3CA434146BEE2D324017222DB","9542EAD3CA434146BEE2D324017222DB","8519da94-5f23-43d9-bf1d-13fdd7f34f7d","bea99957-1862-4ad8-9558-57b91e42ce64","{""participantId"":""9542EAD3CA434146BEE2D324017222DB"",""assignmentId"":""8519da94-5f23-43d9-bf1d-13fdd7f34f7d"",""projectId"":""bea99957-1862-4ad8-9558-57b91e42ce64""}","https://test12345.live/?participantId=9542EAD3CA434146BEE2D324017222DB&assignmentId=8519da94-5f23-43d9-bf1d-13fdd7f34f7d&projectId=bea99957-1862-4ad8-9558-57b91e42ce64","","3421","","{""Q0"":0}","","[0]"
"","","","","","html-button-response","117","400663","0.0-85.0","9542EAD3CA434146BEE2D324017222DB","9542EAD3CA434146BEE2D324017222DB","8519da94-5f23-43d9-bf1d-13fdd7f34f7d","bea99957-1862-4ad8-9558-57b91e42ce64","{""participantId"":""9542EAD3CA434146BEE2D324017222DB"",""assignmentId"":""8519da94-5f23-43d9-bf1d-13fdd7f34f7d"",""projectId"":""bea99957-1862-4ad8-9558-57b91e42ce64""}","https://test12345.live/?participantId=9542EAD3CA434146BEE2D324017222DB&assignmentId=8519da94-5f23-43d9-bf1d-13fdd7f34f7d&projectId=bea99957-1862-4ad8-9558-57b91e42ce64","","1724","
    <div style=""display: flex; justify-content: center; align-items: center;"">
      <img src=""images/red_deck_2.png"" style=""width: 300px; height: 300px; margin-right: 10px;"" />
      <img src=""images/blue_deck_1.png"" style=""width: 300px; height: 300px;"" />
    </div>","1","1",""
"","","","","","html-keyboard-response","118","403680","0.0-86.0-0.0","9542EAD3CA434146BEE2D324017222DB","9542EAD3CA434146BEE2D324017222DB","8519da94-5f23-43d9-bf1d-13fdd7f34f7d","bea99957-1862-4ad8-9558-57b91e42ce64","{""participantId"":""9542EAD3CA434146BEE2D324017222DB"",""assignmentId"":""8519da94-5f23-43d9-bf1d-13fdd7f34f7d"",""projectId"":""bea99957-1862-4ad8-9558-57b91e42ce64""}","https://test12345.live/?participantId=9542EAD3CA434146BEE2D324017222DB&assignmentId=8519da94-5f23-43d9-bf1d-13fdd7f34f7d&projectId=bea99957-1862-4ad8-9558-57b91e42ce64","","null","<div style=""display: flex; justify-content: center; align-items: center;"">
                    <img src=""images/causal/causal_series_18/causal_series_18_a.jpg"" style=""width: 300px; height: 300px;"" />
                  </div>","null","",""
"","","","","","html-keyboard-response","119","406694","0.0-86.0-1.0","9542EAD3CA434146BEE2D324017222DB","9542EAD3CA434146BEE2D324017222DB","8519da94-5f23-43d9-bf1d-13fdd7f34f7d","bea99957-1862-4ad8-9558-57b91e42ce64","{""participantId"":""9542EAD3CA434146BEE2D324017222DB"",""assignmentId"":""8519da94-5f23-43d9-bf1d-13fdd7f34f7d"",""projectId"":""bea99957-1862-4ad8-9558-57b91e42ce64""}","https://test12345.live/?participantId=9542EAD3CA434146BEE2D324017222DB&assignmentId=8519da94-5f23-43d9-bf1d-13fdd7f34f7d&projectId=bea99957-1862-4ad8-9558-57b91e42ce64","","null","<div style=""display: flex; justify-content: center; align-items: center;"">
                    <img src=""images/causal/causal_series_18/causal_series_18_b.jpg"" style=""width: 300px; height: 300px;"" />
                  </div>","null","",""
"","","","","","html-keyboard-response","120","409698","0.0-86.0-2.0","9542EAD3CA434146BEE2D324017222DB","9542EAD3CA434146BEE2D324017222DB","8519da94-5f23-43d9-bf1d-13fdd7f34f7d","bea99957-1862-4ad8-9558-57b91e42ce64","{""participantId"":""9542EAD3CA434146BEE2D324017222DB"",""assignmentId"":""8519da94-5f23-43d9-bf1d-13fdd7f34f7d"",""projectId"":""bea99957-1862-4ad8-9558-57b91e42ce64""}","https://test12345.live/?participantId=9542EAD3CA434146BEE2D324017222DB&assignmentId=8519da94-5f23-43d9-bf1d-13fdd7f34f7d&projectId=bea99957-1862-4ad8-9558-57b91e42ce64","","null","<div style=""display: flex; justify-content: center; align-items: center;"">
                    <img src=""images/causal/causal_series_18/causal_series_18_c.jpg"" style=""width: 300px; height: 300px;"" />
                  </div>","null","",""
"","","","","","html-keyboard-response","121","412704","0.0-86.0-3.0","9542EAD3CA434146BEE2D324017222DB","9542EAD3CA434146BEE2D324017222DB","8519da94-5f23-43d9-bf1d-13fdd7f34f7d","bea99957-1862-4ad8-9558-57b91e42ce64","{""participantId"":""9542EAD3CA434146BEE2D324017222DB"",""assignmentId"":""8519da94-5f23-43d9-bf1d-13fdd7f34f7d"",""projectId"":""bea99957-1862-4ad8-9558-57b91e42ce64""}","https://test12345.live/?participantId=9542EAD3CA434146BEE2D324017222DB&assignmentId=8519da94-5f23-43d9-bf1d-13fdd7f34f7d&projectId=bea99957-1862-4ad8-9558-57b91e42ce64","","null","<div style=""display: flex; justify-content: center; align-items: center;"">
                    <img src=""images/causal/causal_series_18/causal_series_18_d.jpg"" style=""width: 300px; height: 300px;"" />
                  </div>","null","",""
"","","","","","html-button-response","122","414010","0.0-88.0","9542EAD3CA434146BEE2D324017222DB","9542EAD3CA434146BEE2D324017222DB","8519da94-5f23-43d9-bf1d-13fdd7f34f7d","bea99957-1862-4ad8-9558-57b91e42ce64","{""participantId"":""9542EAD3CA434146BEE2D324017222DB"",""assignmentId"":""8519da94-5f23-43d9-bf1d-13fdd7f34f7d"",""projectId"":""bea99957-1862-4ad8-9558-57b91e42ce64""}","https://test12345.live/?participantId=9542EAD3CA434146BEE2D324017222DB&assignmentId=8519da94-5f23-43d9-bf1d-13fdd7f34f7d&projectId=bea99957-1862-4ad8-9558-57b91e42ce64","","1303","Was there a person in the picture?","1","",""
"","","","","","survey-likert","123","416550","0.0-89.0","9542EAD3CA434146BEE2D324017222DB","9542EAD3CA434146BEE2D324017222DB","8519da94-5f23-43d9-bf1d-13fdd7f34f7d","bea99957-1862-4ad8-9558-57b91e42ce64","{""participantId"":""9542EAD3CA434146BEE2D324017222DB"",""assignmentId"":""8519da94-5f23-43d9-bf1d-13fdd7f34f7d"",""projectId"":""bea99957-1862-4ad8-9558-57b91e42ce64""}","https://test12345.live/?participantId=9542EAD3CA434146BEE2D324017222DB&assignmentId=8519da94-5f23-43d9-bf1d-13fdd7f34f7d&projectId=bea99957-1862-4ad8-9558-57b91e42ce64","","2536","","{""Q0"":2}","","[0]"
"","","","","","html-button-response","124","417795","0.0-90.0","9542EAD3CA434146BEE2D324017222DB","9542EAD3CA434146BEE2D324017222DB","8519da94-5f23-43d9-bf1d-13fdd7f34f7d","bea99957-1862-4ad8-9558-57b91e42ce64","{""participantId"":""9542EAD3CA434146BEE2D324017222DB"",""assignmentId"":""8519da94-5f23-43d9-bf1d-13fdd7f34f7d"",""projectId"":""bea99957-1862-4ad8-9558-57b91e42ce64""}","https://test12345.live/?participantId=9542EAD3CA434146BEE2D324017222DB&assignmentId=8519da94-5f23-43d9-bf1d-13fdd7f34f7d&projectId=bea99957-1862-4ad8-9558-57b91e42ce64","","1235","
    <div style=""display: flex; justify-content: center; align-items: center;"">
      <img src=""images/red_deck_2.png"" style=""width: 300px; height: 300px; margin-right: 10px;"" />
      <img src=""images/blue_deck_1.png"" style=""width: 300px; height: 300px;"" />
    </div>","0","0",""
"","","","","","html-keyboard-response","125","420814","0.0-92.0-0.0","9542EAD3CA434146BEE2D324017222DB","9542EAD3CA434146BEE2D324017222DB","8519da94-5f23-43d9-bf1d-13fdd7f34f7d","bea99957-1862-4ad8-9558-57b91e42ce64","{""participantId"":""9542EAD3CA434146BEE2D324017222DB"",""assignmentId"":""8519da94-5f23-43d9-bf1d-13fdd7f34f7d"",""projectId"":""bea99957-1862-4ad8-9558-57b91e42ce64""}","https://test12345.live/?participantId=9542EAD3CA434146BEE2D324017222DB&assignmentId=8519da94-5f23-43d9-bf1d-13fdd7f34f7d&projectId=bea99957-1862-4ad8-9558-57b91e42ce64","","null","<div style=""display: flex; justify-content: center; align-items: center;"">
                    <img src=""images/semantic/semantic_series_18/semantic_series_18_a.jpg"" style=""width: 300px; height: 300px;"" />
                  </div>","null","",""
"","","","","","html-keyboard-response","126","423829","0.0-92.0-1.0","9542EAD3CA434146BEE2D324017222DB","9542EAD3CA434146BEE2D324017222DB","8519da94-5f23-43d9-bf1d-13fdd7f34f7d","bea99957-1862-4ad8-9558-57b91e42ce64","{""participantId"":""9542EAD3CA434146BEE2D324017222DB"",""assignmentId"":""8519da94-5f23-43d9-bf1d-13fdd7f34f7d"",""projectId"":""bea99957-1862-4ad8-9558-57b91e42ce64""}","https://test12345.live/?participantId=9542EAD3CA434146BEE2D324017222DB&assignmentId=8519da94-5f23-43d9-bf1d-13fdd7f34f7d&projectId=bea99957-1862-4ad8-9558-57b91e42ce64","","null","<div style=""display: flex; justify-content: center; align-items: center;"">
                    <img src=""images/semantic/semantic_series_18/semantic_series_18_b.jpg"" style=""width: 300px; height: 300px;"" />
                  </div>","null","",""
"","","","","","html-keyboard-response","127","426835","0.0-92.0-2.0","9542EAD3CA434146BEE2D324017222DB","9542EAD3CA434146BEE2D324017222DB","8519da94-5f23-43d9-bf1d-13fdd7f34f7d","bea99957-1862-4ad8-9558-57b91e42ce64","{""participantId"":""9542EAD3CA434146BEE2D324017222DB"",""assignmentId"":""8519da94-5f23-43d9-bf1d-13fdd7f34f7d"",""projectId"":""bea99957-1862-4ad8-9558-57b91e42ce64""}","https://test12345.live/?participantId=9542EAD3CA434146BEE2D324017222DB&assignmentId=8519da94-5f23-43d9-bf1d-13fdd7f34f7d&projectId=bea99957-1862-4ad8-9558-57b91e42ce64","","null","<div style=""display: flex; justify-content: center; align-items: center;"">
                    <img src=""images/semantic/semantic_series_18/semantic_series_18_c.jpg"" style=""width: 300px; height: 300px;"" />
                  </div>","null","",""
"","","","","","html-keyboard-response","128","429856","0.0-92.0-3.0","9542EAD3CA434146BEE2D324017222DB","9542EAD3CA434146BEE2D324017222DB","8519da94-5f23-43d9-bf1d-13fdd7f34f7d","bea99957-1862-4ad8-9558-57b91e42ce64","{""participantId"":""9542EAD3CA434146BEE2D324017222DB"",""assignmentId"":""8519da94-5f23-43d9-bf1d-13fdd7f34f7d"",""projectId"":""bea99957-1862-4ad8-9558-57b91e42ce64""}","https://test12345.live/?participantId=9542EAD3CA434146BEE2D324017222DB&assignmentId=8519da94-5f23-43d9-bf1d-13fdd7f34f7d&projectId=bea99957-1862-4ad8-9558-57b91e42ce64","","null","<div style=""display: flex; justify-content: center; align-items: center;"">
                    <img src=""images/semantic/semantic_series_18/semantic_series_18_d.jpg"" style=""width: 300px; height: 300px;"" />
                  </div>","null","",""
"","","","","","html-button-response","129","433941","0.0-93.0","9542EAD3CA434146BEE2D324017222DB","9542EAD3CA434146BEE2D324017222DB","8519da94-5f23-43d9-bf1d-13fdd7f34f7d","bea99957-1862-4ad8-9558-57b91e42ce64","{""participantId"":""9542EAD3CA434146BEE2D324017222DB"",""assignmentId"":""8519da94-5f23-43d9-bf1d-13fdd7f34f7d"",""projectId"":""bea99957-1862-4ad8-9558-57b91e42ce64""}","https://test12345.live/?participantId=9542EAD3CA434146BEE2D324017222DB&assignmentId=8519da94-5f23-43d9-bf1d-13fdd7f34f7d&projectId=bea99957-1862-4ad8-9558-57b91e42ce64","","4083","Was there a person in the picture?","1","",""
"","","","","","survey-likert","130","436153","0.0-94.0","9542EAD3CA434146BEE2D324017222DB","9542EAD3CA434146BEE2D324017222DB","8519da94-5f23-43d9-bf1d-13fdd7f34f7d","bea99957-1862-4ad8-9558-57b91e42ce64","{""participantId"":""9542EAD3CA434146BEE2D324017222DB"",""assignmentId"":""8519da94-5f23-43d9-bf1d-13fdd7f34f7d"",""projectId"":""bea99957-1862-4ad8-9558-57b91e42ce64""}","https://test12345.live/?participantId=9542EAD3CA434146BEE2D324017222DB&assignmentId=8519da94-5f23-43d9-bf1d-13fdd7f34f7d&projectId=bea99957-1862-4ad8-9558-57b91e42ce64","","2208","","{""Q0"":3}","","[0]"
"","","","","","survey-text","131","472218","0.0-95.0","9542EAD3CA434146BEE2D324017222DB","9542EAD3CA434146BEE2D324017222DB","8519da94-5f23-43d9-bf1d-13fdd7f34f7d","bea99957-1862-4ad8-9558-57b91e42ce64","{""participantId"":""9542EAD3CA434146BEE2D324017222DB"",""assignmentId"":""8519da94-5f23-43d9-bf1d-13fdd7f34f7d"",""projectId"":""bea99957-1862-4ad8-9558-57b91e42ce64""}","https://test12345.live/?participantId=9542EAD3CA434146BEE2D324017222DB&assignmentId=8519da94-5f23-43d9-bf1d-13fdd7f34f7d&projectId=bea99957-1862-4ad8-9558-57b91e42ce64","","36046","","{""Q0"":""No, they show similar pictures.""}","",""
