"success","timeout","failed_images","failed_audio","failed_video","trial_type","trial_index","time_elapsed","internal_node_id","subject_id","study_id","session_id","view_history","rt","stimulus","response","choice"
"true","false","[]","[]","[]","preload","0","6737","0.0-0.0","9ED7BE2FCC394BB29160A2596491484F","1551defb-47e7-4224-8889-ec8b373bf968","7c9f784d-5202-4c36-a6e2-1fcf7bf41701","","","","",""
"","","","","","instructions","1","10026","0.0-1.0","9ED7BE2FCC394BB29160A2596491484F","1551defb-47e7-4224-8889-ec8b373bf968","7c9f784d-5202-4c36-a6e2-1fcf7bf41701","[{""page_index"":0,""viewing_time"":3288}]","3288","","",""
"","","","","","instructions","2","12624","0.0-2.0","9ED7BE2FCC394BB29160A2596491484F","1551defb-47e7-4224-8889-ec8b373bf968","7c9f784d-5202-4c36-a6e2-1fcf7bf41701","[{""page_index"":0,""viewing_time"":2598}]","2598","","",""
"true","","","","","fullscreen","3","15130","0.0-3.0","9ED7BE2FCC394BB29160A2596491484F","1551defb-47e7-4224-8889-ec8b373bf968","7c9f784d-5202-4c36-a6e2-1fcf7bf41701","","1504","","",""
"","","","","","instructions","4","31917","0.0-4.0","9ED7BE2FCC394BB29160A2596491484F","1551defb-47e7-4224-8889-ec8b373bf968","7c9f784d-5202-4c36-a6e2-1fcf7bf41701","[{""page_index"":0,""viewing_time"":16787}]","16787","","",""
"","","","","","html-keyboard-response","5","34929","0.0-5.0","9ED7BE2FCC394BB29160A2596491484F","1551defb-47e7-4224-8889-ec8b373bf968","7c9f784d-5202-4c36-a6e2-1fcf7bf41701","","null","<div style=""display: flex; justify-content: center; align-items: center;"">
                <img src=""images/causal/causal_series_4/causal_series_4_a.jpg"" style=""width: 300px; height: 300px;"" />
              </div>","null",""
"","","","","","html-keyboard-response","6","37930","0.0-6.0","9ED7BE2FCC394BB29160A2596491484F","1551defb-47e7-4224-8889-ec8b373bf968","7c9f784d-5202-4c36-a6e2-1fcf7bf41701","","null","<div style=""display: flex; justify-content: center; align-items: center;"">
                <img src=""images/causal/causal_series_4/causal_series_4_b.jpg"" style=""width: 300px; height: 300px;"" />
              </div>","null",""
"","","","","","html-keyboard-response","7","40945","0.0-7.0","9ED7BE2FCC394BB29160A2596491484F","1551defb-47e7-4224-8889-ec8b373bf968","7c9f784d-5202-4c36-a6e2-1fcf7bf41701","","null","<div style=""display: flex; justify-content: center; align-items: center;"">
                <img src=""images/causal/causal_series_4/causal_series_4_c.jpg"" style=""width: 300px; height: 300px;"" />
              </div>","null",""
"","","","","","html-button-response","8","43944","0.0-8.0","9ED7BE2FCC394BB29160A2596491484F","1551defb-47e7-4224-8889-ec8b373bf968","7c9f784d-5202-4c36-a6e2-1fcf7bf41701","","2998","
    <div style=""display: flex; justify-content: center; align-items: center;"">
      <img src=""images/blue_deck_1.png"" style=""width: 300px; height: 300px; margin-right: 10px;"" />
      <img src=""images/red_deck_2.png"" style=""width: 300px; height: 300px;"" />
    </div>","1","1"
"","","","","","html-keyboard-response","9","46958","0.0-9.0-1.0-0.0","9ED7BE2FCC394BB29160A2596491484F","1551defb-47e7-4224-8889-ec8b373bf968","7c9f784d-5202-4c36-a6e2-1fcf7bf41701","","null","<div style=""display: flex; justify-content: center; align-items: center;"">
                <img src=""images/semantic/semantic_series_3/semantic_series_3_d.jpg"" style=""width: 300px; height: 300px;"" />
              </div>","null",""
"","","","","","html-keyboard-response","10","49973","0.0-10.0","9ED7BE2FCC394BB29160A2596491484F","1551defb-47e7-4224-8889-ec8b373bf968","7c9f784d-5202-4c36-a6e2-1fcf7bf41701","","null","<div style=""display: flex; justify-content: center; align-items: center;"">
                <img src=""images/other/blank.jpg"" style=""width: 300px; height: 300px;"" />
              </div>","null",""
"","","","","","html-keyboard-response","11","52987","0.0-11.0","9ED7BE2FCC394BB29160A2596491484F","1551defb-47e7-4224-8889-ec8b373bf968","7c9f784d-5202-4c36-a6e2-1fcf7bf41701","","null","<div style=""display: flex; justify-content: center; align-items: center;"">
                <img src=""images/causal/causal_series_15/causal_series_15_a.jpg"" style=""width: 300px; height: 300px;"" />
              </div>","null",""
"","","","","","html-keyboard-response","12","56003","0.0-12.0","9ED7BE2FCC394BB29160A2596491484F","1551defb-47e7-4224-8889-ec8b373bf968","7c9f784d-5202-4c36-a6e2-1fcf7bf41701","","null","<div style=""display: flex; justify-content: center; align-items: center;"">
                <img src=""images/causal/causal_series_15/causal_series_15_b.jpg"" style=""width: 300px; height: 300px;"" />
              </div>","null",""
"","","","","","html-keyboard-response","13","59017","0.0-13.0","9ED7BE2FCC394BB29160A2596491484F","1551defb-47e7-4224-8889-ec8b373bf968","7c9f784d-5202-4c36-a6e2-1fcf7bf41701","","null","<div style=""display: flex; justify-content: center; align-items: center;"">
                <img src=""images/causal/causal_series_15/causal_series_15_c.jpg"" style=""width: 300px; height: 300px;"" />
              </div>","null",""
"","","","","","html-button-response","14","86069","0.0-14.0","9ED7BE2FCC394BB29160A2596491484F","1551defb-47e7-4224-8889-ec8b373bf968","7c9f784d-5202-4c36-a6e2-1fcf7bf41701","","27052","
    <div style=""display: flex; justify-content: center; align-items: center;"">
      <img src=""images/blue_deck_1.png"" style=""width: 300px; height: 300px; margin-right: 10px;"" />
      <img src=""images/red_deck_2.png"" style=""width: 300px; height: 300px;"" />
    </div>","0","0"
"","","","","","html-keyboard-response","15","89069","0.0-15.0-0.0-0.0","9ED7BE2FCC394BB29160A2596491484F","1551defb-47e7-4224-8889-ec8b373bf968","7c9f784d-5202-4c36-a6e2-1fcf7bf41701","","null","<div style=""display: flex; justify-content: center; align-items: center;"">
                <img src=""images/causal/causal_series_15/causal_series_15_d.jpg"" style=""width: 300px; height: 300px;"" />
              </div>","null",""
"","","","","","html-keyboard-response","16","92083","0.0-16.0","9ED7BE2FCC394BB29160A2596491484F","1551defb-47e7-4224-8889-ec8b373bf968","7c9f784d-5202-4c36-a6e2-1fcf7bf41701","","null","<div style=""display: flex; justify-content: center; align-items: center;"">
                <img src=""images/other/blank.jpg"" style=""width: 300px; height: 300px;"" />
              </div>","null",""
"","","","","","html-keyboard-response","17","95084","0.0-17.0","9ED7BE2FCC394BB29160A2596491484F","1551defb-47e7-4224-8889-ec8b373bf968","7c9f784d-5202-4c36-a6e2-1fcf7bf41701","","null","<div style=""display: flex; justify-content: center; align-items: center;"">
                <img src=""images/causal/causal_series_14/causal_series_14_a.jpg"" style=""width: 300px; height: 300px;"" />
              </div>","null",""
"","","","","","html-keyboard-response","18","98098","0.0-18.0","9ED7BE2FCC394BB29160A2596491484F","1551defb-47e7-4224-8889-ec8b373bf968","7c9f784d-5202-4c36-a6e2-1fcf7bf41701","","null","<div style=""display: flex; justify-content: center; align-items: center;"">
                <img src=""images/causal/causal_series_14/causal_series_14_b.jpg"" style=""width: 300px; height: 300px;"" />
              </div>","null",""
"","","","","","html-keyboard-response","19","101112","0.0-19.0","9ED7BE2FCC394BB29160A2596491484F","1551defb-47e7-4224-8889-ec8b373bf968","7c9f784d-5202-4c36-a6e2-1fcf7bf41701","","null","<div style=""display: flex; justify-content: center; align-items: center;"">
                <img src=""images/causal/causal_series_14/causal_series_14_c.jpg"" style=""width: 300px; height: 300px;"" />
              </div>","null",""
"","","","","","html-button-response","20","102495","0.0-20.0","9ED7BE2FCC394BB29160A2596491484F","1551defb-47e7-4224-8889-ec8b373bf968","7c9f784d-5202-4c36-a6e2-1fcf7bf41701","","1382","
    <div style=""display: flex; justify-content: center; align-items: center;"">
      <img src=""images/blue_deck_1.png"" style=""width: 300px; height: 300px; margin-right: 10px;"" />
      <img src=""images/red_deck_2.png"" style=""width: 300px; height: 300px;"" />
    </div>","1","1"
"","","","","","html-keyboard-response","21","105496","0.0-21.0-1.0-0.0","9ED7BE2FCC394BB29160A2596491484F","1551defb-47e7-4224-8889-ec8b373bf968","7c9f784d-5202-4c36-a6e2-1fcf7bf41701","","null","<div style=""display: flex; justify-content: center; align-items: center;"">
                <img src=""images/semantic/semantic_series_13/semantic_series_13_d.jpg"" style=""width: 300px; height: 300px;"" />
              </div>","null",""
"","","","","","html-keyboard-response","22","108510","0.0-22.0","9ED7BE2FCC394BB29160A2596491484F","1551defb-47e7-4224-8889-ec8b373bf968","7c9f784d-5202-4c36-a6e2-1fcf7bf41701","","null","<div style=""display: flex; justify-content: center; align-items: center;"">
                <img src=""images/other/blank.jpg"" style=""width: 300px; height: 300px;"" />
              </div>","null",""
"","","","","","html-keyboard-response","23","111525","0.0-23.0","9ED7BE2FCC394BB29160A2596491484F","1551defb-47e7-4224-8889-ec8b373bf968","7c9f784d-5202-4c36-a6e2-1fcf7bf41701","","null","<div style=""display: flex; justify-content: center; align-items: center;"">
                <img src=""images/causal/causal_series_5/causal_series_5_a.jpg"" style=""width: 300px; height: 300px;"" />
              </div>","null",""
"","","","","","html-keyboard-response","24","114539","0.0-24.0","9ED7BE2FCC394BB29160A2596491484F","1551defb-47e7-4224-8889-ec8b373bf968","7c9f784d-5202-4c36-a6e2-1fcf7bf41701","","null","<div style=""display: flex; justify-content: center; align-items: center;"">
                <img src=""images/causal/causal_series_5/causal_series_5_b.jpg"" style=""width: 300px; height: 300px;"" />
              </div>","null",""
"","","","","","html-keyboard-response","25","117554","0.0-25.0","9ED7BE2FCC394BB29160A2596491484F","1551defb-47e7-4224-8889-ec8b373bf968","7c9f784d-5202-4c36-a6e2-1fcf7bf41701","","null","<div style=""display: flex; justify-content: center; align-items: center;"">
                <img src=""images/causal/causal_series_5/causal_series_5_c.jpg"" style=""width: 300px; height: 300px;"" />
              </div>","null",""
"","","","","","html-button-response","26","119359","0.0-26.0","9ED7BE2FCC394BB29160A2596491484F","1551defb-47e7-4224-8889-ec8b373bf968","7c9f784d-5202-4c36-a6e2-1fcf7bf41701","","1804","
    <div style=""display: flex; justify-content: center; align-items: center;"">
      <img src=""images/blue_deck_1.png"" style=""width: 300px; height: 300px; margin-right: 10px;"" />
      <img src=""images/red_deck_2.png"" style=""width: 300px; height: 300px;"" />
    </div>","1","1"
"","","","","","html-keyboard-response","27","122371","0.0-27.0-1.0-0.0","9ED7BE2FCC394BB29160A2596491484F","1551defb-47e7-4224-8889-ec8b373bf968","7c9f784d-5202-4c36-a6e2-1fcf7bf41701","","null","<div style=""display: flex; justify-content: center; align-items: center;"">
                <img src=""images/semantic/semantic_series_4/semantic_series_4_d.jpg"" style=""width: 300px; height: 300px;"" />
              </div>","null",""
"","","","","","html-keyboard-response","28","125372","0.0-28.0","9ED7BE2FCC394BB29160A2596491484F","1551defb-47e7-4224-8889-ec8b373bf968","7c9f784d-5202-4c36-a6e2-1fcf7bf41701","","null","<div style=""display: flex; justify-content: center; align-items: center;"">
                <img src=""images/other/blank.jpg"" style=""width: 300px; height: 300px;"" />
              </div>","null",""
"","","","","","html-keyboard-response","29","128387","0.0-29.0","9ED7BE2FCC394BB29160A2596491484F","1551defb-47e7-4224-8889-ec8b373bf968","7c9f784d-5202-4c36-a6e2-1fcf7bf41701","","null","<div style=""display: flex; justify-content: center; align-items: center;"">
                <img src=""images/causal/causal_series_11/causal_series_11_a.jpg"" style=""width: 300px; height: 300px;"" />
              </div>","null",""
"","","","","","html-keyboard-response","30","131402","0.0-30.0","9ED7BE2FCC394BB29160A2596491484F","1551defb-47e7-4224-8889-ec8b373bf968","7c9f784d-5202-4c36-a6e2-1fcf7bf41701","","null","<div style=""display: flex; justify-content: center; align-items: center;"">
                <img src=""images/causal/causal_series_11/causal_series_11_b.jpg"" style=""width: 300px; height: 300px;"" />
              </div>","null",""
"","","","","","html-keyboard-response","31","134417","0.0-31.0","9ED7BE2FCC394BB29160A2596491484F","1551defb-47e7-4224-8889-ec8b373bf968","7c9f784d-5202-4c36-a6e2-1fcf7bf41701","","null","<div style=""display: flex; justify-content: center; align-items: center;"">
                <img src=""images/causal/causal_series_11/causal_series_11_c.jpg"" style=""width: 300px; height: 300px;"" />
              </div>","null",""
"","","","","","html-button-response","32","145436","0.0-32.0","9ED7BE2FCC394BB29160A2596491484F","1551defb-47e7-4224-8889-ec8b373bf968","7c9f784d-5202-4c36-a6e2-1fcf7bf41701","","11018","
    <div style=""display: flex; justify-content: center; align-items: center;"">
      <img src=""images/blue_deck_1.png"" style=""width: 300px; height: 300px; margin-right: 10px;"" />
      <img src=""images/red_deck_2.png"" style=""width: 300px; height: 300px;"" />
    </div>","1","1"
"","","","","","html-keyboard-response","33","148443","0.0-33.0-1.0-0.0","9ED7BE2FCC394BB29160A2596491484F","1551defb-47e7-4224-8889-ec8b373bf968","7c9f784d-5202-4c36-a6e2-1fcf7bf41701","","null","<div style=""display: flex; justify-content: center; align-items: center;"">
                <img src=""images/semantic/semantic_series_10/semantic_series_10_d.jpg"" style=""width: 300px; height: 300px;"" />
              </div>","null",""
"","","","","","html-keyboard-response","34","151444","0.0-34.0","9ED7BE2FCC394BB29160A2596491484F","1551defb-47e7-4224-8889-ec8b373bf968","7c9f784d-5202-4c36-a6e2-1fcf7bf41701","","null","<div style=""display: flex; justify-content: center; align-items: center;"">
                <img src=""images/other/blank.jpg"" style=""width: 300px; height: 300px;"" />
              </div>","null",""
"","","","","","html-keyboard-response","35","154457","0.0-35.0","9ED7BE2FCC394BB29160A2596491484F","1551defb-47e7-4224-8889-ec8b373bf968","7c9f784d-5202-4c36-a6e2-1fcf7bf41701","","null","<div style=""display: flex; justify-content: center; align-items: center;"">
                <img src=""images/causal/causal_series_9/causal_series_9_a.jpg"" style=""width: 300px; height: 300px;"" />
              </div>","null",""
"","","","","","html-keyboard-response","36","157473","0.0-36.0","9ED7BE2FCC394BB29160A2596491484F","1551defb-47e7-4224-8889-ec8b373bf968","7c9f784d-5202-4c36-a6e2-1fcf7bf41701","","null","<div style=""display: flex; justify-content: center; align-items: center;"">
                <img src=""images/causal/causal_series_9/causal_series_9_b.jpg"" style=""width: 300px; height: 300px;"" />
              </div>","null",""
"","","","","","html-keyboard-response","37","160487","0.0-37.0","9ED7BE2FCC394BB29160A2596491484F","1551defb-47e7-4224-8889-ec8b373bf968","7c9f784d-5202-4c36-a6e2-1fcf7bf41701","","null","<div style=""display: flex; justify-content: center; align-items: center;"">
                <img src=""images/causal/causal_series_9/causal_series_9_c.jpg"" style=""width: 300px; height: 300px;"" />
              </div>","null",""
"","","","","","html-button-response","38","161580","0.0-38.0","9ED7BE2FCC394BB29160A2596491484F","1551defb-47e7-4224-8889-ec8b373bf968","7c9f784d-5202-4c36-a6e2-1fcf7bf41701","","1093","
    <div style=""display: flex; justify-content: center; align-items: center;"">
      <img src=""images/blue_deck_1.png"" style=""width: 300px; height: 300px; margin-right: 10px;"" />
      <img src=""images/red_deck_2.png"" style=""width: 300px; height: 300px;"" />
    </div>","0","0"
"","","","","","html-keyboard-response","39","164594","0.0-39.0-0.0-0.0","9ED7BE2FCC394BB29160A2596491484F","1551defb-47e7-4224-8889-ec8b373bf968","7c9f784d-5202-4c36-a6e2-1fcf7bf41701","","null","<div style=""display: flex; justify-content: center; align-items: center;"">
                <img src=""images/causal/causal_series_9/causal_series_9_d.jpg"" style=""width: 300px; height: 300px;"" />
              </div>","null",""
"","","","","","html-keyboard-response","40","167610","0.0-40.0","9ED7BE2FCC394BB29160A2596491484F","1551defb-47e7-4224-8889-ec8b373bf968","7c9f784d-5202-4c36-a6e2-1fcf7bf41701","","null","<div style=""display: flex; justify-content: center; align-items: center;"">
                <img src=""images/other/blank.jpg"" style=""width: 300px; height: 300px;"" />
              </div>","null",""
"","","","","","html-keyboard-response","41","170626","0.0-41.0","9ED7BE2FCC394BB29160A2596491484F","1551defb-47e7-4224-8889-ec8b373bf968","7c9f784d-5202-4c36-a6e2-1fcf7bf41701","","null","<div style=""display: flex; justify-content: center; align-items: center;"">
                <img src=""images/causal/causal_series_12/causal_series_12_a.jpg"" style=""width: 300px; height: 300px;"" />
              </div>","null",""
"","","","","","html-keyboard-response","42","173640","0.0-42.0","9ED7BE2FCC394BB29160A2596491484F","1551defb-47e7-4224-8889-ec8b373bf968","7c9f784d-5202-4c36-a6e2-1fcf7bf41701","","null","<div style=""display: flex; justify-content: center; align-items: center;"">
                <img src=""images/causal/causal_series_12/causal_series_12_b.jpg"" style=""width: 300px; height: 300px;"" />
              </div>","null",""
"","","","","","html-keyboard-response","43","176655","0.0-43.0","9ED7BE2FCC394BB29160A2596491484F","1551defb-47e7-4224-8889-ec8b373bf968","7c9f784d-5202-4c36-a6e2-1fcf7bf41701","","null","<div style=""display: flex; justify-content: center; align-items: center;"">
                <img src=""images/causal/causal_series_12/causal_series_12_c.jpg"" style=""width: 300px; height: 300px;"" />
              </div>","null",""
"","","","","","html-button-response","44","177662","0.0-44.0","9ED7BE2FCC394BB29160A2596491484F","1551defb-47e7-4224-8889-ec8b373bf968","7c9f784d-5202-4c36-a6e2-1fcf7bf41701","","1006","
    <div style=""display: flex; justify-content: center; align-items: center;"">
      <img src=""images/blue_deck_1.png"" style=""width: 300px; height: 300px; margin-right: 10px;"" />
      <img src=""images/red_deck_2.png"" style=""width: 300px; height: 300px;"" />
    </div>","0","0"
"","","","","","html-keyboard-response","45","180669","0.0-45.0-0.0-0.0","9ED7BE2FCC394BB29160A2596491484F","1551defb-47e7-4224-8889-ec8b373bf968","7c9f784d-5202-4c36-a6e2-1fcf7bf41701","","null","<div style=""display: flex; justify-content: center; align-items: center;"">
                <img src=""images/causal/causal_series_12/causal_series_12_d.jpg"" style=""width: 300px; height: 300px;"" />
              </div>","null",""
"","","","","","html-keyboard-response","46","183670","0.0-46.0","9ED7BE2FCC394BB29160A2596491484F","1551defb-47e7-4224-8889-ec8b373bf968","7c9f784d-5202-4c36-a6e2-1fcf7bf41701","","null","<div style=""display: flex; justify-content: center; align-items: center;"">
                <img src=""images/other/blank.jpg"" style=""width: 300px; height: 300px;"" />
              </div>","null",""
"","","","","","html-keyboard-response","47","186684","0.0-47.0","9ED7BE2FCC394BB29160A2596491484F","1551defb-47e7-4224-8889-ec8b373bf968","7c9f784d-5202-4c36-a6e2-1fcf7bf41701","","null","<div style=""display: flex; justify-content: center; align-items: center;"">
                <img src=""images/causal/causal_series_17/causal_series_17_a.jpg"" style=""width: 300px; height: 300px;"" />
              </div>","null",""
"","","","","","html-keyboard-response","48","189699","0.0-48.0","9ED7BE2FCC394BB29160A2596491484F","1551defb-47e7-4224-8889-ec8b373bf968","7c9f784d-5202-4c36-a6e2-1fcf7bf41701","","null","<div style=""display: flex; justify-content: center; align-items: center;"">
                <img src=""images/causal/causal_series_17/causal_series_17_b.jpg"" style=""width: 300px; height: 300px;"" />
              </div>","null",""
"","","","","","html-keyboard-response","49","192714","0.0-49.0","9ED7BE2FCC394BB29160A2596491484F","1551defb-47e7-4224-8889-ec8b373bf968","7c9f784d-5202-4c36-a6e2-1fcf7bf41701","","null","<div style=""display: flex; justify-content: center; align-items: center;"">
                <img src=""images/causal/causal_series_17/causal_series_17_c.jpg"" style=""width: 300px; height: 300px;"" />
              </div>","null",""
"","","","","","html-button-response","50","206104","0.0-50.0","9ED7BE2FCC394BB29160A2596491484F","1551defb-47e7-4224-8889-ec8b373bf968","7c9f784d-5202-4c36-a6e2-1fcf7bf41701","","13390","
    <div style=""display: flex; justify-content: center; align-items: center;"">
      <img src=""images/blue_deck_1.png"" style=""width: 300px; height: 300px; margin-right: 10px;"" />
      <img src=""images/red_deck_2.png"" style=""width: 300px; height: 300px;"" />
    </div>","0","0"
"","","","","","html-keyboard-response","51","209107","0.0-51.0-0.0-0.0","9ED7BE2FCC394BB29160A2596491484F","1551defb-47e7-4224-8889-ec8b373bf968","7c9f784d-5202-4c36-a6e2-1fcf7bf41701","","null","<div style=""display: flex; justify-content: center; align-items: center;"">
                <img src=""images/causal/causal_series_17/causal_series_17_d.jpg"" style=""width: 300px; height: 300px;"" />
              </div>","null",""
"","","","","","html-keyboard-response","52","212121","0.0-52.0","9ED7BE2FCC394BB29160A2596491484F","1551defb-47e7-4224-8889-ec8b373bf968","7c9f784d-5202-4c36-a6e2-1fcf7bf41701","","null","<div style=""display: flex; justify-content: center; align-items: center;"">
                <img src=""images/other/blank.jpg"" style=""width: 300px; height: 300px;"" />
              </div>","null",""
"","","","","","html-keyboard-response","53","215122","0.0-53.0","9ED7BE2FCC394BB29160A2596491484F","1551defb-47e7-4224-8889-ec8b373bf968","7c9f784d-5202-4c36-a6e2-1fcf7bf41701","","null","<div style=""display: flex; justify-content: center; align-items: center;"">
                <img src=""images/causal/causal_series_3/causal_series_3_a.jpg"" style=""width: 300px; height: 300px;"" />
              </div>","null",""
"","","","","","html-keyboard-response","54","218135","0.0-54.0","9ED7BE2FCC394BB29160A2596491484F","1551defb-47e7-4224-8889-ec8b373bf968","7c9f784d-5202-4c36-a6e2-1fcf7bf41701","","null","<div style=""display: flex; justify-content: center; align-items: center;"">
                <img src=""images/causal/causal_series_3/causal_series_3_b.jpg"" style=""width: 300px; height: 300px;"" />
              </div>","null",""
"","","","","","html-keyboard-response","55","221150","0.0-55.0","9ED7BE2FCC394BB29160A2596491484F","1551defb-47e7-4224-8889-ec8b373bf968","7c9f784d-5202-4c36-a6e2-1fcf7bf41701","","null","<div style=""display: flex; justify-content: center; align-items: center;"">
                <img src=""images/causal/causal_series_3/causal_series_3_c.jpg"" style=""width: 300px; height: 300px;"" />
              </div>","null",""
"","","","","","html-button-response","56","236353","0.0-56.0","9ED7BE2FCC394BB29160A2596491484F","1551defb-47e7-4224-8889-ec8b373bf968","7c9f784d-5202-4c36-a6e2-1fcf7bf41701","","15202","
    <div style=""display: flex; justify-content: center; align-items: center;"">
      <img src=""images/blue_deck_1.png"" style=""width: 300px; height: 300px; margin-right: 10px;"" />
      <img src=""images/red_deck_2.png"" style=""width: 300px; height: 300px;"" />
    </div>","0","0"
"","","","","","html-keyboard-response","57","239361","0.0-57.0-0.0-0.0","9ED7BE2FCC394BB29160A2596491484F","1551defb-47e7-4224-8889-ec8b373bf968","7c9f784d-5202-4c36-a6e2-1fcf7bf41701","","null","<div style=""display: flex; justify-content: center; align-items: center;"">
                <img src=""images/causal/causal_series_3/causal_series_3_d.jpg"" style=""width: 300px; height: 300px;"" />
              </div>","null",""
"","","","","","html-keyboard-response","58","242376","0.0-58.0","9ED7BE2FCC394BB29160A2596491484F","1551defb-47e7-4224-8889-ec8b373bf968","7c9f784d-5202-4c36-a6e2-1fcf7bf41701","","null","<div style=""display: flex; justify-content: center; align-items: center;"">
                <img src=""images/other/blank.jpg"" style=""width: 300px; height: 300px;"" />
              </div>","null",""
"","","","","","html-keyboard-response","59","245377","0.0-59.0","9ED7BE2FCC394BB29160A2596491484F","1551defb-47e7-4224-8889-ec8b373bf968","7c9f784d-5202-4c36-a6e2-1fcf7bf41701","","null","<div style=""display: flex; justify-content: center; align-items: center;"">
                <img src=""images/causal/causal_series_10/causal_series_10_a.jpg"" style=""width: 300px; height: 300px;"" />
              </div>","null",""
"","","","","","html-keyboard-response","60","248391","0.0-60.0","9ED7BE2FCC394BB29160A2596491484F","1551defb-47e7-4224-8889-ec8b373bf968","7c9f784d-5202-4c36-a6e2-1fcf7bf41701","","null","<div style=""display: flex; justify-content: center; align-items: center;"">
                <img src=""images/causal/causal_series_10/causal_series_10_b.jpg"" style=""width: 300px; height: 300px;"" />
              </div>","null",""
"","","","","","html-keyboard-response","61","251406","0.0-61.0","9ED7BE2FCC394BB29160A2596491484F","1551defb-47e7-4224-8889-ec8b373bf968","7c9f784d-5202-4c36-a6e2-1fcf7bf41701","","null","<div style=""display: flex; justify-content: center; align-items: center;"">
                <img src=""images/causal/causal_series_10/causal_series_10_c.jpg"" style=""width: 300px; height: 300px;"" />
              </div>","null",""
"","","","","","html-button-response","62","267993","0.0-62.0","9ED7BE2FCC394BB29160A2596491484F","1551defb-47e7-4224-8889-ec8b373bf968","7c9f784d-5202-4c36-a6e2-1fcf7bf41701","","16587","
    <div style=""display: flex; justify-content: center; align-items: center;"">
      <img src=""images/blue_deck_1.png"" style=""width: 300px; height: 300px; margin-right: 10px;"" />
      <img src=""images/red_deck_2.png"" style=""width: 300px; height: 300px;"" />
    </div>","0","0"
"","","","","","html-keyboard-response","63","271000","0.0-63.0-0.0-0.0","9ED7BE2FCC394BB29160A2596491484F","1551defb-47e7-4224-8889-ec8b373bf968","7c9f784d-5202-4c36-a6e2-1fcf7bf41701","","null","<div style=""display: flex; justify-content: center; align-items: center;"">
                <img src=""images/causal/causal_series_10/causal_series_10_d.jpg"" style=""width: 300px; height: 300px;"" />
              </div>","null",""
"","","","","","html-keyboard-response","64","274016","0.0-64.0","9ED7BE2FCC394BB29160A2596491484F","1551defb-47e7-4224-8889-ec8b373bf968","7c9f784d-5202-4c36-a6e2-1fcf7bf41701","","null","<div style=""display: flex; justify-content: center; align-items: center;"">
                <img src=""images/other/blank.jpg"" style=""width: 300px; height: 300px;"" />
              </div>","null",""
"","","","","","html-keyboard-response","65","277031","0.0-65.0","9ED7BE2FCC394BB29160A2596491484F","1551defb-47e7-4224-8889-ec8b373bf968","7c9f784d-5202-4c36-a6e2-1fcf7bf41701","","null","<div style=""display: flex; justify-content: center; align-items: center;"">
                <img src=""images/causal/causal_series_18/causal_series_18_a.jpg"" style=""width: 300px; height: 300px;"" />
              </div>","null",""
"","","","","","html-keyboard-response","66","280045","0.0-66.0","9ED7BE2FCC394BB29160A2596491484F","1551defb-47e7-4224-8889-ec8b373bf968","7c9f784d-5202-4c36-a6e2-1fcf7bf41701","","null","<div style=""display: flex; justify-content: center; align-items: center;"">
                <img src=""images/causal/causal_series_18/causal_series_18_b.jpg"" style=""width: 300px; height: 300px;"" />
              </div>","null",""
"","","","","","html-keyboard-response","67","283060","0.0-67.0","9ED7BE2FCC394BB29160A2596491484F","1551defb-47e7-4224-8889-ec8b373bf968","7c9f784d-5202-4c36-a6e2-1fcf7bf41701","","null","<div style=""display: flex; justify-content: center; align-items: center;"">
                <img src=""images/causal/causal_series_18/causal_series_18_c.jpg"" style=""width: 300px; height: 300px;"" />
              </div>","null",""
"","","","","","html-button-response","68","288147","0.0-68.0","9ED7BE2FCC394BB29160A2596491484F","1551defb-47e7-4224-8889-ec8b373bf968","7c9f784d-5202-4c36-a6e2-1fcf7bf41701","","5087","
    <div style=""display: flex; justify-content: center; align-items: center;"">
      <img src=""images/blue_deck_1.png"" style=""width: 300px; height: 300px; margin-right: 10px;"" />
      <img src=""images/red_deck_2.png"" style=""width: 300px; height: 300px;"" />
    </div>","0","0"
"","","","","","html-keyboard-response","69","291149","0.0-69.0-0.0-0.0","9ED7BE2FCC394BB29160A2596491484F","1551defb-47e7-4224-8889-ec8b373bf968","7c9f784d-5202-4c36-a6e2-1fcf7bf41701","","null","<div style=""display: flex; justify-content: center; align-items: center;"">
                <img src=""images/causal/causal_series_18/causal_series_18_d.jpg"" style=""width: 300px; height: 300px;"" />
              </div>","null",""
"","","","","","html-keyboard-response","70","294162","0.0-70.0","9ED7BE2FCC394BB29160A2596491484F","1551defb-47e7-4224-8889-ec8b373bf968","7c9f784d-5202-4c36-a6e2-1fcf7bf41701","","null","<div style=""display: flex; justify-content: center; align-items: center;"">
                <img src=""images/other/blank.jpg"" style=""width: 300px; height: 300px;"" />
              </div>","null",""
"","","","","","html-keyboard-response","71","297177","0.0-71.0","9ED7BE2FCC394BB29160A2596491484F","1551defb-47e7-4224-8889-ec8b373bf968","7c9f784d-5202-4c36-a6e2-1fcf7bf41701","","null","<div style=""display: flex; justify-content: center; align-items: center;"">
                <img src=""images/causal/causal_series_1/causal_series_1_a.jpg"" style=""width: 300px; height: 300px;"" />
              </div>","null",""
"","","","","","html-keyboard-response","72","300192","0.0-72.0","9ED7BE2FCC394BB29160A2596491484F","1551defb-47e7-4224-8889-ec8b373bf968","7c9f784d-5202-4c36-a6e2-1fcf7bf41701","","null","<div style=""display: flex; justify-content: center; align-items: center;"">
                <img src=""images/causal/causal_series_1/causal_series_1_b.jpg"" style=""width: 300px; height: 300px;"" />
              </div>","null",""
"","","","","","html-keyboard-response","73","303207","0.0-73.0","9ED7BE2FCC394BB29160A2596491484F","1551defb-47e7-4224-8889-ec8b373bf968","7c9f784d-5202-4c36-a6e2-1fcf7bf41701","","null","<div style=""display: flex; justify-content: center; align-items: center;"">
                <img src=""images/causal/causal_series_1/causal_series_1_c.jpg"" style=""width: 300px; height: 300px;"" />
              </div>","null",""
"","","","","","html-button-response","74","339843","0.0-74.0","9ED7BE2FCC394BB29160A2596491484F","1551defb-47e7-4224-8889-ec8b373bf968","7c9f784d-5202-4c36-a6e2-1fcf7bf41701","","36635","
    <div style=""display: flex; justify-content: center; align-items: center;"">
      <img src=""images/blue_deck_1.png"" style=""width: 300px; height: 300px; margin-right: 10px;"" />
      <img src=""images/red_deck_2.png"" style=""width: 300px; height: 300px;"" />
    </div>","1","1"
"","","","","","html-keyboard-response","75","342849","0.0-75.0-1.0-0.0","9ED7BE2FCC394BB29160A2596491484F","1551defb-47e7-4224-8889-ec8b373bf968","7c9f784d-5202-4c36-a6e2-1fcf7bf41701","","null","<div style=""display: flex; justify-content: center; align-items: center;"">
                <img src=""images/semantic/semantic_series_18/semantic_series_18_d.jpg"" style=""width: 300px; height: 300px;"" />
              </div>","null",""
"","","","","","html-keyboard-response","76","345863","0.0-76.0","9ED7BE2FCC394BB29160A2596491484F","1551defb-47e7-4224-8889-ec8b373bf968","7c9f784d-5202-4c36-a6e2-1fcf7bf41701","","null","<div style=""display: flex; justify-content: center; align-items: center;"">
                <img src=""images/other/blank.jpg"" style=""width: 300px; height: 300px;"" />
              </div>","null",""
"","","","","","html-keyboard-response","77","348878","0.0-77.0","9ED7BE2FCC394BB29160A2596491484F","1551defb-47e7-4224-8889-ec8b373bf968","7c9f784d-5202-4c36-a6e2-1fcf7bf41701","","null","<div style=""display: flex; justify-content: center; align-items: center;"">
                <img src=""images/causal/causal_series_8/causal_series_8_a.jpg"" style=""width: 300px; height: 300px;"" />
              </div>","null",""
"","","","","","html-keyboard-response","78","351893","0.0-78.0","9ED7BE2FCC394BB29160A2596491484F","1551defb-47e7-4224-8889-ec8b373bf968","7c9f784d-5202-4c36-a6e2-1fcf7bf41701","","null","<div style=""display: flex; justify-content: center; align-items: center;"">
                <img src=""images/causal/causal_series_8/causal_series_8_b.jpg"" style=""width: 300px; height: 300px;"" />
              </div>","null",""
"","","","","","html-keyboard-response","79","354907","0.0-79.0","9ED7BE2FCC394BB29160A2596491484F","1551defb-47e7-4224-8889-ec8b373bf968","7c9f784d-5202-4c36-a6e2-1fcf7bf41701","","null","<div style=""display: flex; justify-content: center; align-items: center;"">
                <img src=""images/causal/causal_series_8/causal_series_8_c.jpg"" style=""width: 300px; height: 300px;"" />
              </div>","null",""
"","","","","","html-button-response","80","615898","0.0-80.0","9ED7BE2FCC394BB29160A2596491484F","1551defb-47e7-4224-8889-ec8b373bf968","7c9f784d-5202-4c36-a6e2-1fcf7bf41701","","260991","
    <div style=""display: flex; justify-content: center; align-items: center;"">
      <img src=""images/blue_deck_1.png"" style=""width: 300px; height: 300px; margin-right: 10px;"" />
      <img src=""images/red_deck_2.png"" style=""width: 300px; height: 300px;"" />
    </div>","0","0"
"","","","","","html-keyboard-response","81","618901","0.0-81.0-0.0-0.0","9ED7BE2FCC394BB29160A2596491484F","1551defb-47e7-4224-8889-ec8b373bf968","7c9f784d-5202-4c36-a6e2-1fcf7bf41701","","null","<div style=""display: flex; justify-content: center; align-items: center;"">
                <img src=""images/causal/causal_series_8/causal_series_8_d.jpg"" style=""width: 300px; height: 300px;"" />
              </div>","null",""
"","","","","","html-keyboard-response","82","621916","0.0-82.0","9ED7BE2FCC394BB29160A2596491484F","1551defb-47e7-4224-8889-ec8b373bf968","7c9f784d-5202-4c36-a6e2-1fcf7bf41701","","null","<div style=""display: flex; justify-content: center; align-items: center;"">
                <img src=""images/other/blank.jpg"" style=""width: 300px; height: 300px;"" />
              </div>","null",""
"","","","","","html-keyboard-response","83","624931","0.0-83.0","9ED7BE2FCC394BB29160A2596491484F","1551defb-47e7-4224-8889-ec8b373bf968","7c9f784d-5202-4c36-a6e2-1fcf7bf41701","","null","<div style=""display: flex; justify-content: center; align-items: center;"">
                <img src=""images/causal/causal_series_2/causal_series_2_a.jpg"" style=""width: 300px; height: 300px;"" />
              </div>","null",""
"","","","","","html-keyboard-response","84","627946","0.0-84.0","9ED7BE2FCC394BB29160A2596491484F","1551defb-47e7-4224-8889-ec8b373bf968","7c9f784d-5202-4c36-a6e2-1fcf7bf41701","","null","<div style=""display: flex; justify-content: center; align-items: center;"">
                <img src=""images/causal/causal_series_2/causal_series_2_b.jpg"" style=""width: 300px; height: 300px;"" />
              </div>","null",""
"","","","","","html-keyboard-response","85","630960","0.0-85.0","9ED7BE2FCC394BB29160A2596491484F","1551defb-47e7-4224-8889-ec8b373bf968","7c9f784d-5202-4c36-a6e2-1fcf7bf41701","","null","<div style=""display: flex; justify-content: center; align-items: center;"">
                <img src=""images/causal/causal_series_2/causal_series_2_c.jpg"" style=""width: 300px; height: 300px;"" />
              </div>","null",""
"","","","","","html-button-response","86","635198","0.0-86.0","9ED7BE2FCC394BB29160A2596491484F","1551defb-47e7-4224-8889-ec8b373bf968","7c9f784d-5202-4c36-a6e2-1fcf7bf41701","","4237","
    <div style=""display: flex; justify-content: center; align-items: center;"">
      <img src=""images/blue_deck_1.png"" style=""width: 300px; height: 300px; margin-right: 10px;"" />
      <img src=""images/red_deck_2.png"" style=""width: 300px; height: 300px;"" />
    </div>","0","0"
"","","","","","html-keyboard-response","87","638205","0.0-87.0-0.0-0.0","9ED7BE2FCC394BB29160A2596491484F","1551defb-47e7-4224-8889-ec8b373bf968","7c9f784d-5202-4c36-a6e2-1fcf7bf41701","","null","<div style=""display: flex; justify-content: center; align-items: center;"">
                <img src=""images/causal/causal_series_2/causal_series_2_d.jpg"" style=""width: 300px; height: 300px;"" />
              </div>","null",""
"","","","","","html-keyboard-response","88","641220","0.0-88.0","9ED7BE2FCC394BB29160A2596491484F","1551defb-47e7-4224-8889-ec8b373bf968","7c9f784d-5202-4c36-a6e2-1fcf7bf41701","","null","<div style=""display: flex; justify-content: center; align-items: center;"">
                <img src=""images/other/blank.jpg"" style=""width: 300px; height: 300px;"" />
              </div>","null",""
"","","","","","html-keyboard-response","89","644233","0.0-89.0","9ED7BE2FCC394BB29160A2596491484F","1551defb-47e7-4224-8889-ec8b373bf968","7c9f784d-5202-4c36-a6e2-1fcf7bf41701","","null","<div style=""display: flex; justify-content: center; align-items: center;"">
                <img src=""images/causal/causal_series_16/causal_series_16_a.jpg"" style=""width: 300px; height: 300px;"" />
              </div>","null",""
"","","","","","html-keyboard-response","90","647249","0.0-90.0","9ED7BE2FCC394BB29160A2596491484F","1551defb-47e7-4224-8889-ec8b373bf968","7c9f784d-5202-4c36-a6e2-1fcf7bf41701","","null","<div style=""display: flex; justify-content: center; align-items: center;"">
                <img src=""images/causal/causal_series_16/causal_series_16_b.jpg"" style=""width: 300px; height: 300px;"" />
              </div>","null",""
"","","","","","html-keyboard-response","91","650264","0.0-91.0","9ED7BE2FCC394BB29160A2596491484F","1551defb-47e7-4224-8889-ec8b373bf968","7c9f784d-5202-4c36-a6e2-1fcf7bf41701","","null","<div style=""display: flex; justify-content: center; align-items: center;"">
                <img src=""images/causal/causal_series_16/causal_series_16_c.jpg"" style=""width: 300px; height: 300px;"" />
              </div>","null",""
"","","","","","html-button-response","92","688295","0.0-92.0","9ED7BE2FCC394BB29160A2596491484F","1551defb-47e7-4224-8889-ec8b373bf968","7c9f784d-5202-4c36-a6e2-1fcf7bf41701","","38031","
    <div style=""display: flex; justify-content: center; align-items: center;"">
      <img src=""images/blue_deck_1.png"" style=""width: 300px; height: 300px; margin-right: 10px;"" />
      <img src=""images/red_deck_2.png"" style=""width: 300px; height: 300px;"" />
    </div>","0","0"
"","","","","","html-keyboard-response","93","691301","0.0-93.0-0.0-0.0","9ED7BE2FCC394BB29160A2596491484F","1551defb-47e7-4224-8889-ec8b373bf968","7c9f784d-5202-4c36-a6e2-1fcf7bf41701","","null","<div style=""display: flex; justify-content: center; align-items: center;"">
                <img src=""images/causal/causal_series_16/causal_series_16_d.jpg"" style=""width: 300px; height: 300px;"" />
              </div>","null",""
"","","","","","html-keyboard-response","94","694315","0.0-94.0","9ED7BE2FCC394BB29160A2596491484F","1551defb-47e7-4224-8889-ec8b373bf968","7c9f784d-5202-4c36-a6e2-1fcf7bf41701","","null","<div style=""display: flex; justify-content: center; align-items: center;"">
                <img src=""images/other/blank.jpg"" style=""width: 300px; height: 300px;"" />
              </div>","null",""
"","","","","","html-keyboard-response","95","697329","0.0-95.0","9ED7BE2FCC394BB29160A2596491484F","1551defb-47e7-4224-8889-ec8b373bf968","7c9f784d-5202-4c36-a6e2-1fcf7bf41701","","null","<div style=""display: flex; justify-content: center; align-items: center;"">
                <img src=""images/causal/causal_series_7/causal_series_7_a.jpg"" style=""width: 300px; height: 300px;"" />
              </div>","null",""
"","","","","","html-keyboard-response","96","700344","0.0-96.0","9ED7BE2FCC394BB29160A2596491484F","1551defb-47e7-4224-8889-ec8b373bf968","7c9f784d-5202-4c36-a6e2-1fcf7bf41701","","null","<div style=""display: flex; justify-content: center; align-items: center;"">
                <img src=""images/causal/causal_series_7/causal_series_7_b.jpg"" style=""width: 300px; height: 300px;"" />
              </div>","null",""
"","","","","","html-keyboard-response","97","703359","0.0-97.0","9ED7BE2FCC394BB29160A2596491484F","1551defb-47e7-4224-8889-ec8b373bf968","7c9f784d-5202-4c36-a6e2-1fcf7bf41701","","null","<div style=""display: flex; justify-content: center; align-items: center;"">
                <img src=""images/causal/causal_series_7/causal_series_7_c.jpg"" style=""width: 300px; height: 300px;"" />
              </div>","null",""
"","","","","","html-button-response","98","721566","0.0-98.0","9ED7BE2FCC394BB29160A2596491484F","1551defb-47e7-4224-8889-ec8b373bf968","7c9f784d-5202-4c36-a6e2-1fcf7bf41701","","18207","
    <div style=""display: flex; justify-content: center; align-items: center;"">
      <img src=""images/blue_deck_1.png"" style=""width: 300px; height: 300px; margin-right: 10px;"" />
      <img src=""images/red_deck_2.png"" style=""width: 300px; height: 300px;"" />
    </div>","0","0"
"","","","","","html-keyboard-response","99","724572","0.0-99.0-0.0-0.0","9ED7BE2FCC394BB29160A2596491484F","1551defb-47e7-4224-8889-ec8b373bf968","7c9f784d-5202-4c36-a6e2-1fcf7bf41701","","null","<div style=""display: flex; justify-content: center; align-items: center;"">
                <img src=""images/causal/causal_series_7/causal_series_7_d.jpg"" style=""width: 300px; height: 300px;"" />
              </div>","null",""
"","","","","","html-keyboard-response","100","727572","0.0-100.0","9ED7BE2FCC394BB29160A2596491484F","1551defb-47e7-4224-8889-ec8b373bf968","7c9f784d-5202-4c36-a6e2-1fcf7bf41701","","null","<div style=""display: flex; justify-content: center; align-items: center;"">
                <img src=""images/other/blank.jpg"" style=""width: 300px; height: 300px;"" />
              </div>","null",""
"","","","","","html-keyboard-response","101","730586","0.0-101.0","9ED7BE2FCC394BB29160A2596491484F","1551defb-47e7-4224-8889-ec8b373bf968","7c9f784d-5202-4c36-a6e2-1fcf7bf41701","","null","<div style=""display: flex; justify-content: center; align-items: center;"">
                <img src=""images/causal/causal_series_13/causal_series_13_a.jpg"" style=""width: 300px; height: 300px;"" />
              </div>","null",""
"","","","","","html-keyboard-response","102","733602","0.0-102.0","9ED7BE2FCC394BB29160A2596491484F","1551defb-47e7-4224-8889-ec8b373bf968","7c9f784d-5202-4c36-a6e2-1fcf7bf41701","","null","<div style=""display: flex; justify-content: center; align-items: center;"">
                <img src=""images/causal/causal_series_13/causal_series_13_b.jpg"" style=""width: 300px; height: 300px;"" />
              </div>","null",""
"","","","","","html-keyboard-response","103","736617","0.0-103.0","9ED7BE2FCC394BB29160A2596491484F","1551defb-47e7-4224-8889-ec8b373bf968","7c9f784d-5202-4c36-a6e2-1fcf7bf41701","","null","<div style=""display: flex; justify-content: center; align-items: center;"">
                <img src=""images/causal/causal_series_13/causal_series_13_c.jpg"" style=""width: 300px; height: 300px;"" />
              </div>","null",""
"","","","","","html-button-response","104","758437","0.0-104.0","9ED7BE2FCC394BB29160A2596491484F","1551defb-47e7-4224-8889-ec8b373bf968","7c9f784d-5202-4c36-a6e2-1fcf7bf41701","","21819","
    <div style=""display: flex; justify-content: center; align-items: center;"">
      <img src=""images/blue_deck_1.png"" style=""width: 300px; height: 300px; margin-right: 10px;"" />
      <img src=""images/red_deck_2.png"" style=""width: 300px; height: 300px;"" />
    </div>","1","1"
"","","","","","html-keyboard-response","105","761446","0.0-105.0-1.0-0.0","9ED7BE2FCC394BB29160A2596491484F","1551defb-47e7-4224-8889-ec8b373bf968","7c9f784d-5202-4c36-a6e2-1fcf7bf41701","","null","<div style=""display: flex; justify-content: center; align-items: center;"">
                <img src=""images/semantic/semantic_series_12/semantic_series_12_d.jpg"" style=""width: 300px; height: 300px;"" />
              </div>","null",""
"","","","","","html-keyboard-response","106","764447","0.0-106.0","9ED7BE2FCC394BB29160A2596491484F","1551defb-47e7-4224-8889-ec8b373bf968","7c9f784d-5202-4c36-a6e2-1fcf7bf41701","","null","<div style=""display: flex; justify-content: center; align-items: center;"">
                <img src=""images/other/blank.jpg"" style=""width: 300px; height: 300px;"" />
              </div>","null",""
"","","","","","html-keyboard-response","107","767461","0.0-107.0","9ED7BE2FCC394BB29160A2596491484F","1551defb-47e7-4224-8889-ec8b373bf968","7c9f784d-5202-4c36-a6e2-1fcf7bf41701","","null","<div style=""display: flex; justify-content: center; align-items: center;"">
                <img src=""images/causal/causal_series_6/causal_series_6_a.jpg"" style=""width: 300px; height: 300px;"" />
              </div>","null",""
"","","","","","html-keyboard-response","108","770475","0.0-108.0","9ED7BE2FCC394BB29160A2596491484F","1551defb-47e7-4224-8889-ec8b373bf968","7c9f784d-5202-4c36-a6e2-1fcf7bf41701","","null","<div style=""display: flex; justify-content: center; align-items: center;"">
                <img src=""images/causal/causal_series_6/causal_series_6_b.jpg"" style=""width: 300px; height: 300px;"" />
              </div>","null",""
"","","","","","html-keyboard-response","109","773489","0.0-109.0","9ED7BE2FCC394BB29160A2596491484F","1551defb-47e7-4224-8889-ec8b373bf968","7c9f784d-5202-4c36-a6e2-1fcf7bf41701","","null","<div style=""display: flex; justify-content: center; align-items: center;"">
                <img src=""images/causal/causal_series_6/causal_series_6_c.jpg"" style=""width: 300px; height: 300px;"" />
              </div>","null",""
"","","","","","html-button-response","110","774470","0.0-110.0","9ED7BE2FCC394BB29160A2596491484F","1551defb-47e7-4224-8889-ec8b373bf968","7c9f784d-5202-4c36-a6e2-1fcf7bf41701","","981","
    <div style=""display: flex; justify-content: center; align-items: center;"">
      <img src=""images/blue_deck_1.png"" style=""width: 300px; height: 300px; margin-right: 10px;"" />
      <img src=""images/red_deck_2.png"" style=""width: 300px; height: 300px;"" />
    </div>","1","1"
"","","","","","html-keyboard-response","111","777474","0.0-111.0-1.0-0.0","9ED7BE2FCC394BB29160A2596491484F","1551defb-47e7-4224-8889-ec8b373bf968","7c9f784d-5202-4c36-a6e2-1fcf7bf41701","","null","<div style=""display: flex; justify-content: center; align-items: center;"">
                <img src=""images/semantic/semantic_series_5/semantic_series_5_d.jpg"" style=""width: 300px; height: 300px;"" />
              </div>","null",""
"","","","","","html-keyboard-response","112","780487","0.0-112.0","9ED7BE2FCC394BB29160A2596491484F","1551defb-47e7-4224-8889-ec8b373bf968","7c9f784d-5202-4c36-a6e2-1fcf7bf41701","","null","<div style=""display: flex; justify-content: center; align-items: center;"">
                <img src=""images/other/blank.jpg"" style=""width: 300px; height: 300px;"" />
              </div>","null",""
"","","","","","survey-text","113","824643","0.0-113.0","9ED7BE2FCC394BB29160A2596491484F","1551defb-47e7-4224-8889-ec8b373bf968","7c9f784d-5202-4c36-a6e2-1fcf7bf41701","","44154","","{""Q0"":""one of them describes a story and the other is images""}",""
"","","","","","survey-text","114","835121","0.0-114.0","9ED7BE2FCC394BB29160A2596491484F","1551defb-47e7-4224-8889-ec8b373bf968","7c9f784d-5202-4c36-a6e2-1fcf7bf41701","","10476","","{""Q0"":""neither were really interesting tbh""}",""
"","","","","","html-button-response","115","850139","0.0-115.0","9ED7BE2FCC394BB29160A2596491484F","1551defb-47e7-4224-8889-ec8b373bf968","7c9f784d-5202-4c36-a6e2-1fcf7bf41701","","15018","Which color deck does the fourth image continue the story from the series?","1",""
"","","","","","html-button-response","116","853690","0.0-116.0","9ED7BE2FCC394BB29160A2596491484F","1551defb-47e7-4224-8889-ec8b373bf968","7c9f784d-5202-4c36-a6e2-1fcf7bf41701","","3551","Which color deck does the fourth image not follow the story from the series?","0",""
"","","","","","survey-text","117","857424","0.0-117.0","9ED7BE2FCC394BB29160A2596491484F","1551defb-47e7-4224-8889-ec8b373bf968","7c9f784d-5202-4c36-a6e2-1fcf7bf41701","","3733","","{""Q0"":""male"",""Q1"":""29""}",""
"","","","","","instructions","118","861267","0.0-118.0","9ED7BE2FCC394BB29160A2596491484F","1551defb-47e7-4224-8889-ec8b373bf968","7c9f784d-5202-4c36-a6e2-1fcf7bf41701","[{""page_index"":0,""viewing_time"":3842}]","3842","","",""
