"success","timeout","failed_images","failed_audio","failed_video","trial_type","trial_index","time_elapsed","internal_node_id","subject_id","study_id","session_id","view_history","rt","stimulus","response","choice"
"true","false","[]","[]","[]","preload","0","29909","0.0-0.0","84B6045F8B95403DB31C248F3275D5B2","4d999bbf-e005-4d25-8ce3-696e7fa20727","5479079d-2186-49b2-89e2-e3afab6abcc2","","","","",""
"","","","","","instructions","1","33739","0.0-1.0","84B6045F8B95403DB31C248F3275D5B2","4d999bbf-e005-4d25-8ce3-696e7fa20727","5479079d-2186-49b2-89e2-e3afab6abcc2","[{""page_index"":0,""viewing_time"":3830}]","3830","","",""
"","","","","","instructions","2","105775","0.0-2.0","84B6045F8B95403DB31C248F3275D5B2","4d999bbf-e005-4d25-8ce3-696e7fa20727","5479079d-2186-49b2-89e2-e3afab6abcc2","[{""page_index"":0,""viewing_time"":72035}]","72035","","",""
"true","","","","","fullscreen","3","116668","0.0-3.0","84B6045F8B95403DB31C248F3275D5B2","4d999bbf-e005-4d25-8ce3-696e7fa20727","5479079d-2186-49b2-89e2-e3afab6abcc2","","9885","","",""
"","","","","","instructions","4","145689","0.0-4.0","84B6045F8B95403DB31C248F3275D5B2","4d999bbf-e005-4d25-8ce3-696e7fa20727","5479079d-2186-49b2-89e2-e3afab6abcc2","[{""page_index"":0,""viewing_time"":29019}]","29019","","",""
"","","","","","html-keyboard-response","5","148701","0.0-5.0","84B6045F8B95403DB31C248F3275D5B2","4d999bbf-e005-4d25-8ce3-696e7fa20727","5479079d-2186-49b2-89e2-e3afab6abcc2","","null","<div style=""display: flex; justify-content: center; align-items: center;"">
                <img src=""images/causal/causal_series_14/causal_series_14_a.jpg"" style=""width: 300px; height: 300px;"" />
              </div>","null",""
"","","","","","html-keyboard-response","6","151704","0.0-6.0","84B6045F8B95403DB31C248F3275D5B2","4d999bbf-e005-4d25-8ce3-696e7fa20727","5479079d-2186-49b2-89e2-e3afab6abcc2","","null","<div style=""display: flex; justify-content: center; align-items: center;"">
                <img src=""images/causal/causal_series_14/causal_series_14_b.jpg"" style=""width: 300px; height: 300px;"" />
              </div>","null",""
"","","","","","html-keyboard-response","7","154718","0.0-7.0","84B6045F8B95403DB31C248F3275D5B2","4d999bbf-e005-4d25-8ce3-696e7fa20727","5479079d-2186-49b2-89e2-e3afab6abcc2","","null","<div style=""display: flex; justify-content: center; align-items: center;"">
                <img src=""images/causal/causal_series_14/causal_series_14_c.jpg"" style=""width: 300px; height: 300px;"" />
              </div>","null",""
"","","","","","html-button-response","8","158314","0.0-8.0","84B6045F8B95403DB31C248F3275D5B2","4d999bbf-e005-4d25-8ce3-696e7fa20727","5479079d-2186-49b2-89e2-e3afab6abcc2","","3592","
    <div style=""display: flex; justify-content: center; align-items: center;"">
      <img src=""images/blue_deck_1.png"" style=""width: 300px; height: 300px; margin-right: 10px;"" />
      <img src=""images/red_deck_2.png"" style=""width: 300px; height: 300px;"" />
    </div>","1","1"
"","","","","","html-keyboard-response","9","161332","0.0-9.0-1.0-0.0","84B6045F8B95403DB31C248F3275D5B2","4d999bbf-e005-4d25-8ce3-696e7fa20727","5479079d-2186-49b2-89e2-e3afab6abcc2","","null","<div style=""display: flex; justify-content: center; align-items: center;"">
                <img src=""images/semantic/semantic_series_14/semantic_series_14_d.jpg"" style=""width: 300px; height: 300px;"" />
              </div>","null",""
"","","","","","html-keyboard-response","10","164341","0.0-10.0","84B6045F8B95403DB31C248F3275D5B2","4d999bbf-e005-4d25-8ce3-696e7fa20727","5479079d-2186-49b2-89e2-e3afab6abcc2","","null","<div style=""display: flex; justify-content: center; align-items: center;"">
                <img src=""images/other/blank.jpg"" style=""width: 300px; height: 300px;"" />
              </div>","null",""
"","","","","","html-keyboard-response","11","167345","0.0-11.0","84B6045F8B95403DB31C248F3275D5B2","4d999bbf-e005-4d25-8ce3-696e7fa20727","5479079d-2186-49b2-89e2-e3afab6abcc2","","null","<div style=""display: flex; justify-content: center; align-items: center;"">
                <img src=""images/causal/causal_series_5/causal_series_5_a.jpg"" style=""width: 300px; height: 300px;"" />
              </div>","null",""
"","","","","","html-keyboard-response","12","170352","0.0-12.0","84B6045F8B95403DB31C248F3275D5B2","4d999bbf-e005-4d25-8ce3-696e7fa20727","5479079d-2186-49b2-89e2-e3afab6abcc2","","null","<div style=""display: flex; justify-content: center; align-items: center;"">
                <img src=""images/causal/causal_series_5/causal_series_5_b.jpg"" style=""width: 300px; height: 300px;"" />
              </div>","null",""
"","","","","","html-keyboard-response","13","173354","0.0-13.0","84B6045F8B95403DB31C248F3275D5B2","4d999bbf-e005-4d25-8ce3-696e7fa20727","5479079d-2186-49b2-89e2-e3afab6abcc2","","null","<div style=""display: flex; justify-content: center; align-items: center;"">
                <img src=""images/causal/causal_series_5/causal_series_5_c.jpg"" style=""width: 300px; height: 300px;"" />
              </div>","null",""
"","","","","","html-button-response","14","174861","0.0-14.0","84B6045F8B95403DB31C248F3275D5B2","4d999bbf-e005-4d25-8ce3-696e7fa20727","5479079d-2186-49b2-89e2-e3afab6abcc2","","1504","
    <div style=""display: flex; justify-content: center; align-items: center;"">
      <img src=""images/blue_deck_1.png"" style=""width: 300px; height: 300px; margin-right: 10px;"" />
      <img src=""images/red_deck_2.png"" style=""width: 300px; height: 300px;"" />
    </div>","0","0"
"","","","","","html-keyboard-response","15","177876","0.0-15.0-0.0-0.0","84B6045F8B95403DB31C248F3275D5B2","4d999bbf-e005-4d25-8ce3-696e7fa20727","5479079d-2186-49b2-89e2-e3afab6abcc2","","null","<div style=""display: flex; justify-content: center; align-items: center;"">
                <img src=""images/causal/causal_series_5/causal_series_5_d.jpg"" style=""width: 300px; height: 300px;"" />
              </div>","null",""
"","","","","","html-keyboard-response","16","180891","0.0-16.0","84B6045F8B95403DB31C248F3275D5B2","4d999bbf-e005-4d25-8ce3-696e7fa20727","5479079d-2186-49b2-89e2-e3afab6abcc2","","null","<div style=""display: flex; justify-content: center; align-items: center;"">
                <img src=""images/other/blank.jpg"" style=""width: 300px; height: 300px;"" />
              </div>","null",""
"","","","","","html-keyboard-response","17","183897","0.0-17.0","84B6045F8B95403DB31C248F3275D5B2","4d999bbf-e005-4d25-8ce3-696e7fa20727","5479079d-2186-49b2-89e2-e3afab6abcc2","","null","<div style=""display: flex; justify-content: center; align-items: center;"">
                <img src=""images/causal/causal_series_7/causal_series_7_a.jpg"" style=""width: 300px; height: 300px;"" />
              </div>","null",""
"","","","","","html-keyboard-response","18","186908","0.0-18.0","84B6045F8B95403DB31C248F3275D5B2","4d999bbf-e005-4d25-8ce3-696e7fa20727","5479079d-2186-49b2-89e2-e3afab6abcc2","","null","<div style=""display: flex; justify-content: center; align-items: center;"">
                <img src=""images/causal/causal_series_7/causal_series_7_b.jpg"" style=""width: 300px; height: 300px;"" />
              </div>","null",""
"","","","","","html-keyboard-response","19","189915","0.0-19.0","84B6045F8B95403DB31C248F3275D5B2","4d999bbf-e005-4d25-8ce3-696e7fa20727","5479079d-2186-49b2-89e2-e3afab6abcc2","","null","<div style=""display: flex; justify-content: center; align-items: center;"">
                <img src=""images/causal/causal_series_7/causal_series_7_c.jpg"" style=""width: 300px; height: 300px;"" />
              </div>","null",""
"","","","","","html-button-response","20","191004","0.0-20.0","84B6045F8B95403DB31C248F3275D5B2","4d999bbf-e005-4d25-8ce3-696e7fa20727","5479079d-2186-49b2-89e2-e3afab6abcc2","","1087","
    <div style=""display: flex; justify-content: center; align-items: center;"">
      <img src=""images/blue_deck_1.png"" style=""width: 300px; height: 300px; margin-right: 10px;"" />
      <img src=""images/red_deck_2.png"" style=""width: 300px; height: 300px;"" />
    </div>","0","0"
"","","","","","html-keyboard-response","21","194010","0.0-21.0-0.0-0.0","84B6045F8B95403DB31C248F3275D5B2","4d999bbf-e005-4d25-8ce3-696e7fa20727","5479079d-2186-49b2-89e2-e3afab6abcc2","","null","<div style=""display: flex; justify-content: center; align-items: center;"">
                <img src=""images/causal/causal_series_7/causal_series_7_d.jpg"" style=""width: 300px; height: 300px;"" />
              </div>","null",""
"","","","","","html-keyboard-response","22","197016","0.0-22.0","84B6045F8B95403DB31C248F3275D5B2","4d999bbf-e005-4d25-8ce3-696e7fa20727","5479079d-2186-49b2-89e2-e3afab6abcc2","","null","<div style=""display: flex; justify-content: center; align-items: center;"">
                <img src=""images/other/blank.jpg"" style=""width: 300px; height: 300px;"" />
              </div>","null",""
"","","","","","html-keyboard-response","23","200022","0.0-23.0","84B6045F8B95403DB31C248F3275D5B2","4d999bbf-e005-4d25-8ce3-696e7fa20727","5479079d-2186-49b2-89e2-e3afab6abcc2","","null","<div style=""display: flex; justify-content: center; align-items: center;"">
                <img src=""images/causal/causal_series_13/causal_series_13_a.jpg"" style=""width: 300px; height: 300px;"" />
              </div>","null",""
"","","","","","html-keyboard-response","24","203024","0.0-24.0","84B6045F8B95403DB31C248F3275D5B2","4d999bbf-e005-4d25-8ce3-696e7fa20727","5479079d-2186-49b2-89e2-e3afab6abcc2","","null","<div style=""display: flex; justify-content: center; align-items: center;"">
                <img src=""images/causal/causal_series_13/causal_series_13_b.jpg"" style=""width: 300px; height: 300px;"" />
              </div>","null",""
"","","","","","html-keyboard-response","25","206033","0.0-25.0","84B6045F8B95403DB31C248F3275D5B2","4d999bbf-e005-4d25-8ce3-696e7fa20727","5479079d-2186-49b2-89e2-e3afab6abcc2","","null","<div style=""display: flex; justify-content: center; align-items: center;"">
                <img src=""images/causal/causal_series_13/causal_series_13_c.jpg"" style=""width: 300px; height: 300px;"" />
              </div>","null",""
"","","","","","html-button-response","26","207340","0.0-26.0","84B6045F8B95403DB31C248F3275D5B2","4d999bbf-e005-4d25-8ce3-696e7fa20727","5479079d-2186-49b2-89e2-e3afab6abcc2","","1304","
    <div style=""display: flex; justify-content: center; align-items: center;"">
      <img src=""images/blue_deck_1.png"" style=""width: 300px; height: 300px; margin-right: 10px;"" />
      <img src=""images/red_deck_2.png"" style=""width: 300px; height: 300px;"" />
    </div>","1","1"
"","","","","","html-keyboard-response","27","210346","0.0-27.0-1.0-0.0","84B6045F8B95403DB31C248F3275D5B2","4d999bbf-e005-4d25-8ce3-696e7fa20727","5479079d-2186-49b2-89e2-e3afab6abcc2","","null","<div style=""display: flex; justify-content: center; align-items: center;"">
                <img src=""images/semantic/semantic_series_13/semantic_series_13_d.jpg"" style=""width: 300px; height: 300px;"" />
              </div>","null",""
"","","","","","html-keyboard-response","28","213348","0.0-28.0","84B6045F8B95403DB31C248F3275D5B2","4d999bbf-e005-4d25-8ce3-696e7fa20727","5479079d-2186-49b2-89e2-e3afab6abcc2","","null","<div style=""display: flex; justify-content: center; align-items: center;"">
                <img src=""images/other/blank.jpg"" style=""width: 300px; height: 300px;"" />
              </div>","null",""
"","","","","","html-keyboard-response","29","216351","0.0-29.0","84B6045F8B95403DB31C248F3275D5B2","4d999bbf-e005-4d25-8ce3-696e7fa20727","5479079d-2186-49b2-89e2-e3afab6abcc2","","null","<div style=""display: flex; justify-content: center; align-items: center;"">
                <img src=""images/causal/causal_series_15/causal_series_15_a.jpg"" style=""width: 300px; height: 300px;"" />
              </div>","null",""
"","","","","","html-keyboard-response","30","219361","0.0-30.0","84B6045F8B95403DB31C248F3275D5B2","4d999bbf-e005-4d25-8ce3-696e7fa20727","5479079d-2186-49b2-89e2-e3afab6abcc2","","null","<div style=""display: flex; justify-content: center; align-items: center;"">
                <img src=""images/causal/causal_series_15/causal_series_15_b.jpg"" style=""width: 300px; height: 300px;"" />
              </div>","null",""
"","","","","","html-keyboard-response","31","222377","0.0-31.0","84B6045F8B95403DB31C248F3275D5B2","4d999bbf-e005-4d25-8ce3-696e7fa20727","5479079d-2186-49b2-89e2-e3afab6abcc2","","null","<div style=""display: flex; justify-content: center; align-items: center;"">
                <img src=""images/causal/causal_series_15/causal_series_15_c.jpg"" style=""width: 300px; height: 300px;"" />
              </div>","null",""
"","","","","","html-button-response","32","223377","0.0-32.0","84B6045F8B95403DB31C248F3275D5B2","4d999bbf-e005-4d25-8ce3-696e7fa20727","5479079d-2186-49b2-89e2-e3afab6abcc2","","998","
    <div style=""display: flex; justify-content: center; align-items: center;"">
      <img src=""images/blue_deck_1.png"" style=""width: 300px; height: 300px; margin-right: 10px;"" />
      <img src=""images/red_deck_2.png"" style=""width: 300px; height: 300px;"" />
    </div>","1","1"
"","","","","","html-keyboard-response","33","226392","0.0-33.0-1.0-0.0","84B6045F8B95403DB31C248F3275D5B2","4d999bbf-e005-4d25-8ce3-696e7fa20727","5479079d-2186-49b2-89e2-e3afab6abcc2","","null","<div style=""display: flex; justify-content: center; align-items: center;"">
                <img src=""images/semantic/semantic_series_15/semantic_series_15_d.jpg"" style=""width: 300px; height: 300px;"" />
              </div>","null",""
"","","","","","html-keyboard-response","34","229409","0.0-34.0","84B6045F8B95403DB31C248F3275D5B2","4d999bbf-e005-4d25-8ce3-696e7fa20727","5479079d-2186-49b2-89e2-e3afab6abcc2","","null","<div style=""display: flex; justify-content: center; align-items: center;"">
                <img src=""images/other/blank.jpg"" style=""width: 300px; height: 300px;"" />
              </div>","null",""
"","","","","","html-keyboard-response","35","232424","0.0-35.0","84B6045F8B95403DB31C248F3275D5B2","4d999bbf-e005-4d25-8ce3-696e7fa20727","5479079d-2186-49b2-89e2-e3afab6abcc2","","null","<div style=""display: flex; justify-content: center; align-items: center;"">
                <img src=""images/causal/causal_series_17/causal_series_17_a.jpg"" style=""width: 300px; height: 300px;"" />
              </div>","null",""
"","","","","","html-keyboard-response","36","235440","0.0-36.0","84B6045F8B95403DB31C248F3275D5B2","4d999bbf-e005-4d25-8ce3-696e7fa20727","5479079d-2186-49b2-89e2-e3afab6abcc2","","null","<div style=""display: flex; justify-content: center; align-items: center;"">
                <img src=""images/causal/causal_series_17/causal_series_17_b.jpg"" style=""width: 300px; height: 300px;"" />
              </div>","null",""
"","","","","","html-keyboard-response","37","238443","0.0-37.0","84B6045F8B95403DB31C248F3275D5B2","4d999bbf-e005-4d25-8ce3-696e7fa20727","5479079d-2186-49b2-89e2-e3afab6abcc2","","null","<div style=""display: flex; justify-content: center; align-items: center;"">
                <img src=""images/causal/causal_series_17/causal_series_17_c.jpg"" style=""width: 300px; height: 300px;"" />
              </div>","null",""
"","","","","","html-button-response","38","239278","0.0-38.0","84B6045F8B95403DB31C248F3275D5B2","4d999bbf-e005-4d25-8ce3-696e7fa20727","5479079d-2186-49b2-89e2-e3afab6abcc2","","832","
    <div style=""display: flex; justify-content: center; align-items: center;"">
      <img src=""images/blue_deck_1.png"" style=""width: 300px; height: 300px; margin-right: 10px;"" />
      <img src=""images/red_deck_2.png"" style=""width: 300px; height: 300px;"" />
    </div>","1","1"
"","","","","","html-keyboard-response","39","242294","0.0-39.0-1.0-0.0","84B6045F8B95403DB31C248F3275D5B2","4d999bbf-e005-4d25-8ce3-696e7fa20727","5479079d-2186-49b2-89e2-e3afab6abcc2","","null","<div style=""display: flex; justify-content: center; align-items: center;"">
                <img src=""images/semantic/semantic_series_17/semantic_series_17_d.jpg"" style=""width: 300px; height: 300px;"" />
              </div>","null",""
"","","","","","html-keyboard-response","40","245296","0.0-40.0","84B6045F8B95403DB31C248F3275D5B2","4d999bbf-e005-4d25-8ce3-696e7fa20727","5479079d-2186-49b2-89e2-e3afab6abcc2","","null","<div style=""display: flex; justify-content: center; align-items: center;"">
                <img src=""images/other/blank.jpg"" style=""width: 300px; height: 300px;"" />
              </div>","null",""
"","","","","","html-keyboard-response","41","248302","0.0-41.0","84B6045F8B95403DB31C248F3275D5B2","4d999bbf-e005-4d25-8ce3-696e7fa20727","5479079d-2186-49b2-89e2-e3afab6abcc2","","null","<div style=""display: flex; justify-content: center; align-items: center;"">
                <img src=""images/causal/causal_series_11/causal_series_11_a.jpg"" style=""width: 300px; height: 300px;"" />
              </div>","null",""
"","","","","","html-keyboard-response","42","251305","0.0-42.0","84B6045F8B95403DB31C248F3275D5B2","4d999bbf-e005-4d25-8ce3-696e7fa20727","5479079d-2186-49b2-89e2-e3afab6abcc2","","null","<div style=""display: flex; justify-content: center; align-items: center;"">
                <img src=""images/causal/causal_series_11/causal_series_11_b.jpg"" style=""width: 300px; height: 300px;"" />
              </div>","null",""
"","","","","","html-keyboard-response","43","254307","0.0-43.0","84B6045F8B95403DB31C248F3275D5B2","4d999bbf-e005-4d25-8ce3-696e7fa20727","5479079d-2186-49b2-89e2-e3afab6abcc2","","null","<div style=""display: flex; justify-content: center; align-items: center;"">
                <img src=""images/causal/causal_series_11/causal_series_11_c.jpg"" style=""width: 300px; height: 300px;"" />
              </div>","null",""
"","","","","","html-button-response","44","255455","0.0-44.0","84B6045F8B95403DB31C248F3275D5B2","4d999bbf-e005-4d25-8ce3-696e7fa20727","5479079d-2186-49b2-89e2-e3afab6abcc2","","1145","
    <div style=""display: flex; justify-content: center; align-items: center;"">
      <img src=""images/blue_deck_1.png"" style=""width: 300px; height: 300px; margin-right: 10px;"" />
      <img src=""images/red_deck_2.png"" style=""width: 300px; height: 300px;"" />
    </div>","0","0"
"","","","","","html-keyboard-response","45","258461","0.0-45.0-0.0-0.0","84B6045F8B95403DB31C248F3275D5B2","4d999bbf-e005-4d25-8ce3-696e7fa20727","5479079d-2186-49b2-89e2-e3afab6abcc2","","null","<div style=""display: flex; justify-content: center; align-items: center;"">
                <img src=""images/causal/causal_series_11/causal_series_11_d.jpg"" style=""width: 300px; height: 300px;"" />
              </div>","null",""
"","","","","","html-keyboard-response","46","261476","0.0-46.0","84B6045F8B95403DB31C248F3275D5B2","4d999bbf-e005-4d25-8ce3-696e7fa20727","5479079d-2186-49b2-89e2-e3afab6abcc2","","null","<div style=""display: flex; justify-content: center; align-items: center;"">
                <img src=""images/other/blank.jpg"" style=""width: 300px; height: 300px;"" />
              </div>","null",""
"","","","","","html-keyboard-response","47","264492","0.0-47.0","84B6045F8B95403DB31C248F3275D5B2","4d999bbf-e005-4d25-8ce3-696e7fa20727","5479079d-2186-49b2-89e2-e3afab6abcc2","","null","<div style=""display: flex; justify-content: center; align-items: center;"">
                <img src=""images/causal/causal_series_2/causal_series_2_a.jpg"" style=""width: 300px; height: 300px;"" />
              </div>","null",""
"","","","","","html-keyboard-response","48","267500","0.0-48.0","84B6045F8B95403DB31C248F3275D5B2","4d999bbf-e005-4d25-8ce3-696e7fa20727","5479079d-2186-49b2-89e2-e3afab6abcc2","","null","<div style=""display: flex; justify-content: center; align-items: center;"">
                <img src=""images/causal/causal_series_2/causal_series_2_b.jpg"" style=""width: 300px; height: 300px;"" />
              </div>","null",""
"","","","","","html-keyboard-response","49","270510","0.0-49.0","84B6045F8B95403DB31C248F3275D5B2","4d999bbf-e005-4d25-8ce3-696e7fa20727","5479079d-2186-49b2-89e2-e3afab6abcc2","","null","<div style=""display: flex; justify-content: center; align-items: center;"">
                <img src=""images/causal/causal_series_2/causal_series_2_c.jpg"" style=""width: 300px; height: 300px;"" />
              </div>","null",""
"","","","","","html-button-response","50","271275","0.0-50.0","84B6045F8B95403DB31C248F3275D5B2","4d999bbf-e005-4d25-8ce3-696e7fa20727","5479079d-2186-49b2-89e2-e3afab6abcc2","","763","
    <div style=""display: flex; justify-content: center; align-items: center;"">
      <img src=""images/blue_deck_1.png"" style=""width: 300px; height: 300px; margin-right: 10px;"" />
      <img src=""images/red_deck_2.png"" style=""width: 300px; height: 300px;"" />
    </div>","0","0"
"","","","","","html-keyboard-response","51","274281","0.0-51.0-0.0-0.0","84B6045F8B95403DB31C248F3275D5B2","4d999bbf-e005-4d25-8ce3-696e7fa20727","5479079d-2186-49b2-89e2-e3afab6abcc2","","null","<div style=""display: flex; justify-content: center; align-items: center;"">
                <img src=""images/causal/causal_series_2/causal_series_2_d.jpg"" style=""width: 300px; height: 300px;"" />
              </div>","null",""
"","","","","","html-keyboard-response","52","277283","0.0-52.0","84B6045F8B95403DB31C248F3275D5B2","4d999bbf-e005-4d25-8ce3-696e7fa20727","5479079d-2186-49b2-89e2-e3afab6abcc2","","null","<div style=""display: flex; justify-content: center; align-items: center;"">
                <img src=""images/other/blank.jpg"" style=""width: 300px; height: 300px;"" />
              </div>","null",""
"","","","","","html-keyboard-response","53","280291","0.0-53.0","84B6045F8B95403DB31C248F3275D5B2","4d999bbf-e005-4d25-8ce3-696e7fa20727","5479079d-2186-49b2-89e2-e3afab6abcc2","","null","<div style=""display: flex; justify-content: center; align-items: center;"">
                <img src=""images/causal/causal_series_16/causal_series_16_a.jpg"" style=""width: 300px; height: 300px;"" />
              </div>","null",""
"","","","","","html-keyboard-response","54","283299","0.0-54.0","84B6045F8B95403DB31C248F3275D5B2","4d999bbf-e005-4d25-8ce3-696e7fa20727","5479079d-2186-49b2-89e2-e3afab6abcc2","","null","<div style=""display: flex; justify-content: center; align-items: center;"">
                <img src=""images/causal/causal_series_16/causal_series_16_b.jpg"" style=""width: 300px; height: 300px;"" />
              </div>","null",""
"","","","","","html-keyboard-response","55","286316","0.0-55.0","84B6045F8B95403DB31C248F3275D5B2","4d999bbf-e005-4d25-8ce3-696e7fa20727","5479079d-2186-49b2-89e2-e3afab6abcc2","","null","<div style=""display: flex; justify-content: center; align-items: center;"">
                <img src=""images/causal/causal_series_16/causal_series_16_c.jpg"" style=""width: 300px; height: 300px;"" />
              </div>","null",""
"","","","","","html-button-response","56","286996","0.0-56.0","84B6045F8B95403DB31C248F3275D5B2","4d999bbf-e005-4d25-8ce3-696e7fa20727","5479079d-2186-49b2-89e2-e3afab6abcc2","","678","
    <div style=""display: flex; justify-content: center; align-items: center;"">
      <img src=""images/blue_deck_1.png"" style=""width: 300px; height: 300px; margin-right: 10px;"" />
      <img src=""images/red_deck_2.png"" style=""width: 300px; height: 300px;"" />
    </div>","0","0"
"","","","","","html-keyboard-response","57","290003","0.0-57.0-0.0-0.0","84B6045F8B95403DB31C248F3275D5B2","4d999bbf-e005-4d25-8ce3-696e7fa20727","5479079d-2186-49b2-89e2-e3afab6abcc2","","null","<div style=""display: flex; justify-content: center; align-items: center;"">
                <img src=""images/causal/causal_series_16/causal_series_16_d.jpg"" style=""width: 300px; height: 300px;"" />
              </div>","null",""
"","","","","","html-keyboard-response","58","293015","0.0-58.0","84B6045F8B95403DB31C248F3275D5B2","4d999bbf-e005-4d25-8ce3-696e7fa20727","5479079d-2186-49b2-89e2-e3afab6abcc2","","null","<div style=""display: flex; justify-content: center; align-items: center;"">
                <img src=""images/other/blank.jpg"" style=""width: 300px; height: 300px;"" />
              </div>","null",""
"","","","","","html-keyboard-response","59","296033","0.0-59.0","84B6045F8B95403DB31C248F3275D5B2","4d999bbf-e005-4d25-8ce3-696e7fa20727","5479079d-2186-49b2-89e2-e3afab6abcc2","","null","<div style=""display: flex; justify-content: center; align-items: center;"">
                <img src=""images/causal/causal_series_6/causal_series_6_a.jpg"" style=""width: 300px; height: 300px;"" />
              </div>","null",""
"","","","","","html-keyboard-response","60","299039","0.0-60.0","84B6045F8B95403DB31C248F3275D5B2","4d999bbf-e005-4d25-8ce3-696e7fa20727","5479079d-2186-49b2-89e2-e3afab6abcc2","","null","<div style=""display: flex; justify-content: center; align-items: center;"">
                <img src=""images/causal/causal_series_6/causal_series_6_b.jpg"" style=""width: 300px; height: 300px;"" />
              </div>","null",""
"","","","","","html-keyboard-response","61","302049","0.0-61.0","84B6045F8B95403DB31C248F3275D5B2","4d999bbf-e005-4d25-8ce3-696e7fa20727","5479079d-2186-49b2-89e2-e3afab6abcc2","","null","<div style=""display: flex; justify-content: center; align-items: center;"">
                <img src=""images/causal/causal_series_6/causal_series_6_c.jpg"" style=""width: 300px; height: 300px;"" />
              </div>","null",""
"","","","","","html-button-response","62","302770","0.0-62.0","84B6045F8B95403DB31C248F3275D5B2","4d999bbf-e005-4d25-8ce3-696e7fa20727","5479079d-2186-49b2-89e2-e3afab6abcc2","","719","
    <div style=""display: flex; justify-content: center; align-items: center;"">
      <img src=""images/blue_deck_1.png"" style=""width: 300px; height: 300px; margin-right: 10px;"" />
      <img src=""images/red_deck_2.png"" style=""width: 300px; height: 300px;"" />
    </div>","0","0"
"","","","","","html-keyboard-response","63","305780","0.0-63.0-0.0-0.0","84B6045F8B95403DB31C248F3275D5B2","4d999bbf-e005-4d25-8ce3-696e7fa20727","5479079d-2186-49b2-89e2-e3afab6abcc2","","null","<div style=""display: flex; justify-content: center; align-items: center;"">
                <img src=""images/causal/causal_series_6/causal_series_6_d.jpg"" style=""width: 300px; height: 300px;"" />
              </div>","null",""
"","","","","","html-keyboard-response","64","308785","0.0-64.0","84B6045F8B95403DB31C248F3275D5B2","4d999bbf-e005-4d25-8ce3-696e7fa20727","5479079d-2186-49b2-89e2-e3afab6abcc2","","null","<div style=""display: flex; justify-content: center; align-items: center;"">
                <img src=""images/other/blank.jpg"" style=""width: 300px; height: 300px;"" />
              </div>","null",""
"","","","","","html-keyboard-response","65","311789","0.0-65.0","84B6045F8B95403DB31C248F3275D5B2","4d999bbf-e005-4d25-8ce3-696e7fa20727","5479079d-2186-49b2-89e2-e3afab6abcc2","","null","<div style=""display: flex; justify-content: center; align-items: center;"">
                <img src=""images/causal/causal_series_4/causal_series_4_a.jpg"" style=""width: 300px; height: 300px;"" />
              </div>","null",""
"","","","","","html-keyboard-response","66","314792","0.0-66.0","84B6045F8B95403DB31C248F3275D5B2","4d999bbf-e005-4d25-8ce3-696e7fa20727","5479079d-2186-49b2-89e2-e3afab6abcc2","","null","<div style=""display: flex; justify-content: center; align-items: center;"">
                <img src=""images/causal/causal_series_4/causal_series_4_b.jpg"" style=""width: 300px; height: 300px;"" />
              </div>","null",""
"","","","","","html-keyboard-response","67","317807","0.0-67.0","84B6045F8B95403DB31C248F3275D5B2","4d999bbf-e005-4d25-8ce3-696e7fa20727","5479079d-2186-49b2-89e2-e3afab6abcc2","","null","<div style=""display: flex; justify-content: center; align-items: center;"">
                <img src=""images/causal/causal_series_4/causal_series_4_c.jpg"" style=""width: 300px; height: 300px;"" />
              </div>","null",""
"","","","","","html-button-response","68","318665","0.0-68.0","84B6045F8B95403DB31C248F3275D5B2","4d999bbf-e005-4d25-8ce3-696e7fa20727","5479079d-2186-49b2-89e2-e3afab6abcc2","","856","
    <div style=""display: flex; justify-content: center; align-items: center;"">
      <img src=""images/blue_deck_1.png"" style=""width: 300px; height: 300px; margin-right: 10px;"" />
      <img src=""images/red_deck_2.png"" style=""width: 300px; height: 300px;"" />
    </div>","0","0"
"","","","","","html-keyboard-response","69","321674","0.0-69.0-0.0-0.0","84B6045F8B95403DB31C248F3275D5B2","4d999bbf-e005-4d25-8ce3-696e7fa20727","5479079d-2186-49b2-89e2-e3afab6abcc2","","null","<div style=""display: flex; justify-content: center; align-items: center;"">
                <img src=""images/causal/causal_series_4/causal_series_4_d.jpg"" style=""width: 300px; height: 300px;"" />
              </div>","null",""
"","","","","","html-keyboard-response","70","324679","0.0-70.0","84B6045F8B95403DB31C248F3275D5B2","4d999bbf-e005-4d25-8ce3-696e7fa20727","5479079d-2186-49b2-89e2-e3afab6abcc2","","null","<div style=""display: flex; justify-content: center; align-items: center;"">
                <img src=""images/other/blank.jpg"" style=""width: 300px; height: 300px;"" />
              </div>","null",""
"","","","","","html-keyboard-response","71","327694","0.0-71.0","84B6045F8B95403DB31C248F3275D5B2","4d999bbf-e005-4d25-8ce3-696e7fa20727","5479079d-2186-49b2-89e2-e3afab6abcc2","","null","<div style=""display: flex; justify-content: center; align-items: center;"">
                <img src=""images/causal/causal_series_10/causal_series_10_a.jpg"" style=""width: 300px; height: 300px;"" />
              </div>","null",""
"","","","","","html-keyboard-response","72","330705","0.0-72.0","84B6045F8B95403DB31C248F3275D5B2","4d999bbf-e005-4d25-8ce3-696e7fa20727","5479079d-2186-49b2-89e2-e3afab6abcc2","","null","<div style=""display: flex; justify-content: center; align-items: center;"">
                <img src=""images/causal/causal_series_10/causal_series_10_b.jpg"" style=""width: 300px; height: 300px;"" />
              </div>","null",""
"","","","","","html-keyboard-response","73","333717","0.0-73.0","84B6045F8B95403DB31C248F3275D5B2","4d999bbf-e005-4d25-8ce3-696e7fa20727","5479079d-2186-49b2-89e2-e3afab6abcc2","","null","<div style=""display: flex; justify-content: center; align-items: center;"">
                <img src=""images/causal/causal_series_10/causal_series_10_c.jpg"" style=""width: 300px; height: 300px;"" />
              </div>","null",""
"","","","","","html-button-response","74","334436","0.0-74.0","84B6045F8B95403DB31C248F3275D5B2","4d999bbf-e005-4d25-8ce3-696e7fa20727","5479079d-2186-49b2-89e2-e3afab6abcc2","","718","
    <div style=""display: flex; justify-content: center; align-items: center;"">
      <img src=""images/blue_deck_1.png"" style=""width: 300px; height: 300px; margin-right: 10px;"" />
      <img src=""images/red_deck_2.png"" style=""width: 300px; height: 300px;"" />
    </div>","0","0"
"","","","","","html-keyboard-response","75","337451","0.0-75.0-0.0-0.0","84B6045F8B95403DB31C248F3275D5B2","4d999bbf-e005-4d25-8ce3-696e7fa20727","5479079d-2186-49b2-89e2-e3afab6abcc2","","null","<div style=""display: flex; justify-content: center; align-items: center;"">
                <img src=""images/causal/causal_series_10/causal_series_10_d.jpg"" style=""width: 300px; height: 300px;"" />
              </div>","null",""
"","","","","","html-keyboard-response","76","340459","0.0-76.0","84B6045F8B95403DB31C248F3275D5B2","4d999bbf-e005-4d25-8ce3-696e7fa20727","5479079d-2186-49b2-89e2-e3afab6abcc2","","null","<div style=""display: flex; justify-content: center; align-items: center;"">
                <img src=""images/other/blank.jpg"" style=""width: 300px; height: 300px;"" />
              </div>","null",""
"","","","","","html-keyboard-response","77","343472","0.0-77.0","84B6045F8B95403DB31C248F3275D5B2","4d999bbf-e005-4d25-8ce3-696e7fa20727","5479079d-2186-49b2-89e2-e3afab6abcc2","","null","<div style=""display: flex; justify-content: center; align-items: center;"">
                <img src=""images/causal/causal_series_18/causal_series_18_a.jpg"" style=""width: 300px; height: 300px;"" />
              </div>","null",""
"","","","","","html-keyboard-response","78","346474","0.0-78.0","84B6045F8B95403DB31C248F3275D5B2","4d999bbf-e005-4d25-8ce3-696e7fa20727","5479079d-2186-49b2-89e2-e3afab6abcc2","","null","<div style=""display: flex; justify-content: center; align-items: center;"">
                <img src=""images/causal/causal_series_18/causal_series_18_b.jpg"" style=""width: 300px; height: 300px;"" />
              </div>","null",""
"","","","","","html-keyboard-response","79","349483","0.0-79.0","84B6045F8B95403DB31C248F3275D5B2","4d999bbf-e005-4d25-8ce3-696e7fa20727","5479079d-2186-49b2-89e2-e3afab6abcc2","","null","<div style=""display: flex; justify-content: center; align-items: center;"">
                <img src=""images/causal/causal_series_18/causal_series_18_c.jpg"" style=""width: 300px; height: 300px;"" />
              </div>","null",""
"","","","","","html-button-response","80","350575","0.0-80.0","84B6045F8B95403DB31C248F3275D5B2","4d999bbf-e005-4d25-8ce3-696e7fa20727","5479079d-2186-49b2-89e2-e3afab6abcc2","","1089","
    <div style=""display: flex; justify-content: center; align-items: center;"">
      <img src=""images/blue_deck_1.png"" style=""width: 300px; height: 300px; margin-right: 10px;"" />
      <img src=""images/red_deck_2.png"" style=""width: 300px; height: 300px;"" />
    </div>","0","0"
"","","","","","html-keyboard-response","81","353586","0.0-81.0-0.0-0.0","84B6045F8B95403DB31C248F3275D5B2","4d999bbf-e005-4d25-8ce3-696e7fa20727","5479079d-2186-49b2-89e2-e3afab6abcc2","","null","<div style=""display: flex; justify-content: center; align-items: center;"">
                <img src=""images/causal/causal_series_18/causal_series_18_d.jpg"" style=""width: 300px; height: 300px;"" />
              </div>","null",""
"","","","","","html-keyboard-response","82","356589","0.0-82.0","84B6045F8B95403DB31C248F3275D5B2","4d999bbf-e005-4d25-8ce3-696e7fa20727","5479079d-2186-49b2-89e2-e3afab6abcc2","","null","<div style=""display: flex; justify-content: center; align-items: center;"">
                <img src=""images/other/blank.jpg"" style=""width: 300px; height: 300px;"" />
              </div>","null",""
"","","","","","html-keyboard-response","83","359594","0.0-83.0","84B6045F8B95403DB31C248F3275D5B2","4d999bbf-e005-4d25-8ce3-696e7fa20727","5479079d-2186-49b2-89e2-e3afab6abcc2","","null","<div style=""display: flex; justify-content: center; align-items: center;"">
                <img src=""images/causal/causal_series_8/causal_series_8_a.jpg"" style=""width: 300px; height: 300px;"" />
              </div>","null",""
"","","","","","html-keyboard-response","84","362607","0.0-84.0","84B6045F8B95403DB31C248F3275D5B2","4d999bbf-e005-4d25-8ce3-696e7fa20727","5479079d-2186-49b2-89e2-e3afab6abcc2","","null","<div style=""display: flex; justify-content: center; align-items: center;"">
                <img src=""images/causal/causal_series_8/causal_series_8_b.jpg"" style=""width: 300px; height: 300px;"" />
              </div>","null",""
"","","","","","html-keyboard-response","85","365618","0.0-85.0","84B6045F8B95403DB31C248F3275D5B2","4d999bbf-e005-4d25-8ce3-696e7fa20727","5479079d-2186-49b2-89e2-e3afab6abcc2","","null","<div style=""display: flex; justify-content: center; align-items: center;"">
                <img src=""images/causal/causal_series_8/causal_series_8_c.jpg"" style=""width: 300px; height: 300px;"" />
              </div>","null",""
"","","","","","html-button-response","86","366753","0.0-86.0","84B6045F8B95403DB31C248F3275D5B2","4d999bbf-e005-4d25-8ce3-696e7fa20727","5479079d-2186-49b2-89e2-e3afab6abcc2","","1133","
    <div style=""display: flex; justify-content: center; align-items: center;"">
      <img src=""images/blue_deck_1.png"" style=""width: 300px; height: 300px; margin-right: 10px;"" />
      <img src=""images/red_deck_2.png"" style=""width: 300px; height: 300px;"" />
    </div>","0","0"
"","","","","","html-keyboard-response","87","369756","0.0-87.0-0.0-0.0","84B6045F8B95403DB31C248F3275D5B2","4d999bbf-e005-4d25-8ce3-696e7fa20727","5479079d-2186-49b2-89e2-e3afab6abcc2","","null","<div style=""display: flex; justify-content: center; align-items: center;"">
                <img src=""images/causal/causal_series_8/causal_series_8_d.jpg"" style=""width: 300px; height: 300px;"" />
              </div>","null",""
"","","","","","html-keyboard-response","88","372763","0.0-88.0","84B6045F8B95403DB31C248F3275D5B2","4d999bbf-e005-4d25-8ce3-696e7fa20727","5479079d-2186-49b2-89e2-e3afab6abcc2","","null","<div style=""display: flex; justify-content: center; align-items: center;"">
                <img src=""images/other/blank.jpg"" style=""width: 300px; height: 300px;"" />
              </div>","null",""
"","","","","","html-keyboard-response","89","375773","0.0-89.0","84B6045F8B95403DB31C248F3275D5B2","4d999bbf-e005-4d25-8ce3-696e7fa20727","5479079d-2186-49b2-89e2-e3afab6abcc2","","null","<div style=""display: flex; justify-content: center; align-items: center;"">
                <img src=""images/causal/causal_series_3/causal_series_3_a.jpg"" style=""width: 300px; height: 300px;"" />
              </div>","null",""
"","","","","","html-keyboard-response","90","378789","0.0-90.0","84B6045F8B95403DB31C248F3275D5B2","4d999bbf-e005-4d25-8ce3-696e7fa20727","5479079d-2186-49b2-89e2-e3afab6abcc2","","null","<div style=""display: flex; justify-content: center; align-items: center;"">
                <img src=""images/causal/causal_series_3/causal_series_3_b.jpg"" style=""width: 300px; height: 300px;"" />
              </div>","null",""
"","","","","","html-keyboard-response","91","381802","0.0-91.0","84B6045F8B95403DB31C248F3275D5B2","4d999bbf-e005-4d25-8ce3-696e7fa20727","5479079d-2186-49b2-89e2-e3afab6abcc2","","null","<div style=""display: flex; justify-content: center; align-items: center;"">
                <img src=""images/causal/causal_series_3/causal_series_3_c.jpg"" style=""width: 300px; height: 300px;"" />
              </div>","null",""
"","","","","","html-button-response","92","383348","0.0-92.0","84B6045F8B95403DB31C248F3275D5B2","4d999bbf-e005-4d25-8ce3-696e7fa20727","5479079d-2186-49b2-89e2-e3afab6abcc2","","1544","
    <div style=""display: flex; justify-content: center; align-items: center;"">
      <img src=""images/blue_deck_1.png"" style=""width: 300px; height: 300px; margin-right: 10px;"" />
      <img src=""images/red_deck_2.png"" style=""width: 300px; height: 300px;"" />
    </div>","1","1"
"","","","","","html-keyboard-response","93","386363","0.0-93.0-1.0-0.0","84B6045F8B95403DB31C248F3275D5B2","4d999bbf-e005-4d25-8ce3-696e7fa20727","5479079d-2186-49b2-89e2-e3afab6abcc2","","null","<div style=""display: flex; justify-content: center; align-items: center;"">
                <img src=""images/semantic/semantic_series_3/semantic_series_3_d.jpg"" style=""width: 300px; height: 300px;"" />
              </div>","null",""
"","","","","","html-keyboard-response","94","389379","0.0-94.0","84B6045F8B95403DB31C248F3275D5B2","4d999bbf-e005-4d25-8ce3-696e7fa20727","5479079d-2186-49b2-89e2-e3afab6abcc2","","null","<div style=""display: flex; justify-content: center; align-items: center;"">
                <img src=""images/other/blank.jpg"" style=""width: 300px; height: 300px;"" />
              </div>","null",""
"","","","","","html-keyboard-response","95","392382","0.0-95.0","84B6045F8B95403DB31C248F3275D5B2","4d999bbf-e005-4d25-8ce3-696e7fa20727","5479079d-2186-49b2-89e2-e3afab6abcc2","","null","<div style=""display: flex; justify-content: center; align-items: center;"">
                <img src=""images/causal/causal_series_12/causal_series_12_a.jpg"" style=""width: 300px; height: 300px;"" />
              </div>","null",""
"","","","","","html-keyboard-response","96","395384","0.0-96.0","84B6045F8B95403DB31C248F3275D5B2","4d999bbf-e005-4d25-8ce3-696e7fa20727","5479079d-2186-49b2-89e2-e3afab6abcc2","","null","<div style=""display: flex; justify-content: center; align-items: center;"">
                <img src=""images/causal/causal_series_12/causal_series_12_b.jpg"" style=""width: 300px; height: 300px;"" />
              </div>","null",""
"","","","","","html-keyboard-response","97","398387","0.0-97.0","84B6045F8B95403DB31C248F3275D5B2","4d999bbf-e005-4d25-8ce3-696e7fa20727","5479079d-2186-49b2-89e2-e3afab6abcc2","","null","<div style=""display: flex; justify-content: center; align-items: center;"">
                <img src=""images/causal/causal_series_12/causal_series_12_c.jpg"" style=""width: 300px; height: 300px;"" />
              </div>","null",""
"","","","","","html-button-response","98","399185","0.0-98.0","84B6045F8B95403DB31C248F3275D5B2","4d999bbf-e005-4d25-8ce3-696e7fa20727","5479079d-2186-49b2-89e2-e3afab6abcc2","","797","
    <div style=""display: flex; justify-content: center; align-items: center;"">
      <img src=""images/blue_deck_1.png"" style=""width: 300px; height: 300px; margin-right: 10px;"" />
      <img src=""images/red_deck_2.png"" style=""width: 300px; height: 300px;"" />
    </div>","0","0"
"","","","","","html-keyboard-response","99","402190","0.0-99.0-0.0-0.0","84B6045F8B95403DB31C248F3275D5B2","4d999bbf-e005-4d25-8ce3-696e7fa20727","5479079d-2186-49b2-89e2-e3afab6abcc2","","null","<div style=""display: flex; justify-content: center; align-items: center;"">
                <img src=""images/causal/causal_series_12/causal_series_12_d.jpg"" style=""width: 300px; height: 300px;"" />
              </div>","null",""
"","","","","","html-keyboard-response","100","405199","0.0-100.0","84B6045F8B95403DB31C248F3275D5B2","4d999bbf-e005-4d25-8ce3-696e7fa20727","5479079d-2186-49b2-89e2-e3afab6abcc2","","null","<div style=""display: flex; justify-content: center; align-items: center;"">
                <img src=""images/other/blank.jpg"" style=""width: 300px; height: 300px;"" />
              </div>","null",""
"","","","","","html-keyboard-response","101","408206","0.0-101.0","84B6045F8B95403DB31C248F3275D5B2","4d999bbf-e005-4d25-8ce3-696e7fa20727","5479079d-2186-49b2-89e2-e3afab6abcc2","","null","<div style=""display: flex; justify-content: center; align-items: center;"">
                <img src=""images/causal/causal_series_9/causal_series_9_a.jpg"" style=""width: 300px; height: 300px;"" />
              </div>","null",""
"","","","","","html-keyboard-response","102","411221","0.0-102.0","84B6045F8B95403DB31C248F3275D5B2","4d999bbf-e005-4d25-8ce3-696e7fa20727","5479079d-2186-49b2-89e2-e3afab6abcc2","","null","<div style=""display: flex; justify-content: center; align-items: center;"">
                <img src=""images/causal/causal_series_9/causal_series_9_b.jpg"" style=""width: 300px; height: 300px;"" />
              </div>","null",""
"","","","","","html-keyboard-response","103","414232","0.0-103.0","84B6045F8B95403DB31C248F3275D5B2","4d999bbf-e005-4d25-8ce3-696e7fa20727","5479079d-2186-49b2-89e2-e3afab6abcc2","","null","<div style=""display: flex; justify-content: center; align-items: center;"">
                <img src=""images/causal/causal_series_9/causal_series_9_c.jpg"" style=""width: 300px; height: 300px;"" />
              </div>","null",""
"","","","","","html-button-response","104","415289","0.0-104.0","84B6045F8B95403DB31C248F3275D5B2","4d999bbf-e005-4d25-8ce3-696e7fa20727","5479079d-2186-49b2-89e2-e3afab6abcc2","","1056","
    <div style=""display: flex; justify-content: center; align-items: center;"">
      <img src=""images/blue_deck_1.png"" style=""width: 300px; height: 300px; margin-right: 10px;"" />
      <img src=""images/red_deck_2.png"" style=""width: 300px; height: 300px;"" />
    </div>","0","0"
"","","","","","html-keyboard-response","105","418300","0.0-105.0-0.0-0.0","84B6045F8B95403DB31C248F3275D5B2","4d999bbf-e005-4d25-8ce3-696e7fa20727","5479079d-2186-49b2-89e2-e3afab6abcc2","","null","<div style=""display: flex; justify-content: center; align-items: center;"">
                <img src=""images/causal/causal_series_9/causal_series_9_d.jpg"" style=""width: 300px; height: 300px;"" />
              </div>","null",""
"","","","","","html-keyboard-response","106","421316","0.0-106.0","84B6045F8B95403DB31C248F3275D5B2","4d999bbf-e005-4d25-8ce3-696e7fa20727","5479079d-2186-49b2-89e2-e3afab6abcc2","","null","<div style=""display: flex; justify-content: center; align-items: center;"">
                <img src=""images/other/blank.jpg"" style=""width: 300px; height: 300px;"" />
              </div>","null",""
"","","","","","html-keyboard-response","107","424331","0.0-107.0","84B6045F8B95403DB31C248F3275D5B2","4d999bbf-e005-4d25-8ce3-696e7fa20727","5479079d-2186-49b2-89e2-e3afab6abcc2","","null","<div style=""display: flex; justify-content: center; align-items: center;"">
                <img src=""images/causal/causal_series_1/causal_series_1_a.jpg"" style=""width: 300px; height: 300px;"" />
              </div>","null",""
"","","","","","html-keyboard-response","108","427346","0.0-108.0","84B6045F8B95403DB31C248F3275D5B2","4d999bbf-e005-4d25-8ce3-696e7fa20727","5479079d-2186-49b2-89e2-e3afab6abcc2","","null","<div style=""display: flex; justify-content: center; align-items: center;"">
                <img src=""images/causal/causal_series_1/causal_series_1_b.jpg"" style=""width: 300px; height: 300px;"" />
              </div>","null",""
"","","","","","html-keyboard-response","109","430348","0.0-109.0","84B6045F8B95403DB31C248F3275D5B2","4d999bbf-e005-4d25-8ce3-696e7fa20727","5479079d-2186-49b2-89e2-e3afab6abcc2","","null","<div style=""display: flex; justify-content: center; align-items: center;"">
                <img src=""images/causal/causal_series_1/causal_series_1_c.jpg"" style=""width: 300px; height: 300px;"" />
              </div>","null",""
"","","","","","html-button-response","110","431286","0.0-110.0","84B6045F8B95403DB31C248F3275D5B2","4d999bbf-e005-4d25-8ce3-696e7fa20727","5479079d-2186-49b2-89e2-e3afab6abcc2","","936","
    <div style=""display: flex; justify-content: center; align-items: center;"">
      <img src=""images/blue_deck_1.png"" style=""width: 300px; height: 300px; margin-right: 10px;"" />
      <img src=""images/red_deck_2.png"" style=""width: 300px; height: 300px;"" />
    </div>","0","0"
"","","","","","html-keyboard-response","111","434302","0.0-111.0-0.0-0.0","84B6045F8B95403DB31C248F3275D5B2","4d999bbf-e005-4d25-8ce3-696e7fa20727","5479079d-2186-49b2-89e2-e3afab6abcc2","","null","<div style=""display: flex; justify-content: center; align-items: center;"">
                <img src=""images/causal/causal_series_1/causal_series_1_d.jpg"" style=""width: 300px; height: 300px;"" />
              </div>","null",""
"","","","","","html-keyboard-response","112","437306","0.0-112.0","84B6045F8B95403DB31C248F3275D5B2","4d999bbf-e005-4d25-8ce3-696e7fa20727","5479079d-2186-49b2-89e2-e3afab6abcc2","","null","<div style=""display: flex; justify-content: center; align-items: center;"">
                <img src=""images/other/blank.jpg"" style=""width: 300px; height: 300px;"" />
              </div>","null",""
"","","","","","survey-text","113","509615","0.0-113.0","84B6045F8B95403DB31C248F3275D5B2","4d999bbf-e005-4d25-8ce3-696e7fa20727","5479079d-2186-49b2-89e2-e3afab6abcc2","","72304","","{""Q0"":""One deck provides the last part of the story while the other deck is a random image.""}",""
"","","","","","survey-text","114","521802","0.0-114.0","84B6045F8B95403DB31C248F3275D5B2","4d999bbf-e005-4d25-8ce3-696e7fa20727","5479079d-2186-49b2-89e2-e3afab6abcc2","","12177","","{""Q0"":""deck 1""}",""
"","","","","","html-button-response","115","556605","0.0-115.0","84B6045F8B95403DB31C248F3275D5B2","4d999bbf-e005-4d25-8ce3-696e7fa20727","5479079d-2186-49b2-89e2-e3afab6abcc2","","34800","Which color deck does the fourth image continue the story from the series?","0",""
"","","","","","html-button-response","116","559789","0.0-116.0","84B6045F8B95403DB31C248F3275D5B2","4d999bbf-e005-4d25-8ce3-696e7fa20727","5479079d-2186-49b2-89e2-e3afab6abcc2","","3182","Which color deck does the fourth image not follow the story from the series?","0",""
"","","","","","survey-text","117","575715","0.0-117.0","84B6045F8B95403DB31C248F3275D5B2","4d999bbf-e005-4d25-8ce3-696e7fa20727","5479079d-2186-49b2-89e2-e3afab6abcc2","","15918","","{""Q0"":""FEMALE"",""Q1"":""24""}",""
"","","","","","instructions","118","583865","0.0-118.0","84B6045F8B95403DB31C248F3275D5B2","4d999bbf-e005-4d25-8ce3-696e7fa20727","5479079d-2186-49b2-89e2-e3afab6abcc2","[{""page_index"":0,""viewing_time"":8149}]","8149","","",""
