"success","timeout","failed_images","failed_audio","failed_video","trial_type","trial_index","time_elapsed","internal_node_id","subject","subject_id","study_id","session_id","urlvar","current_url","view_history","rt","stimulus","response","choice","question_order"
"true","false","[]","[]","[]","preload","0","793","0.0-0.0","FCDBC73A68DF4C599E48B9B83B28FACE","FCDBC73A68DF4C599E48B9B83B28FACE","59536e3e-aa68-4b2f-9b35-badb49812b4e","bea99957-1862-4ad8-9558-57b91e42ce64","{""participantId"":""FCDBC73A68DF4C599E48B9B83B28FACE"",""assignmentId"":""59536e3e-aa68-4b2f-9b35-badb49812b4e"",""projectId"":""bea99957-1862-4ad8-9558-57b91e42ce64""}","https://test12345.live/?participantId=FCDBC73A68DF4C599E48B9B83B28FACE&assignmentId=59536e3e-aa68-4b2f-9b35-badb49812b4e&projectId=bea99957-1862-4ad8-9558-57b91e42ce64","","","","","",""
"","","","","","instructions","1","2600","0.0-1.0","FCDBC73A68DF4C599E48B9B83B28FACE","FCDBC73A68DF4C599E48B9B83B28FACE","59536e3e-aa68-4b2f-9b35-badb49812b4e","bea99957-1862-4ad8-9558-57b91e42ce64","{""participantId"":""FCDBC73A68DF4C599E48B9B83B28FACE"",""assignmentId"":""59536e3e-aa68-4b2f-9b35-badb49812b4e"",""projectId"":""bea99957-1862-4ad8-9558-57b91e42ce64""}","https://test12345.live/?participantId=FCDBC73A68DF4C599E48B9B83B28FACE&assignmentId=59536e3e-aa68-4b2f-9b35-badb49812b4e&projectId=bea99957-1862-4ad8-9558-57b91e42ce64","[{""page_index"":0,""viewing_time"":1806}]","1806","","","",""
"","","","","","instructions","2","6169","0.0-2.0","FCDBC73A68DF4C599E48B9B83B28FACE","FCDBC73A68DF4C599E48B9B83B28FACE","59536e3e-aa68-4b2f-9b35-badb49812b4e","bea99957-1862-4ad8-9558-57b91e42ce64","{""participantId"":""FCDBC73A68DF4C599E48B9B83B28FACE"",""assignmentId"":""59536e3e-aa68-4b2f-9b35-badb49812b4e"",""projectId"":""bea99957-1862-4ad8-9558-57b91e42ce64""}","https://test12345.live/?participantId=FCDBC73A68DF4C599E48B9B83B28FACE&assignmentId=59536e3e-aa68-4b2f-9b35-badb49812b4e&projectId=bea99957-1862-4ad8-9558-57b91e42ce64","[{""page_index"":0,""viewing_time"":3569}]","3569","","","",""
"true","","","","","fullscreen","3","9093","0.0-3.0","FCDBC73A68DF4C599E48B9B83B28FACE","FCDBC73A68DF4C599E48B9B83B28FACE","59536e3e-aa68-4b2f-9b35-badb49812b4e","bea99957-1862-4ad8-9558-57b91e42ce64","{""participantId"":""FCDBC73A68DF4C599E48B9B83B28FACE"",""assignmentId"":""59536e3e-aa68-4b2f-9b35-badb49812b4e"",""projectId"":""bea99957-1862-4ad8-9558-57b91e42ce64""}","https://test12345.live/?participantId=FCDBC73A68DF4C599E48B9B83B28FACE&assignmentId=59536e3e-aa68-4b2f-9b35-badb49812b4e&projectId=bea99957-1862-4ad8-9558-57b91e42ce64","","1908","","","",""
"","","","","","instructions","4","33305","0.0-4.0","FCDBC73A68DF4C599E48B9B83B28FACE","FCDBC73A68DF4C599E48B9B83B28FACE","59536e3e-aa68-4b2f-9b35-badb49812b4e","bea99957-1862-4ad8-9558-57b91e42ce64","{""participantId"":""FCDBC73A68DF4C599E48B9B83B28FACE"",""assignmentId"":""59536e3e-aa68-4b2f-9b35-badb49812b4e"",""projectId"":""bea99957-1862-4ad8-9558-57b91e42ce64""}","https://test12345.live/?participantId=FCDBC73A68DF4C599E48B9B83B28FACE&assignmentId=59536e3e-aa68-4b2f-9b35-badb49812b4e&projectId=bea99957-1862-4ad8-9558-57b91e42ce64","[{""page_index"":0,""viewing_time"":24211}]","24212","","","",""
"","","","","","html-button-response","5","35911","0.0-5.0","FCDBC73A68DF4C599E48B9B83B28FACE","FCDBC73A68DF4C599E48B9B83B28FACE","59536e3e-aa68-4b2f-9b35-badb49812b4e","bea99957-1862-4ad8-9558-57b91e42ce64","{""participantId"":""FCDBC73A68DF4C599E48B9B83B28FACE"",""assignmentId"":""59536e3e-aa68-4b2f-9b35-badb49812b4e"",""projectId"":""bea99957-1862-4ad8-9558-57b91e42ce64""}","https://test12345.live/?participantId=FCDBC73A68DF4C599E48B9B83B28FACE&assignmentId=59536e3e-aa68-4b2f-9b35-badb49812b4e&projectId=bea99957-1862-4ad8-9558-57b91e42ce64","","2605","
    <div style=""display: flex; justify-content: center; align-items: center;"">
      <img src=""images/red_deck_2.png"" style=""width: 300px; height: 300px; margin-right: 10px;"" />
      <img src=""images/blue_deck_1.png"" style=""width: 300px; height: 300px;"" />
    </div>","0","0",""
"","","","","","html-keyboard-response","6","38913","0.0-7.0-0.0","FCDBC73A68DF4C599E48B9B83B28FACE","FCDBC73A68DF4C599E48B9B83B28FACE","59536e3e-aa68-4b2f-9b35-badb49812b4e","bea99957-1862-4ad8-9558-57b91e42ce64","{""participantId"":""FCDBC73A68DF4C599E48B9B83B28FACE"",""assignmentId"":""59536e3e-aa68-4b2f-9b35-badb49812b4e"",""projectId"":""bea99957-1862-4ad8-9558-57b91e42ce64""}","https://test12345.live/?participantId=FCDBC73A68DF4C599E48B9B83B28FACE&assignmentId=59536e3e-aa68-4b2f-9b35-badb49812b4e&projectId=bea99957-1862-4ad8-9558-57b91e42ce64","","null","<div style=""display: flex; justify-content: center; align-items: center;"">
                    <img src=""images/semantic/semantic_series_16/semantic_series_16_a.jpg"" style=""width: 300px; height: 300px;"" />
                  </div>","null","",""
"","","","","","html-keyboard-response","7","41923","0.0-7.0-1.0","FCDBC73A68DF4C599E48B9B83B28FACE","FCDBC73A68DF4C599E48B9B83B28FACE","59536e3e-aa68-4b2f-9b35-badb49812b4e","bea99957-1862-4ad8-9558-57b91e42ce64","{""participantId"":""FCDBC73A68DF4C599E48B9B83B28FACE"",""assignmentId"":""59536e3e-aa68-4b2f-9b35-badb49812b4e"",""projectId"":""bea99957-1862-4ad8-9558-57b91e42ce64""}","https://test12345.live/?participantId=FCDBC73A68DF4C599E48B9B83B28FACE&assignmentId=59536e3e-aa68-4b2f-9b35-badb49812b4e&projectId=bea99957-1862-4ad8-9558-57b91e42ce64","","null","<div style=""display: flex; justify-content: center; align-items: center;"">
                    <img src=""images/semantic/semantic_series_16/semantic_series_16_b.jpg"" style=""width: 300px; height: 300px;"" />
                  </div>","null","",""
"","","","","","html-keyboard-response","8","44930","0.0-7.0-2.0","FCDBC73A68DF4C599E48B9B83B28FACE","FCDBC73A68DF4C599E48B9B83B28FACE","59536e3e-aa68-4b2f-9b35-badb49812b4e","bea99957-1862-4ad8-9558-57b91e42ce64","{""participantId"":""FCDBC73A68DF4C599E48B9B83B28FACE"",""assignmentId"":""59536e3e-aa68-4b2f-9b35-badb49812b4e"",""projectId"":""bea99957-1862-4ad8-9558-57b91e42ce64""}","https://test12345.live/?participantId=FCDBC73A68DF4C599E48B9B83B28FACE&assignmentId=59536e3e-aa68-4b2f-9b35-badb49812b4e&projectId=bea99957-1862-4ad8-9558-57b91e42ce64","","null","<div style=""display: flex; justify-content: center; align-items: center;"">
                    <img src=""images/semantic/semantic_series_16/semantic_series_16_c.jpg"" style=""width: 300px; height: 300px;"" />
                  </div>","null","",""
"","","","","","html-keyboard-response","9","47935","0.0-7.0-3.0","FCDBC73A68DF4C599E48B9B83B28FACE","FCDBC73A68DF4C599E48B9B83B28FACE","59536e3e-aa68-4b2f-9b35-badb49812b4e","bea99957-1862-4ad8-9558-57b91e42ce64","{""participantId"":""FCDBC73A68DF4C599E48B9B83B28FACE"",""assignmentId"":""59536e3e-aa68-4b2f-9b35-badb49812b4e"",""projectId"":""bea99957-1862-4ad8-9558-57b91e42ce64""}","https://test12345.live/?participantId=FCDBC73A68DF4C599E48B9B83B28FACE&assignmentId=59536e3e-aa68-4b2f-9b35-badb49812b4e&projectId=bea99957-1862-4ad8-9558-57b91e42ce64","","null","<div style=""display: flex; justify-content: center; align-items: center;"">
                    <img src=""images/semantic/semantic_series_16/semantic_series_16_d.jpg"" style=""width: 300px; height: 300px;"" />
                  </div>","null","",""
"","","","","","html-button-response","10","50760","0.0-8.0","FCDBC73A68DF4C599E48B9B83B28FACE","FCDBC73A68DF4C599E48B9B83B28FACE","59536e3e-aa68-4b2f-9b35-badb49812b4e","bea99957-1862-4ad8-9558-57b91e42ce64","{""participantId"":""FCDBC73A68DF4C599E48B9B83B28FACE"",""assignmentId"":""59536e3e-aa68-4b2f-9b35-badb49812b4e"",""projectId"":""bea99957-1862-4ad8-9558-57b91e42ce64""}","https://test12345.live/?participantId=FCDBC73A68DF4C599E48B9B83B28FACE&assignmentId=59536e3e-aa68-4b2f-9b35-badb49812b4e&projectId=bea99957-1862-4ad8-9558-57b91e42ce64","","2824","Was there a person in the picture?","0","",""
"","","","","","survey-likert","11","54480","0.0-9.0","FCDBC73A68DF4C599E48B9B83B28FACE","FCDBC73A68DF4C599E48B9B83B28FACE","59536e3e-aa68-4b2f-9b35-badb49812b4e","bea99957-1862-4ad8-9558-57b91e42ce64","{""participantId"":""FCDBC73A68DF4C599E48B9B83B28FACE"",""assignmentId"":""59536e3e-aa68-4b2f-9b35-badb49812b4e"",""projectId"":""bea99957-1862-4ad8-9558-57b91e42ce64""}","https://test12345.live/?participantId=FCDBC73A68DF4C599E48B9B83B28FACE&assignmentId=59536e3e-aa68-4b2f-9b35-badb49812b4e&projectId=bea99957-1862-4ad8-9558-57b91e42ce64","","3718","","{""Q0"":2}","","[0]"
"","","","","","html-button-response","12","56326","0.0-10.0","FCDBC73A68DF4C599E48B9B83B28FACE","FCDBC73A68DF4C599E48B9B83B28FACE","59536e3e-aa68-4b2f-9b35-badb49812b4e","bea99957-1862-4ad8-9558-57b91e42ce64","{""participantId"":""FCDBC73A68DF4C599E48B9B83B28FACE"",""assignmentId"":""59536e3e-aa68-4b2f-9b35-badb49812b4e"",""projectId"":""bea99957-1862-4ad8-9558-57b91e42ce64""}","https://test12345.live/?participantId=FCDBC73A68DF4C599E48B9B83B28FACE&assignmentId=59536e3e-aa68-4b2f-9b35-badb49812b4e&projectId=bea99957-1862-4ad8-9558-57b91e42ce64","","1846","
    <div style=""display: flex; justify-content: center; align-items: center;"">
      <img src=""images/red_deck_2.png"" style=""width: 300px; height: 300px; margin-right: 10px;"" />
      <img src=""images/blue_deck_1.png"" style=""width: 300px; height: 300px;"" />
    </div>","1","1",""
"","","","","","html-keyboard-response","13","59335","0.0-11.0-0.0","FCDBC73A68DF4C599E48B9B83B28FACE","FCDBC73A68DF4C599E48B9B83B28FACE","59536e3e-aa68-4b2f-9b35-badb49812b4e","bea99957-1862-4ad8-9558-57b91e42ce64","{""participantId"":""FCDBC73A68DF4C599E48B9B83B28FACE"",""assignmentId"":""59536e3e-aa68-4b2f-9b35-badb49812b4e"",""projectId"":""bea99957-1862-4ad8-9558-57b91e42ce64""}","https://test12345.live/?participantId=FCDBC73A68DF4C599E48B9B83B28FACE&assignmentId=59536e3e-aa68-4b2f-9b35-badb49812b4e&projectId=bea99957-1862-4ad8-9558-57b91e42ce64","","null","<div style=""display: flex; justify-content: center; align-items: center;"">
                    <img src=""images/causal/causal_series_15/causal_series_15_a.jpg"" style=""width: 300px; height: 300px;"" />
                  </div>","null","",""
"","","","","","html-keyboard-response","14","62345","0.0-11.0-1.0","FCDBC73A68DF4C599E48B9B83B28FACE","FCDBC73A68DF4C599E48B9B83B28FACE","59536e3e-aa68-4b2f-9b35-badb49812b4e","bea99957-1862-4ad8-9558-57b91e42ce64","{""participantId"":""FCDBC73A68DF4C599E48B9B83B28FACE"",""assignmentId"":""59536e3e-aa68-4b2f-9b35-badb49812b4e"",""projectId"":""bea99957-1862-4ad8-9558-57b91e42ce64""}","https://test12345.live/?participantId=FCDBC73A68DF4C599E48B9B83B28FACE&assignmentId=59536e3e-aa68-4b2f-9b35-badb49812b4e&projectId=bea99957-1862-4ad8-9558-57b91e42ce64","","null","<div style=""display: flex; justify-content: center; align-items: center;"">
                    <img src=""images/causal/causal_series_15/causal_series_15_b.jpg"" style=""width: 300px; height: 300px;"" />
                  </div>","null","",""
"","","","","","html-keyboard-response","15","65347","0.0-11.0-2.0","FCDBC73A68DF4C599E48B9B83B28FACE","FCDBC73A68DF4C599E48B9B83B28FACE","59536e3e-aa68-4b2f-9b35-badb49812b4e","bea99957-1862-4ad8-9558-57b91e42ce64","{""participantId"":""FCDBC73A68DF4C599E48B9B83B28FACE"",""assignmentId"":""59536e3e-aa68-4b2f-9b35-badb49812b4e"",""projectId"":""bea99957-1862-4ad8-9558-57b91e42ce64""}","https://test12345.live/?participantId=FCDBC73A68DF4C599E48B9B83B28FACE&assignmentId=59536e3e-aa68-4b2f-9b35-badb49812b4e&projectId=bea99957-1862-4ad8-9558-57b91e42ce64","","null","<div style=""display: flex; justify-content: center; align-items: center;"">
                    <img src=""images/causal/causal_series_15/causal_series_15_c.jpg"" style=""width: 300px; height: 300px;"" />
                  </div>","null","",""
"","","","","","html-keyboard-response","16","68357","0.0-11.0-3.0","FCDBC73A68DF4C599E48B9B83B28FACE","FCDBC73A68DF4C599E48B9B83B28FACE","59536e3e-aa68-4b2f-9b35-badb49812b4e","bea99957-1862-4ad8-9558-57b91e42ce64","{""participantId"":""FCDBC73A68DF4C599E48B9B83B28FACE"",""assignmentId"":""59536e3e-aa68-4b2f-9b35-badb49812b4e"",""projectId"":""bea99957-1862-4ad8-9558-57b91e42ce64""}","https://test12345.live/?participantId=FCDBC73A68DF4C599E48B9B83B28FACE&assignmentId=59536e3e-aa68-4b2f-9b35-badb49812b4e&projectId=bea99957-1862-4ad8-9558-57b91e42ce64","","null","<div style=""display: flex; justify-content: center; align-items: center;"">
                    <img src=""images/causal/causal_series_15/causal_series_15_d.jpg"" style=""width: 300px; height: 300px;"" />
                  </div>","null","",""
"","","","","","html-button-response","17","70826","0.0-13.0","FCDBC73A68DF4C599E48B9B83B28FACE","FCDBC73A68DF4C599E48B9B83B28FACE","59536e3e-aa68-4b2f-9b35-badb49812b4e","bea99957-1862-4ad8-9558-57b91e42ce64","{""participantId"":""FCDBC73A68DF4C599E48B9B83B28FACE"",""assignmentId"":""59536e3e-aa68-4b2f-9b35-badb49812b4e"",""projectId"":""bea99957-1862-4ad8-9558-57b91e42ce64""}","https://test12345.live/?participantId=FCDBC73A68DF4C599E48B9B83B28FACE&assignmentId=59536e3e-aa68-4b2f-9b35-badb49812b4e&projectId=bea99957-1862-4ad8-9558-57b91e42ce64","","2468","Was there a person in the picture?","0","",""
"","","","","","survey-likert","18","74342","0.0-14.0","FCDBC73A68DF4C599E48B9B83B28FACE","FCDBC73A68DF4C599E48B9B83B28FACE","59536e3e-aa68-4b2f-9b35-badb49812b4e","bea99957-1862-4ad8-9558-57b91e42ce64","{""participantId"":""FCDBC73A68DF4C599E48B9B83B28FACE"",""assignmentId"":""59536e3e-aa68-4b2f-9b35-badb49812b4e"",""projectId"":""bea99957-1862-4ad8-9558-57b91e42ce64""}","https://test12345.live/?participantId=FCDBC73A68DF4C599E48B9B83B28FACE&assignmentId=59536e3e-aa68-4b2f-9b35-badb49812b4e&projectId=bea99957-1862-4ad8-9558-57b91e42ce64","","3515","","{""Q0"":2}","","[0]"
"","","","","","html-button-response","19","75488","0.0-15.0","FCDBC73A68DF4C599E48B9B83B28FACE","FCDBC73A68DF4C599E48B9B83B28FACE","59536e3e-aa68-4b2f-9b35-badb49812b4e","bea99957-1862-4ad8-9558-57b91e42ce64","{""participantId"":""FCDBC73A68DF4C599E48B9B83B28FACE"",""assignmentId"":""59536e3e-aa68-4b2f-9b35-badb49812b4e"",""projectId"":""bea99957-1862-4ad8-9558-57b91e42ce64""}","https://test12345.live/?participantId=FCDBC73A68DF4C599E48B9B83B28FACE&assignmentId=59536e3e-aa68-4b2f-9b35-badb49812b4e&projectId=bea99957-1862-4ad8-9558-57b91e42ce64","","1146","
    <div style=""display: flex; justify-content: center; align-items: center;"">
      <img src=""images/red_deck_2.png"" style=""width: 300px; height: 300px; margin-right: 10px;"" />
      <img src=""images/blue_deck_1.png"" style=""width: 300px; height: 300px;"" />
    </div>","0","0",""
"","","","","","html-keyboard-response","20","78499","0.0-17.0-0.0","FCDBC73A68DF4C599E48B9B83B28FACE","FCDBC73A68DF4C599E48B9B83B28FACE","59536e3e-aa68-4b2f-9b35-badb49812b4e","bea99957-1862-4ad8-9558-57b91e42ce64","{""participantId"":""FCDBC73A68DF4C599E48B9B83B28FACE"",""assignmentId"":""59536e3e-aa68-4b2f-9b35-badb49812b4e"",""projectId"":""bea99957-1862-4ad8-9558-57b91e42ce64""}","https://test12345.live/?participantId=FCDBC73A68DF4C599E48B9B83B28FACE&assignmentId=59536e3e-aa68-4b2f-9b35-badb49812b4e&projectId=bea99957-1862-4ad8-9558-57b91e42ce64","","null","<div style=""display: flex; justify-content: center; align-items: center;"">
                    <img src=""images/semantic/semantic_series_17/semantic_series_17_a.jpg"" style=""width: 300px; height: 300px;"" />
                  </div>","null","",""
"","","","","","html-keyboard-response","21","81510","0.0-17.0-1.0","FCDBC73A68DF4C599E48B9B83B28FACE","FCDBC73A68DF4C599E48B9B83B28FACE","59536e3e-aa68-4b2f-9b35-badb49812b4e","bea99957-1862-4ad8-9558-57b91e42ce64","{""participantId"":""FCDBC73A68DF4C599E48B9B83B28FACE"",""assignmentId"":""59536e3e-aa68-4b2f-9b35-badb49812b4e"",""projectId"":""bea99957-1862-4ad8-9558-57b91e42ce64""}","https://test12345.live/?participantId=FCDBC73A68DF4C599E48B9B83B28FACE&assignmentId=59536e3e-aa68-4b2f-9b35-badb49812b4e&projectId=bea99957-1862-4ad8-9558-57b91e42ce64","","null","<div style=""display: flex; justify-content: center; align-items: center;"">
                    <img src=""images/semantic/semantic_series_17/semantic_series_17_b.jpg"" style=""width: 300px; height: 300px;"" />
                  </div>","null","",""
"","","","","","html-keyboard-response","22","84511","0.0-17.0-2.0","FCDBC73A68DF4C599E48B9B83B28FACE","FCDBC73A68DF4C599E48B9B83B28FACE","59536e3e-aa68-4b2f-9b35-badb49812b4e","bea99957-1862-4ad8-9558-57b91e42ce64","{""participantId"":""FCDBC73A68DF4C599E48B9B83B28FACE"",""assignmentId"":""59536e3e-aa68-4b2f-9b35-badb49812b4e"",""projectId"":""bea99957-1862-4ad8-9558-57b91e42ce64""}","https://test12345.live/?participantId=FCDBC73A68DF4C599E48B9B83B28FACE&assignmentId=59536e3e-aa68-4b2f-9b35-badb49812b4e&projectId=bea99957-1862-4ad8-9558-57b91e42ce64","","null","<div style=""display: flex; justify-content: center; align-items: center;"">
                    <img src=""images/semantic/semantic_series_17/semantic_series_17_c.jpg"" style=""width: 300px; height: 300px;"" />
                  </div>","null","",""
"","","","","","html-keyboard-response","23","87520","0.0-17.0-3.0","FCDBC73A68DF4C599E48B9B83B28FACE","FCDBC73A68DF4C599E48B9B83B28FACE","59536e3e-aa68-4b2f-9b35-badb49812b4e","bea99957-1862-4ad8-9558-57b91e42ce64","{""participantId"":""FCDBC73A68DF4C599E48B9B83B28FACE"",""assignmentId"":""59536e3e-aa68-4b2f-9b35-badb49812b4e"",""projectId"":""bea99957-1862-4ad8-9558-57b91e42ce64""}","https://test12345.live/?participantId=FCDBC73A68DF4C599E48B9B83B28FACE&assignmentId=59536e3e-aa68-4b2f-9b35-badb49812b4e&projectId=bea99957-1862-4ad8-9558-57b91e42ce64","","null","<div style=""display: flex; justify-content: center; align-items: center;"">
                    <img src=""images/semantic/semantic_series_17/semantic_series_17_d.jpg"" style=""width: 300px; height: 300px;"" />
                  </div>","null","",""
"","","","","","html-button-response","24","89349","0.0-18.0","FCDBC73A68DF4C599E48B9B83B28FACE","FCDBC73A68DF4C599E48B9B83B28FACE","59536e3e-aa68-4b2f-9b35-badb49812b4e","bea99957-1862-4ad8-9558-57b91e42ce64","{""participantId"":""FCDBC73A68DF4C599E48B9B83B28FACE"",""assignmentId"":""59536e3e-aa68-4b2f-9b35-badb49812b4e"",""projectId"":""bea99957-1862-4ad8-9558-57b91e42ce64""}","https://test12345.live/?participantId=FCDBC73A68DF4C599E48B9B83B28FACE&assignmentId=59536e3e-aa68-4b2f-9b35-badb49812b4e&projectId=bea99957-1862-4ad8-9558-57b91e42ce64","","1827","Was there a person in the picture?","0","",""
"","","","","","survey-likert","25","92648","0.0-19.0","FCDBC73A68DF4C599E48B9B83B28FACE","FCDBC73A68DF4C599E48B9B83B28FACE","59536e3e-aa68-4b2f-9b35-badb49812b4e","bea99957-1862-4ad8-9558-57b91e42ce64","{""participantId"":""FCDBC73A68DF4C599E48B9B83B28FACE"",""assignmentId"":""59536e3e-aa68-4b2f-9b35-badb49812b4e"",""projectId"":""bea99957-1862-4ad8-9558-57b91e42ce64""}","https://test12345.live/?participantId=FCDBC73A68DF4C599E48B9B83B28FACE&assignmentId=59536e3e-aa68-4b2f-9b35-badb49812b4e&projectId=bea99957-1862-4ad8-9558-57b91e42ce64","","3298","","{""Q0"":2}","","[0]"
"","","","","","html-button-response","26","93838","0.0-20.0","FCDBC73A68DF4C599E48B9B83B28FACE","FCDBC73A68DF4C599E48B9B83B28FACE","59536e3e-aa68-4b2f-9b35-badb49812b4e","bea99957-1862-4ad8-9558-57b91e42ce64","{""participantId"":""FCDBC73A68DF4C599E48B9B83B28FACE"",""assignmentId"":""59536e3e-aa68-4b2f-9b35-badb49812b4e"",""projectId"":""bea99957-1862-4ad8-9558-57b91e42ce64""}","https://test12345.live/?participantId=FCDBC73A68DF4C599E48B9B83B28FACE&assignmentId=59536e3e-aa68-4b2f-9b35-badb49812b4e&projectId=bea99957-1862-4ad8-9558-57b91e42ce64","","1189","
    <div style=""display: flex; justify-content: center; align-items: center;"">
      <img src=""images/red_deck_2.png"" style=""width: 300px; height: 300px; margin-right: 10px;"" />
      <img src=""images/blue_deck_1.png"" style=""width: 300px; height: 300px;"" />
    </div>","1","1",""
"","","","","","html-keyboard-response","27","96851","0.0-21.0-0.0","FCDBC73A68DF4C599E48B9B83B28FACE","FCDBC73A68DF4C599E48B9B83B28FACE","59536e3e-aa68-4b2f-9b35-badb49812b4e","bea99957-1862-4ad8-9558-57b91e42ce64","{""participantId"":""FCDBC73A68DF4C599E48B9B83B28FACE"",""assignmentId"":""59536e3e-aa68-4b2f-9b35-badb49812b4e"",""projectId"":""bea99957-1862-4ad8-9558-57b91e42ce64""}","https://test12345.live/?participantId=FCDBC73A68DF4C599E48B9B83B28FACE&assignmentId=59536e3e-aa68-4b2f-9b35-badb49812b4e&projectId=bea99957-1862-4ad8-9558-57b91e42ce64","","null","<div style=""display: flex; justify-content: center; align-items: center;"">
                    <img src=""images/causal/causal_series_11/causal_series_11_a.jpg"" style=""width: 300px; height: 300px;"" />
                  </div>","null","",""
"","","","","","html-keyboard-response","28","99860","0.0-21.0-1.0","FCDBC73A68DF4C599E48B9B83B28FACE","FCDBC73A68DF4C599E48B9B83B28FACE","59536e3e-aa68-4b2f-9b35-badb49812b4e","bea99957-1862-4ad8-9558-57b91e42ce64","{""participantId"":""FCDBC73A68DF4C599E48B9B83B28FACE"",""assignmentId"":""59536e3e-aa68-4b2f-9b35-badb49812b4e"",""projectId"":""bea99957-1862-4ad8-9558-57b91e42ce64""}","https://test12345.live/?participantId=FCDBC73A68DF4C599E48B9B83B28FACE&assignmentId=59536e3e-aa68-4b2f-9b35-badb49812b4e&projectId=bea99957-1862-4ad8-9558-57b91e42ce64","","null","<div style=""display: flex; justify-content: center; align-items: center;"">
                    <img src=""images/causal/causal_series_11/causal_series_11_b.jpg"" style=""width: 300px; height: 300px;"" />
                  </div>","null","",""
"","","","","","html-keyboard-response","29","102869","0.0-21.0-2.0","FCDBC73A68DF4C599E48B9B83B28FACE","FCDBC73A68DF4C599E48B9B83B28FACE","59536e3e-aa68-4b2f-9b35-badb49812b4e","bea99957-1862-4ad8-9558-57b91e42ce64","{""participantId"":""FCDBC73A68DF4C599E48B9B83B28FACE"",""assignmentId"":""59536e3e-aa68-4b2f-9b35-badb49812b4e"",""projectId"":""bea99957-1862-4ad8-9558-57b91e42ce64""}","https://test12345.live/?participantId=FCDBC73A68DF4C599E48B9B83B28FACE&assignmentId=59536e3e-aa68-4b2f-9b35-badb49812b4e&projectId=bea99957-1862-4ad8-9558-57b91e42ce64","","null","<div style=""display: flex; justify-content: center; align-items: center;"">
                    <img src=""images/causal/causal_series_11/causal_series_11_c.jpg"" style=""width: 300px; height: 300px;"" />
                  </div>","null","",""
"","","","","","html-keyboard-response","30","105874","0.0-21.0-3.0","FCDBC73A68DF4C599E48B9B83B28FACE","FCDBC73A68DF4C599E48B9B83B28FACE","59536e3e-aa68-4b2f-9b35-badb49812b4e","bea99957-1862-4ad8-9558-57b91e42ce64","{""participantId"":""FCDBC73A68DF4C599E48B9B83B28FACE"",""assignmentId"":""59536e3e-aa68-4b2f-9b35-badb49812b4e"",""projectId"":""bea99957-1862-4ad8-9558-57b91e42ce64""}","https://test12345.live/?participantId=FCDBC73A68DF4C599E48B9B83B28FACE&assignmentId=59536e3e-aa68-4b2f-9b35-badb49812b4e&projectId=bea99957-1862-4ad8-9558-57b91e42ce64","","null","<div style=""display: flex; justify-content: center; align-items: center;"">
                    <img src=""images/causal/causal_series_11/causal_series_11_d.jpg"" style=""width: 300px; height: 300px;"" />
                  </div>","null","",""
"","","","","","html-button-response","31","107034","0.0-23.0","FCDBC73A68DF4C599E48B9B83B28FACE","FCDBC73A68DF4C599E48B9B83B28FACE","59536e3e-aa68-4b2f-9b35-badb49812b4e","bea99957-1862-4ad8-9558-57b91e42ce64","{""participantId"":""FCDBC73A68DF4C599E48B9B83B28FACE"",""assignmentId"":""59536e3e-aa68-4b2f-9b35-badb49812b4e"",""projectId"":""bea99957-1862-4ad8-9558-57b91e42ce64""}","https://test12345.live/?participantId=FCDBC73A68DF4C599E48B9B83B28FACE&assignmentId=59536e3e-aa68-4b2f-9b35-badb49812b4e&projectId=bea99957-1862-4ad8-9558-57b91e42ce64","","1159","Was there a person in the picture?","0","",""
"","","","","","survey-likert","32","110541","0.0-24.0","FCDBC73A68DF4C599E48B9B83B28FACE","FCDBC73A68DF4C599E48B9B83B28FACE","59536e3e-aa68-4b2f-9b35-badb49812b4e","bea99957-1862-4ad8-9558-57b91e42ce64","{""participantId"":""FCDBC73A68DF4C599E48B9B83B28FACE"",""assignmentId"":""59536e3e-aa68-4b2f-9b35-badb49812b4e"",""projectId"":""bea99957-1862-4ad8-9558-57b91e42ce64""}","https://test12345.live/?participantId=FCDBC73A68DF4C599E48B9B83B28FACE&assignmentId=59536e3e-aa68-4b2f-9b35-badb49812b4e&projectId=bea99957-1862-4ad8-9558-57b91e42ce64","","3506","","{""Q0"":4}","","[0]"
"","","","","","html-button-response","33","112676","0.0-25.0","FCDBC73A68DF4C599E48B9B83B28FACE","FCDBC73A68DF4C599E48B9B83B28FACE","59536e3e-aa68-4b2f-9b35-badb49812b4e","bea99957-1862-4ad8-9558-57b91e42ce64","{""participantId"":""FCDBC73A68DF4C599E48B9B83B28FACE"",""assignmentId"":""59536e3e-aa68-4b2f-9b35-badb49812b4e"",""projectId"":""bea99957-1862-4ad8-9558-57b91e42ce64""}","https://test12345.live/?participantId=FCDBC73A68DF4C599E48B9B83B28FACE&assignmentId=59536e3e-aa68-4b2f-9b35-badb49812b4e&projectId=bea99957-1862-4ad8-9558-57b91e42ce64","","2134","
    <div style=""display: flex; justify-content: center; align-items: center;"">
      <img src=""images/red_deck_2.png"" style=""width: 300px; height: 300px; margin-right: 10px;"" />
      <img src=""images/blue_deck_1.png"" style=""width: 300px; height: 300px;"" />
    </div>","1","1",""
"","","","","","html-keyboard-response","34","115682","0.0-26.0-0.0","FCDBC73A68DF4C599E48B9B83B28FACE","FCDBC73A68DF4C599E48B9B83B28FACE","59536e3e-aa68-4b2f-9b35-badb49812b4e","bea99957-1862-4ad8-9558-57b91e42ce64","{""participantId"":""FCDBC73A68DF4C599E48B9B83B28FACE"",""assignmentId"":""59536e3e-aa68-4b2f-9b35-badb49812b4e"",""projectId"":""bea99957-1862-4ad8-9558-57b91e42ce64""}","https://test12345.live/?participantId=FCDBC73A68DF4C599E48B9B83B28FACE&assignmentId=59536e3e-aa68-4b2f-9b35-badb49812b4e&projectId=bea99957-1862-4ad8-9558-57b91e42ce64","","null","<div style=""display: flex; justify-content: center; align-items: center;"">
                    <img src=""images/causal/causal_series_16/causal_series_16_a.jpg"" style=""width: 300px; height: 300px;"" />
                  </div>","null","",""
"","","","","","html-keyboard-response","35","118686","0.0-26.0-1.0","FCDBC73A68DF4C599E48B9B83B28FACE","FCDBC73A68DF4C599E48B9B83B28FACE","59536e3e-aa68-4b2f-9b35-badb49812b4e","bea99957-1862-4ad8-9558-57b91e42ce64","{""participantId"":""FCDBC73A68DF4C599E48B9B83B28FACE"",""assignmentId"":""59536e3e-aa68-4b2f-9b35-badb49812b4e"",""projectId"":""bea99957-1862-4ad8-9558-57b91e42ce64""}","https://test12345.live/?participantId=FCDBC73A68DF4C599E48B9B83B28FACE&assignmentId=59536e3e-aa68-4b2f-9b35-badb49812b4e&projectId=bea99957-1862-4ad8-9558-57b91e42ce64","","null","<div style=""display: flex; justify-content: center; align-items: center;"">
                    <img src=""images/causal/causal_series_16/causal_series_16_b.jpg"" style=""width: 300px; height: 300px;"" />
                  </div>","null","",""
"","","","","","html-keyboard-response","36","121689","0.0-26.0-2.0","FCDBC73A68DF4C599E48B9B83B28FACE","FCDBC73A68DF4C599E48B9B83B28FACE","59536e3e-aa68-4b2f-9b35-badb49812b4e","bea99957-1862-4ad8-9558-57b91e42ce64","{""participantId"":""FCDBC73A68DF4C599E48B9B83B28FACE"",""assignmentId"":""59536e3e-aa68-4b2f-9b35-badb49812b4e"",""projectId"":""bea99957-1862-4ad8-9558-57b91e42ce64""}","https://test12345.live/?participantId=FCDBC73A68DF4C599E48B9B83B28FACE&assignmentId=59536e3e-aa68-4b2f-9b35-badb49812b4e&projectId=bea99957-1862-4ad8-9558-57b91e42ce64","","null","<div style=""display: flex; justify-content: center; align-items: center;"">
                    <img src=""images/causal/causal_series_16/causal_series_16_c.jpg"" style=""width: 300px; height: 300px;"" />
                  </div>","null","",""
"","","","","","html-keyboard-response","37","124695","0.0-26.0-3.0","FCDBC73A68DF4C599E48B9B83B28FACE","FCDBC73A68DF4C599E48B9B83B28FACE","59536e3e-aa68-4b2f-9b35-badb49812b4e","bea99957-1862-4ad8-9558-57b91e42ce64","{""participantId"":""FCDBC73A68DF4C599E48B9B83B28FACE"",""assignmentId"":""59536e3e-aa68-4b2f-9b35-badb49812b4e"",""projectId"":""bea99957-1862-4ad8-9558-57b91e42ce64""}","https://test12345.live/?participantId=FCDBC73A68DF4C599E48B9B83B28FACE&assignmentId=59536e3e-aa68-4b2f-9b35-badb49812b4e&projectId=bea99957-1862-4ad8-9558-57b91e42ce64","","null","<div style=""display: flex; justify-content: center; align-items: center;"">
                    <img src=""images/causal/causal_series_16/causal_series_16_d.jpg"" style=""width: 300px; height: 300px;"" />
                  </div>","null","",""
"","","","","","html-button-response","38","127405","0.0-28.0","FCDBC73A68DF4C599E48B9B83B28FACE","FCDBC73A68DF4C599E48B9B83B28FACE","59536e3e-aa68-4b2f-9b35-badb49812b4e","bea99957-1862-4ad8-9558-57b91e42ce64","{""participantId"":""FCDBC73A68DF4C599E48B9B83B28FACE"",""assignmentId"":""59536e3e-aa68-4b2f-9b35-badb49812b4e"",""projectId"":""bea99957-1862-4ad8-9558-57b91e42ce64""}","https://test12345.live/?participantId=FCDBC73A68DF4C599E48B9B83B28FACE&assignmentId=59536e3e-aa68-4b2f-9b35-badb49812b4e&projectId=bea99957-1862-4ad8-9558-57b91e42ce64","","2709","Was there a person in the picture?","0","",""
"","","","","","survey-likert","39","129022","0.0-29.0","FCDBC73A68DF4C599E48B9B83B28FACE","FCDBC73A68DF4C599E48B9B83B28FACE","59536e3e-aa68-4b2f-9b35-badb49812b4e","bea99957-1862-4ad8-9558-57b91e42ce64","{""participantId"":""FCDBC73A68DF4C599E48B9B83B28FACE"",""assignmentId"":""59536e3e-aa68-4b2f-9b35-badb49812b4e"",""projectId"":""bea99957-1862-4ad8-9558-57b91e42ce64""}","https://test12345.live/?participantId=FCDBC73A68DF4C599E48B9B83B28FACE&assignmentId=59536e3e-aa68-4b2f-9b35-badb49812b4e&projectId=bea99957-1862-4ad8-9558-57b91e42ce64","","1616","","{""Q0"":2}","","[0]"
"","","","","","html-button-response","40","130072","0.0-30.0","FCDBC73A68DF4C599E48B9B83B28FACE","FCDBC73A68DF4C599E48B9B83B28FACE","59536e3e-aa68-4b2f-9b35-badb49812b4e","bea99957-1862-4ad8-9558-57b91e42ce64","{""participantId"":""FCDBC73A68DF4C599E48B9B83B28FACE"",""assignmentId"":""59536e3e-aa68-4b2f-9b35-badb49812b4e"",""projectId"":""bea99957-1862-4ad8-9558-57b91e42ce64""}","https://test12345.live/?participantId=FCDBC73A68DF4C599E48B9B83B28FACE&assignmentId=59536e3e-aa68-4b2f-9b35-badb49812b4e&projectId=bea99957-1862-4ad8-9558-57b91e42ce64","","1049","
    <div style=""display: flex; justify-content: center; align-items: center;"">
      <img src=""images/red_deck_2.png"" style=""width: 300px; height: 300px; margin-right: 10px;"" />
      <img src=""images/blue_deck_1.png"" style=""width: 300px; height: 300px;"" />
    </div>","1","1",""
"","","","","","html-keyboard-response","41","133074","0.0-31.0-0.0","FCDBC73A68DF4C599E48B9B83B28FACE","FCDBC73A68DF4C599E48B9B83B28FACE","59536e3e-aa68-4b2f-9b35-badb49812b4e","bea99957-1862-4ad8-9558-57b91e42ce64","{""participantId"":""FCDBC73A68DF4C599E48B9B83B28FACE"",""assignmentId"":""59536e3e-aa68-4b2f-9b35-badb49812b4e"",""projectId"":""bea99957-1862-4ad8-9558-57b91e42ce64""}","https://test12345.live/?participantId=FCDBC73A68DF4C599E48B9B83B28FACE&assignmentId=59536e3e-aa68-4b2f-9b35-badb49812b4e&projectId=bea99957-1862-4ad8-9558-57b91e42ce64","","null","<div style=""display: flex; justify-content: center; align-items: center;"">
                    <img src=""images/causal/causal_series_7/causal_series_7_a.jpg"" style=""width: 300px; height: 300px;"" />
                  </div>","null","",""
"","","","","","html-keyboard-response","42","136087","0.0-31.0-1.0","FCDBC73A68DF4C599E48B9B83B28FACE","FCDBC73A68DF4C599E48B9B83B28FACE","59536e3e-aa68-4b2f-9b35-badb49812b4e","bea99957-1862-4ad8-9558-57b91e42ce64","{""participantId"":""FCDBC73A68DF4C599E48B9B83B28FACE"",""assignmentId"":""59536e3e-aa68-4b2f-9b35-badb49812b4e"",""projectId"":""bea99957-1862-4ad8-9558-57b91e42ce64""}","https://test12345.live/?participantId=FCDBC73A68DF4C599E48B9B83B28FACE&assignmentId=59536e3e-aa68-4b2f-9b35-badb49812b4e&projectId=bea99957-1862-4ad8-9558-57b91e42ce64","","null","<div style=""display: flex; justify-content: center; align-items: center;"">
                    <img src=""images/causal/causal_series_7/causal_series_7_b.jpg"" style=""width: 300px; height: 300px;"" />
                  </div>","null","",""
"","","","","","html-keyboard-response","43","139091","0.0-31.0-2.0","FCDBC73A68DF4C599E48B9B83B28FACE","FCDBC73A68DF4C599E48B9B83B28FACE","59536e3e-aa68-4b2f-9b35-badb49812b4e","bea99957-1862-4ad8-9558-57b91e42ce64","{""participantId"":""FCDBC73A68DF4C599E48B9B83B28FACE"",""assignmentId"":""59536e3e-aa68-4b2f-9b35-badb49812b4e"",""projectId"":""bea99957-1862-4ad8-9558-57b91e42ce64""}","https://test12345.live/?participantId=FCDBC73A68DF4C599E48B9B83B28FACE&assignmentId=59536e3e-aa68-4b2f-9b35-badb49812b4e&projectId=bea99957-1862-4ad8-9558-57b91e42ce64","","null","<div style=""display: flex; justify-content: center; align-items: center;"">
                    <img src=""images/causal/causal_series_7/causal_series_7_c.jpg"" style=""width: 300px; height: 300px;"" />
                  </div>","null","",""
"","","","","","html-keyboard-response","44","142093","0.0-31.0-3.0","FCDBC73A68DF4C599E48B9B83B28FACE","FCDBC73A68DF4C599E48B9B83B28FACE","59536e3e-aa68-4b2f-9b35-badb49812b4e","bea99957-1862-4ad8-9558-57b91e42ce64","{""participantId"":""FCDBC73A68DF4C599E48B9B83B28FACE"",""assignmentId"":""59536e3e-aa68-4b2f-9b35-badb49812b4e"",""projectId"":""bea99957-1862-4ad8-9558-57b91e42ce64""}","https://test12345.live/?participantId=FCDBC73A68DF4C599E48B9B83B28FACE&assignmentId=59536e3e-aa68-4b2f-9b35-badb49812b4e&projectId=bea99957-1862-4ad8-9558-57b91e42ce64","","null","<div style=""display: flex; justify-content: center; align-items: center;"">
                    <img src=""images/causal/causal_series_7/causal_series_7_d.jpg"" style=""width: 300px; height: 300px;"" />
                  </div>","null","",""
"","","","","","html-button-response","45","144336","0.0-33.0","FCDBC73A68DF4C599E48B9B83B28FACE","FCDBC73A68DF4C599E48B9B83B28FACE","59536e3e-aa68-4b2f-9b35-badb49812b4e","bea99957-1862-4ad8-9558-57b91e42ce64","{""participantId"":""FCDBC73A68DF4C599E48B9B83B28FACE"",""assignmentId"":""59536e3e-aa68-4b2f-9b35-badb49812b4e"",""projectId"":""bea99957-1862-4ad8-9558-57b91e42ce64""}","https://test12345.live/?participantId=FCDBC73A68DF4C599E48B9B83B28FACE&assignmentId=59536e3e-aa68-4b2f-9b35-badb49812b4e&projectId=bea99957-1862-4ad8-9558-57b91e42ce64","","2242","Was there a person in the picture?","1","",""
"","","","","","survey-likert","46","146847","0.0-34.0","FCDBC73A68DF4C599E48B9B83B28FACE","FCDBC73A68DF4C599E48B9B83B28FACE","59536e3e-aa68-4b2f-9b35-badb49812b4e","bea99957-1862-4ad8-9558-57b91e42ce64","{""participantId"":""FCDBC73A68DF4C599E48B9B83B28FACE"",""assignmentId"":""59536e3e-aa68-4b2f-9b35-badb49812b4e"",""projectId"":""bea99957-1862-4ad8-9558-57b91e42ce64""}","https://test12345.live/?participantId=FCDBC73A68DF4C599E48B9B83B28FACE&assignmentId=59536e3e-aa68-4b2f-9b35-badb49812b4e&projectId=bea99957-1862-4ad8-9558-57b91e42ce64","","2511","","{""Q0"":4}","","[0]"
"","","","","","html-button-response","47","147790","0.0-35.0","FCDBC73A68DF4C599E48B9B83B28FACE","FCDBC73A68DF4C599E48B9B83B28FACE","59536e3e-aa68-4b2f-9b35-badb49812b4e","bea99957-1862-4ad8-9558-57b91e42ce64","{""participantId"":""FCDBC73A68DF4C599E48B9B83B28FACE"",""assignmentId"":""59536e3e-aa68-4b2f-9b35-badb49812b4e"",""projectId"":""bea99957-1862-4ad8-9558-57b91e42ce64""}","https://test12345.live/?participantId=FCDBC73A68DF4C599E48B9B83B28FACE&assignmentId=59536e3e-aa68-4b2f-9b35-badb49812b4e&projectId=bea99957-1862-4ad8-9558-57b91e42ce64","","942","
    <div style=""display: flex; justify-content: center; align-items: center;"">
      <img src=""images/red_deck_2.png"" style=""width: 300px; height: 300px; margin-right: 10px;"" />
      <img src=""images/blue_deck_1.png"" style=""width: 300px; height: 300px;"" />
    </div>","1","1",""
"","","","","","html-keyboard-response","48","150800","0.0-36.0-0.0","FCDBC73A68DF4C599E48B9B83B28FACE","FCDBC73A68DF4C599E48B9B83B28FACE","59536e3e-aa68-4b2f-9b35-badb49812b4e","bea99957-1862-4ad8-9558-57b91e42ce64","{""participantId"":""FCDBC73A68DF4C599E48B9B83B28FACE"",""assignmentId"":""59536e3e-aa68-4b2f-9b35-badb49812b4e"",""projectId"":""bea99957-1862-4ad8-9558-57b91e42ce64""}","https://test12345.live/?participantId=FCDBC73A68DF4C599E48B9B83B28FACE&assignmentId=59536e3e-aa68-4b2f-9b35-badb49812b4e&projectId=bea99957-1862-4ad8-9558-57b91e42ce64","","null","<div style=""display: flex; justify-content: center; align-items: center;"">
                    <img src=""images/causal/causal_series_3/causal_series_3_a.jpg"" style=""width: 300px; height: 300px;"" />
                  </div>","null","",""
"","","","","","html-keyboard-response","49","153816","0.0-36.0-1.0","FCDBC73A68DF4C599E48B9B83B28FACE","FCDBC73A68DF4C599E48B9B83B28FACE","59536e3e-aa68-4b2f-9b35-badb49812b4e","bea99957-1862-4ad8-9558-57b91e42ce64","{""participantId"":""FCDBC73A68DF4C599E48B9B83B28FACE"",""assignmentId"":""59536e3e-aa68-4b2f-9b35-badb49812b4e"",""projectId"":""bea99957-1862-4ad8-9558-57b91e42ce64""}","https://test12345.live/?participantId=FCDBC73A68DF4C599E48B9B83B28FACE&assignmentId=59536e3e-aa68-4b2f-9b35-badb49812b4e&projectId=bea99957-1862-4ad8-9558-57b91e42ce64","","null","<div style=""display: flex; justify-content: center; align-items: center;"">
                    <img src=""images/causal/causal_series_3/causal_series_3_b.jpg"" style=""width: 300px; height: 300px;"" />
                  </div>","null","",""
"","","","","","html-keyboard-response","50","156827","0.0-36.0-2.0","FCDBC73A68DF4C599E48B9B83B28FACE","FCDBC73A68DF4C599E48B9B83B28FACE","59536e3e-aa68-4b2f-9b35-badb49812b4e","bea99957-1862-4ad8-9558-57b91e42ce64","{""participantId"":""FCDBC73A68DF4C599E48B9B83B28FACE"",""assignmentId"":""59536e3e-aa68-4b2f-9b35-badb49812b4e"",""projectId"":""bea99957-1862-4ad8-9558-57b91e42ce64""}","https://test12345.live/?participantId=FCDBC73A68DF4C599E48B9B83B28FACE&assignmentId=59536e3e-aa68-4b2f-9b35-badb49812b4e&projectId=bea99957-1862-4ad8-9558-57b91e42ce64","","null","<div style=""display: flex; justify-content: center; align-items: center;"">
                    <img src=""images/causal/causal_series_3/causal_series_3_c.jpg"" style=""width: 300px; height: 300px;"" />
                  </div>","null","",""
"","","","","","html-keyboard-response","51","159837","0.0-36.0-3.0","FCDBC73A68DF4C599E48B9B83B28FACE","FCDBC73A68DF4C599E48B9B83B28FACE","59536e3e-aa68-4b2f-9b35-badb49812b4e","bea99957-1862-4ad8-9558-57b91e42ce64","{""participantId"":""FCDBC73A68DF4C599E48B9B83B28FACE"",""assignmentId"":""59536e3e-aa68-4b2f-9b35-badb49812b4e"",""projectId"":""bea99957-1862-4ad8-9558-57b91e42ce64""}","https://test12345.live/?participantId=FCDBC73A68DF4C599E48B9B83B28FACE&assignmentId=59536e3e-aa68-4b2f-9b35-badb49812b4e&projectId=bea99957-1862-4ad8-9558-57b91e42ce64","","null","<div style=""display: flex; justify-content: center; align-items: center;"">
                    <img src=""images/causal/causal_series_3/causal_series_3_d.jpg"" style=""width: 300px; height: 300px;"" />
                  </div>","null","",""
"","","","","","html-button-response","52","161914","0.0-38.0","FCDBC73A68DF4C599E48B9B83B28FACE","FCDBC73A68DF4C599E48B9B83B28FACE","59536e3e-aa68-4b2f-9b35-badb49812b4e","bea99957-1862-4ad8-9558-57b91e42ce64","{""participantId"":""FCDBC73A68DF4C599E48B9B83B28FACE"",""assignmentId"":""59536e3e-aa68-4b2f-9b35-badb49812b4e"",""projectId"":""bea99957-1862-4ad8-9558-57b91e42ce64""}","https://test12345.live/?participantId=FCDBC73A68DF4C599E48B9B83B28FACE&assignmentId=59536e3e-aa68-4b2f-9b35-badb49812b4e&projectId=bea99957-1862-4ad8-9558-57b91e42ce64","","2076","Was there a person in the picture?","0","",""
"","","","","","survey-likert","53","164250","0.0-39.0","FCDBC73A68DF4C599E48B9B83B28FACE","FCDBC73A68DF4C599E48B9B83B28FACE","59536e3e-aa68-4b2f-9b35-badb49812b4e","bea99957-1862-4ad8-9558-57b91e42ce64","{""participantId"":""FCDBC73A68DF4C599E48B9B83B28FACE"",""assignmentId"":""59536e3e-aa68-4b2f-9b35-badb49812b4e"",""projectId"":""bea99957-1862-4ad8-9558-57b91e42ce64""}","https://test12345.live/?participantId=FCDBC73A68DF4C599E48B9B83B28FACE&assignmentId=59536e3e-aa68-4b2f-9b35-badb49812b4e&projectId=bea99957-1862-4ad8-9558-57b91e42ce64","","2335","","{""Q0"":3}","","[0]"
"","","","","","html-button-response","54","165790","0.0-40.0","FCDBC73A68DF4C599E48B9B83B28FACE","FCDBC73A68DF4C599E48B9B83B28FACE","59536e3e-aa68-4b2f-9b35-badb49812b4e","bea99957-1862-4ad8-9558-57b91e42ce64","{""participantId"":""FCDBC73A68DF4C599E48B9B83B28FACE"",""assignmentId"":""59536e3e-aa68-4b2f-9b35-badb49812b4e"",""projectId"":""bea99957-1862-4ad8-9558-57b91e42ce64""}","https://test12345.live/?participantId=FCDBC73A68DF4C599E48B9B83B28FACE&assignmentId=59536e3e-aa68-4b2f-9b35-badb49812b4e&projectId=bea99957-1862-4ad8-9558-57b91e42ce64","","1539","
    <div style=""display: flex; justify-content: center; align-items: center;"">
      <img src=""images/red_deck_2.png"" style=""width: 300px; height: 300px; margin-right: 10px;"" />
      <img src=""images/blue_deck_1.png"" style=""width: 300px; height: 300px;"" />
    </div>","1","1",""
"","","","","","html-keyboard-response","55","168801","0.0-41.0-0.0","FCDBC73A68DF4C599E48B9B83B28FACE","FCDBC73A68DF4C599E48B9B83B28FACE","59536e3e-aa68-4b2f-9b35-badb49812b4e","bea99957-1862-4ad8-9558-57b91e42ce64","{""participantId"":""FCDBC73A68DF4C599E48B9B83B28FACE"",""assignmentId"":""59536e3e-aa68-4b2f-9b35-badb49812b4e"",""projectId"":""bea99957-1862-4ad8-9558-57b91e42ce64""}","https://test12345.live/?participantId=FCDBC73A68DF4C599E48B9B83B28FACE&assignmentId=59536e3e-aa68-4b2f-9b35-badb49812b4e&projectId=bea99957-1862-4ad8-9558-57b91e42ce64","","null","<div style=""display: flex; justify-content: center; align-items: center;"">
                    <img src=""images/causal/causal_series_14/causal_series_14_a.jpg"" style=""width: 300px; height: 300px;"" />
                  </div>","null","",""
"","","","","","html-keyboard-response","56","171803","0.0-41.0-1.0","FCDBC73A68DF4C599E48B9B83B28FACE","FCDBC73A68DF4C599E48B9B83B28FACE","59536e3e-aa68-4b2f-9b35-badb49812b4e","bea99957-1862-4ad8-9558-57b91e42ce64","{""participantId"":""FCDBC73A68DF4C599E48B9B83B28FACE"",""assignmentId"":""59536e3e-aa68-4b2f-9b35-badb49812b4e"",""projectId"":""bea99957-1862-4ad8-9558-57b91e42ce64""}","https://test12345.live/?participantId=FCDBC73A68DF4C599E48B9B83B28FACE&assignmentId=59536e3e-aa68-4b2f-9b35-badb49812b4e&projectId=bea99957-1862-4ad8-9558-57b91e42ce64","","null","<div style=""display: flex; justify-content: center; align-items: center;"">
                    <img src=""images/causal/causal_series_14/causal_series_14_b.jpg"" style=""width: 300px; height: 300px;"" />
                  </div>","null","",""
"","","","","","html-keyboard-response","57","174820","0.0-41.0-2.0","FCDBC73A68DF4C599E48B9B83B28FACE","FCDBC73A68DF4C599E48B9B83B28FACE","59536e3e-aa68-4b2f-9b35-badb49812b4e","bea99957-1862-4ad8-9558-57b91e42ce64","{""participantId"":""FCDBC73A68DF4C599E48B9B83B28FACE"",""assignmentId"":""59536e3e-aa68-4b2f-9b35-badb49812b4e"",""projectId"":""bea99957-1862-4ad8-9558-57b91e42ce64""}","https://test12345.live/?participantId=FCDBC73A68DF4C599E48B9B83B28FACE&assignmentId=59536e3e-aa68-4b2f-9b35-badb49812b4e&projectId=bea99957-1862-4ad8-9558-57b91e42ce64","","null","<div style=""display: flex; justify-content: center; align-items: center;"">
                    <img src=""images/causal/causal_series_14/causal_series_14_c.jpg"" style=""width: 300px; height: 300px;"" />
                  </div>","null","",""
"","","","","","html-keyboard-response","58","177836","0.0-41.0-3.0","FCDBC73A68DF4C599E48B9B83B28FACE","FCDBC73A68DF4C599E48B9B83B28FACE","59536e3e-aa68-4b2f-9b35-badb49812b4e","bea99957-1862-4ad8-9558-57b91e42ce64","{""participantId"":""FCDBC73A68DF4C599E48B9B83B28FACE"",""assignmentId"":""59536e3e-aa68-4b2f-9b35-badb49812b4e"",""projectId"":""bea99957-1862-4ad8-9558-57b91e42ce64""}","https://test12345.live/?participantId=FCDBC73A68DF4C599E48B9B83B28FACE&assignmentId=59536e3e-aa68-4b2f-9b35-badb49812b4e&projectId=bea99957-1862-4ad8-9558-57b91e42ce64","","null","<div style=""display: flex; justify-content: center; align-items: center;"">
                    <img src=""images/causal/causal_series_14/causal_series_14_d.jpg"" style=""width: 300px; height: 300px;"" />
                  </div>","null","",""
"","","","","","html-button-response","59","179450","0.0-43.0","FCDBC73A68DF4C599E48B9B83B28FACE","FCDBC73A68DF4C599E48B9B83B28FACE","59536e3e-aa68-4b2f-9b35-badb49812b4e","bea99957-1862-4ad8-9558-57b91e42ce64","{""participantId"":""FCDBC73A68DF4C599E48B9B83B28FACE"",""assignmentId"":""59536e3e-aa68-4b2f-9b35-badb49812b4e"",""projectId"":""bea99957-1862-4ad8-9558-57b91e42ce64""}","https://test12345.live/?participantId=FCDBC73A68DF4C599E48B9B83B28FACE&assignmentId=59536e3e-aa68-4b2f-9b35-badb49812b4e&projectId=bea99957-1862-4ad8-9558-57b91e42ce64","","1612","Was there a person in the picture?","0","",""
"","","","","","survey-likert","60","182153","0.0-44.0","FCDBC73A68DF4C599E48B9B83B28FACE","FCDBC73A68DF4C599E48B9B83B28FACE","59536e3e-aa68-4b2f-9b35-badb49812b4e","bea99957-1862-4ad8-9558-57b91e42ce64","{""participantId"":""FCDBC73A68DF4C599E48B9B83B28FACE"",""assignmentId"":""59536e3e-aa68-4b2f-9b35-badb49812b4e"",""projectId"":""bea99957-1862-4ad8-9558-57b91e42ce64""}","https://test12345.live/?participantId=FCDBC73A68DF4C599E48B9B83B28FACE&assignmentId=59536e3e-aa68-4b2f-9b35-badb49812b4e&projectId=bea99957-1862-4ad8-9558-57b91e42ce64","","2702","","{""Q0"":3}","","[0]"
"","","","","","html-button-response","61","183053","0.0-45.0","FCDBC73A68DF4C599E48B9B83B28FACE","FCDBC73A68DF4C599E48B9B83B28FACE","59536e3e-aa68-4b2f-9b35-badb49812b4e","bea99957-1862-4ad8-9558-57b91e42ce64","{""participantId"":""FCDBC73A68DF4C599E48B9B83B28FACE"",""assignmentId"":""59536e3e-aa68-4b2f-9b35-badb49812b4e"",""projectId"":""bea99957-1862-4ad8-9558-57b91e42ce64""}","https://test12345.live/?participantId=FCDBC73A68DF4C599E48B9B83B28FACE&assignmentId=59536e3e-aa68-4b2f-9b35-badb49812b4e&projectId=bea99957-1862-4ad8-9558-57b91e42ce64","","900","
    <div style=""display: flex; justify-content: center; align-items: center;"">
      <img src=""images/red_deck_2.png"" style=""width: 300px; height: 300px; margin-right: 10px;"" />
      <img src=""images/blue_deck_1.png"" style=""width: 300px; height: 300px;"" />
    </div>","0","0",""
"","","","","","html-keyboard-response","62","186057","0.0-47.0-0.0","FCDBC73A68DF4C599E48B9B83B28FACE","FCDBC73A68DF4C599E48B9B83B28FACE","59536e3e-aa68-4b2f-9b35-badb49812b4e","bea99957-1862-4ad8-9558-57b91e42ce64","{""participantId"":""FCDBC73A68DF4C599E48B9B83B28FACE"",""assignmentId"":""59536e3e-aa68-4b2f-9b35-badb49812b4e"",""projectId"":""bea99957-1862-4ad8-9558-57b91e42ce64""}","https://test12345.live/?participantId=FCDBC73A68DF4C599E48B9B83B28FACE&assignmentId=59536e3e-aa68-4b2f-9b35-badb49812b4e&projectId=bea99957-1862-4ad8-9558-57b91e42ce64","","null","<div style=""display: flex; justify-content: center; align-items: center;"">
                    <img src=""images/semantic/semantic_series_13/semantic_series_13_a.jpg"" style=""width: 300px; height: 300px;"" />
                  </div>","null","",""
"","","","","","html-keyboard-response","63","189066","0.0-47.0-1.0","FCDBC73A68DF4C599E48B9B83B28FACE","FCDBC73A68DF4C599E48B9B83B28FACE","59536e3e-aa68-4b2f-9b35-badb49812b4e","bea99957-1862-4ad8-9558-57b91e42ce64","{""participantId"":""FCDBC73A68DF4C599E48B9B83B28FACE"",""assignmentId"":""59536e3e-aa68-4b2f-9b35-badb49812b4e"",""projectId"":""bea99957-1862-4ad8-9558-57b91e42ce64""}","https://test12345.live/?participantId=FCDBC73A68DF4C599E48B9B83B28FACE&assignmentId=59536e3e-aa68-4b2f-9b35-badb49812b4e&projectId=bea99957-1862-4ad8-9558-57b91e42ce64","","null","<div style=""display: flex; justify-content: center; align-items: center;"">
                    <img src=""images/semantic/semantic_series_13/semantic_series_13_b.jpg"" style=""width: 300px; height: 300px;"" />
                  </div>","null","",""
"","","","","","html-keyboard-response","64","192072","0.0-47.0-2.0","FCDBC73A68DF4C599E48B9B83B28FACE","FCDBC73A68DF4C599E48B9B83B28FACE","59536e3e-aa68-4b2f-9b35-badb49812b4e","bea99957-1862-4ad8-9558-57b91e42ce64","{""participantId"":""FCDBC73A68DF4C599E48B9B83B28FACE"",""assignmentId"":""59536e3e-aa68-4b2f-9b35-badb49812b4e"",""projectId"":""bea99957-1862-4ad8-9558-57b91e42ce64""}","https://test12345.live/?participantId=FCDBC73A68DF4C599E48B9B83B28FACE&assignmentId=59536e3e-aa68-4b2f-9b35-badb49812b4e&projectId=bea99957-1862-4ad8-9558-57b91e42ce64","","null","<div style=""display: flex; justify-content: center; align-items: center;"">
                    <img src=""images/semantic/semantic_series_13/semantic_series_13_c.jpg"" style=""width: 300px; height: 300px;"" />
                  </div>","null","",""
"","","","","","html-keyboard-response","65","195076","0.0-47.0-3.0","FCDBC73A68DF4C599E48B9B83B28FACE","FCDBC73A68DF4C599E48B9B83B28FACE","59536e3e-aa68-4b2f-9b35-badb49812b4e","bea99957-1862-4ad8-9558-57b91e42ce64","{""participantId"":""FCDBC73A68DF4C599E48B9B83B28FACE"",""assignmentId"":""59536e3e-aa68-4b2f-9b35-badb49812b4e"",""projectId"":""bea99957-1862-4ad8-9558-57b91e42ce64""}","https://test12345.live/?participantId=FCDBC73A68DF4C599E48B9B83B28FACE&assignmentId=59536e3e-aa68-4b2f-9b35-badb49812b4e&projectId=bea99957-1862-4ad8-9558-57b91e42ce64","","null","<div style=""display: flex; justify-content: center; align-items: center;"">
                    <img src=""images/semantic/semantic_series_13/semantic_series_13_d.jpg"" style=""width: 300px; height: 300px;"" />
                  </div>","null","",""
"","","","","","html-button-response","66","196783","0.0-48.0","FCDBC73A68DF4C599E48B9B83B28FACE","FCDBC73A68DF4C599E48B9B83B28FACE","59536e3e-aa68-4b2f-9b35-badb49812b4e","bea99957-1862-4ad8-9558-57b91e42ce64","{""participantId"":""FCDBC73A68DF4C599E48B9B83B28FACE"",""assignmentId"":""59536e3e-aa68-4b2f-9b35-badb49812b4e"",""projectId"":""bea99957-1862-4ad8-9558-57b91e42ce64""}","https://test12345.live/?participantId=FCDBC73A68DF4C599E48B9B83B28FACE&assignmentId=59536e3e-aa68-4b2f-9b35-badb49812b4e&projectId=bea99957-1862-4ad8-9558-57b91e42ce64","","1706","Was there a person in the picture?","0","",""
"","","","","","survey-likert","67","198429","0.0-49.0","FCDBC73A68DF4C599E48B9B83B28FACE","FCDBC73A68DF4C599E48B9B83B28FACE","59536e3e-aa68-4b2f-9b35-badb49812b4e","bea99957-1862-4ad8-9558-57b91e42ce64","{""participantId"":""FCDBC73A68DF4C599E48B9B83B28FACE"",""assignmentId"":""59536e3e-aa68-4b2f-9b35-badb49812b4e"",""projectId"":""bea99957-1862-4ad8-9558-57b91e42ce64""}","https://test12345.live/?participantId=FCDBC73A68DF4C599E48B9B83B28FACE&assignmentId=59536e3e-aa68-4b2f-9b35-badb49812b4e&projectId=bea99957-1862-4ad8-9558-57b91e42ce64","","1645","","{""Q0"":2}","","[0]"
"","","","","","html-button-response","68","200213","0.0-50.0","FCDBC73A68DF4C599E48B9B83B28FACE","FCDBC73A68DF4C599E48B9B83B28FACE","59536e3e-aa68-4b2f-9b35-badb49812b4e","bea99957-1862-4ad8-9558-57b91e42ce64","{""participantId"":""FCDBC73A68DF4C599E48B9B83B28FACE"",""assignmentId"":""59536e3e-aa68-4b2f-9b35-badb49812b4e"",""projectId"":""bea99957-1862-4ad8-9558-57b91e42ce64""}","https://test12345.live/?participantId=FCDBC73A68DF4C599E48B9B83B28FACE&assignmentId=59536e3e-aa68-4b2f-9b35-badb49812b4e&projectId=bea99957-1862-4ad8-9558-57b91e42ce64","","1783","
    <div style=""display: flex; justify-content: center; align-items: center;"">
      <img src=""images/red_deck_2.png"" style=""width: 300px; height: 300px; margin-right: 10px;"" />
      <img src=""images/blue_deck_1.png"" style=""width: 300px; height: 300px;"" />
    </div>","0","0",""
"","","","","","html-keyboard-response","69","203219","0.0-52.0-0.0","FCDBC73A68DF4C599E48B9B83B28FACE","FCDBC73A68DF4C599E48B9B83B28FACE","59536e3e-aa68-4b2f-9b35-badb49812b4e","bea99957-1862-4ad8-9558-57b91e42ce64","{""participantId"":""FCDBC73A68DF4C599E48B9B83B28FACE"",""assignmentId"":""59536e3e-aa68-4b2f-9b35-badb49812b4e"",""projectId"":""bea99957-1862-4ad8-9558-57b91e42ce64""}","https://test12345.live/?participantId=FCDBC73A68DF4C599E48B9B83B28FACE&assignmentId=59536e3e-aa68-4b2f-9b35-badb49812b4e&projectId=bea99957-1862-4ad8-9558-57b91e42ce64","","null","<div style=""display: flex; justify-content: center; align-items: center;"">
                    <img src=""images/semantic/semantic_series_12/semantic_series_12_a.jpg"" style=""width: 300px; height: 300px;"" />
                  </div>","null","",""
"","","","","","html-keyboard-response","70","206221","0.0-52.0-1.0","FCDBC73A68DF4C599E48B9B83B28FACE","FCDBC73A68DF4C599E48B9B83B28FACE","59536e3e-aa68-4b2f-9b35-badb49812b4e","bea99957-1862-4ad8-9558-57b91e42ce64","{""participantId"":""FCDBC73A68DF4C599E48B9B83B28FACE"",""assignmentId"":""59536e3e-aa68-4b2f-9b35-badb49812b4e"",""projectId"":""bea99957-1862-4ad8-9558-57b91e42ce64""}","https://test12345.live/?participantId=FCDBC73A68DF4C599E48B9B83B28FACE&assignmentId=59536e3e-aa68-4b2f-9b35-badb49812b4e&projectId=bea99957-1862-4ad8-9558-57b91e42ce64","","null","<div style=""display: flex; justify-content: center; align-items: center;"">
                    <img src=""images/semantic/semantic_series_12/semantic_series_12_b.jpg"" style=""width: 300px; height: 300px;"" />
                  </div>","null","",""
"","","","","","html-keyboard-response","71","209233","0.0-52.0-2.0","FCDBC73A68DF4C599E48B9B83B28FACE","FCDBC73A68DF4C599E48B9B83B28FACE","59536e3e-aa68-4b2f-9b35-badb49812b4e","bea99957-1862-4ad8-9558-57b91e42ce64","{""participantId"":""FCDBC73A68DF4C599E48B9B83B28FACE"",""assignmentId"":""59536e3e-aa68-4b2f-9b35-badb49812b4e"",""projectId"":""bea99957-1862-4ad8-9558-57b91e42ce64""}","https://test12345.live/?participantId=FCDBC73A68DF4C599E48B9B83B28FACE&assignmentId=59536e3e-aa68-4b2f-9b35-badb49812b4e&projectId=bea99957-1862-4ad8-9558-57b91e42ce64","","null","<div style=""display: flex; justify-content: center; align-items: center;"">
                    <img src=""images/semantic/semantic_series_12/semantic_series_12_c.jpg"" style=""width: 300px; height: 300px;"" />
                  </div>","null","",""
"","","","","","html-keyboard-response","72","212240","0.0-52.0-3.0","FCDBC73A68DF4C599E48B9B83B28FACE","FCDBC73A68DF4C599E48B9B83B28FACE","59536e3e-aa68-4b2f-9b35-badb49812b4e","bea99957-1862-4ad8-9558-57b91e42ce64","{""participantId"":""FCDBC73A68DF4C599E48B9B83B28FACE"",""assignmentId"":""59536e3e-aa68-4b2f-9b35-badb49812b4e"",""projectId"":""bea99957-1862-4ad8-9558-57b91e42ce64""}","https://test12345.live/?participantId=FCDBC73A68DF4C599E48B9B83B28FACE&assignmentId=59536e3e-aa68-4b2f-9b35-badb49812b4e&projectId=bea99957-1862-4ad8-9558-57b91e42ce64","","null","<div style=""display: flex; justify-content: center; align-items: center;"">
                    <img src=""images/semantic/semantic_series_12/semantic_series_12_d.jpg"" style=""width: 300px; height: 300px;"" />
                  </div>","null","",""
"","","","","","html-button-response","73","213627","0.0-53.0","FCDBC73A68DF4C599E48B9B83B28FACE","FCDBC73A68DF4C599E48B9B83B28FACE","59536e3e-aa68-4b2f-9b35-badb49812b4e","bea99957-1862-4ad8-9558-57b91e42ce64","{""participantId"":""FCDBC73A68DF4C599E48B9B83B28FACE"",""assignmentId"":""59536e3e-aa68-4b2f-9b35-badb49812b4e"",""projectId"":""bea99957-1862-4ad8-9558-57b91e42ce64""}","https://test12345.live/?participantId=FCDBC73A68DF4C599E48B9B83B28FACE&assignmentId=59536e3e-aa68-4b2f-9b35-badb49812b4e&projectId=bea99957-1862-4ad8-9558-57b91e42ce64","","1386","Was there a person in the picture?","1","",""
"","","","","","survey-likert","74","216007","0.0-54.0","FCDBC73A68DF4C599E48B9B83B28FACE","FCDBC73A68DF4C599E48B9B83B28FACE","59536e3e-aa68-4b2f-9b35-badb49812b4e","bea99957-1862-4ad8-9558-57b91e42ce64","{""participantId"":""FCDBC73A68DF4C599E48B9B83B28FACE"",""assignmentId"":""59536e3e-aa68-4b2f-9b35-badb49812b4e"",""projectId"":""bea99957-1862-4ad8-9558-57b91e42ce64""}","https://test12345.live/?participantId=FCDBC73A68DF4C599E48B9B83B28FACE&assignmentId=59536e3e-aa68-4b2f-9b35-badb49812b4e&projectId=bea99957-1862-4ad8-9558-57b91e42ce64","","2380","","{""Q0"":3}","","[0]"
"","","","","","html-button-response","75","218170","0.0-55.0","FCDBC73A68DF4C599E48B9B83B28FACE","FCDBC73A68DF4C599E48B9B83B28FACE","59536e3e-aa68-4b2f-9b35-badb49812b4e","bea99957-1862-4ad8-9558-57b91e42ce64","{""participantId"":""FCDBC73A68DF4C599E48B9B83B28FACE"",""assignmentId"":""59536e3e-aa68-4b2f-9b35-badb49812b4e"",""projectId"":""bea99957-1862-4ad8-9558-57b91e42ce64""}","https://test12345.live/?participantId=FCDBC73A68DF4C599E48B9B83B28FACE&assignmentId=59536e3e-aa68-4b2f-9b35-badb49812b4e&projectId=bea99957-1862-4ad8-9558-57b91e42ce64","","2162","
    <div style=""display: flex; justify-content: center; align-items: center;"">
      <img src=""images/red_deck_2.png"" style=""width: 300px; height: 300px; margin-right: 10px;"" />
      <img src=""images/blue_deck_1.png"" style=""width: 300px; height: 300px;"" />
    </div>","1","1",""
"","","","","","html-keyboard-response","76","221173","0.0-56.0-0.0","FCDBC73A68DF4C599E48B9B83B28FACE","FCDBC73A68DF4C599E48B9B83B28FACE","59536e3e-aa68-4b2f-9b35-badb49812b4e","bea99957-1862-4ad8-9558-57b91e42ce64","{""participantId"":""FCDBC73A68DF4C599E48B9B83B28FACE"",""assignmentId"":""59536e3e-aa68-4b2f-9b35-badb49812b4e"",""projectId"":""bea99957-1862-4ad8-9558-57b91e42ce64""}","https://test12345.live/?participantId=FCDBC73A68DF4C599E48B9B83B28FACE&assignmentId=59536e3e-aa68-4b2f-9b35-badb49812b4e&projectId=bea99957-1862-4ad8-9558-57b91e42ce64","","null","<div style=""display: flex; justify-content: center; align-items: center;"">
                    <img src=""images/causal/causal_series_5/causal_series_5_a.jpg"" style=""width: 300px; height: 300px;"" />
                  </div>","null","",""
"","","","","","html-keyboard-response","77","224189","0.0-56.0-1.0","FCDBC73A68DF4C599E48B9B83B28FACE","FCDBC73A68DF4C599E48B9B83B28FACE","59536e3e-aa68-4b2f-9b35-badb49812b4e","bea99957-1862-4ad8-9558-57b91e42ce64","{""participantId"":""FCDBC73A68DF4C599E48B9B83B28FACE"",""assignmentId"":""59536e3e-aa68-4b2f-9b35-badb49812b4e"",""projectId"":""bea99957-1862-4ad8-9558-57b91e42ce64""}","https://test12345.live/?participantId=FCDBC73A68DF4C599E48B9B83B28FACE&assignmentId=59536e3e-aa68-4b2f-9b35-badb49812b4e&projectId=bea99957-1862-4ad8-9558-57b91e42ce64","","null","<div style=""display: flex; justify-content: center; align-items: center;"">
                    <img src=""images/causal/causal_series_5/causal_series_5_b.jpg"" style=""width: 300px; height: 300px;"" />
                  </div>","null","",""
"","","","","","html-keyboard-response","78","227200","0.0-56.0-2.0","FCDBC73A68DF4C599E48B9B83B28FACE","FCDBC73A68DF4C599E48B9B83B28FACE","59536e3e-aa68-4b2f-9b35-badb49812b4e","bea99957-1862-4ad8-9558-57b91e42ce64","{""participantId"":""FCDBC73A68DF4C599E48B9B83B28FACE"",""assignmentId"":""59536e3e-aa68-4b2f-9b35-badb49812b4e"",""projectId"":""bea99957-1862-4ad8-9558-57b91e42ce64""}","https://test12345.live/?participantId=FCDBC73A68DF4C599E48B9B83B28FACE&assignmentId=59536e3e-aa68-4b2f-9b35-badb49812b4e&projectId=bea99957-1862-4ad8-9558-57b91e42ce64","","null","<div style=""display: flex; justify-content: center; align-items: center;"">
                    <img src=""images/causal/causal_series_5/causal_series_5_c.jpg"" style=""width: 300px; height: 300px;"" />
                  </div>","null","",""
"","","","","","html-keyboard-response","79","230209","0.0-56.0-3.0","FCDBC73A68DF4C599E48B9B83B28FACE","FCDBC73A68DF4C599E48B9B83B28FACE","59536e3e-aa68-4b2f-9b35-badb49812b4e","bea99957-1862-4ad8-9558-57b91e42ce64","{""participantId"":""FCDBC73A68DF4C599E48B9B83B28FACE"",""assignmentId"":""59536e3e-aa68-4b2f-9b35-badb49812b4e"",""projectId"":""bea99957-1862-4ad8-9558-57b91e42ce64""}","https://test12345.live/?participantId=FCDBC73A68DF4C599E48B9B83B28FACE&assignmentId=59536e3e-aa68-4b2f-9b35-badb49812b4e&projectId=bea99957-1862-4ad8-9558-57b91e42ce64","","null","<div style=""display: flex; justify-content: center; align-items: center;"">
                    <img src=""images/causal/causal_series_5/causal_series_5_d.jpg"" style=""width: 300px; height: 300px;"" />
                  </div>","null","",""
"","","","","","html-button-response","80","231678","0.0-58.0","FCDBC73A68DF4C599E48B9B83B28FACE","FCDBC73A68DF4C599E48B9B83B28FACE","59536e3e-aa68-4b2f-9b35-badb49812b4e","bea99957-1862-4ad8-9558-57b91e42ce64","{""participantId"":""FCDBC73A68DF4C599E48B9B83B28FACE"",""assignmentId"":""59536e3e-aa68-4b2f-9b35-badb49812b4e"",""projectId"":""bea99957-1862-4ad8-9558-57b91e42ce64""}","https://test12345.live/?participantId=FCDBC73A68DF4C599E48B9B83B28FACE&assignmentId=59536e3e-aa68-4b2f-9b35-badb49812b4e&projectId=bea99957-1862-4ad8-9558-57b91e42ce64","","1468","Was there a person in the picture?","0","",""
"","","","","","survey-likert","81","234356","0.0-59.0","FCDBC73A68DF4C599E48B9B83B28FACE","FCDBC73A68DF4C599E48B9B83B28FACE","59536e3e-aa68-4b2f-9b35-badb49812b4e","bea99957-1862-4ad8-9558-57b91e42ce64","{""participantId"":""FCDBC73A68DF4C599E48B9B83B28FACE"",""assignmentId"":""59536e3e-aa68-4b2f-9b35-badb49812b4e"",""projectId"":""bea99957-1862-4ad8-9558-57b91e42ce64""}","https://test12345.live/?participantId=FCDBC73A68DF4C599E48B9B83B28FACE&assignmentId=59536e3e-aa68-4b2f-9b35-badb49812b4e&projectId=bea99957-1862-4ad8-9558-57b91e42ce64","","2677","","{""Q0"":3}","","[0]"
"","","","","","html-button-response","82","235548","0.0-60.0","FCDBC73A68DF4C599E48B9B83B28FACE","FCDBC73A68DF4C599E48B9B83B28FACE","59536e3e-aa68-4b2f-9b35-badb49812b4e","bea99957-1862-4ad8-9558-57b91e42ce64","{""participantId"":""FCDBC73A68DF4C599E48B9B83B28FACE"",""assignmentId"":""59536e3e-aa68-4b2f-9b35-badb49812b4e"",""projectId"":""bea99957-1862-4ad8-9558-57b91e42ce64""}","https://test12345.live/?participantId=FCDBC73A68DF4C599E48B9B83B28FACE&assignmentId=59536e3e-aa68-4b2f-9b35-badb49812b4e&projectId=bea99957-1862-4ad8-9558-57b91e42ce64","","1190","
    <div style=""display: flex; justify-content: center; align-items: center;"">
      <img src=""images/red_deck_2.png"" style=""width: 300px; height: 300px; margin-right: 10px;"" />
      <img src=""images/blue_deck_1.png"" style=""width: 300px; height: 300px;"" />
    </div>","1","1",""
"","","","","","html-keyboard-response","83","238558","0.0-61.0-0.0","FCDBC73A68DF4C599E48B9B83B28FACE","FCDBC73A68DF4C599E48B9B83B28FACE","59536e3e-aa68-4b2f-9b35-badb49812b4e","bea99957-1862-4ad8-9558-57b91e42ce64","{""participantId"":""FCDBC73A68DF4C599E48B9B83B28FACE"",""assignmentId"":""59536e3e-aa68-4b2f-9b35-badb49812b4e"",""projectId"":""bea99957-1862-4ad8-9558-57b91e42ce64""}","https://test12345.live/?participantId=FCDBC73A68DF4C599E48B9B83B28FACE&assignmentId=59536e3e-aa68-4b2f-9b35-badb49812b4e&projectId=bea99957-1862-4ad8-9558-57b91e42ce64","","null","<div style=""display: flex; justify-content: center; align-items: center;"">
                    <img src=""images/causal/causal_series_13/causal_series_13_a.jpg"" style=""width: 300px; height: 300px;"" />
                  </div>","null","",""
"","","","","","html-keyboard-response","84","241566","0.0-61.0-1.0","FCDBC73A68DF4C599E48B9B83B28FACE","FCDBC73A68DF4C599E48B9B83B28FACE","59536e3e-aa68-4b2f-9b35-badb49812b4e","bea99957-1862-4ad8-9558-57b91e42ce64","{""participantId"":""FCDBC73A68DF4C599E48B9B83B28FACE"",""assignmentId"":""59536e3e-aa68-4b2f-9b35-badb49812b4e"",""projectId"":""bea99957-1862-4ad8-9558-57b91e42ce64""}","https://test12345.live/?participantId=FCDBC73A68DF4C599E48B9B83B28FACE&assignmentId=59536e3e-aa68-4b2f-9b35-badb49812b4e&projectId=bea99957-1862-4ad8-9558-57b91e42ce64","","null","<div style=""display: flex; justify-content: center; align-items: center;"">
                    <img src=""images/causal/causal_series_13/causal_series_13_b.jpg"" style=""width: 300px; height: 300px;"" />
                  </div>","null","",""
"","","","","","html-keyboard-response","85","244570","0.0-61.0-2.0","FCDBC73A68DF4C599E48B9B83B28FACE","FCDBC73A68DF4C599E48B9B83B28FACE","59536e3e-aa68-4b2f-9b35-badb49812b4e","bea99957-1862-4ad8-9558-57b91e42ce64","{""participantId"":""FCDBC73A68DF4C599E48B9B83B28FACE"",""assignmentId"":""59536e3e-aa68-4b2f-9b35-badb49812b4e"",""projectId"":""bea99957-1862-4ad8-9558-57b91e42ce64""}","https://test12345.live/?participantId=FCDBC73A68DF4C599E48B9B83B28FACE&assignmentId=59536e3e-aa68-4b2f-9b35-badb49812b4e&projectId=bea99957-1862-4ad8-9558-57b91e42ce64","","null","<div style=""display: flex; justify-content: center; align-items: center;"">
                    <img src=""images/causal/causal_series_13/causal_series_13_c.jpg"" style=""width: 300px; height: 300px;"" />
                  </div>","null","",""
"","","","","","html-keyboard-response","86","247575","0.0-61.0-3.0","FCDBC73A68DF4C599E48B9B83B28FACE","FCDBC73A68DF4C599E48B9B83B28FACE","59536e3e-aa68-4b2f-9b35-badb49812b4e","bea99957-1862-4ad8-9558-57b91e42ce64","{""participantId"":""FCDBC73A68DF4C599E48B9B83B28FACE"",""assignmentId"":""59536e3e-aa68-4b2f-9b35-badb49812b4e"",""projectId"":""bea99957-1862-4ad8-9558-57b91e42ce64""}","https://test12345.live/?participantId=FCDBC73A68DF4C599E48B9B83B28FACE&assignmentId=59536e3e-aa68-4b2f-9b35-badb49812b4e&projectId=bea99957-1862-4ad8-9558-57b91e42ce64","","null","<div style=""display: flex; justify-content: center; align-items: center;"">
                    <img src=""images/causal/causal_series_13/causal_series_13_d.jpg"" style=""width: 300px; height: 300px;"" />
                  </div>","null","",""
"","","","","","html-button-response","87","248567","0.0-63.0","FCDBC73A68DF4C599E48B9B83B28FACE","FCDBC73A68DF4C599E48B9B83B28FACE","59536e3e-aa68-4b2f-9b35-badb49812b4e","bea99957-1862-4ad8-9558-57b91e42ce64","{""participantId"":""FCDBC73A68DF4C599E48B9B83B28FACE"",""assignmentId"":""59536e3e-aa68-4b2f-9b35-badb49812b4e"",""projectId"":""bea99957-1862-4ad8-9558-57b91e42ce64""}","https://test12345.live/?participantId=FCDBC73A68DF4C599E48B9B83B28FACE&assignmentId=59536e3e-aa68-4b2f-9b35-badb49812b4e&projectId=bea99957-1862-4ad8-9558-57b91e42ce64","","991","Was there a person in the picture?","0","",""
"","","","","","survey-likert","88","250485","0.0-64.0","FCDBC73A68DF4C599E48B9B83B28FACE","FCDBC73A68DF4C599E48B9B83B28FACE","59536e3e-aa68-4b2f-9b35-badb49812b4e","bea99957-1862-4ad8-9558-57b91e42ce64","{""participantId"":""FCDBC73A68DF4C599E48B9B83B28FACE"",""assignmentId"":""59536e3e-aa68-4b2f-9b35-badb49812b4e"",""projectId"":""bea99957-1862-4ad8-9558-57b91e42ce64""}","https://test12345.live/?participantId=FCDBC73A68DF4C599E48B9B83B28FACE&assignmentId=59536e3e-aa68-4b2f-9b35-badb49812b4e&projectId=bea99957-1862-4ad8-9558-57b91e42ce64","","1917","","{""Q0"":1}","","[0]"
"","","","","","html-button-response","89","251543","0.0-65.0","FCDBC73A68DF4C599E48B9B83B28FACE","FCDBC73A68DF4C599E48B9B83B28FACE","59536e3e-aa68-4b2f-9b35-badb49812b4e","bea99957-1862-4ad8-9558-57b91e42ce64","{""participantId"":""FCDBC73A68DF4C599E48B9B83B28FACE"",""assignmentId"":""59536e3e-aa68-4b2f-9b35-badb49812b4e"",""projectId"":""bea99957-1862-4ad8-9558-57b91e42ce64""}","https://test12345.live/?participantId=FCDBC73A68DF4C599E48B9B83B28FACE&assignmentId=59536e3e-aa68-4b2f-9b35-badb49812b4e&projectId=bea99957-1862-4ad8-9558-57b91e42ce64","","1057","
    <div style=""display: flex; justify-content: center; align-items: center;"">
      <img src=""images/red_deck_2.png"" style=""width: 300px; height: 300px; margin-right: 10px;"" />
      <img src=""images/blue_deck_1.png"" style=""width: 300px; height: 300px;"" />
    </div>","1","1",""
"","","","","","html-keyboard-response","90","254556","0.0-66.0-0.0","FCDBC73A68DF4C599E48B9B83B28FACE","FCDBC73A68DF4C599E48B9B83B28FACE","59536e3e-aa68-4b2f-9b35-badb49812b4e","bea99957-1862-4ad8-9558-57b91e42ce64","{""participantId"":""FCDBC73A68DF4C599E48B9B83B28FACE"",""assignmentId"":""59536e3e-aa68-4b2f-9b35-badb49812b4e"",""projectId"":""bea99957-1862-4ad8-9558-57b91e42ce64""}","https://test12345.live/?participantId=FCDBC73A68DF4C599E48B9B83B28FACE&assignmentId=59536e3e-aa68-4b2f-9b35-badb49812b4e&projectId=bea99957-1862-4ad8-9558-57b91e42ce64","","null","<div style=""display: flex; justify-content: center; align-items: center;"">
                    <img src=""images/causal/causal_series_9/causal_series_9_a.jpg"" style=""width: 300px; height: 300px;"" />
                  </div>","null","",""
"","","","","","html-keyboard-response","91","257571","0.0-66.0-1.0","FCDBC73A68DF4C599E48B9B83B28FACE","FCDBC73A68DF4C599E48B9B83B28FACE","59536e3e-aa68-4b2f-9b35-badb49812b4e","bea99957-1862-4ad8-9558-57b91e42ce64","{""participantId"":""FCDBC73A68DF4C599E48B9B83B28FACE"",""assignmentId"":""59536e3e-aa68-4b2f-9b35-badb49812b4e"",""projectId"":""bea99957-1862-4ad8-9558-57b91e42ce64""}","https://test12345.live/?participantId=FCDBC73A68DF4C599E48B9B83B28FACE&assignmentId=59536e3e-aa68-4b2f-9b35-badb49812b4e&projectId=bea99957-1862-4ad8-9558-57b91e42ce64","","null","<div style=""display: flex; justify-content: center; align-items: center;"">
                    <img src=""images/causal/causal_series_9/causal_series_9_b.jpg"" style=""width: 300px; height: 300px;"" />
                  </div>","null","",""
"","","","","","html-keyboard-response","92","260588","0.0-66.0-2.0","FCDBC73A68DF4C599E48B9B83B28FACE","FCDBC73A68DF4C599E48B9B83B28FACE","59536e3e-aa68-4b2f-9b35-badb49812b4e","bea99957-1862-4ad8-9558-57b91e42ce64","{""participantId"":""FCDBC73A68DF4C599E48B9B83B28FACE"",""assignmentId"":""59536e3e-aa68-4b2f-9b35-badb49812b4e"",""projectId"":""bea99957-1862-4ad8-9558-57b91e42ce64""}","https://test12345.live/?participantId=FCDBC73A68DF4C599E48B9B83B28FACE&assignmentId=59536e3e-aa68-4b2f-9b35-badb49812b4e&projectId=bea99957-1862-4ad8-9558-57b91e42ce64","","null","<div style=""display: flex; justify-content: center; align-items: center;"">
                    <img src=""images/causal/causal_series_9/causal_series_9_c.jpg"" style=""width: 300px; height: 300px;"" />
                  </div>","null","",""
"","","","","","html-keyboard-response","93","263603","0.0-66.0-3.0","FCDBC73A68DF4C599E48B9B83B28FACE","FCDBC73A68DF4C599E48B9B83B28FACE","59536e3e-aa68-4b2f-9b35-badb49812b4e","bea99957-1862-4ad8-9558-57b91e42ce64","{""participantId"":""FCDBC73A68DF4C599E48B9B83B28FACE"",""assignmentId"":""59536e3e-aa68-4b2f-9b35-badb49812b4e"",""projectId"":""bea99957-1862-4ad8-9558-57b91e42ce64""}","https://test12345.live/?participantId=FCDBC73A68DF4C599E48B9B83B28FACE&assignmentId=59536e3e-aa68-4b2f-9b35-badb49812b4e&projectId=bea99957-1862-4ad8-9558-57b91e42ce64","","null","<div style=""display: flex; justify-content: center; align-items: center;"">
                    <img src=""images/causal/causal_series_9/causal_series_9_d.jpg"" style=""width: 300px; height: 300px;"" />
                  </div>","null","",""
"","","","","","html-button-response","94","265263","0.0-68.0","FCDBC73A68DF4C599E48B9B83B28FACE","FCDBC73A68DF4C599E48B9B83B28FACE","59536e3e-aa68-4b2f-9b35-badb49812b4e","bea99957-1862-4ad8-9558-57b91e42ce64","{""participantId"":""FCDBC73A68DF4C599E48B9B83B28FACE"",""assignmentId"":""59536e3e-aa68-4b2f-9b35-badb49812b4e"",""projectId"":""bea99957-1862-4ad8-9558-57b91e42ce64""}","https://test12345.live/?participantId=FCDBC73A68DF4C599E48B9B83B28FACE&assignmentId=59536e3e-aa68-4b2f-9b35-badb49812b4e&projectId=bea99957-1862-4ad8-9558-57b91e42ce64","","1658","Was there a person in the picture?","1","",""
"","","","","","survey-likert","95","267136","0.0-69.0","FCDBC73A68DF4C599E48B9B83B28FACE","FCDBC73A68DF4C599E48B9B83B28FACE","59536e3e-aa68-4b2f-9b35-badb49812b4e","bea99957-1862-4ad8-9558-57b91e42ce64","{""participantId"":""FCDBC73A68DF4C599E48B9B83B28FACE"",""assignmentId"":""59536e3e-aa68-4b2f-9b35-badb49812b4e"",""projectId"":""bea99957-1862-4ad8-9558-57b91e42ce64""}","https://test12345.live/?participantId=FCDBC73A68DF4C599E48B9B83B28FACE&assignmentId=59536e3e-aa68-4b2f-9b35-badb49812b4e&projectId=bea99957-1862-4ad8-9558-57b91e42ce64","","1872","","{""Q0"":2}","","[0]"
"","","","","","html-button-response","96","268010","0.0-70.0","FCDBC73A68DF4C599E48B9B83B28FACE","FCDBC73A68DF4C599E48B9B83B28FACE","59536e3e-aa68-4b2f-9b35-badb49812b4e","bea99957-1862-4ad8-9558-57b91e42ce64","{""participantId"":""FCDBC73A68DF4C599E48B9B83B28FACE"",""assignmentId"":""59536e3e-aa68-4b2f-9b35-badb49812b4e"",""projectId"":""bea99957-1862-4ad8-9558-57b91e42ce64""}","https://test12345.live/?participantId=FCDBC73A68DF4C599E48B9B83B28FACE&assignmentId=59536e3e-aa68-4b2f-9b35-badb49812b4e&projectId=bea99957-1862-4ad8-9558-57b91e42ce64","","873","
    <div style=""display: flex; justify-content: center; align-items: center;"">
      <img src=""images/red_deck_2.png"" style=""width: 300px; height: 300px; margin-right: 10px;"" />
      <img src=""images/blue_deck_1.png"" style=""width: 300px; height: 300px;"" />
    </div>","1","1",""
"","","","","","html-keyboard-response","97","271017","0.0-71.0-0.0","FCDBC73A68DF4C599E48B9B83B28FACE","FCDBC73A68DF4C599E48B9B83B28FACE","59536e3e-aa68-4b2f-9b35-badb49812b4e","bea99957-1862-4ad8-9558-57b91e42ce64","{""participantId"":""FCDBC73A68DF4C599E48B9B83B28FACE"",""assignmentId"":""59536e3e-aa68-4b2f-9b35-badb49812b4e"",""projectId"":""bea99957-1862-4ad8-9558-57b91e42ce64""}","https://test12345.live/?participantId=FCDBC73A68DF4C599E48B9B83B28FACE&assignmentId=59536e3e-aa68-4b2f-9b35-badb49812b4e&projectId=bea99957-1862-4ad8-9558-57b91e42ce64","","null","<div style=""display: flex; justify-content: center; align-items: center;"">
                    <img src=""images/causal/causal_series_6/causal_series_6_a.jpg"" style=""width: 300px; height: 300px;"" />
                  </div>","null","",""
"","","","","","html-keyboard-response","98","274019","0.0-71.0-1.0","FCDBC73A68DF4C599E48B9B83B28FACE","FCDBC73A68DF4C599E48B9B83B28FACE","59536e3e-aa68-4b2f-9b35-badb49812b4e","bea99957-1862-4ad8-9558-57b91e42ce64","{""participantId"":""FCDBC73A68DF4C599E48B9B83B28FACE"",""assignmentId"":""59536e3e-aa68-4b2f-9b35-badb49812b4e"",""projectId"":""bea99957-1862-4ad8-9558-57b91e42ce64""}","https://test12345.live/?participantId=FCDBC73A68DF4C599E48B9B83B28FACE&assignmentId=59536e3e-aa68-4b2f-9b35-badb49812b4e&projectId=bea99957-1862-4ad8-9558-57b91e42ce64","","null","<div style=""display: flex; justify-content: center; align-items: center;"">
                    <img src=""images/causal/causal_series_6/causal_series_6_b.jpg"" style=""width: 300px; height: 300px;"" />
                  </div>","null","",""
"","","","","","html-keyboard-response","99","277031","0.0-71.0-2.0","FCDBC73A68DF4C599E48B9B83B28FACE","FCDBC73A68DF4C599E48B9B83B28FACE","59536e3e-aa68-4b2f-9b35-badb49812b4e","bea99957-1862-4ad8-9558-57b91e42ce64","{""participantId"":""FCDBC73A68DF4C599E48B9B83B28FACE"",""assignmentId"":""59536e3e-aa68-4b2f-9b35-badb49812b4e"",""projectId"":""bea99957-1862-4ad8-9558-57b91e42ce64""}","https://test12345.live/?participantId=FCDBC73A68DF4C599E48B9B83B28FACE&assignmentId=59536e3e-aa68-4b2f-9b35-badb49812b4e&projectId=bea99957-1862-4ad8-9558-57b91e42ce64","","null","<div style=""display: flex; justify-content: center; align-items: center;"">
                    <img src=""images/causal/causal_series_6/causal_series_6_c.jpg"" style=""width: 300px; height: 300px;"" />
                  </div>","null","",""
"","","","","","html-keyboard-response","100","280032","0.0-71.0-3.0","FCDBC73A68DF4C599E48B9B83B28FACE","FCDBC73A68DF4C599E48B9B83B28FACE","59536e3e-aa68-4b2f-9b35-badb49812b4e","bea99957-1862-4ad8-9558-57b91e42ce64","{""participantId"":""FCDBC73A68DF4C599E48B9B83B28FACE"",""assignmentId"":""59536e3e-aa68-4b2f-9b35-badb49812b4e"",""projectId"":""bea99957-1862-4ad8-9558-57b91e42ce64""}","https://test12345.live/?participantId=FCDBC73A68DF4C599E48B9B83B28FACE&assignmentId=59536e3e-aa68-4b2f-9b35-badb49812b4e&projectId=bea99957-1862-4ad8-9558-57b91e42ce64","","null","<div style=""display: flex; justify-content: center; align-items: center;"">
                    <img src=""images/causal/causal_series_6/causal_series_6_d.jpg"" style=""width: 300px; height: 300px;"" />
                  </div>","null","",""
"","","","","","html-button-response","101","281907","0.0-73.0","FCDBC73A68DF4C599E48B9B83B28FACE","FCDBC73A68DF4C599E48B9B83B28FACE","59536e3e-aa68-4b2f-9b35-badb49812b4e","bea99957-1862-4ad8-9558-57b91e42ce64","{""participantId"":""FCDBC73A68DF4C599E48B9B83B28FACE"",""assignmentId"":""59536e3e-aa68-4b2f-9b35-badb49812b4e"",""projectId"":""bea99957-1862-4ad8-9558-57b91e42ce64""}","https://test12345.live/?participantId=FCDBC73A68DF4C599E48B9B83B28FACE&assignmentId=59536e3e-aa68-4b2f-9b35-badb49812b4e&projectId=bea99957-1862-4ad8-9558-57b91e42ce64","","1873","Was there a person in the picture?","1","",""
"","","","","","survey-likert","102","284539","0.0-74.0","FCDBC73A68DF4C599E48B9B83B28FACE","FCDBC73A68DF4C599E48B9B83B28FACE","59536e3e-aa68-4b2f-9b35-badb49812b4e","bea99957-1862-4ad8-9558-57b91e42ce64","{""participantId"":""FCDBC73A68DF4C599E48B9B83B28FACE"",""assignmentId"":""59536e3e-aa68-4b2f-9b35-badb49812b4e"",""projectId"":""bea99957-1862-4ad8-9558-57b91e42ce64""}","https://test12345.live/?participantId=FCDBC73A68DF4C599E48B9B83B28FACE&assignmentId=59536e3e-aa68-4b2f-9b35-badb49812b4e&projectId=bea99957-1862-4ad8-9558-57b91e42ce64","","2632","","{""Q0"":3}","","[0]"
"","","","","","html-button-response","103","285492","0.0-75.0","FCDBC73A68DF4C599E48B9B83B28FACE","FCDBC73A68DF4C599E48B9B83B28FACE","59536e3e-aa68-4b2f-9b35-badb49812b4e","bea99957-1862-4ad8-9558-57b91e42ce64","{""participantId"":""FCDBC73A68DF4C599E48B9B83B28FACE"",""assignmentId"":""59536e3e-aa68-4b2f-9b35-badb49812b4e"",""projectId"":""bea99957-1862-4ad8-9558-57b91e42ce64""}","https://test12345.live/?participantId=FCDBC73A68DF4C599E48B9B83B28FACE&assignmentId=59536e3e-aa68-4b2f-9b35-badb49812b4e&projectId=bea99957-1862-4ad8-9558-57b91e42ce64","","952","
    <div style=""display: flex; justify-content: center; align-items: center;"">
      <img src=""images/red_deck_2.png"" style=""width: 300px; height: 300px; margin-right: 10px;"" />
      <img src=""images/blue_deck_1.png"" style=""width: 300px; height: 300px;"" />
    </div>","1","1",""
"","","","","","html-keyboard-response","104","288505","0.0-76.0-0.0","FCDBC73A68DF4C599E48B9B83B28FACE","FCDBC73A68DF4C599E48B9B83B28FACE","59536e3e-aa68-4b2f-9b35-badb49812b4e","bea99957-1862-4ad8-9558-57b91e42ce64","{""participantId"":""FCDBC73A68DF4C599E48B9B83B28FACE"",""assignmentId"":""59536e3e-aa68-4b2f-9b35-badb49812b4e"",""projectId"":""bea99957-1862-4ad8-9558-57b91e42ce64""}","https://test12345.live/?participantId=FCDBC73A68DF4C599E48B9B83B28FACE&assignmentId=59536e3e-aa68-4b2f-9b35-badb49812b4e&projectId=bea99957-1862-4ad8-9558-57b91e42ce64","","null","<div style=""display: flex; justify-content: center; align-items: center;"">
                    <img src=""images/causal/causal_series_2/causal_series_2_a.jpg"" style=""width: 300px; height: 300px;"" />
                  </div>","null","",""
"","","","","","html-keyboard-response","105","291516","0.0-76.0-1.0","FCDBC73A68DF4C599E48B9B83B28FACE","FCDBC73A68DF4C599E48B9B83B28FACE","59536e3e-aa68-4b2f-9b35-badb49812b4e","bea99957-1862-4ad8-9558-57b91e42ce64","{""participantId"":""FCDBC73A68DF4C599E48B9B83B28FACE"",""assignmentId"":""59536e3e-aa68-4b2f-9b35-badb49812b4e"",""projectId"":""bea99957-1862-4ad8-9558-57b91e42ce64""}","https://test12345.live/?participantId=FCDBC73A68DF4C599E48B9B83B28FACE&assignmentId=59536e3e-aa68-4b2f-9b35-badb49812b4e&projectId=bea99957-1862-4ad8-9558-57b91e42ce64","","null","<div style=""display: flex; justify-content: center; align-items: center;"">
                    <img src=""images/causal/causal_series_2/causal_series_2_b.jpg"" style=""width: 300px; height: 300px;"" />
                  </div>","null","",""
"","","","","","html-keyboard-response","106","294521","0.0-76.0-2.0","FCDBC73A68DF4C599E48B9B83B28FACE","FCDBC73A68DF4C599E48B9B83B28FACE","59536e3e-aa68-4b2f-9b35-badb49812b4e","bea99957-1862-4ad8-9558-57b91e42ce64","{""participantId"":""FCDBC73A68DF4C599E48B9B83B28FACE"",""assignmentId"":""59536e3e-aa68-4b2f-9b35-badb49812b4e"",""projectId"":""bea99957-1862-4ad8-9558-57b91e42ce64""}","https://test12345.live/?participantId=FCDBC73A68DF4C599E48B9B83B28FACE&assignmentId=59536e3e-aa68-4b2f-9b35-badb49812b4e&projectId=bea99957-1862-4ad8-9558-57b91e42ce64","","null","<div style=""display: flex; justify-content: center; align-items: center;"">
                    <img src=""images/causal/causal_series_2/causal_series_2_c.jpg"" style=""width: 300px; height: 300px;"" />
                  </div>","null","",""
"","","","","","html-keyboard-response","107","297530","0.0-76.0-3.0","FCDBC73A68DF4C599E48B9B83B28FACE","FCDBC73A68DF4C599E48B9B83B28FACE","59536e3e-aa68-4b2f-9b35-badb49812b4e","bea99957-1862-4ad8-9558-57b91e42ce64","{""participantId"":""FCDBC73A68DF4C599E48B9B83B28FACE"",""assignmentId"":""59536e3e-aa68-4b2f-9b35-badb49812b4e"",""projectId"":""bea99957-1862-4ad8-9558-57b91e42ce64""}","https://test12345.live/?participantId=FCDBC73A68DF4C599E48B9B83B28FACE&assignmentId=59536e3e-aa68-4b2f-9b35-badb49812b4e&projectId=bea99957-1862-4ad8-9558-57b91e42ce64","","null","<div style=""display: flex; justify-content: center; align-items: center;"">
                    <img src=""images/causal/causal_series_2/causal_series_2_d.jpg"" style=""width: 300px; height: 300px;"" />
                  </div>","null","",""
"","","","","","html-button-response","108","299948","0.0-78.0","FCDBC73A68DF4C599E48B9B83B28FACE","FCDBC73A68DF4C599E48B9B83B28FACE","59536e3e-aa68-4b2f-9b35-badb49812b4e","bea99957-1862-4ad8-9558-57b91e42ce64","{""participantId"":""FCDBC73A68DF4C599E48B9B83B28FACE"",""assignmentId"":""59536e3e-aa68-4b2f-9b35-badb49812b4e"",""projectId"":""bea99957-1862-4ad8-9558-57b91e42ce64""}","https://test12345.live/?participantId=FCDBC73A68DF4C599E48B9B83B28FACE&assignmentId=59536e3e-aa68-4b2f-9b35-badb49812b4e&projectId=bea99957-1862-4ad8-9558-57b91e42ce64","","2403","Was there a person in the picture?","0","",""
"","","","","","survey-likert","109","304507","0.0-79.0","FCDBC73A68DF4C599E48B9B83B28FACE","FCDBC73A68DF4C599E48B9B83B28FACE","59536e3e-aa68-4b2f-9b35-badb49812b4e","bea99957-1862-4ad8-9558-57b91e42ce64","{""participantId"":""FCDBC73A68DF4C599E48B9B83B28FACE"",""assignmentId"":""59536e3e-aa68-4b2f-9b35-badb49812b4e"",""projectId"":""bea99957-1862-4ad8-9558-57b91e42ce64""}","https://test12345.live/?participantId=FCDBC73A68DF4C599E48B9B83B28FACE&assignmentId=59536e3e-aa68-4b2f-9b35-badb49812b4e&projectId=bea99957-1862-4ad8-9558-57b91e42ce64","","4558","","{""Q0"":1}","","[0]"
"","","","","","html-button-response","110","305451","0.0-80.0","FCDBC73A68DF4C599E48B9B83B28FACE","FCDBC73A68DF4C599E48B9B83B28FACE","59536e3e-aa68-4b2f-9b35-badb49812b4e","bea99957-1862-4ad8-9558-57b91e42ce64","{""participantId"":""FCDBC73A68DF4C599E48B9B83B28FACE"",""assignmentId"":""59536e3e-aa68-4b2f-9b35-badb49812b4e"",""projectId"":""bea99957-1862-4ad8-9558-57b91e42ce64""}","https://test12345.live/?participantId=FCDBC73A68DF4C599E48B9B83B28FACE&assignmentId=59536e3e-aa68-4b2f-9b35-badb49812b4e&projectId=bea99957-1862-4ad8-9558-57b91e42ce64","","943","
    <div style=""display: flex; justify-content: center; align-items: center;"">
      <img src=""images/red_deck_2.png"" style=""width: 300px; height: 300px; margin-right: 10px;"" />
      <img src=""images/blue_deck_1.png"" style=""width: 300px; height: 300px;"" />
    </div>","1","1",""
"","","","","","html-keyboard-response","111","308464","0.0-81.0-0.0","FCDBC73A68DF4C599E48B9B83B28FACE","FCDBC73A68DF4C599E48B9B83B28FACE","59536e3e-aa68-4b2f-9b35-badb49812b4e","bea99957-1862-4ad8-9558-57b91e42ce64","{""participantId"":""FCDBC73A68DF4C599E48B9B83B28FACE"",""assignmentId"":""59536e3e-aa68-4b2f-9b35-badb49812b4e"",""projectId"":""bea99957-1862-4ad8-9558-57b91e42ce64""}","https://test12345.live/?participantId=FCDBC73A68DF4C599E48B9B83B28FACE&assignmentId=59536e3e-aa68-4b2f-9b35-badb49812b4e&projectId=bea99957-1862-4ad8-9558-57b91e42ce64","","null","<div style=""display: flex; justify-content: center; align-items: center;"">
                    <img src=""images/causal/causal_series_12/causal_series_12_a.jpg"" style=""width: 300px; height: 300px;"" />
                  </div>","null","",""
"","","","","","html-keyboard-response","112","311466","0.0-81.0-1.0","FCDBC73A68DF4C599E48B9B83B28FACE","FCDBC73A68DF4C599E48B9B83B28FACE","59536e3e-aa68-4b2f-9b35-badb49812b4e","bea99957-1862-4ad8-9558-57b91e42ce64","{""participantId"":""FCDBC73A68DF4C599E48B9B83B28FACE"",""assignmentId"":""59536e3e-aa68-4b2f-9b35-badb49812b4e"",""projectId"":""bea99957-1862-4ad8-9558-57b91e42ce64""}","https://test12345.live/?participantId=FCDBC73A68DF4C599E48B9B83B28FACE&assignmentId=59536e3e-aa68-4b2f-9b35-badb49812b4e&projectId=bea99957-1862-4ad8-9558-57b91e42ce64","","null","<div style=""display: flex; justify-content: center; align-items: center;"">
                    <img src=""images/causal/causal_series_12/causal_series_12_b.jpg"" style=""width: 300px; height: 300px;"" />
                  </div>","null","",""
"","","","","","html-keyboard-response","113","314481","0.0-81.0-2.0","FCDBC73A68DF4C599E48B9B83B28FACE","FCDBC73A68DF4C599E48B9B83B28FACE","59536e3e-aa68-4b2f-9b35-badb49812b4e","bea99957-1862-4ad8-9558-57b91e42ce64","{""participantId"":""FCDBC73A68DF4C599E48B9B83B28FACE"",""assignmentId"":""59536e3e-aa68-4b2f-9b35-badb49812b4e"",""projectId"":""bea99957-1862-4ad8-9558-57b91e42ce64""}","https://test12345.live/?participantId=FCDBC73A68DF4C599E48B9B83B28FACE&assignmentId=59536e3e-aa68-4b2f-9b35-badb49812b4e&projectId=bea99957-1862-4ad8-9558-57b91e42ce64","","null","<div style=""display: flex; justify-content: center; align-items: center;"">
                    <img src=""images/causal/causal_series_12/causal_series_12_c.jpg"" style=""width: 300px; height: 300px;"" />
                  </div>","null","",""
"","","","","","html-keyboard-response","114","317494","0.0-81.0-3.0","FCDBC73A68DF4C599E48B9B83B28FACE","FCDBC73A68DF4C599E48B9B83B28FACE","59536e3e-aa68-4b2f-9b35-badb49812b4e","bea99957-1862-4ad8-9558-57b91e42ce64","{""participantId"":""FCDBC73A68DF4C599E48B9B83B28FACE"",""assignmentId"":""59536e3e-aa68-4b2f-9b35-badb49812b4e"",""projectId"":""bea99957-1862-4ad8-9558-57b91e42ce64""}","https://test12345.live/?participantId=FCDBC73A68DF4C599E48B9B83B28FACE&assignmentId=59536e3e-aa68-4b2f-9b35-badb49812b4e&projectId=bea99957-1862-4ad8-9558-57b91e42ce64","","null","<div style=""display: flex; justify-content: center; align-items: center;"">
                    <img src=""images/causal/causal_series_12/causal_series_12_d.jpg"" style=""width: 300px; height: 300px;"" />
                  </div>","null","",""
"","","","","","html-button-response","115","319101","0.0-83.0","FCDBC73A68DF4C599E48B9B83B28FACE","FCDBC73A68DF4C599E48B9B83B28FACE","59536e3e-aa68-4b2f-9b35-badb49812b4e","bea99957-1862-4ad8-9558-57b91e42ce64","{""participantId"":""FCDBC73A68DF4C599E48B9B83B28FACE"",""assignmentId"":""59536e3e-aa68-4b2f-9b35-badb49812b4e"",""projectId"":""bea99957-1862-4ad8-9558-57b91e42ce64""}","https://test12345.live/?participantId=FCDBC73A68DF4C599E48B9B83B28FACE&assignmentId=59536e3e-aa68-4b2f-9b35-badb49812b4e&projectId=bea99957-1862-4ad8-9558-57b91e42ce64","","1606","Was there a person in the picture?","1","",""
"","","","","","survey-likert","116","321307","0.0-84.0","FCDBC73A68DF4C599E48B9B83B28FACE","FCDBC73A68DF4C599E48B9B83B28FACE","59536e3e-aa68-4b2f-9b35-badb49812b4e","bea99957-1862-4ad8-9558-57b91e42ce64","{""participantId"":""FCDBC73A68DF4C599E48B9B83B28FACE"",""assignmentId"":""59536e3e-aa68-4b2f-9b35-badb49812b4e"",""projectId"":""bea99957-1862-4ad8-9558-57b91e42ce64""}","https://test12345.live/?participantId=FCDBC73A68DF4C599E48B9B83B28FACE&assignmentId=59536e3e-aa68-4b2f-9b35-badb49812b4e&projectId=bea99957-1862-4ad8-9558-57b91e42ce64","","2205","","{""Q0"":2}","","[0]"
"","","","","","html-button-response","117","322541","0.0-85.0","FCDBC73A68DF4C599E48B9B83B28FACE","FCDBC73A68DF4C599E48B9B83B28FACE","59536e3e-aa68-4b2f-9b35-badb49812b4e","bea99957-1862-4ad8-9558-57b91e42ce64","{""participantId"":""FCDBC73A68DF4C599E48B9B83B28FACE"",""assignmentId"":""59536e3e-aa68-4b2f-9b35-badb49812b4e"",""projectId"":""bea99957-1862-4ad8-9558-57b91e42ce64""}","https://test12345.live/?participantId=FCDBC73A68DF4C599E48B9B83B28FACE&assignmentId=59536e3e-aa68-4b2f-9b35-badb49812b4e&projectId=bea99957-1862-4ad8-9558-57b91e42ce64","","1233","
    <div style=""display: flex; justify-content: center; align-items: center;"">
      <img src=""images/red_deck_2.png"" style=""width: 300px; height: 300px; margin-right: 10px;"" />
      <img src=""images/blue_deck_1.png"" style=""width: 300px; height: 300px;"" />
    </div>","1","1",""
"","","","","","html-keyboard-response","118","325556","0.0-86.0-0.0","FCDBC73A68DF4C599E48B9B83B28FACE","FCDBC73A68DF4C599E48B9B83B28FACE","59536e3e-aa68-4b2f-9b35-badb49812b4e","bea99957-1862-4ad8-9558-57b91e42ce64","{""participantId"":""FCDBC73A68DF4C599E48B9B83B28FACE"",""assignmentId"":""59536e3e-aa68-4b2f-9b35-badb49812b4e"",""projectId"":""bea99957-1862-4ad8-9558-57b91e42ce64""}","https://test12345.live/?participantId=FCDBC73A68DF4C599E48B9B83B28FACE&assignmentId=59536e3e-aa68-4b2f-9b35-badb49812b4e&projectId=bea99957-1862-4ad8-9558-57b91e42ce64","","null","<div style=""display: flex; justify-content: center; align-items: center;"">
                    <img src=""images/causal/causal_series_1/causal_series_1_a.jpg"" style=""width: 300px; height: 300px;"" />
                  </div>","null","",""
"","","","","","html-keyboard-response","119","328566","0.0-86.0-1.0","FCDBC73A68DF4C599E48B9B83B28FACE","FCDBC73A68DF4C599E48B9B83B28FACE","59536e3e-aa68-4b2f-9b35-badb49812b4e","bea99957-1862-4ad8-9558-57b91e42ce64","{""participantId"":""FCDBC73A68DF4C599E48B9B83B28FACE"",""assignmentId"":""59536e3e-aa68-4b2f-9b35-badb49812b4e"",""projectId"":""bea99957-1862-4ad8-9558-57b91e42ce64""}","https://test12345.live/?participantId=FCDBC73A68DF4C599E48B9B83B28FACE&assignmentId=59536e3e-aa68-4b2f-9b35-badb49812b4e&projectId=bea99957-1862-4ad8-9558-57b91e42ce64","","null","<div style=""display: flex; justify-content: center; align-items: center;"">
                    <img src=""images/causal/causal_series_1/causal_series_1_b.jpg"" style=""width: 300px; height: 300px;"" />
                  </div>","null","",""
"","","","","","html-keyboard-response","120","331577","0.0-86.0-2.0","FCDBC73A68DF4C599E48B9B83B28FACE","FCDBC73A68DF4C599E48B9B83B28FACE","59536e3e-aa68-4b2f-9b35-badb49812b4e","bea99957-1862-4ad8-9558-57b91e42ce64","{""participantId"":""FCDBC73A68DF4C599E48B9B83B28FACE"",""assignmentId"":""59536e3e-aa68-4b2f-9b35-badb49812b4e"",""projectId"":""bea99957-1862-4ad8-9558-57b91e42ce64""}","https://test12345.live/?participantId=FCDBC73A68DF4C599E48B9B83B28FACE&assignmentId=59536e3e-aa68-4b2f-9b35-badb49812b4e&projectId=bea99957-1862-4ad8-9558-57b91e42ce64","","null","<div style=""display: flex; justify-content: center; align-items: center;"">
                    <img src=""images/causal/causal_series_1/causal_series_1_c.jpg"" style=""width: 300px; height: 300px;"" />
                  </div>","null","",""
"","","","","","html-keyboard-response","121","334581","0.0-86.0-3.0","FCDBC73A68DF4C599E48B9B83B28FACE","FCDBC73A68DF4C599E48B9B83B28FACE","59536e3e-aa68-4b2f-9b35-badb49812b4e","bea99957-1862-4ad8-9558-57b91e42ce64","{""participantId"":""FCDBC73A68DF4C599E48B9B83B28FACE"",""assignmentId"":""59536e3e-aa68-4b2f-9b35-badb49812b4e"",""projectId"":""bea99957-1862-4ad8-9558-57b91e42ce64""}","https://test12345.live/?participantId=FCDBC73A68DF4C599E48B9B83B28FACE&assignmentId=59536e3e-aa68-4b2f-9b35-badb49812b4e&projectId=bea99957-1862-4ad8-9558-57b91e42ce64","","null","<div style=""display: flex; justify-content: center; align-items: center;"">
                    <img src=""images/causal/causal_series_1/causal_series_1_d.jpg"" style=""width: 300px; height: 300px;"" />
                  </div>","null","",""
"","","","","","html-button-response","122","336856","0.0-88.0","FCDBC73A68DF4C599E48B9B83B28FACE","FCDBC73A68DF4C599E48B9B83B28FACE","59536e3e-aa68-4b2f-9b35-badb49812b4e","bea99957-1862-4ad8-9558-57b91e42ce64","{""participantId"":""FCDBC73A68DF4C599E48B9B83B28FACE"",""assignmentId"":""59536e3e-aa68-4b2f-9b35-badb49812b4e"",""projectId"":""bea99957-1862-4ad8-9558-57b91e42ce64""}","https://test12345.live/?participantId=FCDBC73A68DF4C599E48B9B83B28FACE&assignmentId=59536e3e-aa68-4b2f-9b35-badb49812b4e&projectId=bea99957-1862-4ad8-9558-57b91e42ce64","","2274","Was there a person in the picture?","1","",""
"","","","","","survey-likert","123","339053","0.0-89.0","FCDBC73A68DF4C599E48B9B83B28FACE","FCDBC73A68DF4C599E48B9B83B28FACE","59536e3e-aa68-4b2f-9b35-badb49812b4e","bea99957-1862-4ad8-9558-57b91e42ce64","{""participantId"":""FCDBC73A68DF4C599E48B9B83B28FACE"",""assignmentId"":""59536e3e-aa68-4b2f-9b35-badb49812b4e"",""projectId"":""bea99957-1862-4ad8-9558-57b91e42ce64""}","https://test12345.live/?participantId=FCDBC73A68DF4C599E48B9B83B28FACE&assignmentId=59536e3e-aa68-4b2f-9b35-badb49812b4e&projectId=bea99957-1862-4ad8-9558-57b91e42ce64","","2197","","{""Q0"":1}","","[0]"
"","","","","","html-button-response","124","340347","0.0-90.0","FCDBC73A68DF4C599E48B9B83B28FACE","FCDBC73A68DF4C599E48B9B83B28FACE","59536e3e-aa68-4b2f-9b35-badb49812b4e","bea99957-1862-4ad8-9558-57b91e42ce64","{""participantId"":""FCDBC73A68DF4C599E48B9B83B28FACE"",""assignmentId"":""59536e3e-aa68-4b2f-9b35-badb49812b4e"",""projectId"":""bea99957-1862-4ad8-9558-57b91e42ce64""}","https://test12345.live/?participantId=FCDBC73A68DF4C599E48B9B83B28FACE&assignmentId=59536e3e-aa68-4b2f-9b35-badb49812b4e&projectId=bea99957-1862-4ad8-9558-57b91e42ce64","","1293","
    <div style=""display: flex; justify-content: center; align-items: center;"">
      <img src=""images/red_deck_2.png"" style=""width: 300px; height: 300px; margin-right: 10px;"" />
      <img src=""images/blue_deck_1.png"" style=""width: 300px; height: 300px;"" />
    </div>","1","1",""
"","","","","","html-keyboard-response","125","343351","0.0-91.0-0.0","FCDBC73A68DF4C599E48B9B83B28FACE","FCDBC73A68DF4C599E48B9B83B28FACE","59536e3e-aa68-4b2f-9b35-badb49812b4e","bea99957-1862-4ad8-9558-57b91e42ce64","{""participantId"":""FCDBC73A68DF4C599E48B9B83B28FACE"",""assignmentId"":""59536e3e-aa68-4b2f-9b35-badb49812b4e"",""projectId"":""bea99957-1862-4ad8-9558-57b91e42ce64""}","https://test12345.live/?participantId=FCDBC73A68DF4C599E48B9B83B28FACE&assignmentId=59536e3e-aa68-4b2f-9b35-badb49812b4e&projectId=bea99957-1862-4ad8-9558-57b91e42ce64","","null","<div style=""display: flex; justify-content: center; align-items: center;"">
                    <img src=""images/causal/causal_series_17/causal_series_17_a.jpg"" style=""width: 300px; height: 300px;"" />
                  </div>","null","",""
"","","","","","html-keyboard-response","126","346358","0.0-91.0-1.0","FCDBC73A68DF4C599E48B9B83B28FACE","FCDBC73A68DF4C599E48B9B83B28FACE","59536e3e-aa68-4b2f-9b35-badb49812b4e","bea99957-1862-4ad8-9558-57b91e42ce64","{""participantId"":""FCDBC73A68DF4C599E48B9B83B28FACE"",""assignmentId"":""59536e3e-aa68-4b2f-9b35-badb49812b4e"",""projectId"":""bea99957-1862-4ad8-9558-57b91e42ce64""}","https://test12345.live/?participantId=FCDBC73A68DF4C599E48B9B83B28FACE&assignmentId=59536e3e-aa68-4b2f-9b35-badb49812b4e&projectId=bea99957-1862-4ad8-9558-57b91e42ce64","","null","<div style=""display: flex; justify-content: center; align-items: center;"">
                    <img src=""images/causal/causal_series_17/causal_series_17_b.jpg"" style=""width: 300px; height: 300px;"" />
                  </div>","null","",""
"","","","","","html-keyboard-response","127","349371","0.0-91.0-2.0","FCDBC73A68DF4C599E48B9B83B28FACE","FCDBC73A68DF4C599E48B9B83B28FACE","59536e3e-aa68-4b2f-9b35-badb49812b4e","bea99957-1862-4ad8-9558-57b91e42ce64","{""participantId"":""FCDBC73A68DF4C599E48B9B83B28FACE"",""assignmentId"":""59536e3e-aa68-4b2f-9b35-badb49812b4e"",""projectId"":""bea99957-1862-4ad8-9558-57b91e42ce64""}","https://test12345.live/?participantId=FCDBC73A68DF4C599E48B9B83B28FACE&assignmentId=59536e3e-aa68-4b2f-9b35-badb49812b4e&projectId=bea99957-1862-4ad8-9558-57b91e42ce64","","null","<div style=""display: flex; justify-content: center; align-items: center;"">
                    <img src=""images/causal/causal_series_17/causal_series_17_c.jpg"" style=""width: 300px; height: 300px;"" />
                  </div>","null","",""
"","","","","","html-keyboard-response","128","352377","0.0-91.0-3.0","FCDBC73A68DF4C599E48B9B83B28FACE","FCDBC73A68DF4C599E48B9B83B28FACE","59536e3e-aa68-4b2f-9b35-badb49812b4e","bea99957-1862-4ad8-9558-57b91e42ce64","{""participantId"":""FCDBC73A68DF4C599E48B9B83B28FACE"",""assignmentId"":""59536e3e-aa68-4b2f-9b35-badb49812b4e"",""projectId"":""bea99957-1862-4ad8-9558-57b91e42ce64""}","https://test12345.live/?participantId=FCDBC73A68DF4C599E48B9B83B28FACE&assignmentId=59536e3e-aa68-4b2f-9b35-badb49812b4e&projectId=bea99957-1862-4ad8-9558-57b91e42ce64","","null","<div style=""display: flex; justify-content: center; align-items: center;"">
                    <img src=""images/causal/causal_series_17/causal_series_17_d.jpg"" style=""width: 300px; height: 300px;"" />
                  </div>","null","",""
"","","","","","html-button-response","129","354531","0.0-93.0","FCDBC73A68DF4C599E48B9B83B28FACE","FCDBC73A68DF4C599E48B9B83B28FACE","59536e3e-aa68-4b2f-9b35-badb49812b4e","bea99957-1862-4ad8-9558-57b91e42ce64","{""participantId"":""FCDBC73A68DF4C599E48B9B83B28FACE"",""assignmentId"":""59536e3e-aa68-4b2f-9b35-badb49812b4e"",""projectId"":""bea99957-1862-4ad8-9558-57b91e42ce64""}","https://test12345.live/?participantId=FCDBC73A68DF4C599E48B9B83B28FACE&assignmentId=59536e3e-aa68-4b2f-9b35-badb49812b4e&projectId=bea99957-1862-4ad8-9558-57b91e42ce64","","2153","Was there a person in the picture?","0","",""
"","","","","","survey-likert","130","356001","0.0-94.0","FCDBC73A68DF4C599E48B9B83B28FACE","FCDBC73A68DF4C599E48B9B83B28FACE","59536e3e-aa68-4b2f-9b35-badb49812b4e","bea99957-1862-4ad8-9558-57b91e42ce64","{""participantId"":""FCDBC73A68DF4C599E48B9B83B28FACE"",""assignmentId"":""59536e3e-aa68-4b2f-9b35-badb49812b4e"",""projectId"":""bea99957-1862-4ad8-9558-57b91e42ce64""}","https://test12345.live/?participantId=FCDBC73A68DF4C599E48B9B83B28FACE&assignmentId=59536e3e-aa68-4b2f-9b35-badb49812b4e&projectId=bea99957-1862-4ad8-9558-57b91e42ce64","","1469","","{""Q0"":1}","","[0]"
"","","","","","survey-text","131","395518","0.0-95.0","FCDBC73A68DF4C599E48B9B83B28FACE","FCDBC73A68DF4C599E48B9B83B28FACE","59536e3e-aa68-4b2f-9b35-badb49812b4e","bea99957-1862-4ad8-9558-57b91e42ce64","{""participantId"":""FCDBC73A68DF4C599E48B9B83B28FACE"",""assignmentId"":""59536e3e-aa68-4b2f-9b35-badb49812b4e"",""projectId"":""bea99957-1862-4ad8-9558-57b91e42ce64""}","https://test12345.live/?participantId=FCDBC73A68DF4C599E48B9B83B28FACE&assignmentId=59536e3e-aa68-4b2f-9b35-badb49812b4e&projectId=bea99957-1862-4ad8-9558-57b91e42ce64","","39515","","{""Q0"":""One is Red and the other is Blue. They trade situations back and forth, no rhyme or reason.""}","",""
