"success","timeout","failed_images","failed_audio","failed_video","trial_type","trial_index","time_elapsed","internal_node_id","view_history","rt","stimulus","response","firstImageNumber","secondImageNumber","response_made","stimulus_type"
"true","false","[]","[]","[]","preload","0","6899","0.0-0.0","","","","","","","",""
"","","","","","instructions","1","16483","0.0-1.0","[{""page_index"":0,""viewing_time"":9584}]","9584","","","","","",""
"","","","","","html-button-response","2","24401","0.0-2.0","","7916","
        <div style=""display: flex; justify-content: center; align-items: center;"">
          <div style=""text-align: center; margin-right: 20px;"">
            <p style=""font-size: 24px; font-weight: bold;"">Event 1<p>
            <img src=""images/instructions/1.png"" style=""width: 300px; height: auto;"">
          </div>
          <div style=""text-align: center; margin-left: 20px;"">
            <p style=""font-size: 24px; font-weight: bold;"">Event 2</p>
            <img src=""images/instructions/2.png"" style=""width: 300px; height: auto;"">
          </div>
        </div>
        <p style=""text-align: center; margin-top: 20px;"">Did one event cause the other?</p>","0","","","",""
"","","","","","html-button-response","3","26683","0.0-3.0","","2280","
        <div style=""display: flex; justify-content: center; align-items: center;"">
          <div style=""text-align: center; margin-right: 20px;"">
            <p style=""font-size: 24px; font-weight: bold;"">Event 1<p>
            <img src=""images/instructions/1.png"" style=""width: 300px; height: auto;"">
          </div>
          <div style=""text-align: center; margin-left: 20px;"">
            <p style=""font-size: 24px; font-weight: bold;"">Event 2</p>
            <img src=""images/instructions/2.png"" style=""width: 300px; height: auto;"">
          </div>
        </div>
        <h2>Correct Answer</h2>
        <p>The correct answer is: <strong>event 1 causes event 2</strong>.</p>
        <p>Click ""Next"" to proceed to the next example.</p>","0","","","",""
"","","","","","html-button-response","4","35022","0.0-4.0","","8338","
   <div style=""display: flex; justify-content: center; align-items: center;"">
          <div style=""text-align: center; margin-right: 20px;"">
            <p style=""font-size: 24px; font-weight: bold;"">Event 1<p>
            <img src=""images/instructions/1.png"" style=""width: 300px; height: auto;"">
          </div>
          <div style=""text-align: center; margin-left: 20px;"">
            <p style=""font-size: 24px; font-weight: bold;"">Event 2</p>
            <img src=""images/instructions/2.png"" style=""width: 300px; height: auto;"">
          </div>
        </div>
        <p style=""text-align: center; margin-top: 20px;"">Did one event cause the other?</p>","0","","","",""
"","","","","","html-button-response","5","37451","0.0-5.0","","2428","
        <div style=""display: flex; justify-content: center; align-items: center;"">
          <div style=""text-align: center; margin-right: 20px;"">
            <p style=""font-size: 24px; font-weight: bold;"">Event 1<p>
            <img src=""images/instructions/2.png"" style=""width: 300px; height: auto;"">
          </div>
          <div style=""text-align: center; margin-left: 20px;"">
            <p style=""font-size: 24px; font-weight: bold;"">Event 2</p>
            <img src=""images/instructions/1.png"" style=""width: 300px; height: auto;"">
          </div>
        </div>
        <h2>Correct Answer</h2>
        <p>The correct answer is: <strong>event 2 causes event 1</strong>.</p>
        <p>Click ""Next"" to proceed to the next example.</p>","0","","","",""
"","","","","","html-button-response","6","45085","0.0-6.0","","7633","
        <div style=""display: flex; justify-content: center; align-items: center;"">
          <div style=""text-align: center; margin-right: 20px;"">
            <p style=""font-size: 24px; font-weight: bold;"">Event 1<p>
            <img src=""images/instructions/5.png"" style=""width: 300px; height: auto;"">
          </div>
          <div style=""text-align: center; margin-left: 20px;"">
            <p style=""font-size: 24px; font-weight: bold;"">Event 2</p>
            <img src=""images/instructions/6.png"" style=""width: 300px; height: auto;"">
          </div>
        </div>
        <p style=""text-align: center; margin-top: 20px;"">Did one event cause the other?</p>","2","","","",""
"","","","","","html-button-response","7","45952","0.0-7.0","","866","
        <div style=""display: flex; justify-content: center; align-items: center;"">
          <div style=""text-align: center; margin-right: 20px;"">
            <p style=""font-size: 24px; font-weight: bold;"">Event 1<p>
            <img src=""images/instructions/5.png"" style=""width: 300px; height: auto;"">
          </div>
          <div style=""text-align: center; margin-left: 20px;"">
            <p style=""font-size: 24px; font-weight: bold;"">Event 2</p>
            <img src=""images/instructions/6.png"" style=""width: 300px; height: auto;"">
          </div>
        </div>
        <h2>Correct Answer</h2>
        <p>The correct answer is: <strong>events are unrelated</strong>.</p>
        <p>Click ""Next"" to proceed to the experiment.</p>","0","","","",""
"","","","","","html-button-response","8","49238","0.0-8.0","","3285","
        <h2>Get Ready!</h2>
        <p>You have completed the examples. The experiment is about to begin.</p>
        <p>Click ""Start"" to begin the experiment.</p>","0","","","",""
"","","","","","html-button-response","9","56202","0.0-9.0","","6963","
      <div style=""display: flex; justify-content: center; align-items: center;"">
        <div style=""text-align: center; margin-right: 20px;"">
          <p style=""font-size: 24px; font-weight: bold;"">Event 1<p>
          <img src=""images/causal/coin_causal/coin_causal_8.png"" style=""width: 300px; height: auto;"">
        </div>
        <div style=""text-align: center; margin-left: 20px;"">
          <p style=""font-size: 24px; font-weight: bold;"">Event 2</p>
          <img src=""images/causal/coin_causal/coin_causal_5.png"" style=""width: 300px; height: auto;"">
        </div>
      </div>
      <p style=""text-align: center; margin-top: 20px;"">Did one event cause the other?</p>","0","8","5","true","coin_causal"
"","","","","","html-button-response","10","62617","0.0-10.0","","6414","
      <div style=""display: flex; justify-content: center; align-items: center;"">
        <div style=""text-align: center; margin-right: 20px;"">
          <p style=""font-size: 24px; font-weight: bold;"">Event 1</p>
          <img src=""images/causal/cat_care_semantic/cat_care_semantic_10.png"" style=""width: 300px; height: auto;"">
        </div>
        <div style=""text-align: center; margin-left: 20px;"">
          <p style=""font-size: 24px; font-weight: bold;"">Event 2</p>
          <img src=""images/causal/cat_care_semantic/cat_care_semantic_7.png"" style=""width: 300px; height: auto;"">
        </div>
      </div>
      <p style=""text-align: center; margin-top: 20px;"">Did one event cause the other?</p>","2","10","7","true","cat_care_semantic"
"","","","","","html-button-response","11","71818","0.0-11.0","","9199","
      <div style=""display: flex; justify-content: center; align-items: center;"">
        <div style=""text-align: center; margin-right: 20px;"">
          <p style=""font-size: 24px; font-weight: bold;"">Event 1</p>
          <img src=""images/causal/restaurant_scheme/restaurant_scheme_5.png"" style=""width: 300px; height: auto;"">
        </div>
        <div style=""text-align: center; margin-left: 20px;"">
          <p style=""font-size: 24px; font-weight: bold;"">Event 2</p>
          <img src=""images/causal/restaurant_scheme/restaurant_scheme_1.png"" style=""width: 300px; height: auto;"">
        </div>
      </div>
      <p style=""text-align: center; margin-top: 20px;"">Did one event cause the other?</p>","1","5","1","true","restaurant_scheme"
"","","","","","html-button-response","12","77371","0.0-12.0","","5552","
      <div style=""display: flex; justify-content: center; align-items: center;"">
        <div style=""text-align: center; margin-right: 20px;"">
          <p style=""font-size: 24px; font-weight: bold;"">Event 1</p>
          <img src=""images/causal/restaurant_scheme/restaurant_scheme_1.png"" style=""width: 300px; height: auto;"">
        </div>
        <div style=""text-align: center; margin-left: 20px;"">
          <p style=""font-size: 24px; font-weight: bold;"">Event 2</p>
          <img src=""images/causal/restaurant_scheme/restaurant_scheme_9.png"" style=""width: 300px; height: auto;"">
        </div>
      </div>
      <p style=""text-align: center; margin-top: 20px;"">Did one event cause the other?</p>","0","1","9","true","restaurant_scheme"
"","","","","","html-button-response","13","84851","0.0-13.0","","7479","
      <div style=""display: flex; justify-content: center; align-items: center;"">
        <div style=""text-align: center; margin-right: 20px;"">
          <p style=""font-size: 24px; font-weight: bold;"">Event 1<p>
          <img src=""images/causal/coin_causal/coin_causal_7.png"" style=""width: 300px; height: auto;"">
        </div>
        <div style=""text-align: center; margin-left: 20px;"">
          <p style=""font-size: 24px; font-weight: bold;"">Event 2</p>
          <img src=""images/causal/coin_causal/coin_causal_2.png"" style=""width: 300px; height: auto;"">
        </div>
      </div>
      <p style=""text-align: center; margin-top: 20px;"">Did one event cause the other?</p>","2","7","2","true","coin_causal"
"","","","","","html-button-response","14","97752","0.0-14.0","","12900","
      <div style=""display: flex; justify-content: center; align-items: center;"">
        <div style=""text-align: center; margin-right: 20px;"">
          <p style=""font-size: 24px; font-weight: bold;"">Event 1<p>
          <img src=""images/causal/coin_causal/coin_causal_1.png"" style=""width: 300px; height: auto;"">
        </div>
        <div style=""text-align: center; margin-left: 20px;"">
          <p style=""font-size: 24px; font-weight: bold;"">Event 2</p>
          <img src=""images/causal/coin_causal/coin_causal_9.png"" style=""width: 300px; height: auto;"">
        </div>
      </div>
      <p style=""text-align: center; margin-top: 20px;"">Did one event cause the other?</p>","2","1","9","true","coin_causal"
"","","","","","html-button-response","15","108419","0.0-15.0","","10665","
      <div style=""display: flex; justify-content: center; align-items: center;"">
        <div style=""text-align: center; margin-right: 20px;"">
          <p style=""font-size: 24px; font-weight: bold;"">Event 1</p>
          <img src=""images/causal/cat_care_semantic/cat_care_semantic_3.png"" style=""width: 300px; height: auto;"">
        </div>
        <div style=""text-align: center; margin-left: 20px;"">
          <p style=""font-size: 24px; font-weight: bold;"">Event 2</p>
          <img src=""images/causal/cat_care_semantic/cat_care_semantic_1.png"" style=""width: 300px; height: auto;"">
        </div>
      </div>
      <p style=""text-align: center; margin-top: 20px;"">Did one event cause the other?</p>","0","3","1","true","cat_care_semantic"
"","","","","","html-button-response","16","118536","0.0-16.0","","10116","
      <div style=""display: flex; justify-content: center; align-items: center;"">
        <div style=""text-align: center; margin-right: 20px;"">
          <p style=""font-size: 24px; font-weight: bold;"">Event 1</p>
          <img src=""images/causal/cat_care_semantic/cat_care_semantic_4.png"" style=""width: 300px; height: auto;"">
        </div>
        <div style=""text-align: center; margin-left: 20px;"">
          <p style=""font-size: 24px; font-weight: bold;"">Event 2</p>
          <img src=""images/causal/cat_care_semantic/cat_care_semantic_3.png"" style=""width: 300px; height: auto;"">
        </div>
      </div>
      <p style=""text-align: center; margin-top: 20px;"">Did one event cause the other?</p>","1","4","3","true","cat_care_semantic"
"","","","","","html-button-response","17","125938","0.0-17.0","","7401","
      <div style=""display: flex; justify-content: center; align-items: center;"">
        <div style=""text-align: center; margin-right: 20px;"">
          <p style=""font-size: 24px; font-weight: bold;"">Event 1</p>
          <img src=""images/causal/restaurant_scheme/restaurant_scheme_1.png"" style=""width: 300px; height: auto;"">
        </div>
        <div style=""text-align: center; margin-left: 20px;"">
          <p style=""font-size: 24px; font-weight: bold;"">Event 2</p>
          <img src=""images/causal/restaurant_scheme/restaurant_scheme_8.png"" style=""width: 300px; height: auto;"">
        </div>
      </div>
      <p style=""text-align: center; margin-top: 20px;"">Did one event cause the other?</p>","0","1","8","true","restaurant_scheme"
"","","","","","html-button-response","18","133036","0.0-18.0","","7097","
      <div style=""display: flex; justify-content: center; align-items: center;"">
        <div style=""text-align: center; margin-right: 20px;"">
          <p style=""font-size: 24px; font-weight: bold;"">Event 1</p>
          <img src=""images/causal/cat_care_semantic/cat_care_semantic_6.png"" style=""width: 300px; height: auto;"">
        </div>
        <div style=""text-align: center; margin-left: 20px;"">
          <p style=""font-size: 24px; font-weight: bold;"">Event 2</p>
          <img src=""images/causal/cat_care_semantic/cat_care_semantic_10.png"" style=""width: 300px; height: auto;"">
        </div>
      </div>
      <p style=""text-align: center; margin-top: 20px;"">Did one event cause the other?</p>","2","6","10","true","cat_care_semantic"
"","","","","","html-button-response","19","139118","0.0-19.0","","6081","
      <div style=""display: flex; justify-content: center; align-items: center;"">
        <div style=""text-align: center; margin-right: 20px;"">
          <p style=""font-size: 24px; font-weight: bold;"">Event 1</p>
          <img src=""images/causal/cat_care_semantic/cat_care_semantic_4.png"" style=""width: 300px; height: auto;"">
        </div>
        <div style=""text-align: center; margin-left: 20px;"">
          <p style=""font-size: 24px; font-weight: bold;"">Event 2</p>
          <img src=""images/causal/cat_care_semantic/cat_care_semantic_5.png"" style=""width: 300px; height: auto;"">
        </div>
      </div>
      <p style=""text-align: center; margin-top: 20px;"">Did one event cause the other?</p>","2","4","5","true","cat_care_semantic"
"","","","","","html-button-response","20","144900","0.0-20.0","","5782","
      <div style=""display: flex; justify-content: center; align-items: center;"">
        <div style=""text-align: center; margin-right: 20px;"">
          <p style=""font-size: 24px; font-weight: bold;"">Event 1</p>
          <img src=""images/causal/restaurant_scheme/restaurant_scheme_6.png"" style=""width: 300px; height: auto;"">
        </div>
        <div style=""text-align: center; margin-left: 20px;"">
          <p style=""font-size: 24px; font-weight: bold;"">Event 2</p>
          <img src=""images/causal/restaurant_scheme/restaurant_scheme_1.png"" style=""width: 300px; height: auto;"">
        </div>
      </div>
      <p style=""text-align: center; margin-top: 20px;"">Did one event cause the other?</p>","1","6","1","true","restaurant_scheme"
"","","","","","html-button-response","21","154435","0.0-21.0","","9533","
      <div style=""display: flex; justify-content: center; align-items: center;"">
        <div style=""text-align: center; margin-right: 20px;"">
          <p style=""font-size: 24px; font-weight: bold;"">Event 1</p>
          <img src=""images/causal/restaurant_scheme/restaurant_scheme_2.png"" style=""width: 300px; height: auto;"">
        </div>
        <div style=""text-align: center; margin-left: 20px;"">
          <p style=""font-size: 24px; font-weight: bold;"">Event 2</p>
          <img src=""images/causal/restaurant_scheme/restaurant_scheme_4.png"" style=""width: 300px; height: auto;"">
        </div>
      </div>
      <p style=""text-align: center; margin-top: 20px;"">Did one event cause the other?</p>","0","2","4","true","restaurant_scheme"
"","","","","","html-button-response","22","161420","0.0-22.0","","6985","
      <div style=""display: flex; justify-content: center; align-items: center;"">
        <div style=""text-align: center; margin-right: 20px;"">
          <p style=""font-size: 24px; font-weight: bold;"">Event 1</p>
          <img src=""images/causal/cat_care_semantic/cat_care_semantic_2.png"" style=""width: 300px; height: auto;"">
        </div>
        <div style=""text-align: center; margin-left: 20px;"">
          <p style=""font-size: 24px; font-weight: bold;"">Event 2</p>
          <img src=""images/causal/cat_care_semantic/cat_care_semantic_4.png"" style=""width: 300px; height: auto;"">
        </div>
      </div>
      <p style=""text-align: center; margin-top: 20px;"">Did one event cause the other?</p>","2","2","4","true","cat_care_semantic"
"","","","","","html-button-response","23","167033","0.0-23.0","","5612","
      <div style=""display: flex; justify-content: center; align-items: center;"">
        <div style=""text-align: center; margin-right: 20px;"">
          <p style=""font-size: 24px; font-weight: bold;"">Event 1</p>
          <img src=""images/causal/cat_care_semantic/cat_care_semantic_9.png"" style=""width: 300px; height: auto;"">
        </div>
        <div style=""text-align: center; margin-left: 20px;"">
          <p style=""font-size: 24px; font-weight: bold;"">Event 2</p>
          <img src=""images/causal/cat_care_semantic/cat_care_semantic_8.png"" style=""width: 300px; height: auto;"">
        </div>
      </div>
      <p style=""text-align: center; margin-top: 20px;"">Did one event cause the other?</p>","2","9","8","true","cat_care_semantic"
"","","","","","html-button-response","24","174769","0.0-24.0","","7735","
      <div style=""display: flex; justify-content: center; align-items: center;"">
        <div style=""text-align: center; margin-right: 20px;"">
          <p style=""font-size: 24px; font-weight: bold;"">Event 1<p>
          <img src=""images/causal/coin_causal/coin_causal_5.png"" style=""width: 300px; height: auto;"">
        </div>
        <div style=""text-align: center; margin-left: 20px;"">
          <p style=""font-size: 24px; font-weight: bold;"">Event 2</p>
          <img src=""images/causal/coin_causal/coin_causal_6.png"" style=""width: 300px; height: auto;"">
        </div>
      </div>
      <p style=""text-align: center; margin-top: 20px;"">Did one event cause the other?</p>","2","5","6","true","coin_causal"
"","","","","","html-button-response","25","180934","0.0-25.0","","6164","
      <div style=""display: flex; justify-content: center; align-items: center;"">
        <div style=""text-align: center; margin-right: 20px;"">
          <p style=""font-size: 24px; font-weight: bold;"">Event 1</p>
          <img src=""images/causal/restaurant_scheme/restaurant_scheme_3.png"" style=""width: 300px; height: auto;"">
        </div>
        <div style=""text-align: center; margin-left: 20px;"">
          <p style=""font-size: 24px; font-weight: bold;"">Event 2</p>
          <img src=""images/causal/restaurant_scheme/restaurant_scheme_6.png"" style=""width: 300px; height: auto;"">
        </div>
      </div>
      <p style=""text-align: center; margin-top: 20px;"">Did one event cause the other?</p>","0","3","6","true","restaurant_scheme"
"","","","","","html-button-response","26","187283","0.0-26.0","","6348","
      <div style=""display: flex; justify-content: center; align-items: center;"">
        <div style=""text-align: center; margin-right: 20px;"">
          <p style=""font-size: 24px; font-weight: bold;"">Event 1<p>
          <img src=""images/causal/coin_causal/coin_causal_5.png"" style=""width: 300px; height: auto;"">
        </div>
        <div style=""text-align: center; margin-left: 20px;"">
          <p style=""font-size: 24px; font-weight: bold;"">Event 2</p>
          <img src=""images/causal/coin_causal/coin_causal_9.png"" style=""width: 300px; height: auto;"">
        </div>
      </div>
      <p style=""text-align: center; margin-top: 20px;"">Did one event cause the other?</p>","2","5","9","true","coin_causal"
"","","","","","html-button-response","27","192902","0.0-27.0","","5618","
      <div style=""display: flex; justify-content: center; align-items: center;"">
        <div style=""text-align: center; margin-right: 20px;"">
          <p style=""font-size: 24px; font-weight: bold;"">Event 1</p>
          <img src=""images/causal/restaurant_scheme/restaurant_scheme_6.png"" style=""width: 300px; height: auto;"">
        </div>
        <div style=""text-align: center; margin-left: 20px;"">
          <p style=""font-size: 24px; font-weight: bold;"">Event 2</p>
          <img src=""images/causal/restaurant_scheme/restaurant_scheme_4.png"" style=""width: 300px; height: auto;"">
        </div>
      </div>
      <p style=""text-align: center; margin-top: 20px;"">Did one event cause the other?</p>","1","6","4","true","restaurant_scheme"
"","","","","","html-button-response","28","199189","0.0-28.0","","6287","
      <div style=""display: flex; justify-content: center; align-items: center;"">
        <div style=""text-align: center; margin-right: 20px;"">
          <p style=""font-size: 24px; font-weight: bold;"">Event 1</p>
          <img src=""images/causal/restaurant_scheme/restaurant_scheme_9.png"" style=""width: 300px; height: auto;"">
        </div>
        <div style=""text-align: center; margin-left: 20px;"">
          <p style=""font-size: 24px; font-weight: bold;"">Event 2</p>
          <img src=""images/causal/restaurant_scheme/restaurant_scheme_8.png"" style=""width: 300px; height: auto;"">
        </div>
      </div>
      <p style=""text-align: center; margin-top: 20px;"">Did one event cause the other?</p>","1","9","8","true","restaurant_scheme"
"","","","","","html-button-response","29","204769","0.0-29.0","","5579","
      <div style=""display: flex; justify-content: center; align-items: center;"">
        <div style=""text-align: center; margin-right: 20px;"">
          <p style=""font-size: 24px; font-weight: bold;"">Event 1</p>
          <img src=""images/causal/restaurant_scheme/restaurant_scheme_4.png"" style=""width: 300px; height: auto;"">
        </div>
        <div style=""text-align: center; margin-left: 20px;"">
          <p style=""font-size: 24px; font-weight: bold;"">Event 2</p>
          <img src=""images/causal/restaurant_scheme/restaurant_scheme_5.png"" style=""width: 300px; height: auto;"">
        </div>
      </div>
      <p style=""text-align: center; margin-top: 20px;"">Did one event cause the other?</p>","0","4","5","true","restaurant_scheme"
"","","","","","html-button-response","30","210624","0.0-30.0","","5854","
      <div style=""display: flex; justify-content: center; align-items: center;"">
        <div style=""text-align: center; margin-right: 20px;"">
          <p style=""font-size: 24px; font-weight: bold;"">Event 1</p>
          <img src=""images/causal/restaurant_scheme/restaurant_scheme_6.png"" style=""width: 300px; height: auto;"">
        </div>
        <div style=""text-align: center; margin-left: 20px;"">
          <p style=""font-size: 24px; font-weight: bold;"">Event 2</p>
          <img src=""images/causal/restaurant_scheme/restaurant_scheme_9.png"" style=""width: 300px; height: auto;"">
        </div>
      </div>
      <p style=""text-align: center; margin-top: 20px;"">Did one event cause the other?</p>","0","6","9","true","restaurant_scheme"
"","","","","","html-button-response","31","216117","0.0-31.0","","5492","
      <div style=""display: flex; justify-content: center; align-items: center;"">
        <div style=""text-align: center; margin-right: 20px;"">
          <p style=""font-size: 24px; font-weight: bold;"">Event 1</p>
          <img src=""images/causal/restaurant_scheme/restaurant_scheme_9.png"" style=""width: 300px; height: auto;"">
        </div>
        <div style=""text-align: center; margin-left: 20px;"">
          <p style=""font-size: 24px; font-weight: bold;"">Event 2</p>
          <img src=""images/causal/restaurant_scheme/restaurant_scheme_7.png"" style=""width: 300px; height: auto;"">
        </div>
      </div>
      <p style=""text-align: center; margin-top: 20px;"">Did one event cause the other?</p>","1","9","7","true","restaurant_scheme"
"","","","","","html-button-response","32","222284","0.0-32.0","","6166","
      <div style=""display: flex; justify-content: center; align-items: center;"">
        <div style=""text-align: center; margin-right: 20px;"">
          <p style=""font-size: 24px; font-weight: bold;"">Event 1<p>
          <img src=""images/causal/coin_causal/coin_causal_8.png"" style=""width: 300px; height: auto;"">
        </div>
        <div style=""text-align: center; margin-left: 20px;"">
          <p style=""font-size: 24px; font-weight: bold;"">Event 2</p>
          <img src=""images/causal/coin_causal/coin_causal_6.png"" style=""width: 300px; height: auto;"">
        </div>
      </div>
      <p style=""text-align: center; margin-top: 20px;"">Did one event cause the other?</p>","2","8","6","true","coin_causal"
"","","","","","html-button-response","33","229873","0.0-33.0","","7587","
      <div style=""display: flex; justify-content: center; align-items: center;"">
        <div style=""text-align: center; margin-right: 20px;"">
          <p style=""font-size: 24px; font-weight: bold;"">Event 1<p>
          <img src=""images/causal/coin_causal/coin_causal_4.png"" style=""width: 300px; height: auto;"">
        </div>
        <div style=""text-align: center; margin-left: 20px;"">
          <p style=""font-size: 24px; font-weight: bold;"">Event 2</p>
          <img src=""images/causal/coin_causal/coin_causal_1.png"" style=""width: 300px; height: auto;"">
        </div>
      </div>
      <p style=""text-align: center; margin-top: 20px;"">Did one event cause the other?</p>","1","4","1","true","coin_causal"
"","","","","","html-button-response","34","235952","0.0-34.0","","6078","
      <div style=""display: flex; justify-content: center; align-items: center;"">
        <div style=""text-align: center; margin-right: 20px;"">
          <p style=""font-size: 24px; font-weight: bold;"">Event 1</p>
          <img src=""images/causal/cat_care_semantic/cat_care_semantic_5.png"" style=""width: 300px; height: auto;"">
        </div>
        <div style=""text-align: center; margin-left: 20px;"">
          <p style=""font-size: 24px; font-weight: bold;"">Event 2</p>
          <img src=""images/causal/cat_care_semantic/cat_care_semantic_2.png"" style=""width: 300px; height: auto;"">
        </div>
      </div>
      <p style=""text-align: center; margin-top: 20px;"">Did one event cause the other?</p>","2","5","2","true","cat_care_semantic"
"","","","","","html-button-response","35","241986","0.0-35.0","","6033","
      <div style=""display: flex; justify-content: center; align-items: center;"">
        <div style=""text-align: center; margin-right: 20px;"">
          <p style=""font-size: 24px; font-weight: bold;"">Event 1</p>
          <img src=""images/causal/cat_care_semantic/cat_care_semantic_3.png"" style=""width: 300px; height: auto;"">
        </div>
        <div style=""text-align: center; margin-left: 20px;"">
          <p style=""font-size: 24px; font-weight: bold;"">Event 2</p>
          <img src=""images/causal/cat_care_semantic/cat_care_semantic_8.png"" style=""width: 300px; height: auto;"">
        </div>
      </div>
      <p style=""text-align: center; margin-top: 20px;"">Did one event cause the other?</p>","2","3","8","true","cat_care_semantic"
"","","","","","html-button-response","36","247901","0.0-36.0","","5914","
      <div style=""display: flex; justify-content: center; align-items: center;"">
        <div style=""text-align: center; margin-right: 20px;"">
          <p style=""font-size: 24px; font-weight: bold;"">Event 1</p>
          <img src=""images/causal/restaurant_scheme/restaurant_scheme_10.png"" style=""width: 300px; height: auto;"">
        </div>
        <div style=""text-align: center; margin-left: 20px;"">
          <p style=""font-size: 24px; font-weight: bold;"">Event 2</p>
          <img src=""images/causal/restaurant_scheme/restaurant_scheme_3.png"" style=""width: 300px; height: auto;"">
        </div>
      </div>
      <p style=""text-align: center; margin-top: 20px;"">Did one event cause the other?</p>","1","10","3","true","restaurant_scheme"
"","","","","","html-button-response","37","253852","0.0-37.0","","5950","
      <div style=""display: flex; justify-content: center; align-items: center;"">
        <div style=""text-align: center; margin-right: 20px;"">
          <p style=""font-size: 24px; font-weight: bold;"">Event 1<p>
          <img src=""images/causal/coin_causal/coin_causal_2.png"" style=""width: 300px; height: auto;"">
        </div>
        <div style=""text-align: center; margin-left: 20px;"">
          <p style=""font-size: 24px; font-weight: bold;"">Event 2</p>
          <img src=""images/causal/coin_causal/coin_causal_8.png"" style=""width: 300px; height: auto;"">
        </div>
      </div>
      <p style=""text-align: center; margin-top: 20px;"">Did one event cause the other?</p>","2","2","8","true","coin_causal"
"","","","","","html-button-response","38","259540","0.0-38.0","","5687","
      <div style=""display: flex; justify-content: center; align-items: center;"">
        <div style=""text-align: center; margin-right: 20px;"">
          <p style=""font-size: 24px; font-weight: bold;"">Event 1<p>
          <img src=""images/causal/coin_causal/coin_causal_6.png"" style=""width: 300px; height: auto;"">
        </div>
        <div style=""text-align: center; margin-left: 20px;"">
          <p style=""font-size: 24px; font-weight: bold;"">Event 2</p>
          <img src=""images/causal/coin_causal/coin_causal_4.png"" style=""width: 300px; height: auto;"">
        </div>
      </div>
      <p style=""text-align: center; margin-top: 20px;"">Did one event cause the other?</p>","2","6","4","true","coin_causal"
"","","","","","html-button-response","39","264955","0.0-39.0","","5415","
      <div style=""display: flex; justify-content: center; align-items: center;"">
        <div style=""text-align: center; margin-right: 20px;"">
          <p style=""font-size: 24px; font-weight: bold;"">Event 1</p>
          <img src=""images/causal/cat_care_semantic/cat_care_semantic_6.png"" style=""width: 300px; height: auto;"">
        </div>
        <div style=""text-align: center; margin-left: 20px;"">
          <p style=""font-size: 24px; font-weight: bold;"">Event 2</p>
          <img src=""images/causal/cat_care_semantic/cat_care_semantic_3.png"" style=""width: 300px; height: auto;"">
        </div>
      </div>
      <p style=""text-align: center; margin-top: 20px;"">Did one event cause the other?</p>","0","6","3","true","cat_care_semantic"
"","","","","","html-button-response","40","271023","0.0-40.0","","6066","
      <div style=""display: flex; justify-content: center; align-items: center;"">
        <div style=""text-align: center; margin-right: 20px;"">
          <p style=""font-size: 24px; font-weight: bold;"">Event 1<p>
          <img src=""images/causal/coin_causal/coin_causal_10.png"" style=""width: 300px; height: auto;"">
        </div>
        <div style=""text-align: center; margin-left: 20px;"">
          <p style=""font-size: 24px; font-weight: bold;"">Event 2</p>
          <img src=""images/causal/coin_causal/coin_causal_1.png"" style=""width: 300px; height: auto;"">
        </div>
      </div>
      <p style=""text-align: center; margin-top: 20px;"">Did one event cause the other?</p>","0","10","1","true","coin_causal"
"","","","","","html-button-response","41","277180","0.0-41.0","","6156","
      <div style=""display: flex; justify-content: center; align-items: center;"">
        <div style=""text-align: center; margin-right: 20px;"">
          <p style=""font-size: 24px; font-weight: bold;"">Event 1<p>
          <img src=""images/causal/coin_causal/coin_causal_8.png"" style=""width: 300px; height: auto;"">
        </div>
        <div style=""text-align: center; margin-left: 20px;"">
          <p style=""font-size: 24px; font-weight: bold;"">Event 2</p>
          <img src=""images/causal/coin_causal/coin_causal_1.png"" style=""width: 300px; height: auto;"">
        </div>
      </div>
      <p style=""text-align: center; margin-top: 20px;"">Did one event cause the other?</p>","2","8","1","true","coin_causal"
"","","","","","html-button-response","42","282993","0.0-42.0","","5812","
      <div style=""display: flex; justify-content: center; align-items: center;"">
        <div style=""text-align: center; margin-right: 20px;"">
          <p style=""font-size: 24px; font-weight: bold;"">Event 1</p>
          <img src=""images/causal/restaurant_scheme/restaurant_scheme_1.png"" style=""width: 300px; height: auto;"">
        </div>
        <div style=""text-align: center; margin-left: 20px;"">
          <p style=""font-size: 24px; font-weight: bold;"">Event 2</p>
          <img src=""images/causal/restaurant_scheme/restaurant_scheme_2.png"" style=""width: 300px; height: auto;"">
        </div>
      </div>
      <p style=""text-align: center; margin-top: 20px;"">Did one event cause the other?</p>","0","1","2","true","restaurant_scheme"
"","","","","","html-button-response","43","288436","0.0-43.0","","5442","
      <div style=""display: flex; justify-content: center; align-items: center;"">
        <div style=""text-align: center; margin-right: 20px;"">
          <p style=""font-size: 24px; font-weight: bold;"">Event 1</p>
          <img src=""images/causal/cat_care_semantic/cat_care_semantic_9.png"" style=""width: 300px; height: auto;"">
        </div>
        <div style=""text-align: center; margin-left: 20px;"">
          <p style=""font-size: 24px; font-weight: bold;"">Event 2</p>
          <img src=""images/causal/cat_care_semantic/cat_care_semantic_2.png"" style=""width: 300px; height: auto;"">
        </div>
      </div>
      <p style=""text-align: center; margin-top: 20px;"">Did one event cause the other?</p>","2","9","2","true","cat_care_semantic"
"","","","","","html-button-response","44","294205","0.0-44.0","","5769","
      <div style=""display: flex; justify-content: center; align-items: center;"">
        <div style=""text-align: center; margin-right: 20px;"">
          <p style=""font-size: 24px; font-weight: bold;"">Event 1<p>
          <img src=""images/causal/coin_causal/coin_causal_7.png"" style=""width: 300px; height: auto;"">
        </div>
        <div style=""text-align: center; margin-left: 20px;"">
          <p style=""font-size: 24px; font-weight: bold;"">Event 2</p>
          <img src=""images/causal/coin_causal/coin_causal_4.png"" style=""width: 300px; height: auto;"">
        </div>
      </div>
      <p style=""text-align: center; margin-top: 20px;"">Did one event cause the other?</p>","2","7","4","true","coin_causal"
"","","","","","html-button-response","45","300169","0.0-45.0","","5963","
      <div style=""display: flex; justify-content: center; align-items: center;"">
        <div style=""text-align: center; margin-right: 20px;"">
          <p style=""font-size: 24px; font-weight: bold;"">Event 1<p>
          <img src=""images/causal/coin_causal/coin_causal_3.png"" style=""width: 300px; height: auto;"">
        </div>
        <div style=""text-align: center; margin-left: 20px;"">
          <p style=""font-size: 24px; font-weight: bold;"">Event 2</p>
          <img src=""images/causal/coin_causal/coin_causal_5.png"" style=""width: 300px; height: auto;"">
        </div>
      </div>
      <p style=""text-align: center; margin-top: 20px;"">Did one event cause the other?</p>","0","3","5","true","coin_causal"
"","","","","","html-button-response","46","305886","0.0-46.0","","5716","
      <div style=""display: flex; justify-content: center; align-items: center;"">
        <div style=""text-align: center; margin-right: 20px;"">
          <p style=""font-size: 24px; font-weight: bold;"">Event 1<p>
          <img src=""images/causal/coin_causal/coin_causal_5.png"" style=""width: 300px; height: auto;"">
        </div>
        <div style=""text-align: center; margin-left: 20px;"">
          <p style=""font-size: 24px; font-weight: bold;"">Event 2</p>
          <img src=""images/causal/coin_causal/coin_causal_10.png"" style=""width: 300px; height: auto;"">
        </div>
      </div>
      <p style=""text-align: center; margin-top: 20px;"">Did one event cause the other?</p>","0","5","10","true","coin_causal"
"","","","","","html-button-response","47","312688","0.0-47.0","","6801","
      <div style=""display: flex; justify-content: center; align-items: center;"">
        <div style=""text-align: center; margin-right: 20px;"">
          <p style=""font-size: 24px; font-weight: bold;"">Event 1</p>
          <img src=""images/causal/restaurant_scheme/restaurant_scheme_9.png"" style=""width: 300px; height: auto;"">
        </div>
        <div style=""text-align: center; margin-left: 20px;"">
          <p style=""font-size: 24px; font-weight: bold;"">Event 2</p>
          <img src=""images/causal/restaurant_scheme/restaurant_scheme_2.png"" style=""width: 300px; height: auto;"">
        </div>
      </div>
      <p style=""text-align: center; margin-top: 20px;"">Did one event cause the other?</p>","1","9","2","true","restaurant_scheme"
"","","","","","html-button-response","48","318287","0.0-48.0","","5598","
      <div style=""display: flex; justify-content: center; align-items: center;"">
        <div style=""text-align: center; margin-right: 20px;"">
          <p style=""font-size: 24px; font-weight: bold;"">Event 1</p>
          <img src=""images/causal/cat_care_semantic/cat_care_semantic_6.png"" style=""width: 300px; height: auto;"">
        </div>
        <div style=""text-align: center; margin-left: 20px;"">
          <p style=""font-size: 24px; font-weight: bold;"">Event 2</p>
          <img src=""images/causal/cat_care_semantic/cat_care_semantic_4.png"" style=""width: 300px; height: auto;"">
        </div>
      </div>
      <p style=""text-align: center; margin-top: 20px;"">Did one event cause the other?</p>","2","6","4","true","cat_care_semantic"
"","","","","","html-button-response","49","323767","0.0-49.0","","5479","
      <div style=""display: flex; justify-content: center; align-items: center;"">
        <div style=""text-align: center; margin-right: 20px;"">
          <p style=""font-size: 24px; font-weight: bold;"">Event 1</p>
          <img src=""images/causal/restaurant_scheme/restaurant_scheme_1.png"" style=""width: 300px; height: auto;"">
        </div>
        <div style=""text-align: center; margin-left: 20px;"">
          <p style=""font-size: 24px; font-weight: bold;"">Event 2</p>
          <img src=""images/causal/restaurant_scheme/restaurant_scheme_4.png"" style=""width: 300px; height: auto;"">
        </div>
      </div>
      <p style=""text-align: center; margin-top: 20px;"">Did one event cause the other?</p>","0","1","4","true","restaurant_scheme"
"","","","","","html-button-response","50","330937","0.0-50.0","","7170","
      <div style=""display: flex; justify-content: center; align-items: center;"">
        <div style=""text-align: center; margin-right: 20px;"">
          <p style=""font-size: 24px; font-weight: bold;"">Event 1</p>
          <img src=""images/causal/cat_care_semantic/cat_care_semantic_5.png"" style=""width: 300px; height: auto;"">
        </div>
        <div style=""text-align: center; margin-left: 20px;"">
          <p style=""font-size: 24px; font-weight: bold;"">Event 2</p>
          <img src=""images/causal/cat_care_semantic/cat_care_semantic_10.png"" style=""width: 300px; height: auto;"">
        </div>
      </div>
      <p style=""text-align: center; margin-top: 20px;"">Did one event cause the other?</p>","2","5","10","true","cat_care_semantic"
"","","","","","html-button-response","51","336457","0.0-51.0","","5519","
      <div style=""display: flex; justify-content: center; align-items: center;"">
        <div style=""text-align: center; margin-right: 20px;"">
          <p style=""font-size: 24px; font-weight: bold;"">Event 1</p>
          <img src=""images/causal/restaurant_scheme/restaurant_scheme_5.png"" style=""width: 300px; height: auto;"">
        </div>
        <div style=""text-align: center; margin-left: 20px;"">
          <p style=""font-size: 24px; font-weight: bold;"">Event 2</p>
          <img src=""images/causal/restaurant_scheme/restaurant_scheme_10.png"" style=""width: 300px; height: auto;"">
        </div>
      </div>
      <p style=""text-align: center; margin-top: 20px;"">Did one event cause the other?</p>","0","5","10","true","restaurant_scheme"
"","","","","","html-button-response","52","344204","0.0-52.0","","7746","
      <div style=""display: flex; justify-content: center; align-items: center;"">
        <div style=""text-align: center; margin-right: 20px;"">
          <p style=""font-size: 24px; font-weight: bold;"">Event 1<p>
          <img src=""images/causal/coin_causal/coin_causal_9.png"" style=""width: 300px; height: auto;"">
        </div>
        <div style=""text-align: center; margin-left: 20px;"">
          <p style=""font-size: 24px; font-weight: bold;"">Event 2</p>
          <img src=""images/causal/coin_causal/coin_causal_2.png"" style=""width: 300px; height: auto;"">
        </div>
      </div>
      <p style=""text-align: center; margin-top: 20px;"">Did one event cause the other?</p>","0","9","2","true","coin_causal"
"","","","","","html-button-response","53","350186","0.0-53.0","","5981","
      <div style=""display: flex; justify-content: center; align-items: center;"">
        <div style=""text-align: center; margin-right: 20px;"">
          <p style=""font-size: 24px; font-weight: bold;"">Event 1<p>
          <img src=""images/causal/coin_causal/coin_causal_7.png"" style=""width: 300px; height: auto;"">
        </div>
        <div style=""text-align: center; margin-left: 20px;"">
          <p style=""font-size: 24px; font-weight: bold;"">Event 2</p>
          <img src=""images/causal/coin_causal/coin_causal_10.png"" style=""width: 300px; height: auto;"">
        </div>
      </div>
      <p style=""text-align: center; margin-top: 20px;"">Did one event cause the other?</p>","0","7","10","true","coin_causal"
"","","","","","html-button-response","54","357085","0.0-54.0","","6898","
      <div style=""display: flex; justify-content: center; align-items: center;"">
        <div style=""text-align: center; margin-right: 20px;"">
          <p style=""font-size: 24px; font-weight: bold;"">Event 1<p>
          <img src=""images/causal/coin_causal/coin_causal_7.png"" style=""width: 300px; height: auto;"">
        </div>
        <div style=""text-align: center; margin-left: 20px;"">
          <p style=""font-size: 24px; font-weight: bold;"">Event 2</p>
          <img src=""images/causal/coin_causal/coin_causal_6.png"" style=""width: 300px; height: auto;"">
        </div>
      </div>
      <p style=""text-align: center; margin-top: 20px;"">Did one event cause the other?</p>","0","7","6","true","coin_causal"
"","","","","","html-button-response","55","362736","0.0-55.0","","5650","
      <div style=""display: flex; justify-content: center; align-items: center;"">
        <div style=""text-align: center; margin-right: 20px;"">
          <p style=""font-size: 24px; font-weight: bold;"">Event 1<p>
          <img src=""images/causal/coin_causal/coin_causal_2.png"" style=""width: 300px; height: auto;"">
        </div>
        <div style=""text-align: center; margin-left: 20px;"">
          <p style=""font-size: 24px; font-weight: bold;"">Event 2</p>
          <img src=""images/causal/coin_causal/coin_causal_3.png"" style=""width: 300px; height: auto;"">
        </div>
      </div>
      <p style=""text-align: center; margin-top: 20px;"">Did one event cause the other?</p>","0","2","3","true","coin_causal"
"","","","","","html-button-response","56","373936","0.0-56.0","","11199","
      <div style=""display: flex; justify-content: center; align-items: center;"">
        <div style=""text-align: center; margin-right: 20px;"">
          <p style=""font-size: 24px; font-weight: bold;"">Event 1<p>
          <img src=""images/causal/coin_causal/coin_causal_7.png"" style=""width: 300px; height: auto;"">
        </div>
        <div style=""text-align: center; margin-left: 20px;"">
          <p style=""font-size: 24px; font-weight: bold;"">Event 2</p>
          <img src=""images/causal/coin_causal/coin_causal_3.png"" style=""width: 300px; height: auto;"">
        </div>
      </div>
      <p style=""text-align: center; margin-top: 20px;"">Did one event cause the other?</p>","2","7","3","true","coin_causal"
"","","","","","html-button-response","57","380857","0.0-57.0","","6920","
      <div style=""display: flex; justify-content: center; align-items: center;"">
        <div style=""text-align: center; margin-right: 20px;"">
          <p style=""font-size: 24px; font-weight: bold;"">Event 1</p>
          <img src=""images/causal/cat_care_semantic/cat_care_semantic_7.png"" style=""width: 300px; height: auto;"">
        </div>
        <div style=""text-align: center; margin-left: 20px;"">
          <p style=""font-size: 24px; font-weight: bold;"">Event 2</p>
          <img src=""images/causal/cat_care_semantic/cat_care_semantic_5.png"" style=""width: 300px; height: auto;"">
        </div>
      </div>
      <p style=""text-align: center; margin-top: 20px;"">Did one event cause the other?</p>","2","7","5","true","cat_care_semantic"
"","","","","","html-button-response","58","387685","0.0-58.0","","6828","
      <div style=""display: flex; justify-content: center; align-items: center;"">
        <div style=""text-align: center; margin-right: 20px;"">
          <p style=""font-size: 24px; font-weight: bold;"">Event 1</p>
          <img src=""images/causal/cat_care_semantic/cat_care_semantic_1.png"" style=""width: 300px; height: auto;"">
        </div>
        <div style=""text-align: center; margin-left: 20px;"">
          <p style=""font-size: 24px; font-weight: bold;"">Event 2</p>
          <img src=""images/causal/cat_care_semantic/cat_care_semantic_9.png"" style=""width: 300px; height: auto;"">
        </div>
      </div>
      <p style=""text-align: center; margin-top: 20px;"">Did one event cause the other?</p>","2","1","9","true","cat_care_semantic"
"","","","","","html-button-response","59","398553","0.0-59.0","","10867","
      <div style=""display: flex; justify-content: center; align-items: center;"">
        <div style=""text-align: center; margin-right: 20px;"">
          <p style=""font-size: 24px; font-weight: bold;"">Event 1<p>
          <img src=""images/causal/coin_causal/coin_causal_10.png"" style=""width: 300px; height: auto;"">
        </div>
        <div style=""text-align: center; margin-left: 20px;"">
          <p style=""font-size: 24px; font-weight: bold;"">Event 2</p>
          <img src=""images/causal/coin_causal/coin_causal_8.png"" style=""width: 300px; height: auto;"">
        </div>
      </div>
      <p style=""text-align: center; margin-top: 20px;"">Did one event cause the other?</p>","1","10","8","true","coin_causal"
"","","","","","html-button-response","60","408759","0.0-60.0","","10205","
      <div style=""display: flex; justify-content: center; align-items: center;"">
        <div style=""text-align: center; margin-right: 20px;"">
          <p style=""font-size: 24px; font-weight: bold;"">Event 1</p>
          <img src=""images/causal/cat_care_semantic/cat_care_semantic_2.png"" style=""width: 300px; height: auto;"">
        </div>
        <div style=""text-align: center; margin-left: 20px;"">
          <p style=""font-size: 24px; font-weight: bold;"">Event 2</p>
          <img src=""images/causal/cat_care_semantic/cat_care_semantic_6.png"" style=""width: 300px; height: auto;"">
        </div>
      </div>
      <p style=""text-align: center; margin-top: 20px;"">Did one event cause the other?</p>","2","2","6","true","cat_care_semantic"
"","","","","","html-button-response","61","414618","0.0-61.0","","5858","
      <div style=""display: flex; justify-content: center; align-items: center;"">
        <div style=""text-align: center; margin-right: 20px;"">
          <p style=""font-size: 24px; font-weight: bold;"">Event 1</p>
          <img src=""images/causal/cat_care_semantic/cat_care_semantic_3.png"" style=""width: 300px; height: auto;"">
        </div>
        <div style=""text-align: center; margin-left: 20px;"">
          <p style=""font-size: 24px; font-weight: bold;"">Event 2</p>
          <img src=""images/causal/cat_care_semantic/cat_care_semantic_10.png"" style=""width: 300px; height: auto;"">
        </div>
      </div>
      <p style=""text-align: center; margin-top: 20px;"">Did one event cause the other?</p>","2","3","10","true","cat_care_semantic"
"","","","","","html-button-response","62","420539","0.0-62.0","","5920","
      <div style=""display: flex; justify-content: center; align-items: center;"">
        <div style=""text-align: center; margin-right: 20px;"">
          <p style=""font-size: 24px; font-weight: bold;"">Event 1</p>
          <img src=""images/causal/restaurant_scheme/restaurant_scheme_3.png"" style=""width: 300px; height: auto;"">
        </div>
        <div style=""text-align: center; margin-left: 20px;"">
          <p style=""font-size: 24px; font-weight: bold;"">Event 2</p>
          <img src=""images/causal/restaurant_scheme/restaurant_scheme_1.png"" style=""width: 300px; height: auto;"">
        </div>
      </div>
      <p style=""text-align: center; margin-top: 20px;"">Did one event cause the other?</p>","1","3","1","true","restaurant_scheme"
"","","","","","html-button-response","63","431102","0.0-63.0","","10562","
      <div style=""display: flex; justify-content: center; align-items: center;"">
        <div style=""text-align: center; margin-right: 20px;"">
          <p style=""font-size: 24px; font-weight: bold;"">Event 1</p>
          <img src=""images/causal/cat_care_semantic/cat_care_semantic_1.png"" style=""width: 300px; height: auto;"">
        </div>
        <div style=""text-align: center; margin-left: 20px;"">
          <p style=""font-size: 24px; font-weight: bold;"">Event 2</p>
          <img src=""images/causal/cat_care_semantic/cat_care_semantic_6.png"" style=""width: 300px; height: auto;"">
        </div>
      </div>
      <p style=""text-align: center; margin-top: 20px;"">Did one event cause the other?</p>","2","1","6","true","cat_care_semantic"
"","","","","","html-button-response","64","436755","0.0-64.0","","5653","
      <div style=""display: flex; justify-content: center; align-items: center;"">
        <div style=""text-align: center; margin-right: 20px;"">
          <p style=""font-size: 24px; font-weight: bold;"">Event 1<p>
          <img src=""images/causal/coin_causal/coin_causal_1.png"" style=""width: 300px; height: auto;"">
        </div>
        <div style=""text-align: center; margin-left: 20px;"">
          <p style=""font-size: 24px; font-weight: bold;"">Event 2</p>
          <img src=""images/causal/coin_causal/coin_causal_3.png"" style=""width: 300px; height: auto;"">
        </div>
      </div>
      <p style=""text-align: center; margin-top: 20px;"">Did one event cause the other?</p>","0","1","3","true","coin_causal"
"","","","","","html-button-response","65","442403","0.0-65.0","","5646","
      <div style=""display: flex; justify-content: center; align-items: center;"">
        <div style=""text-align: center; margin-right: 20px;"">
          <p style=""font-size: 24px; font-weight: bold;"">Event 1</p>
          <img src=""images/causal/cat_care_semantic/cat_care_semantic_1.png"" style=""width: 300px; height: auto;"">
        </div>
        <div style=""text-align: center; margin-left: 20px;"">
          <p style=""font-size: 24px; font-weight: bold;"">Event 2</p>
          <img src=""images/causal/cat_care_semantic/cat_care_semantic_7.png"" style=""width: 300px; height: auto;"">
        </div>
      </div>
      <p style=""text-align: center; margin-top: 20px;"">Did one event cause the other?</p>","2","1","7","true","cat_care_semantic"
"","","","","","html-button-response","66","447952","0.0-66.0","","5548","
      <div style=""display: flex; justify-content: center; align-items: center;"">
        <div style=""text-align: center; margin-right: 20px;"">
          <p style=""font-size: 24px; font-weight: bold;"">Event 1<p>
          <img src=""images/causal/coin_causal/coin_causal_9.png"" style=""width: 300px; height: auto;"">
        </div>
        <div style=""text-align: center; margin-left: 20px;"">
          <p style=""font-size: 24px; font-weight: bold;"">Event 2</p>
          <img src=""images/causal/coin_causal/coin_causal_3.png"" style=""width: 300px; height: auto;"">
        </div>
      </div>
      <p style=""text-align: center; margin-top: 20px;"">Did one event cause the other?</p>","2","9","3","true","coin_causal"
"","","","","","html-button-response","67","453601","0.0-67.0","","5648","
      <div style=""display: flex; justify-content: center; align-items: center;"">
        <div style=""text-align: center; margin-right: 20px;"">
          <p style=""font-size: 24px; font-weight: bold;"">Event 1</p>
          <img src=""images/causal/cat_care_semantic/cat_care_semantic_4.png"" style=""width: 300px; height: auto;"">
        </div>
        <div style=""text-align: center; margin-left: 20px;"">
          <p style=""font-size: 24px; font-weight: bold;"">Event 2</p>
          <img src=""images/causal/cat_care_semantic/cat_care_semantic_7.png"" style=""width: 300px; height: auto;"">
        </div>
      </div>
      <p style=""text-align: center; margin-top: 20px;"">Did one event cause the other?</p>","2","4","7","true","cat_care_semantic"
"","","","","","html-button-response","68","461038","0.0-68.0","","7436","
      <div style=""display: flex; justify-content: center; align-items: center;"">
        <div style=""text-align: center; margin-right: 20px;"">
          <p style=""font-size: 24px; font-weight: bold;"">Event 1</p>
          <img src=""images/causal/restaurant_scheme/restaurant_scheme_7.png"" style=""width: 300px; height: auto;"">
        </div>
        <div style=""text-align: center; margin-left: 20px;"">
          <p style=""font-size: 24px; font-weight: bold;"">Event 2</p>
          <img src=""images/causal/restaurant_scheme/restaurant_scheme_10.png"" style=""width: 300px; height: auto;"">
        </div>
      </div>
      <p style=""text-align: center; margin-top: 20px;"">Did one event cause the other?</p>","0","7","10","true","restaurant_scheme"
"","","","","","html-button-response","69","466505","0.0-69.0","","5466","
      <div style=""display: flex; justify-content: center; align-items: center;"">
        <div style=""text-align: center; margin-right: 20px;"">
          <p style=""font-size: 24px; font-weight: bold;"">Event 1<p>
          <img src=""images/causal/coin_causal/coin_causal_1.png"" style=""width: 300px; height: auto;"">
        </div>
        <div style=""text-align: center; margin-left: 20px;"">
          <p style=""font-size: 24px; font-weight: bold;"">Event 2</p>
          <img src=""images/causal/coin_causal/coin_causal_6.png"" style=""width: 300px; height: auto;"">
        </div>
      </div>
      <p style=""text-align: center; margin-top: 20px;"">Did one event cause the other?</p>","2","1","6","true","coin_causal"
"","","","","","html-button-response","70","473419","0.0-70.0","","6914","
      <div style=""display: flex; justify-content: center; align-items: center;"">
        <div style=""text-align: center; margin-right: 20px;"">
          <p style=""font-size: 24px; font-weight: bold;"">Event 1</p>
          <img src=""images/causal/restaurant_scheme/restaurant_scheme_9.png"" style=""width: 300px; height: auto;"">
        </div>
        <div style=""text-align: center; margin-left: 20px;"">
          <p style=""font-size: 24px; font-weight: bold;"">Event 2</p>
          <img src=""images/causal/restaurant_scheme/restaurant_scheme_3.png"" style=""width: 300px; height: auto;"">
        </div>
      </div>
      <p style=""text-align: center; margin-top: 20px;"">Did one event cause the other?</p>","2","9","3","true","restaurant_scheme"
"","","","","","html-button-response","71","479136","0.0-71.0","","5716","
      <div style=""display: flex; justify-content: center; align-items: center;"">
        <div style=""text-align: center; margin-right: 20px;"">
          <p style=""font-size: 24px; font-weight: bold;"">Event 1</p>
          <img src=""images/causal/restaurant_scheme/restaurant_scheme_3.png"" style=""width: 300px; height: auto;"">
        </div>
        <div style=""text-align: center; margin-left: 20px;"">
          <p style=""font-size: 24px; font-weight: bold;"">Event 2</p>
          <img src=""images/causal/restaurant_scheme/restaurant_scheme_8.png"" style=""width: 300px; height: auto;"">
        </div>
      </div>
      <p style=""text-align: center; margin-top: 20px;"">Did one event cause the other?</p>","0","3","8","true","restaurant_scheme"
"","","","","","html-button-response","72","485469","0.0-72.0","","6332","
      <div style=""display: flex; justify-content: center; align-items: center;"">
        <div style=""text-align: center; margin-right: 20px;"">
          <p style=""font-size: 24px; font-weight: bold;"">Event 1<p>
          <img src=""images/causal/coin_causal/coin_causal_8.png"" style=""width: 300px; height: auto;"">
        </div>
        <div style=""text-align: center; margin-left: 20px;"">
          <p style=""font-size: 24px; font-weight: bold;"">Event 2</p>
          <img src=""images/causal/coin_causal/coin_causal_9.png"" style=""width: 300px; height: auto;"">
        </div>
      </div>
      <p style=""text-align: center; margin-top: 20px;"">Did one event cause the other?</p>","0","8","9","true","coin_causal"
"","","","","","html-button-response","73","490952","0.0-73.0","","5483","
      <div style=""display: flex; justify-content: center; align-items: center;"">
        <div style=""text-align: center; margin-right: 20px;"">
          <p style=""font-size: 24px; font-weight: bold;"">Event 1</p>
          <img src=""images/causal/cat_care_semantic/cat_care_semantic_9.png"" style=""width: 300px; height: auto;"">
        </div>
        <div style=""text-align: center; margin-left: 20px;"">
          <p style=""font-size: 24px; font-weight: bold;"">Event 2</p>
          <img src=""images/causal/cat_care_semantic/cat_care_semantic_5.png"" style=""width: 300px; height: auto;"">
        </div>
      </div>
      <p style=""text-align: center; margin-top: 20px;"">Did one event cause the other?</p>","2","9","5","true","cat_care_semantic"
"","","","","","html-button-response","74","496506","0.0-74.0","","5552","
      <div style=""display: flex; justify-content: center; align-items: center;"">
        <div style=""text-align: center; margin-right: 20px;"">
          <p style=""font-size: 24px; font-weight: bold;"">Event 1</p>
          <img src=""images/causal/restaurant_scheme/restaurant_scheme_4.png"" style=""width: 300px; height: auto;"">
        </div>
        <div style=""text-align: center; margin-left: 20px;"">
          <p style=""font-size: 24px; font-weight: bold;"">Event 2</p>
          <img src=""images/causal/restaurant_scheme/restaurant_scheme_3.png"" style=""width: 300px; height: auto;"">
        </div>
      </div>
      <p style=""text-align: center; margin-top: 20px;"">Did one event cause the other?</p>","1","4","3","true","restaurant_scheme"
"","","","","","html-button-response","75","501937","0.0-75.0","","5432","
      <div style=""display: flex; justify-content: center; align-items: center;"">
        <div style=""text-align: center; margin-right: 20px;"">
          <p style=""font-size: 24px; font-weight: bold;"">Event 1</p>
          <img src=""images/causal/cat_care_semantic/cat_care_semantic_9.png"" style=""width: 300px; height: auto;"">
        </div>
        <div style=""text-align: center; margin-left: 20px;"">
          <p style=""font-size: 24px; font-weight: bold;"">Event 2</p>
          <img src=""images/causal/cat_care_semantic/cat_care_semantic_6.png"" style=""width: 300px; height: auto;"">
        </div>
      </div>
      <p style=""text-align: center; margin-top: 20px;"">Did one event cause the other?</p>","2","9","6","true","cat_care_semantic"
"","","","","","html-button-response","76","507398","0.0-76.0","","5462","
      <div style=""display: flex; justify-content: center; align-items: center;"">
        <div style=""text-align: center; margin-right: 20px;"">
          <p style=""font-size: 24px; font-weight: bold;"">Event 1</p>
          <img src=""images/causal/restaurant_scheme/restaurant_scheme_7.png"" style=""width: 300px; height: auto;"">
        </div>
        <div style=""text-align: center; margin-left: 20px;"">
          <p style=""font-size: 24px; font-weight: bold;"">Event 2</p>
          <img src=""images/causal/restaurant_scheme/restaurant_scheme_6.png"" style=""width: 300px; height: auto;"">
        </div>
      </div>
      <p style=""text-align: center; margin-top: 20px;"">Did one event cause the other?</p>","1","7","6","true","restaurant_scheme"
"","","","","","html-button-response","77","512865","0.0-77.0","","5467","
      <div style=""display: flex; justify-content: center; align-items: center;"">
        <div style=""text-align: center; margin-right: 20px;"">
          <p style=""font-size: 24px; font-weight: bold;"">Event 1<p>
          <img src=""images/causal/coin_causal/coin_causal_6.png"" style=""width: 300px; height: auto;"">
        </div>
        <div style=""text-align: center; margin-left: 20px;"">
          <p style=""font-size: 24px; font-weight: bold;"">Event 2</p>
          <img src=""images/causal/coin_causal/coin_causal_10.png"" style=""width: 300px; height: auto;"">
        </div>
      </div>
      <p style=""text-align: center; margin-top: 20px;"">Did one event cause the other?</p>","2","6","10","true","coin_causal"
"","","","","","html-button-response","78","518432","0.0-78.0","","5568","
      <div style=""display: flex; justify-content: center; align-items: center;"">
        <div style=""text-align: center; margin-right: 20px;"">
          <p style=""font-size: 24px; font-weight: bold;"">Event 1</p>
          <img src=""images/causal/cat_care_semantic/cat_care_semantic_1.png"" style=""width: 300px; height: auto;"">
        </div>
        <div style=""text-align: center; margin-left: 20px;"">
          <p style=""font-size: 24px; font-weight: bold;"">Event 2</p>
          <img src=""images/causal/cat_care_semantic/cat_care_semantic_2.png"" style=""width: 300px; height: auto;"">
        </div>
      </div>
      <p style=""text-align: center; margin-top: 20px;"">Did one event cause the other?</p>","2","1","2","true","cat_care_semantic"
"","","","","","html-button-response","79","524096","0.0-79.0","","5664","
      <div style=""display: flex; justify-content: center; align-items: center;"">
        <div style=""text-align: center; margin-right: 20px;"">
          <p style=""font-size: 24px; font-weight: bold;"">Event 1</p>
          <img src=""images/causal/cat_care_semantic/cat_care_semantic_3.png"" style=""width: 300px; height: auto;"">
        </div>
        <div style=""text-align: center; margin-left: 20px;"">
          <p style=""font-size: 24px; font-weight: bold;"">Event 2</p>
          <img src=""images/causal/cat_care_semantic/cat_care_semantic_9.png"" style=""width: 300px; height: auto;"">
        </div>
      </div>
      <p style=""text-align: center; margin-top: 20px;"">Did one event cause the other?</p>","2","3","9","true","cat_care_semantic"
"","","","","","html-button-response","80","530684","0.0-80.0","","6587","
      <div style=""display: flex; justify-content: center; align-items: center;"">
        <div style=""text-align: center; margin-right: 20px;"">
          <p style=""font-size: 24px; font-weight: bold;"">Event 1</p>
          <img src=""images/causal/cat_care_semantic/cat_care_semantic_10.png"" style=""width: 300px; height: auto;"">
        </div>
        <div style=""text-align: center; margin-left: 20px;"">
          <p style=""font-size: 24px; font-weight: bold;"">Event 2</p>
          <img src=""images/causal/cat_care_semantic/cat_care_semantic_9.png"" style=""width: 300px; height: auto;"">
        </div>
      </div>
      <p style=""text-align: center; margin-top: 20px;"">Did one event cause the other?</p>","0","10","9","true","cat_care_semantic"
"","","","","","html-button-response","81","536262","0.0-81.0","","5578","
      <div style=""display: flex; justify-content: center; align-items: center;"">
        <div style=""text-align: center; margin-right: 20px;"">
          <p style=""font-size: 24px; font-weight: bold;"">Event 1</p>
          <img src=""images/causal/restaurant_scheme/restaurant_scheme_1.png"" style=""width: 300px; height: auto;"">
        </div>
        <div style=""text-align: center; margin-left: 20px;"">
          <p style=""font-size: 24px; font-weight: bold;"">Event 2</p>
          <img src=""images/causal/restaurant_scheme/restaurant_scheme_10.png"" style=""width: 300px; height: auto;"">
        </div>
      </div>
      <p style=""text-align: center; margin-top: 20px;"">Did one event cause the other?</p>","0","1","10","true","restaurant_scheme"
"","","","","","html-button-response","82","541680","0.0-82.0","","5417","
      <div style=""display: flex; justify-content: center; align-items: center;"">
        <div style=""text-align: center; margin-right: 20px;"">
          <p style=""font-size: 24px; font-weight: bold;"">Event 1</p>
          <img src=""images/causal/restaurant_scheme/restaurant_scheme_9.png"" style=""width: 300px; height: auto;"">
        </div>
        <div style=""text-align: center; margin-left: 20px;"">
          <p style=""font-size: 24px; font-weight: bold;"">Event 2</p>
          <img src=""images/causal/restaurant_scheme/restaurant_scheme_4.png"" style=""width: 300px; height: auto;"">
        </div>
      </div>
      <p style=""text-align: center; margin-top: 20px;"">Did one event cause the other?</p>","1","9","4","true","restaurant_scheme"
"","","","","","html-button-response","83","547116","0.0-83.0","","5436","
      <div style=""display: flex; justify-content: center; align-items: center;"">
        <div style=""text-align: center; margin-right: 20px;"">
          <p style=""font-size: 24px; font-weight: bold;"">Event 1</p>
          <img src=""images/causal/restaurant_scheme/restaurant_scheme_7.png"" style=""width: 300px; height: auto;"">
        </div>
        <div style=""text-align: center; margin-left: 20px;"">
          <p style=""font-size: 24px; font-weight: bold;"">Event 2</p>
          <img src=""images/causal/restaurant_scheme/restaurant_scheme_1.png"" style=""width: 300px; height: auto;"">
        </div>
      </div>
      <p style=""text-align: center; margin-top: 20px;"">Did one event cause the other?</p>","1","7","1","true","restaurant_scheme"
"","","","","","html-button-response","84","552529","0.0-84.0","","5412","
      <div style=""display: flex; justify-content: center; align-items: center;"">
        <div style=""text-align: center; margin-right: 20px;"">
          <p style=""font-size: 24px; font-weight: bold;"">Event 1<p>
          <img src=""images/causal/coin_causal/coin_causal_8.png"" style=""width: 300px; height: auto;"">
        </div>
        <div style=""text-align: center; margin-left: 20px;"">
          <p style=""font-size: 24px; font-weight: bold;"">Event 2</p>
          <img src=""images/causal/coin_causal/coin_causal_7.png"" style=""width: 300px; height: auto;"">
        </div>
      </div>
      <p style=""text-align: center; margin-top: 20px;"">Did one event cause the other?</p>","1","8","7","true","coin_causal"
"","","","","","html-button-response","85","557946","0.0-85.0","","5416","
      <div style=""display: flex; justify-content: center; align-items: center;"">
        <div style=""text-align: center; margin-right: 20px;"">
          <p style=""font-size: 24px; font-weight: bold;"">Event 1<p>
          <img src=""images/causal/coin_causal/coin_causal_9.png"" style=""width: 300px; height: auto;"">
        </div>
        <div style=""text-align: center; margin-left: 20px;"">
          <p style=""font-size: 24px; font-weight: bold;"">Event 2</p>
          <img src=""images/causal/coin_causal/coin_causal_7.png"" style=""width: 300px; height: auto;"">
        </div>
      </div>
      <p style=""text-align: center; margin-top: 20px;"">Did one event cause the other?</p>","1","9","7","true","coin_causal"
"","","","","","html-button-response","86","563695","0.0-86.0","","5748","
      <div style=""display: flex; justify-content: center; align-items: center;"">
        <div style=""text-align: center; margin-right: 20px;"">
          <p style=""font-size: 24px; font-weight: bold;"">Event 1</p>
          <img src=""images/causal/cat_care_semantic/cat_care_semantic_7.png"" style=""width: 300px; height: auto;"">
        </div>
        <div style=""text-align: center; margin-left: 20px;"">
          <p style=""font-size: 24px; font-weight: bold;"">Event 2</p>
          <img src=""images/causal/cat_care_semantic/cat_care_semantic_2.png"" style=""width: 300px; height: auto;"">
        </div>
      </div>
      <p style=""text-align: center; margin-top: 20px;"">Did one event cause the other?</p>","2","7","2","true","cat_care_semantic"
"","","","","","html-button-response","87","570468","0.0-87.0","","6772","
      <div style=""display: flex; justify-content: center; align-items: center;"">
        <div style=""text-align: center; margin-right: 20px;"">
          <p style=""font-size: 24px; font-weight: bold;"">Event 1<p>
          <img src=""images/causal/coin_causal/coin_causal_4.png"" style=""width: 300px; height: auto;"">
        </div>
        <div style=""text-align: center; margin-left: 20px;"">
          <p style=""font-size: 24px; font-weight: bold;"">Event 2</p>
          <img src=""images/causal/coin_causal/coin_causal_5.png"" style=""width: 300px; height: auto;"">
        </div>
      </div>
      <p style=""text-align: center; margin-top: 20px;"">Did one event cause the other?</p>","0","4","5","true","coin_causal"
"","","","","","html-button-response","88","575981","0.0-88.0","","5512","
      <div style=""display: flex; justify-content: center; align-items: center;"">
        <div style=""text-align: center; margin-right: 20px;"">
          <p style=""font-size: 24px; font-weight: bold;"">Event 1</p>
          <img src=""images/causal/restaurant_scheme/restaurant_scheme_6.png"" style=""width: 300px; height: auto;"">
        </div>
        <div style=""text-align: center; margin-left: 20px;"">
          <p style=""font-size: 24px; font-weight: bold;"">Event 2</p>
          <img src=""images/causal/restaurant_scheme/restaurant_scheme_2.png"" style=""width: 300px; height: auto;"">
        </div>
      </div>
      <p style=""text-align: center; margin-top: 20px;"">Did one event cause the other?</p>","1","6","2","true","restaurant_scheme"
"","","","","","html-button-response","89","581463","0.0-89.0","","5482","
      <div style=""display: flex; justify-content: center; align-items: center;"">
        <div style=""text-align: center; margin-right: 20px;"">
          <p style=""font-size: 24px; font-weight: bold;"">Event 1</p>
          <img src=""images/causal/restaurant_scheme/restaurant_scheme_7.png"" style=""width: 300px; height: auto;"">
        </div>
        <div style=""text-align: center; margin-left: 20px;"">
          <p style=""font-size: 24px; font-weight: bold;"">Event 2</p>
          <img src=""images/causal/restaurant_scheme/restaurant_scheme_3.png"" style=""width: 300px; height: auto;"">
        </div>
      </div>
      <p style=""text-align: center; margin-top: 20px;"">Did one event cause the other?</p>","1","7","3","true","restaurant_scheme"
"","","","","","html-button-response","90","587077","0.0-90.0","","5613","
      <div style=""display: flex; justify-content: center; align-items: center;"">
        <div style=""text-align: center; margin-right: 20px;"">
          <p style=""font-size: 24px; font-weight: bold;"">Event 1</p>
          <img src=""images/causal/restaurant_scheme/restaurant_scheme_2.png"" style=""width: 300px; height: auto;"">
        </div>
        <div style=""text-align: center; margin-left: 20px;"">
          <p style=""font-size: 24px; font-weight: bold;"">Event 2</p>
          <img src=""images/causal/restaurant_scheme/restaurant_scheme_7.png"" style=""width: 300px; height: auto;"">
        </div>
      </div>
      <p style=""text-align: center; margin-top: 20px;"">Did one event cause the other?</p>","0","2","7","true","restaurant_scheme"
"","","","","","html-button-response","91","592746","0.0-91.0","","5668","
      <div style=""display: flex; justify-content: center; align-items: center;"">
        <div style=""text-align: center; margin-right: 20px;"">
          <p style=""font-size: 24px; font-weight: bold;"">Event 1</p>
          <img src=""images/causal/cat_care_semantic/cat_care_semantic_5.png"" style=""width: 300px; height: auto;"">
        </div>
        <div style=""text-align: center; margin-left: 20px;"">
          <p style=""font-size: 24px; font-weight: bold;"">Event 2</p>
          <img src=""images/causal/cat_care_semantic/cat_care_semantic_8.png"" style=""width: 300px; height: auto;"">
        </div>
      </div>
      <p style=""text-align: center; margin-top: 20px;"">Did one event cause the other?</p>","2","5","8","true","cat_care_semantic"
"","","","","","html-button-response","92","598215","0.0-92.0","","5468","
      <div style=""display: flex; justify-content: center; align-items: center;"">
        <div style=""text-align: center; margin-right: 20px;"">
          <p style=""font-size: 24px; font-weight: bold;"">Event 1</p>
          <img src=""images/causal/cat_care_semantic/cat_care_semantic_9.png"" style=""width: 300px; height: auto;"">
        </div>
        <div style=""text-align: center; margin-left: 20px;"">
          <p style=""font-size: 24px; font-weight: bold;"">Event 2</p>
          <img src=""images/causal/cat_care_semantic/cat_care_semantic_4.png"" style=""width: 300px; height: auto;"">
        </div>
      </div>
      <p style=""text-align: center; margin-top: 20px;"">Did one event cause the other?</p>","1","9","4","true","cat_care_semantic"
"","","","","","html-button-response","93","603662","0.0-93.0","","5446","
      <div style=""display: flex; justify-content: center; align-items: center;"">
        <div style=""text-align: center; margin-right: 20px;"">
          <p style=""font-size: 24px; font-weight: bold;"">Event 1<p>
          <img src=""images/causal/coin_causal/coin_causal_2.png"" style=""width: 300px; height: auto;"">
        </div>
        <div style=""text-align: center; margin-left: 20px;"">
          <p style=""font-size: 24px; font-weight: bold;"">Event 2</p>
          <img src=""images/causal/coin_causal/coin_causal_5.png"" style=""width: 300px; height: auto;"">
        </div>
      </div>
      <p style=""text-align: center; margin-top: 20px;"">Did one event cause the other?</p>","2","2","5","true","coin_causal"
"","","","","","html-button-response","94","609132","0.0-94.0","","5469","
      <div style=""display: flex; justify-content: center; align-items: center;"">
        <div style=""text-align: center; margin-right: 20px;"">
          <p style=""font-size: 24px; font-weight: bold;"">Event 1</p>
          <img src=""images/causal/restaurant_scheme/restaurant_scheme_3.png"" style=""width: 300px; height: auto;"">
        </div>
        <div style=""text-align: center; margin-left: 20px;"">
          <p style=""font-size: 24px; font-weight: bold;"">Event 2</p>
          <img src=""images/causal/restaurant_scheme/restaurant_scheme_2.png"" style=""width: 300px; height: auto;"">
        </div>
      </div>
      <p style=""text-align: center; margin-top: 20px;"">Did one event cause the other?</p>","1","3","2","true","restaurant_scheme"
"","","","","","html-button-response","95","614912","0.0-95.0","","5779","
      <div style=""display: flex; justify-content: center; align-items: center;"">
        <div style=""text-align: center; margin-right: 20px;"">
          <p style=""font-size: 24px; font-weight: bold;"">Event 1</p>
          <img src=""images/causal/restaurant_scheme/restaurant_scheme_9.png"" style=""width: 300px; height: auto;"">
        </div>
        <div style=""text-align: center; margin-left: 20px;"">
          <p style=""font-size: 24px; font-weight: bold;"">Event 2</p>
          <img src=""images/causal/restaurant_scheme/restaurant_scheme_10.png"" style=""width: 300px; height: auto;"">
        </div>
      </div>
      <p style=""text-align: center; margin-top: 20px;"">Did one event cause the other?</p>","0","9","10","true","restaurant_scheme"
"","","","","","html-button-response","96","620298","0.0-96.0","","5385","
      <div style=""display: flex; justify-content: center; align-items: center;"">
        <div style=""text-align: center; margin-right: 20px;"">
          <p style=""font-size: 24px; font-weight: bold;"">Event 1</p>
          <img src=""images/causal/restaurant_scheme/restaurant_scheme_8.png"" style=""width: 300px; height: auto;"">
        </div>
        <div style=""text-align: center; margin-left: 20px;"">
          <p style=""font-size: 24px; font-weight: bold;"">Event 2</p>
          <img src=""images/causal/restaurant_scheme/restaurant_scheme_4.png"" style=""width: 300px; height: auto;"">
        </div>
      </div>
      <p style=""text-align: center; margin-top: 20px;"">Did one event cause the other?</p>","1","8","4","true","restaurant_scheme"
"","","","","","html-button-response","97","625729","0.0-97.0","","5430","
      <div style=""display: flex; justify-content: center; align-items: center;"">
        <div style=""text-align: center; margin-right: 20px;"">
          <p style=""font-size: 24px; font-weight: bold;"">Event 1</p>
          <img src=""images/causal/restaurant_scheme/restaurant_scheme_5.png"" style=""width: 300px; height: auto;"">
        </div>
        <div style=""text-align: center; margin-left: 20px;"">
          <p style=""font-size: 24px; font-weight: bold;"">Event 2</p>
          <img src=""images/causal/restaurant_scheme/restaurant_scheme_6.png"" style=""width: 300px; height: auto;"">
        </div>
      </div>
      <p style=""text-align: center; margin-top: 20px;"">Did one event cause the other?</p>","0","5","6","true","restaurant_scheme"
"","","","","","html-button-response","98","631179","0.0-98.0","","5449","
      <div style=""display: flex; justify-content: center; align-items: center;"">
        <div style=""text-align: center; margin-right: 20px;"">
          <p style=""font-size: 24px; font-weight: bold;"">Event 1</p>
          <img src=""images/causal/restaurant_scheme/restaurant_scheme_2.png"" style=""width: 300px; height: auto;"">
        </div>
        <div style=""text-align: center; margin-left: 20px;"">
          <p style=""font-size: 24px; font-weight: bold;"">Event 2</p>
          <img src=""images/causal/restaurant_scheme/restaurant_scheme_5.png"" style=""width: 300px; height: auto;"">
        </div>
      </div>
      <p style=""text-align: center; margin-top: 20px;"">Did one event cause the other?</p>","2","2","5","true","restaurant_scheme"
"","","","","","html-button-response","99","638012","0.0-99.0","","6832","
      <div style=""display: flex; justify-content: center; align-items: center;"">
        <div style=""text-align: center; margin-right: 20px;"">
          <p style=""font-size: 24px; font-weight: bold;"">Event 1</p>
          <img src=""images/causal/restaurant_scheme/restaurant_scheme_4.png"" style=""width: 300px; height: auto;"">
        </div>
        <div style=""text-align: center; margin-left: 20px;"">
          <p style=""font-size: 24px; font-weight: bold;"">Event 2</p>
          <img src=""images/causal/restaurant_scheme/restaurant_scheme_7.png"" style=""width: 300px; height: auto;"">
        </div>
      </div>
      <p style=""text-align: center; margin-top: 20px;"">Did one event cause the other?</p>","0","4","7","true","restaurant_scheme"
"","","","","","html-button-response","100","643465","0.0-100.0","","5452","
      <div style=""display: flex; justify-content: center; align-items: center;"">
        <div style=""text-align: center; margin-right: 20px;"">
          <p style=""font-size: 24px; font-weight: bold;"">Event 1</p>
          <img src=""images/causal/cat_care_semantic/cat_care_semantic_7.png"" style=""width: 300px; height: auto;"">
        </div>
        <div style=""text-align: center; margin-left: 20px;"">
          <p style=""font-size: 24px; font-weight: bold;"">Event 2</p>
          <img src=""images/causal/cat_care_semantic/cat_care_semantic_8.png"" style=""width: 300px; height: auto;"">
        </div>
      </div>
      <p style=""text-align: center; margin-top: 20px;"">Did one event cause the other?</p>","0","7","8","true","cat_care_semantic"
"","","","","","html-button-response","101","649015","0.0-101.0","","5549","
      <div style=""display: flex; justify-content: center; align-items: center;"">
        <div style=""text-align: center; margin-right: 20px;"">
          <p style=""font-size: 24px; font-weight: bold;"">Event 1<p>
          <img src=""images/causal/coin_causal/coin_causal_4.png"" style=""width: 300px; height: auto;"">
        </div>
        <div style=""text-align: center; margin-left: 20px;"">
          <p style=""font-size: 24px; font-weight: bold;"">Event 2</p>
          <img src=""images/causal/coin_causal/coin_causal_2.png"" style=""width: 300px; height: auto;"">
        </div>
      </div>
      <p style=""text-align: center; margin-top: 20px;"">Did one event cause the other?</p>","1","4","2","true","coin_causal"
"","","","","","html-button-response","102","654449","0.0-102.0","","5434","
      <div style=""display: flex; justify-content: center; align-items: center;"">
        <div style=""text-align: center; margin-right: 20px;"">
          <p style=""font-size: 24px; font-weight: bold;"">Event 1</p>
          <img src=""images/causal/cat_care_semantic/cat_care_semantic_5.png"" style=""width: 300px; height: auto;"">
        </div>
        <div style=""text-align: center; margin-left: 20px;"">
          <p style=""font-size: 24px; font-weight: bold;"">Event 2</p>
          <img src=""images/causal/cat_care_semantic/cat_care_semantic_1.png"" style=""width: 300px; height: auto;"">
        </div>
      </div>
      <p style=""text-align: center; margin-top: 20px;"">Did one event cause the other?</p>","2","5","1","true","cat_care_semantic"
"","","","","","html-button-response","103","660100","0.0-103.0","","5650","
      <div style=""display: flex; justify-content: center; align-items: center;"">
        <div style=""text-align: center; margin-right: 20px;"">
          <p style=""font-size: 24px; font-weight: bold;"">Event 1</p>
          <img src=""images/causal/cat_care_semantic/cat_care_semantic_5.png"" style=""width: 300px; height: auto;"">
        </div>
        <div style=""text-align: center; margin-left: 20px;"">
          <p style=""font-size: 24px; font-weight: bold;"">Event 2</p>
          <img src=""images/causal/cat_care_semantic/cat_care_semantic_6.png"" style=""width: 300px; height: auto;"">
        </div>
      </div>
      <p style=""text-align: center; margin-top: 20px;"">Did one event cause the other?</p>","2","5","6","true","cat_care_semantic"
"","","","","","html-button-response","104","665964","0.0-104.0","","5863","
      <div style=""display: flex; justify-content: center; align-items: center;"">
        <div style=""text-align: center; margin-right: 20px;"">
          <p style=""font-size: 24px; font-weight: bold;"">Event 1<p>
          <img src=""images/causal/coin_causal/coin_causal_7.png"" style=""width: 300px; height: auto;"">
        </div>
        <div style=""text-align: center; margin-left: 20px;"">
          <p style=""font-size: 24px; font-weight: bold;"">Event 2</p>
          <img src=""images/causal/coin_causal/coin_causal_5.png"" style=""width: 300px; height: auto;"">
        </div>
      </div>
      <p style=""text-align: center; margin-top: 20px;"">Did one event cause the other?</p>","1","7","5","true","coin_causal"
"","","","","","html-button-response","105","671479","0.0-105.0","","5514","
      <div style=""display: flex; justify-content: center; align-items: center;"">
        <div style=""text-align: center; margin-right: 20px;"">
          <p style=""font-size: 24px; font-weight: bold;"">Event 1<p>
          <img src=""images/causal/coin_causal/coin_causal_6.png"" style=""width: 300px; height: auto;"">
        </div>
        <div style=""text-align: center; margin-left: 20px;"">
          <p style=""font-size: 24px; font-weight: bold;"">Event 2</p>
          <img src=""images/causal/coin_causal/coin_causal_2.png"" style=""width: 300px; height: auto;"">
        </div>
      </div>
      <p style=""text-align: center; margin-top: 20px;"">Did one event cause the other?</p>","2","6","2","true","coin_causal"
"","","","","","html-button-response","106","678163","0.0-106.0","","6683","
      <div style=""display: flex; justify-content: center; align-items: center;"">
        <div style=""text-align: center; margin-right: 20px;"">
          <p style=""font-size: 24px; font-weight: bold;"">Event 1</p>
          <img src=""images/causal/cat_care_semantic/cat_care_semantic_2.png"" style=""width: 300px; height: auto;"">
        </div>
        <div style=""text-align: center; margin-left: 20px;"">
          <p style=""font-size: 24px; font-weight: bold;"">Event 2</p>
          <img src=""images/causal/cat_care_semantic/cat_care_semantic_10.png"" style=""width: 300px; height: auto;"">
        </div>
      </div>
      <p style=""text-align: center; margin-top: 20px;"">Did one event cause the other?</p>","1","2","10","true","cat_care_semantic"
"","","","","","html-button-response","107","683612","0.0-107.0","","5448","
      <div style=""display: flex; justify-content: center; align-items: center;"">
        <div style=""text-align: center; margin-right: 20px;"">
          <p style=""font-size: 24px; font-weight: bold;"">Event 1</p>
          <img src=""images/causal/cat_care_semantic/cat_care_semantic_2.png"" style=""width: 300px; height: auto;"">
        </div>
        <div style=""text-align: center; margin-left: 20px;"">
          <p style=""font-size: 24px; font-weight: bold;"">Event 2</p>
          <img src=""images/causal/cat_care_semantic/cat_care_semantic_3.png"" style=""width: 300px; height: auto;"">
        </div>
      </div>
      <p style=""text-align: center; margin-top: 20px;"">Did one event cause the other?</p>","0","2","3","true","cat_care_semantic"
"","","","","","html-button-response","108","689032","0.0-108.0","","5419","
      <div style=""display: flex; justify-content: center; align-items: center;"">
        <div style=""text-align: center; margin-right: 20px;"">
          <p style=""font-size: 24px; font-weight: bold;"">Event 1</p>
          <img src=""images/causal/restaurant_scheme/restaurant_scheme_3.png"" style=""width: 300px; height: auto;"">
        </div>
        <div style=""text-align: center; margin-left: 20px;"">
          <p style=""font-size: 24px; font-weight: bold;"">Event 2</p>
          <img src=""images/causal/restaurant_scheme/restaurant_scheme_5.png"" style=""width: 300px; height: auto;"">
        </div>
      </div>
      <p style=""text-align: center; margin-top: 20px;"">Did one event cause the other?</p>","0","3","5","true","restaurant_scheme"
"","","","","","html-button-response","109","695267","0.0-109.0","","6234","
      <div style=""display: flex; justify-content: center; align-items: center;"">
        <div style=""text-align: center; margin-right: 20px;"">
          <p style=""font-size: 24px; font-weight: bold;"">Event 1</p>
          <img src=""images/causal/cat_care_semantic/cat_care_semantic_6.png"" style=""width: 300px; height: auto;"">
        </div>
        <div style=""text-align: center; margin-left: 20px;"">
          <p style=""font-size: 24px; font-weight: bold;"">Event 2</p>
          <img src=""images/causal/cat_care_semantic/cat_care_semantic_7.png"" style=""width: 300px; height: auto;"">
        </div>
      </div>
      <p style=""text-align: center; margin-top: 20px;"">Did one event cause the other?</p>","1","6","7","true","cat_care_semantic"
"","","","","","html-button-response","110","700747","0.0-110.0","","5479","
      <div style=""display: flex; justify-content: center; align-items: center;"">
        <div style=""text-align: center; margin-right: 20px;"">
          <p style=""font-size: 24px; font-weight: bold;"">Event 1<p>
          <img src=""images/causal/coin_causal/coin_causal_10.png"" style=""width: 300px; height: auto;"">
        </div>
        <div style=""text-align: center; margin-left: 20px;"">
          <p style=""font-size: 24px; font-weight: bold;"">Event 2</p>
          <img src=""images/causal/coin_causal/coin_causal_3.png"" style=""width: 300px; height: auto;"">
        </div>
      </div>
      <p style=""text-align: center; margin-top: 20px;"">Did one event cause the other?</p>","1","10","3","true","coin_causal"
"","","","","","html-button-response","111","706166","0.0-111.0","","5418","
      <div style=""display: flex; justify-content: center; align-items: center;"">
        <div style=""text-align: center; margin-right: 20px;"">
          <p style=""font-size: 24px; font-weight: bold;"">Event 1<p>
          <img src=""images/causal/coin_causal/coin_causal_3.png"" style=""width: 300px; height: auto;"">
        </div>
        <div style=""text-align: center; margin-left: 20px;"">
          <p style=""font-size: 24px; font-weight: bold;"">Event 2</p>
          <img src=""images/causal/coin_causal/coin_causal_4.png"" style=""width: 300px; height: auto;"">
        </div>
      </div>
      <p style=""text-align: center; margin-top: 20px;"">Did one event cause the other?</p>","0","3","4","true","coin_causal"
"","","","","","html-button-response","112","711966","0.0-112.0","","5799","
      <div style=""display: flex; justify-content: center; align-items: center;"">
        <div style=""text-align: center; margin-right: 20px;"">
          <p style=""font-size: 24px; font-weight: bold;"">Event 1<p>
          <img src=""images/causal/coin_causal/coin_causal_3.png"" style=""width: 300px; height: auto;"">
        </div>
        <div style=""text-align: center; margin-left: 20px;"">
          <p style=""font-size: 24px; font-weight: bold;"">Event 2</p>
          <img src=""images/causal/coin_causal/coin_causal_6.png"" style=""width: 300px; height: auto;"">
        </div>
      </div>
      <p style=""text-align: center; margin-top: 20px;"">Did one event cause the other?</p>","2","3","6","true","coin_causal"
"","","","","","html-button-response","113","717362","0.0-113.0","","5396","
      <div style=""display: flex; justify-content: center; align-items: center;"">
        <div style=""text-align: center; margin-right: 20px;"">
          <p style=""font-size: 24px; font-weight: bold;"">Event 1</p>
          <img src=""images/causal/restaurant_scheme/restaurant_scheme_5.png"" style=""width: 300px; height: auto;"">
        </div>
        <div style=""text-align: center; margin-left: 20px;"">
          <p style=""font-size: 24px; font-weight: bold;"">Event 2</p>
          <img src=""images/causal/restaurant_scheme/restaurant_scheme_7.png"" style=""width: 300px; height: auto;"">
        </div>
      </div>
      <p style=""text-align: center; margin-top: 20px;"">Did one event cause the other?</p>","0","5","7","true","restaurant_scheme"
"","","","","","html-button-response","114","722846","0.0-114.0","","5483","
      <div style=""display: flex; justify-content: center; align-items: center;"">
        <div style=""text-align: center; margin-right: 20px;"">
          <p style=""font-size: 24px; font-weight: bold;"">Event 1</p>
          <img src=""images/causal/restaurant_scheme/restaurant_scheme_5.png"" style=""width: 300px; height: auto;"">
        </div>
        <div style=""text-align: center; margin-left: 20px;"">
          <p style=""font-size: 24px; font-weight: bold;"">Event 2</p>
          <img src=""images/causal/restaurant_scheme/restaurant_scheme_9.png"" style=""width: 300px; height: auto;"">
        </div>
      </div>
      <p style=""text-align: center; margin-top: 20px;"">Did one event cause the other?</p>","0","5","9","true","restaurant_scheme"
"","","","","","html-button-response","115","728779","0.0-115.0","","5932","
      <div style=""display: flex; justify-content: center; align-items: center;"">
        <div style=""text-align: center; margin-right: 20px;"">
          <p style=""font-size: 24px; font-weight: bold;"">Event 1</p>
          <img src=""images/causal/cat_care_semantic/cat_care_semantic_10.png"" style=""width: 300px; height: auto;"">
        </div>
        <div style=""text-align: center; margin-left: 20px;"">
          <p style=""font-size: 24px; font-weight: bold;"">Event 2</p>
          <img src=""images/causal/cat_care_semantic/cat_care_semantic_4.png"" style=""width: 300px; height: auto;"">
        </div>
      </div>
      <p style=""text-align: center; margin-top: 20px;"">Did one event cause the other?</p>","0","10","4","true","cat_care_semantic"
"","","","","","html-button-response","116","734582","0.0-116.0","","5802","
      <div style=""display: flex; justify-content: center; align-items: center;"">
        <div style=""text-align: center; margin-right: 20px;"">
          <p style=""font-size: 24px; font-weight: bold;"">Event 1<p>
          <img src=""images/causal/coin_causal/coin_causal_7.png"" style=""width: 300px; height: auto;"">
        </div>
        <div style=""text-align: center; margin-left: 20px;"">
          <p style=""font-size: 24px; font-weight: bold;"">Event 2</p>
          <img src=""images/causal/coin_causal/coin_causal_1.png"" style=""width: 300px; height: auto;"">
        </div>
      </div>
      <p style=""text-align: center; margin-top: 20px;"">Did one event cause the other?</p>","2","7","1","true","coin_causal"
"","","","","","html-button-response","117","740614","0.0-117.0","","6030","
      <div style=""display: flex; justify-content: center; align-items: center;"">
        <div style=""text-align: center; margin-right: 20px;"">
          <p style=""font-size: 24px; font-weight: bold;"">Event 1</p>
          <img src=""images/causal/cat_care_semantic/cat_care_semantic_8.png"" style=""width: 300px; height: auto;"">
        </div>
        <div style=""text-align: center; margin-left: 20px;"">
          <p style=""font-size: 24px; font-weight: bold;"">Event 2</p>
          <img src=""images/causal/cat_care_semantic/cat_care_semantic_4.png"" style=""width: 300px; height: auto;"">
        </div>
      </div>
      <p style=""text-align: center; margin-top: 20px;"">Did one event cause the other?</p>","2","8","4","true","cat_care_semantic"
"","","","","","html-button-response","118","746114","0.0-118.0","","5500","
      <div style=""display: flex; justify-content: center; align-items: center;"">
        <div style=""text-align: center; margin-right: 20px;"">
          <p style=""font-size: 24px; font-weight: bold;"">Event 1</p>
          <img src=""images/causal/restaurant_scheme/restaurant_scheme_8.png"" style=""width: 300px; height: auto;"">
        </div>
        <div style=""text-align: center; margin-left: 20px;"">
          <p style=""font-size: 24px; font-weight: bold;"">Event 2</p>
          <img src=""images/causal/restaurant_scheme/restaurant_scheme_5.png"" style=""width: 300px; height: auto;"">
        </div>
      </div>
      <p style=""text-align: center; margin-top: 20px;"">Did one event cause the other?</p>","1","8","5","true","restaurant_scheme"
"","","","","","html-button-response","119","751549","0.0-119.0","","5433","
      <div style=""display: flex; justify-content: center; align-items: center;"">
        <div style=""text-align: center; margin-right: 20px;"">
          <p style=""font-size: 24px; font-weight: bold;"">Event 1</p>
          <img src=""images/causal/cat_care_semantic/cat_care_semantic_2.png"" style=""width: 300px; height: auto;"">
        </div>
        <div style=""text-align: center; margin-left: 20px;"">
          <p style=""font-size: 24px; font-weight: bold;"">Event 2</p>
          <img src=""images/causal/cat_care_semantic/cat_care_semantic_8.png"" style=""width: 300px; height: auto;"">
        </div>
      </div>
      <p style=""text-align: center; margin-top: 20px;"">Did one event cause the other?</p>","1","2","8","true","cat_care_semantic"
"","","","","","html-button-response","120","756980","0.0-120.0","","5431","
      <div style=""display: flex; justify-content: center; align-items: center;"">
        <div style=""text-align: center; margin-right: 20px;"">
          <p style=""font-size: 24px; font-weight: bold;"">Event 1<p>
          <img src=""images/causal/coin_causal/coin_causal_4.png"" style=""width: 300px; height: auto;"">
        </div>
        <div style=""text-align: center; margin-left: 20px;"">
          <p style=""font-size: 24px; font-weight: bold;"">Event 2</p>
          <img src=""images/causal/coin_causal/coin_causal_10.png"" style=""width: 300px; height: auto;"">
        </div>
      </div>
      <p style=""text-align: center; margin-top: 20px;"">Did one event cause the other?</p>","2","4","10","true","coin_causal"
"","","","","","html-button-response","121","762380","0.0-121.0","","5399","
      <div style=""display: flex; justify-content: center; align-items: center;"">
        <div style=""text-align: center; margin-right: 20px;"">
          <p style=""font-size: 24px; font-weight: bold;"">Event 1</p>
          <img src=""images/causal/restaurant_scheme/restaurant_scheme_8.png"" style=""width: 300px; height: auto;"">
        </div>
        <div style=""text-align: center; margin-left: 20px;"">
          <p style=""font-size: 24px; font-weight: bold;"">Event 2</p>
          <img src=""images/causal/restaurant_scheme/restaurant_scheme_2.png"" style=""width: 300px; height: auto;"">
        </div>
      </div>
      <p style=""text-align: center; margin-top: 20px;"">Did one event cause the other?</p>","2","8","2","true","restaurant_scheme"
"","","","","","html-button-response","122","767782","0.0-122.0","","5401","
      <div style=""display: flex; justify-content: center; align-items: center;"">
        <div style=""text-align: center; margin-right: 20px;"">
          <p style=""font-size: 24px; font-weight: bold;"">Event 1</p>
          <img src=""images/causal/restaurant_scheme/restaurant_scheme_4.png"" style=""width: 300px; height: auto;"">
        </div>
        <div style=""text-align: center; margin-left: 20px;"">
          <p style=""font-size: 24px; font-weight: bold;"">Event 2</p>
          <img src=""images/causal/restaurant_scheme/restaurant_scheme_10.png"" style=""width: 300px; height: auto;"">
