"success","timeout","failed_images","failed_audio","failed_video","trial_type","trial_index","time_elapsed","internal_node_id","subject_id","study_id","session_id","view_history","rt","stimulus","response","choice"
"true","false","[]","[]","[]","preload","0","2749","0.0-0.0","4C6F8CAA432043F6A437E7B9A1716996","d121a8f9-b9be-4c72-9e6e-283c6cd7f055","5479079d-2186-49b2-89e2-e3afab6abcc2","","","","",""
"","","","","","instructions","1","5579","0.0-1.0","4C6F8CAA432043F6A437E7B9A1716996","d121a8f9-b9be-4c72-9e6e-283c6cd7f055","5479079d-2186-49b2-89e2-e3afab6abcc2","[{""page_index"":0,""viewing_time"":2828}]","2829","","",""
"","","","","","instructions","2","14249","0.0-2.0","4C6F8CAA432043F6A437E7B9A1716996","d121a8f9-b9be-4c72-9e6e-283c6cd7f055","5479079d-2186-49b2-89e2-e3afab6abcc2","[{""page_index"":0,""viewing_time"":8669}]","8670","","",""
"true","","","","","fullscreen","3","17255","0.0-3.0","4C6F8CAA432043F6A437E7B9A1716996","d121a8f9-b9be-4c72-9e6e-283c6cd7f055","5479079d-2186-49b2-89e2-e3afab6abcc2","","1996","","",""
"","","","","","instructions","4","25554","0.0-4.0","4C6F8CAA432043F6A437E7B9A1716996","d121a8f9-b9be-4c72-9e6e-283c6cd7f055","5479079d-2186-49b2-89e2-e3afab6abcc2","[{""page_index"":0,""viewing_time"":8297}]","8297","","",""
"","","","","","html-keyboard-response","5","28560","0.0-5.0","4C6F8CAA432043F6A437E7B9A1716996","d121a8f9-b9be-4c72-9e6e-283c6cd7f055","5479079d-2186-49b2-89e2-e3afab6abcc2","","null","<div style=""display: flex; justify-content: center; align-items: center;"">
                <img src=""images/causal/causal_series_3/causal_series_3_a.jpg"" style=""width: 300px; height: 300px;"" />
              </div>","null",""
"","","","","","html-keyboard-response","6","31565","0.0-6.0","4C6F8CAA432043F6A437E7B9A1716996","d121a8f9-b9be-4c72-9e6e-283c6cd7f055","5479079d-2186-49b2-89e2-e3afab6abcc2","","null","<div style=""display: flex; justify-content: center; align-items: center;"">
                <img src=""images/causal/causal_series_3/causal_series_3_b.jpg"" style=""width: 300px; height: 300px;"" />
              </div>","null",""
"","","","","","html-keyboard-response","7","34570","0.0-7.0","4C6F8CAA432043F6A437E7B9A1716996","d121a8f9-b9be-4c72-9e6e-283c6cd7f055","5479079d-2186-49b2-89e2-e3afab6abcc2","","null","<div style=""display: flex; justify-content: center; align-items: center;"">
                <img src=""images/causal/causal_series_3/causal_series_3_c.jpg"" style=""width: 300px; height: 300px;"" />
              </div>","null",""
"","","","","","html-button-response","8","36433","0.0-8.0","4C6F8CAA432043F6A437E7B9A1716996","d121a8f9-b9be-4c72-9e6e-283c6cd7f055","5479079d-2186-49b2-89e2-e3afab6abcc2","","1858","
    <div style=""display: flex; justify-content: center; align-items: center;"">
      <img src=""images/blue_deck_1.png"" style=""width: 300px; height: 300px; margin-right: 10px;"" />
      <img src=""images/red_deck_2.png"" style=""width: 300px; height: 300px;"" />
    </div>","1","1"
"","","","","","html-keyboard-response","9","39439","0.0-9.0-1.0-0.0","4C6F8CAA432043F6A437E7B9A1716996","d121a8f9-b9be-4c72-9e6e-283c6cd7f055","5479079d-2186-49b2-89e2-e3afab6abcc2","","null","<div style=""display: flex; justify-content: center; align-items: center;"">
                <img src=""images/semantic/semantic_series_3/semantic_series_3_d.jpg"" style=""width: 300px; height: 300px;"" />
              </div>","null",""
"","","","","","html-keyboard-response","10","42444","0.0-10.0","4C6F8CAA432043F6A437E7B9A1716996","d121a8f9-b9be-4c72-9e6e-283c6cd7f055","5479079d-2186-49b2-89e2-e3afab6abcc2","","null","<div style=""display: flex; justify-content: center; align-items: center;"">
                <img src=""images/other/blank.jpg"" style=""width: 300px; height: 300px;"" />
              </div>","null",""
"","","","","","html-keyboard-response","11","45448","0.0-11.0","4C6F8CAA432043F6A437E7B9A1716996","d121a8f9-b9be-4c72-9e6e-283c6cd7f055","5479079d-2186-49b2-89e2-e3afab6abcc2","","null","<div style=""display: flex; justify-content: center; align-items: center;"">
                <img src=""images/causal/causal_series_15/causal_series_15_a.jpg"" style=""width: 300px; height: 300px;"" />
              </div>","null",""
"","","","","","html-keyboard-response","12","48454","0.0-12.0","4C6F8CAA432043F6A437E7B9A1716996","d121a8f9-b9be-4c72-9e6e-283c6cd7f055","5479079d-2186-49b2-89e2-e3afab6abcc2","","null","<div style=""display: flex; justify-content: center; align-items: center;"">
                <img src=""images/causal/causal_series_15/causal_series_15_b.jpg"" style=""width: 300px; height: 300px;"" />
              </div>","null",""
"","","","","","html-keyboard-response","13","51460","0.0-13.0","4C6F8CAA432043F6A437E7B9A1716996","d121a8f9-b9be-4c72-9e6e-283c6cd7f055","5479079d-2186-49b2-89e2-e3afab6abcc2","","null","<div style=""display: flex; justify-content: center; align-items: center;"">
                <img src=""images/causal/causal_series_15/causal_series_15_c.jpg"" style=""width: 300px; height: 300px;"" />
              </div>","null",""
"","","","","","html-button-response","14","52330","0.0-14.0","4C6F8CAA432043F6A437E7B9A1716996","d121a8f9-b9be-4c72-9e6e-283c6cd7f055","5479079d-2186-49b2-89e2-e3afab6abcc2","","866","
    <div style=""display: flex; justify-content: center; align-items: center;"">
      <img src=""images/blue_deck_1.png"" style=""width: 300px; height: 300px; margin-right: 10px;"" />
      <img src=""images/red_deck_2.png"" style=""width: 300px; height: 300px;"" />
    </div>","1","1"
"","","","","","html-keyboard-response","15","55334","0.0-15.0-1.0-0.0","4C6F8CAA432043F6A437E7B9A1716996","d121a8f9-b9be-4c72-9e6e-283c6cd7f055","5479079d-2186-49b2-89e2-e3afab6abcc2","","null","<div style=""display: flex; justify-content: center; align-items: center;"">
                <img src=""images/semantic/semantic_series_15/semantic_series_15_d.jpg"" style=""width: 300px; height: 300px;"" />
              </div>","null",""
"","","","","","html-keyboard-response","16","58338","0.0-16.0","4C6F8CAA432043F6A437E7B9A1716996","d121a8f9-b9be-4c72-9e6e-283c6cd7f055","5479079d-2186-49b2-89e2-e3afab6abcc2","","null","<div style=""display: flex; justify-content: center; align-items: center;"">
                <img src=""images/other/blank.jpg"" style=""width: 300px; height: 300px;"" />
              </div>","null",""
"","","","","","html-keyboard-response","17","61344","0.0-17.0","4C6F8CAA432043F6A437E7B9A1716996","d121a8f9-b9be-4c72-9e6e-283c6cd7f055","5479079d-2186-49b2-89e2-e3afab6abcc2","","null","<div style=""display: flex; justify-content: center; align-items: center;"">
                <img src=""images/causal/causal_series_8/causal_series_8_a.jpg"" style=""width: 300px; height: 300px;"" />
              </div>","null",""
"","","","","","html-keyboard-response","18","64350","0.0-18.0","4C6F8CAA432043F6A437E7B9A1716996","d121a8f9-b9be-4c72-9e6e-283c6cd7f055","5479079d-2186-49b2-89e2-e3afab6abcc2","","null","<div style=""display: flex; justify-content: center; align-items: center;"">
                <img src=""images/causal/causal_series_8/causal_series_8_b.jpg"" style=""width: 300px; height: 300px;"" />
              </div>","null",""
"","","","","","html-keyboard-response","19","67355","0.0-19.0","4C6F8CAA432043F6A437E7B9A1716996","d121a8f9-b9be-4c72-9e6e-283c6cd7f055","5479079d-2186-49b2-89e2-e3afab6abcc2","","null","<div style=""display: flex; justify-content: center; align-items: center;"">
                <img src=""images/causal/causal_series_8/causal_series_8_c.jpg"" style=""width: 300px; height: 300px;"" />
              </div>","null",""
"","","","","","html-button-response","20","68304","0.0-20.0","4C6F8CAA432043F6A437E7B9A1716996","d121a8f9-b9be-4c72-9e6e-283c6cd7f055","5479079d-2186-49b2-89e2-e3afab6abcc2","","945","
    <div style=""display: flex; justify-content: center; align-items: center;"">
      <img src=""images/blue_deck_1.png"" style=""width: 300px; height: 300px; margin-right: 10px;"" />
      <img src=""images/red_deck_2.png"" style=""width: 300px; height: 300px;"" />
    </div>","0","0"
"","","","","","html-keyboard-response","21","71307","0.0-21.0-0.0-0.0","4C6F8CAA432043F6A437E7B9A1716996","d121a8f9-b9be-4c72-9e6e-283c6cd7f055","5479079d-2186-49b2-89e2-e3afab6abcc2","","null","<div style=""display: flex; justify-content: center; align-items: center;"">
                <img src=""images/causal/causal_series_8/causal_series_8_d.jpg"" style=""width: 300px; height: 300px;"" />
              </div>","null",""
"","","","","","html-keyboard-response","22","74312","0.0-22.0","4C6F8CAA432043F6A437E7B9A1716996","d121a8f9-b9be-4c72-9e6e-283c6cd7f055","5479079d-2186-49b2-89e2-e3afab6abcc2","","null","<div style=""display: flex; justify-content: center; align-items: center;"">
                <img src=""images/other/blank.jpg"" style=""width: 300px; height: 300px;"" />
              </div>","null",""
"","","","","","html-keyboard-response","23","77316","0.0-23.0","4C6F8CAA432043F6A437E7B9A1716996","d121a8f9-b9be-4c72-9e6e-283c6cd7f055","5479079d-2186-49b2-89e2-e3afab6abcc2","","null","<div style=""display: flex; justify-content: center; align-items: center;"">
                <img src=""images/causal/causal_series_2/causal_series_2_a.jpg"" style=""width: 300px; height: 300px;"" />
              </div>","null",""
"","","","","","html-keyboard-response","24","80321","0.0-24.0","4C6F8CAA432043F6A437E7B9A1716996","d121a8f9-b9be-4c72-9e6e-283c6cd7f055","5479079d-2186-49b2-89e2-e3afab6abcc2","","null","<div style=""display: flex; justify-content: center; align-items: center;"">
                <img src=""images/causal/causal_series_2/causal_series_2_b.jpg"" style=""width: 300px; height: 300px;"" />
              </div>","null",""
"","","","","","html-keyboard-response","25","83325","0.0-25.0","4C6F8CAA432043F6A437E7B9A1716996","d121a8f9-b9be-4c72-9e6e-283c6cd7f055","5479079d-2186-49b2-89e2-e3afab6abcc2","","null","<div style=""display: flex; justify-content: center; align-items: center;"">
                <img src=""images/causal/causal_series_2/causal_series_2_c.jpg"" style=""width: 300px; height: 300px;"" />
              </div>","null",""
"","","","","","html-button-response","26","84169","0.0-26.0","4C6F8CAA432043F6A437E7B9A1716996","d121a8f9-b9be-4c72-9e6e-283c6cd7f055","5479079d-2186-49b2-89e2-e3afab6abcc2","","840","
    <div style=""display: flex; justify-content: center; align-items: center;"">
      <img src=""images/blue_deck_1.png"" style=""width: 300px; height: 300px; margin-right: 10px;"" />
      <img src=""images/red_deck_2.png"" style=""width: 300px; height: 300px;"" />
    </div>","0","0"
"","","","","","html-keyboard-response","27","87174","0.0-27.0-0.0-0.0","4C6F8CAA432043F6A437E7B9A1716996","d121a8f9-b9be-4c72-9e6e-283c6cd7f055","5479079d-2186-49b2-89e2-e3afab6abcc2","","null","<div style=""display: flex; justify-content: center; align-items: center;"">
                <img src=""images/causal/causal_series_2/causal_series_2_d.jpg"" style=""width: 300px; height: 300px;"" />
              </div>","null",""
"","","","","","html-keyboard-response","28","90180","0.0-28.0","4C6F8CAA432043F6A437E7B9A1716996","d121a8f9-b9be-4c72-9e6e-283c6cd7f055","5479079d-2186-49b2-89e2-e3afab6abcc2","","null","<div style=""display: flex; justify-content: center; align-items: center;"">
                <img src=""images/other/blank.jpg"" style=""width: 300px; height: 300px;"" />
              </div>","null",""
"","","","","","html-keyboard-response","29","93184","0.0-29.0","4C6F8CAA432043F6A437E7B9A1716996","d121a8f9-b9be-4c72-9e6e-283c6cd7f055","5479079d-2186-49b2-89e2-e3afab6abcc2","","null","<div style=""display: flex; justify-content: center; align-items: center;"">
                <img src=""images/causal/causal_series_14/causal_series_14_a.jpg"" style=""width: 300px; height: 300px;"" />
              </div>","null",""
"","","","","","html-keyboard-response","30","96189","0.0-30.0","4C6F8CAA432043F6A437E7B9A1716996","d121a8f9-b9be-4c72-9e6e-283c6cd7f055","5479079d-2186-49b2-89e2-e3afab6abcc2","","null","<div style=""display: flex; justify-content: center; align-items: center;"">
                <img src=""images/causal/causal_series_14/causal_series_14_b.jpg"" style=""width: 300px; height: 300px;"" />
              </div>","null",""
"","","","","","html-keyboard-response","31","99192","0.0-31.0","4C6F8CAA432043F6A437E7B9A1716996","d121a8f9-b9be-4c72-9e6e-283c6cd7f055","5479079d-2186-49b2-89e2-e3afab6abcc2","","null","<div style=""display: flex; justify-content: center; align-items: center;"">
                <img src=""images/causal/causal_series_14/causal_series_14_c.jpg"" style=""width: 300px; height: 300px;"" />
              </div>","null",""
"","","","","","html-button-response","32","100116","0.0-32.0","4C6F8CAA432043F6A437E7B9A1716996","d121a8f9-b9be-4c72-9e6e-283c6cd7f055","5479079d-2186-49b2-89e2-e3afab6abcc2","","921","
    <div style=""display: flex; justify-content: center; align-items: center;"">
      <img src=""images/blue_deck_1.png"" style=""width: 300px; height: 300px; margin-right: 10px;"" />
      <img src=""images/red_deck_2.png"" style=""width: 300px; height: 300px;"" />
    </div>","0","0"
"","","","","","html-keyboard-response","33","103119","0.0-33.0-0.0-0.0","4C6F8CAA432043F6A437E7B9A1716996","d121a8f9-b9be-4c72-9e6e-283c6cd7f055","5479079d-2186-49b2-89e2-e3afab6abcc2","","null","<div style=""display: flex; justify-content: center; align-items: center;"">
                <img src=""images/causal/causal_series_14/causal_series_14_d.jpg"" style=""width: 300px; height: 300px;"" />
              </div>","null",""
"","","","","","html-keyboard-response","34","106123","0.0-34.0","4C6F8CAA432043F6A437E7B9A1716996","d121a8f9-b9be-4c72-9e6e-283c6cd7f055","5479079d-2186-49b2-89e2-e3afab6abcc2","","null","<div style=""display: flex; justify-content: center; align-items: center;"">
                <img src=""images/other/blank.jpg"" style=""width: 300px; height: 300px;"" />
              </div>","null",""
"","","","","","html-keyboard-response","35","109125","0.0-35.0","4C6F8CAA432043F6A437E7B9A1716996","d121a8f9-b9be-4c72-9e6e-283c6cd7f055","5479079d-2186-49b2-89e2-e3afab6abcc2","","null","<div style=""display: flex; justify-content: center; align-items: center;"">
                <img src=""images/causal/causal_series_5/causal_series_5_a.jpg"" style=""width: 300px; height: 300px;"" />
              </div>","null",""
"","","","","","html-keyboard-response","36","112129","0.0-36.0","4C6F8CAA432043F6A437E7B9A1716996","d121a8f9-b9be-4c72-9e6e-283c6cd7f055","5479079d-2186-49b2-89e2-e3afab6abcc2","","null","<div style=""display: flex; justify-content: center; align-items: center;"">
                <img src=""images/causal/causal_series_5/causal_series_5_b.jpg"" style=""width: 300px; height: 300px;"" />
              </div>","null",""
"","","","","","html-keyboard-response","37","115136","0.0-37.0","4C6F8CAA432043F6A437E7B9A1716996","d121a8f9-b9be-4c72-9e6e-283c6cd7f055","5479079d-2186-49b2-89e2-e3afab6abcc2","","null","<div style=""display: flex; justify-content: center; align-items: center;"">
                <img src=""images/causal/causal_series_5/causal_series_5_c.jpg"" style=""width: 300px; height: 300px;"" />
              </div>","null",""
"","","","","","html-button-response","38","115817","0.0-38.0","4C6F8CAA432043F6A437E7B9A1716996","d121a8f9-b9be-4c72-9e6e-283c6cd7f055","5479079d-2186-49b2-89e2-e3afab6abcc2","","678","
    <div style=""display: flex; justify-content: center; align-items: center;"">
      <img src=""images/blue_deck_1.png"" style=""width: 300px; height: 300px; margin-right: 10px;"" />
      <img src=""images/red_deck_2.png"" style=""width: 300px; height: 300px;"" />
    </div>","0","0"
"","","","","","html-keyboard-response","39","118819","0.0-39.0-0.0-0.0","4C6F8CAA432043F6A437E7B9A1716996","d121a8f9-b9be-4c72-9e6e-283c6cd7f055","5479079d-2186-49b2-89e2-e3afab6abcc2","","null","<div style=""display: flex; justify-content: center; align-items: center;"">
                <img src=""images/causal/causal_series_5/causal_series_5_d.jpg"" style=""width: 300px; height: 300px;"" />
              </div>","null",""
"","","","","","html-keyboard-response","40","121824","0.0-40.0","4C6F8CAA432043F6A437E7B9A1716996","d121a8f9-b9be-4c72-9e6e-283c6cd7f055","5479079d-2186-49b2-89e2-e3afab6abcc2","","null","<div style=""display: flex; justify-content: center; align-items: center;"">
                <img src=""images/other/blank.jpg"" style=""width: 300px; height: 300px;"" />
              </div>","null",""
"","","","","","html-keyboard-response","41","124829","0.0-41.0","4C6F8CAA432043F6A437E7B9A1716996","d121a8f9-b9be-4c72-9e6e-283c6cd7f055","5479079d-2186-49b2-89e2-e3afab6abcc2","","null","<div style=""display: flex; justify-content: center; align-items: center;"">
                <img src=""images/causal/causal_series_16/causal_series_16_a.jpg"" style=""width: 300px; height: 300px;"" />
              </div>","null",""
"","","","","","html-keyboard-response","42","127831","0.0-42.0","4C6F8CAA432043F6A437E7B9A1716996","d121a8f9-b9be-4c72-9e6e-283c6cd7f055","5479079d-2186-49b2-89e2-e3afab6abcc2","","null","<div style=""display: flex; justify-content: center; align-items: center;"">
                <img src=""images/causal/causal_series_16/causal_series_16_b.jpg"" style=""width: 300px; height: 300px;"" />
              </div>","null",""
"","","","","","html-keyboard-response","43","130834","0.0-43.0","4C6F8CAA432043F6A437E7B9A1716996","d121a8f9-b9be-4c72-9e6e-283c6cd7f055","5479079d-2186-49b2-89e2-e3afab6abcc2","","null","<div style=""display: flex; justify-content: center; align-items: center;"">
                <img src=""images/causal/causal_series_16/causal_series_16_c.jpg"" style=""width: 300px; height: 300px;"" />
              </div>","null",""
"","","","","","html-button-response","44","131588","0.0-44.0","4C6F8CAA432043F6A437E7B9A1716996","d121a8f9-b9be-4c72-9e6e-283c6cd7f055","5479079d-2186-49b2-89e2-e3afab6abcc2","","750","
    <div style=""display: flex; justify-content: center; align-items: center;"">
      <img src=""images/blue_deck_1.png"" style=""width: 300px; height: 300px; margin-right: 10px;"" />
      <img src=""images/red_deck_2.png"" style=""width: 300px; height: 300px;"" />
    </div>","0","0"
"","","","","","html-keyboard-response","45","134594","0.0-45.0-0.0-0.0","4C6F8CAA432043F6A437E7B9A1716996","d121a8f9-b9be-4c72-9e6e-283c6cd7f055","5479079d-2186-49b2-89e2-e3afab6abcc2","","null","<div style=""display: flex; justify-content: center; align-items: center;"">
                <img src=""images/causal/causal_series_16/causal_series_16_d.jpg"" style=""width: 300px; height: 300px;"" />
              </div>","null",""
"","","","","","html-keyboard-response","46","137598","0.0-46.0","4C6F8CAA432043F6A437E7B9A1716996","d121a8f9-b9be-4c72-9e6e-283c6cd7f055","5479079d-2186-49b2-89e2-e3afab6abcc2","","null","<div style=""display: flex; justify-content: center; align-items: center;"">
                <img src=""images/other/blank.jpg"" style=""width: 300px; height: 300px;"" />
              </div>","null",""
"","","","","","html-keyboard-response","47","140604","0.0-47.0","4C6F8CAA432043F6A437E7B9A1716996","d121a8f9-b9be-4c72-9e6e-283c6cd7f055","5479079d-2186-49b2-89e2-e3afab6abcc2","","null","<div style=""display: flex; justify-content: center; align-items: center;"">
                <img src=""images/causal/causal_series_17/causal_series_17_a.jpg"" style=""width: 300px; height: 300px;"" />
              </div>","null",""
"","","","","","html-keyboard-response","48","143610","0.0-48.0","4C6F8CAA432043F6A437E7B9A1716996","d121a8f9-b9be-4c72-9e6e-283c6cd7f055","5479079d-2186-49b2-89e2-e3afab6abcc2","","null","<div style=""display: flex; justify-content: center; align-items: center;"">
                <img src=""images/causal/causal_series_17/causal_series_17_b.jpg"" style=""width: 300px; height: 300px;"" />
              </div>","null",""
"","","","","","html-keyboard-response","49","146616","0.0-49.0","4C6F8CAA432043F6A437E7B9A1716996","d121a8f9-b9be-4c72-9e6e-283c6cd7f055","5479079d-2186-49b2-89e2-e3afab6abcc2","","null","<div style=""display: flex; justify-content: center; align-items: center;"">
                <img src=""images/causal/causal_series_17/causal_series_17_c.jpg"" style=""width: 300px; height: 300px;"" />
              </div>","null",""
"","","","","","html-button-response","50","147311","0.0-50.0","4C6F8CAA432043F6A437E7B9A1716996","d121a8f9-b9be-4c72-9e6e-283c6cd7f055","5479079d-2186-49b2-89e2-e3afab6abcc2","","691","
    <div style=""display: flex; justify-content: center; align-items: center;"">
      <img src=""images/blue_deck_1.png"" style=""width: 300px; height: 300px; margin-right: 10px;"" />
      <img src=""images/red_deck_2.png"" style=""width: 300px; height: 300px;"" />
    </div>","0","0"
"","","","","","html-keyboard-response","51","150314","0.0-51.0-0.0-0.0","4C6F8CAA432043F6A437E7B9A1716996","d121a8f9-b9be-4c72-9e6e-283c6cd7f055","5479079d-2186-49b2-89e2-e3afab6abcc2","","null","<div style=""display: flex; justify-content: center; align-items: center;"">
                <img src=""images/causal/causal_series_17/causal_series_17_d.jpg"" style=""width: 300px; height: 300px;"" />
              </div>","null",""
"","","","","","html-keyboard-response","52","153320","0.0-52.0","4C6F8CAA432043F6A437E7B9A1716996","d121a8f9-b9be-4c72-9e6e-283c6cd7f055","5479079d-2186-49b2-89e2-e3afab6abcc2","","null","<div style=""display: flex; justify-content: center; align-items: center;"">
                <img src=""images/other/blank.jpg"" style=""width: 300px; height: 300px;"" />
              </div>","null",""
"","","","","","html-keyboard-response","53","156325","0.0-53.0","4C6F8CAA432043F6A437E7B9A1716996","d121a8f9-b9be-4c72-9e6e-283c6cd7f055","5479079d-2186-49b2-89e2-e3afab6abcc2","","null","<div style=""display: flex; justify-content: center; align-items: center;"">
                <img src=""images/causal/causal_series_18/causal_series_18_a.jpg"" style=""width: 300px; height: 300px;"" />
              </div>","null",""
"","","","","","html-keyboard-response","54","159329","0.0-54.0","4C6F8CAA432043F6A437E7B9A1716996","d121a8f9-b9be-4c72-9e6e-283c6cd7f055","5479079d-2186-49b2-89e2-e3afab6abcc2","","null","<div style=""display: flex; justify-content: center; align-items: center;"">
                <img src=""images/causal/causal_series_18/causal_series_18_b.jpg"" style=""width: 300px; height: 300px;"" />
              </div>","null",""
"","","","","","html-keyboard-response","55","162334","0.0-55.0","4C6F8CAA432043F6A437E7B9A1716996","d121a8f9-b9be-4c72-9e6e-283c6cd7f055","5479079d-2186-49b2-89e2-e3afab6abcc2","","null","<div style=""display: flex; justify-content: center; align-items: center;"">
                <img src=""images/causal/causal_series_18/causal_series_18_c.jpg"" style=""width: 300px; height: 300px;"" />
              </div>","null",""
"","","","","","html-button-response","56","163854","0.0-56.0","4C6F8CAA432043F6A437E7B9A1716996","d121a8f9-b9be-4c72-9e6e-283c6cd7f055","5479079d-2186-49b2-89e2-e3afab6abcc2","","1517","
    <div style=""display: flex; justify-content: center; align-items: center;"">
      <img src=""images/blue_deck_1.png"" style=""width: 300px; height: 300px; margin-right: 10px;"" />
      <img src=""images/red_deck_2.png"" style=""width: 300px; height: 300px;"" />
    </div>","0","0"
"","","","","","html-keyboard-response","57","166858","0.0-57.0-0.0-0.0","4C6F8CAA432043F6A437E7B9A1716996","d121a8f9-b9be-4c72-9e6e-283c6cd7f055","5479079d-2186-49b2-89e2-e3afab6abcc2","","null","<div style=""display: flex; justify-content: center; align-items: center;"">
                <img src=""images/causal/causal_series_18/causal_series_18_d.jpg"" style=""width: 300px; height: 300px;"" />
              </div>","null",""
"","","","","","html-keyboard-response","58","169863","0.0-58.0","4C6F8CAA432043F6A437E7B9A1716996","d121a8f9-b9be-4c72-9e6e-283c6cd7f055","5479079d-2186-49b2-89e2-e3afab6abcc2","","null","<div style=""display: flex; justify-content: center; align-items: center;"">
                <img src=""images/other/blank.jpg"" style=""width: 300px; height: 300px;"" />
              </div>","null",""
"","","","","","html-keyboard-response","59","172866","0.0-59.0","4C6F8CAA432043F6A437E7B9A1716996","d121a8f9-b9be-4c72-9e6e-283c6cd7f055","5479079d-2186-49b2-89e2-e3afab6abcc2","","null","<div style=""display: flex; justify-content: center; align-items: center;"">
                <img src=""images/causal/causal_series_11/causal_series_11_a.jpg"" style=""width: 300px; height: 300px;"" />
              </div>","null",""
"","","","","","html-keyboard-response","60","175871","0.0-60.0","4C6F8CAA432043F6A437E7B9A1716996","d121a8f9-b9be-4c72-9e6e-283c6cd7f055","5479079d-2186-49b2-89e2-e3afab6abcc2","","null","<div style=""display: flex; justify-content: center; align-items: center;"">
                <img src=""images/causal/causal_series_11/causal_series_11_b.jpg"" style=""width: 300px; height: 300px;"" />
              </div>","null",""
"","","","","","html-keyboard-response","61","178875","0.0-61.0","4C6F8CAA432043F6A437E7B9A1716996","d121a8f9-b9be-4c72-9e6e-283c6cd7f055","5479079d-2186-49b2-89e2-e3afab6abcc2","","null","<div style=""display: flex; justify-content: center; align-items: center;"">
                <img src=""images/causal/causal_series_11/causal_series_11_c.jpg"" style=""width: 300px; height: 300px;"" />
              </div>","null",""
"","","","","","html-button-response","62","179797","0.0-62.0","4C6F8CAA432043F6A437E7B9A1716996","d121a8f9-b9be-4c72-9e6e-283c6cd7f055","5479079d-2186-49b2-89e2-e3afab6abcc2","","918","
    <div style=""display: flex; justify-content: center; align-items: center;"">
      <img src=""images/blue_deck_1.png"" style=""width: 300px; height: 300px; margin-right: 10px;"" />
      <img src=""images/red_deck_2.png"" style=""width: 300px; height: 300px;"" />
    </div>","0","0"
"","","","","","html-keyboard-response","63","182798","0.0-63.0-0.0-0.0","4C6F8CAA432043F6A437E7B9A1716996","d121a8f9-b9be-4c72-9e6e-283c6cd7f055","5479079d-2186-49b2-89e2-e3afab6abcc2","","null","<div style=""display: flex; justify-content: center; align-items: center;"">
                <img src=""images/causal/causal_series_11/causal_series_11_d.jpg"" style=""width: 300px; height: 300px;"" />
              </div>","null",""
"","","","","","html-keyboard-response","64","185799","0.0-64.0","4C6F8CAA432043F6A437E7B9A1716996","d121a8f9-b9be-4c72-9e6e-283c6cd7f055","5479079d-2186-49b2-89e2-e3afab6abcc2","","null","<div style=""display: flex; justify-content: center; align-items: center;"">
                <img src=""images/other/blank.jpg"" style=""width: 300px; height: 300px;"" />
              </div>","null",""
"","","","","","html-keyboard-response","65","188803","0.0-65.0","4C6F8CAA432043F6A437E7B9A1716996","d121a8f9-b9be-4c72-9e6e-283c6cd7f055","5479079d-2186-49b2-89e2-e3afab6abcc2","","null","<div style=""display: flex; justify-content: center; align-items: center;"">
                <img src=""images/causal/causal_series_13/causal_series_13_a.jpg"" style=""width: 300px; height: 300px;"" />
              </div>","null",""
"","","","","","html-keyboard-response","66","191808","0.0-66.0","4C6F8CAA432043F6A437E7B9A1716996","d121a8f9-b9be-4c72-9e6e-283c6cd7f055","5479079d-2186-49b2-89e2-e3afab6abcc2","","null","<div style=""display: flex; justify-content: center; align-items: center;"">
                <img src=""images/causal/causal_series_13/causal_series_13_b.jpg"" style=""width: 300px; height: 300px;"" />
              </div>","null",""
"","","","","","html-keyboard-response","67","194815","0.0-67.0","4C6F8CAA432043F6A437E7B9A1716996","d121a8f9-b9be-4c72-9e6e-283c6cd7f055","5479079d-2186-49b2-89e2-e3afab6abcc2","","null","<div style=""display: flex; justify-content: center; align-items: center;"">
                <img src=""images/causal/causal_series_13/causal_series_13_c.jpg"" style=""width: 300px; height: 300px;"" />
              </div>","null",""
"","","","","","html-button-response","68","195706","0.0-68.0","4C6F8CAA432043F6A437E7B9A1716996","d121a8f9-b9be-4c72-9e6e-283c6cd7f055","5479079d-2186-49b2-89e2-e3afab6abcc2","","888","
    <div style=""display: flex; justify-content: center; align-items: center;"">
      <img src=""images/blue_deck_1.png"" style=""width: 300px; height: 300px; margin-right: 10px;"" />
      <img src=""images/red_deck_2.png"" style=""width: 300px; height: 300px;"" />
    </div>","0","0"
"","","","","","html-keyboard-response","69","198708","0.0-69.0-0.0-0.0","4C6F8CAA432043F6A437E7B9A1716996","d121a8f9-b9be-4c72-9e6e-283c6cd7f055","5479079d-2186-49b2-89e2-e3afab6abcc2","","null","<div style=""display: flex; justify-content: center; align-items: center;"">
                <img src=""images/causal/causal_series_13/causal_series_13_d.jpg"" style=""width: 300px; height: 300px;"" />
              </div>","null",""
"","","","","","html-keyboard-response","70","201711","0.0-70.0","4C6F8CAA432043F6A437E7B9A1716996","d121a8f9-b9be-4c72-9e6e-283c6cd7f055","5479079d-2186-49b2-89e2-e3afab6abcc2","","null","<div style=""display: flex; justify-content: center; align-items: center;"">
                <img src=""images/other/blank.jpg"" style=""width: 300px; height: 300px;"" />
              </div>","null",""
"","","","","","html-keyboard-response","71","204715","0.0-71.0","4C6F8CAA432043F6A437E7B9A1716996","d121a8f9-b9be-4c72-9e6e-283c6cd7f055","5479079d-2186-49b2-89e2-e3afab6abcc2","","null","<div style=""display: flex; justify-content: center; align-items: center;"">
                <img src=""images/causal/causal_series_4/causal_series_4_a.jpg"" style=""width: 300px; height: 300px;"" />
              </div>","null",""
"","","","","","html-keyboard-response","72","207720","0.0-72.0","4C6F8CAA432043F6A437E7B9A1716996","d121a8f9-b9be-4c72-9e6e-283c6cd7f055","5479079d-2186-49b2-89e2-e3afab6abcc2","","null","<div style=""display: flex; justify-content: center; align-items: center;"">
                <img src=""images/causal/causal_series_4/causal_series_4_b.jpg"" style=""width: 300px; height: 300px;"" />
              </div>","null",""
"","","","","","html-keyboard-response","73","210725","0.0-73.0","4C6F8CAA432043F6A437E7B9A1716996","d121a8f9-b9be-4c72-9e6e-283c6cd7f055","5479079d-2186-49b2-89e2-e3afab6abcc2","","null","<div style=""display: flex; justify-content: center; align-items: center;"">
                <img src=""images/causal/causal_series_4/causal_series_4_c.jpg"" style=""width: 300px; height: 300px;"" />
              </div>","null",""
"","","","","","html-button-response","74","211815","0.0-74.0","4C6F8CAA432043F6A437E7B9A1716996","d121a8f9-b9be-4c72-9e6e-283c6cd7f055","5479079d-2186-49b2-89e2-e3afab6abcc2","","1087","
    <div style=""display: flex; justify-content: center; align-items: center;"">
      <img src=""images/blue_deck_1.png"" style=""width: 300px; height: 300px; margin-right: 10px;"" />
      <img src=""images/red_deck_2.png"" style=""width: 300px; height: 300px;"" />
    </div>","1","1"
"","","","","","html-keyboard-response","75","214819","0.0-75.0-1.0-0.0","4C6F8CAA432043F6A437E7B9A1716996","d121a8f9-b9be-4c72-9e6e-283c6cd7f055","5479079d-2186-49b2-89e2-e3afab6abcc2","","null","<div style=""display: flex; justify-content: center; align-items: center;"">
                <img src=""images/semantic/semantic_series_4/semantic_series_4_d.jpg"" style=""width: 300px; height: 300px;"" />
              </div>","null",""
"","","","","","html-keyboard-response","76","217823","0.0-76.0","4C6F8CAA432043F6A437E7B9A1716996","d121a8f9-b9be-4c72-9e6e-283c6cd7f055","5479079d-2186-49b2-89e2-e3afab6abcc2","","null","<div style=""display: flex; justify-content: center; align-items: center;"">
                <img src=""images/other/blank.jpg"" style=""width: 300px; height: 300px;"" />
              </div>","null",""
"","","","","","html-keyboard-response","77","220829","0.0-77.0","4C6F8CAA432043F6A437E7B9A1716996","d121a8f9-b9be-4c72-9e6e-283c6cd7f055","5479079d-2186-49b2-89e2-e3afab6abcc2","","null","<div style=""display: flex; justify-content: center; align-items: center;"">
                <img src=""images/causal/causal_series_12/causal_series_12_a.jpg"" style=""width: 300px; height: 300px;"" />
              </div>","null",""
"","","","","","html-keyboard-response","78","223834","0.0-78.0","4C6F8CAA432043F6A437E7B9A1716996","d121a8f9-b9be-4c72-9e6e-283c6cd7f055","5479079d-2186-49b2-89e2-e3afab6abcc2","","null","<div style=""display: flex; justify-content: center; align-items: center;"">
                <img src=""images/causal/causal_series_12/causal_series_12_b.jpg"" style=""width: 300px; height: 300px;"" />
              </div>","null",""
"","","","","","html-keyboard-response","79","226840","0.0-79.0","4C6F8CAA432043F6A437E7B9A1716996","d121a8f9-b9be-4c72-9e6e-283c6cd7f055","5479079d-2186-49b2-89e2-e3afab6abcc2","","null","<div style=""display: flex; justify-content: center; align-items: center;"">
                <img src=""images/causal/causal_series_12/causal_series_12_c.jpg"" style=""width: 300px; height: 300px;"" />
              </div>","null",""
"","","","","","html-button-response","80","227826","0.0-80.0","4C6F8CAA432043F6A437E7B9A1716996","d121a8f9-b9be-4c72-9e6e-283c6cd7f055","5479079d-2186-49b2-89e2-e3afab6abcc2","","983","
    <div style=""display: flex; justify-content: center; align-items: center;"">
      <img src=""images/blue_deck_1.png"" style=""width: 300px; height: 300px; margin-right: 10px;"" />
      <img src=""images/red_deck_2.png"" style=""width: 300px; height: 300px;"" />
    </div>","1","1"
"","","","","","html-keyboard-response","81","230830","0.0-81.0-1.0-0.0","4C6F8CAA432043F6A437E7B9A1716996","d121a8f9-b9be-4c72-9e6e-283c6cd7f055","5479079d-2186-49b2-89e2-e3afab6abcc2","","null","<div style=""display: flex; justify-content: center; align-items: center;"">
                <img src=""images/semantic/semantic_series_12/semantic_series_12_d.jpg"" style=""width: 300px; height: 300px;"" />
              </div>","null",""
"","","","","","html-keyboard-response","82","233834","0.0-82.0","4C6F8CAA432043F6A437E7B9A1716996","d121a8f9-b9be-4c72-9e6e-283c6cd7f055","5479079d-2186-49b2-89e2-e3afab6abcc2","","null","<div style=""display: flex; justify-content: center; align-items: center;"">
                <img src=""images/other/blank.jpg"" style=""width: 300px; height: 300px;"" />
              </div>","null",""
"","","","","","html-keyboard-response","83","236837","0.0-83.0","4C6F8CAA432043F6A437E7B9A1716996","d121a8f9-b9be-4c72-9e6e-283c6cd7f055","5479079d-2186-49b2-89e2-e3afab6abcc2","","null","<div style=""display: flex; justify-content: center; align-items: center;"">
                <img src=""images/causal/causal_series_10/causal_series_10_a.jpg"" style=""width: 300px; height: 300px;"" />
              </div>","null",""
"","","","","","html-keyboard-response","84","239843","0.0-84.0","4C6F8CAA432043F6A437E7B9A1716996","d121a8f9-b9be-4c72-9e6e-283c6cd7f055","5479079d-2186-49b2-89e2-e3afab6abcc2","","null","<div style=""display: flex; justify-content: center; align-items: center;"">
                <img src=""images/causal/causal_series_10/causal_series_10_b.jpg"" style=""width: 300px; height: 300px;"" />
              </div>","null",""
"","","","","","html-keyboard-response","85","242847","0.0-85.0","4C6F8CAA432043F6A437E7B9A1716996","d121a8f9-b9be-4c72-9e6e-283c6cd7f055","5479079d-2186-49b2-89e2-e3afab6abcc2","","null","<div style=""display: flex; justify-content: center; align-items: center;"">
                <img src=""images/causal/causal_series_10/causal_series_10_c.jpg"" style=""width: 300px; height: 300px;"" />
              </div>","null",""
"","","","","","html-button-response","86","243832","0.0-86.0","4C6F8CAA432043F6A437E7B9A1716996","d121a8f9-b9be-4c72-9e6e-283c6cd7f055","5479079d-2186-49b2-89e2-e3afab6abcc2","","983","
    <div style=""display: flex; justify-content: center; align-items: center;"">
      <img src=""images/blue_deck_1.png"" style=""width: 300px; height: 300px; margin-right: 10px;"" />
      <img src=""images/red_deck_2.png"" style=""width: 300px; height: 300px;"" />
    </div>","0","0"
"","","","","","html-keyboard-response","87","246835","0.0-87.0-0.0-0.0","4C6F8CAA432043F6A437E7B9A1716996","d121a8f9-b9be-4c72-9e6e-283c6cd7f055","5479079d-2186-49b2-89e2-e3afab6abcc2","","null","<div style=""display: flex; justify-content: center; align-items: center;"">
                <img src=""images/causal/causal_series_10/causal_series_10_d.jpg"" style=""width: 300px; height: 300px;"" />
              </div>","null",""
"","","","","","html-keyboard-response","88","249840","0.0-88.0","4C6F8CAA432043F6A437E7B9A1716996","d121a8f9-b9be-4c72-9e6e-283c6cd7f055","5479079d-2186-49b2-89e2-e3afab6abcc2","","null","<div style=""display: flex; justify-content: center; align-items: center;"">
                <img src=""images/other/blank.jpg"" style=""width: 300px; height: 300px;"" />
              </div>","null",""
"","","","","","html-keyboard-response","89","252848","0.0-89.0","4C6F8CAA432043F6A437E7B9A1716996","d121a8f9-b9be-4c72-9e6e-283c6cd7f055","5479079d-2186-49b2-89e2-e3afab6abcc2","","null","<div style=""display: flex; justify-content: center; align-items: center;"">
                <img src=""images/causal/causal_series_7/causal_series_7_a.jpg"" style=""width: 300px; height: 300px;"" />
              </div>","null",""
"","","","","","html-keyboard-response","90","255850","0.0-90.0","4C6F8CAA432043F6A437E7B9A1716996","d121a8f9-b9be-4c72-9e6e-283c6cd7f055","5479079d-2186-49b2-89e2-e3afab6abcc2","","null","<div style=""display: flex; justify-content: center; align-items: center;"">
                <img src=""images/causal/causal_series_7/causal_series_7_b.jpg"" style=""width: 300px; height: 300px;"" />
              </div>","null",""
"","","","","","html-keyboard-response","91","258855","0.0-91.0","4C6F8CAA432043F6A437E7B9A1716996","d121a8f9-b9be-4c72-9e6e-283c6cd7f055","5479079d-2186-49b2-89e2-e3afab6abcc2","","null","<div style=""display: flex; justify-content: center; align-items: center;"">
                <img src=""images/causal/causal_series_7/causal_series_7_c.jpg"" style=""width: 300px; height: 300px;"" />
              </div>","null",""
"","","","","","html-button-response","92","260619","0.0-92.0","4C6F8CAA432043F6A437E7B9A1716996","d121a8f9-b9be-4c72-9e6e-283c6cd7f055","5479079d-2186-49b2-89e2-e3afab6abcc2","","1761","
    <div style=""display: flex; justify-content: center; align-items: center;"">
      <img src=""images/blue_deck_1.png"" style=""width: 300px; height: 300px; margin-right: 10px;"" />
      <img src=""images/red_deck_2.png"" style=""width: 300px; height: 300px;"" />
    </div>","0","0"
"","","","","","html-keyboard-response","93","263624","0.0-93.0-0.0-0.0","4C6F8CAA432043F6A437E7B9A1716996","d121a8f9-b9be-4c72-9e6e-283c6cd7f055","5479079d-2186-49b2-89e2-e3afab6abcc2","","null","<div style=""display: flex; justify-content: center; align-items: center;"">
                <img src=""images/causal/causal_series_7/causal_series_7_d.jpg"" style=""width: 300px; height: 300px;"" />
              </div>","null",""
"","","","","","html-keyboard-response","94","266628","0.0-94.0","4C6F8CAA432043F6A437E7B9A1716996","d121a8f9-b9be-4c72-9e6e-283c6cd7f055","5479079d-2186-49b2-89e2-e3afab6abcc2","","null","<div style=""display: flex; justify-content: center; align-items: center;"">
                <img src=""images/other/blank.jpg"" style=""width: 300px; height: 300px;"" />
              </div>","null",""
"","","","","","html-keyboard-response","95","269633","0.0-95.0","4C6F8CAA432043F6A437E7B9A1716996","d121a8f9-b9be-4c72-9e6e-283c6cd7f055","5479079d-2186-49b2-89e2-e3afab6abcc2","","null","<div style=""display: flex; justify-content: center; align-items: center;"">
                <img src=""images/causal/causal_series_1/causal_series_1_a.jpg"" style=""width: 300px; height: 300px;"" />
              </div>","null",""
"","","","","","html-keyboard-response","96","272639","0.0-96.0","4C6F8CAA432043F6A437E7B9A1716996","d121a8f9-b9be-4c72-9e6e-283c6cd7f055","5479079d-2186-49b2-89e2-e3afab6abcc2","","null","<div style=""display: flex; justify-content: center; align-items: center;"">
                <img src=""images/causal/causal_series_1/causal_series_1_b.jpg"" style=""width: 300px; height: 300px;"" />
              </div>","null",""
"","","","","","html-keyboard-response","97","275645","0.0-97.0","4C6F8CAA432043F6A437E7B9A1716996","d121a8f9-b9be-4c72-9e6e-283c6cd7f055","5479079d-2186-49b2-89e2-e3afab6abcc2","","null","<div style=""display: flex; justify-content: center; align-items: center;"">
                <img src=""images/causal/causal_series_1/causal_series_1_c.jpg"" style=""width: 300px; height: 300px;"" />
              </div>","null",""
"","","","","","html-button-response","98","276727","0.0-98.0","4C6F8CAA432043F6A437E7B9A1716996","d121a8f9-b9be-4c72-9e6e-283c6cd7f055","5479079d-2186-49b2-89e2-e3afab6abcc2","","1079","
    <div style=""display: flex; justify-content: center; align-items: center;"">
      <img src=""images/blue_deck_1.png"" style=""width: 300px; height: 300px; margin-right: 10px;"" />
      <img src=""images/red_deck_2.png"" style=""width: 300px; height: 300px;"" />
    </div>","0","0"
"","","","","","html-keyboard-response","99","279732","0.0-99.0-0.0-0.0","4C6F8CAA432043F6A437E7B9A1716996","d121a8f9-b9be-4c72-9e6e-283c6cd7f055","5479079d-2186-49b2-89e2-e3afab6abcc2","","null","<div style=""display: flex; justify-content: center; align-items: center;"">
                <img src=""images/causal/causal_series_1/causal_series_1_d.jpg"" style=""width: 300px; height: 300px;"" />
              </div>","null",""
"","","","","","html-keyboard-response","100","282739","0.0-100.0","4C6F8CAA432043F6A437E7B9A1716996","d121a8f9-b9be-4c72-9e6e-283c6cd7f055","5479079d-2186-49b2-89e2-e3afab6abcc2","","null","<div style=""display: flex; justify-content: center; align-items: center;"">
                <img src=""images/other/blank.jpg"" style=""width: 300px; height: 300px;"" />
              </div>","null",""
"","","","","","html-keyboard-response","101","285743","0.0-101.0","4C6F8CAA432043F6A437E7B9A1716996","d121a8f9-b9be-4c72-9e6e-283c6cd7f055","5479079d-2186-49b2-89e2-e3afab6abcc2","","null","<div style=""display: flex; justify-content: center; align-items: center;"">
                <img src=""images/causal/causal_series_6/causal_series_6_a.jpg"" style=""width: 300px; height: 300px;"" />
              </div>","null",""
"","","","","","html-keyboard-response","102","288747","0.0-102.0","4C6F8CAA432043F6A437E7B9A1716996","d121a8f9-b9be-4c72-9e6e-283c6cd7f055","5479079d-2186-49b2-89e2-e3afab6abcc2","","null","<div style=""display: flex; justify-content: center; align-items: center;"">
                <img src=""images/causal/causal_series_6/causal_series_6_b.jpg"" style=""width: 300px; height: 300px;"" />
              </div>","null",""
"","","","","","html-keyboard-response","103","291752","0.0-103.0","4C6F8CAA432043F6A437E7B9A1716996","d121a8f9-b9be-4c72-9e6e-283c6cd7f055","5479079d-2186-49b2-89e2-e3afab6abcc2","","null","<div style=""display: flex; justify-content: center; align-items: center;"">
                <img src=""images/causal/causal_series_6/causal_series_6_c.jpg"" style=""width: 300px; height: 300px;"" />
              </div>","null",""
"","","","","","html-button-response","104","293465","0.0-104.0","4C6F8CAA432043F6A437E7B9A1716996","d121a8f9-b9be-4c72-9e6e-283c6cd7f055","5479079d-2186-49b2-89e2-e3afab6abcc2","","1711","
    <div style=""display: flex; justify-content: center; align-items: center;"">
      <img src=""images/blue_deck_1.png"" style=""width: 300px; height: 300px; margin-right: 10px;"" />
      <img src=""images/red_deck_2.png"" style=""width: 300px; height: 300px;"" />
    </div>","0","0"
"","","","","","html-keyboard-response","105","296470","0.0-105.0-0.0-0.0","4C6F8CAA432043F6A437E7B9A1716996","d121a8f9-b9be-4c72-9e6e-283c6cd7f055","5479079d-2186-49b2-89e2-e3afab6abcc2","","null","<div style=""display: flex; justify-content: center; align-items: center;"">
                <img src=""images/causal/causal_series_6/causal_series_6_d.jpg"" style=""width: 300px; height: 300px;"" />
              </div>","null",""
"","","","","","html-keyboard-response","106","299476","0.0-106.0","4C6F8CAA432043F6A437E7B9A1716996","d121a8f9-b9be-4c72-9e6e-283c6cd7f055","5479079d-2186-49b2-89e2-e3afab6abcc2","","null","<div style=""display: flex; justify-content: center; align-items: center;"">
                <img src=""images/other/blank.jpg"" style=""width: 300px; height: 300px;"" />
              </div>","null",""
"","","","","","html-keyboard-response","107","302482","0.0-107.0","4C6F8CAA432043F6A437E7B9A1716996","d121a8f9-b9be-4c72-9e6e-283c6cd7f055","5479079d-2186-49b2-89e2-e3afab6abcc2","","null","<div style=""display: flex; justify-content: center; align-items: center;"">
                <img src=""images/causal/causal_series_9/causal_series_9_a.jpg"" style=""width: 300px; height: 300px;"" />
              </div>","null",""
"","","","","","html-keyboard-response","108","305488","0.0-108.0","4C6F8CAA432043F6A437E7B9A1716996","d121a8f9-b9be-4c72-9e6e-283c6cd7f055","5479079d-2186-49b2-89e2-e3afab6abcc2","","null","<div style=""display: flex; justify-content: center; align-items: center;"">
                <img src=""images/causal/causal_series_9/causal_series_9_b.jpg"" style=""width: 300px; height: 300px;"" />
              </div>","null",""
"","","","","","html-keyboard-response","109","308496","0.0-109.0","4C6F8CAA432043F6A437E7B9A1716996","d121a8f9-b9be-4c72-9e6e-283c6cd7f055","5479079d-2186-49b2-89e2-e3afab6abcc2","","null","<div style=""display: flex; justify-content: center; align-items: center;"">
                <img src=""images/causal/causal_series_9/causal_series_9_c.jpg"" style=""width: 300px; height: 300px;"" />
              </div>","null",""
"","","","","","html-button-response","110","309577","0.0-110.0","4C6F8CAA432043F6A437E7B9A1716996","d121a8f9-b9be-4c72-9e6e-283c6cd7f055","5479079d-2186-49b2-89e2-e3afab6abcc2","","1079","
    <div style=""display: flex; justify-content: center; align-items: center;"">
      <img src=""images/blue_deck_1.png"" style=""width: 300px; height: 300px; margin-right: 10px;"" />
      <img src=""images/red_deck_2.png"" style=""width: 300px; height: 300px;"" />
    </div>","0","0"
"","","","","","html-keyboard-response","111","312583","0.0-111.0-0.0-0.0","4C6F8CAA432043F6A437E7B9A1716996","d121a8f9-b9be-4c72-9e6e-283c6cd7f055","5479079d-2186-49b2-89e2-e3afab6abcc2","","null","<div style=""display: flex; justify-content: center; align-items: center;"">
                <img src=""images/causal/causal_series_9/causal_series_9_d.jpg"" style=""width: 300px; height: 300px;"" />
              </div>","null",""
"","","","","","html-keyboard-response","112","315588","0.0-112.0","4C6F8CAA432043F6A437E7B9A1716996","d121a8f9-b9be-4c72-9e6e-283c6cd7f055","5479079d-2186-49b2-89e2-e3afab6abcc2","","null","<div style=""display: flex; justify-content: center; align-items: center;"">
                <img src=""images/other/blank.jpg"" style=""width: 300px; height: 300px;"" />
              </div>","null",""
"","","","","","survey-text","113","343888","0.0-113.0","4C6F8CAA432043F6A437E7B9A1716996","d121a8f9-b9be-4c72-9e6e-283c6cd7f055","5479079d-2186-49b2-89e2-e3afab6abcc2","","28288","","{""Q0"":""Red completed the story while blue was pretty random. ""}",""
"","","","","","survey-text","114","354603","0.0-114.0","4C6F8CAA432043F6A437E7B9A1716996","d121a8f9-b9be-4c72-9e6e-283c6cd7f055","5479079d-2186-49b2-89e2-e3afab6abcc2","","10703","","{""Q0"":""I preferred the red deck. ""}",""
"","","","","","html-button-response","115","370238","0.0-115.0","4C6F8CAA432043F6A437E7B9A1716996","d121a8f9-b9be-4c72-9e6e-283c6cd7f055","5479079d-2186-49b2-89e2-e3afab6abcc2","","15633","Which color deck does the fourth image continue the story from the series?","0",""
"","","","","","html-button-response","116","375754","0.0-116.0","4C6F8CAA432043F6A437E7B9A1716996","d121a8f9-b9be-4c72-9e6e-283c6cd7f055","5479079d-2186-49b2-89e2-e3afab6abcc2","","5514","Which color deck does the fourth image not follow the story from the series?","1",""
"","","","","","survey-text","117","382678","0.0-117.0","4C6F8CAA432043F6A437E7B9A1716996","d121a8f9-b9be-4c72-9e6e-283c6cd7f055","5479079d-2186-49b2-89e2-e3afab6abcc2","","6921","","{""Q0"":""Male"",""Q1"":""35""}",""
"","","","","","instructions","118","397226","0.0-118.0","4C6F8CAA432043F6A437E7B9A1716996","d121a8f9-b9be-4c72-9e6e-283c6cd7f055","5479079d-2186-49b2-89e2-e3afab6abcc2","[{""page_index"":0,""viewing_time"":14546}]","14547","","",""
