"success","timeout","failed_images","failed_audio","failed_video","trial_type","trial_index","time_elapsed","internal_node_id","view_history","rt","stimulus","response","choice","trial_name"
"true","false","[]","[]","[]","preload","0","3235","0.0-0.0","","","","","",""
"","","","","","instructions","1","8228","0.0-1.0","[{""page_index"":0,""viewing_time"":4992}]","4992","","","",""
"","","","","","instructions","2","11537","0.0-2.0","[{""page_index"":0,""viewing_time"":3309}]","3309","","","",""
"true","","","","","fullscreen","3","14231","0.0-3.0","","1691","","","",""
"","","","","","instructions","4","20569","0.0-4.0","[{""page_index"":0,""viewing_time"":6337}]","6337","","","",""
"","","","","","html-button-response","5","26376","0.0-5.0","","5805","
    <div style=""display: flex; justify-content: center; align-items: center; flex-direction: column;"">
      <div style=""display: flex; justify-content: center; align-items: center;"">
        <img src=""images/instructions/1.png"" style=""width: 300px; height: 300px; margin-right: 10px;"" />
        <img src=""images/instructions/2.png"" style=""width: 300px; height: 300px;"" />
      </div>
      <p>Does event 1 lead to event 2?</p>
    </div>","0","0",""
"","","","","","html-button-response","6","27389","0.0-6.0","","1012","
    <div style=""display: flex; justify-content: center; align-items: center; flex-direction: column;"">
      <div style=""display: flex; justify-content: center; align-items: center;"">
        <img src=""images/instructions/3.png"" style=""width: 300px; height: 300px; margin-right: 10px;"" />
        <img src=""images/instructions/4.png"" style=""width: 300px; height: 300px;"" />
      </div>
      <p>YES, event 1 does lead to event 2.</p>
    </div>","0","0",""
"","","","","","html-button-response","7","29513","0.0-7.0","","2123","
    <div style=""display: flex; justify-content: center; align-items: center; flex-direction: column;"">
      <div style=""display: flex; justify-content: center; align-items: center;"">
        <img src=""images/instructions/5.png"" style=""width: 300px; height: 300px; margin-right: 10px;"" />
        <img src=""images/instructions/6.png"" style=""width: 300px; height: 300px;"" />
      </div>
      <p>Does event 1 lead to event 2?</p>
    </div>","1","1",""
"","","","","","html-button-response","8","31783","0.0-8.0","","2268","
    <div style=""display: flex; justify-content: center; align-items: center; flex-direction: column;"">
      <div style=""display: flex; justify-content: center; align-items: center;"">
        <img src=""images/instructions/7.png"" style=""width: 300px; height: 300px; margin-right: 10px;"" />
        <img src=""images/instructions/8.png"" style=""width: 300px; height: 300px;"" />
      </div>
      <p>NO, event 1 does not lead to event 2.</p>
    </div>","0","0",""
"","","","","","instructions","9","33199","0.0-9.0","[{""page_index"":0,""viewing_time"":1416}]","1416","","","",""
"","","","","","html-button-response","10","37775","0.0-10.0","","4575","
    <div style=""display: flex; justify-content: center; align-items: center; flex-direction: column;"">
      <div style=""display: flex; justify-content: center; align-items: center;"">
        <img src=""images/schematic/schematic_5/1.png"" style=""width: 300px; height: 300px; margin-right: 10px;"" />
        <img src=""images/schematic/schematic_5/2.png"" style=""width: 300px; height: 300px;"" />
      </div>
      <p>Does event 1 lead to event 2?</p>
    </div>","0","0","schematic_5"
"","","","","","html-button-response","11","39983","0.0-11.0","","2206","
    <div style=""display: flex; justify-content: center; align-items: center; flex-direction: column;"">
      <div style=""display: flex; justify-content: center; align-items: center;"">
        <img src=""images/schematic/schematic_8/1.png"" style=""width: 300px; height: 300px; margin-right: 10px;"" />
        <img src=""images/schematic/schematic_8/2.png"" style=""width: 300px; height: 300px;"" />
      </div>
      <p>Does event 1 lead to event 2?</p>
    </div>","0","0","schematic_8"
"","","","","","html-button-response","12","42295","0.0-12.0","","2311","
    <div style=""display: flex; justify-content: center; align-items: center; flex-direction: column;"">
      <div style=""display: flex; justify-content: center; align-items: center;"">
        <img src=""images/causal/causal_1/1.png"" style=""width: 300px; height: 300px; margin-right: 10px;"" />
        <img src=""images/causal/causal_1/2.png"" style=""width: 300px; height: 300px;"" />
      </div>
      <p>Does event 1 lead to event 2?</p>
    </div>","1","1","causal_1"
"","","","","","html-button-response","13","43863","0.0-13.0","","1567","
    <div style=""display: flex; justify-content: center; align-items: center; flex-direction: column;"">
      <div style=""display: flex; justify-content: center; align-items: center;"">
        <img src=""images/semantic/semantic_5/1.png"" style=""width: 300px; height: 300px; margin-right: 10px;"" />
        <img src=""images/semantic/semantic_5/2.png"" style=""width: 300px; height: 300px;"" />
      </div>
      <p>Does event 1 lead to event 2?</p>
    </div>","1","1","semantic_5"
"","","","","","html-button-response","14","45492","0.0-14.0","","1627","
    <div style=""display: flex; justify-content: center; align-items: center; flex-direction: column;"">
      <div style=""display: flex; justify-content: center; align-items: center;"">
        <img src=""images/schematic/schematic_3/1.png"" style=""width: 300px; height: 300px; margin-right: 10px;"" />
        <img src=""images/schematic/schematic_3/2.png"" style=""width: 300px; height: 300px;"" />
      </div>
      <p>Does event 1 lead to event 2?</p>
    </div>","0","0","schematic_3"
"","","","","","html-button-response","15","47201","0.0-15.0","","1708","
    <div style=""display: flex; justify-content: center; align-items: center; flex-direction: column;"">
      <div style=""display: flex; justify-content: center; align-items: center;"">
        <img src=""images/semantic/semantic_3/1.png"" style=""width: 300px; height: 300px; margin-right: 10px;"" />
        <img src=""images/semantic/semantic_3/2.png"" style=""width: 300px; height: 300px;"" />
      </div>
      <p>Does event 1 lead to event 2?</p>
    </div>","1","1","semantic_3"
"","","","","","html-button-response","16","49455","0.0-16.0","","2253","
    <div style=""display: flex; justify-content: center; align-items: center; flex-direction: column;"">
      <div style=""display: flex; justify-content: center; align-items: center;"">
        <img src=""images/causal/causal_5/1.png"" style=""width: 300px; height: 300px; margin-right: 10px;"" />
        <img src=""images/causal/causal_5/2.png"" style=""width: 300px; height: 300px;"" />
      </div>
      <p>Does event 1 lead to event 2?</p>
    </div>","0","0","causal_5"
"","","","","","html-button-response","17","52624","0.0-17.0","","3168","
    <div style=""display: flex; justify-content: center; align-items: center; flex-direction: column;"">
      <div style=""display: flex; justify-content: center; align-items: center;"">
        <img src=""images/schematic/schematic_1/1.png"" style=""width: 300px; height: 300px; margin-right: 10px;"" />
        <img src=""images/schematic/schematic_1/2.png"" style=""width: 300px; height: 300px;"" />
      </div>
      <p>Does event 1 lead to event 2?</p>
    </div>","0","0","schematic_1"
"","","","","","html-button-response","18","54433","0.0-18.0","","1808","
    <div style=""display: flex; justify-content: center; align-items: center; flex-direction: column;"">
      <div style=""display: flex; justify-content: center; align-items: center;"">
        <img src=""images/semantic/semantic_8/1.png"" style=""width: 300px; height: 300px; margin-right: 10px;"" />
        <img src=""images/semantic/semantic_8/2.png"" style=""width: 300px; height: 300px;"" />
      </div>
      <p>Does event 1 lead to event 2?</p>
    </div>","1","1","semantic_8"
"","","","","","html-button-response","19","58183","0.0-19.0","","3749","
    <div style=""display: flex; justify-content: center; align-items: center; flex-direction: column;"">
      <div style=""display: flex; justify-content: center; align-items: center;"">
        <img src=""images/causal/causal_4/1.png"" style=""width: 300px; height: 300px; margin-right: 10px;"" />
        <img src=""images/causal/causal_4/2.png"" style=""width: 300px; height: 300px;"" />
      </div>
      <p>Does event 1 lead to event 2?</p>
    </div>","0","0","causal_4"
"","","","","","html-button-response","20","60579","0.0-20.0","","2395","
    <div style=""display: flex; justify-content: center; align-items: center; flex-direction: column;"">
      <div style=""display: flex; justify-content: center; align-items: center;"">
        <img src=""images/causal/causal_8/1.png"" style=""width: 300px; height: 300px; margin-right: 10px;"" />
        <img src=""images/causal/causal_8/2.png"" style=""width: 300px; height: 300px;"" />
      </div>
      <p>Does event 1 lead to event 2?</p>
    </div>","0","0","causal_8"
"","","","","","html-button-response","21","62026","0.0-21.0","","1445","
    <div style=""display: flex; justify-content: center; align-items: center; flex-direction: column;"">
      <div style=""display: flex; justify-content: center; align-items: center;"">
        <img src=""images/semantic/semantic_7/1.png"" style=""width: 300px; height: 300px; margin-right: 10px;"" />
        <img src=""images/semantic/semantic_7/2.png"" style=""width: 300px; height: 300px;"" />
      </div>
      <p>Does event 1 lead to event 2?</p>
    </div>","1","1","semantic_7"
"","","","","","html-button-response","22","65341","0.0-22.0","","3314","
    <div style=""display: flex; justify-content: center; align-items: center; flex-direction: column;"">
      <div style=""display: flex; justify-content: center; align-items: center;"">
        <img src=""images/schematic/schematic_2/1.png"" style=""width: 300px; height: 300px; margin-right: 10px;"" />
        <img src=""images/schematic/schematic_2/2.png"" style=""width: 300px; height: 300px;"" />
      </div>
      <p>Does event 1 lead to event 2?</p>
    </div>","0","0","schematic_2"
"","","","","","html-button-response","23","66967","0.0-23.0","","1624","
    <div style=""display: flex; justify-content: center; align-items: center; flex-direction: column;"">
      <div style=""display: flex; justify-content: center; align-items: center;"">
        <img src=""images/semantic/semantic_2/1.png"" style=""width: 300px; height: 300px; margin-right: 10px;"" />
        <img src=""images/semantic/semantic_2/2.png"" style=""width: 300px; height: 300px;"" />
      </div>
      <p>Does event 1 lead to event 2?</p>
    </div>","1","1","semantic_2"
"","","","","","html-button-response","24","68839","0.0-24.0","","1871","
    <div style=""display: flex; justify-content: center; align-items: center; flex-direction: column;"">
      <div style=""display: flex; justify-content: center; align-items: center;"">
        <img src=""images/schematic/schematic_6/1.png"" style=""width: 300px; height: 300px; margin-right: 10px;"" />
        <img src=""images/schematic/schematic_6/2.png"" style=""width: 300px; height: 300px;"" />
      </div>
      <p>Does event 1 lead to event 2?</p>
    </div>","0","0","schematic_6"
"","","","","","html-button-response","25","71367","0.0-25.0","","2526","
    <div style=""display: flex; justify-content: center; align-items: center; flex-direction: column;"">
      <div style=""display: flex; justify-content: center; align-items: center;"">
        <img src=""images/causal/causal_6/1.png"" style=""width: 300px; height: 300px; margin-right: 10px;"" />
        <img src=""images/causal/causal_6/2.png"" style=""width: 300px; height: 300px;"" />
      </div>
      <p>Does event 1 lead to event 2?</p>
    </div>","1","1","causal_6"
"","","","","","html-button-response","26","73979","0.0-26.0","","2611","
    <div style=""display: flex; justify-content: center; align-items: center; flex-direction: column;"">
      <div style=""display: flex; justify-content: center; align-items: center;"">
        <img src=""images/causal/causal_7/1.png"" style=""width: 300px; height: 300px; margin-right: 10px;"" />
        <img src=""images/causal/causal_7/2.png"" style=""width: 300px; height: 300px;"" />
      </div>
      <p>Does event 1 lead to event 2?</p>
    </div>","1","1","causal_7"
"","","","","","html-button-response","27","76637","0.0-27.0","","2657","
    <div style=""display: flex; justify-content: center; align-items: center; flex-direction: column;"">
      <div style=""display: flex; justify-content: center; align-items: center;"">
        <img src=""images/semantic/semantic_4/1.png"" style=""width: 300px; height: 300px; margin-right: 10px;"" />
        <img src=""images/semantic/semantic_4/2.png"" style=""width: 300px; height: 300px;"" />
      </div>
      <p>Does event 1 lead to event 2?</p>
    </div>","0","0","semantic_4"
"","","","","","html-button-response","28","78755","0.0-28.0","","2117","
    <div style=""display: flex; justify-content: center; align-items: center; flex-direction: column;"">
      <div style=""display: flex; justify-content: center; align-items: center;"">
        <img src=""images/schematic/schematic_4/1.png"" style=""width: 300px; height: 300px; margin-right: 10px;"" />
        <img src=""images/schematic/schematic_4/2.png"" style=""width: 300px; height: 300px;"" />
      </div>
      <p>Does event 1 lead to event 2?</p>
    </div>","0","0","schematic_4"
"","","","","","html-button-response","29","82179","0.0-29.0","","3423","
    <div style=""display: flex; justify-content: center; align-items: center; flex-direction: column;"">
      <div style=""display: flex; justify-content: center; align-items: center;"">
        <img src=""images/causal/causal_3/1.png"" style=""width: 300px; height: 300px; margin-right: 10px;"" />
        <img src=""images/causal/causal_3/2.png"" style=""width: 300px; height: 300px;"" />
      </div>
      <p>Does event 1 lead to event 2?</p>
    </div>","0","0","causal_3"
"","","","","","html-button-response","30","83521","0.0-30.0","","1341","
    <div style=""display: flex; justify-content: center; align-items: center; flex-direction: column;"">
      <div style=""display: flex; justify-content: center; align-items: center;"">
        <img src=""images/causal/causal_2/1.png"" style=""width: 300px; height: 300px; margin-right: 10px;"" />
        <img src=""images/causal/causal_2/2.png"" style=""width: 300px; height: 300px;"" />
      </div>
      <p>Does event 1 lead to event 2?</p>
    </div>","0","0","causal_2"
"","","","","","html-button-response","31","85424","0.0-31.0","","1902","
    <div style=""display: flex; justify-content: center; align-items: center; flex-direction: column;"">
      <div style=""display: flex; justify-content: center; align-items: center;"">
        <img src=""images/schematic/schematic_7/1.png"" style=""width: 300px; height: 300px; margin-right: 10px;"" />
        <img src=""images/schematic/schematic_7/2.png"" style=""width: 300px; height: 300px;"" />
      </div>
      <p>Does event 1 lead to event 2?</p>
    </div>","0","0","schematic_7"
"","","","","","html-button-response","32","87420","0.0-32.0","","1995","
    <div style=""display: flex; justify-content: center; align-items: center; flex-direction: column;"">
      <div style=""display: flex; justify-content: center; align-items: center;"">
        <img src=""images/semantic/semantic_6/1.png"" style=""width: 300px; height: 300px; margin-right: 10px;"" />
        <img src=""images/semantic/semantic_6/2.png"" style=""width: 300px; height: 300px;"" />
      </div>
      <p>Does event 1 lead to event 2?</p>
    </div>","1","1","semantic_6"
"","","","","","html-button-response","33","89269","0.0-33.0","","1847","
    <div style=""display: flex; justify-content: center; align-items: center; flex-direction: column;"">
      <div style=""display: flex; justify-content: center; align-items: center;"">
        <img src=""images/semantic/semantic_1/1.png"" style=""width: 300px; height: 300px; margin-right: 10px;"" />
        <img src=""images/semantic/semantic_1/2.png"" style=""width: 300px; height: 300px;"" />
      </div>
      <p>Does event 1 lead to event 2?</p>
    </div>","1","1","semantic_1"
"","","","","","survey-text","34","95796","0.0-34.0","","6522","","{""Q0"":""MALE"",""Q1"":""32""}","",""
"","","","","","instructions","35","99308","0.0-35.0","[{""page_index"":0,""viewing_time"":3511}]","3511","","","",""
"","","","","","survey-text","36","101004","0.0-36.0","","1693","","{""Q0"":""AJFHBG898""}","",""
