"success","timeout","failed_images","failed_audio","failed_video","trial_type","trial_index","time_elapsed","internal_node_id","view_history","rt","stimulus","response","firstImageNumber","secondImageNumber","response_made"
"true","false","[]","[]","[]","preload","0","3084","0.0-0.0","","","","","","",""
"","","","","","instructions","1","169548","0.0-1.0","[{""page_index"":0,""viewing_time"":166462}]","166463","","","","",""
"","","","","","html-button-response","2","177239","0.0-2.0","","7689","
          <div style=""display: flex; justify-content: center; align-items: center;"">
            <!-- Event 1 on the left -->
            <div style=""text-align: center; margin-right: 20px;"">
              <p style=""font-size: 24px; font-weight: bold;"">Event 1</p>
              <img src=""images/causal/cat_care_semantic/cat_care_semantic_9.png"" style=""width: 300px; height: auto;"">
            </div>
            <!-- Event 2 on the right -->
            <div style=""text-align: center; margin-left: 20px;"">
              <p style=""font-size: 24px; font-weight: bold;"">Event 2</p>
              <img src=""images/causal/cat_care_semantic/cat_care_semantic_10.png"" style=""width: 300px; height: auto;"">
            </div>
          </div>
          <p style=""text-align: center; margin-top: 20px;"">Does Event 1 lead to Event 2?</p>","1","9","10","true"
"","","","","","html-button-response","3","183133","0.0-3.0","","5893","
          <div style=""display: flex; justify-content: center; align-items: center;"">
            <!-- Event 1 on the left -->
            <div style=""text-align: center; margin-right: 20px;"">
              <p style=""font-size: 24px; font-weight: bold;"">Event 1</p>
              <img src=""images/causal/cat_care_semantic/cat_care_semantic_1.png"" style=""width: 300px; height: auto;"">
            </div>
            <!-- Event 2 on the right -->
            <div style=""text-align: center; margin-left: 20px;"">
              <p style=""font-size: 24px; font-weight: bold;"">Event 2</p>
              <img src=""images/causal/cat_care_semantic/cat_care_semantic_7.png"" style=""width: 300px; height: auto;"">
            </div>
          </div>
          <p style=""text-align: center; margin-top: 20px;"">Does Event 1 lead to Event 2?</p>","0","1","7","true"
"","","","","","html-button-response","4","190349","0.0-4.0","","7215","
          <div style=""display: flex; justify-content: center; align-items: center;"">
            <!-- Event 1 on the left -->
            <div style=""text-align: center; margin-right: 20px;"">
              <p style=""font-size: 24px; font-weight: bold;"">Event 1</p>
              <img src=""images/causal/cat_care_semantic/cat_care_semantic_3.png"" style=""width: 300px; height: auto;"">
            </div>
            <!-- Event 2 on the right -->
            <div style=""text-align: center; margin-left: 20px;"">
              <p style=""font-size: 24px; font-weight: bold;"">Event 2</p>
              <img src=""images/causal/cat_care_semantic/cat_care_semantic_4.png"" style=""width: 300px; height: auto;"">
            </div>
          </div>
          <p style=""text-align: center; margin-top: 20px;"">Does Event 1 lead to Event 2?</p>","0","3","4","true"
"","","","","","html-button-response","5","196135","0.0-5.0","","5783","
          <div style=""display: flex; justify-content: center; align-items: center;"">
            <!-- Event 1 on the left -->
            <div style=""text-align: center; margin-right: 20px;"">
              <p style=""font-size: 24px; font-weight: bold;"">Event 1</p>
              <img src=""images/causal/cat_care_semantic/cat_care_semantic_7.png"" style=""width: 300px; height: auto;"">
            </div>
            <!-- Event 2 on the right -->
            <div style=""text-align: center; margin-left: 20px;"">
              <p style=""font-size: 24px; font-weight: bold;"">Event 2</p>
              <img src=""images/causal/cat_care_semantic/cat_care_semantic_3.png"" style=""width: 300px; height: auto;"">
            </div>
          </div>
          <p style=""text-align: center; margin-top: 20px;"">Does Event 1 lead to Event 2?</p>","2","7","3","true"
"","","","","","html-button-response","6","203168","0.0-6.0","","7031","
          <div style=""display: flex; justify-content: center; align-items: center;"">
            <!-- Event 1 on the left -->
            <div style=""text-align: center; margin-right: 20px;"">
              <p style=""font-size: 24px; font-weight: bold;"">Event 1</p>
              <img src=""images/causal/cat_care_semantic/cat_care_semantic_5.png"" style=""width: 300px; height: auto;"">
            </div>
            <!-- Event 2 on the right -->
            <div style=""text-align: center; margin-left: 20px;"">
              <p style=""font-size: 24px; font-weight: bold;"">Event 2</p>
              <img src=""images/causal/cat_care_semantic/cat_care_semantic_1.png"" style=""width: 300px; height: auto;"">
            </div>
          </div>
          <p style=""text-align: center; margin-top: 20px;"">Does Event 1 lead to Event 2?</p>","2","5","1","true"
"","","","","","html-button-response","7","210169","0.0-7.0","","7000","
          <div style=""display: flex; justify-content: center; align-items: center;"">
            <!-- Event 1 on the left -->
            <div style=""text-align: center; margin-right: 20px;"">
              <p style=""font-size: 24px; font-weight: bold;"">Event 1</p>
              <img src=""images/causal/cat_care_semantic/cat_care_semantic_6.png"" style=""width: 300px; height: auto;"">
            </div>
            <!-- Event 2 on the right -->
            <div style=""text-align: center; margin-left: 20px;"">
              <p style=""font-size: 24px; font-weight: bold;"">Event 2</p>
              <img src=""images/causal/cat_care_semantic/cat_care_semantic_1.png"" style=""width: 300px; height: auto;"">
            </div>
          </div>
          <p style=""text-align: center; margin-top: 20px;"">Does Event 1 lead to Event 2?</p>","1","6","1","true"
"","","","","","html-button-response","8","216102","0.0-8.0","","5931","
          <div style=""display: flex; justify-content: center; align-items: center;"">
            <!-- Event 1 on the left -->
            <div style=""text-align: center; margin-right: 20px;"">
              <p style=""font-size: 24px; font-weight: bold;"">Event 1</p>
              <img src=""images/causal/cat_care_semantic/cat_care_semantic_5.png"" style=""width: 300px; height: auto;"">
            </div>
            <!-- Event 2 on the right -->
            <div style=""text-align: center; margin-left: 20px;"">
              <p style=""font-size: 24px; font-weight: bold;"">Event 2</p>
              <img src=""images/causal/cat_care_semantic/cat_care_semantic_10.png"" style=""width: 300px; height: auto;"">
            </div>
          </div>
          <p style=""text-align: center; margin-top: 20px;"">Does Event 1 lead to Event 2?</p>","1","5","10","true"
"","","","","","html-button-response","9","223936","0.0-9.0","","7832","
          <div style=""display: flex; justify-content: center; align-items: center;"">
            <!-- Event 1 on the left -->
            <div style=""text-align: center; margin-right: 20px;"">
              <p style=""font-size: 24px; font-weight: bold;"">Event 1</p>
              <img src=""images/causal/cat_care_semantic/cat_care_semantic_2.png"" style=""width: 300px; height: auto;"">
            </div>
            <!-- Event 2 on the right -->
            <div style=""text-align: center; margin-left: 20px;"">
              <p style=""font-size: 24px; font-weight: bold;"">Event 2</p>
              <img src=""images/causal/cat_care_semantic/cat_care_semantic_6.png"" style=""width: 300px; height: auto;"">
            </div>
          </div>
          <p style=""text-align: center; margin-top: 20px;"">Does Event 1 lead to Event 2?</p>","2","2","6","true"
"","","","","","html-button-response","10","229654","0.0-10.0","","5717","
          <div style=""display: flex; justify-content: center; align-items: center;"">
            <!-- Event 1 on the left -->
            <div style=""text-align: center; margin-right: 20px;"">
              <p style=""font-size: 24px; font-weight: bold;"">Event 1</p>
              <img src=""images/causal/cat_care_semantic/cat_care_semantic_2.png"" style=""width: 300px; height: auto;"">
            </div>
            <!-- Event 2 on the right -->
            <div style=""text-align: center; margin-left: 20px;"">
              <p style=""font-size: 24px; font-weight: bold;"">Event 2</p>
              <img src=""images/causal/cat_care_semantic/cat_care_semantic_7.png"" style=""width: 300px; height: auto;"">
            </div>
          </div>
          <p style=""text-align: center; margin-top: 20px;"">Does Event 1 lead to Event 2?</p>","0","2","7","true"
"","","","","","html-button-response","11","236421","0.0-11.0","","6765","
          <div style=""display: flex; justify-content: center; align-items: center;"">
            <!-- Event 1 on the left -->
            <div style=""text-align: center; margin-right: 20px;"">
              <p style=""font-size: 24px; font-weight: bold;"">Event 1</p>
              <img src=""images/causal/cat_care_semantic/cat_care_semantic_10.png"" style=""width: 300px; height: auto;"">
            </div>
            <!-- Event 2 on the right -->
            <div style=""text-align: center; margin-left: 20px;"">
              <p style=""font-size: 24px; font-weight: bold;"">Event 2</p>
              <img src=""images/causal/cat_care_semantic/cat_care_semantic_1.png"" style=""width: 300px; height: auto;"">
            </div>
          </div>
          <p style=""text-align: center; margin-top: 20px;"">Does Event 1 lead to Event 2?</p>","1","10","1","true"
"","","","","","html-button-response","12","242821","0.0-12.0","","6399","
          <div style=""display: flex; justify-content: center; align-items: center;"">
            <!-- Event 1 on the left -->
            <div style=""text-align: center; margin-right: 20px;"">
              <p style=""font-size: 24px; font-weight: bold;"">Event 1</p>
              <img src=""images/causal/cat_care_semantic/cat_care_semantic_7.png"" style=""width: 300px; height: auto;"">
            </div>
            <!-- Event 2 on the right -->
            <div style=""text-align: center; margin-left: 20px;"">
              <p style=""font-size: 24px; font-weight: bold;"">Event 2</p>
              <img src=""images/causal/cat_care_semantic/cat_care_semantic_9.png"" style=""width: 300px; height: auto;"">
            </div>
          </div>
          <p style=""text-align: center; margin-top: 20px;"">Does Event 1 lead to Event 2?</p>","0","7","9","true"
"","","","","","html-button-response","13","248938","0.0-13.0","","6116","
          <div style=""display: flex; justify-content: center; align-items: center;"">
            <!-- Event 1 on the left -->
            <div style=""text-align: center; margin-right: 20px;"">
              <p style=""font-size: 24px; font-weight: bold;"">Event 1</p>
              <img src=""images/causal/cat_care_semantic/cat_care_semantic_10.png"" style=""width: 300px; height: auto;"">
            </div>
            <!-- Event 2 on the right -->
            <div style=""text-align: center; margin-left: 20px;"">
              <p style=""font-size: 24px; font-weight: bold;"">Event 2</p>
              <img src=""images/causal/cat_care_semantic/cat_care_semantic_7.png"" style=""width: 300px; height: auto;"">
            </div>
          </div>
          <p style=""text-align: center; margin-top: 20px;"">Does Event 1 lead to Event 2?</p>","2","10","7","true"
"","","","","","html-button-response","14","254638","0.0-14.0","","5698","
          <div style=""display: flex; justify-content: center; align-items: center;"">
            <!-- Event 1 on the left -->
            <div style=""text-align: center; margin-right: 20px;"">
              <p style=""font-size: 24px; font-weight: bold;"">Event 1</p>
              <img src=""images/causal/cat_care_semantic/cat_care_semantic_5.png"" style=""width: 300px; height: auto;"">
            </div>
            <!-- Event 2 on the right -->
            <div style=""text-align: center; margin-left: 20px;"">
              <p style=""font-size: 24px; font-weight: bold;"">Event 2</p>
              <img src=""images/causal/cat_care_semantic/cat_care_semantic_4.png"" style=""width: 300px; height: auto;"">
            </div>
          </div>
          <p style=""text-align: center; margin-top: 20px;"">Does Event 1 lead to Event 2?</p>","2","5","4","true"
"","","","","","html-button-response","15","260357","0.0-15.0","","5717","
          <div style=""display: flex; justify-content: center; align-items: center;"">
            <!-- Event 1 on the left -->
            <div style=""text-align: center; margin-right: 20px;"">
              <p style=""font-size: 24px; font-weight: bold;"">Event 1</p>
              <img src=""images/causal/cat_care_semantic/cat_care_semantic_3.png"" style=""width: 300px; height: auto;"">
            </div>
            <!-- Event 2 on the right -->
            <div style=""text-align: center; margin-left: 20px;"">
              <p style=""font-size: 24px; font-weight: bold;"">Event 2</p>
              <img src=""images/causal/cat_care_semantic/cat_care_semantic_1.png"" style=""width: 300px; height: auto;"">
            </div>
          </div>
          <p style=""text-align: center; margin-top: 20px;"">Does Event 1 lead to Event 2?</p>","2","3","1","true"
"","","","","","html-button-response","16","266973","0.0-16.0","","6615","
          <div style=""display: flex; justify-content: center; align-items: center;"">
            <!-- Event 1 on the left -->
            <div style=""text-align: center; margin-right: 20px;"">
              <p style=""font-size: 24px; font-weight: bold;"">Event 1</p>
              <img src=""images/causal/cat_care_semantic/cat_care_semantic_10.png"" style=""width: 300px; height: auto;"">
            </div>
            <!-- Event 2 on the right -->
            <div style=""text-align: center; margin-left: 20px;"">
              <p style=""font-size: 24px; font-weight: bold;"">Event 2</p>
              <img src=""images/causal/cat_care_semantic/cat_care_semantic_4.png"" style=""width: 300px; height: auto;"">
            </div>
          </div>
          <p style=""text-align: center; margin-top: 20px;"">Does Event 1 lead to Event 2?</p>","2","10","4","true"
"","","","","","html-button-response","17","272724","0.0-17.0","","5749","
          <div style=""display: flex; justify-content: center; align-items: center;"">
            <!-- Event 1 on the left -->
            <div style=""text-align: center; margin-right: 20px;"">
              <p style=""font-size: 24px; font-weight: bold;"">Event 1</p>
              <img src=""images/causal/cat_care_semantic/cat_care_semantic_2.png"" style=""width: 300px; height: auto;"">
            </div>
            <!-- Event 2 on the right -->
            <div style=""text-align: center; margin-left: 20px;"">
              <p style=""font-size: 24px; font-weight: bold;"">Event 2</p>
              <img src=""images/causal/cat_care_semantic/cat_care_semantic_1.png"" style=""width: 300px; height: auto;"">
            </div>
          </div>
          <p style=""text-align: center; margin-top: 20px;"">Does Event 1 lead to Event 2?</p>","0","2","1","true"
"","","","","","html-button-response","18","278408","0.0-18.0","","5683","
          <div style=""display: flex; justify-content: center; align-items: center;"">
            <!-- Event 1 on the left -->
            <div style=""text-align: center; margin-right: 20px;"">
              <p style=""font-size: 24px; font-weight: bold;"">Event 1</p>
              <img src=""images/causal/cat_care_semantic/cat_care_semantic_8.png"" style=""width: 300px; height: auto;"">
            </div>
            <!-- Event 2 on the right -->
            <div style=""text-align: center; margin-left: 20px;"">
              <p style=""font-size: 24px; font-weight: bold;"">Event 2</p>
              <img src=""images/causal/cat_care_semantic/cat_care_semantic_10.png"" style=""width: 300px; height: auto;"">
            </div>
          </div>
          <p style=""text-align: center; margin-top: 20px;"">Does Event 1 lead to Event 2?</p>","2","8","10","true"
"","","","","","html-button-response","19","284126","0.0-19.0","","5716","
          <div style=""display: flex; justify-content: center; align-items: center;"">
            <!-- Event 1 on the left -->
            <div style=""text-align: center; margin-right: 20px;"">
              <p style=""font-size: 24px; font-weight: bold;"">Event 1</p>
              <img src=""images/causal/cat_care_semantic/cat_care_semantic_6.png"" style=""width: 300px; height: auto;"">
            </div>
            <!-- Event 2 on the right -->
            <div style=""text-align: center; margin-left: 20px;"">
              <p style=""font-size: 24px; font-weight: bold;"">Event 2</p>
              <img src=""images/causal/cat_care_semantic/cat_care_semantic_9.png"" style=""width: 300px; height: auto;"">
            </div>
          </div>
          <p style=""text-align: center; margin-top: 20px;"">Does Event 1 lead to Event 2?</p>","2","6","9","true"
"","","","","","html-button-response","20","289858","0.0-20.0","","5731","
          <div style=""display: flex; justify-content: center; align-items: center;"">
            <!-- Event 1 on the left -->
            <div style=""text-align: center; margin-right: 20px;"">
              <p style=""font-size: 24px; font-weight: bold;"">Event 1</p>
              <img src=""images/causal/cat_care_semantic/cat_care_semantic_9.png"" style=""width: 300px; height: auto;"">
            </div>
            <!-- Event 2 on the right -->
            <div style=""text-align: center; margin-left: 20px;"">
              <p style=""font-size: 24px; font-weight: bold;"">Event 2</p>
              <img src=""images/causal/cat_care_semantic/cat_care_semantic_5.png"" style=""width: 300px; height: auto;"">
            </div>
          </div>
          <p style=""text-align: center; margin-top: 20px;"">Does Event 1 lead to Event 2?</p>","1","9","5","true"
"","","","","","html-button-response","21","295492","0.0-21.0","","5633","
          <div style=""display: flex; justify-content: center; align-items: center;"">
            <!-- Event 1 on the left -->
            <div style=""text-align: center; margin-right: 20px;"">
              <p style=""font-size: 24px; font-weight: bold;"">Event 1</p>
              <img src=""images/causal/cat_care_semantic/cat_care_semantic_5.png"" style=""width: 300px; height: auto;"">
            </div>
            <!-- Event 2 on the right -->
            <div style=""text-align: center; margin-left: 20px;"">
              <p style=""font-size: 24px; font-weight: bold;"">Event 2</p>
              <img src=""images/causal/cat_care_semantic/cat_care_semantic_3.png"" style=""width: 300px; height: auto;"">
            </div>
          </div>
          <p style=""text-align: center; margin-top: 20px;"">Does Event 1 lead to Event 2?</p>","2","5","3","true"
"","","","","","html-button-response","22","301227","0.0-22.0","","5734","
          <div style=""display: flex; justify-content: center; align-items: center;"">
            <!-- Event 1 on the left -->
            <div style=""text-align: center; margin-right: 20px;"">
              <p style=""font-size: 24px; font-weight: bold;"">Event 1</p>
              <img src=""images/causal/cat_care_semantic/cat_care_semantic_8.png"" style=""width: 300px; height: auto;"">
            </div>
            <!-- Event 2 on the right -->
            <div style=""text-align: center; margin-left: 20px;"">
              <p style=""font-size: 24px; font-weight: bold;"">Event 2</p>
              <img src=""images/causal/cat_care_semantic/cat_care_semantic_2.png"" style=""width: 300px; height: auto;"">
            </div>
          </div>
          <p style=""text-align: center; margin-top: 20px;"">Does Event 1 lead to Event 2?</p>","0","8","2","true"
"","","","","","html-button-response","23","306912","0.0-23.0","","5683","
          <div style=""display: flex; justify-content: center; align-items: center;"">
            <!-- Event 1 on the left -->
            <div style=""text-align: center; margin-right: 20px;"">
              <p style=""font-size: 24px; font-weight: bold;"">Event 1</p>
              <img src=""images/causal/cat_care_semantic/cat_care_semantic_4.png"" style=""width: 300px; height: auto;"">
            </div>
            <!-- Event 2 on the right -->
            <div style=""text-align: center; margin-left: 20px;"">
              <p style=""font-size: 24px; font-weight: bold;"">Event 2</p>
              <img src=""images/causal/cat_care_semantic/cat_care_semantic_2.png"" style=""width: 300px; height: auto;"">
            </div>
          </div>
          <p style=""text-align: center; margin-top: 20px;"">Does Event 1 lead to Event 2?</p>","1","4","2","true"
"","","","","","html-button-response","24","312594","0.0-24.0","","5680","
          <div style=""display: flex; justify-content: center; align-items: center;"">
            <!-- Event 1 on the left -->
            <div style=""text-align: center; margin-right: 20px;"">
              <p style=""font-size: 24px; font-weight: bold;"">Event 1</p>
              <img src=""images/causal/cat_care_semantic/cat_care_semantic_8.png"" style=""width: 300px; height: auto;"">
            </div>
            <!-- Event 2 on the right -->
            <div style=""text-align: center; margin-left: 20px;"">
              <p style=""font-size: 24px; font-weight: bold;"">Event 2</p>
              <img src=""images/causal/cat_care_semantic/cat_care_semantic_9.png"" style=""width: 300px; height: auto;"">
            </div>
          </div>
          <p style=""text-align: center; margin-top: 20px;"">Does Event 1 lead to Event 2?</p>","1","8","9","true"
"","","","","","html-button-response","25","318089","0.0-25.0","","5494","
          <div style=""display: flex; justify-content: center; align-items: center;"">
            <!-- Event 1 on the left -->
            <div style=""text-align: center; margin-right: 20px;"">
              <p style=""font-size: 24px; font-weight: bold;"">Event 1</p>
              <img src=""images/causal/cat_care_semantic/cat_care_semantic_2.png"" style=""width: 300px; height: auto;"">
            </div>
            <!-- Event 2 on the right -->
            <div style=""text-align: center; margin-left: 20px;"">
              <p style=""font-size: 24px; font-weight: bold;"">Event 2</p>
              <img src=""images/causal/cat_care_semantic/cat_care_semantic_9.png"" style=""width: 300px; height: auto;"">
            </div>
          </div>
          <p style=""text-align: center; margin-top: 20px;"">Does Event 1 lead to Event 2?</p>","1","2","9","true"
"","","","","","html-button-response","26","324015","0.0-26.0","","5925","
          <div style=""display: flex; justify-content: center; align-items: center;"">
            <!-- Event 1 on the left -->
            <div style=""text-align: center; margin-right: 20px;"">
              <p style=""font-size: 24px; font-weight: bold;"">Event 1</p>
              <img src=""images/causal/cat_care_semantic/cat_care_semantic_9.png"" style=""width: 300px; height: auto;"">
            </div>
            <!-- Event 2 on the right -->
            <div style=""text-align: center; margin-left: 20px;"">
              <p style=""font-size: 24px; font-weight: bold;"">Event 2</p>
              <img src=""images/causal/cat_care_semantic/cat_care_semantic_3.png"" style=""width: 300px; height: auto;"">
            </div>
          </div>
          <p style=""text-align: center; margin-top: 20px;"">Does Event 1 lead to Event 2?</p>","2","9","3","true"
"","","","","","html-button-response","27","331558","0.0-27.0","","7541","
          <div style=""display: flex; justify-content: center; align-items: center;"">
            <!-- Event 1 on the left -->
            <div style=""text-align: center; margin-right: 20px;"">
              <p style=""font-size: 24px; font-weight: bold;"">Event 1</p>
              <img src=""images/causal/cat_care_semantic/cat_care_semantic_5.png"" style=""width: 300px; height: auto;"">
            </div>
            <!-- Event 2 on the right -->
            <div style=""text-align: center; margin-left: 20px;"">
              <p style=""font-size: 24px; font-weight: bold;"">Event 2</p>
              <img src=""images/causal/cat_care_semantic/cat_care_semantic_6.png"" style=""width: 300px; height: auto;"">
            </div>
          </div>
          <p style=""text-align: center; margin-top: 20px;"">Does Event 1 lead to Event 2?</p>","2","5","6","true"
"","","","","","html-button-response","28","338658","0.0-28.0","","7099","
          <div style=""display: flex; justify-content: center; align-items: center;"">
            <!-- Event 1 on the left -->
            <div style=""text-align: center; margin-right: 20px;"">
              <p style=""font-size: 24px; font-weight: bold;"">Event 1</p>
              <img src=""images/causal/cat_care_semantic/cat_care_semantic_5.png"" style=""width: 300px; height: auto;"">
            </div>
            <!-- Event 2 on the right -->
            <div style=""text-align: center; margin-left: 20px;"">
              <p style=""font-size: 24px; font-weight: bold;"">Event 2</p>
              <img src=""images/causal/cat_care_semantic/cat_care_semantic_8.png"" style=""width: 300px; height: auto;"">
            </div>
          </div>
          <p style=""text-align: center; margin-top: 20px;"">Does Event 1 lead to Event 2?</p>","1","5","8","true"
"","","","","","html-button-response","29","346604","0.0-29.0","","7944","
          <div style=""display: flex; justify-content: center; align-items: center;"">
            <!-- Event 1 on the left -->
            <div style=""text-align: center; margin-right: 20px;"">
              <p style=""font-size: 24px; font-weight: bold;"">Event 1</p>
              <img src=""images/causal/cat_care_semantic/cat_care_semantic_6.png"" style=""width: 300px; height: auto;"">
            </div>
            <!-- Event 2 on the right -->
            <div style=""text-align: center; margin-left: 20px;"">
              <p style=""font-size: 24px; font-weight: bold;"">Event 2</p>
              <img src=""images/causal/cat_care_semantic/cat_care_semantic_4.png"" style=""width: 300px; height: auto;"">
            </div>
          </div>
          <p style=""text-align: center; margin-top: 20px;"">Does Event 1 lead to Event 2?</p>","2","6","4","true"
"","","","","","html-button-response","30","353489","0.0-30.0","","6884","
          <div style=""display: flex; justify-content: center; align-items: center;"">
            <!-- Event 1 on the left -->
            <div style=""text-align: center; margin-right: 20px;"">
              <p style=""font-size: 24px; font-weight: bold;"">Event 1</p>
              <img src=""images/causal/cat_care_semantic/cat_care_semantic_1.png"" style=""width: 300px; height: auto;"">
            </div>
            <!-- Event 2 on the right -->
            <div style=""text-align: center; margin-left: 20px;"">
              <p style=""font-size: 24px; font-weight: bold;"">Event 2</p>
              <img src=""images/causal/cat_care_semantic/cat_care_semantic_8.png"" style=""width: 300px; height: auto;"">
            </div>
          </div>
          <p style=""text-align: center; margin-top: 20px;"">Does Event 1 lead to Event 2?</p>","2","1","8","true"
"","","","","","html-button-response","31","359164","0.0-31.0","","5673","
          <div style=""display: flex; justify-content: center; align-items: center;"">
            <!-- Event 1 on the left -->
            <div style=""text-align: center; margin-right: 20px;"">
              <p style=""font-size: 24px; font-weight: bold;"">Event 1</p>
              <img src=""images/causal/cat_care_semantic/cat_care_semantic_7.png"" style=""width: 300px; height: auto;"">
            </div>
            <!-- Event 2 on the right -->
            <div style=""text-align: center; margin-left: 20px;"">
              <p style=""font-size: 24px; font-weight: bold;"">Event 2</p>
              <img src=""images/causal/cat_care_semantic/cat_care_semantic_5.png"" style=""width: 300px; height: auto;"">
            </div>
          </div>
          <p style=""text-align: center; margin-top: 20px;"">Does Event 1 lead to Event 2?</p>","2","7","5","true"
"","","","","","html-button-response","32","366749","0.0-32.0","","7584","
          <div style=""display: flex; justify-content: center; align-items: center;"">
            <!-- Event 1 on the left -->
            <div style=""text-align: center; margin-right: 20px;"">
              <p style=""font-size: 24px; font-weight: bold;"">Event 1</p>
              <img src=""images/causal/cat_care_semantic/cat_care_semantic_2.png"" style=""width: 300px; height: auto;"">
            </div>
            <!-- Event 2 on the right -->
            <div style=""text-align: center; margin-left: 20px;"">
              <p style=""font-size: 24px; font-weight: bold;"">Event 2</p>
              <img src=""images/causal/cat_care_semantic/cat_care_semantic_5.png"" style=""width: 300px; height: auto;"">
            </div>
          </div>
          <p style=""text-align: center; margin-top: 20px;"">Does Event 1 lead to Event 2?</p>","0","2","5","true"
"","","","","","html-button-response","33","372433","0.0-33.0","","5682","
          <div style=""display: flex; justify-content: center; align-items: center;"">
            <!-- Event 1 on the left -->
            <div style=""text-align: center; margin-right: 20px;"">
              <p style=""font-size: 24px; font-weight: bold;"">Event 1</p>
              <img src=""images/causal/cat_care_semantic/cat_care_semantic_6.png"" style=""width: 300px; height: auto;"">
            </div>
            <!-- Event 2 on the right -->
            <div style=""text-align: center; margin-left: 20px;"">
              <p style=""font-size: 24px; font-weight: bold;"">Event 2</p>
              <img src=""images/causal/cat_care_semantic/cat_care_semantic_3.png"" style=""width: 300px; height: auto;"">
            </div>
          </div>
          <p style=""text-align: center; margin-top: 20px;"">Does Event 1 lead to Event 2?</p>","0","6","3","true"
"","","","","","html-button-response","34","378316","0.0-34.0","","5882","
          <div style=""display: flex; justify-content: center; align-items: center;"">
            <!-- Event 1 on the left -->
            <div style=""text-align: center; margin-right: 20px;"">
              <p style=""font-size: 24px; font-weight: bold;"">Event 1</p>
              <img src=""images/causal/cat_care_semantic/cat_care_semantic_4.png"" style=""width: 300px; height: auto;"">
            </div>
            <!-- Event 2 on the right -->
            <div style=""text-align: center; margin-left: 20px;"">
              <p style=""font-size: 24px; font-weight: bold;"">Event 2</p>
              <img src=""images/causal/cat_care_semantic/cat_care_semantic_9.png"" style=""width: 300px; height: auto;"">
            </div>
          </div>
          <p style=""text-align: center; margin-top: 20px;"">Does Event 1 lead to Event 2?</p>","1","4","9","true"
"","","","","","html-button-response","35","383917","0.0-35.0","","5599","
          <div style=""display: flex; justify-content: center; align-items: center;"">
            <!-- Event 1 on the left -->
            <div style=""text-align: center; margin-right: 20px;"">
              <p style=""font-size: 24px; font-weight: bold;"">Event 1</p>
              <img src=""images/causal/cat_care_semantic/cat_care_semantic_7.png"" style=""width: 300px; height: auto;"">
            </div>
            <!-- Event 2 on the right -->
            <div style=""text-align: center; margin-left: 20px;"">
              <p style=""font-size: 24px; font-weight: bold;"">Event 2</p>
              <img src=""images/causal/cat_care_semantic/cat_care_semantic_6.png"" style=""width: 300px; height: auto;"">
            </div>
          </div>
          <p style=""text-align: center; margin-top: 20px;"">Does Event 1 lead to Event 2?</p>","0","7","6","true"
"","","","","","html-button-response","36","390869","0.0-36.0","","6950","
          <div style=""display: flex; justify-content: center; align-items: center;"">
            <!-- Event 1 on the left -->
            <div style=""text-align: center; margin-right: 20px;"">
              <p style=""font-size: 24px; font-weight: bold;"">Event 1</p>
              <img src=""images/causal/cat_care_semantic/cat_care_semantic_8.png"" style=""width: 300px; height: auto;"">
            </div>
            <!-- Event 2 on the right -->
            <div style=""text-align: center; margin-left: 20px;"">
              <p style=""font-size: 24px; font-weight: bold;"">Event 2</p>
              <img src=""images/causal/cat_care_semantic/cat_care_semantic_7.png"" style=""width: 300px; height: auto;"">
            </div>
          </div>
          <p style=""text-align: center; margin-top: 20px;"">Does Event 1 lead to Event 2?</p>","2","8","7","true"
"","","","","","html-button-response","37","396635","0.0-37.0","","5765","
          <div style=""display: flex; justify-content: center; align-items: center;"">
            <!-- Event 1 on the left -->
            <div style=""text-align: center; margin-right: 20px;"">
              <p style=""font-size: 24px; font-weight: bold;"">Event 1</p>
              <img src=""images/causal/cat_care_semantic/cat_care_semantic_6.png"" style=""width: 300px; height: auto;"">
            </div>
            <!-- Event 2 on the right -->
            <div style=""text-align: center; margin-left: 20px;"">
              <p style=""font-size: 24px; font-weight: bold;"">Event 2</p>
              <img src=""images/causal/cat_care_semantic/cat_care_semantic_10.png"" style=""width: 300px; height: auto;"">
            </div>
          </div>
          <p style=""text-align: center; margin-top: 20px;"">Does Event 1 lead to Event 2?</p>","1","6","10","true"
"","","","","","html-button-response","38","402219","0.0-38.0","","5583","
          <div style=""display: flex; justify-content: center; align-items: center;"">
            <!-- Event 1 on the left -->
            <div style=""text-align: center; margin-right: 20px;"">
              <p style=""font-size: 24px; font-weight: bold;"">Event 1</p>
              <img src=""images/causal/cat_care_semantic/cat_care_semantic_3.png"" style=""width: 300px; height: auto;"">
            </div>
            <!-- Event 2 on the right -->
            <div style=""text-align: center; margin-left: 20px;"">
              <p style=""font-size: 24px; font-weight: bold;"">Event 2</p>
              <img src=""images/causal/cat_care_semantic/cat_care_semantic_10.png"" style=""width: 300px; height: auto;"">
            </div>
          </div>
          <p style=""text-align: center; margin-top: 20px;"">Does Event 1 lead to Event 2?</p>","2","3","10","true"
"","","","","","html-button-response","39","407802","0.0-39.0","","5582","
          <div style=""display: flex; justify-content: center; align-items: center;"">
            <!-- Event 1 on the left -->
            <div style=""text-align: center; margin-right: 20px;"">
              <p style=""font-size: 24px; font-weight: bold;"">Event 1</p>
              <img src=""images/causal/cat_care_semantic/cat_care_semantic_1.png"" style=""width: 300px; height: auto;"">
            </div>
            <!-- Event 2 on the right -->
            <div style=""text-align: center; margin-left: 20px;"">
              <p style=""font-size: 24px; font-weight: bold;"">Event 2</p>
              <img src=""images/causal/cat_care_semantic/cat_care_semantic_9.png"" style=""width: 300px; height: auto;"">
            </div>
          </div>
          <p style=""text-align: center; margin-top: 20px;"">Does Event 1 lead to Event 2?</p>","2","1","9","true"
"","","","","","html-button-response","40","413486","0.0-40.0","","5682","
          <div style=""display: flex; justify-content: center; align-items: center;"">
            <!-- Event 1 on the left -->
            <div style=""text-align: center; margin-right: 20px;"">
              <p style=""font-size: 24px; font-weight: bold;"">Event 1</p>
              <img src=""images/causal/cat_care_semantic/cat_care_semantic_6.png"" style=""width: 300px; height: auto;"">
            </div>
            <!-- Event 2 on the right -->
            <div style=""text-align: center; margin-left: 20px;"">
              <p style=""font-size: 24px; font-weight: bold;"">Event 2</p>
              <img src=""images/causal/cat_care_semantic/cat_care_semantic_8.png"" style=""width: 300px; height: auto;"">
            </div>
          </div>
          <p style=""text-align: center; margin-top: 20px;"">Does Event 1 lead to Event 2?</p>","2","6","8","true"
"","","","","","html-button-response","41","419088","0.0-41.0","","5600","
          <div style=""display: flex; justify-content: center; align-items: center;"">
            <!-- Event 1 on the left -->
            <div style=""text-align: center; margin-right: 20px;"">
              <p style=""font-size: 24px; font-weight: bold;"">Event 1</p>
              <img src=""images/causal/cat_care_semantic/cat_care_semantic_8.png"" style=""width: 300px; height: auto;"">
            </div>
            <!-- Event 2 on the right -->
            <div style=""text-align: center; margin-left: 20px;"">
              <p style=""font-size: 24px; font-weight: bold;"">Event 2</p>
              <img src=""images/causal/cat_care_semantic/cat_care_semantic_3.png"" style=""width: 300px; height: auto;"">
            </div>
          </div>
          <p style=""text-align: center; margin-top: 20px;"">Does Event 1 lead to Event 2?</p>","2","8","3","true"
"","","","","","html-button-response","42","425454","0.0-42.0","","6364","
          <div style=""display: flex; justify-content: center; align-items: center;"">
            <!-- Event 1 on the left -->
            <div style=""text-align: center; margin-right: 20px;"">
              <p style=""font-size: 24px; font-weight: bold;"">Event 1</p>
              <img src=""images/causal/cat_care_semantic/cat_care_semantic_3.png"" style=""width: 300px; height: auto;"">
            </div>
            <!-- Event 2 on the right -->
            <div style=""text-align: center; margin-left: 20px;"">
              <p style=""font-size: 24px; font-weight: bold;"">Event 2</p>
              <img src=""images/causal/cat_care_semantic/cat_care_semantic_2.png"" style=""width: 300px; height: auto;"">
            </div>
          </div>
          <p style=""text-align: center; margin-top: 20px;"">Does Event 1 lead to Event 2?</p>","1","3","2","true"
"","","","","","html-button-response","43","431029","0.0-43.0","","5574","
          <div style=""display: flex; justify-content: center; align-items: center;"">
            <!-- Event 1 on the left -->
            <div style=""text-align: center; margin-right: 20px;"">
              <p style=""font-size: 24px; font-weight: bold;"">Event 1</p>
              <img src=""images/causal/cat_care_semantic/cat_care_semantic_7.png"" style=""width: 300px; height: auto;"">
            </div>
            <!-- Event 2 on the right -->
            <div style=""text-align: center; margin-left: 20px;"">
              <p style=""font-size: 24px; font-weight: bold;"">Event 2</p>
              <img src=""images/causal/cat_care_semantic/cat_care_semantic_4.png"" style=""width: 300px; height: auto;"">
            </div>
          </div>
          <p style=""text-align: center; margin-top: 20px;"">Does Event 1 lead to Event 2?</p>","0","7","4","true"
"","","","","","html-button-response","44","436722","0.0-44.0","","5692","
          <div style=""display: flex; justify-content: center; align-items: center;"">
            <!-- Event 1 on the left -->
            <div style=""text-align: center; margin-right: 20px;"">
              <p style=""font-size: 24px; font-weight: bold;"">Event 1</p>
              <img src=""images/causal/cat_care_semantic/cat_care_semantic_10.png"" style=""width: 300px; height: auto;"">
            </div>
            <!-- Event 2 on the right -->
            <div style=""text-align: center; margin-left: 20px;"">
              <p style=""font-size: 24px; font-weight: bold;"">Event 2</p>
              <img src=""images/causal/cat_care_semantic/cat_care_semantic_2.png"" style=""width: 300px; height: auto;"">
            </div>
          </div>
          <p style=""text-align: center; margin-top: 20px;"">Does Event 1 lead to Event 2?</p>","0","10","2","true"
"","","","","","html-button-response","45","442406","0.0-45.0","","5682","
          <div style=""display: flex; justify-content: center; align-items: center;"">
            <!-- Event 1 on the left -->
            <div style=""text-align: center; margin-right: 20px;"">
              <p style=""font-size: 24px; font-weight: bold;"">Event 1</p>
              <img src=""images/causal/cat_care_semantic/cat_care_semantic_1.png"" style=""width: 300px; height: auto;"">
            </div>
            <!-- Event 2 on the right -->
            <div style=""text-align: center; margin-left: 20px;"">
              <p style=""font-size: 24px; font-weight: bold;"">Event 2</p>
              <img src=""images/causal/cat_care_semantic/cat_care_semantic_4.png"" style=""width: 300px; height: auto;"">
            </div>
          </div>
          <p style=""text-align: center; margin-top: 20px;"">Does Event 1 lead to Event 2?</p>","0","1","4","true"
"","","","","","html-button-response","46","448089","0.0-46.0","","5682","
          <div style=""display: flex; justify-content: center; align-items: center;"">
            <!-- Event 1 on the left -->
            <div style=""text-align: center; margin-right: 20px;"">
              <p style=""font-size: 24px; font-weight: bold;"">Event 1</p>
              <img src=""images/causal/cat_care_semantic/cat_care_semantic_8.png"" style=""width: 300px; height: auto;"">
            </div>
            <!-- Event 2 on the right -->
            <div style=""text-align: center; margin-left: 20px;"">
              <p style=""font-size: 24px; font-weight: bold;"">Event 2</p>
              <img src=""images/causal/cat_care_semantic/cat_care_semantic_4.png"" style=""width: 300px; height: auto;"">
            </div>
          </div>
          <p style=""text-align: center; margin-top: 20px;"">Does Event 1 lead to Event 2?</p>","0","8","4","true"
"","","","","","instructions","47","452756","0.0-47.0","[{""page_index"":0,""viewing_time"":4666}]","4666","","","","",""
