"success","timeout","failed_images","failed_audio","failed_video","trial_type","trial_index","time_elapsed","internal_node_id","subject_id","study_id","session_id","view_history","rt","stimulus","response","choice"
"true","false","[]","[]","[]","preload","0","2127","0.0-0.0","B73C6479BA694B2481EF0BFDC5B151D9","4630e93a-000a-4e32-a9a2-a2ae41854b81","58046770-4c03-4bc2-b4bc-e7359011db5d","","","","",""
"","","","","","instructions","1","261431","0.0-1.0","B73C6479BA694B2481EF0BFDC5B151D9","4630e93a-000a-4e32-a9a2-a2ae41854b81","58046770-4c03-4bc2-b4bc-e7359011db5d","[{""page_index"":0,""viewing_time"":259306}]","259306","","",""
"","","","","","instructions","2","265201","0.0-2.0","B73C6479BA694B2481EF0BFDC5B151D9","4630e93a-000a-4e32-a9a2-a2ae41854b81","58046770-4c03-4bc2-b4bc-e7359011db5d","[{""page_index"":0,""viewing_time"":3769}]","3769","","",""
"true","","","","","fullscreen","3","267491","0.0-3.0","B73C6479BA694B2481EF0BFDC5B151D9","4630e93a-000a-4e32-a9a2-a2ae41854b81","58046770-4c03-4bc2-b4bc-e7359011db5d","","1189","","",""
"","","","","","instructions","4","269825","0.0-4.0","B73C6479BA694B2481EF0BFDC5B151D9","4630e93a-000a-4e32-a9a2-a2ae41854b81","58046770-4c03-4bc2-b4bc-e7359011db5d","[{""page_index"":0,""viewing_time"":2333}]","2333","","",""
"","","","","","html-keyboard-response","5","272839","0.0-5.0","B73C6479BA694B2481EF0BFDC5B151D9","4630e93a-000a-4e32-a9a2-a2ae41854b81","58046770-4c03-4bc2-b4bc-e7359011db5d","","null","<div style=""display: flex; justify-content: center; align-items: center;"">
                <img src=""images/causal/causal_series_3/causal_series_3_a.jpg"" style=""width: 300px; height: 300px;"" />
              </div>","null",""
"","","","","","html-keyboard-response","6","275848","0.0-6.0","B73C6479BA694B2481EF0BFDC5B151D9","4630e93a-000a-4e32-a9a2-a2ae41854b81","58046770-4c03-4bc2-b4bc-e7359011db5d","","null","<div style=""display: flex; justify-content: center; align-items: center;"">
                <img src=""images/causal/causal_series_3/causal_series_3_b.jpg"" style=""width: 300px; height: 300px;"" />
              </div>","null",""
"","","","","","html-keyboard-response","7","278857","0.0-7.0","B73C6479BA694B2481EF0BFDC5B151D9","4630e93a-000a-4e32-a9a2-a2ae41854b81","58046770-4c03-4bc2-b4bc-e7359011db5d","","null","<div style=""display: flex; justify-content: center; align-items: center;"">
                <img src=""images/causal/causal_series_3/causal_series_3_c.jpg"" style=""width: 300px; height: 300px;"" />
              </div>","null",""
"","","","","","html-button-response","8","280325","0.0-8.0","B73C6479BA694B2481EF0BFDC5B151D9","4630e93a-000a-4e32-a9a2-a2ae41854b81","58046770-4c03-4bc2-b4bc-e7359011db5d","","1466","
    <div style=""display: flex; justify-content: center; align-items: center;"">
      <img src=""images/red_deck_2.png"" style=""width: 300px; height: 300px; margin-right: 10px;"" />
      <img src=""images/blue_deck_1.png"" style=""width: 300px; height: 300px;"" />
    </div>","0","0"
"","","","","","html-keyboard-response","9","283336","0.0-9.0-0.0-0.0","B73C6479BA694B2481EF0BFDC5B151D9","4630e93a-000a-4e32-a9a2-a2ae41854b81","58046770-4c03-4bc2-b4bc-e7359011db5d","","null","<div style=""display: flex; justify-content: center; align-items: center;"">
                <img src=""images/causal/causal_series_3/causal_series_3_d.jpg"" style=""width: 300px; height: 300px;"" />
              </div>","null",""
"","","","","","html-keyboard-response","10","286352","0.0-10.0","B73C6479BA694B2481EF0BFDC5B151D9","4630e93a-000a-4e32-a9a2-a2ae41854b81","58046770-4c03-4bc2-b4bc-e7359011db5d","","null","<div style=""display: flex; justify-content: center; align-items: center;"">
                <img src=""images/other/blank.jpg"" style=""width: 300px; height: 300px;"" />
              </div>","null",""
"","","","","","html-keyboard-response","11","289361","0.0-11.0","B73C6479BA694B2481EF0BFDC5B151D9","4630e93a-000a-4e32-a9a2-a2ae41854b81","58046770-4c03-4bc2-b4bc-e7359011db5d","","null","<div style=""display: flex; justify-content: center; align-items: center;"">
                <img src=""images/causal/causal_series_11/causal_series_11_a.jpg"" style=""width: 300px; height: 300px;"" />
              </div>","null",""
"","","","","","html-keyboard-response","12","292368","0.0-12.0","B73C6479BA694B2481EF0BFDC5B151D9","4630e93a-000a-4e32-a9a2-a2ae41854b81","58046770-4c03-4bc2-b4bc-e7359011db5d","","null","<div style=""display: flex; justify-content: center; align-items: center;"">
                <img src=""images/causal/causal_series_11/causal_series_11_b.jpg"" style=""width: 300px; height: 300px;"" />
              </div>","null",""
"","","","","","html-keyboard-response","13","295383","0.0-13.0","B73C6479BA694B2481EF0BFDC5B151D9","4630e93a-000a-4e32-a9a2-a2ae41854b81","58046770-4c03-4bc2-b4bc-e7359011db5d","","null","<div style=""display: flex; justify-content: center; align-items: center;"">
                <img src=""images/causal/causal_series_11/causal_series_11_c.jpg"" style=""width: 300px; height: 300px;"" />
              </div>","null",""
"","","","","","html-button-response","14","413785","0.0-14.0","B73C6479BA694B2481EF0BFDC5B151D9","4630e93a-000a-4e32-a9a2-a2ae41854b81","58046770-4c03-4bc2-b4bc-e7359011db5d","","118402","
    <div style=""display: flex; justify-content: center; align-items: center;"">
      <img src=""images/red_deck_2.png"" style=""width: 300px; height: 300px; margin-right: 10px;"" />
      <img src=""images/blue_deck_1.png"" style=""width: 300px; height: 300px;"" />
    </div>","0","0"
"","","","","","html-keyboard-response","15","416791","0.0-15.0-0.0-0.0","B73C6479BA694B2481EF0BFDC5B151D9","4630e93a-000a-4e32-a9a2-a2ae41854b81","58046770-4c03-4bc2-b4bc-e7359011db5d","","null","<div style=""display: flex; justify-content: center; align-items: center;"">
                <img src=""images/causal/causal_series_11/causal_series_11_d.jpg"" style=""width: 300px; height: 300px;"" />
              </div>","null",""
"","","","","","html-keyboard-response","16","419805","0.0-16.0","B73C6479BA694B2481EF0BFDC5B151D9","4630e93a-000a-4e32-a9a2-a2ae41854b81","58046770-4c03-4bc2-b4bc-e7359011db5d","","null","<div style=""display: flex; justify-content: center; align-items: center;"">
                <img src=""images/other/blank.jpg"" style=""width: 300px; height: 300px;"" />
              </div>","null",""
"","","","","","html-keyboard-response","17","422817","0.0-17.0","B73C6479BA694B2481EF0BFDC5B151D9","4630e93a-000a-4e32-a9a2-a2ae41854b81","58046770-4c03-4bc2-b4bc-e7359011db5d","","null","<div style=""display: flex; justify-content: center; align-items: center;"">
                <img src=""images/causal/causal_series_4/causal_series_4_a.jpg"" style=""width: 300px; height: 300px;"" />
              </div>","null",""
"","","","","","html-keyboard-response","18","425828","0.0-18.0","B73C6479BA694B2481EF0BFDC5B151D9","4630e93a-000a-4e32-a9a2-a2ae41854b81","58046770-4c03-4bc2-b4bc-e7359011db5d","","null","<div style=""display: flex; justify-content: center; align-items: center;"">
                <img src=""images/causal/causal_series_4/causal_series_4_b.jpg"" style=""width: 300px; height: 300px;"" />
              </div>","null",""
"","","","","","html-keyboard-response","19","428839","0.0-19.0","B73C6479BA694B2481EF0BFDC5B151D9","4630e93a-000a-4e32-a9a2-a2ae41854b81","58046770-4c03-4bc2-b4bc-e7359011db5d","","null","<div style=""display: flex; justify-content: center; align-items: center;"">
                <img src=""images/causal/causal_series_4/causal_series_4_c.jpg"" style=""width: 300px; height: 300px;"" />
              </div>","null",""
"","","","","","html-button-response","20","438900","0.0-20.0","B73C6479BA694B2481EF0BFDC5B151D9","4630e93a-000a-4e32-a9a2-a2ae41854b81","58046770-4c03-4bc2-b4bc-e7359011db5d","","10060","
    <div style=""display: flex; justify-content: center; align-items: center;"">
      <img src=""images/red_deck_2.png"" style=""width: 300px; height: 300px; margin-right: 10px;"" />
      <img src=""images/blue_deck_1.png"" style=""width: 300px; height: 300px;"" />
    </div>","0","0"
"","","","","","html-keyboard-response","21","441909","0.0-21.0-0.0-0.0","B73C6479BA694B2481EF0BFDC5B151D9","4630e93a-000a-4e32-a9a2-a2ae41854b81","58046770-4c03-4bc2-b4bc-e7359011db5d","","null","<div style=""display: flex; justify-content: center; align-items: center;"">
                <img src=""images/causal/causal_series_4/causal_series_4_d.jpg"" style=""width: 300px; height: 300px;"" />
              </div>","null",""
"","","","","","html-keyboard-response","22","444917","0.0-22.0","B73C6479BA694B2481EF0BFDC5B151D9","4630e93a-000a-4e32-a9a2-a2ae41854b81","58046770-4c03-4bc2-b4bc-e7359011db5d","","null","<div style=""display: flex; justify-content: center; align-items: center;"">
                <img src=""images/other/blank.jpg"" style=""width: 300px; height: 300px;"" />
              </div>","null",""
"","","","","","html-keyboard-response","23","447927","0.0-23.0","B73C6479BA694B2481EF0BFDC5B151D9","4630e93a-000a-4e32-a9a2-a2ae41854b81","58046770-4c03-4bc2-b4bc-e7359011db5d","","null","<div style=""display: flex; justify-content: center; align-items: center;"">
                <img src=""images/causal/causal_series_2/causal_series_2_a.jpg"" style=""width: 300px; height: 300px;"" />
              </div>","null",""
"","","","","","html-keyboard-response","24","450942","0.0-24.0","B73C6479BA694B2481EF0BFDC5B151D9","4630e93a-000a-4e32-a9a2-a2ae41854b81","58046770-4c03-4bc2-b4bc-e7359011db5d","","null","<div style=""display: flex; justify-content: center; align-items: center;"">
                <img src=""images/causal/causal_series_2/causal_series_2_b.jpg"" style=""width: 300px; height: 300px;"" />
              </div>","null",""
"","","","","","html-keyboard-response","25","453946","0.0-25.0","B73C6479BA694B2481EF0BFDC5B151D9","4630e93a-000a-4e32-a9a2-a2ae41854b81","58046770-4c03-4bc2-b4bc-e7359011db5d","","null","<div style=""display: flex; justify-content: center; align-items: center;"">
                <img src=""images/causal/causal_series_2/causal_series_2_c.jpg"" style=""width: 300px; height: 300px;"" />
              </div>","null",""
"","","","","","html-button-response","26","455591","0.0-26.0","B73C6479BA694B2481EF0BFDC5B151D9","4630e93a-000a-4e32-a9a2-a2ae41854b81","58046770-4c03-4bc2-b4bc-e7359011db5d","","1644","
    <div style=""display: flex; justify-content: center; align-items: center;"">
      <img src=""images/red_deck_2.png"" style=""width: 300px; height: 300px; margin-right: 10px;"" />
      <img src=""images/blue_deck_1.png"" style=""width: 300px; height: 300px;"" />
    </div>","0","0"
"","","","","","html-keyboard-response","27","458617","0.0-27.0-0.0-0.0","B73C6479BA694B2481EF0BFDC5B151D9","4630e93a-000a-4e32-a9a2-a2ae41854b81","58046770-4c03-4bc2-b4bc-e7359011db5d","","null","<div style=""display: flex; justify-content: center; align-items: center;"">
                <img src=""images/causal/causal_series_2/causal_series_2_d.jpg"" style=""width: 300px; height: 300px;"" />
              </div>","null",""
"","","","","","html-keyboard-response","28","461623","0.0-28.0","B73C6479BA694B2481EF0BFDC5B151D9","4630e93a-000a-4e32-a9a2-a2ae41854b81","58046770-4c03-4bc2-b4bc-e7359011db5d","","null","<div style=""display: flex; justify-content: center; align-items: center;"">
                <img src=""images/other/blank.jpg"" style=""width: 300px; height: 300px;"" />
              </div>","null",""
"","","","","","html-keyboard-response","29","464633","0.0-29.0","B73C6479BA694B2481EF0BFDC5B151D9","4630e93a-000a-4e32-a9a2-a2ae41854b81","58046770-4c03-4bc2-b4bc-e7359011db5d","","null","<div style=""display: flex; justify-content: center; align-items: center;"">
                <img src=""images/causal/causal_series_15/causal_series_15_a.jpg"" style=""width: 300px; height: 300px;"" />
              </div>","null",""
"","","","","","html-keyboard-response","30","467636","0.0-30.0","B73C6479BA694B2481EF0BFDC5B151D9","4630e93a-000a-4e32-a9a2-a2ae41854b81","58046770-4c03-4bc2-b4bc-e7359011db5d","","null","<div style=""display: flex; justify-content: center; align-items: center;"">
                <img src=""images/causal/causal_series_15/causal_series_15_b.jpg"" style=""width: 300px; height: 300px;"" />
              </div>","null",""
"","","","","","html-keyboard-response","31","470648","0.0-31.0","B73C6479BA694B2481EF0BFDC5B151D9","4630e93a-000a-4e32-a9a2-a2ae41854b81","58046770-4c03-4bc2-b4bc-e7359011db5d","","null","<div style=""display: flex; justify-content: center; align-items: center;"">
                <img src=""images/causal/causal_series_15/causal_series_15_c.jpg"" style=""width: 300px; height: 300px;"" />
              </div>","null",""
"","","","","","html-button-response","32","479997","0.0-32.0","B73C6479BA694B2481EF0BFDC5B151D9","4630e93a-000a-4e32-a9a2-a2ae41854b81","58046770-4c03-4bc2-b4bc-e7359011db5d","","9348","
    <div style=""display: flex; justify-content: center; align-items: center;"">
      <img src=""images/red_deck_2.png"" style=""width: 300px; height: 300px; margin-right: 10px;"" />
      <img src=""images/blue_deck_1.png"" style=""width: 300px; height: 300px;"" />
    </div>","0","0"
"","","","","","html-keyboard-response","33","483002","0.0-33.0-0.0-0.0","B73C6479BA694B2481EF0BFDC5B151D9","4630e93a-000a-4e32-a9a2-a2ae41854b81","58046770-4c03-4bc2-b4bc-e7359011db5d","","null","<div style=""display: flex; justify-content: center; align-items: center;"">
                <img src=""images/causal/causal_series_15/causal_series_15_d.jpg"" style=""width: 300px; height: 300px;"" />
              </div>","null",""
"","","","","","html-keyboard-response","34","486016","0.0-34.0","B73C6479BA694B2481EF0BFDC5B151D9","4630e93a-000a-4e32-a9a2-a2ae41854b81","58046770-4c03-4bc2-b4bc-e7359011db5d","","null","<div style=""display: flex; justify-content: center; align-items: center;"">
                <img src=""images/other/blank.jpg"" style=""width: 300px; height: 300px;"" />
              </div>","null",""
"","","","","","html-keyboard-response","35","489022","0.0-35.0","B73C6479BA694B2481EF0BFDC5B151D9","4630e93a-000a-4e32-a9a2-a2ae41854b81","58046770-4c03-4bc2-b4bc-e7359011db5d","","null","<div style=""display: flex; justify-content: center; align-items: center;"">
                <img src=""images/causal/causal_series_12/causal_series_12_a.jpg"" style=""width: 300px; height: 300px;"" />
              </div>","null",""
"","","","","","html-keyboard-response","36","492025","0.0-36.0","B73C6479BA694B2481EF0BFDC5B151D9","4630e93a-000a-4e32-a9a2-a2ae41854b81","58046770-4c03-4bc2-b4bc-e7359011db5d","","null","<div style=""display: flex; justify-content: center; align-items: center;"">
                <img src=""images/causal/causal_series_12/causal_series_12_b.jpg"" style=""width: 300px; height: 300px;"" />
              </div>","null",""
"","","","","","html-keyboard-response","37","495039","0.0-37.0","B73C6479BA694B2481EF0BFDC5B151D9","4630e93a-000a-4e32-a9a2-a2ae41854b81","58046770-4c03-4bc2-b4bc-e7359011db5d","","null","<div style=""display: flex; justify-content: center; align-items: center;"">
                <img src=""images/causal/causal_series_12/causal_series_12_c.jpg"" style=""width: 300px; height: 300px;"" />
              </div>","null",""
"","","","","","html-button-response","38","501146","0.0-38.0","B73C6479BA694B2481EF0BFDC5B151D9","4630e93a-000a-4e32-a9a2-a2ae41854b81","58046770-4c03-4bc2-b4bc-e7359011db5d","","6105","
    <div style=""display: flex; justify-content: center; align-items: center;"">
      <img src=""images/red_deck_2.png"" style=""width: 300px; height: 300px; margin-right: 10px;"" />
      <img src=""images/blue_deck_1.png"" style=""width: 300px; height: 300px;"" />
    </div>","0","0"
"","","","","","html-keyboard-response","39","504154","0.0-39.0-0.0-0.0","B73C6479BA694B2481EF0BFDC5B151D9","4630e93a-000a-4e32-a9a2-a2ae41854b81","58046770-4c03-4bc2-b4bc-e7359011db5d","","null","<div style=""display: flex; justify-content: center; align-items: center;"">
                <img src=""images/causal/causal_series_12/causal_series_12_d.jpg"" style=""width: 300px; height: 300px;"" />
              </div>","null",""
"","","","","","html-keyboard-response","40","507156","0.0-40.0","B73C6479BA694B2481EF0BFDC5B151D9","4630e93a-000a-4e32-a9a2-a2ae41854b81","58046770-4c03-4bc2-b4bc-e7359011db5d","","null","<div style=""display: flex; justify-content: center; align-items: center;"">
                <img src=""images/other/blank.jpg"" style=""width: 300px; height: 300px;"" />
              </div>","null",""
"","","","","","html-keyboard-response","41","510169","0.0-41.0","B73C6479BA694B2481EF0BFDC5B151D9","4630e93a-000a-4e32-a9a2-a2ae41854b81","58046770-4c03-4bc2-b4bc-e7359011db5d","","null","<div style=""display: flex; justify-content: center; align-items: center;"">
                <img src=""images/causal/causal_series_6/causal_series_6_a.jpg"" style=""width: 300px; height: 300px;"" />
              </div>","null",""
"","","","","","html-keyboard-response","42","513180","0.0-42.0","B73C6479BA694B2481EF0BFDC5B151D9","4630e93a-000a-4e32-a9a2-a2ae41854b81","58046770-4c03-4bc2-b4bc-e7359011db5d","","null","<div style=""display: flex; justify-content: center; align-items: center;"">
                <img src=""images/causal/causal_series_6/causal_series_6_b.jpg"" style=""width: 300px; height: 300px;"" />
              </div>","null",""
"","","","","","html-keyboard-response","43","516188","0.0-43.0","B73C6479BA694B2481EF0BFDC5B151D9","4630e93a-000a-4e32-a9a2-a2ae41854b81","58046770-4c03-4bc2-b4bc-e7359011db5d","","null","<div style=""display: flex; justify-content: center; align-items: center;"">
                <img src=""images/causal/causal_series_6/causal_series_6_c.jpg"" style=""width: 300px; height: 300px;"" />
              </div>","null",""
"","","","","","html-button-response","44","599323","0.0-44.0","B73C6479BA694B2481EF0BFDC5B151D9","4630e93a-000a-4e32-a9a2-a2ae41854b81","58046770-4c03-4bc2-b4bc-e7359011db5d","","83129","
    <div style=""display: flex; justify-content: center; align-items: center;"">
      <img src=""images/red_deck_2.png"" style=""width: 300px; height: 300px; margin-right: 10px;"" />
      <img src=""images/blue_deck_1.png"" style=""width: 300px; height: 300px;"" />
    </div>","0","0"
"","","","","","html-keyboard-response","45","602336","0.0-45.0-0.0-0.0","B73C6479BA694B2481EF0BFDC5B151D9","4630e93a-000a-4e32-a9a2-a2ae41854b81","58046770-4c03-4bc2-b4bc-e7359011db5d","","null","<div style=""display: flex; justify-content: center; align-items: center;"">
                <img src=""images/causal/causal_series_6/causal_series_6_d.jpg"" style=""width: 300px; height: 300px;"" />
              </div>","null",""
"","","","","","html-keyboard-response","46","605343","0.0-46.0","B73C6479BA694B2481EF0BFDC5B151D9","4630e93a-000a-4e32-a9a2-a2ae41854b81","58046770-4c03-4bc2-b4bc-e7359011db5d","","null","<div style=""display: flex; justify-content: center; align-items: center;"">
                <img src=""images/other/blank.jpg"" style=""width: 300px; height: 300px;"" />
              </div>","null",""
"","","","","","html-keyboard-response","47","608347","0.0-47.0","B73C6479BA694B2481EF0BFDC5B151D9","4630e93a-000a-4e32-a9a2-a2ae41854b81","58046770-4c03-4bc2-b4bc-e7359011db5d","","null","<div style=""display: flex; justify-content: center; align-items: center;"">
                <img src=""images/causal/causal_series_16/causal_series_16_a.jpg"" style=""width: 300px; height: 300px;"" />
              </div>","null",""
"","","","","","html-keyboard-response","48","611352","0.0-48.0","B73C6479BA694B2481EF0BFDC5B151D9","4630e93a-000a-4e32-a9a2-a2ae41854b81","58046770-4c03-4bc2-b4bc-e7359011db5d","","null","<div style=""display: flex; justify-content: center; align-items: center;"">
                <img src=""images/causal/causal_series_16/causal_series_16_b.jpg"" style=""width: 300px; height: 300px;"" />
              </div>","null",""
"","","","","","html-keyboard-response","49","614366","0.0-49.0","B73C6479BA694B2481EF0BFDC5B151D9","4630e93a-000a-4e32-a9a2-a2ae41854b81","58046770-4c03-4bc2-b4bc-e7359011db5d","","null","<div style=""display: flex; justify-content: center; align-items: center;"">
                <img src=""images/causal/causal_series_16/causal_series_16_c.jpg"" style=""width: 300px; height: 300px;"" />
              </div>","null",""
"","","","","","html-button-response","50","619814","0.0-50.0","B73C6479BA694B2481EF0BFDC5B151D9","4630e93a-000a-4e32-a9a2-a2ae41854b81","58046770-4c03-4bc2-b4bc-e7359011db5d","","5447","
    <div style=""display: flex; justify-content: center; align-items: center;"">
      <img src=""images/red_deck_2.png"" style=""width: 300px; height: 300px; margin-right: 10px;"" />
      <img src=""images/blue_deck_1.png"" style=""width: 300px; height: 300px;"" />
    </div>","1","1"
"","","","","","html-keyboard-response","51","622816","0.0-51.0-1.0-0.0","B73C6479BA694B2481EF0BFDC5B151D9","4630e93a-000a-4e32-a9a2-a2ae41854b81","58046770-4c03-4bc2-b4bc-e7359011db5d","","null","<div style=""display: flex; justify-content: center; align-items: center;"">
                <img src=""images/semantic/semantic_series_15/semantic_series_15_d.jpg"" style=""width: 300px; height: 300px;"" />
              </div>","null",""
"","","","","","html-keyboard-response","52","625822","0.0-52.0","B73C6479BA694B2481EF0BFDC5B151D9","4630e93a-000a-4e32-a9a2-a2ae41854b81","58046770-4c03-4bc2-b4bc-e7359011db5d","","null","<div style=""display: flex; justify-content: center; align-items: center;"">
                <img src=""images/other/blank.jpg"" style=""width: 300px; height: 300px;"" />
              </div>","null",""
"","","","","","html-keyboard-response","53","628829","0.0-53.0","B73C6479BA694B2481EF0BFDC5B151D9","4630e93a-000a-4e32-a9a2-a2ae41854b81","58046770-4c03-4bc2-b4bc-e7359011db5d","","null","<div style=""display: flex; justify-content: center; align-items: center;"">
                <img src=""images/causal/causal_series_5/causal_series_5_a.jpg"" style=""width: 300px; height: 300px;"" />
              </div>","null",""
"","","","","","html-keyboard-response","54","631845","0.0-54.0","B73C6479BA694B2481EF0BFDC5B151D9","4630e93a-000a-4e32-a9a2-a2ae41854b81","58046770-4c03-4bc2-b4bc-e7359011db5d","","null","<div style=""display: flex; justify-content: center; align-items: center;"">
                <img src=""images/causal/causal_series_5/causal_series_5_b.jpg"" style=""width: 300px; height: 300px;"" />
              </div>","null",""
"","","","","","html-keyboard-response","55","634857","0.0-55.0","B73C6479BA694B2481EF0BFDC5B151D9","4630e93a-000a-4e32-a9a2-a2ae41854b81","58046770-4c03-4bc2-b4bc-e7359011db5d","","null","<div style=""display: flex; justify-content: center; align-items: center;"">
                <img src=""images/causal/causal_series_5/causal_series_5_c.jpg"" style=""width: 300px; height: 300px;"" />
              </div>","null",""
"","","","","","html-button-response","56","640333","0.0-56.0","B73C6479BA694B2481EF0BFDC5B151D9","4630e93a-000a-4e32-a9a2-a2ae41854b81","58046770-4c03-4bc2-b4bc-e7359011db5d","","5475","
    <div style=""display: flex; justify-content: center; align-items: center;"">
      <img src=""images/red_deck_2.png"" style=""width: 300px; height: 300px; margin-right: 10px;"" />
      <img src=""images/blue_deck_1.png"" style=""width: 300px; height: 300px;"" />
    </div>","1","1"
"","","","","","html-keyboard-response","57","643343","0.0-57.0-1.0-0.0","B73C6479BA694B2481EF0BFDC5B151D9","4630e93a-000a-4e32-a9a2-a2ae41854b81","58046770-4c03-4bc2-b4bc-e7359011db5d","","null","<div style=""display: flex; justify-content: center; align-items: center;"">
                <img src=""images/semantic/semantic_series_4/semantic_series_4_d.jpg"" style=""width: 300px; height: 300px;"" />
              </div>","null",""
"","","","","","html-keyboard-response","58","646358","0.0-58.0","B73C6479BA694B2481EF0BFDC5B151D9","4630e93a-000a-4e32-a9a2-a2ae41854b81","58046770-4c03-4bc2-b4bc-e7359011db5d","","null","<div style=""display: flex; justify-content: center; align-items: center;"">
                <img src=""images/other/blank.jpg"" style=""width: 300px; height: 300px;"" />
              </div>","null",""
"","","","","","html-keyboard-response","59","649372","0.0-59.0","B73C6479BA694B2481EF0BFDC5B151D9","4630e93a-000a-4e32-a9a2-a2ae41854b81","58046770-4c03-4bc2-b4bc-e7359011db5d","","null","<div style=""display: flex; justify-content: center; align-items: center;"">
                <img src=""images/causal/causal_series_17/causal_series_17_a.jpg"" style=""width: 300px; height: 300px;"" />
              </div>","null",""
"","","","","","html-keyboard-response","60","652386","0.0-60.0","B73C6479BA694B2481EF0BFDC5B151D9","4630e93a-000a-4e32-a9a2-a2ae41854b81","58046770-4c03-4bc2-b4bc-e7359011db5d","","null","<div style=""display: flex; justify-content: center; align-items: center;"">
                <img src=""images/causal/causal_series_17/causal_series_17_b.jpg"" style=""width: 300px; height: 300px;"" />
              </div>","null",""
"","","","","","html-keyboard-response","61","655402","0.0-61.0","B73C6479BA694B2481EF0BFDC5B151D9","4630e93a-000a-4e32-a9a2-a2ae41854b81","58046770-4c03-4bc2-b4bc-e7359011db5d","","null","<div style=""display: flex; justify-content: center; align-items: center;"">
                <img src=""images/causal/causal_series_17/causal_series_17_c.jpg"" style=""width: 300px; height: 300px;"" />
              </div>","null",""
"","","","","","html-button-response","62","657444","0.0-62.0","B73C6479BA694B2481EF0BFDC5B151D9","4630e93a-000a-4e32-a9a2-a2ae41854b81","58046770-4c03-4bc2-b4bc-e7359011db5d","","2042","
    <div style=""display: flex; justify-content: center; align-items: center;"">
      <img src=""images/red_deck_2.png"" style=""width: 300px; height: 300px; margin-right: 10px;"" />
      <img src=""images/blue_deck_1.png"" style=""width: 300px; height: 300px;"" />
    </div>","1","1"
"","","","","","html-keyboard-response","63","660451","0.0-63.0-1.0-0.0","B73C6479BA694B2481EF0BFDC5B151D9","4630e93a-000a-4e32-a9a2-a2ae41854b81","58046770-4c03-4bc2-b4bc-e7359011db5d","","null","<div style=""display: flex; justify-content: center; align-items: center;"">
                <img src=""images/semantic/semantic_series_16/semantic_series_16_d.jpg"" style=""width: 300px; height: 300px;"" />
              </div>","null",""
"","","","","","html-keyboard-response","64","663457","0.0-64.0","B73C6479BA694B2481EF0BFDC5B151D9","4630e93a-000a-4e32-a9a2-a2ae41854b81","58046770-4c03-4bc2-b4bc-e7359011db5d","","null","<div style=""display: flex; justify-content: center; align-items: center;"">
                <img src=""images/other/blank.jpg"" style=""width: 300px; height: 300px;"" />
              </div>","null",""
"","","","","","html-keyboard-response","65","666470","0.0-65.0","B73C6479BA694B2481EF0BFDC5B151D9","4630e93a-000a-4e32-a9a2-a2ae41854b81","58046770-4c03-4bc2-b4bc-e7359011db5d","","null","<div style=""display: flex; justify-content: center; align-items: center;"">
                <img src=""images/causal/causal_series_10/causal_series_10_a.jpg"" style=""width: 300px; height: 300px;"" />
              </div>","null",""
"","","","","","html-keyboard-response","66","669474","0.0-66.0","B73C6479BA694B2481EF0BFDC5B151D9","4630e93a-000a-4e32-a9a2-a2ae41854b81","58046770-4c03-4bc2-b4bc-e7359011db5d","","null","<div style=""display: flex; justify-content: center; align-items: center;"">
                <img src=""images/causal/causal_series_10/causal_series_10_b.jpg"" style=""width: 300px; height: 300px;"" />
              </div>","null",""
"","","","","","html-keyboard-response","67","672477","0.0-67.0","B73C6479BA694B2481EF0BFDC5B151D9","4630e93a-000a-4e32-a9a2-a2ae41854b81","58046770-4c03-4bc2-b4bc-e7359011db5d","","null","<div style=""display: flex; justify-content: center; align-items: center;"">
                <img src=""images/causal/causal_series_10/causal_series_10_c.jpg"" style=""width: 300px; height: 300px;"" />
              </div>","null",""
"","","","","","html-button-response","68","673263","0.0-68.0","B73C6479BA694B2481EF0BFDC5B151D9","4630e93a-000a-4e32-a9a2-a2ae41854b81","58046770-4c03-4bc2-b4bc-e7359011db5d","","784","
    <div style=""display: flex; justify-content: center; align-items: center;"">
      <img src=""images/red_deck_2.png"" style=""width: 300px; height: 300px; margin-right: 10px;"" />
      <img src=""images/blue_deck_1.png"" style=""width: 300px; height: 300px;"" />
    </div>","0","0"
"","","","","","html-keyboard-response","69","676279","0.0-69.0-0.0-0.0","B73C6479BA694B2481EF0BFDC5B151D9","4630e93a-000a-4e32-a9a2-a2ae41854b81","58046770-4c03-4bc2-b4bc-e7359011db5d","","null","<div style=""display: flex; justify-content: center; align-items: center;"">
                <img src=""images/causal/causal_series_10/causal_series_10_d.jpg"" style=""width: 300px; height: 300px;"" />
              </div>","null",""
"","","","","","html-keyboard-response","70","679286","0.0-70.0","B73C6479BA694B2481EF0BFDC5B151D9","4630e93a-000a-4e32-a9a2-a2ae41854b81","58046770-4c03-4bc2-b4bc-e7359011db5d","","null","<div style=""display: flex; justify-content: center; align-items: center;"">
                <img src=""images/other/blank.jpg"" style=""width: 300px; height: 300px;"" />
              </div>","null",""
"","","","","","html-keyboard-response","71","682291","0.0-71.0","B73C6479BA694B2481EF0BFDC5B151D9","4630e93a-000a-4e32-a9a2-a2ae41854b81","58046770-4c03-4bc2-b4bc-e7359011db5d","","null","<div style=""display: flex; justify-content: center; align-items: center;"">
                <img src=""images/causal/causal_series_9/causal_series_9_a.jpg"" style=""width: 300px; height: 300px;"" />
              </div>","null",""
"","","","","","html-keyboard-response","72","685305","0.0-72.0","B73C6479BA694B2481EF0BFDC5B151D9","4630e93a-000a-4e32-a9a2-a2ae41854b81","58046770-4c03-4bc2-b4bc-e7359011db5d","","null","<div style=""display: flex; justify-content: center; align-items: center;"">
                <img src=""images/causal/causal_series_9/causal_series_9_b.jpg"" style=""width: 300px; height: 300px;"" />
              </div>","null",""
"","","","","","html-keyboard-response","73","688322","0.0-73.0","B73C6479BA694B2481EF0BFDC5B151D9","4630e93a-000a-4e32-a9a2-a2ae41854b81","58046770-4c03-4bc2-b4bc-e7359011db5d","","null","<div style=""display: flex; justify-content: center; align-items: center;"">
                <img src=""images/causal/causal_series_9/causal_series_9_c.jpg"" style=""width: 300px; height: 300px;"" />
              </div>","null",""
"","","","","","html-button-response","74","689132","0.0-74.0","B73C6479BA694B2481EF0BFDC5B151D9","4630e93a-000a-4e32-a9a2-a2ae41854b81","58046770-4c03-4bc2-b4bc-e7359011db5d","","808","
    <div style=""display: flex; justify-content: center; align-items: center;"">
      <img src=""images/red_deck_2.png"" style=""width: 300px; height: 300px; margin-right: 10px;"" />
      <img src=""images/blue_deck_1.png"" style=""width: 300px; height: 300px;"" />
    </div>","0","0"
"","","","","","html-keyboard-response","75","692136","0.0-75.0-0.0-0.0","B73C6479BA694B2481EF0BFDC5B151D9","4630e93a-000a-4e32-a9a2-a2ae41854b81","58046770-4c03-4bc2-b4bc-e7359011db5d","","null","<div style=""display: flex; justify-content: center; align-items: center;"">
                <img src=""images/causal/causal_series_9/causal_series_9_d.jpg"" style=""width: 300px; height: 300px;"" />
              </div>","null",""
"","","","","","html-keyboard-response","76","695142","0.0-76.0","B73C6479BA694B2481EF0BFDC5B151D9","4630e93a-000a-4e32-a9a2-a2ae41854b81","58046770-4c03-4bc2-b4bc-e7359011db5d","","null","<div style=""display: flex; justify-content: center; align-items: center;"">
                <img src=""images/other/blank.jpg"" style=""width: 300px; height: 300px;"" />
              </div>","null",""
"","","","","","html-keyboard-response","77","698143","0.0-77.0","B73C6479BA694B2481EF0BFDC5B151D9","4630e93a-000a-4e32-a9a2-a2ae41854b81","58046770-4c03-4bc2-b4bc-e7359011db5d","","null","<div style=""display: flex; justify-content: center; align-items: center;"">
                <img src=""images/causal/causal_series_1/causal_series_1_a.jpg"" style=""width: 300px; height: 300px;"" />
              </div>","null",""
"","","","","","html-keyboard-response","78","701159","0.0-78.0","B73C6479BA694B2481EF0BFDC5B151D9","4630e93a-000a-4e32-a9a2-a2ae41854b81","58046770-4c03-4bc2-b4bc-e7359011db5d","","null","<div style=""display: flex; justify-content: center; align-items: center;"">
                <img src=""images/causal/causal_series_1/causal_series_1_b.jpg"" style=""width: 300px; height: 300px;"" />
              </div>","null",""
"","","","","","html-keyboard-response","79","704170","0.0-79.0","B73C6479BA694B2481EF0BFDC5B151D9","4630e93a-000a-4e32-a9a2-a2ae41854b81","58046770-4c03-4bc2-b4bc-e7359011db5d","","null","<div style=""display: flex; justify-content: center; align-items: center;"">
                <img src=""images/causal/causal_series_1/causal_series_1_c.jpg"" style=""width: 300px; height: 300px;"" />
              </div>","null",""
"","","","","","html-button-response","80","705764","0.0-80.0","B73C6479BA694B2481EF0BFDC5B151D9","4630e93a-000a-4e32-a9a2-a2ae41854b81","58046770-4c03-4bc2-b4bc-e7359011db5d","","1593","
    <div style=""display: flex; justify-content: center; align-items: center;"">
      <img src=""images/red_deck_2.png"" style=""width: 300px; height: 300px; margin-right: 10px;"" />
      <img src=""images/blue_deck_1.png"" style=""width: 300px; height: 300px;"" />
    </div>","1","1"
"","","","","","html-keyboard-response","81","708780","0.0-81.0-1.0-0.0","B73C6479BA694B2481EF0BFDC5B151D9","4630e93a-000a-4e32-a9a2-a2ae41854b81","58046770-4c03-4bc2-b4bc-e7359011db5d","","null","<div style=""display: flex; justify-content: center; align-items: center;"">
                <img src=""images/semantic/semantic_series_18/semantic_series_18_d.jpg"" style=""width: 300px; height: 300px;"" />
              </div>","null",""
"","","","","","html-keyboard-response","82","711794","0.0-82.0","B73C6479BA694B2481EF0BFDC5B151D9","4630e93a-000a-4e32-a9a2-a2ae41854b81","58046770-4c03-4bc2-b4bc-e7359011db5d","","null","<div style=""display: flex; justify-content: center; align-items: center;"">
                <img src=""images/other/blank.jpg"" style=""width: 300px; height: 300px;"" />
              </div>","null",""
"","","","","","html-keyboard-response","83","714797","0.0-83.0","B73C6479BA694B2481EF0BFDC5B151D9","4630e93a-000a-4e32-a9a2-a2ae41854b81","58046770-4c03-4bc2-b4bc-e7359011db5d","","null","<div style=""display: flex; justify-content: center; align-items: center;"">
                <img src=""images/causal/causal_series_8/causal_series_8_a.jpg"" style=""width: 300px; height: 300px;"" />
              </div>","null",""
"","","","","","html-keyboard-response","84","717812","0.0-84.0","B73C6479BA694B2481EF0BFDC5B151D9","4630e93a-000a-4e32-a9a2-a2ae41854b81","58046770-4c03-4bc2-b4bc-e7359011db5d","","null","<div style=""display: flex; justify-content: center; align-items: center;"">
                <img src=""images/causal/causal_series_8/causal_series_8_b.jpg"" style=""width: 300px; height: 300px;"" />
              </div>","null",""
"","","","","","html-keyboard-response","85","720822","0.0-85.0","B73C6479BA694B2481EF0BFDC5B151D9","4630e93a-000a-4e32-a9a2-a2ae41854b81","58046770-4c03-4bc2-b4bc-e7359011db5d","","null","<div style=""display: flex; justify-content: center; align-items: center;"">
                <img src=""images/causal/causal_series_8/causal_series_8_c.jpg"" style=""width: 300px; height: 300px;"" />
              </div>","null",""
"","","","","","html-button-response","86","721871","0.0-86.0","B73C6479BA694B2481EF0BFDC5B151D9","4630e93a-000a-4e32-a9a2-a2ae41854b81","58046770-4c03-4bc2-b4bc-e7359011db5d","","1048","
    <div style=""display: flex; justify-content: center; align-items: center;"">
      <img src=""images/red_deck_2.png"" style=""width: 300px; height: 300px; margin-right: 10px;"" />
      <img src=""images/blue_deck_1.png"" style=""width: 300px; height: 300px;"" />
    </div>","0","0"
"","","","","","html-keyboard-response","87","724885","0.0-87.0-0.0-0.0","B73C6479BA694B2481EF0BFDC5B151D9","4630e93a-000a-4e32-a9a2-a2ae41854b81","58046770-4c03-4bc2-b4bc-e7359011db5d","","null","<div style=""display: flex; justify-content: center; align-items: center;"">
                <img src=""images/causal/causal_series_8/causal_series_8_d.jpg"" style=""width: 300px; height: 300px;"" />
              </div>","null",""
"","","","","","html-keyboard-response","88","727900","0.0-88.0","B73C6479BA694B2481EF0BFDC5B151D9","4630e93a-000a-4e32-a9a2-a2ae41854b81","58046770-4c03-4bc2-b4bc-e7359011db5d","","null","<div style=""display: flex; justify-content: center; align-items: center;"">
                <img src=""images/other/blank.jpg"" style=""width: 300px; height: 300px;"" />
              </div>","null",""
"","","","","","html-keyboard-response","89","730904","0.0-89.0","B73C6479BA694B2481EF0BFDC5B151D9","4630e93a-000a-4e32-a9a2-a2ae41854b81","58046770-4c03-4bc2-b4bc-e7359011db5d","","null","<div style=""display: flex; justify-content: center; align-items: center;"">
                <img src=""images/causal/causal_series_7/causal_series_7_a.jpg"" style=""width: 300px; height: 300px;"" />
              </div>","null",""
"","","","","","html-keyboard-response","90","733921","0.0-90.0","B73C6479BA694B2481EF0BFDC5B151D9","4630e93a-000a-4e32-a9a2-a2ae41854b81","58046770-4c03-4bc2-b4bc-e7359011db5d","","null","<div style=""display: flex; justify-content: center; align-items: center;"">
                <img src=""images/causal/causal_series_7/causal_series_7_b.jpg"" style=""width: 300px; height: 300px;"" />
              </div>","null",""
"","","","","","html-keyboard-response","91","736925","0.0-91.0","B73C6479BA694B2481EF0BFDC5B151D9","4630e93a-000a-4e32-a9a2-a2ae41854b81","58046770-4c03-4bc2-b4bc-e7359011db5d","","null","<div style=""display: flex; justify-content: center; align-items: center;"">
                <img src=""images/causal/causal_series_7/causal_series_7_c.jpg"" style=""width: 300px; height: 300px;"" />
              </div>","null",""
"","","","","","html-button-response","92","1086465","0.0-92.0","B73C6479BA694B2481EF0BFDC5B151D9","4630e93a-000a-4e32-a9a2-a2ae41854b81","58046770-4c03-4bc2-b4bc-e7359011db5d","","349542","
    <div style=""display: flex; justify-content: center; align-items: center;"">
      <img src=""images/red_deck_2.png"" style=""width: 300px; height: 300px; margin-right: 10px;"" />
      <img src=""images/blue_deck_1.png"" style=""width: 300px; height: 300px;"" />
    </div>","0","0"
"","","","","","html-keyboard-response","93","1089472","0.0-93.0-0.0-0.0","B73C6479BA694B2481EF0BFDC5B151D9","4630e93a-000a-4e32-a9a2-a2ae41854b81","58046770-4c03-4bc2-b4bc-e7359011db5d","","null","<div style=""display: flex; justify-content: center; align-items: center;"">
                <img src=""images/causal/causal_series_7/causal_series_7_d.jpg"" style=""width: 300px; height: 300px;"" />
              </div>","null",""
"","","","","","html-keyboard-response","94","1092476","0.0-94.0","B73C6479BA694B2481EF0BFDC5B151D9","4630e93a-000a-4e32-a9a2-a2ae41854b81","58046770-4c03-4bc2-b4bc-e7359011db5d","","null","<div style=""display: flex; justify-content: center; align-items: center;"">
                <img src=""images/other/blank.jpg"" style=""width: 300px; height: 300px;"" />
              </div>","null",""
"","","","","","html-keyboard-response","95","1095488","0.0-95.0","B73C6479BA694B2481EF0BFDC5B151D9","4630e93a-000a-4e32-a9a2-a2ae41854b81","58046770-4c03-4bc2-b4bc-e7359011db5d","","null","<div style=""display: flex; justify-content: center; align-items: center;"">
                <img src=""images/causal/causal_series_18/causal_series_18_a.jpg"" style=""width: 300px; height: 300px;"" />
              </div>","null",""
"","","","","","html-keyboard-response","96","1098492","0.0-96.0","B73C6479BA694B2481EF0BFDC5B151D9","4630e93a-000a-4e32-a9a2-a2ae41854b81","58046770-4c03-4bc2-b4bc-e7359011db5d","","null","<div style=""display: flex; justify-content: center; align-items: center;"">
                <img src=""images/causal/causal_series_18/causal_series_18_b.jpg"" style=""width: 300px; height: 300px;"" />
              </div>","null",""
"","","","","","html-keyboard-response","97","1101504","0.0-97.0","B73C6479BA694B2481EF0BFDC5B151D9","4630e93a-000a-4e32-a9a2-a2ae41854b81","58046770-4c03-4bc2-b4bc-e7359011db5d","","null","<div style=""display: flex; justify-content: center; align-items: center;"">
                <img src=""images/causal/causal_series_18/causal_series_18_c.jpg"" style=""width: 300px; height: 300px;"" />
              </div>","null",""
"","","","","","html-button-response","98","1132845","0.0-98.0","B73C6479BA694B2481EF0BFDC5B151D9","4630e93a-000a-4e32-a9a2-a2ae41854b81","58046770-4c03-4bc2-b4bc-e7359011db5d","","31340","
    <div style=""display: flex; justify-content: center; align-items: center;"">
      <img src=""images/red_deck_2.png"" style=""width: 300px; height: 300px; margin-right: 10px;"" />
      <img src=""images/blue_deck_1.png"" style=""width: 300px; height: 300px;"" />
    </div>","0","0"
"","","","","","html-keyboard-response","99","1135848","0.0-99.0-0.0-0.0","B73C6479BA694B2481EF0BFDC5B151D9","4630e93a-000a-4e32-a9a2-a2ae41854b81","58046770-4c03-4bc2-b4bc-e7359011db5d","","null","<div style=""display: flex; justify-content: center; align-items: center;"">
                <img src=""images/causal/causal_series_18/causal_series_18_d.jpg"" style=""width: 300px; height: 300px;"" />
              </div>","null",""
"","","","","","html-keyboard-response","100","1138865","0.0-100.0","B73C6479BA694B2481EF0BFDC5B151D9","4630e93a-000a-4e32-a9a2-a2ae41854b81","58046770-4c03-4bc2-b4bc-e7359011db5d","","null","<div style=""display: flex; justify-content: center; align-items: center;"">
                <img src=""images/other/blank.jpg"" style=""width: 300px; height: 300px;"" />
              </div>","null",""
"","","","","","html-keyboard-response","101","1141877","0.0-101.0","B73C6479BA694B2481EF0BFDC5B151D9","4630e93a-000a-4e32-a9a2-a2ae41854b81","58046770-4c03-4bc2-b4bc-e7359011db5d","","null","<div style=""display: flex; justify-content: center; align-items: center;"">
                <img src=""images/causal/causal_series_14/causal_series_14_a.jpg"" style=""width: 300px; height: 300px;"" />
              </div>","null",""
"","","","","","html-keyboard-response","102","1144883","0.0-102.0","B73C6479BA694B2481EF0BFDC5B151D9","4630e93a-000a-4e32-a9a2-a2ae41854b81","58046770-4c03-4bc2-b4bc-e7359011db5d","","null","<div style=""display: flex; justify-content: center; align-items: center;"">
                <img src=""images/causal/causal_series_14/causal_series_14_b.jpg"" style=""width: 300px; height: 300px;"" />
              </div>","null",""
"","","","","","html-keyboard-response","103","1147886","0.0-103.0","B73C6479BA694B2481EF0BFDC5B151D9","4630e93a-000a-4e32-a9a2-a2ae41854b81","58046770-4c03-4bc2-b4bc-e7359011db5d","","null","<div style=""display: flex; justify-content: center; align-items: center;"">
                <img src=""images/causal/causal_series_14/causal_series_14_c.jpg"" style=""width: 300px; height: 300px;"" />
              </div>","null",""
"","","","","","html-button-response","104","1150410","0.0-104.0","B73C6479BA694B2481EF0BFDC5B151D9","4630e93a-000a-4e32-a9a2-a2ae41854b81","58046770-4c03-4bc2-b4bc-e7359011db5d","","2522","
    <div style=""display: flex; justify-content: center; align-items: center;"">
      <img src=""images/red_deck_2.png"" style=""width: 300px; height: 300px; margin-right: 10px;"" />
      <img src=""images/blue_deck_1.png"" style=""width: 300px; height: 300px;"" />
    </div>","0","0"
"","","","","","html-keyboard-response","105","1153414","0.0-105.0-0.0-0.0","B73C6479BA694B2481EF0BFDC5B151D9","4630e93a-000a-4e32-a9a2-a2ae41854b81","58046770-4c03-4bc2-b4bc-e7359011db5d","","null","<div style=""display: flex; justify-content: center; align-items: center;"">
                <img src=""images/causal/causal_series_14/causal_series_14_d.jpg"" style=""width: 300px; height: 300px;"" />
              </div>","null",""
"","","","","","html-keyboard-response","106","1156424","0.0-106.0","B73C6479BA694B2481EF0BFDC5B151D9","4630e93a-000a-4e32-a9a2-a2ae41854b81","58046770-4c03-4bc2-b4bc-e7359011db5d","","null","<div style=""display: flex; justify-content: center; align-items: center;"">
                <img src=""images/other/blank.jpg"" style=""width: 300px; height: 300px;"" />
              </div>","null",""
"","","","","","html-keyboard-response","107","1159433","0.0-107.0","B73C6479BA694B2481EF0BFDC5B151D9","4630e93a-000a-4e32-a9a2-a2ae41854b81","58046770-4c03-4bc2-b4bc-e7359011db5d","","null","<div style=""display: flex; justify-content: center; align-items: center;"">
                <img src=""images/causal/causal_series_13/causal_series_13_a.jpg"" style=""width: 300px; height: 300px;"" />
              </div>","null",""
"","","","","","html-keyboard-response","108","1162457","0.0-108.0","B73C6479BA694B2481EF0BFDC5B151D9","4630e93a-000a-4e32-a9a2-a2ae41854b81","58046770-4c03-4bc2-b4bc-e7359011db5d","","null","<div style=""display: flex; justify-content: center; align-items: center;"">
                <img src=""images/causal/causal_series_13/causal_series_13_b.jpg"" style=""width: 300px; height: 300px;"" />
              </div>","null",""
"","","","","","html-keyboard-response","109","1165467","0.0-109.0","B73C6479BA694B2481EF0BFDC5B151D9","4630e93a-000a-4e32-a9a2-a2ae41854b81","58046770-4c03-4bc2-b4bc-e7359011db5d","","null","<div style=""display: flex; justify-content: center; align-items: center;"">
                <img src=""images/causal/causal_series_13/causal_series_13_c.jpg"" style=""width: 300px; height: 300px;"" />
              </div>","null",""
"","","","","","html-button-response","110","1184516","0.0-110.0","B73C6479BA694B2481EF0BFDC5B151D9","4630e93a-000a-4e32-a9a2-a2ae41854b81","58046770-4c03-4bc2-b4bc-e7359011db5d","","19049","
    <div style=""display: flex; justify-content: center; align-items: center;"">
      <img src=""images/red_deck_2.png"" style=""width: 300px; height: 300px; margin-right: 10px;"" />
      <img src=""images/blue_deck_1.png"" style=""width: 300px; height: 300px;"" />
    </div>","0","0"
"","","","","","html-keyboard-response","111","1187526","0.0-111.0-0.0-0.0","B73C6479BA694B2481EF0BFDC5B151D9","4630e93a-000a-4e32-a9a2-a2ae41854b81","58046770-4c03-4bc2-b4bc-e7359011db5d","","null","<div style=""display: flex; justify-content: center; align-items: center;"">
                <img src=""images/causal/causal_series_13/causal_series_13_d.jpg"" style=""width: 300px; height: 300px;"" />
              </div>","null",""
"","","","","","html-keyboard-response","112","1190537","0.0-112.0","B73C6479BA694B2481EF0BFDC5B151D9","4630e93a-000a-4e32-a9a2-a2ae41854b81","58046770-4c03-4bc2-b4bc-e7359011db5d","","null","<div style=""display: flex; justify-content: center; align-items: center;"">
                <img src=""images/other/blank.jpg"" style=""width: 300px; height: 300px;"" />
              </div>","null",""
"","","","","","survey-text","113","1234253","0.0-113.0","B73C6479BA694B2481EF0BFDC5B151D9","4630e93a-000a-4e32-a9a2-a2ae41854b81","58046770-4c03-4bc2-b4bc-e7359011db5d","","43709","","{""Q0"":""both red and blus desk describe the all instructions and emotions convey to the what actually ahppened""}",""
"","","","","","survey-text","114","1240114","0.0-114.0","B73C6479BA694B2481EF0BFDC5B151D9","4630e93a-000a-4e32-a9a2-a2ae41854b81","58046770-4c03-4bc2-b4bc-e7359011db5d","","5845","","{""Q0"":""red""}",""
"","","","","","html-button-response","115","1241363","0.0-115.0","B73C6479BA694B2481EF0BFDC5B151D9","4630e93a-000a-4e32-a9a2-a2ae41854b81","58046770-4c03-4bc2-b4bc-e7359011db5d","","1248","Which color deck does the fourth image continue the story from the series?","0",""
"","","","","","html-button-response","116","1242078","0.0-116.0","B73C6479BA694B2481EF0BFDC5B151D9","4630e93a-000a-4e32-a9a2-a2ae41854b81","58046770-4c03-4bc2-b4bc-e7359011db5d","","714","Which color deck does the fourth image not follow the story from the series?","1",""
"","","","","","survey-text","117","1250331","0.0-117.0","B73C6479BA694B2481EF0BFDC5B151D9","4630e93a-000a-4e32-a9a2-a2ae41854b81","58046770-4c03-4bc2-b4bc-e7359011db5d","","8243","","{""Q0"":""male"",""Q1"":""19""}",""
"","","","","","instructions","118","1260016","0.0-118.0","B73C6479BA694B2481EF0BFDC5B151D9","4630e93a-000a-4e32-a9a2-a2ae41854b81","58046770-4c03-4bc2-b4bc-e7359011db5d","[{""page_index"":0,""viewing_time"":9684}]","9685","","",""
