"success","timeout","failed_images","failed_audio","failed_video","trial_type","trial_index","time_elapsed","internal_node_id","subject_id","study_id","session_id","view_history","rt","stimulus","response","choice"
"true","false","[]","[]","[]","preload","0","5932","0.0-0.0","9A86A88B229145CA9943EAA00F48703F","7a1ceed3-d152-4367-9455-9a05601054e4","7c9f784d-5202-4c36-a6e2-1fcf7bf41701","","","","",""
"","","","","","instructions","1","11852","0.0-1.0","9A86A88B229145CA9943EAA00F48703F","7a1ceed3-d152-4367-9455-9a05601054e4","7c9f784d-5202-4c36-a6e2-1fcf7bf41701","[{""page_index"":0,""viewing_time"":5918}]","5919","","",""
"","","","","","instructions","2","15550","0.0-2.0","9A86A88B229145CA9943EAA00F48703F","7a1ceed3-d152-4367-9455-9a05601054e4","7c9f784d-5202-4c36-a6e2-1fcf7bf41701","[{""page_index"":0,""viewing_time"":3698}]","3698","","",""
"true","","","","","fullscreen","3","19201","0.0-3.0","9A86A88B229145CA9943EAA00F48703F","7a1ceed3-d152-4367-9455-9a05601054e4","7c9f784d-5202-4c36-a6e2-1fcf7bf41701","","2634","","",""
"","","","","","instructions","4","76592","0.0-4.0","9A86A88B229145CA9943EAA00F48703F","7a1ceed3-d152-4367-9455-9a05601054e4","7c9f784d-5202-4c36-a6e2-1fcf7bf41701","[{""page_index"":0,""viewing_time"":57391}]","57391","","",""
"","","","","","html-keyboard-response","5","79597","0.0-5.0","9A86A88B229145CA9943EAA00F48703F","7a1ceed3-d152-4367-9455-9a05601054e4","7c9f784d-5202-4c36-a6e2-1fcf7bf41701","","null","<div style=""display: flex; justify-content: center; align-items: center;"">
                <img src=""images/causal/causal_series_1/causal_series_1_a.jpg"" style=""width: 300px; height: 300px;"" />
              </div>","null",""
"","","","","","html-keyboard-response","6","82612","0.0-6.0","9A86A88B229145CA9943EAA00F48703F","7a1ceed3-d152-4367-9455-9a05601054e4","7c9f784d-5202-4c36-a6e2-1fcf7bf41701","","null","<div style=""display: flex; justify-content: center; align-items: center;"">
                <img src=""images/causal/causal_series_1/causal_series_1_b.jpg"" style=""width: 300px; height: 300px;"" />
              </div>","null",""
"","","","","","html-keyboard-response","7","85626","0.0-7.0","9A86A88B229145CA9943EAA00F48703F","7a1ceed3-d152-4367-9455-9a05601054e4","7c9f784d-5202-4c36-a6e2-1fcf7bf41701","","null","<div style=""display: flex; justify-content: center; align-items: center;"">
                <img src=""images/causal/causal_series_1/causal_series_1_c.jpg"" style=""width: 300px; height: 300px;"" />
              </div>","null",""
"","","","","","html-button-response","8","89387","0.0-8.0","9A86A88B229145CA9943EAA00F48703F","7a1ceed3-d152-4367-9455-9a05601054e4","7c9f784d-5202-4c36-a6e2-1fcf7bf41701","","3760","
    <div style=""display: flex; justify-content: center; align-items: center;"">
      <img src=""images/blue_deck_1.png"" style=""width: 300px; height: 300px; margin-right: 10px;"" />
      <img src=""images/red_deck_2.png"" style=""width: 300px; height: 300px;"" />
    </div>","0","0"
"","","","","","html-keyboard-response","9","92394","0.0-9.0-0.0-0.0","9A86A88B229145CA9943EAA00F48703F","7a1ceed3-d152-4367-9455-9a05601054e4","7c9f784d-5202-4c36-a6e2-1fcf7bf41701","","null","<div style=""display: flex; justify-content: center; align-items: center;"">
                <img src=""images/causal/causal_series_1/causal_series_1_d.jpg"" style=""width: 300px; height: 300px;"" />
              </div>","null",""
"","","","","","html-keyboard-response","10","95405","0.0-10.0","9A86A88B229145CA9943EAA00F48703F","7a1ceed3-d152-4367-9455-9a05601054e4","7c9f784d-5202-4c36-a6e2-1fcf7bf41701","","null","<div style=""display: flex; justify-content: center; align-items: center;"">
                <img src=""images/other/blank.jpg"" style=""width: 300px; height: 300px;"" />
              </div>","null",""
"","","","","","html-keyboard-response","11","98419","0.0-11.0","9A86A88B229145CA9943EAA00F48703F","7a1ceed3-d152-4367-9455-9a05601054e4","7c9f784d-5202-4c36-a6e2-1fcf7bf41701","","null","<div style=""display: flex; justify-content: center; align-items: center;"">
                <img src=""images/causal/causal_series_13/causal_series_13_a.jpg"" style=""width: 300px; height: 300px;"" />
              </div>","null",""
"","","","","","html-keyboard-response","12","101426","0.0-12.0","9A86A88B229145CA9943EAA00F48703F","7a1ceed3-d152-4367-9455-9a05601054e4","7c9f784d-5202-4c36-a6e2-1fcf7bf41701","","null","<div style=""display: flex; justify-content: center; align-items: center;"">
                <img src=""images/causal/causal_series_13/causal_series_13_b.jpg"" style=""width: 300px; height: 300px;"" />
              </div>","null",""
"","","","","","html-keyboard-response","13","104431","0.0-13.0","9A86A88B229145CA9943EAA00F48703F","7a1ceed3-d152-4367-9455-9a05601054e4","7c9f784d-5202-4c36-a6e2-1fcf7bf41701","","null","<div style=""display: flex; justify-content: center; align-items: center;"">
                <img src=""images/causal/causal_series_13/causal_series_13_c.jpg"" style=""width: 300px; height: 300px;"" />
              </div>","null",""
"","","","","","html-button-response","14","105318","0.0-14.0","9A86A88B229145CA9943EAA00F48703F","7a1ceed3-d152-4367-9455-9a05601054e4","7c9f784d-5202-4c36-a6e2-1fcf7bf41701","","887","
    <div style=""display: flex; justify-content: center; align-items: center;"">
      <img src=""images/blue_deck_1.png"" style=""width: 300px; height: 300px; margin-right: 10px;"" />
      <img src=""images/red_deck_2.png"" style=""width: 300px; height: 300px;"" />
    </div>","1","1"
"","","","","","html-keyboard-response","15","108329","0.0-15.0-1.0-0.0","9A86A88B229145CA9943EAA00F48703F","7a1ceed3-d152-4367-9455-9a05601054e4","7c9f784d-5202-4c36-a6e2-1fcf7bf41701","","null","<div style=""display: flex; justify-content: center; align-items: center;"">
                <img src=""images/semantic/semantic_series_12/semantic_series_12_d.jpg"" style=""width: 300px; height: 300px;"" />
              </div>","null",""
"","","","","","html-keyboard-response","16","111331","0.0-16.0","9A86A88B229145CA9943EAA00F48703F","7a1ceed3-d152-4367-9455-9a05601054e4","7c9f784d-5202-4c36-a6e2-1fcf7bf41701","","null","<div style=""display: flex; justify-content: center; align-items: center;"">
                <img src=""images/other/blank.jpg"" style=""width: 300px; height: 300px;"" />
              </div>","null",""
"","","","","","html-keyboard-response","17","114332","0.0-17.0","9A86A88B229145CA9943EAA00F48703F","7a1ceed3-d152-4367-9455-9a05601054e4","7c9f784d-5202-4c36-a6e2-1fcf7bf41701","","null","<div style=""display: flex; justify-content: center; align-items: center;"">
                <img src=""images/causal/causal_series_5/causal_series_5_a.jpg"" style=""width: 300px; height: 300px;"" />
              </div>","null",""
"","","","","","html-keyboard-response","18","117334","0.0-18.0","9A86A88B229145CA9943EAA00F48703F","7a1ceed3-d152-4367-9455-9a05601054e4","7c9f784d-5202-4c36-a6e2-1fcf7bf41701","","null","<div style=""display: flex; justify-content: center; align-items: center;"">
                <img src=""images/causal/causal_series_5/causal_series_5_b.jpg"" style=""width: 300px; height: 300px;"" />
              </div>","null",""
"","","","","","html-keyboard-response","19","120341","0.0-19.0","9A86A88B229145CA9943EAA00F48703F","7a1ceed3-d152-4367-9455-9a05601054e4","7c9f784d-5202-4c36-a6e2-1fcf7bf41701","","null","<div style=""display: flex; justify-content: center; align-items: center;"">
                <img src=""images/causal/causal_series_5/causal_series_5_c.jpg"" style=""width: 300px; height: 300px;"" />
              </div>","null",""
"","","","","","html-button-response","20","121742","0.0-20.0","9A86A88B229145CA9943EAA00F48703F","7a1ceed3-d152-4367-9455-9a05601054e4","7c9f784d-5202-4c36-a6e2-1fcf7bf41701","","1400","
    <div style=""display: flex; justify-content: center; align-items: center;"">
      <img src=""images/blue_deck_1.png"" style=""width: 300px; height: 300px; margin-right: 10px;"" />
      <img src=""images/red_deck_2.png"" style=""width: 300px; height: 300px;"" />
    </div>","1","1"
"","","","","","html-keyboard-response","21","124750","0.0-21.0-1.0-0.0","9A86A88B229145CA9943EAA00F48703F","7a1ceed3-d152-4367-9455-9a05601054e4","7c9f784d-5202-4c36-a6e2-1fcf7bf41701","","null","<div style=""display: flex; justify-content: center; align-items: center;"">
                <img src=""images/semantic/semantic_series_4/semantic_series_4_d.jpg"" style=""width: 300px; height: 300px;"" />
              </div>","null",""
"","","","","","html-keyboard-response","22","127753","0.0-22.0","9A86A88B229145CA9943EAA00F48703F","7a1ceed3-d152-4367-9455-9a05601054e4","7c9f784d-5202-4c36-a6e2-1fcf7bf41701","","null","<div style=""display: flex; justify-content: center; align-items: center;"">
                <img src=""images/other/blank.jpg"" style=""width: 300px; height: 300px;"" />
              </div>","null",""
"","","","","","html-keyboard-response","23","130768","0.0-23.0","9A86A88B229145CA9943EAA00F48703F","7a1ceed3-d152-4367-9455-9a05601054e4","7c9f784d-5202-4c36-a6e2-1fcf7bf41701","","null","<div style=""display: flex; justify-content: center; align-items: center;"">
                <img src=""images/causal/causal_series_12/causal_series_12_a.jpg"" style=""width: 300px; height: 300px;"" />
              </div>","null",""
"","","","","","html-keyboard-response","24","133773","0.0-24.0","9A86A88B229145CA9943EAA00F48703F","7a1ceed3-d152-4367-9455-9a05601054e4","7c9f784d-5202-4c36-a6e2-1fcf7bf41701","","null","<div style=""display: flex; justify-content: center; align-items: center;"">
                <img src=""images/causal/causal_series_12/causal_series_12_b.jpg"" style=""width: 300px; height: 300px;"" />
              </div>","null",""
"","","","","","html-keyboard-response","25","136779","0.0-25.0","9A86A88B229145CA9943EAA00F48703F","7a1ceed3-d152-4367-9455-9a05601054e4","7c9f784d-5202-4c36-a6e2-1fcf7bf41701","","null","<div style=""display: flex; justify-content: center; align-items: center;"">
                <img src=""images/causal/causal_series_12/causal_series_12_c.jpg"" style=""width: 300px; height: 300px;"" />
              </div>","null",""
"","","","","","html-button-response","26","137489","0.0-26.0","9A86A88B229145CA9943EAA00F48703F","7a1ceed3-d152-4367-9455-9a05601054e4","7c9f784d-5202-4c36-a6e2-1fcf7bf41701","","709","
    <div style=""display: flex; justify-content: center; align-items: center;"">
      <img src=""images/blue_deck_1.png"" style=""width: 300px; height: 300px; margin-right: 10px;"" />
      <img src=""images/red_deck_2.png"" style=""width: 300px; height: 300px;"" />
    </div>","0","0"
"","","","","","html-keyboard-response","27","140500","0.0-27.0-0.0-0.0","9A86A88B229145CA9943EAA00F48703F","7a1ceed3-d152-4367-9455-9a05601054e4","7c9f784d-5202-4c36-a6e2-1fcf7bf41701","","null","<div style=""display: flex; justify-content: center; align-items: center;"">
                <img src=""images/causal/causal_series_12/causal_series_12_d.jpg"" style=""width: 300px; height: 300px;"" />
              </div>","null",""
"","","","","","html-keyboard-response","28","143513","0.0-28.0","9A86A88B229145CA9943EAA00F48703F","7a1ceed3-d152-4367-9455-9a05601054e4","7c9f784d-5202-4c36-a6e2-1fcf7bf41701","","null","<div style=""display: flex; justify-content: center; align-items: center;"">
                <img src=""images/other/blank.jpg"" style=""width: 300px; height: 300px;"" />
              </div>","null",""
"","","","","","html-keyboard-response","29","146521","0.0-29.0","9A86A88B229145CA9943EAA00F48703F","7a1ceed3-d152-4367-9455-9a05601054e4","7c9f784d-5202-4c36-a6e2-1fcf7bf41701","","null","<div style=""display: flex; justify-content: center; align-items: center;"">
                <img src=""images/causal/causal_series_2/causal_series_2_a.jpg"" style=""width: 300px; height: 300px;"" />
              </div>","null",""
"","","","","","html-keyboard-response","30","149532","0.0-30.0","9A86A88B229145CA9943EAA00F48703F","7a1ceed3-d152-4367-9455-9a05601054e4","7c9f784d-5202-4c36-a6e2-1fcf7bf41701","","null","<div style=""display: flex; justify-content: center; align-items: center;"">
                <img src=""images/causal/causal_series_2/causal_series_2_b.jpg"" style=""width: 300px; height: 300px;"" />
              </div>","null",""
"","","","","","html-keyboard-response","31","152533","0.0-31.0","9A86A88B229145CA9943EAA00F48703F","7a1ceed3-d152-4367-9455-9a05601054e4","7c9f784d-5202-4c36-a6e2-1fcf7bf41701","","null","<div style=""display: flex; justify-content: center; align-items: center;"">
                <img src=""images/causal/causal_series_2/causal_series_2_c.jpg"" style=""width: 300px; height: 300px;"" />
              </div>","null",""
"","","","","","html-button-response","32","153192","0.0-32.0","9A86A88B229145CA9943EAA00F48703F","7a1ceed3-d152-4367-9455-9a05601054e4","7c9f784d-5202-4c36-a6e2-1fcf7bf41701","","657","
    <div style=""display: flex; justify-content: center; align-items: center;"">
      <img src=""images/blue_deck_1.png"" style=""width: 300px; height: 300px; margin-right: 10px;"" />
      <img src=""images/red_deck_2.png"" style=""width: 300px; height: 300px;"" />
    </div>","0","0"
"","","","","","html-keyboard-response","33","156200","0.0-33.0-0.0-0.0","9A86A88B229145CA9943EAA00F48703F","7a1ceed3-d152-4367-9455-9a05601054e4","7c9f784d-5202-4c36-a6e2-1fcf7bf41701","","null","<div style=""display: flex; justify-content: center; align-items: center;"">
                <img src=""images/causal/causal_series_2/causal_series_2_d.jpg"" style=""width: 300px; height: 300px;"" />
              </div>","null",""
"","","","","","html-keyboard-response","34","159206","0.0-34.0","9A86A88B229145CA9943EAA00F48703F","7a1ceed3-d152-4367-9455-9a05601054e4","7c9f784d-5202-4c36-a6e2-1fcf7bf41701","","null","<div style=""display: flex; justify-content: center; align-items: center;"">
                <img src=""images/other/blank.jpg"" style=""width: 300px; height: 300px;"" />
              </div>","null",""
"","","","","","html-keyboard-response","35","162218","0.0-35.0","9A86A88B229145CA9943EAA00F48703F","7a1ceed3-d152-4367-9455-9a05601054e4","7c9f784d-5202-4c36-a6e2-1fcf7bf41701","","null","<div style=""display: flex; justify-content: center; align-items: center;"">
                <img src=""images/causal/causal_series_9/causal_series_9_a.jpg"" style=""width: 300px; height: 300px;"" />
              </div>","null",""
"","","","","","html-keyboard-response","36","165231","0.0-36.0","9A86A88B229145CA9943EAA00F48703F","7a1ceed3-d152-4367-9455-9a05601054e4","7c9f784d-5202-4c36-a6e2-1fcf7bf41701","","null","<div style=""display: flex; justify-content: center; align-items: center;"">
                <img src=""images/causal/causal_series_9/causal_series_9_b.jpg"" style=""width: 300px; height: 300px;"" />
              </div>","null",""
"","","","","","html-keyboard-response","37","168232","0.0-37.0","9A86A88B229145CA9943EAA00F48703F","7a1ceed3-d152-4367-9455-9a05601054e4","7c9f784d-5202-4c36-a6e2-1fcf7bf41701","","null","<div style=""display: flex; justify-content: center; align-items: center;"">
                <img src=""images/causal/causal_series_9/causal_series_9_c.jpg"" style=""width: 300px; height: 300px;"" />
              </div>","null",""
"","","","","","html-button-response","38","169098","0.0-38.0","9A86A88B229145CA9943EAA00F48703F","7a1ceed3-d152-4367-9455-9a05601054e4","7c9f784d-5202-4c36-a6e2-1fcf7bf41701","","866","
    <div style=""display: flex; justify-content: center; align-items: center;"">
      <img src=""images/blue_deck_1.png"" style=""width: 300px; height: 300px; margin-right: 10px;"" />
      <img src=""images/red_deck_2.png"" style=""width: 300px; height: 300px;"" />
    </div>","1","1"
"","","","","","html-keyboard-response","39","172102","0.0-39.0-1.0-0.0","9A86A88B229145CA9943EAA00F48703F","7a1ceed3-d152-4367-9455-9a05601054e4","7c9f784d-5202-4c36-a6e2-1fcf7bf41701","","null","<div style=""display: flex; justify-content: center; align-items: center;"">
                <img src=""images/semantic/semantic_series_8/semantic_series_8_d.jpg"" style=""width: 300px; height: 300px;"" />
              </div>","null",""
"","","","","","html-keyboard-response","40","175114","0.0-40.0","9A86A88B229145CA9943EAA00F48703F","7a1ceed3-d152-4367-9455-9a05601054e4","7c9f784d-5202-4c36-a6e2-1fcf7bf41701","","null","<div style=""display: flex; justify-content: center; align-items: center;"">
                <img src=""images/other/blank.jpg"" style=""width: 300px; height: 300px;"" />
              </div>","null",""
"","","","","","html-keyboard-response","41","178120","0.0-41.0","9A86A88B229145CA9943EAA00F48703F","7a1ceed3-d152-4367-9455-9a05601054e4","7c9f784d-5202-4c36-a6e2-1fcf7bf41701","","null","<div style=""display: flex; justify-content: center; align-items: center;"">
                <img src=""images/causal/causal_series_4/causal_series_4_a.jpg"" style=""width: 300px; height: 300px;"" />
              </div>","null",""
"","","","","","html-keyboard-response","42","181124","0.0-42.0","9A86A88B229145CA9943EAA00F48703F","7a1ceed3-d152-4367-9455-9a05601054e4","7c9f784d-5202-4c36-a6e2-1fcf7bf41701","","null","<div style=""display: flex; justify-content: center; align-items: center;"">
                <img src=""images/causal/causal_series_4/causal_series_4_b.jpg"" style=""width: 300px; height: 300px;"" />
              </div>","null",""
"","","","","","html-keyboard-response","43","184138","0.0-43.0","9A86A88B229145CA9943EAA00F48703F","7a1ceed3-d152-4367-9455-9a05601054e4","7c9f784d-5202-4c36-a6e2-1fcf7bf41701","","null","<div style=""display: flex; justify-content: center; align-items: center;"">
                <img src=""images/causal/causal_series_4/causal_series_4_c.jpg"" style=""width: 300px; height: 300px;"" />
              </div>","null",""
"","","","","","html-button-response","44","184994","0.0-44.0","9A86A88B229145CA9943EAA00F48703F","7a1ceed3-d152-4367-9455-9a05601054e4","7c9f784d-5202-4c36-a6e2-1fcf7bf41701","","855","
    <div style=""display: flex; justify-content: center; align-items: center;"">
      <img src=""images/blue_deck_1.png"" style=""width: 300px; height: 300px; margin-right: 10px;"" />
      <img src=""images/red_deck_2.png"" style=""width: 300px; height: 300px;"" />
    </div>","0","0"
"","","","","","html-keyboard-response","45","188002","0.0-45.0-0.0-0.0","9A86A88B229145CA9943EAA00F48703F","7a1ceed3-d152-4367-9455-9a05601054e4","7c9f784d-5202-4c36-a6e2-1fcf7bf41701","","null","<div style=""display: flex; justify-content: center; align-items: center;"">
                <img src=""images/causal/causal_series_4/causal_series_4_d.jpg"" style=""width: 300px; height: 300px;"" />
              </div>","null",""
"","","","","","html-keyboard-response","46","191011","0.0-46.0","9A86A88B229145CA9943EAA00F48703F","7a1ceed3-d152-4367-9455-9a05601054e4","7c9f784d-5202-4c36-a6e2-1fcf7bf41701","","null","<div style=""display: flex; justify-content: center; align-items: center;"">
                <img src=""images/other/blank.jpg"" style=""width: 300px; height: 300px;"" />
              </div>","null",""
"","","","","","html-keyboard-response","47","194016","0.0-47.0","9A86A88B229145CA9943EAA00F48703F","7a1ceed3-d152-4367-9455-9a05601054e4","7c9f784d-5202-4c36-a6e2-1fcf7bf41701","","null","<div style=""display: flex; justify-content: center; align-items: center;"">
                <img src=""images/causal/causal_series_7/causal_series_7_a.jpg"" style=""width: 300px; height: 300px;"" />
              </div>","null",""
"","","","","","html-keyboard-response","48","197020","0.0-48.0","9A86A88B229145CA9943EAA00F48703F","7a1ceed3-d152-4367-9455-9a05601054e4","7c9f784d-5202-4c36-a6e2-1fcf7bf41701","","null","<div style=""display: flex; justify-content: center; align-items: center;"">
                <img src=""images/causal/causal_series_7/causal_series_7_b.jpg"" style=""width: 300px; height: 300px;"" />
              </div>","null",""
"","","","","","html-keyboard-response","49","200022","0.0-49.0","9A86A88B229145CA9943EAA00F48703F","7a1ceed3-d152-4367-9455-9a05601054e4","7c9f784d-5202-4c36-a6e2-1fcf7bf41701","","null","<div style=""display: flex; justify-content: center; align-items: center;"">
                <img src=""images/causal/causal_series_7/causal_series_7_c.jpg"" style=""width: 300px; height: 300px;"" />
              </div>","null",""
"","","","","","html-button-response","50","200846","0.0-50.0","9A86A88B229145CA9943EAA00F48703F","7a1ceed3-d152-4367-9455-9a05601054e4","7c9f784d-5202-4c36-a6e2-1fcf7bf41701","","823","
    <div style=""display: flex; justify-content: center; align-items: center;"">
      <img src=""images/blue_deck_1.png"" style=""width: 300px; height: 300px; margin-right: 10px;"" />
      <img src=""images/red_deck_2.png"" style=""width: 300px; height: 300px;"" />
    </div>","0","0"
"","","","","","html-keyboard-response","51","203858","0.0-51.0-0.0-0.0","9A86A88B229145CA9943EAA00F48703F","7a1ceed3-d152-4367-9455-9a05601054e4","7c9f784d-5202-4c36-a6e2-1fcf7bf41701","","null","<div style=""display: flex; justify-content: center; align-items: center;"">
                <img src=""images/causal/causal_series_7/causal_series_7_d.jpg"" style=""width: 300px; height: 300px;"" />
              </div>","null",""
"","","","","","html-keyboard-response","52","206871","0.0-52.0","9A86A88B229145CA9943EAA00F48703F","7a1ceed3-d152-4367-9455-9a05601054e4","7c9f784d-5202-4c36-a6e2-1fcf7bf41701","","null","<div style=""display: flex; justify-content: center; align-items: center;"">
                <img src=""images/other/blank.jpg"" style=""width: 300px; height: 300px;"" />
              </div>","null",""
"","","","","","html-keyboard-response","53","209883","0.0-53.0","9A86A88B229145CA9943EAA00F48703F","7a1ceed3-d152-4367-9455-9a05601054e4","7c9f784d-5202-4c36-a6e2-1fcf7bf41701","","null","<div style=""display: flex; justify-content: center; align-items: center;"">
                <img src=""images/causal/causal_series_15/causal_series_15_a.jpg"" style=""width: 300px; height: 300px;"" />
              </div>","null",""
"","","","","","html-keyboard-response","54","212899","0.0-54.0","9A86A88B229145CA9943EAA00F48703F","7a1ceed3-d152-4367-9455-9a05601054e4","7c9f784d-5202-4c36-a6e2-1fcf7bf41701","","null","<div style=""display: flex; justify-content: center; align-items: center;"">
                <img src=""images/causal/causal_series_15/causal_series_15_b.jpg"" style=""width: 300px; height: 300px;"" />
              </div>","null",""
"","","","","","html-keyboard-response","55","215902","0.0-55.0","9A86A88B229145CA9943EAA00F48703F","7a1ceed3-d152-4367-9455-9a05601054e4","7c9f784d-5202-4c36-a6e2-1fcf7bf41701","","null","<div style=""display: flex; justify-content: center; align-items: center;"">
                <img src=""images/causal/causal_series_15/causal_series_15_c.jpg"" style=""width: 300px; height: 300px;"" />
              </div>","null",""
"","","","","","html-button-response","56","216662","0.0-56.0","9A86A88B229145CA9943EAA00F48703F","7a1ceed3-d152-4367-9455-9a05601054e4","7c9f784d-5202-4c36-a6e2-1fcf7bf41701","","759","
    <div style=""display: flex; justify-content: center; align-items: center;"">
      <img src=""images/blue_deck_1.png"" style=""width: 300px; height: 300px; margin-right: 10px;"" />
      <img src=""images/red_deck_2.png"" style=""width: 300px; height: 300px;"" />
    </div>","0","0"
"","","","","","html-keyboard-response","57","219668","0.0-57.0-0.0-0.0","9A86A88B229145CA9943EAA00F48703F","7a1ceed3-d152-4367-9455-9a05601054e4","7c9f784d-5202-4c36-a6e2-1fcf7bf41701","","null","<div style=""display: flex; justify-content: center; align-items: center;"">
                <img src=""images/causal/causal_series_15/causal_series_15_d.jpg"" style=""width: 300px; height: 300px;"" />
              </div>","null",""
"","","","","","html-keyboard-response","58","222675","0.0-58.0","9A86A88B229145CA9943EAA00F48703F","7a1ceed3-d152-4367-9455-9a05601054e4","7c9f784d-5202-4c36-a6e2-1fcf7bf41701","","null","<div style=""display: flex; justify-content: center; align-items: center;"">
                <img src=""images/other/blank.jpg"" style=""width: 300px; height: 300px;"" />
              </div>","null",""
"","","","","","html-keyboard-response","59","225681","0.0-59.0","9A86A88B229145CA9943EAA00F48703F","7a1ceed3-d152-4367-9455-9a05601054e4","7c9f784d-5202-4c36-a6e2-1fcf7bf41701","","null","<div style=""display: flex; justify-content: center; align-items: center;"">
                <img src=""images/causal/causal_series_14/causal_series_14_a.jpg"" style=""width: 300px; height: 300px;"" />
              </div>","null",""
"","","","","","html-keyboard-response","60","228691","0.0-60.0","9A86A88B229145CA9943EAA00F48703F","7a1ceed3-d152-4367-9455-9a05601054e4","7c9f784d-5202-4c36-a6e2-1fcf7bf41701","","null","<div style=""display: flex; justify-content: center; align-items: center;"">
                <img src=""images/causal/causal_series_14/causal_series_14_b.jpg"" style=""width: 300px; height: 300px;"" />
              </div>","null",""
"","","","","","html-keyboard-response","61","231708","0.0-61.0","9A86A88B229145CA9943EAA00F48703F","7a1ceed3-d152-4367-9455-9a05601054e4","7c9f784d-5202-4c36-a6e2-1fcf7bf41701","","null","<div style=""display: flex; justify-content: center; align-items: center;"">
                <img src=""images/causal/causal_series_14/causal_series_14_c.jpg"" style=""width: 300px; height: 300px;"" />
              </div>","null",""
"","","","","","html-button-response","62","232600","0.0-62.0","9A86A88B229145CA9943EAA00F48703F","7a1ceed3-d152-4367-9455-9a05601054e4","7c9f784d-5202-4c36-a6e2-1fcf7bf41701","","891","
    <div style=""display: flex; justify-content: center; align-items: center;"">
      <img src=""images/blue_deck_1.png"" style=""width: 300px; height: 300px; margin-right: 10px;"" />
      <img src=""images/red_deck_2.png"" style=""width: 300px; height: 300px;"" />
    </div>","0","0"
"","","","","","html-keyboard-response","63","235603","0.0-63.0-0.0-0.0","9A86A88B229145CA9943EAA00F48703F","7a1ceed3-d152-4367-9455-9a05601054e4","7c9f784d-5202-4c36-a6e2-1fcf7bf41701","","null","<div style=""display: flex; justify-content: center; align-items: center;"">
                <img src=""images/causal/causal_series_14/causal_series_14_d.jpg"" style=""width: 300px; height: 300px;"" />
              </div>","null",""
"","","","","","html-keyboard-response","64","238619","0.0-64.0","9A86A88B229145CA9943EAA00F48703F","7a1ceed3-d152-4367-9455-9a05601054e4","7c9f784d-5202-4c36-a6e2-1fcf7bf41701","","null","<div style=""display: flex; justify-content: center; align-items: center;"">
                <img src=""images/other/blank.jpg"" style=""width: 300px; height: 300px;"" />
              </div>","null",""
"","","","","","html-keyboard-response","65","241632","0.0-65.0","9A86A88B229145CA9943EAA00F48703F","7a1ceed3-d152-4367-9455-9a05601054e4","7c9f784d-5202-4c36-a6e2-1fcf7bf41701","","null","<div style=""display: flex; justify-content: center; align-items: center;"">
                <img src=""images/causal/causal_series_11/causal_series_11_a.jpg"" style=""width: 300px; height: 300px;"" />
              </div>","null",""
"","","","","","html-keyboard-response","66","244648","0.0-66.0","9A86A88B229145CA9943EAA00F48703F","7a1ceed3-d152-4367-9455-9a05601054e4","7c9f784d-5202-4c36-a6e2-1fcf7bf41701","","null","<div style=""display: flex; justify-content: center; align-items: center;"">
                <img src=""images/causal/causal_series_11/causal_series_11_b.jpg"" style=""width: 300px; height: 300px;"" />
              </div>","null",""
"","","","","","html-keyboard-response","67","247655","0.0-67.0","9A86A88B229145CA9943EAA00F48703F","7a1ceed3-d152-4367-9455-9a05601054e4","7c9f784d-5202-4c36-a6e2-1fcf7bf41701","","null","<div style=""display: flex; justify-content: center; align-items: center;"">
                <img src=""images/causal/causal_series_11/causal_series_11_c.jpg"" style=""width: 300px; height: 300px;"" />
              </div>","null",""
"","","","","","html-button-response","68","249028","0.0-68.0","9A86A88B229145CA9943EAA00F48703F","7a1ceed3-d152-4367-9455-9a05601054e4","7c9f784d-5202-4c36-a6e2-1fcf7bf41701","","1372","
    <div style=""display: flex; justify-content: center; align-items: center;"">
      <img src=""images/blue_deck_1.png"" style=""width: 300px; height: 300px; margin-right: 10px;"" />
      <img src=""images/red_deck_2.png"" style=""width: 300px; height: 300px;"" />
    </div>","0","0"
"","","","","","html-keyboard-response","69","252042","0.0-69.0-0.0-0.0","9A86A88B229145CA9943EAA00F48703F","7a1ceed3-d152-4367-9455-9a05601054e4","7c9f784d-5202-4c36-a6e2-1fcf7bf41701","","null","<div style=""display: flex; justify-content: center; align-items: center;"">
                <img src=""images/causal/causal_series_11/causal_series_11_d.jpg"" style=""width: 300px; height: 300px;"" />
              </div>","null",""
"","","","","","html-keyboard-response","70","255048","0.0-70.0","9A86A88B229145CA9943EAA00F48703F","7a1ceed3-d152-4367-9455-9a05601054e4","7c9f784d-5202-4c36-a6e2-1fcf7bf41701","","null","<div style=""display: flex; justify-content: center; align-items: center;"">
                <img src=""images/other/blank.jpg"" style=""width: 300px; height: 300px;"" />
              </div>","null",""
"","","","","","html-keyboard-response","71","258064","0.0-71.0","9A86A88B229145CA9943EAA00F48703F","7a1ceed3-d152-4367-9455-9a05601054e4","7c9f784d-5202-4c36-a6e2-1fcf7bf41701","","null","<div style=""display: flex; justify-content: center; align-items: center;"">
                <img src=""images/causal/causal_series_10/causal_series_10_a.jpg"" style=""width: 300px; height: 300px;"" />
              </div>","null",""
"","","","","","html-keyboard-response","72","261073","0.0-72.0","9A86A88B229145CA9943EAA00F48703F","7a1ceed3-d152-4367-9455-9a05601054e4","7c9f784d-5202-4c36-a6e2-1fcf7bf41701","","null","<div style=""display: flex; justify-content: center; align-items: center;"">
                <img src=""images/causal/causal_series_10/causal_series_10_b.jpg"" style=""width: 300px; height: 300px;"" />
              </div>","null",""
"","","","","","html-keyboard-response","73","264075","0.0-73.0","9A86A88B229145CA9943EAA00F48703F","7a1ceed3-d152-4367-9455-9a05601054e4","7c9f784d-5202-4c36-a6e2-1fcf7bf41701","","null","<div style=""display: flex; justify-content: center; align-items: center;"">
                <img src=""images/causal/causal_series_10/causal_series_10_c.jpg"" style=""width: 300px; height: 300px;"" />
              </div>","null",""
"","","","","","html-button-response","74","264816","0.0-74.0","9A86A88B229145CA9943EAA00F48703F","7a1ceed3-d152-4367-9455-9a05601054e4","7c9f784d-5202-4c36-a6e2-1fcf7bf41701","","741","
    <div style=""display: flex; justify-content: center; align-items: center;"">
      <img src=""images/blue_deck_1.png"" style=""width: 300px; height: 300px; margin-right: 10px;"" />
      <img src=""images/red_deck_2.png"" style=""width: 300px; height: 300px;"" />
    </div>","0","0"
"","","","","","html-keyboard-response","75","267820","0.0-75.0-0.0-0.0","9A86A88B229145CA9943EAA00F48703F","7a1ceed3-d152-4367-9455-9a05601054e4","7c9f784d-5202-4c36-a6e2-1fcf7bf41701","","null","<div style=""display: flex; justify-content: center; align-items: center;"">
                <img src=""images/causal/causal_series_10/causal_series_10_d.jpg"" style=""width: 300px; height: 300px;"" />
              </div>","null",""
"","","","","","html-keyboard-response","76","270824","0.0-76.0","9A86A88B229145CA9943EAA00F48703F","7a1ceed3-d152-4367-9455-9a05601054e4","7c9f784d-5202-4c36-a6e2-1fcf7bf41701","","null","<div style=""display: flex; justify-content: center; align-items: center;"">
                <img src=""images/other/blank.jpg"" style=""width: 300px; height: 300px;"" />
              </div>","null",""
"","","","","","html-keyboard-response","77","273834","0.0-77.0","9A86A88B229145CA9943EAA00F48703F","7a1ceed3-d152-4367-9455-9a05601054e4","7c9f784d-5202-4c36-a6e2-1fcf7bf41701","","null","<div style=""display: flex; justify-content: center; align-items: center;"">
                <img src=""images/causal/causal_series_8/causal_series_8_a.jpg"" style=""width: 300px; height: 300px;"" />
              </div>","null",""
"","","","","","html-keyboard-response","78","276836","0.0-78.0","9A86A88B229145CA9943EAA00F48703F","7a1ceed3-d152-4367-9455-9a05601054e4","7c9f784d-5202-4c36-a6e2-1fcf7bf41701","","null","<div style=""display: flex; justify-content: center; align-items: center;"">
                <img src=""images/causal/causal_series_8/causal_series_8_b.jpg"" style=""width: 300px; height: 300px;"" />
              </div>","null",""
"","","","","","html-keyboard-response","79","279850","0.0-79.0","9A86A88B229145CA9943EAA00F48703F","7a1ceed3-d152-4367-9455-9a05601054e4","7c9f784d-5202-4c36-a6e2-1fcf7bf41701","","null","<div style=""display: flex; justify-content: center; align-items: center;"">
                <img src=""images/causal/causal_series_8/causal_series_8_c.jpg"" style=""width: 300px; height: 300px;"" />
              </div>","null",""
"","","","","","html-button-response","80","280764","0.0-80.0","9A86A88B229145CA9943EAA00F48703F","7a1ceed3-d152-4367-9455-9a05601054e4","7c9f784d-5202-4c36-a6e2-1fcf7bf41701","","913","
    <div style=""display: flex; justify-content: center; align-items: center;"">
      <img src=""images/blue_deck_1.png"" style=""width: 300px; height: 300px; margin-right: 10px;"" />
      <img src=""images/red_deck_2.png"" style=""width: 300px; height: 300px;"" />
    </div>","1","1"
"","","","","","html-keyboard-response","81","283767","0.0-81.0-1.0-0.0","9A86A88B229145CA9943EAA00F48703F","7a1ceed3-d152-4367-9455-9a05601054e4","7c9f784d-5202-4c36-a6e2-1fcf7bf41701","","null","<div style=""display: flex; justify-content: center; align-items: center;"">
                <img src=""images/semantic/semantic_series_7/semantic_series_7_d.jpg"" style=""width: 300px; height: 300px;"" />
              </div>","null",""
"","","","","","html-keyboard-response","82","286773","0.0-82.0","9A86A88B229145CA9943EAA00F48703F","7a1ceed3-d152-4367-9455-9a05601054e4","7c9f784d-5202-4c36-a6e2-1fcf7bf41701","","null","<div style=""display: flex; justify-content: center; align-items: center;"">
                <img src=""images/other/blank.jpg"" style=""width: 300px; height: 300px;"" />
              </div>","null",""
"","","","","","html-keyboard-response","83","289785","0.0-83.0","9A86A88B229145CA9943EAA00F48703F","7a1ceed3-d152-4367-9455-9a05601054e4","7c9f784d-5202-4c36-a6e2-1fcf7bf41701","","null","<div style=""display: flex; justify-content: center; align-items: center;"">
                <img src=""images/causal/causal_series_16/causal_series_16_a.jpg"" style=""width: 300px; height: 300px;"" />
              </div>","null",""
"","","","","","html-keyboard-response","84","292795","0.0-84.0","9A86A88B229145CA9943EAA00F48703F","7a1ceed3-d152-4367-9455-9a05601054e4","7c9f784d-5202-4c36-a6e2-1fcf7bf41701","","null","<div style=""display: flex; justify-content: center; align-items: center;"">
                <img src=""images/causal/causal_series_16/causal_series_16_b.jpg"" style=""width: 300px; height: 300px;"" />
              </div>","null",""
"","","","","","html-keyboard-response","85","295806","0.0-85.0","9A86A88B229145CA9943EAA00F48703F","7a1ceed3-d152-4367-9455-9a05601054e4","7c9f784d-5202-4c36-a6e2-1fcf7bf41701","","null","<div style=""display: flex; justify-content: center; align-items: center;"">
                <img src=""images/causal/causal_series_16/causal_series_16_c.jpg"" style=""width: 300px; height: 300px;"" />
              </div>","null",""
"","","","","","html-button-response","86","296559","0.0-86.0","9A86A88B229145CA9943EAA00F48703F","7a1ceed3-d152-4367-9455-9a05601054e4","7c9f784d-5202-4c36-a6e2-1fcf7bf41701","","752","
    <div style=""display: flex; justify-content: center; align-items: center;"">
      <img src=""images/blue_deck_1.png"" style=""width: 300px; height: 300px; margin-right: 10px;"" />
      <img src=""images/red_deck_2.png"" style=""width: 300px; height: 300px;"" />
    </div>","1","1"
"","","","","","html-keyboard-response","87","299570","0.0-87.0-1.0-0.0","9A86A88B229145CA9943EAA00F48703F","7a1ceed3-d152-4367-9455-9a05601054e4","7c9f784d-5202-4c36-a6e2-1fcf7bf41701","","null","<div style=""display: flex; justify-content: center; align-items: center;"">
                <img src=""images/semantic/semantic_series_15/semantic_series_15_d.jpg"" style=""width: 300px; height: 300px;"" />
              </div>","null",""
"","","","","","html-keyboard-response","88","302586","0.0-88.0","9A86A88B229145CA9943EAA00F48703F","7a1ceed3-d152-4367-9455-9a05601054e4","7c9f784d-5202-4c36-a6e2-1fcf7bf41701","","null","<div style=""display: flex; justify-content: center; align-items: center;"">
                <img src=""images/other/blank.jpg"" style=""width: 300px; height: 300px;"" />
              </div>","null",""
"","","","","","html-keyboard-response","89","305587","0.0-89.0","9A86A88B229145CA9943EAA00F48703F","7a1ceed3-d152-4367-9455-9a05601054e4","7c9f784d-5202-4c36-a6e2-1fcf7bf41701","","null","<div style=""display: flex; justify-content: center; align-items: center;"">
                <img src=""images/causal/causal_series_17/causal_series_17_a.jpg"" style=""width: 300px; height: 300px;"" />
              </div>","null",""
"","","","","","html-keyboard-response","90","308598","0.0-90.0","9A86A88B229145CA9943EAA00F48703F","7a1ceed3-d152-4367-9455-9a05601054e4","7c9f784d-5202-4c36-a6e2-1fcf7bf41701","","null","<div style=""display: flex; justify-content: center; align-items: center;"">
                <img src=""images/causal/causal_series_17/causal_series_17_b.jpg"" style=""width: 300px; height: 300px;"" />
              </div>","null",""
"","","","","","html-keyboard-response","91","311613","0.0-91.0","9A86A88B229145CA9943EAA00F48703F","7a1ceed3-d152-4367-9455-9a05601054e4","7c9f784d-5202-4c36-a6e2-1fcf7bf41701","","null","<div style=""display: flex; justify-content: center; align-items: center;"">
                <img src=""images/causal/causal_series_17/causal_series_17_c.jpg"" style=""width: 300px; height: 300px;"" />
              </div>","null",""
"","","","","","html-button-response","92","312759","0.0-92.0","9A86A88B229145CA9943EAA00F48703F","7a1ceed3-d152-4367-9455-9a05601054e4","7c9f784d-5202-4c36-a6e2-1fcf7bf41701","","1145","
    <div style=""display: flex; justify-content: center; align-items: center;"">
      <img src=""images/blue_deck_1.png"" style=""width: 300px; height: 300px; margin-right: 10px;"" />
      <img src=""images/red_deck_2.png"" style=""width: 300px; height: 300px;"" />
    </div>","0","0"
"","","","","","html-keyboard-response","93","315774","0.0-93.0-0.0-0.0","9A86A88B229145CA9943EAA00F48703F","7a1ceed3-d152-4367-9455-9a05601054e4","7c9f784d-5202-4c36-a6e2-1fcf7bf41701","","null","<div style=""display: flex; justify-content: center; align-items: center;"">
                <img src=""images/causal/causal_series_17/causal_series_17_d.jpg"" style=""width: 300px; height: 300px;"" />
              </div>","null",""
"","","","","","html-keyboard-response","94","318778","0.0-94.0","9A86A88B229145CA9943EAA00F48703F","7a1ceed3-d152-4367-9455-9a05601054e4","7c9f784d-5202-4c36-a6e2-1fcf7bf41701","","null","<div style=""display: flex; justify-content: center; align-items: center;"">
                <img src=""images/other/blank.jpg"" style=""width: 300px; height: 300px;"" />
              </div>","null",""
"","","","","","html-keyboard-response","95","321788","0.0-95.0","9A86A88B229145CA9943EAA00F48703F","7a1ceed3-d152-4367-9455-9a05601054e4","7c9f784d-5202-4c36-a6e2-1fcf7bf41701","","null","<div style=""display: flex; justify-content: center; align-items: center;"">
                <img src=""images/causal/causal_series_18/causal_series_18_a.jpg"" style=""width: 300px; height: 300px;"" />
              </div>","null",""
"","","","","","html-keyboard-response","96","324799","0.0-96.0","9A86A88B229145CA9943EAA00F48703F","7a1ceed3-d152-4367-9455-9a05601054e4","7c9f784d-5202-4c36-a6e2-1fcf7bf41701","","null","<div style=""display: flex; justify-content: center; align-items: center;"">
                <img src=""images/causal/causal_series_18/causal_series_18_b.jpg"" style=""width: 300px; height: 300px;"" />
              </div>","null",""
"","","","","","html-keyboard-response","97","327804","0.0-97.0","9A86A88B229145CA9943EAA00F48703F","7a1ceed3-d152-4367-9455-9a05601054e4","7c9f784d-5202-4c36-a6e2-1fcf7bf41701","","null","<div style=""display: flex; justify-content: center; align-items: center;"">
                <img src=""images/causal/causal_series_18/causal_series_18_c.jpg"" style=""width: 300px; height: 300px;"" />
              </div>","null",""
"","","","","","html-button-response","98","328573","0.0-98.0","9A86A88B229145CA9943EAA00F48703F","7a1ceed3-d152-4367-9455-9a05601054e4","7c9f784d-5202-4c36-a6e2-1fcf7bf41701","","768","
    <div style=""display: flex; justify-content: center; align-items: center;"">
      <img src=""images/blue_deck_1.png"" style=""width: 300px; height: 300px; margin-right: 10px;"" />
      <img src=""images/red_deck_2.png"" style=""width: 300px; height: 300px;"" />
    </div>","0","0"
"","","","","","html-keyboard-response","99","331580","0.0-99.0-0.0-0.0","9A86A88B229145CA9943EAA00F48703F","7a1ceed3-d152-4367-9455-9a05601054e4","7c9f784d-5202-4c36-a6e2-1fcf7bf41701","","null","<div style=""display: flex; justify-content: center; align-items: center;"">
                <img src=""images/causal/causal_series_18/causal_series_18_d.jpg"" style=""width: 300px; height: 300px;"" />
              </div>","null",""
"","","","","","html-keyboard-response","100","334587","0.0-100.0","9A86A88B229145CA9943EAA00F48703F","7a1ceed3-d152-4367-9455-9a05601054e4","7c9f784d-5202-4c36-a6e2-1fcf7bf41701","","null","<div style=""display: flex; justify-content: center; align-items: center;"">
                <img src=""images/other/blank.jpg"" style=""width: 300px; height: 300px;"" />
              </div>","null",""
"","","","","","html-keyboard-response","101","337590","0.0-101.0","9A86A88B229145CA9943EAA00F48703F","7a1ceed3-d152-4367-9455-9a05601054e4","7c9f784d-5202-4c36-a6e2-1fcf7bf41701","","null","<div style=""display: flex; justify-content: center; align-items: center;"">
                <img src=""images/causal/causal_series_6/causal_series_6_a.jpg"" style=""width: 300px; height: 300px;"" />
              </div>","null",""
"","","","","","html-keyboard-response","102","340591","0.0-102.0","9A86A88B229145CA9943EAA00F48703F","7a1ceed3-d152-4367-9455-9a05601054e4","7c9f784d-5202-4c36-a6e2-1fcf7bf41701","","null","<div style=""display: flex; justify-content: center; align-items: center;"">
                <img src=""images/causal/causal_series_6/causal_series_6_b.jpg"" style=""width: 300px; height: 300px;"" />
              </div>","null",""
"","","","","","html-keyboard-response","103","343592","0.0-103.0","9A86A88B229145CA9943EAA00F48703F","7a1ceed3-d152-4367-9455-9a05601054e4","7c9f784d-5202-4c36-a6e2-1fcf7bf41701","","null","<div style=""display: flex; justify-content: center; align-items: center;"">
                <img src=""images/causal/causal_series_6/causal_series_6_c.jpg"" style=""width: 300px; height: 300px;"" />
              </div>","null",""
"","","","","","html-button-response","104","344310","0.0-104.0","9A86A88B229145CA9943EAA00F48703F","7a1ceed3-d152-4367-9455-9a05601054e4","7c9f784d-5202-4c36-a6e2-1fcf7bf41701","","717","
    <div style=""display: flex; justify-content: center; align-items: center;"">
      <img src=""images/blue_deck_1.png"" style=""width: 300px; height: 300px; margin-right: 10px;"" />
      <img src=""images/red_deck_2.png"" style=""width: 300px; height: 300px;"" />
    </div>","0","0"
"","","","","","html-keyboard-response","105","347320","0.0-105.0-0.0-0.0","9A86A88B229145CA9943EAA00F48703F","7a1ceed3-d152-4367-9455-9a05601054e4","7c9f784d-5202-4c36-a6e2-1fcf7bf41701","","null","<div style=""display: flex; justify-content: center; align-items: center;"">
                <img src=""images/causal/causal_series_6/causal_series_6_d.jpg"" style=""width: 300px; height: 300px;"" />
              </div>","null",""
"","","","","","html-keyboard-response","106","350336","0.0-106.0","9A86A88B229145CA9943EAA00F48703F","7a1ceed3-d152-4367-9455-9a05601054e4","7c9f784d-5202-4c36-a6e2-1fcf7bf41701","","null","<div style=""display: flex; justify-content: center; align-items: center;"">
                <img src=""images/other/blank.jpg"" style=""width: 300px; height: 300px;"" />
              </div>","null",""
"","","","","","html-keyboard-response","107","353347","0.0-107.0","9A86A88B229145CA9943EAA00F48703F","7a1ceed3-d152-4367-9455-9a05601054e4","7c9f784d-5202-4c36-a6e2-1fcf7bf41701","","null","<div style=""display: flex; justify-content: center; align-items: center;"">
                <img src=""images/causal/causal_series_3/causal_series_3_a.jpg"" style=""width: 300px; height: 300px;"" />
              </div>","null",""
"","","","","","html-keyboard-response","108","356348","0.0-108.0","9A86A88B229145CA9943EAA00F48703F","7a1ceed3-d152-4367-9455-9a05601054e4","7c9f784d-5202-4c36-a6e2-1fcf7bf41701","","null","<div style=""display: flex; justify-content: center; align-items: center;"">
                <img src=""images/causal/causal_series_3/causal_series_3_b.jpg"" style=""width: 300px; height: 300px;"" />
              </div>","null",""
"","","","","","html-keyboard-response","109","359354","0.0-109.0","9A86A88B229145CA9943EAA00F48703F","7a1ceed3-d152-4367-9455-9a05601054e4","7c9f784d-5202-4c36-a6e2-1fcf7bf41701","","null","<div style=""display: flex; justify-content: center; align-items: center;"">
                <img src=""images/causal/causal_series_3/causal_series_3_c.jpg"" style=""width: 300px; height: 300px;"" />
              </div>","null",""
"","","","","","html-button-response","110","359957","0.0-110.0","9A86A88B229145CA9943EAA00F48703F","7a1ceed3-d152-4367-9455-9a05601054e4","7c9f784d-5202-4c36-a6e2-1fcf7bf41701","","602","
    <div style=""display: flex; justify-content: center; align-items: center;"">
      <img src=""images/blue_deck_1.png"" style=""width: 300px; height: 300px; margin-right: 10px;"" />
      <img src=""images/red_deck_2.png"" style=""width: 300px; height: 300px;"" />
    </div>","0","0"
"","","","","","html-keyboard-response","111","362973","0.0-111.0-0.0-0.0","9A86A88B229145CA9943EAA00F48703F","7a1ceed3-d152-4367-9455-9a05601054e4","7c9f784d-5202-4c36-a6e2-1fcf7bf41701","","null","<div style=""display: flex; justify-content: center; align-items: center;"">
                <img src=""images/causal/causal_series_3/causal_series_3_d.jpg"" style=""width: 300px; height: 300px;"" />
              </div>","null",""
"","","","","","html-keyboard-response","112","365977","0.0-112.0","9A86A88B229145CA9943EAA00F48703F","7a1ceed3-d152-4367-9455-9a05601054e4","7c9f784d-5202-4c36-a6e2-1fcf7bf41701","","null","<div style=""display: flex; justify-content: center; align-items: center;"">
                <img src=""images/other/blank.jpg"" style=""width: 300px; height: 300px;"" />
              </div>","null",""
"","","","","","survey-text","113","393255","0.0-113.0","9A86A88B229145CA9943EAA00F48703F","7a1ceed3-d152-4367-9455-9a05601054e4","7c9f784d-5202-4c36-a6e2-1fcf7bf41701","","27274","","{""Q0"":""The blue deck of cards finishes the story and the red deck gives a random image""}",""
"","","","","","survey-text","114","415886","0.0-114.0","9A86A88B229145CA9943EAA00F48703F","7a1ceed3-d152-4367-9455-9a05601054e4","7c9f784d-5202-4c36-a6e2-1fcf7bf41701","","22629","","{""Q0"":""The blue deck was more interesting in most cases.""}",""
"","","","","","html-button-response","115","420642","0.0-115.0","9A86A88B229145CA9943EAA00F48703F","7a1ceed3-d152-4367-9455-9a05601054e4","7c9f784d-5202-4c36-a6e2-1fcf7bf41701","","4755","Which color deck does the fourth image continue the story from the series?","0",""
"","","","","","html-button-response","116","433614","0.0-116.0","9A86A88B229145CA9943EAA00F48703F","7a1ceed3-d152-4367-9455-9a05601054e4","7c9f784d-5202-4c36-a6e2-1fcf7bf41701","","12971","Which color deck does the fourth image not follow the story from the series?","1",""
"","","","","","survey-text","117","442656","0.0-117.0","9A86A88B229145CA9943EAA00F48703F","7a1ceed3-d152-4367-9455-9a05601054e4","7c9f784d-5202-4c36-a6e2-1fcf7bf41701","","9039","","{""Q0"":""MALE"",""Q1"":""33""}",""
"","","","","","instructions","118","447627","0.0-118.0","9A86A88B229145CA9943EAA00F48703F","7a1ceed3-d152-4367-9455-9a05601054e4","7c9f784d-5202-4c36-a6e2-1fcf7bf41701","[{""page_index"":0,""viewing_time"":4970}]","4970","","",""
