"success","timeout","failed_images","failed_audio","failed_video","trial_type","trial_index","time_elapsed","internal_node_id","subject_id","study_id","session_id","view_history","rt","stimulus","response","choice"
"true","false","[]","[]","[]","preload","0","7800","0.0-0.0","29BCAE5CBF014FB3AC6749B24B99A543","c9e0e50e-fed6-465e-9fa2-0a6010458fd0","5479079d-2186-49b2-89e2-e3afab6abcc2","","","","",""
"","","","","","instructions","1","9603","0.0-1.0","29BCAE5CBF014FB3AC6749B24B99A543","c9e0e50e-fed6-465e-9fa2-0a6010458fd0","5479079d-2186-49b2-89e2-e3afab6abcc2","[{""page_index"":0,""viewing_time"":1801}]","1802","","",""
"","","","","","instructions","2","17189","0.0-2.0","29BCAE5CBF014FB3AC6749B24B99A543","c9e0e50e-fed6-465e-9fa2-0a6010458fd0","5479079d-2186-49b2-89e2-e3afab6abcc2","[{""page_index"":0,""viewing_time"":7585}]","7585","","",""
"true","","","","","fullscreen","3","24135","0.0-3.0","29BCAE5CBF014FB3AC6749B24B99A543","c9e0e50e-fed6-465e-9fa2-0a6010458fd0","5479079d-2186-49b2-89e2-e3afab6abcc2","","5937","","",""
"","","","","","instructions","4","35990","0.0-4.0","29BCAE5CBF014FB3AC6749B24B99A543","c9e0e50e-fed6-465e-9fa2-0a6010458fd0","5479079d-2186-49b2-89e2-e3afab6abcc2","[{""page_index"":0,""viewing_time"":11854}]","11854","","",""
"","","","","","html-keyboard-response","5","39001","0.0-5.0","29BCAE5CBF014FB3AC6749B24B99A543","c9e0e50e-fed6-465e-9fa2-0a6010458fd0","5479079d-2186-49b2-89e2-e3afab6abcc2","","null","<div style=""display: flex; justify-content: center; align-items: center;"">
                <img src=""images/causal/causal_series_16/causal_series_16_a.jpg"" style=""width: 300px; height: 300px;"" />
              </div>","null",""
"","","","","","html-keyboard-response","6","42010","0.0-6.0","29BCAE5CBF014FB3AC6749B24B99A543","c9e0e50e-fed6-465e-9fa2-0a6010458fd0","5479079d-2186-49b2-89e2-e3afab6abcc2","","null","<div style=""display: flex; justify-content: center; align-items: center;"">
                <img src=""images/causal/causal_series_16/causal_series_16_b.jpg"" style=""width: 300px; height: 300px;"" />
              </div>","null",""
"","","","","","html-keyboard-response","7","45013","0.0-7.0","29BCAE5CBF014FB3AC6749B24B99A543","c9e0e50e-fed6-465e-9fa2-0a6010458fd0","5479079d-2186-49b2-89e2-e3afab6abcc2","","null","<div style=""display: flex; justify-content: center; align-items: center;"">
                <img src=""images/causal/causal_series_16/causal_series_16_c.jpg"" style=""width: 300px; height: 300px;"" />
              </div>","null",""
"","","","","","html-button-response","8","48225","0.0-8.0","29BCAE5CBF014FB3AC6749B24B99A543","c9e0e50e-fed6-465e-9fa2-0a6010458fd0","5479079d-2186-49b2-89e2-e3afab6abcc2","","3210","
    <div style=""display: flex; justify-content: center; align-items: center;"">
      <img src=""images/blue_deck_1.png"" style=""width: 300px; height: 300px; margin-right: 10px;"" />
      <img src=""images/red_deck_2.png"" style=""width: 300px; height: 300px;"" />
    </div>","1","1"
"","","","","","html-keyboard-response","9","51242","0.0-9.0-1.0-0.0","29BCAE5CBF014FB3AC6749B24B99A543","c9e0e50e-fed6-465e-9fa2-0a6010458fd0","5479079d-2186-49b2-89e2-e3afab6abcc2","","null","<div style=""display: flex; justify-content: center; align-items: center;"">
                <img src=""images/semantic/semantic_series_16/semantic_series_16_d.jpg"" style=""width: 300px; height: 300px;"" />
              </div>","null",""
"","","","","","html-keyboard-response","10","54244","0.0-10.0","29BCAE5CBF014FB3AC6749B24B99A543","c9e0e50e-fed6-465e-9fa2-0a6010458fd0","5479079d-2186-49b2-89e2-e3afab6abcc2","","null","<div style=""display: flex; justify-content: center; align-items: center;"">
                <img src=""images/other/blank.jpg"" style=""width: 300px; height: 300px;"" />
              </div>","null",""
"","","","","","html-keyboard-response","11","57259","0.0-11.0","29BCAE5CBF014FB3AC6749B24B99A543","c9e0e50e-fed6-465e-9fa2-0a6010458fd0","5479079d-2186-49b2-89e2-e3afab6abcc2","","null","<div style=""display: flex; justify-content: center; align-items: center;"">
                <img src=""images/causal/causal_series_3/causal_series_3_a.jpg"" style=""width: 300px; height: 300px;"" />
              </div>","null",""
"","","","","","html-keyboard-response","12","60265","0.0-12.0","29BCAE5CBF014FB3AC6749B24B99A543","c9e0e50e-fed6-465e-9fa2-0a6010458fd0","5479079d-2186-49b2-89e2-e3afab6abcc2","","null","<div style=""display: flex; justify-content: center; align-items: center;"">
                <img src=""images/causal/causal_series_3/causal_series_3_b.jpg"" style=""width: 300px; height: 300px;"" />
              </div>","null",""
"","","","","","html-keyboard-response","13","63275","0.0-13.0","29BCAE5CBF014FB3AC6749B24B99A543","c9e0e50e-fed6-465e-9fa2-0a6010458fd0","5479079d-2186-49b2-89e2-e3afab6abcc2","","null","<div style=""display: flex; justify-content: center; align-items: center;"">
                <img src=""images/causal/causal_series_3/causal_series_3_c.jpg"" style=""width: 300px; height: 300px;"" />
              </div>","null",""
"","","","","","html-button-response","14","65552","0.0-14.0","29BCAE5CBF014FB3AC6749B24B99A543","c9e0e50e-fed6-465e-9fa2-0a6010458fd0","5479079d-2186-49b2-89e2-e3afab6abcc2","","2276","
    <div style=""display: flex; justify-content: center; align-items: center;"">
      <img src=""images/blue_deck_1.png"" style=""width: 300px; height: 300px; margin-right: 10px;"" />
      <img src=""images/red_deck_2.png"" style=""width: 300px; height: 300px;"" />
    </div>","0","0"
"","","","","","html-keyboard-response","15","68555","0.0-15.0-0.0-0.0","29BCAE5CBF014FB3AC6749B24B99A543","c9e0e50e-fed6-465e-9fa2-0a6010458fd0","5479079d-2186-49b2-89e2-e3afab6abcc2","","null","<div style=""display: flex; justify-content: center; align-items: center;"">
                <img src=""images/causal/causal_series_3/causal_series_3_d.jpg"" style=""width: 300px; height: 300px;"" />
              </div>","null",""
"","","","","","html-keyboard-response","16","71558","0.0-16.0","29BCAE5CBF014FB3AC6749B24B99A543","c9e0e50e-fed6-465e-9fa2-0a6010458fd0","5479079d-2186-49b2-89e2-e3afab6abcc2","","null","<div style=""display: flex; justify-content: center; align-items: center;"">
                <img src=""images/other/blank.jpg"" style=""width: 300px; height: 300px;"" />
              </div>","null",""
"","","","","","html-keyboard-response","17","74573","0.0-17.0","29BCAE5CBF014FB3AC6749B24B99A543","c9e0e50e-fed6-465e-9fa2-0a6010458fd0","5479079d-2186-49b2-89e2-e3afab6abcc2","","null","<div style=""display: flex; justify-content: center; align-items: center;"">
                <img src=""images/causal/causal_series_8/causal_series_8_a.jpg"" style=""width: 300px; height: 300px;"" />
              </div>","null",""
"","","","","","html-keyboard-response","18","77590","0.0-18.0","29BCAE5CBF014FB3AC6749B24B99A543","c9e0e50e-fed6-465e-9fa2-0a6010458fd0","5479079d-2186-49b2-89e2-e3afab6abcc2","","null","<div style=""display: flex; justify-content: center; align-items: center;"">
                <img src=""images/causal/causal_series_8/causal_series_8_b.jpg"" style=""width: 300px; height: 300px;"" />
              </div>","null",""
"","","","","","html-keyboard-response","19","80596","0.0-19.0","29BCAE5CBF014FB3AC6749B24B99A543","c9e0e50e-fed6-465e-9fa2-0a6010458fd0","5479079d-2186-49b2-89e2-e3afab6abcc2","","null","<div style=""display: flex; justify-content: center; align-items: center;"">
                <img src=""images/causal/causal_series_8/causal_series_8_c.jpg"" style=""width: 300px; height: 300px;"" />
              </div>","null",""
"","","","","","html-button-response","20","82418","0.0-20.0","29BCAE5CBF014FB3AC6749B24B99A543","c9e0e50e-fed6-465e-9fa2-0a6010458fd0","5479079d-2186-49b2-89e2-e3afab6abcc2","","1820","
    <div style=""display: flex; justify-content: center; align-items: center;"">
      <img src=""images/blue_deck_1.png"" style=""width: 300px; height: 300px; margin-right: 10px;"" />
      <img src=""images/red_deck_2.png"" style=""width: 300px; height: 300px;"" />
    </div>","0","0"
"","","","","","html-keyboard-response","21","85422","0.0-21.0-0.0-0.0","29BCAE5CBF014FB3AC6749B24B99A543","c9e0e50e-fed6-465e-9fa2-0a6010458fd0","5479079d-2186-49b2-89e2-e3afab6abcc2","","null","<div style=""display: flex; justify-content: center; align-items: center;"">
                <img src=""images/causal/causal_series_8/causal_series_8_d.jpg"" style=""width: 300px; height: 300px;"" />
              </div>","null",""
"","","","","","html-keyboard-response","22","88429","0.0-22.0","29BCAE5CBF014FB3AC6749B24B99A543","c9e0e50e-fed6-465e-9fa2-0a6010458fd0","5479079d-2186-49b2-89e2-e3afab6abcc2","","null","<div style=""display: flex; justify-content: center; align-items: center;"">
                <img src=""images/other/blank.jpg"" style=""width: 300px; height: 300px;"" />
              </div>","null",""
"","","","","","html-keyboard-response","23","91441","0.0-23.0","29BCAE5CBF014FB3AC6749B24B99A543","c9e0e50e-fed6-465e-9fa2-0a6010458fd0","5479079d-2186-49b2-89e2-e3afab6abcc2","","null","<div style=""display: flex; justify-content: center; align-items: center;"">
                <img src=""images/causal/causal_series_4/causal_series_4_a.jpg"" style=""width: 300px; height: 300px;"" />
              </div>","null",""
"","","","","","html-keyboard-response","24","94455","0.0-24.0","29BCAE5CBF014FB3AC6749B24B99A543","c9e0e50e-fed6-465e-9fa2-0a6010458fd0","5479079d-2186-49b2-89e2-e3afab6abcc2","","null","<div style=""display: flex; justify-content: center; align-items: center;"">
                <img src=""images/causal/causal_series_4/causal_series_4_b.jpg"" style=""width: 300px; height: 300px;"" />
              </div>","null",""
"","","","","","html-keyboard-response","25","97473","0.0-25.0","29BCAE5CBF014FB3AC6749B24B99A543","c9e0e50e-fed6-465e-9fa2-0a6010458fd0","5479079d-2186-49b2-89e2-e3afab6abcc2","","null","<div style=""display: flex; justify-content: center; align-items: center;"">
                <img src=""images/causal/causal_series_4/causal_series_4_c.jpg"" style=""width: 300px; height: 300px;"" />
              </div>","null",""
"","","","","","html-button-response","26","98738","0.0-26.0","29BCAE5CBF014FB3AC6749B24B99A543","c9e0e50e-fed6-465e-9fa2-0a6010458fd0","5479079d-2186-49b2-89e2-e3afab6abcc2","","1263","
    <div style=""display: flex; justify-content: center; align-items: center;"">
      <img src=""images/blue_deck_1.png"" style=""width: 300px; height: 300px; margin-right: 10px;"" />
      <img src=""images/red_deck_2.png"" style=""width: 300px; height: 300px;"" />
    </div>","1","1"
"","","","","","html-keyboard-response","27","101747","0.0-27.0-1.0-0.0","29BCAE5CBF014FB3AC6749B24B99A543","c9e0e50e-fed6-465e-9fa2-0a6010458fd0","5479079d-2186-49b2-89e2-e3afab6abcc2","","null","<div style=""display: flex; justify-content: center; align-items: center;"">
                <img src=""images/semantic/semantic_series_4/semantic_series_4_d.jpg"" style=""width: 300px; height: 300px;"" />
              </div>","null",""
"","","","","","html-keyboard-response","28","104759","0.0-28.0","29BCAE5CBF014FB3AC6749B24B99A543","c9e0e50e-fed6-465e-9fa2-0a6010458fd0","5479079d-2186-49b2-89e2-e3afab6abcc2","","null","<div style=""display: flex; justify-content: center; align-items: center;"">
                <img src=""images/other/blank.jpg"" style=""width: 300px; height: 300px;"" />
              </div>","null",""
"","","","","","html-keyboard-response","29","107762","0.0-29.0","29BCAE5CBF014FB3AC6749B24B99A543","c9e0e50e-fed6-465e-9fa2-0a6010458fd0","5479079d-2186-49b2-89e2-e3afab6abcc2","","null","<div style=""display: flex; justify-content: center; align-items: center;"">
                <img src=""images/causal/causal_series_5/causal_series_5_a.jpg"" style=""width: 300px; height: 300px;"" />
              </div>","null",""
"","","","","","html-keyboard-response","30","110773","0.0-30.0","29BCAE5CBF014FB3AC6749B24B99A543","c9e0e50e-fed6-465e-9fa2-0a6010458fd0","5479079d-2186-49b2-89e2-e3afab6abcc2","","null","<div style=""display: flex; justify-content: center; align-items: center;"">
                <img src=""images/causal/causal_series_5/causal_series_5_b.jpg"" style=""width: 300px; height: 300px;"" />
              </div>","null",""
"","","","","","html-keyboard-response","31","113778","0.0-31.0","29BCAE5CBF014FB3AC6749B24B99A543","c9e0e50e-fed6-465e-9fa2-0a6010458fd0","5479079d-2186-49b2-89e2-e3afab6abcc2","","null","<div style=""display: flex; justify-content: center; align-items: center;"">
                <img src=""images/causal/causal_series_5/causal_series_5_c.jpg"" style=""width: 300px; height: 300px;"" />
              </div>","null",""
"","","","","","html-button-response","32","114934","0.0-32.0","29BCAE5CBF014FB3AC6749B24B99A543","c9e0e50e-fed6-465e-9fa2-0a6010458fd0","5479079d-2186-49b2-89e2-e3afab6abcc2","","1155","
    <div style=""display: flex; justify-content: center; align-items: center;"">
      <img src=""images/blue_deck_1.png"" style=""width: 300px; height: 300px; margin-right: 10px;"" />
      <img src=""images/red_deck_2.png"" style=""width: 300px; height: 300px;"" />
    </div>","1","1"
"","","","","","html-keyboard-response","33","117945","0.0-33.0-1.0-0.0","29BCAE5CBF014FB3AC6749B24B99A543","c9e0e50e-fed6-465e-9fa2-0a6010458fd0","5479079d-2186-49b2-89e2-e3afab6abcc2","","null","<div style=""display: flex; justify-content: center; align-items: center;"">
                <img src=""images/semantic/semantic_series_5/semantic_series_5_d.jpg"" style=""width: 300px; height: 300px;"" />
              </div>","null",""
"","","","","","html-keyboard-response","34","120948","0.0-34.0","29BCAE5CBF014FB3AC6749B24B99A543","c9e0e50e-fed6-465e-9fa2-0a6010458fd0","5479079d-2186-49b2-89e2-e3afab6abcc2","","null","<div style=""display: flex; justify-content: center; align-items: center;"">
                <img src=""images/other/blank.jpg"" style=""width: 300px; height: 300px;"" />
              </div>","null",""
"","","","","","html-keyboard-response","35","123949","0.0-35.0","29BCAE5CBF014FB3AC6749B24B99A543","c9e0e50e-fed6-465e-9fa2-0a6010458fd0","5479079d-2186-49b2-89e2-e3afab6abcc2","","null","<div style=""display: flex; justify-content: center; align-items: center;"">
                <img src=""images/causal/causal_series_2/causal_series_2_a.jpg"" style=""width: 300px; height: 300px;"" />
              </div>","null",""
"","","","","","html-keyboard-response","36","126950","0.0-36.0","29BCAE5CBF014FB3AC6749B24B99A543","c9e0e50e-fed6-465e-9fa2-0a6010458fd0","5479079d-2186-49b2-89e2-e3afab6abcc2","","null","<div style=""display: flex; justify-content: center; align-items: center;"">
                <img src=""images/causal/causal_series_2/causal_series_2_b.jpg"" style=""width: 300px; height: 300px;"" />
              </div>","null",""
"","","","","","html-keyboard-response","37","129961","0.0-37.0","29BCAE5CBF014FB3AC6749B24B99A543","c9e0e50e-fed6-465e-9fa2-0a6010458fd0","5479079d-2186-49b2-89e2-e3afab6abcc2","","null","<div style=""display: flex; justify-content: center; align-items: center;"">
                <img src=""images/causal/causal_series_2/causal_series_2_c.jpg"" style=""width: 300px; height: 300px;"" />
              </div>","null",""
"","","","","","html-button-response","38","131284","0.0-38.0","29BCAE5CBF014FB3AC6749B24B99A543","c9e0e50e-fed6-465e-9fa2-0a6010458fd0","5479079d-2186-49b2-89e2-e3afab6abcc2","","1322","
    <div style=""display: flex; justify-content: center; align-items: center;"">
      <img src=""images/blue_deck_1.png"" style=""width: 300px; height: 300px; margin-right: 10px;"" />
      <img src=""images/red_deck_2.png"" style=""width: 300px; height: 300px;"" />
    </div>","0","0"
"","","","","","html-keyboard-response","39","134299","0.0-39.0-0.0-0.0","29BCAE5CBF014FB3AC6749B24B99A543","c9e0e50e-fed6-465e-9fa2-0a6010458fd0","5479079d-2186-49b2-89e2-e3afab6abcc2","","null","<div style=""display: flex; justify-content: center; align-items: center;"">
                <img src=""images/causal/causal_series_2/causal_series_2_d.jpg"" style=""width: 300px; height: 300px;"" />
              </div>","null",""
"","","","","","html-keyboard-response","40","137307","0.0-40.0","29BCAE5CBF014FB3AC6749B24B99A543","c9e0e50e-fed6-465e-9fa2-0a6010458fd0","5479079d-2186-49b2-89e2-e3afab6abcc2","","null","<div style=""display: flex; justify-content: center; align-items: center;"">
                <img src=""images/other/blank.jpg"" style=""width: 300px; height: 300px;"" />
              </div>","null",""
"","","","","","html-keyboard-response","41","140311","0.0-41.0","29BCAE5CBF014FB3AC6749B24B99A543","c9e0e50e-fed6-465e-9fa2-0a6010458fd0","5479079d-2186-49b2-89e2-e3afab6abcc2","","null","<div style=""display: flex; justify-content: center; align-items: center;"">
                <img src=""images/causal/causal_series_6/causal_series_6_a.jpg"" style=""width: 300px; height: 300px;"" />
              </div>","null",""
"","","","","","html-keyboard-response","42","143319","0.0-42.0","29BCAE5CBF014FB3AC6749B24B99A543","c9e0e50e-fed6-465e-9fa2-0a6010458fd0","5479079d-2186-49b2-89e2-e3afab6abcc2","","null","<div style=""display: flex; justify-content: center; align-items: center;"">
                <img src=""images/causal/causal_series_6/causal_series_6_b.jpg"" style=""width: 300px; height: 300px;"" />
              </div>","null",""
"","","","","","html-keyboard-response","43","146325","0.0-43.0","29BCAE5CBF014FB3AC6749B24B99A543","c9e0e50e-fed6-465e-9fa2-0a6010458fd0","5479079d-2186-49b2-89e2-e3afab6abcc2","","null","<div style=""display: flex; justify-content: center; align-items: center;"">
                <img src=""images/causal/causal_series_6/causal_series_6_c.jpg"" style=""width: 300px; height: 300px;"" />
              </div>","null",""
"","","","","","html-button-response","44","148397","0.0-44.0","29BCAE5CBF014FB3AC6749B24B99A543","c9e0e50e-fed6-465e-9fa2-0a6010458fd0","5479079d-2186-49b2-89e2-e3afab6abcc2","","2070","
    <div style=""display: flex; justify-content: center; align-items: center;"">
      <img src=""images/blue_deck_1.png"" style=""width: 300px; height: 300px; margin-right: 10px;"" />
      <img src=""images/red_deck_2.png"" style=""width: 300px; height: 300px;"" />
    </div>","0","0"
"","","","","","html-keyboard-response","45","151401","0.0-45.0-0.0-0.0","29BCAE5CBF014FB3AC6749B24B99A543","c9e0e50e-fed6-465e-9fa2-0a6010458fd0","5479079d-2186-49b2-89e2-e3afab6abcc2","","null","<div style=""display: flex; justify-content: center; align-items: center;"">
                <img src=""images/causal/causal_series_6/causal_series_6_d.jpg"" style=""width: 300px; height: 300px;"" />
              </div>","null",""
"","","","","","html-keyboard-response","46","154414","0.0-46.0","29BCAE5CBF014FB3AC6749B24B99A543","c9e0e50e-fed6-465e-9fa2-0a6010458fd0","5479079d-2186-49b2-89e2-e3afab6abcc2","","null","<div style=""display: flex; justify-content: center; align-items: center;"">
                <img src=""images/other/blank.jpg"" style=""width: 300px; height: 300px;"" />
              </div>","null",""
"","","","","","html-keyboard-response","47","157422","0.0-47.0","29BCAE5CBF014FB3AC6749B24B99A543","c9e0e50e-fed6-465e-9fa2-0a6010458fd0","5479079d-2186-49b2-89e2-e3afab6abcc2","","null","<div style=""display: flex; justify-content: center; align-items: center;"">
                <img src=""images/causal/causal_series_1/causal_series_1_a.jpg"" style=""width: 300px; height: 300px;"" />
              </div>","null",""
"","","","","","html-keyboard-response","48","160435","0.0-48.0","29BCAE5CBF014FB3AC6749B24B99A543","c9e0e50e-fed6-465e-9fa2-0a6010458fd0","5479079d-2186-49b2-89e2-e3afab6abcc2","","null","<div style=""display: flex; justify-content: center; align-items: center;"">
                <img src=""images/causal/causal_series_1/causal_series_1_b.jpg"" style=""width: 300px; height: 300px;"" />
              </div>","null",""
"","","","","","html-keyboard-response","49","163448","0.0-49.0","29BCAE5CBF014FB3AC6749B24B99A543","c9e0e50e-fed6-465e-9fa2-0a6010458fd0","5479079d-2186-49b2-89e2-e3afab6abcc2","","null","<div style=""display: flex; justify-content: center; align-items: center;"">
                <img src=""images/causal/causal_series_1/causal_series_1_c.jpg"" style=""width: 300px; height: 300px;"" />
              </div>","null",""
"","","","","","html-button-response","50","165682","0.0-50.0","29BCAE5CBF014FB3AC6749B24B99A543","c9e0e50e-fed6-465e-9fa2-0a6010458fd0","5479079d-2186-49b2-89e2-e3afab6abcc2","","2233","
    <div style=""display: flex; justify-content: center; align-items: center;"">
      <img src=""images/blue_deck_1.png"" style=""width: 300px; height: 300px; margin-right: 10px;"" />
      <img src=""images/red_deck_2.png"" style=""width: 300px; height: 300px;"" />
    </div>","1","1"
"","","","","","html-keyboard-response","51","168689","0.0-51.0-1.0-0.0","29BCAE5CBF014FB3AC6749B24B99A543","c9e0e50e-fed6-465e-9fa2-0a6010458fd0","5479079d-2186-49b2-89e2-e3afab6abcc2","","null","<div style=""display: flex; justify-content: center; align-items: center;"">
                <img src=""images/semantic/semantic_series_1/semantic_series_1_d.jpg"" style=""width: 300px; height: 300px;"" />
              </div>","null",""
"","","","","","html-keyboard-response","52","171704","0.0-52.0","29BCAE5CBF014FB3AC6749B24B99A543","c9e0e50e-fed6-465e-9fa2-0a6010458fd0","5479079d-2186-49b2-89e2-e3afab6abcc2","","null","<div style=""display: flex; justify-content: center; align-items: center;"">
                <img src=""images/other/blank.jpg"" style=""width: 300px; height: 300px;"" />
              </div>","null",""
"","","","","","html-keyboard-response","53","174719","0.0-53.0","29BCAE5CBF014FB3AC6749B24B99A543","c9e0e50e-fed6-465e-9fa2-0a6010458fd0","5479079d-2186-49b2-89e2-e3afab6abcc2","","null","<div style=""display: flex; justify-content: center; align-items: center;"">
                <img src=""images/causal/causal_series_18/causal_series_18_a.jpg"" style=""width: 300px; height: 300px;"" />
              </div>","null",""
"","","","","","html-keyboard-response","54","177726","0.0-54.0","29BCAE5CBF014FB3AC6749B24B99A543","c9e0e50e-fed6-465e-9fa2-0a6010458fd0","5479079d-2186-49b2-89e2-e3afab6abcc2","","null","<div style=""display: flex; justify-content: center; align-items: center;"">
                <img src=""images/causal/causal_series_18/causal_series_18_b.jpg"" style=""width: 300px; height: 300px;"" />
              </div>","null",""
"","","","","","html-keyboard-response","55","180738","0.0-55.0","29BCAE5CBF014FB3AC6749B24B99A543","c9e0e50e-fed6-465e-9fa2-0a6010458fd0","5479079d-2186-49b2-89e2-e3afab6abcc2","","null","<div style=""display: flex; justify-content: center; align-items: center;"">
                <img src=""images/causal/causal_series_18/causal_series_18_c.jpg"" style=""width: 300px; height: 300px;"" />
              </div>","null",""
"","","","","","html-button-response","56","192166","0.0-56.0","29BCAE5CBF014FB3AC6749B24B99A543","c9e0e50e-fed6-465e-9fa2-0a6010458fd0","5479079d-2186-49b2-89e2-e3afab6abcc2","","11427","
    <div style=""display: flex; justify-content: center; align-items: center;"">
      <img src=""images/blue_deck_1.png"" style=""width: 300px; height: 300px; margin-right: 10px;"" />
      <img src=""images/red_deck_2.png"" style=""width: 300px; height: 300px;"" />
    </div>","0","0"
"","","","","","html-keyboard-response","57","195171","0.0-57.0-0.0-0.0","29BCAE5CBF014FB3AC6749B24B99A543","c9e0e50e-fed6-465e-9fa2-0a6010458fd0","5479079d-2186-49b2-89e2-e3afab6abcc2","","null","<div style=""display: flex; justify-content: center; align-items: center;"">
                <img src=""images/causal/causal_series_18/causal_series_18_d.jpg"" style=""width: 300px; height: 300px;"" />
              </div>","null",""
"","","","","","html-keyboard-response","58","198179","0.0-58.0","29BCAE5CBF014FB3AC6749B24B99A543","c9e0e50e-fed6-465e-9fa2-0a6010458fd0","5479079d-2186-49b2-89e2-e3afab6abcc2","","null","<div style=""display: flex; justify-content: center; align-items: center;"">
                <img src=""images/other/blank.jpg"" style=""width: 300px; height: 300px;"" />
              </div>","null",""
"","","","","","html-keyboard-response","59","201186","0.0-59.0","29BCAE5CBF014FB3AC6749B24B99A543","c9e0e50e-fed6-465e-9fa2-0a6010458fd0","5479079d-2186-49b2-89e2-e3afab6abcc2","","null","<div style=""display: flex; justify-content: center; align-items: center;"">
                <img src=""images/causal/causal_series_9/causal_series_9_a.jpg"" style=""width: 300px; height: 300px;"" />
              </div>","null",""
"","","","","","html-keyboard-response","60","204190","0.0-60.0","29BCAE5CBF014FB3AC6749B24B99A543","c9e0e50e-fed6-465e-9fa2-0a6010458fd0","5479079d-2186-49b2-89e2-e3afab6abcc2","","null","<div style=""display: flex; justify-content: center; align-items: center;"">
                <img src=""images/causal/causal_series_9/causal_series_9_b.jpg"" style=""width: 300px; height: 300px;"" />
              </div>","null",""
"","","","","","html-keyboard-response","61","207200","0.0-61.0","29BCAE5CBF014FB3AC6749B24B99A543","c9e0e50e-fed6-465e-9fa2-0a6010458fd0","5479079d-2186-49b2-89e2-e3afab6abcc2","","null","<div style=""display: flex; justify-content: center; align-items: center;"">
                <img src=""images/causal/causal_series_9/causal_series_9_c.jpg"" style=""width: 300px; height: 300px;"" />
              </div>","null",""
"","","","","","html-button-response","62","215555","0.0-62.0","29BCAE5CBF014FB3AC6749B24B99A543","c9e0e50e-fed6-465e-9fa2-0a6010458fd0","5479079d-2186-49b2-89e2-e3afab6abcc2","","8353","
    <div style=""display: flex; justify-content: center; align-items: center;"">
      <img src=""images/blue_deck_1.png"" style=""width: 300px; height: 300px; margin-right: 10px;"" />
      <img src=""images/red_deck_2.png"" style=""width: 300px; height: 300px;"" />
    </div>","1","1"
"","","","","","html-keyboard-response","63","218566","0.0-63.0-1.0-0.0","29BCAE5CBF014FB3AC6749B24B99A543","c9e0e50e-fed6-465e-9fa2-0a6010458fd0","5479079d-2186-49b2-89e2-e3afab6abcc2","","null","<div style=""display: flex; justify-content: center; align-items: center;"">
                <img src=""images/semantic/semantic_series_9/semantic_series_9_d.jpg"" style=""width: 300px; height: 300px;"" />
              </div>","null",""
"","","","","","html-keyboard-response","64","221570","0.0-64.0","29BCAE5CBF014FB3AC6749B24B99A543","c9e0e50e-fed6-465e-9fa2-0a6010458fd0","5479079d-2186-49b2-89e2-e3afab6abcc2","","null","<div style=""display: flex; justify-content: center; align-items: center;"">
                <img src=""images/other/blank.jpg"" style=""width: 300px; height: 300px;"" />
              </div>","null",""
"","","","","","html-keyboard-response","65","224573","0.0-65.0","29BCAE5CBF014FB3AC6749B24B99A543","c9e0e50e-fed6-465e-9fa2-0a6010458fd0","5479079d-2186-49b2-89e2-e3afab6abcc2","","null","<div style=""display: flex; justify-content: center; align-items: center;"">
                <img src=""images/causal/causal_series_17/causal_series_17_a.jpg"" style=""width: 300px; height: 300px;"" />
              </div>","null",""
"","","","","","html-keyboard-response","66","227577","0.0-66.0","29BCAE5CBF014FB3AC6749B24B99A543","c9e0e50e-fed6-465e-9fa2-0a6010458fd0","5479079d-2186-49b2-89e2-e3afab6abcc2","","null","<div style=""display: flex; justify-content: center; align-items: center;"">
                <img src=""images/causal/causal_series_17/causal_series_17_b.jpg"" style=""width: 300px; height: 300px;"" />
              </div>","null",""
"","","","","","html-keyboard-response","67","230584","0.0-67.0","29BCAE5CBF014FB3AC6749B24B99A543","c9e0e50e-fed6-465e-9fa2-0a6010458fd0","5479079d-2186-49b2-89e2-e3afab6abcc2","","null","<div style=""display: flex; justify-content: center; align-items: center;"">
                <img src=""images/causal/causal_series_17/causal_series_17_c.jpg"" style=""width: 300px; height: 300px;"" />
              </div>","null",""
"","","","","","html-button-response","68","236128","0.0-68.0","29BCAE5CBF014FB3AC6749B24B99A543","c9e0e50e-fed6-465e-9fa2-0a6010458fd0","5479079d-2186-49b2-89e2-e3afab6abcc2","","5542","
    <div style=""display: flex; justify-content: center; align-items: center;"">
      <img src=""images/blue_deck_1.png"" style=""width: 300px; height: 300px; margin-right: 10px;"" />
      <img src=""images/red_deck_2.png"" style=""width: 300px; height: 300px;"" />
    </div>","0","0"
"","","","","","html-keyboard-response","69","239135","0.0-69.0-0.0-0.0","29BCAE5CBF014FB3AC6749B24B99A543","c9e0e50e-fed6-465e-9fa2-0a6010458fd0","5479079d-2186-49b2-89e2-e3afab6abcc2","","null","<div style=""display: flex; justify-content: center; align-items: center;"">
                <img src=""images/causal/causal_series_17/causal_series_17_d.jpg"" style=""width: 300px; height: 300px;"" />
              </div>","null",""
"","","","","","html-keyboard-response","70","242149","0.0-70.0","29BCAE5CBF014FB3AC6749B24B99A543","c9e0e50e-fed6-465e-9fa2-0a6010458fd0","5479079d-2186-49b2-89e2-e3afab6abcc2","","null","<div style=""display: flex; justify-content: center; align-items: center;"">
                <img src=""images/other/blank.jpg"" style=""width: 300px; height: 300px;"" />
              </div>","null",""
"","","","","","html-keyboard-response","71","245160","0.0-71.0","29BCAE5CBF014FB3AC6749B24B99A543","c9e0e50e-fed6-465e-9fa2-0a6010458fd0","5479079d-2186-49b2-89e2-e3afab6abcc2","","null","<div style=""display: flex; justify-content: center; align-items: center;"">
                <img src=""images/causal/causal_series_14/causal_series_14_a.jpg"" style=""width: 300px; height: 300px;"" />
              </div>","null",""
"","","","","","html-keyboard-response","72","248176","0.0-72.0","29BCAE5CBF014FB3AC6749B24B99A543","c9e0e50e-fed6-465e-9fa2-0a6010458fd0","5479079d-2186-49b2-89e2-e3afab6abcc2","","null","<div style=""display: flex; justify-content: center; align-items: center;"">
                <img src=""images/causal/causal_series_14/causal_series_14_b.jpg"" style=""width: 300px; height: 300px;"" />
              </div>","null",""
"","","","","","html-keyboard-response","73","251187","0.0-73.0","29BCAE5CBF014FB3AC6749B24B99A543","c9e0e50e-fed6-465e-9fa2-0a6010458fd0","5479079d-2186-49b2-89e2-e3afab6abcc2","","null","<div style=""display: flex; justify-content: center; align-items: center;"">
                <img src=""images/causal/causal_series_14/causal_series_14_c.jpg"" style=""width: 300px; height: 300px;"" />
              </div>","null",""
"","","","","","html-button-response","74","257084","0.0-74.0","29BCAE5CBF014FB3AC6749B24B99A543","c9e0e50e-fed6-465e-9fa2-0a6010458fd0","5479079d-2186-49b2-89e2-e3afab6abcc2","","5895","
    <div style=""display: flex; justify-content: center; align-items: center;"">
      <img src=""images/blue_deck_1.png"" style=""width: 300px; height: 300px; margin-right: 10px;"" />
      <img src=""images/red_deck_2.png"" style=""width: 300px; height: 300px;"" />
    </div>","1","1"
"","","","","","html-keyboard-response","75","260089","0.0-75.0-1.0-0.0","29BCAE5CBF014FB3AC6749B24B99A543","c9e0e50e-fed6-465e-9fa2-0a6010458fd0","5479079d-2186-49b2-89e2-e3afab6abcc2","","null","<div style=""display: flex; justify-content: center; align-items: center;"">
                <img src=""images/semantic/semantic_series_14/semantic_series_14_d.jpg"" style=""width: 300px; height: 300px;"" />
              </div>","null",""
"","","","","","html-keyboard-response","76","263105","0.0-76.0","29BCAE5CBF014FB3AC6749B24B99A543","c9e0e50e-fed6-465e-9fa2-0a6010458fd0","5479079d-2186-49b2-89e2-e3afab6abcc2","","null","<div style=""display: flex; justify-content: center; align-items: center;"">
                <img src=""images/other/blank.jpg"" style=""width: 300px; height: 300px;"" />
              </div>","null",""
"","","","","","html-keyboard-response","77","266116","0.0-77.0","29BCAE5CBF014FB3AC6749B24B99A543","c9e0e50e-fed6-465e-9fa2-0a6010458fd0","5479079d-2186-49b2-89e2-e3afab6abcc2","","null","<div style=""display: flex; justify-content: center; align-items: center;"">
                <img src=""images/causal/causal_series_11/causal_series_11_a.jpg"" style=""width: 300px; height: 300px;"" />
              </div>","null",""
"","","","","","html-keyboard-response","78","269126","0.0-78.0","29BCAE5CBF014FB3AC6749B24B99A543","c9e0e50e-fed6-465e-9fa2-0a6010458fd0","5479079d-2186-49b2-89e2-e3afab6abcc2","","null","<div style=""display: flex; justify-content: center; align-items: center;"">
                <img src=""images/causal/causal_series_11/causal_series_11_b.jpg"" style=""width: 300px; height: 300px;"" />
              </div>","null",""
"","","","","","html-keyboard-response","79","272139","0.0-79.0","29BCAE5CBF014FB3AC6749B24B99A543","c9e0e50e-fed6-465e-9fa2-0a6010458fd0","5479079d-2186-49b2-89e2-e3afab6abcc2","","null","<div style=""display: flex; justify-content: center; align-items: center;"">
                <img src=""images/causal/causal_series_11/causal_series_11_c.jpg"" style=""width: 300px; height: 300px;"" />
              </div>","null",""
"","","","","","html-button-response","80","279243","0.0-80.0","29BCAE5CBF014FB3AC6749B24B99A543","c9e0e50e-fed6-465e-9fa2-0a6010458fd0","5479079d-2186-49b2-89e2-e3afab6abcc2","","7103","
    <div style=""display: flex; justify-content: center; align-items: center;"">
      <img src=""images/blue_deck_1.png"" style=""width: 300px; height: 300px; margin-right: 10px;"" />
      <img src=""images/red_deck_2.png"" style=""width: 300px; height: 300px;"" />
    </div>","1","1"
"","","","","","html-keyboard-response","81","282250","0.0-81.0-1.0-0.0","29BCAE5CBF014FB3AC6749B24B99A543","c9e0e50e-fed6-465e-9fa2-0a6010458fd0","5479079d-2186-49b2-89e2-e3afab6abcc2","","null","<div style=""display: flex; justify-content: center; align-items: center;"">
                <img src=""images/semantic/semantic_series_11/semantic_series_11_d.jpg"" style=""width: 300px; height: 300px;"" />
              </div>","null",""
"","","","","","html-keyboard-response","82","285259","0.0-82.0","29BCAE5CBF014FB3AC6749B24B99A543","c9e0e50e-fed6-465e-9fa2-0a6010458fd0","5479079d-2186-49b2-89e2-e3afab6abcc2","","null","<div style=""display: flex; justify-content: center; align-items: center;"">
                <img src=""images/other/blank.jpg"" style=""width: 300px; height: 300px;"" />
              </div>","null",""
"","","","","","html-keyboard-response","83","288267","0.0-83.0","29BCAE5CBF014FB3AC6749B24B99A543","c9e0e50e-fed6-465e-9fa2-0a6010458fd0","5479079d-2186-49b2-89e2-e3afab6abcc2","","null","<div style=""display: flex; justify-content: center; align-items: center;"">
                <img src=""images/causal/causal_series_15/causal_series_15_a.jpg"" style=""width: 300px; height: 300px;"" />
              </div>","null",""
"","","","","","html-keyboard-response","84","291273","0.0-84.0","29BCAE5CBF014FB3AC6749B24B99A543","c9e0e50e-fed6-465e-9fa2-0a6010458fd0","5479079d-2186-49b2-89e2-e3afab6abcc2","","null","<div style=""display: flex; justify-content: center; align-items: center;"">
                <img src=""images/causal/causal_series_15/causal_series_15_b.jpg"" style=""width: 300px; height: 300px;"" />
              </div>","null",""
"","","","","","html-keyboard-response","85","294283","0.0-85.0","29BCAE5CBF014FB3AC6749B24B99A543","c9e0e50e-fed6-465e-9fa2-0a6010458fd0","5479079d-2186-49b2-89e2-e3afab6abcc2","","null","<div style=""display: flex; justify-content: center; align-items: center;"">
                <img src=""images/causal/causal_series_15/causal_series_15_c.jpg"" style=""width: 300px; height: 300px;"" />
              </div>","null",""
"","","","","","html-button-response","86","306097","0.0-86.0","29BCAE5CBF014FB3AC6749B24B99A543","c9e0e50e-fed6-465e-9fa2-0a6010458fd0","5479079d-2186-49b2-89e2-e3afab6abcc2","","11813","
    <div style=""display: flex; justify-content: center; align-items: center;"">
      <img src=""images/blue_deck_1.png"" style=""width: 300px; height: 300px; margin-right: 10px;"" />
      <img src=""images/red_deck_2.png"" style=""width: 300px; height: 300px;"" />
    </div>","0","0"
"","","","","","html-keyboard-response","87","309100","0.0-87.0-0.0-0.0","29BCAE5CBF014FB3AC6749B24B99A543","c9e0e50e-fed6-465e-9fa2-0a6010458fd0","5479079d-2186-49b2-89e2-e3afab6abcc2","","null","<div style=""display: flex; justify-content: center; align-items: center;"">
                <img src=""images/causal/causal_series_15/causal_series_15_d.jpg"" style=""width: 300px; height: 300px;"" />
              </div>","null",""
"","","","","","html-keyboard-response","88","312109","0.0-88.0","29BCAE5CBF014FB3AC6749B24B99A543","c9e0e50e-fed6-465e-9fa2-0a6010458fd0","5479079d-2186-49b2-89e2-e3afab6abcc2","","null","<div style=""display: flex; justify-content: center; align-items: center;"">
                <img src=""images/other/blank.jpg"" style=""width: 300px; height: 300px;"" />
              </div>","null",""
"","","","","","html-keyboard-response","89","315116","0.0-89.0","29BCAE5CBF014FB3AC6749B24B99A543","c9e0e50e-fed6-465e-9fa2-0a6010458fd0","5479079d-2186-49b2-89e2-e3afab6abcc2","","null","<div style=""display: flex; justify-content: center; align-items: center;"">
                <img src=""images/causal/causal_series_7/causal_series_7_a.jpg"" style=""width: 300px; height: 300px;"" />
              </div>","null",""
"","","","","","html-keyboard-response","90","318119","0.0-90.0","29BCAE5CBF014FB3AC6749B24B99A543","c9e0e50e-fed6-465e-9fa2-0a6010458fd0","5479079d-2186-49b2-89e2-e3afab6abcc2","","null","<div style=""display: flex; justify-content: center; align-items: center;"">
                <img src=""images/causal/causal_series_7/causal_series_7_b.jpg"" style=""width: 300px; height: 300px;"" />
              </div>","null",""
"","","","","","html-keyboard-response","91","321128","0.0-91.0","29BCAE5CBF014FB3AC6749B24B99A543","c9e0e50e-fed6-465e-9fa2-0a6010458fd0","5479079d-2186-49b2-89e2-e3afab6abcc2","","null","<div style=""display: flex; justify-content: center; align-items: center;"">
                <img src=""images/causal/causal_series_7/causal_series_7_c.jpg"" style=""width: 300px; height: 300px;"" />
              </div>","null",""
"","","","","","html-button-response","92","336704","0.0-92.0","29BCAE5CBF014FB3AC6749B24B99A543","c9e0e50e-fed6-465e-9fa2-0a6010458fd0","5479079d-2186-49b2-89e2-e3afab6abcc2","","15574","
    <div style=""display: flex; justify-content: center; align-items: center;"">
      <img src=""images/blue_deck_1.png"" style=""width: 300px; height: 300px; margin-right: 10px;"" />
      <img src=""images/red_deck_2.png"" style=""width: 300px; height: 300px;"" />
    </div>","1","1"
"","","","","","html-keyboard-response","93","339713","0.0-93.0-1.0-0.0","29BCAE5CBF014FB3AC6749B24B99A543","c9e0e50e-fed6-465e-9fa2-0a6010458fd0","5479079d-2186-49b2-89e2-e3afab6abcc2","","null","<div style=""display: flex; justify-content: center; align-items: center;"">
                <img src=""images/semantic/semantic_series_7/semantic_series_7_d.jpg"" style=""width: 300px; height: 300px;"" />
              </div>","null",""
"","","","","","html-keyboard-response","94","342716","0.0-94.0","29BCAE5CBF014FB3AC6749B24B99A543","c9e0e50e-fed6-465e-9fa2-0a6010458fd0","5479079d-2186-49b2-89e2-e3afab6abcc2","","null","<div style=""display: flex; justify-content: center; align-items: center;"">
                <img src=""images/other/blank.jpg"" style=""width: 300px; height: 300px;"" />
              </div>","null",""
"","","","","","html-keyboard-response","95","345724","0.0-95.0","29BCAE5CBF014FB3AC6749B24B99A543","c9e0e50e-fed6-465e-9fa2-0a6010458fd0","5479079d-2186-49b2-89e2-e3afab6abcc2","","null","<div style=""display: flex; justify-content: center; align-items: center;"">
                <img src=""images/causal/causal_series_10/causal_series_10_a.jpg"" style=""width: 300px; height: 300px;"" />
              </div>","null",""
"","","","","","html-keyboard-response","96","348729","0.0-96.0","29BCAE5CBF014FB3AC6749B24B99A543","c9e0e50e-fed6-465e-9fa2-0a6010458fd0","5479079d-2186-49b2-89e2-e3afab6abcc2","","null","<div style=""display: flex; justify-content: center; align-items: center;"">
                <img src=""images/causal/causal_series_10/causal_series_10_b.jpg"" style=""width: 300px; height: 300px;"" />
              </div>","null",""
"","","","","","html-keyboard-response","97","351739","0.0-97.0","29BCAE5CBF014FB3AC6749B24B99A543","c9e0e50e-fed6-465e-9fa2-0a6010458fd0","5479079d-2186-49b2-89e2-e3afab6abcc2","","null","<div style=""display: flex; justify-content: center; align-items: center;"">
                <img src=""images/causal/causal_series_10/causal_series_10_c.jpg"" style=""width: 300px; height: 300px;"" />
              </div>","null",""
"","","","","","html-button-response","98","355593","0.0-98.0","29BCAE5CBF014FB3AC6749B24B99A543","c9e0e50e-fed6-465e-9fa2-0a6010458fd0","5479079d-2186-49b2-89e2-e3afab6abcc2","","3852","
    <div style=""display: flex; justify-content: center; align-items: center;"">
      <img src=""images/blue_deck_1.png"" style=""width: 300px; height: 300px; margin-right: 10px;"" />
      <img src=""images/red_deck_2.png"" style=""width: 300px; height: 300px;"" />
    </div>","1","1"
"","","","","","html-keyboard-response","99","358594","0.0-99.0-1.0-0.0","29BCAE5CBF014FB3AC6749B24B99A543","c9e0e50e-fed6-465e-9fa2-0a6010458fd0","5479079d-2186-49b2-89e2-e3afab6abcc2","","null","<div style=""display: flex; justify-content: center; align-items: center;"">
                <img src=""images/semantic/semantic_series_10/semantic_series_10_d.jpg"" style=""width: 300px; height: 300px;"" />
              </div>","null",""
"","","","","","html-keyboard-response","100","361598","0.0-100.0","29BCAE5CBF014FB3AC6749B24B99A543","c9e0e50e-fed6-465e-9fa2-0a6010458fd0","5479079d-2186-49b2-89e2-e3afab6abcc2","","null","<div style=""display: flex; justify-content: center; align-items: center;"">
                <img src=""images/other/blank.jpg"" style=""width: 300px; height: 300px;"" />
              </div>","null",""
"","","","","","html-keyboard-response","101","364600","0.0-101.0","29BCAE5CBF014FB3AC6749B24B99A543","c9e0e50e-fed6-465e-9fa2-0a6010458fd0","5479079d-2186-49b2-89e2-e3afab6abcc2","","null","<div style=""display: flex; justify-content: center; align-items: center;"">
                <img src=""images/causal/causal_series_12/causal_series_12_a.jpg"" style=""width: 300px; height: 300px;"" />
              </div>","null",""
"","","","","","html-keyboard-response","102","367612","0.0-102.0","29BCAE5CBF014FB3AC6749B24B99A543","c9e0e50e-fed6-465e-9fa2-0a6010458fd0","5479079d-2186-49b2-89e2-e3afab6abcc2","","null","<div style=""display: flex; justify-content: center; align-items: center;"">
                <img src=""images/causal/causal_series_12/causal_series_12_b.jpg"" style=""width: 300px; height: 300px;"" />
              </div>","null",""
"","","","","","html-keyboard-response","103","370618","0.0-103.0","29BCAE5CBF014FB3AC6749B24B99A543","c9e0e50e-fed6-465e-9fa2-0a6010458fd0","5479079d-2186-49b2-89e2-e3afab6abcc2","","null","<div style=""display: flex; justify-content: center; align-items: center;"">
                <img src=""images/causal/causal_series_12/causal_series_12_c.jpg"" style=""width: 300px; height: 300px;"" />
              </div>","null",""
"","","","","","html-button-response","104","372167","0.0-104.0","29BCAE5CBF014FB3AC6749B24B99A543","c9e0e50e-fed6-465e-9fa2-0a6010458fd0","5479079d-2186-49b2-89e2-e3afab6abcc2","","1548","
    <div style=""display: flex; justify-content: center; align-items: center;"">
      <img src=""images/blue_deck_1.png"" style=""width: 300px; height: 300px; margin-right: 10px;"" />
      <img src=""images/red_deck_2.png"" style=""width: 300px; height: 300px;"" />
    </div>","0","0"
"","","","","","html-keyboard-response","105","375183","0.0-105.0-0.0-0.0","29BCAE5CBF014FB3AC6749B24B99A543","c9e0e50e-fed6-465e-9fa2-0a6010458fd0","5479079d-2186-49b2-89e2-e3afab6abcc2","","null","<div style=""display: flex; justify-content: center; align-items: center;"">
                <img src=""images/causal/causal_series_12/causal_series_12_d.jpg"" style=""width: 300px; height: 300px;"" />
              </div>","null",""
"","","","","","html-keyboard-response","106","378187","0.0-106.0","29BCAE5CBF014FB3AC6749B24B99A543","c9e0e50e-fed6-465e-9fa2-0a6010458fd0","5479079d-2186-49b2-89e2-e3afab6abcc2","","null","<div style=""display: flex; justify-content: center; align-items: center;"">
                <img src=""images/other/blank.jpg"" style=""width: 300px; height: 300px;"" />
              </div>","null",""
"","","","","","html-keyboard-response","107","381197","0.0-107.0","29BCAE5CBF014FB3AC6749B24B99A543","c9e0e50e-fed6-465e-9fa2-0a6010458fd0","5479079d-2186-49b2-89e2-e3afab6abcc2","","null","<div style=""display: flex; justify-content: center; align-items: center;"">
                <img src=""images/causal/causal_series_13/causal_series_13_a.jpg"" style=""width: 300px; height: 300px;"" />
              </div>","null",""
"","","","","","html-keyboard-response","108","384201","0.0-108.0","29BCAE5CBF014FB3AC6749B24B99A543","c9e0e50e-fed6-465e-9fa2-0a6010458fd0","5479079d-2186-49b2-89e2-e3afab6abcc2","","null","<div style=""display: flex; justify-content: center; align-items: center;"">
                <img src=""images/causal/causal_series_13/causal_series_13_b.jpg"" style=""width: 300px; height: 300px;"" />
              </div>","null",""
"","","","","","html-keyboard-response","109","387206","0.0-109.0","29BCAE5CBF014FB3AC6749B24B99A543","c9e0e50e-fed6-465e-9fa2-0a6010458fd0","5479079d-2186-49b2-89e2-e3afab6abcc2","","null","<div style=""display: flex; justify-content: center; align-items: center;"">
                <img src=""images/causal/causal_series_13/causal_series_13_c.jpg"" style=""width: 300px; height: 300px;"" />
              </div>","null",""
"","","","","","html-button-response","110","388481","0.0-110.0","29BCAE5CBF014FB3AC6749B24B99A543","c9e0e50e-fed6-465e-9fa2-0a6010458fd0","5479079d-2186-49b2-89e2-e3afab6abcc2","","1274","
    <div style=""display: flex; justify-content: center; align-items: center;"">
      <img src=""images/blue_deck_1.png"" style=""width: 300px; height: 300px; margin-right: 10px;"" />
      <img src=""images/red_deck_2.png"" style=""width: 300px; height: 300px;"" />
    </div>","1","1"
"","","","","","html-keyboard-response","111","391488","0.0-111.0-1.0-0.0","29BCAE5CBF014FB3AC6749B24B99A543","c9e0e50e-fed6-465e-9fa2-0a6010458fd0","5479079d-2186-49b2-89e2-e3afab6abcc2","","null","<div style=""display: flex; justify-content: center; align-items: center;"">
                <img src=""images/semantic/semantic_series_13/semantic_series_13_d.jpg"" style=""width: 300px; height: 300px;"" />
              </div>","null",""
"","","","","","html-keyboard-response","112","394496","0.0-112.0","29BCAE5CBF014FB3AC6749B24B99A543","c9e0e50e-fed6-465e-9fa2-0a6010458fd0","5479079d-2186-49b2-89e2-e3afab6abcc2","","null","<div style=""display: flex; justify-content: center; align-items: center;"">
                <img src=""images/other/blank.jpg"" style=""width: 300px; height: 300px;"" />
              </div>","null",""
"","","","","","survey-text","113","407993","0.0-113.0","29BCAE5CBF014FB3AC6749B24B99A543","c9e0e50e-fed6-465e-9fa2-0a6010458fd0","5479079d-2186-49b2-89e2-e3afab6abcc2","","13492","","{""Q0"":""Not really""}",""
"","","","","","survey-text","114","416499","0.0-114.0","29BCAE5CBF014FB3AC6749B24B99A543","c9e0e50e-fed6-465e-9fa2-0a6010458fd0","5479079d-2186-49b2-89e2-e3afab6abcc2","","8502","","{""Q0"":""both were interesting""}",""
"","","","","","html-button-response","115","424382","0.0-115.0","29BCAE5CBF014FB3AC6749B24B99A543","c9e0e50e-fed6-465e-9fa2-0a6010458fd0","5479079d-2186-49b2-89e2-e3afab6abcc2","","7882","Which color deck does the fourth image continue the story from the series?","1",""
"","","","","","html-button-response","116","427867","0.0-116.0","29BCAE5CBF014FB3AC6749B24B99A543","c9e0e50e-fed6-465e-9fa2-0a6010458fd0","5479079d-2186-49b2-89e2-e3afab6abcc2","","3483","Which color deck does the fourth image not follow the story from the series?","0",""
"","","","","","survey-text","117","435188","0.0-117.0","29BCAE5CBF014FB3AC6749B24B99A543","c9e0e50e-fed6-465e-9fa2-0a6010458fd0","5479079d-2186-49b2-89e2-e3afab6abcc2","","7317","","{""Q0"":""female"",""Q1"":""29""}",""
"","","","","","instructions","118","440467","0.0-118.0","29BCAE5CBF014FB3AC6749B24B99A543","c9e0e50e-fed6-465e-9fa2-0a6010458fd0","5479079d-2186-49b2-89e2-e3afab6abcc2","[{""page_index"":0,""viewing_time"":5278}]","5278","","",""
