"success","timeout","failed_images","failed_audio","failed_video","trial_type","trial_index","time_elapsed","internal_node_id","subject","subject_id","study_id","session_id","urlvar","current_url","view_history","rt","stimulus","response","choice","question_order"
"true","false","[]","[]","[]","preload","0","557","0.0-0.0","1189B8FB342744EDA833A3F353E5D098","1189B8FB342744EDA833A3F353E5D098","5d291c17-9384-4c99-8405-842cb8ba1133","bea99957-1862-4ad8-9558-57b91e42ce64","{""participantId"":""1189B8FB342744EDA833A3F353E5D098"",""assignmentId"":""5d291c17-9384-4c99-8405-842cb8ba1133"",""projectId"":""bea99957-1862-4ad8-9558-57b91e42ce64""}","https://test12345.live/?participantId=1189B8FB342744EDA833A3F353E5D098&assignmentId=5d291c17-9384-4c99-8405-842cb8ba1133&projectId=bea99957-1862-4ad8-9558-57b91e42ce64","","","","","",""
"","","","","","instructions","1","18760","0.0-1.0","1189B8FB342744EDA833A3F353E5D098","1189B8FB342744EDA833A3F353E5D098","5d291c17-9384-4c99-8405-842cb8ba1133","bea99957-1862-4ad8-9558-57b91e42ce64","{""participantId"":""1189B8FB342744EDA833A3F353E5D098"",""assignmentId"":""5d291c17-9384-4c99-8405-842cb8ba1133"",""projectId"":""bea99957-1862-4ad8-9558-57b91e42ce64""}","https://test12345.live/?participantId=1189B8FB342744EDA833A3F353E5D098&assignmentId=5d291c17-9384-4c99-8405-842cb8ba1133&projectId=bea99957-1862-4ad8-9558-57b91e42ce64","[{""page_index"":0,""viewing_time"":18202}]","18203","","","",""
"","","","","","instructions","2","39660","0.0-2.0","1189B8FB342744EDA833A3F353E5D098","1189B8FB342744EDA833A3F353E5D098","5d291c17-9384-4c99-8405-842cb8ba1133","bea99957-1862-4ad8-9558-57b91e42ce64","{""participantId"":""1189B8FB342744EDA833A3F353E5D098"",""assignmentId"":""5d291c17-9384-4c99-8405-842cb8ba1133"",""projectId"":""bea99957-1862-4ad8-9558-57b91e42ce64""}","https://test12345.live/?participantId=1189B8FB342744EDA833A3F353E5D098&assignmentId=5d291c17-9384-4c99-8405-842cb8ba1133&projectId=bea99957-1862-4ad8-9558-57b91e42ce64","[{""page_index"":0,""viewing_time"":20899}]","20899","","","",""
"true","","","","","fullscreen","3","45482","0.0-3.0","1189B8FB342744EDA833A3F353E5D098","1189B8FB342744EDA833A3F353E5D098","5d291c17-9384-4c99-8405-842cb8ba1133","bea99957-1862-4ad8-9558-57b91e42ce64","{""participantId"":""1189B8FB342744EDA833A3F353E5D098"",""assignmentId"":""5d291c17-9384-4c99-8405-842cb8ba1133"",""projectId"":""bea99957-1862-4ad8-9558-57b91e42ce64""}","https://test12345.live/?participantId=1189B8FB342744EDA833A3F353E5D098&assignmentId=5d291c17-9384-4c99-8405-842cb8ba1133&projectId=bea99957-1862-4ad8-9558-57b91e42ce64","","4816","","","",""
"","","","","","instructions","4","56209","0.0-4.0","1189B8FB342744EDA833A3F353E5D098","1189B8FB342744EDA833A3F353E5D098","5d291c17-9384-4c99-8405-842cb8ba1133","bea99957-1862-4ad8-9558-57b91e42ce64","{""participantId"":""1189B8FB342744EDA833A3F353E5D098"",""assignmentId"":""5d291c17-9384-4c99-8405-842cb8ba1133"",""projectId"":""bea99957-1862-4ad8-9558-57b91e42ce64""}","https://test12345.live/?participantId=1189B8FB342744EDA833A3F353E5D098&assignmentId=5d291c17-9384-4c99-8405-842cb8ba1133&projectId=bea99957-1862-4ad8-9558-57b91e42ce64","[{""page_index"":0,""viewing_time"":10726}]","10726","","","",""
"","","","","","html-button-response","5","59311","0.0-5.0","1189B8FB342744EDA833A3F353E5D098","1189B8FB342744EDA833A3F353E5D098","5d291c17-9384-4c99-8405-842cb8ba1133","bea99957-1862-4ad8-9558-57b91e42ce64","{""participantId"":""1189B8FB342744EDA833A3F353E5D098"",""assignmentId"":""5d291c17-9384-4c99-8405-842cb8ba1133"",""projectId"":""bea99957-1862-4ad8-9558-57b91e42ce64""}","https://test12345.live/?participantId=1189B8FB342744EDA833A3F353E5D098&assignmentId=5d291c17-9384-4c99-8405-842cb8ba1133&projectId=bea99957-1862-4ad8-9558-57b91e42ce64","","3100","
    <div style=""display: flex; justify-content: center; align-items: center;"">
      <img src=""images/red_deck_2.png"" style=""width: 300px; height: 300px; margin-right: 10px;"" />
      <img src=""images/blue_deck_1.png"" style=""width: 300px; height: 300px;"" />
    </div>","1","1",""
"","","","","","html-keyboard-response","6","62324","0.0-6.0-0.0","1189B8FB342744EDA833A3F353E5D098","1189B8FB342744EDA833A3F353E5D098","5d291c17-9384-4c99-8405-842cb8ba1133","bea99957-1862-4ad8-9558-57b91e42ce64","{""participantId"":""1189B8FB342744EDA833A3F353E5D098"",""assignmentId"":""5d291c17-9384-4c99-8405-842cb8ba1133"",""projectId"":""bea99957-1862-4ad8-9558-57b91e42ce64""}","https://test12345.live/?participantId=1189B8FB342744EDA833A3F353E5D098&assignmentId=5d291c17-9384-4c99-8405-842cb8ba1133&projectId=bea99957-1862-4ad8-9558-57b91e42ce64","","null","<div style=""display: flex; justify-content: center; align-items: center;"">
                    <img src=""images/causal/causal_series_8/causal_series_8_a.jpg"" style=""width: 300px; height: 300px;"" />
                  </div>","null","",""
"","","","","","html-keyboard-response","7","65334","0.0-6.0-1.0","1189B8FB342744EDA833A3F353E5D098","1189B8FB342744EDA833A3F353E5D098","5d291c17-9384-4c99-8405-842cb8ba1133","bea99957-1862-4ad8-9558-57b91e42ce64","{""participantId"":""1189B8FB342744EDA833A3F353E5D098"",""assignmentId"":""5d291c17-9384-4c99-8405-842cb8ba1133"",""projectId"":""bea99957-1862-4ad8-9558-57b91e42ce64""}","https://test12345.live/?participantId=1189B8FB342744EDA833A3F353E5D098&assignmentId=5d291c17-9384-4c99-8405-842cb8ba1133&projectId=bea99957-1862-4ad8-9558-57b91e42ce64","","null","<div style=""display: flex; justify-content: center; align-items: center;"">
                    <img src=""images/causal/causal_series_8/causal_series_8_b.jpg"" style=""width: 300px; height: 300px;"" />
                  </div>","null","",""
"","","","","","html-keyboard-response","8","68345","0.0-6.0-2.0","1189B8FB342744EDA833A3F353E5D098","1189B8FB342744EDA833A3F353E5D098","5d291c17-9384-4c99-8405-842cb8ba1133","bea99957-1862-4ad8-9558-57b91e42ce64","{""participantId"":""1189B8FB342744EDA833A3F353E5D098"",""assignmentId"":""5d291c17-9384-4c99-8405-842cb8ba1133"",""projectId"":""bea99957-1862-4ad8-9558-57b91e42ce64""}","https://test12345.live/?participantId=1189B8FB342744EDA833A3F353E5D098&assignmentId=5d291c17-9384-4c99-8405-842cb8ba1133&projectId=bea99957-1862-4ad8-9558-57b91e42ce64","","null","<div style=""display: flex; justify-content: center; align-items: center;"">
                    <img src=""images/causal/causal_series_8/causal_series_8_c.jpg"" style=""width: 300px; height: 300px;"" />
                  </div>","null","",""
"","","","","","html-keyboard-response","9","71351","0.0-6.0-3.0","1189B8FB342744EDA833A3F353E5D098","1189B8FB342744EDA833A3F353E5D098","5d291c17-9384-4c99-8405-842cb8ba1133","bea99957-1862-4ad8-9558-57b91e42ce64","{""participantId"":""1189B8FB342744EDA833A3F353E5D098"",""assignmentId"":""5d291c17-9384-4c99-8405-842cb8ba1133"",""projectId"":""bea99957-1862-4ad8-9558-57b91e42ce64""}","https://test12345.live/?participantId=1189B8FB342744EDA833A3F353E5D098&assignmentId=5d291c17-9384-4c99-8405-842cb8ba1133&projectId=bea99957-1862-4ad8-9558-57b91e42ce64","","null","<div style=""display: flex; justify-content: center; align-items: center;"">
                    <img src=""images/causal/causal_series_8/causal_series_8_d.jpg"" style=""width: 300px; height: 300px;"" />
                  </div>","null","",""
"","","","","","html-button-response","10","76060","0.0-8.0","1189B8FB342744EDA833A3F353E5D098","1189B8FB342744EDA833A3F353E5D098","5d291c17-9384-4c99-8405-842cb8ba1133","bea99957-1862-4ad8-9558-57b91e42ce64","{""participantId"":""1189B8FB342744EDA833A3F353E5D098"",""assignmentId"":""5d291c17-9384-4c99-8405-842cb8ba1133"",""projectId"":""bea99957-1862-4ad8-9558-57b91e42ce64""}","https://test12345.live/?participantId=1189B8FB342744EDA833A3F353E5D098&assignmentId=5d291c17-9384-4c99-8405-842cb8ba1133&projectId=bea99957-1862-4ad8-9558-57b91e42ce64","","4706","Was there a person in the picture?","0","",""
"","","","","","survey-likert","11","82094","0.0-9.0","1189B8FB342744EDA833A3F353E5D098","1189B8FB342744EDA833A3F353E5D098","5d291c17-9384-4c99-8405-842cb8ba1133","bea99957-1862-4ad8-9558-57b91e42ce64","{""participantId"":""1189B8FB342744EDA833A3F353E5D098"",""assignmentId"":""5d291c17-9384-4c99-8405-842cb8ba1133"",""projectId"":""bea99957-1862-4ad8-9558-57b91e42ce64""}","https://test12345.live/?participantId=1189B8FB342744EDA833A3F353E5D098&assignmentId=5d291c17-9384-4c99-8405-842cb8ba1133&projectId=bea99957-1862-4ad8-9558-57b91e42ce64","","6032","","{""Q0"":2}","","[0]"
"","","","","","html-button-response","12","88183","0.0-10.0","1189B8FB342744EDA833A3F353E5D098","1189B8FB342744EDA833A3F353E5D098","5d291c17-9384-4c99-8405-842cb8ba1133","bea99957-1862-4ad8-9558-57b91e42ce64","{""participantId"":""1189B8FB342744EDA833A3F353E5D098"",""assignmentId"":""5d291c17-9384-4c99-8405-842cb8ba1133"",""projectId"":""bea99957-1862-4ad8-9558-57b91e42ce64""}","https://test12345.live/?participantId=1189B8FB342744EDA833A3F353E5D098&assignmentId=5d291c17-9384-4c99-8405-842cb8ba1133&projectId=bea99957-1862-4ad8-9558-57b91e42ce64","","6086","
    <div style=""display: flex; justify-content: center; align-items: center;"">
      <img src=""images/red_deck_2.png"" style=""width: 300px; height: 300px; margin-right: 10px;"" />
      <img src=""images/blue_deck_1.png"" style=""width: 300px; height: 300px;"" />
    </div>","1","1",""
"","","","","","html-keyboard-response","13","91188","0.0-11.0-0.0","1189B8FB342744EDA833A3F353E5D098","1189B8FB342744EDA833A3F353E5D098","5d291c17-9384-4c99-8405-842cb8ba1133","bea99957-1862-4ad8-9558-57b91e42ce64","{""participantId"":""1189B8FB342744EDA833A3F353E5D098"",""assignmentId"":""5d291c17-9384-4c99-8405-842cb8ba1133"",""projectId"":""bea99957-1862-4ad8-9558-57b91e42ce64""}","https://test12345.live/?participantId=1189B8FB342744EDA833A3F353E5D098&assignmentId=5d291c17-9384-4c99-8405-842cb8ba1133&projectId=bea99957-1862-4ad8-9558-57b91e42ce64","","null","<div style=""display: flex; justify-content: center; align-items: center;"">
                    <img src=""images/causal/causal_series_12/causal_series_12_a.jpg"" style=""width: 300px; height: 300px;"" />
                  </div>","null","",""
"","","","","","html-keyboard-response","14","94203","0.0-11.0-1.0","1189B8FB342744EDA833A3F353E5D098","1189B8FB342744EDA833A3F353E5D098","5d291c17-9384-4c99-8405-842cb8ba1133","bea99957-1862-4ad8-9558-57b91e42ce64","{""participantId"":""1189B8FB342744EDA833A3F353E5D098"",""assignmentId"":""5d291c17-9384-4c99-8405-842cb8ba1133"",""projectId"":""bea99957-1862-4ad8-9558-57b91e42ce64""}","https://test12345.live/?participantId=1189B8FB342744EDA833A3F353E5D098&assignmentId=5d291c17-9384-4c99-8405-842cb8ba1133&projectId=bea99957-1862-4ad8-9558-57b91e42ce64","","null","<div style=""display: flex; justify-content: center; align-items: center;"">
                    <img src=""images/causal/causal_series_12/causal_series_12_b.jpg"" style=""width: 300px; height: 300px;"" />
                  </div>","null","",""
"","","","","","html-keyboard-response","15","97205","0.0-11.0-2.0","1189B8FB342744EDA833A3F353E5D098","1189B8FB342744EDA833A3F353E5D098","5d291c17-9384-4c99-8405-842cb8ba1133","bea99957-1862-4ad8-9558-57b91e42ce64","{""participantId"":""1189B8FB342744EDA833A3F353E5D098"",""assignmentId"":""5d291c17-9384-4c99-8405-842cb8ba1133"",""projectId"":""bea99957-1862-4ad8-9558-57b91e42ce64""}","https://test12345.live/?participantId=1189B8FB342744EDA833A3F353E5D098&assignmentId=5d291c17-9384-4c99-8405-842cb8ba1133&projectId=bea99957-1862-4ad8-9558-57b91e42ce64","","null","<div style=""display: flex; justify-content: center; align-items: center;"">
                    <img src=""images/causal/causal_series_12/causal_series_12_c.jpg"" style=""width: 300px; height: 300px;"" />
                  </div>","null","",""
"","","","","","html-keyboard-response","16","100220","0.0-11.0-3.0","1189B8FB342744EDA833A3F353E5D098","1189B8FB342744EDA833A3F353E5D098","5d291c17-9384-4c99-8405-842cb8ba1133","bea99957-1862-4ad8-9558-57b91e42ce64","{""participantId"":""1189B8FB342744EDA833A3F353E5D098"",""assignmentId"":""5d291c17-9384-4c99-8405-842cb8ba1133"",""projectId"":""bea99957-1862-4ad8-9558-57b91e42ce64""}","https://test12345.live/?participantId=1189B8FB342744EDA833A3F353E5D098&assignmentId=5d291c17-9384-4c99-8405-842cb8ba1133&projectId=bea99957-1862-4ad8-9558-57b91e42ce64","","null","<div style=""display: flex; justify-content: center; align-items: center;"">
                    <img src=""images/causal/causal_series_12/causal_series_12_d.jpg"" style=""width: 300px; height: 300px;"" />
                  </div>","null","",""
"","","","","","html-button-response","17","103084","0.0-13.0","1189B8FB342744EDA833A3F353E5D098","1189B8FB342744EDA833A3F353E5D098","5d291c17-9384-4c99-8405-842cb8ba1133","bea99957-1862-4ad8-9558-57b91e42ce64","{""participantId"":""1189B8FB342744EDA833A3F353E5D098"",""assignmentId"":""5d291c17-9384-4c99-8405-842cb8ba1133"",""projectId"":""bea99957-1862-4ad8-9558-57b91e42ce64""}","https://test12345.live/?participantId=1189B8FB342744EDA833A3F353E5D098&assignmentId=5d291c17-9384-4c99-8405-842cb8ba1133&projectId=bea99957-1862-4ad8-9558-57b91e42ce64","","2862","Was there a person in the picture?","1","",""
"","","","","","survey-likert","18","108433","0.0-14.0","1189B8FB342744EDA833A3F353E5D098","1189B8FB342744EDA833A3F353E5D098","5d291c17-9384-4c99-8405-842cb8ba1133","bea99957-1862-4ad8-9558-57b91e42ce64","{""participantId"":""1189B8FB342744EDA833A3F353E5D098"",""assignmentId"":""5d291c17-9384-4c99-8405-842cb8ba1133"",""projectId"":""bea99957-1862-4ad8-9558-57b91e42ce64""}","https://test12345.live/?participantId=1189B8FB342744EDA833A3F353E5D098&assignmentId=5d291c17-9384-4c99-8405-842cb8ba1133&projectId=bea99957-1862-4ad8-9558-57b91e42ce64","","5348","","{""Q0"":2}","","[0]"
"","","","","","html-button-response","19","111168","0.0-15.0","1189B8FB342744EDA833A3F353E5D098","1189B8FB342744EDA833A3F353E5D098","5d291c17-9384-4c99-8405-842cb8ba1133","bea99957-1862-4ad8-9558-57b91e42ce64","{""participantId"":""1189B8FB342744EDA833A3F353E5D098"",""assignmentId"":""5d291c17-9384-4c99-8405-842cb8ba1133"",""projectId"":""bea99957-1862-4ad8-9558-57b91e42ce64""}","https://test12345.live/?participantId=1189B8FB342744EDA833A3F353E5D098&assignmentId=5d291c17-9384-4c99-8405-842cb8ba1133&projectId=bea99957-1862-4ad8-9558-57b91e42ce64","","2732","
    <div style=""display: flex; justify-content: center; align-items: center;"">
      <img src=""images/red_deck_2.png"" style=""width: 300px; height: 300px; margin-right: 10px;"" />
      <img src=""images/blue_deck_1.png"" style=""width: 300px; height: 300px;"" />
    </div>","0","0",""
"","","","","","html-keyboard-response","20","114170","0.0-17.0-0.0","1189B8FB342744EDA833A3F353E5D098","1189B8FB342744EDA833A3F353E5D098","5d291c17-9384-4c99-8405-842cb8ba1133","bea99957-1862-4ad8-9558-57b91e42ce64","{""participantId"":""1189B8FB342744EDA833A3F353E5D098"",""assignmentId"":""5d291c17-9384-4c99-8405-842cb8ba1133"",""projectId"":""bea99957-1862-4ad8-9558-57b91e42ce64""}","https://test12345.live/?participantId=1189B8FB342744EDA833A3F353E5D098&assignmentId=5d291c17-9384-4c99-8405-842cb8ba1133&projectId=bea99957-1862-4ad8-9558-57b91e42ce64","","null","<div style=""display: flex; justify-content: center; align-items: center;"">
                    <img src=""images/semantic/semantic_series_8/semantic_series_8_a.jpg"" style=""width: 300px; height: 300px;"" />
                  </div>","null","",""
"","","","","","html-keyboard-response","21","117171","0.0-17.0-1.0","1189B8FB342744EDA833A3F353E5D098","1189B8FB342744EDA833A3F353E5D098","5d291c17-9384-4c99-8405-842cb8ba1133","bea99957-1862-4ad8-9558-57b91e42ce64","{""participantId"":""1189B8FB342744EDA833A3F353E5D098"",""assignmentId"":""5d291c17-9384-4c99-8405-842cb8ba1133"",""projectId"":""bea99957-1862-4ad8-9558-57b91e42ce64""}","https://test12345.live/?participantId=1189B8FB342744EDA833A3F353E5D098&assignmentId=5d291c17-9384-4c99-8405-842cb8ba1133&projectId=bea99957-1862-4ad8-9558-57b91e42ce64","","null","<div style=""display: flex; justify-content: center; align-items: center;"">
                    <img src=""images/semantic/semantic_series_8/semantic_series_8_b.jpg"" style=""width: 300px; height: 300px;"" />
                  </div>","null","",""
"","","","","","html-keyboard-response","22","120174","0.0-17.0-2.0","1189B8FB342744EDA833A3F353E5D098","1189B8FB342744EDA833A3F353E5D098","5d291c17-9384-4c99-8405-842cb8ba1133","bea99957-1862-4ad8-9558-57b91e42ce64","{""participantId"":""1189B8FB342744EDA833A3F353E5D098"",""assignmentId"":""5d291c17-9384-4c99-8405-842cb8ba1133"",""projectId"":""bea99957-1862-4ad8-9558-57b91e42ce64""}","https://test12345.live/?participantId=1189B8FB342744EDA833A3F353E5D098&assignmentId=5d291c17-9384-4c99-8405-842cb8ba1133&projectId=bea99957-1862-4ad8-9558-57b91e42ce64","","null","<div style=""display: flex; justify-content: center; align-items: center;"">
                    <img src=""images/semantic/semantic_series_8/semantic_series_8_c.jpg"" style=""width: 300px; height: 300px;"" />
                  </div>","null","",""
"","","","","","html-keyboard-response","23","123188","0.0-17.0-3.0","1189B8FB342744EDA833A3F353E5D098","1189B8FB342744EDA833A3F353E5D098","5d291c17-9384-4c99-8405-842cb8ba1133","bea99957-1862-4ad8-9558-57b91e42ce64","{""participantId"":""1189B8FB342744EDA833A3F353E5D098"",""assignmentId"":""5d291c17-9384-4c99-8405-842cb8ba1133"",""projectId"":""bea99957-1862-4ad8-9558-57b91e42ce64""}","https://test12345.live/?participantId=1189B8FB342744EDA833A3F353E5D098&assignmentId=5d291c17-9384-4c99-8405-842cb8ba1133&projectId=bea99957-1862-4ad8-9558-57b91e42ce64","","null","<div style=""display: flex; justify-content: center; align-items: center;"">
                    <img src=""images/semantic/semantic_series_8/semantic_series_8_d.jpg"" style=""width: 300px; height: 300px;"" />
                  </div>","null","",""
"","","","","","html-button-response","24","125103","0.0-18.0","1189B8FB342744EDA833A3F353E5D098","1189B8FB342744EDA833A3F353E5D098","5d291c17-9384-4c99-8405-842cb8ba1133","bea99957-1862-4ad8-9558-57b91e42ce64","{""participantId"":""1189B8FB342744EDA833A3F353E5D098"",""assignmentId"":""5d291c17-9384-4c99-8405-842cb8ba1133"",""projectId"":""bea99957-1862-4ad8-9558-57b91e42ce64""}","https://test12345.live/?participantId=1189B8FB342744EDA833A3F353E5D098&assignmentId=5d291c17-9384-4c99-8405-842cb8ba1133&projectId=bea99957-1862-4ad8-9558-57b91e42ce64","","1913","Was there a person in the picture?","1","",""
"","","","","","survey-likert","25","128331","0.0-19.0","1189B8FB342744EDA833A3F353E5D098","1189B8FB342744EDA833A3F353E5D098","5d291c17-9384-4c99-8405-842cb8ba1133","bea99957-1862-4ad8-9558-57b91e42ce64","{""participantId"":""1189B8FB342744EDA833A3F353E5D098"",""assignmentId"":""5d291c17-9384-4c99-8405-842cb8ba1133"",""projectId"":""bea99957-1862-4ad8-9558-57b91e42ce64""}","https://test12345.live/?participantId=1189B8FB342744EDA833A3F353E5D098&assignmentId=5d291c17-9384-4c99-8405-842cb8ba1133&projectId=bea99957-1862-4ad8-9558-57b91e42ce64","","3227","","{""Q0"":2}","","[0]"
"","","","","","html-button-response","26","130096","0.0-20.0","1189B8FB342744EDA833A3F353E5D098","1189B8FB342744EDA833A3F353E5D098","5d291c17-9384-4c99-8405-842cb8ba1133","bea99957-1862-4ad8-9558-57b91e42ce64","{""participantId"":""1189B8FB342744EDA833A3F353E5D098"",""assignmentId"":""5d291c17-9384-4c99-8405-842cb8ba1133"",""projectId"":""bea99957-1862-4ad8-9558-57b91e42ce64""}","https://test12345.live/?participantId=1189B8FB342744EDA833A3F353E5D098&assignmentId=5d291c17-9384-4c99-8405-842cb8ba1133&projectId=bea99957-1862-4ad8-9558-57b91e42ce64","","1764","
    <div style=""display: flex; justify-content: center; align-items: center;"">
      <img src=""images/red_deck_2.png"" style=""width: 300px; height: 300px; margin-right: 10px;"" />
      <img src=""images/blue_deck_1.png"" style=""width: 300px; height: 300px;"" />
    </div>","1","1",""
"","","","","","html-keyboard-response","27","133103","0.0-21.0-0.0","1189B8FB342744EDA833A3F353E5D098","1189B8FB342744EDA833A3F353E5D098","5d291c17-9384-4c99-8405-842cb8ba1133","bea99957-1862-4ad8-9558-57b91e42ce64","{""participantId"":""1189B8FB342744EDA833A3F353E5D098"",""assignmentId"":""5d291c17-9384-4c99-8405-842cb8ba1133"",""projectId"":""bea99957-1862-4ad8-9558-57b91e42ce64""}","https://test12345.live/?participantId=1189B8FB342744EDA833A3F353E5D098&assignmentId=5d291c17-9384-4c99-8405-842cb8ba1133&projectId=bea99957-1862-4ad8-9558-57b91e42ce64","","null","<div style=""display: flex; justify-content: center; align-items: center;"">
                    <img src=""images/causal/causal_series_13/causal_series_13_a.jpg"" style=""width: 300px; height: 300px;"" />
                  </div>","null","",""
"","","","","","html-keyboard-response","28","136105","0.0-21.0-1.0","1189B8FB342744EDA833A3F353E5D098","1189B8FB342744EDA833A3F353E5D098","5d291c17-9384-4c99-8405-842cb8ba1133","bea99957-1862-4ad8-9558-57b91e42ce64","{""participantId"":""1189B8FB342744EDA833A3F353E5D098"",""assignmentId"":""5d291c17-9384-4c99-8405-842cb8ba1133"",""projectId"":""bea99957-1862-4ad8-9558-57b91e42ce64""}","https://test12345.live/?participantId=1189B8FB342744EDA833A3F353E5D098&assignmentId=5d291c17-9384-4c99-8405-842cb8ba1133&projectId=bea99957-1862-4ad8-9558-57b91e42ce64","","null","<div style=""display: flex; justify-content: center; align-items: center;"">
                    <img src=""images/causal/causal_series_13/causal_series_13_b.jpg"" style=""width: 300px; height: 300px;"" />
                  </div>","null","",""
"","","","","","html-keyboard-response","29","139122","0.0-21.0-2.0","1189B8FB342744EDA833A3F353E5D098","1189B8FB342744EDA833A3F353E5D098","5d291c17-9384-4c99-8405-842cb8ba1133","bea99957-1862-4ad8-9558-57b91e42ce64","{""participantId"":""1189B8FB342744EDA833A3F353E5D098"",""assignmentId"":""5d291c17-9384-4c99-8405-842cb8ba1133"",""projectId"":""bea99957-1862-4ad8-9558-57b91e42ce64""}","https://test12345.live/?participantId=1189B8FB342744EDA833A3F353E5D098&assignmentId=5d291c17-9384-4c99-8405-842cb8ba1133&projectId=bea99957-1862-4ad8-9558-57b91e42ce64","","null","<div style=""display: flex; justify-content: center; align-items: center;"">
                    <img src=""images/causal/causal_series_13/causal_series_13_c.jpg"" style=""width: 300px; height: 300px;"" />
                  </div>","null","",""
"","","","","","html-keyboard-response","30","142122","0.0-21.0-3.0","1189B8FB342744EDA833A3F353E5D098","1189B8FB342744EDA833A3F353E5D098","5d291c17-9384-4c99-8405-842cb8ba1133","bea99957-1862-4ad8-9558-57b91e42ce64","{""participantId"":""1189B8FB342744EDA833A3F353E5D098"",""assignmentId"":""5d291c17-9384-4c99-8405-842cb8ba1133"",""projectId"":""bea99957-1862-4ad8-9558-57b91e42ce64""}","https://test12345.live/?participantId=1189B8FB342744EDA833A3F353E5D098&assignmentId=5d291c17-9384-4c99-8405-842cb8ba1133&projectId=bea99957-1862-4ad8-9558-57b91e42ce64","","null","<div style=""display: flex; justify-content: center; align-items: center;"">
                    <img src=""images/causal/causal_series_13/causal_series_13_d.jpg"" style=""width: 300px; height: 300px;"" />
                  </div>","null","",""
"","","","","","html-button-response","31","144084","0.0-23.0","1189B8FB342744EDA833A3F353E5D098","1189B8FB342744EDA833A3F353E5D098","5d291c17-9384-4c99-8405-842cb8ba1133","bea99957-1862-4ad8-9558-57b91e42ce64","{""participantId"":""1189B8FB342744EDA833A3F353E5D098"",""assignmentId"":""5d291c17-9384-4c99-8405-842cb8ba1133"",""projectId"":""bea99957-1862-4ad8-9558-57b91e42ce64""}","https://test12345.live/?participantId=1189B8FB342744EDA833A3F353E5D098&assignmentId=5d291c17-9384-4c99-8405-842cb8ba1133&projectId=bea99957-1862-4ad8-9558-57b91e42ce64","","1961","Was there a person in the picture?","0","",""
"","","","","","survey-likert","32","147191","0.0-24.0","1189B8FB342744EDA833A3F353E5D098","1189B8FB342744EDA833A3F353E5D098","5d291c17-9384-4c99-8405-842cb8ba1133","bea99957-1862-4ad8-9558-57b91e42ce64","{""participantId"":""1189B8FB342744EDA833A3F353E5D098"",""assignmentId"":""5d291c17-9384-4c99-8405-842cb8ba1133"",""projectId"":""bea99957-1862-4ad8-9558-57b91e42ce64""}","https://test12345.live/?participantId=1189B8FB342744EDA833A3F353E5D098&assignmentId=5d291c17-9384-4c99-8405-842cb8ba1133&projectId=bea99957-1862-4ad8-9558-57b91e42ce64","","3105","","{""Q0"":2}","","[0]"
"","","","","","html-button-response","33","148723","0.0-25.0","1189B8FB342744EDA833A3F353E5D098","1189B8FB342744EDA833A3F353E5D098","5d291c17-9384-4c99-8405-842cb8ba1133","bea99957-1862-4ad8-9558-57b91e42ce64","{""participantId"":""1189B8FB342744EDA833A3F353E5D098"",""assignmentId"":""5d291c17-9384-4c99-8405-842cb8ba1133"",""projectId"":""bea99957-1862-4ad8-9558-57b91e42ce64""}","https://test12345.live/?participantId=1189B8FB342744EDA833A3F353E5D098&assignmentId=5d291c17-9384-4c99-8405-842cb8ba1133&projectId=bea99957-1862-4ad8-9558-57b91e42ce64","","1529","
    <div style=""display: flex; justify-content: center; align-items: center;"">
      <img src=""images/red_deck_2.png"" style=""width: 300px; height: 300px; margin-right: 10px;"" />
      <img src=""images/blue_deck_1.png"" style=""width: 300px; height: 300px;"" />
    </div>","0","0",""
"","","","","","html-keyboard-response","34","151727","0.0-27.0-0.0","1189B8FB342744EDA833A3F353E5D098","1189B8FB342744EDA833A3F353E5D098","5d291c17-9384-4c99-8405-842cb8ba1133","bea99957-1862-4ad8-9558-57b91e42ce64","{""participantId"":""1189B8FB342744EDA833A3F353E5D098"",""assignmentId"":""5d291c17-9384-4c99-8405-842cb8ba1133"",""projectId"":""bea99957-1862-4ad8-9558-57b91e42ce64""}","https://test12345.live/?participantId=1189B8FB342744EDA833A3F353E5D098&assignmentId=5d291c17-9384-4c99-8405-842cb8ba1133&projectId=bea99957-1862-4ad8-9558-57b91e42ce64","","null","<div style=""display: flex; justify-content: center; align-items: center;"">
                    <img src=""images/semantic/semantic_series_11/semantic_series_11_a.jpg"" style=""width: 300px; height: 300px;"" />
                  </div>","null","",""
"","","","","","html-keyboard-response","35","154735","0.0-27.0-1.0","1189B8FB342744EDA833A3F353E5D098","1189B8FB342744EDA833A3F353E5D098","5d291c17-9384-4c99-8405-842cb8ba1133","bea99957-1862-4ad8-9558-57b91e42ce64","{""participantId"":""1189B8FB342744EDA833A3F353E5D098"",""assignmentId"":""5d291c17-9384-4c99-8405-842cb8ba1133"",""projectId"":""bea99957-1862-4ad8-9558-57b91e42ce64""}","https://test12345.live/?participantId=1189B8FB342744EDA833A3F353E5D098&assignmentId=5d291c17-9384-4c99-8405-842cb8ba1133&projectId=bea99957-1862-4ad8-9558-57b91e42ce64","","null","<div style=""display: flex; justify-content: center; align-items: center;"">
                    <img src=""images/semantic/semantic_series_11/semantic_series_11_b.jpg"" style=""width: 300px; height: 300px;"" />
                  </div>","null","",""
"","","","","","html-keyboard-response","36","157737","0.0-27.0-2.0","1189B8FB342744EDA833A3F353E5D098","1189B8FB342744EDA833A3F353E5D098","5d291c17-9384-4c99-8405-842cb8ba1133","bea99957-1862-4ad8-9558-57b91e42ce64","{""participantId"":""1189B8FB342744EDA833A3F353E5D098"",""assignmentId"":""5d291c17-9384-4c99-8405-842cb8ba1133"",""projectId"":""bea99957-1862-4ad8-9558-57b91e42ce64""}","https://test12345.live/?participantId=1189B8FB342744EDA833A3F353E5D098&assignmentId=5d291c17-9384-4c99-8405-842cb8ba1133&projectId=bea99957-1862-4ad8-9558-57b91e42ce64","","null","<div style=""display: flex; justify-content: center; align-items: center;"">
                    <img src=""images/semantic/semantic_series_11/semantic_series_11_c.jpg"" style=""width: 300px; height: 300px;"" />
                  </div>","null","",""
"","","","","","html-keyboard-response","37","160739","0.0-27.0-3.0","1189B8FB342744EDA833A3F353E5D098","1189B8FB342744EDA833A3F353E5D098","5d291c17-9384-4c99-8405-842cb8ba1133","bea99957-1862-4ad8-9558-57b91e42ce64","{""participantId"":""1189B8FB342744EDA833A3F353E5D098"",""assignmentId"":""5d291c17-9384-4c99-8405-842cb8ba1133"",""projectId"":""bea99957-1862-4ad8-9558-57b91e42ce64""}","https://test12345.live/?participantId=1189B8FB342744EDA833A3F353E5D098&assignmentId=5d291c17-9384-4c99-8405-842cb8ba1133&projectId=bea99957-1862-4ad8-9558-57b91e42ce64","","null","<div style=""display: flex; justify-content: center; align-items: center;"">
                    <img src=""images/semantic/semantic_series_11/semantic_series_11_d.jpg"" style=""width: 300px; height: 300px;"" />
                  </div>","null","",""
"","","","","","html-button-response","38","162491","0.0-28.0","1189B8FB342744EDA833A3F353E5D098","1189B8FB342744EDA833A3F353E5D098","5d291c17-9384-4c99-8405-842cb8ba1133","bea99957-1862-4ad8-9558-57b91e42ce64","{""participantId"":""1189B8FB342744EDA833A3F353E5D098"",""assignmentId"":""5d291c17-9384-4c99-8405-842cb8ba1133"",""projectId"":""bea99957-1862-4ad8-9558-57b91e42ce64""}","https://test12345.live/?participantId=1189B8FB342744EDA833A3F353E5D098&assignmentId=5d291c17-9384-4c99-8405-842cb8ba1133&projectId=bea99957-1862-4ad8-9558-57b91e42ce64","","1751","Was there a person in the picture?","0","",""
"","","","","","survey-likert","39","165633","0.0-29.0","1189B8FB342744EDA833A3F353E5D098","1189B8FB342744EDA833A3F353E5D098","5d291c17-9384-4c99-8405-842cb8ba1133","bea99957-1862-4ad8-9558-57b91e42ce64","{""participantId"":""1189B8FB342744EDA833A3F353E5D098"",""assignmentId"":""5d291c17-9384-4c99-8405-842cb8ba1133"",""projectId"":""bea99957-1862-4ad8-9558-57b91e42ce64""}","https://test12345.live/?participantId=1189B8FB342744EDA833A3F353E5D098&assignmentId=5d291c17-9384-4c99-8405-842cb8ba1133&projectId=bea99957-1862-4ad8-9558-57b91e42ce64","","3141","","{""Q0"":2}","","[0]"
"","","","","","html-button-response","40","167183","0.0-30.0","1189B8FB342744EDA833A3F353E5D098","1189B8FB342744EDA833A3F353E5D098","5d291c17-9384-4c99-8405-842cb8ba1133","bea99957-1862-4ad8-9558-57b91e42ce64","{""participantId"":""1189B8FB342744EDA833A3F353E5D098"",""assignmentId"":""5d291c17-9384-4c99-8405-842cb8ba1133"",""projectId"":""bea99957-1862-4ad8-9558-57b91e42ce64""}","https://test12345.live/?participantId=1189B8FB342744EDA833A3F353E5D098&assignmentId=5d291c17-9384-4c99-8405-842cb8ba1133&projectId=bea99957-1862-4ad8-9558-57b91e42ce64","","1549","
    <div style=""display: flex; justify-content: center; align-items: center;"">
      <img src=""images/red_deck_2.png"" style=""width: 300px; height: 300px; margin-right: 10px;"" />
      <img src=""images/blue_deck_1.png"" style=""width: 300px; height: 300px;"" />
    </div>","0","0",""
"","","","","","html-keyboard-response","41","170185","0.0-32.0-0.0","1189B8FB342744EDA833A3F353E5D098","1189B8FB342744EDA833A3F353E5D098","5d291c17-9384-4c99-8405-842cb8ba1133","bea99957-1862-4ad8-9558-57b91e42ce64","{""participantId"":""1189B8FB342744EDA833A3F353E5D098"",""assignmentId"":""5d291c17-9384-4c99-8405-842cb8ba1133"",""projectId"":""bea99957-1862-4ad8-9558-57b91e42ce64""}","https://test12345.live/?participantId=1189B8FB342744EDA833A3F353E5D098&assignmentId=5d291c17-9384-4c99-8405-842cb8ba1133&projectId=bea99957-1862-4ad8-9558-57b91e42ce64","","null","<div style=""display: flex; justify-content: center; align-items: center;"">
                    <img src=""images/semantic/semantic_series_14/semantic_series_14_a.jpg"" style=""width: 300px; height: 300px;"" />
                  </div>","null","",""
"","","","","","html-keyboard-response","42","173192","0.0-32.0-1.0","1189B8FB342744EDA833A3F353E5D098","1189B8FB342744EDA833A3F353E5D098","5d291c17-9384-4c99-8405-842cb8ba1133","bea99957-1862-4ad8-9558-57b91e42ce64","{""participantId"":""1189B8FB342744EDA833A3F353E5D098"",""assignmentId"":""5d291c17-9384-4c99-8405-842cb8ba1133"",""projectId"":""bea99957-1862-4ad8-9558-57b91e42ce64""}","https://test12345.live/?participantId=1189B8FB342744EDA833A3F353E5D098&assignmentId=5d291c17-9384-4c99-8405-842cb8ba1133&projectId=bea99957-1862-4ad8-9558-57b91e42ce64","","null","<div style=""display: flex; justify-content: center; align-items: center;"">
                    <img src=""images/semantic/semantic_series_14/semantic_series_14_b.jpg"" style=""width: 300px; height: 300px;"" />
                  </div>","null","",""
"","","","","","html-keyboard-response","43","176194","0.0-32.0-2.0","1189B8FB342744EDA833A3F353E5D098","1189B8FB342744EDA833A3F353E5D098","5d291c17-9384-4c99-8405-842cb8ba1133","bea99957-1862-4ad8-9558-57b91e42ce64","{""participantId"":""1189B8FB342744EDA833A3F353E5D098"",""assignmentId"":""5d291c17-9384-4c99-8405-842cb8ba1133"",""projectId"":""bea99957-1862-4ad8-9558-57b91e42ce64""}","https://test12345.live/?participantId=1189B8FB342744EDA833A3F353E5D098&assignmentId=5d291c17-9384-4c99-8405-842cb8ba1133&projectId=bea99957-1862-4ad8-9558-57b91e42ce64","","null","<div style=""display: flex; justify-content: center; align-items: center;"">
                    <img src=""images/semantic/semantic_series_14/semantic_series_14_c.jpg"" style=""width: 300px; height: 300px;"" />
                  </div>","null","",""
"","","","","","html-keyboard-response","44","179197","0.0-32.0-3.0","1189B8FB342744EDA833A3F353E5D098","1189B8FB342744EDA833A3F353E5D098","5d291c17-9384-4c99-8405-842cb8ba1133","bea99957-1862-4ad8-9558-57b91e42ce64","{""participantId"":""1189B8FB342744EDA833A3F353E5D098"",""assignmentId"":""5d291c17-9384-4c99-8405-842cb8ba1133"",""projectId"":""bea99957-1862-4ad8-9558-57b91e42ce64""}","https://test12345.live/?participantId=1189B8FB342744EDA833A3F353E5D098&assignmentId=5d291c17-9384-4c99-8405-842cb8ba1133&projectId=bea99957-1862-4ad8-9558-57b91e42ce64","","null","<div style=""display: flex; justify-content: center; align-items: center;"">
                    <img src=""images/semantic/semantic_series_14/semantic_series_14_d.jpg"" style=""width: 300px; height: 300px;"" />
                  </div>","null","",""
"","","","","","html-button-response","45","180558","0.0-33.0","1189B8FB342744EDA833A3F353E5D098","1189B8FB342744EDA833A3F353E5D098","5d291c17-9384-4c99-8405-842cb8ba1133","bea99957-1862-4ad8-9558-57b91e42ce64","{""participantId"":""1189B8FB342744EDA833A3F353E5D098"",""assignmentId"":""5d291c17-9384-4c99-8405-842cb8ba1133"",""projectId"":""bea99957-1862-4ad8-9558-57b91e42ce64""}","https://test12345.live/?participantId=1189B8FB342744EDA833A3F353E5D098&assignmentId=5d291c17-9384-4c99-8405-842cb8ba1133&projectId=bea99957-1862-4ad8-9558-57b91e42ce64","","1361","Was there a person in the picture?","0","",""
"","","","","","survey-likert","46","183460","0.0-34.0","1189B8FB342744EDA833A3F353E5D098","1189B8FB342744EDA833A3F353E5D098","5d291c17-9384-4c99-8405-842cb8ba1133","bea99957-1862-4ad8-9558-57b91e42ce64","{""participantId"":""1189B8FB342744EDA833A3F353E5D098"",""assignmentId"":""5d291c17-9384-4c99-8405-842cb8ba1133"",""projectId"":""bea99957-1862-4ad8-9558-57b91e42ce64""}","https://test12345.live/?participantId=1189B8FB342744EDA833A3F353E5D098&assignmentId=5d291c17-9384-4c99-8405-842cb8ba1133&projectId=bea99957-1862-4ad8-9558-57b91e42ce64","","2900","","{""Q0"":2}","","[0]"
"","","","","","html-button-response","47","184886","0.0-35.0","1189B8FB342744EDA833A3F353E5D098","1189B8FB342744EDA833A3F353E5D098","5d291c17-9384-4c99-8405-842cb8ba1133","bea99957-1862-4ad8-9558-57b91e42ce64","{""participantId"":""1189B8FB342744EDA833A3F353E5D098"",""assignmentId"":""5d291c17-9384-4c99-8405-842cb8ba1133"",""projectId"":""bea99957-1862-4ad8-9558-57b91e42ce64""}","https://test12345.live/?participantId=1189B8FB342744EDA833A3F353E5D098&assignmentId=5d291c17-9384-4c99-8405-842cb8ba1133&projectId=bea99957-1862-4ad8-9558-57b91e42ce64","","1425","
    <div style=""display: flex; justify-content: center; align-items: center;"">
      <img src=""images/red_deck_2.png"" style=""width: 300px; height: 300px; margin-right: 10px;"" />
      <img src=""images/blue_deck_1.png"" style=""width: 300px; height: 300px;"" />
    </div>","0","0",""
"","","","","","html-keyboard-response","48","187892","0.0-37.0-0.0","1189B8FB342744EDA833A3F353E5D098","1189B8FB342744EDA833A3F353E5D098","5d291c17-9384-4c99-8405-842cb8ba1133","bea99957-1862-4ad8-9558-57b91e42ce64","{""participantId"":""1189B8FB342744EDA833A3F353E5D098"",""assignmentId"":""5d291c17-9384-4c99-8405-842cb8ba1133"",""projectId"":""bea99957-1862-4ad8-9558-57b91e42ce64""}","https://test12345.live/?participantId=1189B8FB342744EDA833A3F353E5D098&assignmentId=5d291c17-9384-4c99-8405-842cb8ba1133&projectId=bea99957-1862-4ad8-9558-57b91e42ce64","","null","<div style=""display: flex; justify-content: center; align-items: center;"">
                    <img src=""images/semantic/semantic_series_5/semantic_series_5_a.jpg"" style=""width: 300px; height: 300px;"" />
                  </div>","null","",""
"","","","","","html-keyboard-response","49","190900","0.0-37.0-1.0","1189B8FB342744EDA833A3F353E5D098","1189B8FB342744EDA833A3F353E5D098","5d291c17-9384-4c99-8405-842cb8ba1133","bea99957-1862-4ad8-9558-57b91e42ce64","{""participantId"":""1189B8FB342744EDA833A3F353E5D098"",""assignmentId"":""5d291c17-9384-4c99-8405-842cb8ba1133"",""projectId"":""bea99957-1862-4ad8-9558-57b91e42ce64""}","https://test12345.live/?participantId=1189B8FB342744EDA833A3F353E5D098&assignmentId=5d291c17-9384-4c99-8405-842cb8ba1133&projectId=bea99957-1862-4ad8-9558-57b91e42ce64","","null","<div style=""display: flex; justify-content: center; align-items: center;"">
                    <img src=""images/semantic/semantic_series_5/semantic_series_5_b.jpg"" style=""width: 300px; height: 300px;"" />
                  </div>","null","",""
"","","","","","html-keyboard-response","50","193902","0.0-37.0-2.0","1189B8FB342744EDA833A3F353E5D098","1189B8FB342744EDA833A3F353E5D098","5d291c17-9384-4c99-8405-842cb8ba1133","bea99957-1862-4ad8-9558-57b91e42ce64","{""participantId"":""1189B8FB342744EDA833A3F353E5D098"",""assignmentId"":""5d291c17-9384-4c99-8405-842cb8ba1133"",""projectId"":""bea99957-1862-4ad8-9558-57b91e42ce64""}","https://test12345.live/?participantId=1189B8FB342744EDA833A3F353E5D098&assignmentId=5d291c17-9384-4c99-8405-842cb8ba1133&projectId=bea99957-1862-4ad8-9558-57b91e42ce64","","null","<div style=""display: flex; justify-content: center; align-items: center;"">
                    <img src=""images/semantic/semantic_series_5/semantic_series_5_c.jpg"" style=""width: 300px; height: 300px;"" />
                  </div>","null","",""
"","","","","","html-keyboard-response","51","196914","0.0-37.0-3.0","1189B8FB342744EDA833A3F353E5D098","1189B8FB342744EDA833A3F353E5D098","5d291c17-9384-4c99-8405-842cb8ba1133","bea99957-1862-4ad8-9558-57b91e42ce64","{""participantId"":""1189B8FB342744EDA833A3F353E5D098"",""assignmentId"":""5d291c17-9384-4c99-8405-842cb8ba1133"",""projectId"":""bea99957-1862-4ad8-9558-57b91e42ce64""}","https://test12345.live/?participantId=1189B8FB342744EDA833A3F353E5D098&assignmentId=5d291c17-9384-4c99-8405-842cb8ba1133&projectId=bea99957-1862-4ad8-9558-57b91e42ce64","","null","<div style=""display: flex; justify-content: center; align-items: center;"">
                    <img src=""images/semantic/semantic_series_5/semantic_series_5_d.jpg"" style=""width: 300px; height: 300px;"" />
                  </div>","null","",""
"","","","","","html-button-response","52","198702","0.0-38.0","1189B8FB342744EDA833A3F353E5D098","1189B8FB342744EDA833A3F353E5D098","5d291c17-9384-4c99-8405-842cb8ba1133","bea99957-1862-4ad8-9558-57b91e42ce64","{""participantId"":""1189B8FB342744EDA833A3F353E5D098"",""assignmentId"":""5d291c17-9384-4c99-8405-842cb8ba1133"",""projectId"":""bea99957-1862-4ad8-9558-57b91e42ce64""}","https://test12345.live/?participantId=1189B8FB342744EDA833A3F353E5D098&assignmentId=5d291c17-9384-4c99-8405-842cb8ba1133&projectId=bea99957-1862-4ad8-9558-57b91e42ce64","","1787","Was there a person in the picture?","0","",""
"","","","","","survey-likert","53","201892","0.0-39.0","1189B8FB342744EDA833A3F353E5D098","1189B8FB342744EDA833A3F353E5D098","5d291c17-9384-4c99-8405-842cb8ba1133","bea99957-1862-4ad8-9558-57b91e42ce64","{""participantId"":""1189B8FB342744EDA833A3F353E5D098"",""assignmentId"":""5d291c17-9384-4c99-8405-842cb8ba1133"",""projectId"":""bea99957-1862-4ad8-9558-57b91e42ce64""}","https://test12345.live/?participantId=1189B8FB342744EDA833A3F353E5D098&assignmentId=5d291c17-9384-4c99-8405-842cb8ba1133&projectId=bea99957-1862-4ad8-9558-57b91e42ce64","","3189","","{""Q0"":2}","","[0]"
"","","","","","html-button-response","54","203404","0.0-40.0","1189B8FB342744EDA833A3F353E5D098","1189B8FB342744EDA833A3F353E5D098","5d291c17-9384-4c99-8405-842cb8ba1133","bea99957-1862-4ad8-9558-57b91e42ce64","{""participantId"":""1189B8FB342744EDA833A3F353E5D098"",""assignmentId"":""5d291c17-9384-4c99-8405-842cb8ba1133"",""projectId"":""bea99957-1862-4ad8-9558-57b91e42ce64""}","https://test12345.live/?participantId=1189B8FB342744EDA833A3F353E5D098&assignmentId=5d291c17-9384-4c99-8405-842cb8ba1133&projectId=bea99957-1862-4ad8-9558-57b91e42ce64","","1510","
    <div style=""display: flex; justify-content: center; align-items: center;"">
      <img src=""images/red_deck_2.png"" style=""width: 300px; height: 300px; margin-right: 10px;"" />
      <img src=""images/blue_deck_1.png"" style=""width: 300px; height: 300px;"" />
    </div>","0","0",""
"","","","","","html-keyboard-response","55","206416","0.0-42.0-0.0","1189B8FB342744EDA833A3F353E5D098","1189B8FB342744EDA833A3F353E5D098","5d291c17-9384-4c99-8405-842cb8ba1133","bea99957-1862-4ad8-9558-57b91e42ce64","{""participantId"":""1189B8FB342744EDA833A3F353E5D098"",""assignmentId"":""5d291c17-9384-4c99-8405-842cb8ba1133"",""projectId"":""bea99957-1862-4ad8-9558-57b91e42ce64""}","https://test12345.live/?participantId=1189B8FB342744EDA833A3F353E5D098&assignmentId=5d291c17-9384-4c99-8405-842cb8ba1133&projectId=bea99957-1862-4ad8-9558-57b91e42ce64","","null","<div style=""display: flex; justify-content: center; align-items: center;"">
                    <img src=""images/semantic/semantic_series_6/semantic_series_6_a.jpg"" style=""width: 300px; height: 300px;"" />
                  </div>","null","",""
"","","","","","html-keyboard-response","56","209427","0.0-42.0-1.0","1189B8FB342744EDA833A3F353E5D098","1189B8FB342744EDA833A3F353E5D098","5d291c17-9384-4c99-8405-842cb8ba1133","bea99957-1862-4ad8-9558-57b91e42ce64","{""participantId"":""1189B8FB342744EDA833A3F353E5D098"",""assignmentId"":""5d291c17-9384-4c99-8405-842cb8ba1133"",""projectId"":""bea99957-1862-4ad8-9558-57b91e42ce64""}","https://test12345.live/?participantId=1189B8FB342744EDA833A3F353E5D098&assignmentId=5d291c17-9384-4c99-8405-842cb8ba1133&projectId=bea99957-1862-4ad8-9558-57b91e42ce64","","null","<div style=""display: flex; justify-content: center; align-items: center;"">
                    <img src=""images/semantic/semantic_series_6/semantic_series_6_b.jpg"" style=""width: 300px; height: 300px;"" />
                  </div>","null","",""
"","","","","","html-keyboard-response","57","212429","0.0-42.0-2.0","1189B8FB342744EDA833A3F353E5D098","1189B8FB342744EDA833A3F353E5D098","5d291c17-9384-4c99-8405-842cb8ba1133","bea99957-1862-4ad8-9558-57b91e42ce64","{""participantId"":""1189B8FB342744EDA833A3F353E5D098"",""assignmentId"":""5d291c17-9384-4c99-8405-842cb8ba1133"",""projectId"":""bea99957-1862-4ad8-9558-57b91e42ce64""}","https://test12345.live/?participantId=1189B8FB342744EDA833A3F353E5D098&assignmentId=5d291c17-9384-4c99-8405-842cb8ba1133&projectId=bea99957-1862-4ad8-9558-57b91e42ce64","","null","<div style=""display: flex; justify-content: center; align-items: center;"">
                    <img src=""images/semantic/semantic_series_6/semantic_series_6_c.jpg"" style=""width: 300px; height: 300px;"" />
                  </div>","null","",""
"","","","","","html-keyboard-response","58","215432","0.0-42.0-3.0","1189B8FB342744EDA833A3F353E5D098","1189B8FB342744EDA833A3F353E5D098","5d291c17-9384-4c99-8405-842cb8ba1133","bea99957-1862-4ad8-9558-57b91e42ce64","{""participantId"":""1189B8FB342744EDA833A3F353E5D098"",""assignmentId"":""5d291c17-9384-4c99-8405-842cb8ba1133"",""projectId"":""bea99957-1862-4ad8-9558-57b91e42ce64""}","https://test12345.live/?participantId=1189B8FB342744EDA833A3F353E5D098&assignmentId=5d291c17-9384-4c99-8405-842cb8ba1133&projectId=bea99957-1862-4ad8-9558-57b91e42ce64","","null","<div style=""display: flex; justify-content: center; align-items: center;"">
                    <img src=""images/semantic/semantic_series_6/semantic_series_6_d.jpg"" style=""width: 300px; height: 300px;"" />
                  </div>","null","",""
"","","","","","html-button-response","59","216711","0.0-43.0","1189B8FB342744EDA833A3F353E5D098","1189B8FB342744EDA833A3F353E5D098","5d291c17-9384-4c99-8405-842cb8ba1133","bea99957-1862-4ad8-9558-57b91e42ce64","{""participantId"":""1189B8FB342744EDA833A3F353E5D098"",""assignmentId"":""5d291c17-9384-4c99-8405-842cb8ba1133"",""projectId"":""bea99957-1862-4ad8-9558-57b91e42ce64""}","https://test12345.live/?participantId=1189B8FB342744EDA833A3F353E5D098&assignmentId=5d291c17-9384-4c99-8405-842cb8ba1133&projectId=bea99957-1862-4ad8-9558-57b91e42ce64","","1278","Was there a person in the picture?","1","",""
"","","","","","survey-likert","60","220344","0.0-44.0","1189B8FB342744EDA833A3F353E5D098","1189B8FB342744EDA833A3F353E5D098","5d291c17-9384-4c99-8405-842cb8ba1133","bea99957-1862-4ad8-9558-57b91e42ce64","{""participantId"":""1189B8FB342744EDA833A3F353E5D098"",""assignmentId"":""5d291c17-9384-4c99-8405-842cb8ba1133"",""projectId"":""bea99957-1862-4ad8-9558-57b91e42ce64""}","https://test12345.live/?participantId=1189B8FB342744EDA833A3F353E5D098&assignmentId=5d291c17-9384-4c99-8405-842cb8ba1133&projectId=bea99957-1862-4ad8-9558-57b91e42ce64","","3631","","{""Q0"":2}","","[0]"
"","","","","","html-button-response","61","222354","0.0-45.0","1189B8FB342744EDA833A3F353E5D098","1189B8FB342744EDA833A3F353E5D098","5d291c17-9384-4c99-8405-842cb8ba1133","bea99957-1862-4ad8-9558-57b91e42ce64","{""participantId"":""1189B8FB342744EDA833A3F353E5D098"",""assignmentId"":""5d291c17-9384-4c99-8405-842cb8ba1133"",""projectId"":""bea99957-1862-4ad8-9558-57b91e42ce64""}","https://test12345.live/?participantId=1189B8FB342744EDA833A3F353E5D098&assignmentId=5d291c17-9384-4c99-8405-842cb8ba1133&projectId=bea99957-1862-4ad8-9558-57b91e42ce64","","2008","
    <div style=""display: flex; justify-content: center; align-items: center;"">
      <img src=""images/red_deck_2.png"" style=""width: 300px; height: 300px; margin-right: 10px;"" />
      <img src=""images/blue_deck_1.png"" style=""width: 300px; height: 300px;"" />
    </div>","1","1",""
"","","","","","html-keyboard-response","62","225369","0.0-46.0-0.0","1189B8FB342744EDA833A3F353E5D098","1189B8FB342744EDA833A3F353E5D098","5d291c17-9384-4c99-8405-842cb8ba1133","bea99957-1862-4ad8-9558-57b91e42ce64","{""participantId"":""1189B8FB342744EDA833A3F353E5D098"",""assignmentId"":""5d291c17-9384-4c99-8405-842cb8ba1133"",""projectId"":""bea99957-1862-4ad8-9558-57b91e42ce64""}","https://test12345.live/?participantId=1189B8FB342744EDA833A3F353E5D098&assignmentId=5d291c17-9384-4c99-8405-842cb8ba1133&projectId=bea99957-1862-4ad8-9558-57b91e42ce64","","null","<div style=""display: flex; justify-content: center; align-items: center;"">
                    <img src=""images/causal/causal_series_3/causal_series_3_a.jpg"" style=""width: 300px; height: 300px;"" />
                  </div>","null","",""
"","","","","","html-keyboard-response","63","228371","0.0-46.0-1.0","1189B8FB342744EDA833A3F353E5D098","1189B8FB342744EDA833A3F353E5D098","5d291c17-9384-4c99-8405-842cb8ba1133","bea99957-1862-4ad8-9558-57b91e42ce64","{""participantId"":""1189B8FB342744EDA833A3F353E5D098"",""assignmentId"":""5d291c17-9384-4c99-8405-842cb8ba1133"",""projectId"":""bea99957-1862-4ad8-9558-57b91e42ce64""}","https://test12345.live/?participantId=1189B8FB342744EDA833A3F353E5D098&assignmentId=5d291c17-9384-4c99-8405-842cb8ba1133&projectId=bea99957-1862-4ad8-9558-57b91e42ce64","","null","<div style=""display: flex; justify-content: center; align-items: center;"">
                    <img src=""images/causal/causal_series_3/causal_series_3_b.jpg"" style=""width: 300px; height: 300px;"" />
                  </div>","null","",""
"","","","","","html-keyboard-response","64","231377","0.0-46.0-2.0","1189B8FB342744EDA833A3F353E5D098","1189B8FB342744EDA833A3F353E5D098","5d291c17-9384-4c99-8405-842cb8ba1133","bea99957-1862-4ad8-9558-57b91e42ce64","{""participantId"":""1189B8FB342744EDA833A3F353E5D098"",""assignmentId"":""5d291c17-9384-4c99-8405-842cb8ba1133"",""projectId"":""bea99957-1862-4ad8-9558-57b91e42ce64""}","https://test12345.live/?participantId=1189B8FB342744EDA833A3F353E5D098&assignmentId=5d291c17-9384-4c99-8405-842cb8ba1133&projectId=bea99957-1862-4ad8-9558-57b91e42ce64","","null","<div style=""display: flex; justify-content: center; align-items: center;"">
                    <img src=""images/causal/causal_series_3/causal_series_3_c.jpg"" style=""width: 300px; height: 300px;"" />
                  </div>","null","",""
"","","","","","html-keyboard-response","65","234379","0.0-46.0-3.0","1189B8FB342744EDA833A3F353E5D098","1189B8FB342744EDA833A3F353E5D098","5d291c17-9384-4c99-8405-842cb8ba1133","bea99957-1862-4ad8-9558-57b91e42ce64","{""participantId"":""1189B8FB342744EDA833A3F353E5D098"",""assignmentId"":""5d291c17-9384-4c99-8405-842cb8ba1133"",""projectId"":""bea99957-1862-4ad8-9558-57b91e42ce64""}","https://test12345.live/?participantId=1189B8FB342744EDA833A3F353E5D098&assignmentId=5d291c17-9384-4c99-8405-842cb8ba1133&projectId=bea99957-1862-4ad8-9558-57b91e42ce64","","null","<div style=""display: flex; justify-content: center; align-items: center;"">
                    <img src=""images/causal/causal_series_3/causal_series_3_d.jpg"" style=""width: 300px; height: 300px;"" />
                  </div>","null","",""
"","","","","","html-button-response","66","236048","0.0-48.0","1189B8FB342744EDA833A3F353E5D098","1189B8FB342744EDA833A3F353E5D098","5d291c17-9384-4c99-8405-842cb8ba1133","bea99957-1862-4ad8-9558-57b91e42ce64","{""participantId"":""1189B8FB342744EDA833A3F353E5D098"",""assignmentId"":""5d291c17-9384-4c99-8405-842cb8ba1133"",""projectId"":""bea99957-1862-4ad8-9558-57b91e42ce64""}","https://test12345.live/?participantId=1189B8FB342744EDA833A3F353E5D098&assignmentId=5d291c17-9384-4c99-8405-842cb8ba1133&projectId=bea99957-1862-4ad8-9558-57b91e42ce64","","1668","Was there a person in the picture?","0","",""
"","","","","","survey-likert","67","239763","0.0-49.0","1189B8FB342744EDA833A3F353E5D098","1189B8FB342744EDA833A3F353E5D098","5d291c17-9384-4c99-8405-842cb8ba1133","bea99957-1862-4ad8-9558-57b91e42ce64","{""participantId"":""1189B8FB342744EDA833A3F353E5D098"",""assignmentId"":""5d291c17-9384-4c99-8405-842cb8ba1133"",""projectId"":""bea99957-1862-4ad8-9558-57b91e42ce64""}","https://test12345.live/?participantId=1189B8FB342744EDA833A3F353E5D098&assignmentId=5d291c17-9384-4c99-8405-842cb8ba1133&projectId=bea99957-1862-4ad8-9558-57b91e42ce64","","3713","","{""Q0"":2}","","[0]"
"","","","","","html-button-response","68","241596","0.0-50.0","1189B8FB342744EDA833A3F353E5D098","1189B8FB342744EDA833A3F353E5D098","5d291c17-9384-4c99-8405-842cb8ba1133","bea99957-1862-4ad8-9558-57b91e42ce64","{""participantId"":""1189B8FB342744EDA833A3F353E5D098"",""assignmentId"":""5d291c17-9384-4c99-8405-842cb8ba1133"",""projectId"":""bea99957-1862-4ad8-9558-57b91e42ce64""}","https://test12345.live/?participantId=1189B8FB342744EDA833A3F353E5D098&assignmentId=5d291c17-9384-4c99-8405-842cb8ba1133&projectId=bea99957-1862-4ad8-9558-57b91e42ce64","","1831","
    <div style=""display: flex; justify-content: center; align-items: center;"">
      <img src=""images/red_deck_2.png"" style=""width: 300px; height: 300px; margin-right: 10px;"" />
      <img src=""images/blue_deck_1.png"" style=""width: 300px; height: 300px;"" />
    </div>","1","1",""
"","","","","","html-keyboard-response","69","244602","0.0-51.0-0.0","1189B8FB342744EDA833A3F353E5D098","1189B8FB342744EDA833A3F353E5D098","5d291c17-9384-4c99-8405-842cb8ba1133","bea99957-1862-4ad8-9558-57b91e42ce64","{""participantId"":""1189B8FB342744EDA833A3F353E5D098"",""assignmentId"":""5d291c17-9384-4c99-8405-842cb8ba1133"",""projectId"":""bea99957-1862-4ad8-9558-57b91e42ce64""}","https://test12345.live/?participantId=1189B8FB342744EDA833A3F353E5D098&assignmentId=5d291c17-9384-4c99-8405-842cb8ba1133&projectId=bea99957-1862-4ad8-9558-57b91e42ce64","","null","<div style=""display: flex; justify-content: center; align-items: center;"">
                    <img src=""images/causal/causal_series_4/causal_series_4_a.jpg"" style=""width: 300px; height: 300px;"" />
                  </div>","null","",""
"","","","","","html-keyboard-response","70","247603","0.0-51.0-1.0","1189B8FB342744EDA833A3F353E5D098","1189B8FB342744EDA833A3F353E5D098","5d291c17-9384-4c99-8405-842cb8ba1133","bea99957-1862-4ad8-9558-57b91e42ce64","{""participantId"":""1189B8FB342744EDA833A3F353E5D098"",""assignmentId"":""5d291c17-9384-4c99-8405-842cb8ba1133"",""projectId"":""bea99957-1862-4ad8-9558-57b91e42ce64""}","https://test12345.live/?participantId=1189B8FB342744EDA833A3F353E5D098&assignmentId=5d291c17-9384-4c99-8405-842cb8ba1133&projectId=bea99957-1862-4ad8-9558-57b91e42ce64","","null","<div style=""display: flex; justify-content: center; align-items: center;"">
                    <img src=""images/causal/causal_series_4/causal_series_4_b.jpg"" style=""width: 300px; height: 300px;"" />
                  </div>","null","",""
"","","","","","html-keyboard-response","71","250612","0.0-51.0-2.0","1189B8FB342744EDA833A3F353E5D098","1189B8FB342744EDA833A3F353E5D098","5d291c17-9384-4c99-8405-842cb8ba1133","bea99957-1862-4ad8-9558-57b91e42ce64","{""participantId"":""1189B8FB342744EDA833A3F353E5D098"",""assignmentId"":""5d291c17-9384-4c99-8405-842cb8ba1133"",""projectId"":""bea99957-1862-4ad8-9558-57b91e42ce64""}","https://test12345.live/?participantId=1189B8FB342744EDA833A3F353E5D098&assignmentId=5d291c17-9384-4c99-8405-842cb8ba1133&projectId=bea99957-1862-4ad8-9558-57b91e42ce64","","null","<div style=""display: flex; justify-content: center; align-items: center;"">
                    <img src=""images/causal/causal_series_4/causal_series_4_c.jpg"" style=""width: 300px; height: 300px;"" />
                  </div>","null","",""
"","","","","","html-keyboard-response","72","253614","0.0-51.0-3.0","1189B8FB342744EDA833A3F353E5D098","1189B8FB342744EDA833A3F353E5D098","5d291c17-9384-4c99-8405-842cb8ba1133","bea99957-1862-4ad8-9558-57b91e42ce64","{""participantId"":""1189B8FB342744EDA833A3F353E5D098"",""assignmentId"":""5d291c17-9384-4c99-8405-842cb8ba1133"",""projectId"":""bea99957-1862-4ad8-9558-57b91e42ce64""}","https://test12345.live/?participantId=1189B8FB342744EDA833A3F353E5D098&assignmentId=5d291c17-9384-4c99-8405-842cb8ba1133&projectId=bea99957-1862-4ad8-9558-57b91e42ce64","","null","<div style=""display: flex; justify-content: center; align-items: center;"">
                    <img src=""images/causal/causal_series_4/causal_series_4_d.jpg"" style=""width: 300px; height: 300px;"" />
                  </div>","null","",""
"","","","","","html-button-response","73","255227","0.0-53.0","1189B8FB342744EDA833A3F353E5D098","1189B8FB342744EDA833A3F353E5D098","5d291c17-9384-4c99-8405-842cb8ba1133","bea99957-1862-4ad8-9558-57b91e42ce64","{""participantId"":""1189B8FB342744EDA833A3F353E5D098"",""assignmentId"":""5d291c17-9384-4c99-8405-842cb8ba1133"",""projectId"":""bea99957-1862-4ad8-9558-57b91e42ce64""}","https://test12345.live/?participantId=1189B8FB342744EDA833A3F353E5D098&assignmentId=5d291c17-9384-4c99-8405-842cb8ba1133&projectId=bea99957-1862-4ad8-9558-57b91e42ce64","","1611","Was there a person in the picture?","1","",""
"","","","","","survey-likert","74","257950","0.0-54.0","1189B8FB342744EDA833A3F353E5D098","1189B8FB342744EDA833A3F353E5D098","5d291c17-9384-4c99-8405-842cb8ba1133","bea99957-1862-4ad8-9558-57b91e42ce64","{""participantId"":""1189B8FB342744EDA833A3F353E5D098"",""assignmentId"":""5d291c17-9384-4c99-8405-842cb8ba1133"",""projectId"":""bea99957-1862-4ad8-9558-57b91e42ce64""}","https://test12345.live/?participantId=1189B8FB342744EDA833A3F353E5D098&assignmentId=5d291c17-9384-4c99-8405-842cb8ba1133&projectId=bea99957-1862-4ad8-9558-57b91e42ce64","","2722","","{""Q0"":2}","","[0]"
"","","","","","html-button-response","75","259942","0.0-55.0","1189B8FB342744EDA833A3F353E5D098","1189B8FB342744EDA833A3F353E5D098","5d291c17-9384-4c99-8405-842cb8ba1133","bea99957-1862-4ad8-9558-57b91e42ce64","{""participantId"":""1189B8FB342744EDA833A3F353E5D098"",""assignmentId"":""5d291c17-9384-4c99-8405-842cb8ba1133"",""projectId"":""bea99957-1862-4ad8-9558-57b91e42ce64""}","https://test12345.live/?participantId=1189B8FB342744EDA833A3F353E5D098&assignmentId=5d291c17-9384-4c99-8405-842cb8ba1133&projectId=bea99957-1862-4ad8-9558-57b91e42ce64","","1990","
    <div style=""display: flex; justify-content: center; align-items: center;"">
      <img src=""images/red_deck_2.png"" style=""width: 300px; height: 300px; margin-right: 10px;"" />
      <img src=""images/blue_deck_1.png"" style=""width: 300px; height: 300px;"" />
    </div>","1","1",""
"","","","","","html-keyboard-response","76","262943","0.0-56.0-0.0","1189B8FB342744EDA833A3F353E5D098","1189B8FB342744EDA833A3F353E5D098","5d291c17-9384-4c99-8405-842cb8ba1133","bea99957-1862-4ad8-9558-57b91e42ce64","{""participantId"":""1189B8FB342744EDA833A3F353E5D098"",""assignmentId"":""5d291c17-9384-4c99-8405-842cb8ba1133"",""projectId"":""bea99957-1862-4ad8-9558-57b91e42ce64""}","https://test12345.live/?participantId=1189B8FB342744EDA833A3F353E5D098&assignmentId=5d291c17-9384-4c99-8405-842cb8ba1133&projectId=bea99957-1862-4ad8-9558-57b91e42ce64","","null","<div style=""display: flex; justify-content: center; align-items: center;"">
                    <img src=""images/causal/causal_series_14/causal_series_14_a.jpg"" style=""width: 300px; height: 300px;"" />
                  </div>","null","",""
"","","","","","html-keyboard-response","77","265950","0.0-56.0-1.0","1189B8FB342744EDA833A3F353E5D098","1189B8FB342744EDA833A3F353E5D098","5d291c17-9384-4c99-8405-842cb8ba1133","bea99957-1862-4ad8-9558-57b91e42ce64","{""participantId"":""1189B8FB342744EDA833A3F353E5D098"",""assignmentId"":""5d291c17-9384-4c99-8405-842cb8ba1133"",""projectId"":""bea99957-1862-4ad8-9558-57b91e42ce64""}","https://test12345.live/?participantId=1189B8FB342744EDA833A3F353E5D098&assignmentId=5d291c17-9384-4c99-8405-842cb8ba1133&projectId=bea99957-1862-4ad8-9558-57b91e42ce64","","null","<div style=""display: flex; justify-content: center; align-items: center;"">
                    <img src=""images/causal/causal_series_14/causal_series_14_b.jpg"" style=""width: 300px; height: 300px;"" />
                  </div>","null","",""
"","","","","","html-keyboard-response","78","268952","0.0-56.0-2.0","1189B8FB342744EDA833A3F353E5D098","1189B8FB342744EDA833A3F353E5D098","5d291c17-9384-4c99-8405-842cb8ba1133","bea99957-1862-4ad8-9558-57b91e42ce64","{""participantId"":""1189B8FB342744EDA833A3F353E5D098"",""assignmentId"":""5d291c17-9384-4c99-8405-842cb8ba1133"",""projectId"":""bea99957-1862-4ad8-9558-57b91e42ce64""}","https://test12345.live/?participantId=1189B8FB342744EDA833A3F353E5D098&assignmentId=5d291c17-9384-4c99-8405-842cb8ba1133&projectId=bea99957-1862-4ad8-9558-57b91e42ce64","","null","<div style=""display: flex; justify-content: center; align-items: center;"">
                    <img src=""images/causal/causal_series_14/causal_series_14_c.jpg"" style=""width: 300px; height: 300px;"" />
                  </div>","null","",""
"","","","","","html-keyboard-response","79","271957","0.0-56.0-3.0","1189B8FB342744EDA833A3F353E5D098","1189B8FB342744EDA833A3F353E5D098","5d291c17-9384-4c99-8405-842cb8ba1133","bea99957-1862-4ad8-9558-57b91e42ce64","{""participantId"":""1189B8FB342744EDA833A3F353E5D098"",""assignmentId"":""5d291c17-9384-4c99-8405-842cb8ba1133"",""projectId"":""bea99957-1862-4ad8-9558-57b91e42ce64""}","https://test12345.live/?participantId=1189B8FB342744EDA833A3F353E5D098&assignmentId=5d291c17-9384-4c99-8405-842cb8ba1133&projectId=bea99957-1862-4ad8-9558-57b91e42ce64","","null","<div style=""display: flex; justify-content: center; align-items: center;"">
                    <img src=""images/causal/causal_series_14/causal_series_14_d.jpg"" style=""width: 300px; height: 300px;"" />
                  </div>","null","",""
"","","","","","html-button-response","80","273667","0.0-58.0","1189B8FB342744EDA833A3F353E5D098","1189B8FB342744EDA833A3F353E5D098","5d291c17-9384-4c99-8405-842cb8ba1133","bea99957-1862-4ad8-9558-57b91e42ce64","{""participantId"":""1189B8FB342744EDA833A3F353E5D098"",""assignmentId"":""5d291c17-9384-4c99-8405-842cb8ba1133"",""projectId"":""bea99957-1862-4ad8-9558-57b91e42ce64""}","https://test12345.live/?participantId=1189B8FB342744EDA833A3F353E5D098&assignmentId=5d291c17-9384-4c99-8405-842cb8ba1133&projectId=bea99957-1862-4ad8-9558-57b91e42ce64","","1710","Was there a person in the picture?","0","",""
"","","","","","survey-likert","81","277998","0.0-59.0","1189B8FB342744EDA833A3F353E5D098","1189B8FB342744EDA833A3F353E5D098","5d291c17-9384-4c99-8405-842cb8ba1133","bea99957-1862-4ad8-9558-57b91e42ce64","{""participantId"":""1189B8FB342744EDA833A3F353E5D098"",""assignmentId"":""5d291c17-9384-4c99-8405-842cb8ba1133"",""projectId"":""bea99957-1862-4ad8-9558-57b91e42ce64""}","https://test12345.live/?participantId=1189B8FB342744EDA833A3F353E5D098&assignmentId=5d291c17-9384-4c99-8405-842cb8ba1133&projectId=bea99957-1862-4ad8-9558-57b91e42ce64","","4329","","{""Q0"":2}","","[0]"
"","","","","","html-button-response","82","280060","0.0-60.0","1189B8FB342744EDA833A3F353E5D098","1189B8FB342744EDA833A3F353E5D098","5d291c17-9384-4c99-8405-842cb8ba1133","bea99957-1862-4ad8-9558-57b91e42ce64","{""participantId"":""1189B8FB342744EDA833A3F353E5D098"",""assignmentId"":""5d291c17-9384-4c99-8405-842cb8ba1133"",""projectId"":""bea99957-1862-4ad8-9558-57b91e42ce64""}","https://test12345.live/?participantId=1189B8FB342744EDA833A3F353E5D098&assignmentId=5d291c17-9384-4c99-8405-842cb8ba1133&projectId=bea99957-1862-4ad8-9558-57b91e42ce64","","2061","
    <div style=""display: flex; justify-content: center; align-items: center;"">
      <img src=""images/red_deck_2.png"" style=""width: 300px; height: 300px; margin-right: 10px;"" />
      <img src=""images/blue_deck_1.png"" style=""width: 300px; height: 300px;"" />
    </div>","0","0",""
"","","","","","html-keyboard-response","83","283063","0.0-62.0-0.0","1189B8FB342744EDA833A3F353E5D098","1189B8FB342744EDA833A3F353E5D098","5d291c17-9384-4c99-8405-842cb8ba1133","bea99957-1862-4ad8-9558-57b91e42ce64","{""participantId"":""1189B8FB342744EDA833A3F353E5D098"",""assignmentId"":""5d291c17-9384-4c99-8405-842cb8ba1133"",""projectId"":""bea99957-1862-4ad8-9558-57b91e42ce64""}","https://test12345.live/?participantId=1189B8FB342744EDA833A3F353E5D098&assignmentId=5d291c17-9384-4c99-8405-842cb8ba1133&projectId=bea99957-1862-4ad8-9558-57b91e42ce64","","null","<div style=""display: flex; justify-content: center; align-items: center;"">
                    <img src=""images/semantic/semantic_series_18/semantic_series_18_a.jpg"" style=""width: 300px; height: 300px;"" />
                  </div>","null","",""
"","","","","","html-keyboard-response","84","286075","0.0-62.0-1.0","1189B8FB342744EDA833A3F353E5D098","1189B8FB342744EDA833A3F353E5D098","5d291c17-9384-4c99-8405-842cb8ba1133","bea99957-1862-4ad8-9558-57b91e42ce64","{""participantId"":""1189B8FB342744EDA833A3F353E5D098"",""assignmentId"":""5d291c17-9384-4c99-8405-842cb8ba1133"",""projectId"":""bea99957-1862-4ad8-9558-57b91e42ce64""}","https://test12345.live/?participantId=1189B8FB342744EDA833A3F353E5D098&assignmentId=5d291c17-9384-4c99-8405-842cb8ba1133&projectId=bea99957-1862-4ad8-9558-57b91e42ce64","","null","<div style=""display: flex; justify-content: center; align-items: center;"">
                    <img src=""images/semantic/semantic_series_18/semantic_series_18_b.jpg"" style=""width: 300px; height: 300px;"" />
                  </div>","null","",""
"","","","","","html-keyboard-response","85","289081","0.0-62.0-2.0","1189B8FB342744EDA833A3F353E5D098","1189B8FB342744EDA833A3F353E5D098","5d291c17-9384-4c99-8405-842cb8ba1133","bea99957-1862-4ad8-9558-57b91e42ce64","{""participantId"":""1189B8FB342744EDA833A3F353E5D098"",""assignmentId"":""5d291c17-9384-4c99-8405-842cb8ba1133"",""projectId"":""bea99957-1862-4ad8-9558-57b91e42ce64""}","https://test12345.live/?participantId=1189B8FB342744EDA833A3F353E5D098&assignmentId=5d291c17-9384-4c99-8405-842cb8ba1133&projectId=bea99957-1862-4ad8-9558-57b91e42ce64","","null","<div style=""display: flex; justify-content: center; align-items: center;"">
                    <img src=""images/semantic/semantic_series_18/semantic_series_18_c.jpg"" style=""width: 300px; height: 300px;"" />
                  </div>","null","",""
"","","","","","html-keyboard-response","86","292085","0.0-62.0-3.0","1189B8FB342744EDA833A3F353E5D098","1189B8FB342744EDA833A3F353E5D098","5d291c17-9384-4c99-8405-842cb8ba1133","bea99957-1862-4ad8-9558-57b91e42ce64","{""participantId"":""1189B8FB342744EDA833A3F353E5D098"",""assignmentId"":""5d291c17-9384-4c99-8405-842cb8ba1133"",""projectId"":""bea99957-1862-4ad8-9558-57b91e42ce64""}","https://test12345.live/?participantId=1189B8FB342744EDA833A3F353E5D098&assignmentId=5d291c17-9384-4c99-8405-842cb8ba1133&projectId=bea99957-1862-4ad8-9558-57b91e42ce64","","null","<div style=""display: flex; justify-content: center; align-items: center;"">
                    <img src=""images/semantic/semantic_series_18/semantic_series_18_d.jpg"" style=""width: 300px; height: 300px;"" />
                  </div>","null","",""
"","","","","","html-button-response","87","293820","0.0-63.0","1189B8FB342744EDA833A3F353E5D098","1189B8FB342744EDA833A3F353E5D098","5d291c17-9384-4c99-8405-842cb8ba1133","bea99957-1862-4ad8-9558-57b91e42ce64","{""participantId"":""1189B8FB342744EDA833A3F353E5D098"",""assignmentId"":""5d291c17-9384-4c99-8405-842cb8ba1133"",""projectId"":""bea99957-1862-4ad8-9558-57b91e42ce64""}","https://test12345.live/?participantId=1189B8FB342744EDA833A3F353E5D098&assignmentId=5d291c17-9384-4c99-8405-842cb8ba1133&projectId=bea99957-1862-4ad8-9558-57b91e42ce64","","1734","Was there a person in the picture?","1","",""
"","","","","","survey-likert","88","296901","0.0-64.0","1189B8FB342744EDA833A3F353E5D098","1189B8FB342744EDA833A3F353E5D098","5d291c17-9384-4c99-8405-842cb8ba1133","bea99957-1862-4ad8-9558-57b91e42ce64","{""participantId"":""1189B8FB342744EDA833A3F353E5D098"",""assignmentId"":""5d291c17-9384-4c99-8405-842cb8ba1133"",""projectId"":""bea99957-1862-4ad8-9558-57b91e42ce64""}","https://test12345.live/?participantId=1189B8FB342744EDA833A3F353E5D098&assignmentId=5d291c17-9384-4c99-8405-842cb8ba1133&projectId=bea99957-1862-4ad8-9558-57b91e42ce64","","3080","","{""Q0"":2}","","[0]"
"","","","","","html-button-response","89","298981","0.0-65.0","1189B8FB342744EDA833A3F353E5D098","1189B8FB342744EDA833A3F353E5D098","5d291c17-9384-4c99-8405-842cb8ba1133","bea99957-1862-4ad8-9558-57b91e42ce64","{""participantId"":""1189B8FB342744EDA833A3F353E5D098"",""assignmentId"":""5d291c17-9384-4c99-8405-842cb8ba1133"",""projectId"":""bea99957-1862-4ad8-9558-57b91e42ce64""}","https://test12345.live/?participantId=1189B8FB342744EDA833A3F353E5D098&assignmentId=5d291c17-9384-4c99-8405-842cb8ba1133&projectId=bea99957-1862-4ad8-9558-57b91e42ce64","","2077","
    <div style=""display: flex; justify-content: center; align-items: center;"">
      <img src=""images/red_deck_2.png"" style=""width: 300px; height: 300px; margin-right: 10px;"" />
      <img src=""images/blue_deck_1.png"" style=""width: 300px; height: 300px;"" />
    </div>","0","0",""
"","","","","","html-keyboard-response","90","301994","0.0-67.0-0.0","1189B8FB342744EDA833A3F353E5D098","1189B8FB342744EDA833A3F353E5D098","5d291c17-9384-4c99-8405-842cb8ba1133","bea99957-1862-4ad8-9558-57b91e42ce64","{""participantId"":""1189B8FB342744EDA833A3F353E5D098"",""assignmentId"":""5d291c17-9384-4c99-8405-842cb8ba1133"",""projectId"":""bea99957-1862-4ad8-9558-57b91e42ce64""}","https://test12345.live/?participantId=1189B8FB342744EDA833A3F353E5D098&assignmentId=5d291c17-9384-4c99-8405-842cb8ba1133&projectId=bea99957-1862-4ad8-9558-57b91e42ce64","","null","<div style=""display: flex; justify-content: center; align-items: center;"">
                    <img src=""images/semantic/semantic_series_9/semantic_series_9_a.jpg"" style=""width: 300px; height: 300px;"" />
                  </div>","null","",""
"","","","","","html-keyboard-response","91","304996","0.0-67.0-1.0","1189B8FB342744EDA833A3F353E5D098","1189B8FB342744EDA833A3F353E5D098","5d291c17-9384-4c99-8405-842cb8ba1133","bea99957-1862-4ad8-9558-57b91e42ce64","{""participantId"":""1189B8FB342744EDA833A3F353E5D098"",""assignmentId"":""5d291c17-9384-4c99-8405-842cb8ba1133"",""projectId"":""bea99957-1862-4ad8-9558-57b91e42ce64""}","https://test12345.live/?participantId=1189B8FB342744EDA833A3F353E5D098&assignmentId=5d291c17-9384-4c99-8405-842cb8ba1133&projectId=bea99957-1862-4ad8-9558-57b91e42ce64","","null","<div style=""display: flex; justify-content: center; align-items: center;"">
                    <img src=""images/semantic/semantic_series_9/semantic_series_9_b.jpg"" style=""width: 300px; height: 300px;"" />
                  </div>","null","",""
"","","","","","html-keyboard-response","92","308008","0.0-67.0-2.0","1189B8FB342744EDA833A3F353E5D098","1189B8FB342744EDA833A3F353E5D098","5d291c17-9384-4c99-8405-842cb8ba1133","bea99957-1862-4ad8-9558-57b91e42ce64","{""participantId"":""1189B8FB342744EDA833A3F353E5D098"",""assignmentId"":""5d291c17-9384-4c99-8405-842cb8ba1133"",""projectId"":""bea99957-1862-4ad8-9558-57b91e42ce64""}","https://test12345.live/?participantId=1189B8FB342744EDA833A3F353E5D098&assignmentId=5d291c17-9384-4c99-8405-842cb8ba1133&projectId=bea99957-1862-4ad8-9558-57b91e42ce64","","null","<div style=""display: flex; justify-content: center; align-items: center;"">
                    <img src=""images/semantic/semantic_series_9/semantic_series_9_c.jpg"" style=""width: 300px; height: 300px;"" />
                  </div>","null","",""
"","","","","","html-keyboard-response","93","311013","0.0-67.0-3.0","1189B8FB342744EDA833A3F353E5D098","1189B8FB342744EDA833A3F353E5D098","5d291c17-9384-4c99-8405-842cb8ba1133","bea99957-1862-4ad8-9558-57b91e42ce64","{""participantId"":""1189B8FB342744EDA833A3F353E5D098"",""assignmentId"":""5d291c17-9384-4c99-8405-842cb8ba1133"",""projectId"":""bea99957-1862-4ad8-9558-57b91e42ce64""}","https://test12345.live/?participantId=1189B8FB342744EDA833A3F353E5D098&assignmentId=5d291c17-9384-4c99-8405-842cb8ba1133&projectId=bea99957-1862-4ad8-9558-57b91e42ce64","","null","<div style=""display: flex; justify-content: center; align-items: center;"">
                    <img src=""images/semantic/semantic_series_9/semantic_series_9_d.jpg"" style=""width: 300px; height: 300px;"" />
                  </div>","null","",""
"","","","","","html-button-response","94","312438","0.0-68.0","1189B8FB342744EDA833A3F353E5D098","1189B8FB342744EDA833A3F353E5D098","5d291c17-9384-4c99-8405-842cb8ba1133","bea99957-1862-4ad8-9558-57b91e42ce64","{""participantId"":""1189B8FB342744EDA833A3F353E5D098"",""assignmentId"":""5d291c17-9384-4c99-8405-842cb8ba1133"",""projectId"":""bea99957-1862-4ad8-9558-57b91e42ce64""}","https://test12345.live/?participantId=1189B8FB342744EDA833A3F353E5D098&assignmentId=5d291c17-9384-4c99-8405-842cb8ba1133&projectId=bea99957-1862-4ad8-9558-57b91e42ce64","","1424","Was there a person in the picture?","1","",""
"","","","","","survey-likert","95","314933","0.0-69.0","1189B8FB342744EDA833A3F353E5D098","1189B8FB342744EDA833A3F353E5D098","5d291c17-9384-4c99-8405-842cb8ba1133","bea99957-1862-4ad8-9558-57b91e42ce64","{""participantId"":""1189B8FB342744EDA833A3F353E5D098"",""assignmentId"":""5d291c17-9384-4c99-8405-842cb8ba1133"",""projectId"":""bea99957-1862-4ad8-9558-57b91e42ce64""}","https://test12345.live/?participantId=1189B8FB342744EDA833A3F353E5D098&assignmentId=5d291c17-9384-4c99-8405-842cb8ba1133&projectId=bea99957-1862-4ad8-9558-57b91e42ce64","","2493","","{""Q0"":2}","","[0]"
"","","","","","html-button-response","96","316849","0.0-70.0","1189B8FB342744EDA833A3F353E5D098","1189B8FB342744EDA833A3F353E5D098","5d291c17-9384-4c99-8405-842cb8ba1133","bea99957-1862-4ad8-9558-57b91e42ce64","{""participantId"":""1189B8FB342744EDA833A3F353E5D098"",""assignmentId"":""5d291c17-9384-4c99-8405-842cb8ba1133"",""projectId"":""bea99957-1862-4ad8-9558-57b91e42ce64""}","https://test12345.live/?participantId=1189B8FB342744EDA833A3F353E5D098&assignmentId=5d291c17-9384-4c99-8405-842cb8ba1133&projectId=bea99957-1862-4ad8-9558-57b91e42ce64","","1915","
    <div style=""display: flex; justify-content: center; align-items: center;"">
      <img src=""images/red_deck_2.png"" style=""width: 300px; height: 300px; margin-right: 10px;"" />
      <img src=""images/blue_deck_1.png"" style=""width: 300px; height: 300px;"" />
    </div>","0","0",""
"","","","","","html-keyboard-response","97","319850","0.0-72.0-0.0","1189B8FB342744EDA833A3F353E5D098","1189B8FB342744EDA833A3F353E5D098","5d291c17-9384-4c99-8405-842cb8ba1133","bea99957-1862-4ad8-9558-57b91e42ce64","{""participantId"":""1189B8FB342744EDA833A3F353E5D098"",""assignmentId"":""5d291c17-9384-4c99-8405-842cb8ba1133"",""projectId"":""bea99957-1862-4ad8-9558-57b91e42ce64""}","https://test12345.live/?participantId=1189B8FB342744EDA833A3F353E5D098&assignmentId=5d291c17-9384-4c99-8405-842cb8ba1133&projectId=bea99957-1862-4ad8-9558-57b91e42ce64","","null","<div style=""display: flex; justify-content: center; align-items: center;"">
                    <img src=""images/semantic/semantic_series_15/semantic_series_15_a.jpg"" style=""width: 300px; height: 300px;"" />
                  </div>","null","",""
"","","","","","html-keyboard-response","98","322854","0.0-72.0-1.0","1189B8FB342744EDA833A3F353E5D098","1189B8FB342744EDA833A3F353E5D098","5d291c17-9384-4c99-8405-842cb8ba1133","bea99957-1862-4ad8-9558-57b91e42ce64","{""participantId"":""1189B8FB342744EDA833A3F353E5D098"",""assignmentId"":""5d291c17-9384-4c99-8405-842cb8ba1133"",""projectId"":""bea99957-1862-4ad8-9558-57b91e42ce64""}","https://test12345.live/?participantId=1189B8FB342744EDA833A3F353E5D098&assignmentId=5d291c17-9384-4c99-8405-842cb8ba1133&projectId=bea99957-1862-4ad8-9558-57b91e42ce64","","null","<div style=""display: flex; justify-content: center; align-items: center;"">
                    <img src=""images/semantic/semantic_series_15/semantic_series_15_b.jpg"" style=""width: 300px; height: 300px;"" />
                  </div>","null","",""
"","","","","","html-keyboard-response","99","325856","0.0-72.0-2.0","1189B8FB342744EDA833A3F353E5D098","1189B8FB342744EDA833A3F353E5D098","5d291c17-9384-4c99-8405-842cb8ba1133","bea99957-1862-4ad8-9558-57b91e42ce64","{""participantId"":""1189B8FB342744EDA833A3F353E5D098"",""assignmentId"":""5d291c17-9384-4c99-8405-842cb8ba1133"",""projectId"":""bea99957-1862-4ad8-9558-57b91e42ce64""}","https://test12345.live/?participantId=1189B8FB342744EDA833A3F353E5D098&assignmentId=5d291c17-9384-4c99-8405-842cb8ba1133&projectId=bea99957-1862-4ad8-9558-57b91e42ce64","","null","<div style=""display: flex; justify-content: center; align-items: center;"">
                    <img src=""images/semantic/semantic_series_15/semantic_series_15_c.jpg"" style=""width: 300px; height: 300px;"" />
                  </div>","null","",""
"","","","","","html-keyboard-response","100","328857","0.0-72.0-3.0","1189B8FB342744EDA833A3F353E5D098","1189B8FB342744EDA833A3F353E5D098","5d291c17-9384-4c99-8405-842cb8ba1133","bea99957-1862-4ad8-9558-57b91e42ce64","{""participantId"":""1189B8FB342744EDA833A3F353E5D098"",""assignmentId"":""5d291c17-9384-4c99-8405-842cb8ba1133"",""projectId"":""bea99957-1862-4ad8-9558-57b91e42ce64""}","https://test12345.live/?participantId=1189B8FB342744EDA833A3F353E5D098&assignmentId=5d291c17-9384-4c99-8405-842cb8ba1133&projectId=bea99957-1862-4ad8-9558-57b91e42ce64","","null","<div style=""display: flex; justify-content: center; align-items: center;"">
                    <img src=""images/semantic/semantic_series_15/semantic_series_15_d.jpg"" style=""width: 300px; height: 300px;"" />
                  </div>","null","",""
"","","","","","html-button-response","101","330373","0.0-73.0","1189B8FB342744EDA833A3F353E5D098","1189B8FB342744EDA833A3F353E5D098","5d291c17-9384-4c99-8405-842cb8ba1133","bea99957-1862-4ad8-9558-57b91e42ce64","{""participantId"":""1189B8FB342744EDA833A3F353E5D098"",""assignmentId"":""5d291c17-9384-4c99-8405-842cb8ba1133"",""projectId"":""bea99957-1862-4ad8-9558-57b91e42ce64""}","https://test12345.live/?participantId=1189B8FB342744EDA833A3F353E5D098&assignmentId=5d291c17-9384-4c99-8405-842cb8ba1133&projectId=bea99957-1862-4ad8-9558-57b91e42ce64","","1514","Was there a person in the picture?","1","",""
"","","","","","survey-likert","102","333688","0.0-74.0","1189B8FB342744EDA833A3F353E5D098","1189B8FB342744EDA833A3F353E5D098","5d291c17-9384-4c99-8405-842cb8ba1133","bea99957-1862-4ad8-9558-57b91e42ce64","{""participantId"":""1189B8FB342744EDA833A3F353E5D098"",""assignmentId"":""5d291c17-9384-4c99-8405-842cb8ba1133"",""projectId"":""bea99957-1862-4ad8-9558-57b91e42ce64""}","https://test12345.live/?participantId=1189B8FB342744EDA833A3F353E5D098&assignmentId=5d291c17-9384-4c99-8405-842cb8ba1133&projectId=bea99957-1862-4ad8-9558-57b91e42ce64","","3314","","{""Q0"":2}","","[0]"
"","","","","","html-button-response","103","335500","0.0-75.0","1189B8FB342744EDA833A3F353E5D098","1189B8FB342744EDA833A3F353E5D098","5d291c17-9384-4c99-8405-842cb8ba1133","bea99957-1862-4ad8-9558-57b91e42ce64","{""participantId"":""1189B8FB342744EDA833A3F353E5D098"",""assignmentId"":""5d291c17-9384-4c99-8405-842cb8ba1133"",""projectId"":""bea99957-1862-4ad8-9558-57b91e42ce64""}","https://test12345.live/?participantId=1189B8FB342744EDA833A3F353E5D098&assignmentId=5d291c17-9384-4c99-8405-842cb8ba1133&projectId=bea99957-1862-4ad8-9558-57b91e42ce64","","1810","
    <div style=""display: flex; justify-content: center; align-items: center;"">
      <img src=""images/red_deck_2.png"" style=""width: 300px; height: 300px; margin-right: 10px;"" />
      <img src=""images/blue_deck_1.png"" style=""width: 300px; height: 300px;"" />
    </div>","1","1",""
"","","","","","html-keyboard-response","104","338503","0.0-76.0-0.0","1189B8FB342744EDA833A3F353E5D098","1189B8FB342744EDA833A3F353E5D098","5d291c17-9384-4c99-8405-842cb8ba1133","bea99957-1862-4ad8-9558-57b91e42ce64","{""participantId"":""1189B8FB342744EDA833A3F353E5D098"",""assignmentId"":""5d291c17-9384-4c99-8405-842cb8ba1133"",""projectId"":""bea99957-1862-4ad8-9558-57b91e42ce64""}","https://test12345.live/?participantId=1189B8FB342744EDA833A3F353E5D098&assignmentId=5d291c17-9384-4c99-8405-842cb8ba1133&projectId=bea99957-1862-4ad8-9558-57b91e42ce64","","null","<div style=""display: flex; justify-content: center; align-items: center;"">
                    <img src=""images/causal/causal_series_7/causal_series_7_a.jpg"" style=""width: 300px; height: 300px;"" />
                  </div>","null","",""
"","","","","","html-keyboard-response","105","341520","0.0-76.0-1.0","1189B8FB342744EDA833A3F353E5D098","1189B8FB342744EDA833A3F353E5D098","5d291c17-9384-4c99-8405-842cb8ba1133","bea99957-1862-4ad8-9558-57b91e42ce64","{""participantId"":""1189B8FB342744EDA833A3F353E5D098"",""assignmentId"":""5d291c17-9384-4c99-8405-842cb8ba1133"",""projectId"":""bea99957-1862-4ad8-9558-57b91e42ce64""}","https://test12345.live/?participantId=1189B8FB342744EDA833A3F353E5D098&assignmentId=5d291c17-9384-4c99-8405-842cb8ba1133&projectId=bea99957-1862-4ad8-9558-57b91e42ce64","","null","<div style=""display: flex; justify-content: center; align-items: center;"">
                    <img src=""images/causal/causal_series_7/causal_series_7_b.jpg"" style=""width: 300px; height: 300px;"" />
                  </div>","null","",""
"","","","","","html-keyboard-response","106","344523","0.0-76.0-2.0","1189B8FB342744EDA833A3F353E5D098","1189B8FB342744EDA833A3F353E5D098","5d291c17-9384-4c99-8405-842cb8ba1133","bea99957-1862-4ad8-9558-57b91e42ce64","{""participantId"":""1189B8FB342744EDA833A3F353E5D098"",""assignmentId"":""5d291c17-9384-4c99-8405-842cb8ba1133"",""projectId"":""bea99957-1862-4ad8-9558-57b91e42ce64""}","https://test12345.live/?participantId=1189B8FB342744EDA833A3F353E5D098&assignmentId=5d291c17-9384-4c99-8405-842cb8ba1133&projectId=bea99957-1862-4ad8-9558-57b91e42ce64","","null","<div style=""display: flex; justify-content: center; align-items: center;"">
                    <img src=""images/causal/causal_series_7/causal_series_7_c.jpg"" style=""width: 300px; height: 300px;"" />
                  </div>","null","",""
"","","","","","html-keyboard-response","107","347525","0.0-76.0-3.0","1189B8FB342744EDA833A3F353E5D098","1189B8FB342744EDA833A3F353E5D098","5d291c17-9384-4c99-8405-842cb8ba1133","bea99957-1862-4ad8-9558-57b91e42ce64","{""participantId"":""1189B8FB342744EDA833A3F353E5D098"",""assignmentId"":""5d291c17-9384-4c99-8405-842cb8ba1133"",""projectId"":""bea99957-1862-4ad8-9558-57b91e42ce64""}","https://test12345.live/?participantId=1189B8FB342744EDA833A3F353E5D098&assignmentId=5d291c17-9384-4c99-8405-842cb8ba1133&projectId=bea99957-1862-4ad8-9558-57b91e42ce64","","null","<div style=""display: flex; justify-content: center; align-items: center;"">
                    <img src=""images/causal/causal_series_7/causal_series_7_d.jpg"" style=""width: 300px; height: 300px;"" />
                  </div>","null","",""
"","","","","","html-button-response","108","349209","0.0-78.0","1189B8FB342744EDA833A3F353E5D098","1189B8FB342744EDA833A3F353E5D098","5d291c17-9384-4c99-8405-842cb8ba1133","bea99957-1862-4ad8-9558-57b91e42ce64","{""participantId"":""1189B8FB342744EDA833A3F353E5D098"",""assignmentId"":""5d291c17-9384-4c99-8405-842cb8ba1133"",""projectId"":""bea99957-1862-4ad8-9558-57b91e42ce64""}","https://test12345.live/?participantId=1189B8FB342744EDA833A3F353E5D098&assignmentId=5d291c17-9384-4c99-8405-842cb8ba1133&projectId=bea99957-1862-4ad8-9558-57b91e42ce64","","1683","Was there a person in the picture?","1","",""
"","","","","","survey-likert","109","351892","0.0-79.0","1189B8FB342744EDA833A3F353E5D098","1189B8FB342744EDA833A3F353E5D098","5d291c17-9384-4c99-8405-842cb8ba1133","bea99957-1862-4ad8-9558-57b91e42ce64","{""participantId"":""1189B8FB342744EDA833A3F353E5D098"",""assignmentId"":""5d291c17-9384-4c99-8405-842cb8ba1133"",""projectId"":""bea99957-1862-4ad8-9558-57b91e42ce64""}","https://test12345.live/?participantId=1189B8FB342744EDA833A3F353E5D098&assignmentId=5d291c17-9384-4c99-8405-842cb8ba1133&projectId=bea99957-1862-4ad8-9558-57b91e42ce64","","2681","","{""Q0"":2}","","[0]"
"","","","","","html-button-response","110","353956","0.0-80.0","1189B8FB342744EDA833A3F353E5D098","1189B8FB342744EDA833A3F353E5D098","5d291c17-9384-4c99-8405-842cb8ba1133","bea99957-1862-4ad8-9558-57b91e42ce64","{""participantId"":""1189B8FB342744EDA833A3F353E5D098"",""assignmentId"":""5d291c17-9384-4c99-8405-842cb8ba1133"",""projectId"":""bea99957-1862-4ad8-9558-57b91e42ce64""}","https://test12345.live/?participantId=1189B8FB342744EDA833A3F353E5D098&assignmentId=5d291c17-9384-4c99-8405-842cb8ba1133&projectId=bea99957-1862-4ad8-9558-57b91e42ce64","","2062","
    <div style=""display: flex; justify-content: center; align-items: center;"">
      <img src=""images/red_deck_2.png"" style=""width: 300px; height: 300px; margin-right: 10px;"" />
      <img src=""images/blue_deck_1.png"" style=""width: 300px; height: 300px;"" />
    </div>","1","1",""
"","","","","","html-keyboard-response","111","356958","0.0-81.0-0.0","1189B8FB342744EDA833A3F353E5D098","1189B8FB342744EDA833A3F353E5D098","5d291c17-9384-4c99-8405-842cb8ba1133","bea99957-1862-4ad8-9558-57b91e42ce64","{""participantId"":""1189B8FB342744EDA833A3F353E5D098"",""assignmentId"":""5d291c17-9384-4c99-8405-842cb8ba1133"",""projectId"":""bea99957-1862-4ad8-9558-57b91e42ce64""}","https://test12345.live/?participantId=1189B8FB342744EDA833A3F353E5D098&assignmentId=5d291c17-9384-4c99-8405-842cb8ba1133&projectId=bea99957-1862-4ad8-9558-57b91e42ce64","","null","<div style=""display: flex; justify-content: center; align-items: center;"">
                    <img src=""images/causal/causal_series_11/causal_series_11_a.jpg"" style=""width: 300px; height: 300px;"" />
                  </div>","null","",""
"","","","","","html-keyboard-response","112","359969","0.0-81.0-1.0","1189B8FB342744EDA833A3F353E5D098","1189B8FB342744EDA833A3F353E5D098","5d291c17-9384-4c99-8405-842cb8ba1133","bea99957-1862-4ad8-9558-57b91e42ce64","{""participantId"":""1189B8FB342744EDA833A3F353E5D098"",""assignmentId"":""5d291c17-9384-4c99-8405-842cb8ba1133"",""projectId"":""bea99957-1862-4ad8-9558-57b91e42ce64""}","https://test12345.live/?participantId=1189B8FB342744EDA833A3F353E5D098&assignmentId=5d291c17-9384-4c99-8405-842cb8ba1133&projectId=bea99957-1862-4ad8-9558-57b91e42ce64","","null","<div style=""display: flex; justify-content: center; align-items: center;"">
                    <img src=""images/causal/causal_series_11/causal_series_11_b.jpg"" style=""width: 300px; height: 300px;"" />
                  </div>","null","",""
"","","","","","html-keyboard-response","113","362982","0.0-81.0-2.0","1189B8FB342744EDA833A3F353E5D098","1189B8FB342744EDA833A3F353E5D098","5d291c17-9384-4c99-8405-842cb8ba1133","bea99957-1862-4ad8-9558-57b91e42ce64","{""participantId"":""1189B8FB342744EDA833A3F353E5D098"",""assignmentId"":""5d291c17-9384-4c99-8405-842cb8ba1133"",""projectId"":""bea99957-1862-4ad8-9558-57b91e42ce64""}","https://test12345.live/?participantId=1189B8FB342744EDA833A3F353E5D098&assignmentId=5d291c17-9384-4c99-8405-842cb8ba1133&projectId=bea99957-1862-4ad8-9558-57b91e42ce64","","null","<div style=""display: flex; justify-content: center; align-items: center;"">
                    <img src=""images/causal/causal_series_11/causal_series_11_c.jpg"" style=""width: 300px; height: 300px;"" />
                  </div>","null","",""
"","","","","","html-keyboard-response","114","365988","0.0-81.0-3.0","1189B8FB342744EDA833A3F353E5D098","1189B8FB342744EDA833A3F353E5D098","5d291c17-9384-4c99-8405-842cb8ba1133","bea99957-1862-4ad8-9558-57b91e42ce64","{""participantId"":""1189B8FB342744EDA833A3F353E5D098"",""assignmentId"":""5d291c17-9384-4c99-8405-842cb8ba1133"",""projectId"":""bea99957-1862-4ad8-9558-57b91e42ce64""}","https://test12345.live/?participantId=1189B8FB342744EDA833A3F353E5D098&assignmentId=5d291c17-9384-4c99-8405-842cb8ba1133&projectId=bea99957-1862-4ad8-9558-57b91e42ce64","","null","<div style=""display: flex; justify-content: center; align-items: center;"">
                    <img src=""images/causal/causal_series_11/causal_series_11_d.jpg"" style=""width: 300px; height: 300px;"" />
                  </div>","null","",""
"","","","","","html-button-response","115","367409","0.0-83.0","1189B8FB342744EDA833A3F353E5D098","1189B8FB342744EDA833A3F353E5D098","5d291c17-9384-4c99-8405-842cb8ba1133","bea99957-1862-4ad8-9558-57b91e42ce64","{""participantId"":""1189B8FB342744EDA833A3F353E5D098"",""assignmentId"":""5d291c17-9384-4c99-8405-842cb8ba1133"",""projectId"":""bea99957-1862-4ad8-9558-57b91e42ce64""}","https://test12345.live/?participantId=1189B8FB342744EDA833A3F353E5D098&assignmentId=5d291c17-9384-4c99-8405-842cb8ba1133&projectId=bea99957-1862-4ad8-9558-57b91e42ce64","","1419","Was there a person in the picture?","0","",""
"","","","","","survey-likert","116","370093","0.0-84.0","1189B8FB342744EDA833A3F353E5D098","1189B8FB342744EDA833A3F353E5D098","5d291c17-9384-4c99-8405-842cb8ba1133","bea99957-1862-4ad8-9558-57b91e42ce64","{""participantId"":""1189B8FB342744EDA833A3F353E5D098"",""assignmentId"":""5d291c17-9384-4c99-8405-842cb8ba1133"",""projectId"":""bea99957-1862-4ad8-9558-57b91e42ce64""}","https://test12345.live/?participantId=1189B8FB342744EDA833A3F353E5D098&assignmentId=5d291c17-9384-4c99-8405-842cb8ba1133&projectId=bea99957-1862-4ad8-9558-57b91e42ce64","","2683","","{""Q0"":2}","","[0]"
"","","","","","html-button-response","117","371856","0.0-85.0","1189B8FB342744EDA833A3F353E5D098","1189B8FB342744EDA833A3F353E5D098","5d291c17-9384-4c99-8405-842cb8ba1133","bea99957-1862-4ad8-9558-57b91e42ce64","{""participantId"":""1189B8FB342744EDA833A3F353E5D098"",""assignmentId"":""5d291c17-9384-4c99-8405-842cb8ba1133"",""projectId"":""bea99957-1862-4ad8-9558-57b91e42ce64""}","https://test12345.live/?participantId=1189B8FB342744EDA833A3F353E5D098&assignmentId=5d291c17-9384-4c99-8405-842cb8ba1133&projectId=bea99957-1862-4ad8-9558-57b91e42ce64","","1761","
    <div style=""display: flex; justify-content: center; align-items: center;"">
      <img src=""images/red_deck_2.png"" style=""width: 300px; height: 300px; margin-right: 10px;"" />
      <img src=""images/blue_deck_1.png"" style=""width: 300px; height: 300px;"" />
    </div>","0","0",""
"","","","","","html-keyboard-response","118","374869","0.0-87.0-0.0","1189B8FB342744EDA833A3F353E5D098","1189B8FB342744EDA833A3F353E5D098","5d291c17-9384-4c99-8405-842cb8ba1133","bea99957-1862-4ad8-9558-57b91e42ce64","{""participantId"":""1189B8FB342744EDA833A3F353E5D098"",""assignmentId"":""5d291c17-9384-4c99-8405-842cb8ba1133"",""projectId"":""bea99957-1862-4ad8-9558-57b91e42ce64""}","https://test12345.live/?participantId=1189B8FB342744EDA833A3F353E5D098&assignmentId=5d291c17-9384-4c99-8405-842cb8ba1133&projectId=bea99957-1862-4ad8-9558-57b91e42ce64","","null","<div style=""display: flex; justify-content: center; align-items: center;"">
                    <img src=""images/semantic/semantic_series_2/semantic_series_2_a.jpg"" style=""width: 300px; height: 300px;"" />
                  </div>","null","",""
"","","","","","html-keyboard-response","119","377871","0.0-87.0-1.0","1189B8FB342744EDA833A3F353E5D098","1189B8FB342744EDA833A3F353E5D098","5d291c17-9384-4c99-8405-842cb8ba1133","bea99957-1862-4ad8-9558-57b91e42ce64","{""participantId"":""1189B8FB342744EDA833A3F353E5D098"",""assignmentId"":""5d291c17-9384-4c99-8405-842cb8ba1133"",""projectId"":""bea99957-1862-4ad8-9558-57b91e42ce64""}","https://test12345.live/?participantId=1189B8FB342744EDA833A3F353E5D098&assignmentId=5d291c17-9384-4c99-8405-842cb8ba1133&projectId=bea99957-1862-4ad8-9558-57b91e42ce64","","null","<div style=""display: flex; justify-content: center; align-items: center;"">
                    <img src=""images/semantic/semantic_series_2/semantic_series_2_b.jpg"" style=""width: 300px; height: 300px;"" />
                  </div>","null","",""
"","","","","","html-keyboard-response","120","380875","0.0-87.0-2.0","1189B8FB342744EDA833A3F353E5D098","1189B8FB342744EDA833A3F353E5D098","5d291c17-9384-4c99-8405-842cb8ba1133","bea99957-1862-4ad8-9558-57b91e42ce64","{""participantId"":""1189B8FB342744EDA833A3F353E5D098"",""assignmentId"":""5d291c17-9384-4c99-8405-842cb8ba1133"",""projectId"":""bea99957-1862-4ad8-9558-57b91e42ce64""}","https://test12345.live/?participantId=1189B8FB342744EDA833A3F353E5D098&assignmentId=5d291c17-9384-4c99-8405-842cb8ba1133&projectId=bea99957-1862-4ad8-9558-57b91e42ce64","","null","<div style=""display: flex; justify-content: center; align-items: center;"">
                    <img src=""images/semantic/semantic_series_2/semantic_series_2_c.jpg"" style=""width: 300px; height: 300px;"" />
                  </div>","null","",""
"","","","","","html-keyboard-response","121","383880","0.0-87.0-3.0","1189B8FB342744EDA833A3F353E5D098","1189B8FB342744EDA833A3F353E5D098","5d291c17-9384-4c99-8405-842cb8ba1133","bea99957-1862-4ad8-9558-57b91e42ce64","{""participantId"":""1189B8FB342744EDA833A3F353E5D098"",""assignmentId"":""5d291c17-9384-4c99-8405-842cb8ba1133"",""projectId"":""bea99957-1862-4ad8-9558-57b91e42ce64""}","https://test12345.live/?participantId=1189B8FB342744EDA833A3F353E5D098&assignmentId=5d291c17-9384-4c99-8405-842cb8ba1133&projectId=bea99957-1862-4ad8-9558-57b91e42ce64","","null","<div style=""display: flex; justify-content: center; align-items: center;"">
                    <img src=""images/semantic/semantic_series_2/semantic_series_2_d.jpg"" style=""width: 300px; height: 300px;"" />
                  </div>","null","",""
"","","","","","html-button-response","122","385591","0.0-88.0","1189B8FB342744EDA833A3F353E5D098","1189B8FB342744EDA833A3F353E5D098","5d291c17-9384-4c99-8405-842cb8ba1133","bea99957-1862-4ad8-9558-57b91e42ce64","{""participantId"":""1189B8FB342744EDA833A3F353E5D098"",""assignmentId"":""5d291c17-9384-4c99-8405-842cb8ba1133"",""projectId"":""bea99957-1862-4ad8-9558-57b91e42ce64""}","https://test12345.live/?participantId=1189B8FB342744EDA833A3F353E5D098&assignmentId=5d291c17-9384-4c99-8405-842cb8ba1133&projectId=bea99957-1862-4ad8-9558-57b91e42ce64","","1710","Was there a person in the picture?","0","",""
"","","","","","survey-likert","123","388363","0.0-89.0","1189B8FB342744EDA833A3F353E5D098","1189B8FB342744EDA833A3F353E5D098","5d291c17-9384-4c99-8405-842cb8ba1133","bea99957-1862-4ad8-9558-57b91e42ce64","{""participantId"":""1189B8FB342744EDA833A3F353E5D098"",""assignmentId"":""5d291c17-9384-4c99-8405-842cb8ba1133"",""projectId"":""bea99957-1862-4ad8-9558-57b91e42ce64""}","https://test12345.live/?participantId=1189B8FB342744EDA833A3F353E5D098&assignmentId=5d291c17-9384-4c99-8405-842cb8ba1133&projectId=bea99957-1862-4ad8-9558-57b91e42ce64","","2771","","{""Q0"":2}","","[0]"
"","","","","","html-button-response","124","390210","0.0-90.0","1189B8FB342744EDA833A3F353E5D098","1189B8FB342744EDA833A3F353E5D098","5d291c17-9384-4c99-8405-842cb8ba1133","bea99957-1862-4ad8-9558-57b91e42ce64","{""participantId"":""1189B8FB342744EDA833A3F353E5D098"",""assignmentId"":""5d291c17-9384-4c99-8405-842cb8ba1133"",""projectId"":""bea99957-1862-4ad8-9558-57b91e42ce64""}","https://test12345.live/?participantId=1189B8FB342744EDA833A3F353E5D098&assignmentId=5d291c17-9384-4c99-8405-842cb8ba1133&projectId=bea99957-1862-4ad8-9558-57b91e42ce64","","1844","
    <div style=""display: flex; justify-content: center; align-items: center;"">
      <img src=""images/red_deck_2.png"" style=""width: 300px; height: 300px; margin-right: 10px;"" />
      <img src=""images/blue_deck_1.png"" style=""width: 300px; height: 300px;"" />
    </div>","0","0",""
"","","","","","html-keyboard-response","125","393221","0.0-92.0-0.0","1189B8FB342744EDA833A3F353E5D098","1189B8FB342744EDA833A3F353E5D098","5d291c17-9384-4c99-8405-842cb8ba1133","bea99957-1862-4ad8-9558-57b91e42ce64","{""participantId"":""1189B8FB342744EDA833A3F353E5D098"",""assignmentId"":""5d291c17-9384-4c99-8405-842cb8ba1133"",""projectId"":""bea99957-1862-4ad8-9558-57b91e42ce64""}","https://test12345.live/?participantId=1189B8FB342744EDA833A3F353E5D098&assignmentId=5d291c17-9384-4c99-8405-842cb8ba1133&projectId=bea99957-1862-4ad8-9558-57b91e42ce64","","null","<div style=""display: flex; justify-content: center; align-items: center;"">
                    <img src=""images/semantic/semantic_series_13/semantic_series_13_a.jpg"" style=""width: 300px; height: 300px;"" />
                  </div>","null","",""
"","","","","","html-keyboard-response","126","396229","0.0-92.0-1.0","1189B8FB342744EDA833A3F353E5D098","1189B8FB342744EDA833A3F353E5D098","5d291c17-9384-4c99-8405-842cb8ba1133","bea99957-1862-4ad8-9558-57b91e42ce64","{""participantId"":""1189B8FB342744EDA833A3F353E5D098"",""assignmentId"":""5d291c17-9384-4c99-8405-842cb8ba1133"",""projectId"":""bea99957-1862-4ad8-9558-57b91e42ce64""}","https://test12345.live/?participantId=1189B8FB342744EDA833A3F353E5D098&assignmentId=5d291c17-9384-4c99-8405-842cb8ba1133&projectId=bea99957-1862-4ad8-9558-57b91e42ce64","","null","<div style=""display: flex; justify-content: center; align-items: center;"">
                    <img src=""images/semantic/semantic_series_13/semantic_series_13_b.jpg"" style=""width: 300px; height: 300px;"" />
                  </div>","null","",""
"","","","","","html-keyboard-response","127","399241","0.0-92.0-2.0","1189B8FB342744EDA833A3F353E5D098","1189B8FB342744EDA833A3F353E5D098","5d291c17-9384-4c99-8405-842cb8ba1133","bea99957-1862-4ad8-9558-57b91e42ce64","{""participantId"":""1189B8FB342744EDA833A3F353E5D098"",""assignmentId"":""5d291c17-9384-4c99-8405-842cb8ba1133"",""projectId"":""bea99957-1862-4ad8-9558-57b91e42ce64""}","https://test12345.live/?participantId=1189B8FB342744EDA833A3F353E5D098&assignmentId=5d291c17-9384-4c99-8405-842cb8ba1133&projectId=bea99957-1862-4ad8-9558-57b91e42ce64","","null","<div style=""display: flex; justify-content: center; align-items: center;"">
                    <img src=""images/semantic/semantic_series_13/semantic_series_13_c.jpg"" style=""width: 300px; height: 300px;"" />
                  </div>","null","",""
"","","","","","html-keyboard-response","128","402242","0.0-92.0-3.0","1189B8FB342744EDA833A3F353E5D098","1189B8FB342744EDA833A3F353E5D098","5d291c17-9384-4c99-8405-842cb8ba1133","bea99957-1862-4ad8-9558-57b91e42ce64","{""participantId"":""1189B8FB342744EDA833A3F353E5D098"",""assignmentId"":""5d291c17-9384-4c99-8405-842cb8ba1133"",""projectId"":""bea99957-1862-4ad8-9558-57b91e42ce64""}","https://test12345.live/?participantId=1189B8FB342744EDA833A3F353E5D098&assignmentId=5d291c17-9384-4c99-8405-842cb8ba1133&projectId=bea99957-1862-4ad8-9558-57b91e42ce64","","null","<div style=""display: flex; justify-content: center; align-items: center;"">
                    <img src=""images/semantic/semantic_series_13/semantic_series_13_d.jpg"" style=""width: 300px; height: 300px;"" />
                  </div>","null","",""
"","","","","","html-button-response","129","403765","0.0-93.0","1189B8FB342744EDA833A3F353E5D098","1189B8FB342744EDA833A3F353E5D098","5d291c17-9384-4c99-8405-842cb8ba1133","bea99957-1862-4ad8-9558-57b91e42ce64","{""participantId"":""1189B8FB342744EDA833A3F353E5D098"",""assignmentId"":""5d291c17-9384-4c99-8405-842cb8ba1133"",""projectId"":""bea99957-1862-4ad8-9558-57b91e42ce64""}","https://test12345.live/?participantId=1189B8FB342744EDA833A3F353E5D098&assignmentId=5d291c17-9384-4c99-8405-842cb8ba1133&projectId=bea99957-1862-4ad8-9558-57b91e42ce64","","1522","Was there a person in the picture?","0","",""
"","","","","","survey-likert","130","407284","0.0-94.0","1189B8FB342744EDA833A3F353E5D098","1189B8FB342744EDA833A3F353E5D098","5d291c17-9384-4c99-8405-842cb8ba1133","bea99957-1862-4ad8-9558-57b91e42ce64","{""participantId"":""1189B8FB342744EDA833A3F353E5D098"",""assignmentId"":""5d291c17-9384-4c99-8405-842cb8ba1133"",""projectId"":""bea99957-1862-4ad8-9558-57b91e42ce64""}","https://test12345.live/?participantId=1189B8FB342744EDA833A3F353E5D098&assignmentId=5d291c17-9384-4c99-8405-842cb8ba1133&projectId=bea99957-1862-4ad8-9558-57b91e42ce64","","3518","","{""Q0"":2}","","[0]"
"","","","","","survey-text","131","408095","0.0-95.0","1189B8FB342744EDA833A3F353E5D098","1189B8FB342744EDA833A3F353E5D098","5d291c17-9384-4c99-8405-842cb8ba1133","bea99957-1862-4ad8-9558-57b91e42ce64","{""participantId"":""1189B8FB342744EDA833A3F353E5D098"",""assignmentId"":""5d291c17-9384-4c99-8405-842cb8ba1133"",""projectId"":""bea99957-1862-4ad8-9558-57b91e42ce64""}","https://test12345.live/?participantId=1189B8FB342744EDA833A3F353E5D098&assignmentId=5d291c17-9384-4c99-8405-842cb8ba1133&projectId=bea99957-1862-4ad8-9558-57b91e42ce64","","806","","{""Q0"":""""}","",""
