"success","timeout","failed_images","failed_audio","failed_video","trial_type","trial_index","time_elapsed","internal_node_id","subject_id","study_id","session_id","view_history","rt","stimulus","response","choice"
"true","false","[]","[]","[]","preload","0","10243","0.0-0.0","8C002F40CAE340A38BFBBABEFB77AE9C","516ab52d-7901-4c5c-bdad-eb72ead15c8f","60874837-17fe-43d8-ba5e-75a805c652dd","","","","",""
"","","","","","instructions","1","15142","0.0-1.0","8C002F40CAE340A38BFBBABEFB77AE9C","516ab52d-7901-4c5c-bdad-eb72ead15c8f","60874837-17fe-43d8-ba5e-75a805c652dd","[{""page_index"":0,""viewing_time"":4894}]","4895","","",""
"","","","","","instructions","2","28489","0.0-2.0","8C002F40CAE340A38BFBBABEFB77AE9C","516ab52d-7901-4c5c-bdad-eb72ead15c8f","60874837-17fe-43d8-ba5e-75a805c652dd","[{""page_index"":0,""viewing_time"":13344}]","13345","","",""
"true","","","","","fullscreen","3","57181","0.0-3.0","8C002F40CAE340A38BFBBABEFB77AE9C","516ab52d-7901-4c5c-bdad-eb72ead15c8f","60874837-17fe-43d8-ba5e-75a805c652dd","","27531","","",""
"","","","","","instructions","4","72775","0.0-4.0","8C002F40CAE340A38BFBBABEFB77AE9C","516ab52d-7901-4c5c-bdad-eb72ead15c8f","60874837-17fe-43d8-ba5e-75a805c652dd","[{""page_index"":0,""viewing_time"":15591}]","15592","","",""
"","","","","","html-keyboard-response","5","75792","0.0-5.0","8C002F40CAE340A38BFBBABEFB77AE9C","516ab52d-7901-4c5c-bdad-eb72ead15c8f","60874837-17fe-43d8-ba5e-75a805c652dd","","null","<div style=""display: flex; justify-content: center; align-items: center;"">
                <img src=""images/causal/causal_series_11/causal_series_11_a.jpg"" style=""width: 300px; height: 300px;"" />
              </div>","null",""
"","","","","","html-keyboard-response","6","78804","0.0-6.0","8C002F40CAE340A38BFBBABEFB77AE9C","516ab52d-7901-4c5c-bdad-eb72ead15c8f","60874837-17fe-43d8-ba5e-75a805c652dd","","null","<div style=""display: flex; justify-content: center; align-items: center;"">
                <img src=""images/causal/causal_series_11/causal_series_11_b.jpg"" style=""width: 300px; height: 300px;"" />
              </div>","null",""
"","","","","","html-keyboard-response","7","81818","0.0-7.0","8C002F40CAE340A38BFBBABEFB77AE9C","516ab52d-7901-4c5c-bdad-eb72ead15c8f","60874837-17fe-43d8-ba5e-75a805c652dd","","null","<div style=""display: flex; justify-content: center; align-items: center;"">
                <img src=""images/causal/causal_series_11/causal_series_11_c.jpg"" style=""width: 300px; height: 300px;"" />
              </div>","null",""
"","","","","","html-button-response","8","85368","0.0-8.0","8C002F40CAE340A38BFBBABEFB77AE9C","516ab52d-7901-4c5c-bdad-eb72ead15c8f","60874837-17fe-43d8-ba5e-75a805c652dd","","3543","
    <div style=""display: flex; justify-content: center; align-items: center;"">
      <img src=""images/red_deck_2.png"" style=""width: 300px; height: 300px; margin-right: 10px;"" />
      <img src=""images/blue_deck_1.png"" style=""width: 300px; height: 300px;"" />
    </div>","0","0"
"","","","","","html-keyboard-response","9","88373","0.0-9.0-0.0-0.0","8C002F40CAE340A38BFBBABEFB77AE9C","516ab52d-7901-4c5c-bdad-eb72ead15c8f","60874837-17fe-43d8-ba5e-75a805c652dd","","null","<div style=""display: flex; justify-content: center; align-items: center;"">
                <img src=""images/causal/causal_series_11/causal_series_11_d.jpg"" style=""width: 300px; height: 300px;"" />
              </div>","null",""
"","","","","","html-keyboard-response","10","91378","0.0-10.0","8C002F40CAE340A38BFBBABEFB77AE9C","516ab52d-7901-4c5c-bdad-eb72ead15c8f","60874837-17fe-43d8-ba5e-75a805c652dd","","null","<div style=""display: flex; justify-content: center; align-items: center;"">
                <img src=""images/other/blank.jpg"" style=""width: 300px; height: 300px;"" />
              </div>","null",""
"","","","","","html-keyboard-response","11","94380","0.0-11.0","8C002F40CAE340A38BFBBABEFB77AE9C","516ab52d-7901-4c5c-bdad-eb72ead15c8f","60874837-17fe-43d8-ba5e-75a805c652dd","","null","<div style=""display: flex; justify-content: center; align-items: center;"">
                <img src=""images/causal/causal_series_3/causal_series_3_a.jpg"" style=""width: 300px; height: 300px;"" />
              </div>","null",""
"","","","","","html-keyboard-response","12","97385","0.0-12.0","8C002F40CAE340A38BFBBABEFB77AE9C","516ab52d-7901-4c5c-bdad-eb72ead15c8f","60874837-17fe-43d8-ba5e-75a805c652dd","","null","<div style=""display: flex; justify-content: center; align-items: center;"">
                <img src=""images/causal/causal_series_3/causal_series_3_b.jpg"" style=""width: 300px; height: 300px;"" />
              </div>","null",""
"","","","","","html-keyboard-response","13","100390","0.0-13.0","8C002F40CAE340A38BFBBABEFB77AE9C","516ab52d-7901-4c5c-bdad-eb72ead15c8f","60874837-17fe-43d8-ba5e-75a805c652dd","","null","<div style=""display: flex; justify-content: center; align-items: center;"">
                <img src=""images/causal/causal_series_3/causal_series_3_c.jpg"" style=""width: 300px; height: 300px;"" />
              </div>","null",""
"","","","","","html-button-response","14","103605","0.0-14.0","8C002F40CAE340A38BFBBABEFB77AE9C","516ab52d-7901-4c5c-bdad-eb72ead15c8f","60874837-17fe-43d8-ba5e-75a805c652dd","","3212","
    <div style=""display: flex; justify-content: center; align-items: center;"">
      <img src=""images/red_deck_2.png"" style=""width: 300px; height: 300px; margin-right: 10px;"" />
      <img src=""images/blue_deck_1.png"" style=""width: 300px; height: 300px;"" />
    </div>","0","0"
"","","","","","html-keyboard-response","15","106622","0.0-15.0-0.0-0.0","8C002F40CAE340A38BFBBABEFB77AE9C","516ab52d-7901-4c5c-bdad-eb72ead15c8f","60874837-17fe-43d8-ba5e-75a805c652dd","","null","<div style=""display: flex; justify-content: center; align-items: center;"">
                <img src=""images/causal/causal_series_3/causal_series_3_d.jpg"" style=""width: 300px; height: 300px;"" />
              </div>","null",""
"","","","","","html-keyboard-response","16","109635","0.0-16.0","8C002F40CAE340A38BFBBABEFB77AE9C","516ab52d-7901-4c5c-bdad-eb72ead15c8f","60874837-17fe-43d8-ba5e-75a805c652dd","","null","<div style=""display: flex; justify-content: center; align-items: center;"">
                <img src=""images/other/blank.jpg"" style=""width: 300px; height: 300px;"" />
              </div>","null",""
"","","","","","html-keyboard-response","17","112650","0.0-17.0","8C002F40CAE340A38BFBBABEFB77AE9C","516ab52d-7901-4c5c-bdad-eb72ead15c8f","60874837-17fe-43d8-ba5e-75a805c652dd","","null","<div style=""display: flex; justify-content: center; align-items: center;"">
                <img src=""images/causal/causal_series_9/causal_series_9_a.jpg"" style=""width: 300px; height: 300px;"" />
              </div>","null",""
"","","","","","html-keyboard-response","18","115659","0.0-18.0","8C002F40CAE340A38BFBBABEFB77AE9C","516ab52d-7901-4c5c-bdad-eb72ead15c8f","60874837-17fe-43d8-ba5e-75a805c652dd","","null","<div style=""display: flex; justify-content: center; align-items: center;"">
                <img src=""images/causal/causal_series_9/causal_series_9_b.jpg"" style=""width: 300px; height: 300px;"" />
              </div>","null",""
"","","","","","html-keyboard-response","19","118664","0.0-19.0","8C002F40CAE340A38BFBBABEFB77AE9C","516ab52d-7901-4c5c-bdad-eb72ead15c8f","60874837-17fe-43d8-ba5e-75a805c652dd","","null","<div style=""display: flex; justify-content: center; align-items: center;"">
                <img src=""images/causal/causal_series_9/causal_series_9_c.jpg"" style=""width: 300px; height: 300px;"" />
              </div>","null",""
"","","","","","html-button-response","20","122814","0.0-20.0","8C002F40CAE340A38BFBBABEFB77AE9C","516ab52d-7901-4c5c-bdad-eb72ead15c8f","60874837-17fe-43d8-ba5e-75a805c652dd","","4147","
    <div style=""display: flex; justify-content: center; align-items: center;"">
      <img src=""images/red_deck_2.png"" style=""width: 300px; height: 300px; margin-right: 10px;"" />
      <img src=""images/blue_deck_1.png"" style=""width: 300px; height: 300px;"" />
    </div>","0","0"
"","","","","","html-keyboard-response","21","125823","0.0-21.0-0.0-0.0","8C002F40CAE340A38BFBBABEFB77AE9C","516ab52d-7901-4c5c-bdad-eb72ead15c8f","60874837-17fe-43d8-ba5e-75a805c652dd","","null","<div style=""display: flex; justify-content: center; align-items: center;"">
                <img src=""images/causal/causal_series_9/causal_series_9_d.jpg"" style=""width: 300px; height: 300px;"" />
              </div>","null",""
"","","","","","html-keyboard-response","22","128830","0.0-22.0","8C002F40CAE340A38BFBBABEFB77AE9C","516ab52d-7901-4c5c-bdad-eb72ead15c8f","60874837-17fe-43d8-ba5e-75a805c652dd","","null","<div style=""display: flex; justify-content: center; align-items: center;"">
                <img src=""images/other/blank.jpg"" style=""width: 300px; height: 300px;"" />
              </div>","null",""
"","","","","","html-keyboard-response","23","131836","0.0-23.0","8C002F40CAE340A38BFBBABEFB77AE9C","516ab52d-7901-4c5c-bdad-eb72ead15c8f","60874837-17fe-43d8-ba5e-75a805c652dd","","null","<div style=""display: flex; justify-content: center; align-items: center;"">
                <img src=""images/causal/causal_series_2/causal_series_2_a.jpg"" style=""width: 300px; height: 300px;"" />
              </div>","null",""
"","","","","","html-keyboard-response","24","134847","0.0-24.0","8C002F40CAE340A38BFBBABEFB77AE9C","516ab52d-7901-4c5c-bdad-eb72ead15c8f","60874837-17fe-43d8-ba5e-75a805c652dd","","null","<div style=""display: flex; justify-content: center; align-items: center;"">
                <img src=""images/causal/causal_series_2/causal_series_2_b.jpg"" style=""width: 300px; height: 300px;"" />
              </div>","null",""
"","","","","","html-keyboard-response","25","137855","0.0-25.0","8C002F40CAE340A38BFBBABEFB77AE9C","516ab52d-7901-4c5c-bdad-eb72ead15c8f","60874837-17fe-43d8-ba5e-75a805c652dd","","null","<div style=""display: flex; justify-content: center; align-items: center;"">
                <img src=""images/causal/causal_series_2/causal_series_2_c.jpg"" style=""width: 300px; height: 300px;"" />
              </div>","null",""
"","","","","","html-button-response","26","141815","0.0-26.0","8C002F40CAE340A38BFBBABEFB77AE9C","516ab52d-7901-4c5c-bdad-eb72ead15c8f","60874837-17fe-43d8-ba5e-75a805c652dd","","3956","
    <div style=""display: flex; justify-content: center; align-items: center;"">
      <img src=""images/red_deck_2.png"" style=""width: 300px; height: 300px; margin-right: 10px;"" />
      <img src=""images/blue_deck_1.png"" style=""width: 300px; height: 300px;"" />
    </div>","0","0"
"","","","","","html-keyboard-response","27","144825","0.0-27.0-0.0-0.0","8C002F40CAE340A38BFBBABEFB77AE9C","516ab52d-7901-4c5c-bdad-eb72ead15c8f","60874837-17fe-43d8-ba5e-75a805c652dd","","null","<div style=""display: flex; justify-content: center; align-items: center;"">
                <img src=""images/causal/causal_series_2/causal_series_2_d.jpg"" style=""width: 300px; height: 300px;"" />
              </div>","null",""
"","","","","","html-keyboard-response","28","147829","0.0-28.0","8C002F40CAE340A38BFBBABEFB77AE9C","516ab52d-7901-4c5c-bdad-eb72ead15c8f","60874837-17fe-43d8-ba5e-75a805c652dd","","null","<div style=""display: flex; justify-content: center; align-items: center;"">
                <img src=""images/other/blank.jpg"" style=""width: 300px; height: 300px;"" />
              </div>","null",""
"","","","","","html-keyboard-response","29","150837","0.0-29.0","8C002F40CAE340A38BFBBABEFB77AE9C","516ab52d-7901-4c5c-bdad-eb72ead15c8f","60874837-17fe-43d8-ba5e-75a805c652dd","","null","<div style=""display: flex; justify-content: center; align-items: center;"">
                <img src=""images/causal/causal_series_10/causal_series_10_a.jpg"" style=""width: 300px; height: 300px;"" />
              </div>","null",""
"","","","","","html-keyboard-response","30","153849","0.0-30.0","8C002F40CAE340A38BFBBABEFB77AE9C","516ab52d-7901-4c5c-bdad-eb72ead15c8f","60874837-17fe-43d8-ba5e-75a805c652dd","","null","<div style=""display: flex; justify-content: center; align-items: center;"">
                <img src=""images/causal/causal_series_10/causal_series_10_b.jpg"" style=""width: 300px; height: 300px;"" />
              </div>","null",""
"","","","","","html-keyboard-response","31","156862","0.0-31.0","8C002F40CAE340A38BFBBABEFB77AE9C","516ab52d-7901-4c5c-bdad-eb72ead15c8f","60874837-17fe-43d8-ba5e-75a805c652dd","","null","<div style=""display: flex; justify-content: center; align-items: center;"">
                <img src=""images/causal/causal_series_10/causal_series_10_c.jpg"" style=""width: 300px; height: 300px;"" />
              </div>","null",""
"","","","","","html-button-response","32","158888","0.0-32.0","8C002F40CAE340A38BFBBABEFB77AE9C","516ab52d-7901-4c5c-bdad-eb72ead15c8f","60874837-17fe-43d8-ba5e-75a805c652dd","","2020","
    <div style=""display: flex; justify-content: center; align-items: center;"">
      <img src=""images/red_deck_2.png"" style=""width: 300px; height: 300px; margin-right: 10px;"" />
      <img src=""images/blue_deck_1.png"" style=""width: 300px; height: 300px;"" />
    </div>","1","1"
"","","","","","html-keyboard-response","33","161900","0.0-33.0-1.0-0.0","8C002F40CAE340A38BFBBABEFB77AE9C","516ab52d-7901-4c5c-bdad-eb72ead15c8f","60874837-17fe-43d8-ba5e-75a805c652dd","","null","<div style=""display: flex; justify-content: center; align-items: center;"">
                <img src=""images/semantic/semantic_series_9/semantic_series_9_d.jpg"" style=""width: 300px; height: 300px;"" />
              </div>","null",""
"","","","","","html-keyboard-response","34","164908","0.0-34.0","8C002F40CAE340A38BFBBABEFB77AE9C","516ab52d-7901-4c5c-bdad-eb72ead15c8f","60874837-17fe-43d8-ba5e-75a805c652dd","","null","<div style=""display: flex; justify-content: center; align-items: center;"">
                <img src=""images/other/blank.jpg"" style=""width: 300px; height: 300px;"" />
              </div>","null",""
"","","","","","html-keyboard-response","35","167924","0.0-35.0","8C002F40CAE340A38BFBBABEFB77AE9C","516ab52d-7901-4c5c-bdad-eb72ead15c8f","60874837-17fe-43d8-ba5e-75a805c652dd","","null","<div style=""display: flex; justify-content: center; align-items: center;"">
                <img src=""images/causal/causal_series_8/causal_series_8_a.jpg"" style=""width: 300px; height: 300px;"" />
              </div>","null",""
"","","","","","html-keyboard-response","36","170930","0.0-36.0","8C002F40CAE340A38BFBBABEFB77AE9C","516ab52d-7901-4c5c-bdad-eb72ead15c8f","60874837-17fe-43d8-ba5e-75a805c652dd","","null","<div style=""display: flex; justify-content: center; align-items: center;"">
                <img src=""images/causal/causal_series_8/causal_series_8_b.jpg"" style=""width: 300px; height: 300px;"" />
              </div>","null",""
"","","","","","html-keyboard-response","37","173934","0.0-37.0","8C002F40CAE340A38BFBBABEFB77AE9C","516ab52d-7901-4c5c-bdad-eb72ead15c8f","60874837-17fe-43d8-ba5e-75a805c652dd","","null","<div style=""display: flex; justify-content: center; align-items: center;"">
                <img src=""images/causal/causal_series_8/causal_series_8_c.jpg"" style=""width: 300px; height: 300px;"" />
              </div>","null",""
"","","","","","html-button-response","38","195183","0.0-38.0","8C002F40CAE340A38BFBBABEFB77AE9C","516ab52d-7901-4c5c-bdad-eb72ead15c8f","60874837-17fe-43d8-ba5e-75a805c652dd","","21243","
    <div style=""display: flex; justify-content: center; align-items: center;"">
      <img src=""images/red_deck_2.png"" style=""width: 300px; height: 300px; margin-right: 10px;"" />
      <img src=""images/blue_deck_1.png"" style=""width: 300px; height: 300px;"" />
    </div>","1","1"
"","","","","","html-keyboard-response","39","198201","0.0-39.0-1.0-0.0","8C002F40CAE340A38BFBBABEFB77AE9C","516ab52d-7901-4c5c-bdad-eb72ead15c8f","60874837-17fe-43d8-ba5e-75a805c652dd","","null","<div style=""display: flex; justify-content: center; align-items: center;"">
                <img src=""images/semantic/semantic_series_7/semantic_series_7_d.jpg"" style=""width: 300px; height: 300px;"" />
              </div>","null",""
"","","","","","html-keyboard-response","40","201215","0.0-40.0","8C002F40CAE340A38BFBBABEFB77AE9C","516ab52d-7901-4c5c-bdad-eb72ead15c8f","60874837-17fe-43d8-ba5e-75a805c652dd","","null","<div style=""display: flex; justify-content: center; align-items: center;"">
                <img src=""images/other/blank.jpg"" style=""width: 300px; height: 300px;"" />
              </div>","null",""
"","","","","","html-keyboard-response","41","204234","0.0-41.0","8C002F40CAE340A38BFBBABEFB77AE9C","516ab52d-7901-4c5c-bdad-eb72ead15c8f","60874837-17fe-43d8-ba5e-75a805c652dd","","null","<div style=""display: flex; justify-content: center; align-items: center;"">
                <img src=""images/causal/causal_series_16/causal_series_16_a.jpg"" style=""width: 300px; height: 300px;"" />
              </div>","null",""
"","","","","","html-keyboard-response","42","207243","0.0-42.0","8C002F40CAE340A38BFBBABEFB77AE9C","516ab52d-7901-4c5c-bdad-eb72ead15c8f","60874837-17fe-43d8-ba5e-75a805c652dd","","null","<div style=""display: flex; justify-content: center; align-items: center;"">
                <img src=""images/causal/causal_series_16/causal_series_16_b.jpg"" style=""width: 300px; height: 300px;"" />
              </div>","null",""
"","","","","","html-keyboard-response","43","210259","0.0-43.0","8C002F40CAE340A38BFBBABEFB77AE9C","516ab52d-7901-4c5c-bdad-eb72ead15c8f","60874837-17fe-43d8-ba5e-75a805c652dd","","null","<div style=""display: flex; justify-content: center; align-items: center;"">
                <img src=""images/causal/causal_series_16/causal_series_16_c.jpg"" style=""width: 300px; height: 300px;"" />
              </div>","null",""
"","","","","","html-button-response","44","213262","0.0-44.0","8C002F40CAE340A38BFBBABEFB77AE9C","516ab52d-7901-4c5c-bdad-eb72ead15c8f","60874837-17fe-43d8-ba5e-75a805c652dd","","2998","
    <div style=""display: flex; justify-content: center; align-items: center;"">
      <img src=""images/red_deck_2.png"" style=""width: 300px; height: 300px; margin-right: 10px;"" />
      <img src=""images/blue_deck_1.png"" style=""width: 300px; height: 300px;"" />
    </div>","0","0"
"","","","","","html-keyboard-response","45","216281","0.0-45.0-0.0-0.0","8C002F40CAE340A38BFBBABEFB77AE9C","516ab52d-7901-4c5c-bdad-eb72ead15c8f","60874837-17fe-43d8-ba5e-75a805c652dd","","null","<div style=""display: flex; justify-content: center; align-items: center;"">
                <img src=""images/causal/causal_series_16/causal_series_16_d.jpg"" style=""width: 300px; height: 300px;"" />
              </div>","null",""
"","","","","","html-keyboard-response","46","219283","0.0-46.0","8C002F40CAE340A38BFBBABEFB77AE9C","516ab52d-7901-4c5c-bdad-eb72ead15c8f","60874837-17fe-43d8-ba5e-75a805c652dd","","null","<div style=""display: flex; justify-content: center; align-items: center;"">
                <img src=""images/other/blank.jpg"" style=""width: 300px; height: 300px;"" />
              </div>","null",""
"","","","","","html-keyboard-response","47","222285","0.0-47.0","8C002F40CAE340A38BFBBABEFB77AE9C","516ab52d-7901-4c5c-bdad-eb72ead15c8f","60874837-17fe-43d8-ba5e-75a805c652dd","","null","<div style=""display: flex; justify-content: center; align-items: center;"">
                <img src=""images/causal/causal_series_14/causal_series_14_a.jpg"" style=""width: 300px; height: 300px;"" />
              </div>","null",""
"","","","","","html-keyboard-response","48","225296","0.0-48.0","8C002F40CAE340A38BFBBABEFB77AE9C","516ab52d-7901-4c5c-bdad-eb72ead15c8f","60874837-17fe-43d8-ba5e-75a805c652dd","","null","<div style=""display: flex; justify-content: center; align-items: center;"">
                <img src=""images/causal/causal_series_14/causal_series_14_b.jpg"" style=""width: 300px; height: 300px;"" />
              </div>","null",""
"","","","","","html-keyboard-response","49","228310","0.0-49.0","8C002F40CAE340A38BFBBABEFB77AE9C","516ab52d-7901-4c5c-bdad-eb72ead15c8f","60874837-17fe-43d8-ba5e-75a805c652dd","","null","<div style=""display: flex; justify-content: center; align-items: center;"">
                <img src=""images/causal/causal_series_14/causal_series_14_c.jpg"" style=""width: 300px; height: 300px;"" />
              </div>","null",""
"","","","","","html-button-response","50","230787","0.0-50.0","8C002F40CAE340A38BFBBABEFB77AE9C","516ab52d-7901-4c5c-bdad-eb72ead15c8f","60874837-17fe-43d8-ba5e-75a805c652dd","","2474","
    <div style=""display: flex; justify-content: center; align-items: center;"">
      <img src=""images/red_deck_2.png"" style=""width: 300px; height: 300px; margin-right: 10px;"" />
      <img src=""images/blue_deck_1.png"" style=""width: 300px; height: 300px;"" />
    </div>","0","0"
"","","","","","html-keyboard-response","51","233792","0.0-51.0-0.0-0.0","8C002F40CAE340A38BFBBABEFB77AE9C","516ab52d-7901-4c5c-bdad-eb72ead15c8f","60874837-17fe-43d8-ba5e-75a805c652dd","","null","<div style=""display: flex; justify-content: center; align-items: center;"">
                <img src=""images/causal/causal_series_14/causal_series_14_d.jpg"" style=""width: 300px; height: 300px;"" />
              </div>","null",""
"","","","","","html-keyboard-response","52","236805","0.0-52.0","8C002F40CAE340A38BFBBABEFB77AE9C","516ab52d-7901-4c5c-bdad-eb72ead15c8f","60874837-17fe-43d8-ba5e-75a805c652dd","","null","<div style=""display: flex; justify-content: center; align-items: center;"">
                <img src=""images/other/blank.jpg"" style=""width: 300px; height: 300px;"" />
              </div>","null",""
"","","","","","html-keyboard-response","53","239822","0.0-53.0","8C002F40CAE340A38BFBBABEFB77AE9C","516ab52d-7901-4c5c-bdad-eb72ead15c8f","60874837-17fe-43d8-ba5e-75a805c652dd","","null","<div style=""display: flex; justify-content: center; align-items: center;"">
                <img src=""images/causal/causal_series_7/causal_series_7_a.jpg"" style=""width: 300px; height: 300px;"" />
              </div>","null",""
"","","","","","html-keyboard-response","54","242829","0.0-54.0","8C002F40CAE340A38BFBBABEFB77AE9C","516ab52d-7901-4c5c-bdad-eb72ead15c8f","60874837-17fe-43d8-ba5e-75a805c652dd","","null","<div style=""display: flex; justify-content: center; align-items: center;"">
                <img src=""images/causal/causal_series_7/causal_series_7_b.jpg"" style=""width: 300px; height: 300px;"" />
              </div>","null",""
"","","","","","html-keyboard-response","55","245837","0.0-55.0","8C002F40CAE340A38BFBBABEFB77AE9C","516ab52d-7901-4c5c-bdad-eb72ead15c8f","60874837-17fe-43d8-ba5e-75a805c652dd","","null","<div style=""display: flex; justify-content: center; align-items: center;"">
                <img src=""images/causal/causal_series_7/causal_series_7_c.jpg"" style=""width: 300px; height: 300px;"" />
              </div>","null",""
"","","","","","html-button-response","56","255119","0.0-56.0","8C002F40CAE340A38BFBBABEFB77AE9C","516ab52d-7901-4c5c-bdad-eb72ead15c8f","60874837-17fe-43d8-ba5e-75a805c652dd","","9279","
    <div style=""display: flex; justify-content: center; align-items: center;"">
      <img src=""images/red_deck_2.png"" style=""width: 300px; height: 300px; margin-right: 10px;"" />
      <img src=""images/blue_deck_1.png"" style=""width: 300px; height: 300px;"" />
    </div>","0","0"
"","","","","","html-keyboard-response","57","258123","0.0-57.0-0.0-0.0","8C002F40CAE340A38BFBBABEFB77AE9C","516ab52d-7901-4c5c-bdad-eb72ead15c8f","60874837-17fe-43d8-ba5e-75a805c652dd","","null","<div style=""display: flex; justify-content: center; align-items: center;"">
                <img src=""images/causal/causal_series_7/causal_series_7_d.jpg"" style=""width: 300px; height: 300px;"" />
              </div>","null",""
"","","","","","html-keyboard-response","58","261127","0.0-58.0","8C002F40CAE340A38BFBBABEFB77AE9C","516ab52d-7901-4c5c-bdad-eb72ead15c8f","60874837-17fe-43d8-ba5e-75a805c652dd","","null","<div style=""display: flex; justify-content: center; align-items: center;"">
                <img src=""images/other/blank.jpg"" style=""width: 300px; height: 300px;"" />
              </div>","null",""
"","","","","","html-keyboard-response","59","264129","0.0-59.0","8C002F40CAE340A38BFBBABEFB77AE9C","516ab52d-7901-4c5c-bdad-eb72ead15c8f","60874837-17fe-43d8-ba5e-75a805c652dd","","null","<div style=""display: flex; justify-content: center; align-items: center;"">
                <img src=""images/causal/causal_series_5/causal_series_5_a.jpg"" style=""width: 300px; height: 300px;"" />
              </div>","null",""
"","","","","","html-keyboard-response","60","267142","0.0-60.0","8C002F40CAE340A38BFBBABEFB77AE9C","516ab52d-7901-4c5c-bdad-eb72ead15c8f","60874837-17fe-43d8-ba5e-75a805c652dd","","null","<div style=""display: flex; justify-content: center; align-items: center;"">
                <img src=""images/causal/causal_series_5/causal_series_5_b.jpg"" style=""width: 300px; height: 300px;"" />
              </div>","null",""
"","","","","","html-keyboard-response","61","270153","0.0-61.0","8C002F40CAE340A38BFBBABEFB77AE9C","516ab52d-7901-4c5c-bdad-eb72ead15c8f","60874837-17fe-43d8-ba5e-75a805c652dd","","null","<div style=""display: flex; justify-content: center; align-items: center;"">
                <img src=""images/causal/causal_series_5/causal_series_5_c.jpg"" style=""width: 300px; height: 300px;"" />
              </div>","null",""
"","","","","","html-button-response","62","272786","0.0-62.0","8C002F40CAE340A38BFBBABEFB77AE9C","516ab52d-7901-4c5c-bdad-eb72ead15c8f","60874837-17fe-43d8-ba5e-75a805c652dd","","2630","
    <div style=""display: flex; justify-content: center; align-items: center;"">
      <img src=""images/red_deck_2.png"" style=""width: 300px; height: 300px; margin-right: 10px;"" />
      <img src=""images/blue_deck_1.png"" style=""width: 300px; height: 300px;"" />
    </div>","0","0"
"","","","","","html-keyboard-response","63","275794","0.0-63.0-0.0-0.0","8C002F40CAE340A38BFBBABEFB77AE9C","516ab52d-7901-4c5c-bdad-eb72ead15c8f","60874837-17fe-43d8-ba5e-75a805c652dd","","null","<div style=""display: flex; justify-content: center; align-items: center;"">
                <img src=""images/causal/causal_series_5/causal_series_5_d.jpg"" style=""width: 300px; height: 300px;"" />
              </div>","null",""
"","","","","","html-keyboard-response","64","278809","0.0-64.0","8C002F40CAE340A38BFBBABEFB77AE9C","516ab52d-7901-4c5c-bdad-eb72ead15c8f","60874837-17fe-43d8-ba5e-75a805c652dd","","null","<div style=""display: flex; justify-content: center; align-items: center;"">
                <img src=""images/other/blank.jpg"" style=""width: 300px; height: 300px;"" />
              </div>","null",""
"","","","","","html-keyboard-response","65","281824","0.0-65.0","8C002F40CAE340A38BFBBABEFB77AE9C","516ab52d-7901-4c5c-bdad-eb72ead15c8f","60874837-17fe-43d8-ba5e-75a805c652dd","","null","<div style=""display: flex; justify-content: center; align-items: center;"">
                <img src=""images/causal/causal_series_6/causal_series_6_a.jpg"" style=""width: 300px; height: 300px;"" />
              </div>","null",""
"","","","","","html-keyboard-response","66","284835","0.0-66.0","8C002F40CAE340A38BFBBABEFB77AE9C","516ab52d-7901-4c5c-bdad-eb72ead15c8f","60874837-17fe-43d8-ba5e-75a805c652dd","","null","<div style=""display: flex; justify-content: center; align-items: center;"">
                <img src=""images/causal/causal_series_6/causal_series_6_b.jpg"" style=""width: 300px; height: 300px;"" />
              </div>","null",""
"","","","","","html-keyboard-response","67","287845","0.0-67.0","8C002F40CAE340A38BFBBABEFB77AE9C","516ab52d-7901-4c5c-bdad-eb72ead15c8f","60874837-17fe-43d8-ba5e-75a805c652dd","","null","<div style=""display: flex; justify-content: center; align-items: center;"">
                <img src=""images/causal/causal_series_6/causal_series_6_c.jpg"" style=""width: 300px; height: 300px;"" />
              </div>","null",""
"","","","","","html-button-response","68","292362","0.0-68.0","8C002F40CAE340A38BFBBABEFB77AE9C","516ab52d-7901-4c5c-bdad-eb72ead15c8f","60874837-17fe-43d8-ba5e-75a805c652dd","","4514","
    <div style=""display: flex; justify-content: center; align-items: center;"">
      <img src=""images/red_deck_2.png"" style=""width: 300px; height: 300px; margin-right: 10px;"" />
      <img src=""images/blue_deck_1.png"" style=""width: 300px; height: 300px;"" />
    </div>","0","0"
"","","","","","html-keyboard-response","69","295379","0.0-69.0-0.0-0.0","8C002F40CAE340A38BFBBABEFB77AE9C","516ab52d-7901-4c5c-bdad-eb72ead15c8f","60874837-17fe-43d8-ba5e-75a805c652dd","","null","<div style=""display: flex; justify-content: center; align-items: center;"">
                <img src=""images/causal/causal_series_6/causal_series_6_d.jpg"" style=""width: 300px; height: 300px;"" />
              </div>","null",""
"","","","","","html-keyboard-response","70","298396","0.0-70.0","8C002F40CAE340A38BFBBABEFB77AE9C","516ab52d-7901-4c5c-bdad-eb72ead15c8f","60874837-17fe-43d8-ba5e-75a805c652dd","","null","<div style=""display: flex; justify-content: center; align-items: center;"">
                <img src=""images/other/blank.jpg"" style=""width: 300px; height: 300px;"" />
              </div>","null",""
"","","","","","html-keyboard-response","71","301409","0.0-71.0","8C002F40CAE340A38BFBBABEFB77AE9C","516ab52d-7901-4c5c-bdad-eb72ead15c8f","60874837-17fe-43d8-ba5e-75a805c652dd","","null","<div style=""display: flex; justify-content: center; align-items: center;"">
                <img src=""images/causal/causal_series_18/causal_series_18_a.jpg"" style=""width: 300px; height: 300px;"" />
              </div>","null",""
"","","","","","html-keyboard-response","72","304414","0.0-72.0","8C002F40CAE340A38BFBBABEFB77AE9C","516ab52d-7901-4c5c-bdad-eb72ead15c8f","60874837-17fe-43d8-ba5e-75a805c652dd","","null","<div style=""display: flex; justify-content: center; align-items: center;"">
                <img src=""images/causal/causal_series_18/causal_series_18_b.jpg"" style=""width: 300px; height: 300px;"" />
              </div>","null",""
"","","","","","html-keyboard-response","73","307431","0.0-73.0","8C002F40CAE340A38BFBBABEFB77AE9C","516ab52d-7901-4c5c-bdad-eb72ead15c8f","60874837-17fe-43d8-ba5e-75a805c652dd","","null","<div style=""display: flex; justify-content: center; align-items: center;"">
                <img src=""images/causal/causal_series_18/causal_series_18_c.jpg"" style=""width: 300px; height: 300px;"" />
              </div>","null",""
"","","","","","html-button-response","74","313696","0.0-74.0","8C002F40CAE340A38BFBBABEFB77AE9C","516ab52d-7901-4c5c-bdad-eb72ead15c8f","60874837-17fe-43d8-ba5e-75a805c652dd","","6261","
    <div style=""display: flex; justify-content: center; align-items: center;"">
      <img src=""images/red_deck_2.png"" style=""width: 300px; height: 300px; margin-right: 10px;"" />
      <img src=""images/blue_deck_1.png"" style=""width: 300px; height: 300px;"" />
    </div>","0","0"
"","","","","","html-keyboard-response","75","316712","0.0-75.0-0.0-0.0","8C002F40CAE340A38BFBBABEFB77AE9C","516ab52d-7901-4c5c-bdad-eb72ead15c8f","60874837-17fe-43d8-ba5e-75a805c652dd","","null","<div style=""display: flex; justify-content: center; align-items: center;"">
                <img src=""images/causal/causal_series_18/causal_series_18_d.jpg"" style=""width: 300px; height: 300px;"" />
              </div>","null",""
"","","","","","html-keyboard-response","76","319722","0.0-76.0","8C002F40CAE340A38BFBBABEFB77AE9C","516ab52d-7901-4c5c-bdad-eb72ead15c8f","60874837-17fe-43d8-ba5e-75a805c652dd","","null","<div style=""display: flex; justify-content: center; align-items: center;"">
                <img src=""images/other/blank.jpg"" style=""width: 300px; height: 300px;"" />
              </div>","null",""
"","","","","","html-keyboard-response","77","322737","0.0-77.0","8C002F40CAE340A38BFBBABEFB77AE9C","516ab52d-7901-4c5c-bdad-eb72ead15c8f","60874837-17fe-43d8-ba5e-75a805c652dd","","null","<div style=""display: flex; justify-content: center; align-items: center;"">
                <img src=""images/causal/causal_series_1/causal_series_1_a.jpg"" style=""width: 300px; height: 300px;"" />
              </div>","null",""
"","","","","","html-keyboard-response","78","325755","0.0-78.0","8C002F40CAE340A38BFBBABEFB77AE9C","516ab52d-7901-4c5c-bdad-eb72ead15c8f","60874837-17fe-43d8-ba5e-75a805c652dd","","null","<div style=""display: flex; justify-content: center; align-items: center;"">
                <img src=""images/causal/causal_series_1/causal_series_1_b.jpg"" style=""width: 300px; height: 300px;"" />
              </div>","null",""
"","","","","","html-keyboard-response","79","328757","0.0-79.0","8C002F40CAE340A38BFBBABEFB77AE9C","516ab52d-7901-4c5c-bdad-eb72ead15c8f","60874837-17fe-43d8-ba5e-75a805c652dd","","null","<div style=""display: flex; justify-content: center; align-items: center;"">
                <img src=""images/causal/causal_series_1/causal_series_1_c.jpg"" style=""width: 300px; height: 300px;"" />
              </div>","null",""
"","","","","","html-button-response","80","330518","0.0-80.0","8C002F40CAE340A38BFBBABEFB77AE9C","516ab52d-7901-4c5c-bdad-eb72ead15c8f","60874837-17fe-43d8-ba5e-75a805c652dd","","1758","
    <div style=""display: flex; justify-content: center; align-items: center;"">
      <img src=""images/red_deck_2.png"" style=""width: 300px; height: 300px; margin-right: 10px;"" />
      <img src=""images/blue_deck_1.png"" style=""width: 300px; height: 300px;"" />
    </div>","0","0"
"","","","","","html-keyboard-response","81","333522","0.0-81.0-0.0-0.0","8C002F40CAE340A38BFBBABEFB77AE9C","516ab52d-7901-4c5c-bdad-eb72ead15c8f","60874837-17fe-43d8-ba5e-75a805c652dd","","null","<div style=""display: flex; justify-content: center; align-items: center;"">
                <img src=""images/causal/causal_series_1/causal_series_1_d.jpg"" style=""width: 300px; height: 300px;"" />
              </div>","null",""
"","","","","","html-keyboard-response","82","336534","0.0-82.0","8C002F40CAE340A38BFBBABEFB77AE9C","516ab52d-7901-4c5c-bdad-eb72ead15c8f","60874837-17fe-43d8-ba5e-75a805c652dd","","null","<div style=""display: flex; justify-content: center; align-items: center;"">
                <img src=""images/other/blank.jpg"" style=""width: 300px; height: 300px;"" />
              </div>","null",""
"","","","","","html-keyboard-response","83","339548","0.0-83.0","8C002F40CAE340A38BFBBABEFB77AE9C","516ab52d-7901-4c5c-bdad-eb72ead15c8f","60874837-17fe-43d8-ba5e-75a805c652dd","","null","<div style=""display: flex; justify-content: center; align-items: center;"">
                <img src=""images/causal/causal_series_17/causal_series_17_a.jpg"" style=""width: 300px; height: 300px;"" />
              </div>","null",""
"","","","","","html-keyboard-response","84","342560","0.0-84.0","8C002F40CAE340A38BFBBABEFB77AE9C","516ab52d-7901-4c5c-bdad-eb72ead15c8f","60874837-17fe-43d8-ba5e-75a805c652dd","","null","<div style=""display: flex; justify-content: center; align-items: center;"">
                <img src=""images/causal/causal_series_17/causal_series_17_b.jpg"" style=""width: 300px; height: 300px;"" />
              </div>","null",""
"","","","","","html-keyboard-response","85","345572","0.0-85.0","8C002F40CAE340A38BFBBABEFB77AE9C","516ab52d-7901-4c5c-bdad-eb72ead15c8f","60874837-17fe-43d8-ba5e-75a805c652dd","","null","<div style=""display: flex; justify-content: center; align-items: center;"">
                <img src=""images/causal/causal_series_17/causal_series_17_c.jpg"" style=""width: 300px; height: 300px;"" />
              </div>","null",""
"","","","","","html-button-response","86","348327","0.0-86.0","8C002F40CAE340A38BFBBABEFB77AE9C","516ab52d-7901-4c5c-bdad-eb72ead15c8f","60874837-17fe-43d8-ba5e-75a805c652dd","","2752","
    <div style=""display: flex; justify-content: center; align-items: center;"">
      <img src=""images/red_deck_2.png"" style=""width: 300px; height: 300px; margin-right: 10px;"" />
      <img src=""images/blue_deck_1.png"" style=""width: 300px; height: 300px;"" />
    </div>","0","0"
"","","","","","html-keyboard-response","87","351341","0.0-87.0-0.0-0.0","8C002F40CAE340A38BFBBABEFB77AE9C","516ab52d-7901-4c5c-bdad-eb72ead15c8f","60874837-17fe-43d8-ba5e-75a805c652dd","","null","<div style=""display: flex; justify-content: center; align-items: center;"">
                <img src=""images/causal/causal_series_17/causal_series_17_d.jpg"" style=""width: 300px; height: 300px;"" />
              </div>","null",""
"","","","","","html-keyboard-response","88","354354","0.0-88.0","8C002F40CAE340A38BFBBABEFB77AE9C","516ab52d-7901-4c5c-bdad-eb72ead15c8f","60874837-17fe-43d8-ba5e-75a805c652dd","","null","<div style=""display: flex; justify-content: center; align-items: center;"">
                <img src=""images/other/blank.jpg"" style=""width: 300px; height: 300px;"" />
              </div>","null",""
"","","","","","html-keyboard-response","89","357371","0.0-89.0","8C002F40CAE340A38BFBBABEFB77AE9C","516ab52d-7901-4c5c-bdad-eb72ead15c8f","60874837-17fe-43d8-ba5e-75a805c652dd","","null","<div style=""display: flex; justify-content: center; align-items: center;"">
                <img src=""images/causal/causal_series_12/causal_series_12_a.jpg"" style=""width: 300px; height: 300px;"" />
              </div>","null",""
"","","","","","html-keyboard-response","90","360379","0.0-90.0","8C002F40CAE340A38BFBBABEFB77AE9C","516ab52d-7901-4c5c-bdad-eb72ead15c8f","60874837-17fe-43d8-ba5e-75a805c652dd","","null","<div style=""display: flex; justify-content: center; align-items: center;"">
                <img src=""images/causal/causal_series_12/causal_series_12_b.jpg"" style=""width: 300px; height: 300px;"" />
              </div>","null",""
"","","","","","html-keyboard-response","91","363393","0.0-91.0","8C002F40CAE340A38BFBBABEFB77AE9C","516ab52d-7901-4c5c-bdad-eb72ead15c8f","60874837-17fe-43d8-ba5e-75a805c652dd","","null","<div style=""display: flex; justify-content: center; align-items: center;"">
                <img src=""images/causal/causal_series_12/causal_series_12_c.jpg"" style=""width: 300px; height: 300px;"" />
              </div>","null",""
"","","","","","html-button-response","92","365695","0.0-92.0","8C002F40CAE340A38BFBBABEFB77AE9C","516ab52d-7901-4c5c-bdad-eb72ead15c8f","60874837-17fe-43d8-ba5e-75a805c652dd","","2298","
    <div style=""display: flex; justify-content: center; align-items: center;"">
      <img src=""images/red_deck_2.png"" style=""width: 300px; height: 300px; margin-right: 10px;"" />
      <img src=""images/blue_deck_1.png"" style=""width: 300px; height: 300px;"" />
    </div>","0","0"
"","","","","","html-keyboard-response","93","368710","0.0-93.0-0.0-0.0","8C002F40CAE340A38BFBBABEFB77AE9C","516ab52d-7901-4c5c-bdad-eb72ead15c8f","60874837-17fe-43d8-ba5e-75a805c652dd","","null","<div style=""display: flex; justify-content: center; align-items: center;"">
                <img src=""images/causal/causal_series_12/causal_series_12_d.jpg"" style=""width: 300px; height: 300px;"" />
              </div>","null",""
"","","","","","html-keyboard-response","94","371721","0.0-94.0","8C002F40CAE340A38BFBBABEFB77AE9C","516ab52d-7901-4c5c-bdad-eb72ead15c8f","60874837-17fe-43d8-ba5e-75a805c652dd","","null","<div style=""display: flex; justify-content: center; align-items: center;"">
                <img src=""images/other/blank.jpg"" style=""width: 300px; height: 300px;"" />
              </div>","null",""
"","","","","","html-keyboard-response","95","374735","0.0-95.0","8C002F40CAE340A38BFBBABEFB77AE9C","516ab52d-7901-4c5c-bdad-eb72ead15c8f","60874837-17fe-43d8-ba5e-75a805c652dd","","null","<div style=""display: flex; justify-content: center; align-items: center;"">
                <img src=""images/causal/causal_series_4/causal_series_4_a.jpg"" style=""width: 300px; height: 300px;"" />
              </div>","null",""
"","","","","","html-keyboard-response","96","377753","0.0-96.0","8C002F40CAE340A38BFBBABEFB77AE9C","516ab52d-7901-4c5c-bdad-eb72ead15c8f","60874837-17fe-43d8-ba5e-75a805c652dd","","null","<div style=""display: flex; justify-content: center; align-items: center;"">
                <img src=""images/causal/causal_series_4/causal_series_4_b.jpg"" style=""width: 300px; height: 300px;"" />
              </div>","null",""
"","","","","","html-keyboard-response","97","380764","0.0-97.0","8C002F40CAE340A38BFBBABEFB77AE9C","516ab52d-7901-4c5c-bdad-eb72ead15c8f","60874837-17fe-43d8-ba5e-75a805c652dd","","null","<div style=""display: flex; justify-content: center; align-items: center;"">
                <img src=""images/causal/causal_series_4/causal_series_4_c.jpg"" style=""width: 300px; height: 300px;"" />
              </div>","null",""
"","","","","","html-button-response","98","382672","0.0-98.0","8C002F40CAE340A38BFBBABEFB77AE9C","516ab52d-7901-4c5c-bdad-eb72ead15c8f","60874837-17fe-43d8-ba5e-75a805c652dd","","1905","
    <div style=""display: flex; justify-content: center; align-items: center;"">
      <img src=""images/red_deck_2.png"" style=""width: 300px; height: 300px; margin-right: 10px;"" />
      <img src=""images/blue_deck_1.png"" style=""width: 300px; height: 300px;"" />
    </div>","0","0"
"","","","","","html-keyboard-response","99","385682","0.0-99.0-0.0-0.0","8C002F40CAE340A38BFBBABEFB77AE9C","516ab52d-7901-4c5c-bdad-eb72ead15c8f","60874837-17fe-43d8-ba5e-75a805c652dd","","null","<div style=""display: flex; justify-content: center; align-items: center;"">
                <img src=""images/causal/causal_series_4/causal_series_4_d.jpg"" style=""width: 300px; height: 300px;"" />
              </div>","null",""
"","","","","","html-keyboard-response","100","388698","0.0-100.0","8C002F40CAE340A38BFBBABEFB77AE9C","516ab52d-7901-4c5c-bdad-eb72ead15c8f","60874837-17fe-43d8-ba5e-75a805c652dd","","null","<div style=""display: flex; justify-content: center; align-items: center;"">
                <img src=""images/other/blank.jpg"" style=""width: 300px; height: 300px;"" />
              </div>","null",""
"","","","","","html-keyboard-response","101","391710","0.0-101.0","8C002F40CAE340A38BFBBABEFB77AE9C","516ab52d-7901-4c5c-bdad-eb72ead15c8f","60874837-17fe-43d8-ba5e-75a805c652dd","","null","<div style=""display: flex; justify-content: center; align-items: center;"">
                <img src=""images/causal/causal_series_15/causal_series_15_a.jpg"" style=""width: 300px; height: 300px;"" />
              </div>","null",""
"","","","","","html-keyboard-response","102","394722","0.0-102.0","8C002F40CAE340A38BFBBABEFB77AE9C","516ab52d-7901-4c5c-bdad-eb72ead15c8f","60874837-17fe-43d8-ba5e-75a805c652dd","","null","<div style=""display: flex; justify-content: center; align-items: center;"">
                <img src=""images/causal/causal_series_15/causal_series_15_b.jpg"" style=""width: 300px; height: 300px;"" />
              </div>","null",""
"","","","","","html-keyboard-response","103","397727","0.0-103.0","8C002F40CAE340A38BFBBABEFB77AE9C","516ab52d-7901-4c5c-bdad-eb72ead15c8f","60874837-17fe-43d8-ba5e-75a805c652dd","","null","<div style=""display: flex; justify-content: center; align-items: center;"">
                <img src=""images/causal/causal_series_15/causal_series_15_c.jpg"" style=""width: 300px; height: 300px;"" />
              </div>","null",""
"","","","","","html-button-response","104","398937","0.0-104.0","8C002F40CAE340A38BFBBABEFB77AE9C","516ab52d-7901-4c5c-bdad-eb72ead15c8f","60874837-17fe-43d8-ba5e-75a805c652dd","","1206","
    <div style=""display: flex; justify-content: center; align-items: center;"">
      <img src=""images/red_deck_2.png"" style=""width: 300px; height: 300px; margin-right: 10px;"" />
      <img src=""images/blue_deck_1.png"" style=""width: 300px; height: 300px;"" />
    </div>","0","0"
"","","","","","html-keyboard-response","105","401945","0.0-105.0-0.0-0.0","8C002F40CAE340A38BFBBABEFB77AE9C","516ab52d-7901-4c5c-bdad-eb72ead15c8f","60874837-17fe-43d8-ba5e-75a805c652dd","","null","<div style=""display: flex; justify-content: center; align-items: center;"">
                <img src=""images/causal/causal_series_15/causal_series_15_d.jpg"" style=""width: 300px; height: 300px;"" />
              </div>","null",""
"","","","","","html-keyboard-response","106","404950","0.0-106.0","8C002F40CAE340A38BFBBABEFB77AE9C","516ab52d-7901-4c5c-bdad-eb72ead15c8f","60874837-17fe-43d8-ba5e-75a805c652dd","","null","<div style=""display: flex; justify-content: center; align-items: center;"">
                <img src=""images/other/blank.jpg"" style=""width: 300px; height: 300px;"" />
              </div>","null",""
"","","","","","html-keyboard-response","107","407958","0.0-107.0","8C002F40CAE340A38BFBBABEFB77AE9C","516ab52d-7901-4c5c-bdad-eb72ead15c8f","60874837-17fe-43d8-ba5e-75a805c652dd","","null","<div style=""display: flex; justify-content: center; align-items: center;"">
                <img src=""images/causal/causal_series_13/causal_series_13_a.jpg"" style=""width: 300px; height: 300px;"" />
              </div>","null",""
"","","","","","html-keyboard-response","108","410964","0.0-108.0","8C002F40CAE340A38BFBBABEFB77AE9C","516ab52d-7901-4c5c-bdad-eb72ead15c8f","60874837-17fe-43d8-ba5e-75a805c652dd","","null","<div style=""display: flex; justify-content: center; align-items: center;"">
                <img src=""images/causal/causal_series_13/causal_series_13_b.jpg"" style=""width: 300px; height: 300px;"" />
              </div>","null",""
"","","","","","html-keyboard-response","109","413974","0.0-109.0","8C002F40CAE340A38BFBBABEFB77AE9C","516ab52d-7901-4c5c-bdad-eb72ead15c8f","60874837-17fe-43d8-ba5e-75a805c652dd","","null","<div style=""display: flex; justify-content: center; align-items: center;"">
                <img src=""images/causal/causal_series_13/causal_series_13_c.jpg"" style=""width: 300px; height: 300px;"" />
              </div>","null",""
"","","","","","html-button-response","110","415968","0.0-110.0","8C002F40CAE340A38BFBBABEFB77AE9C","516ab52d-7901-4c5c-bdad-eb72ead15c8f","60874837-17fe-43d8-ba5e-75a805c652dd","","1991","
    <div style=""display: flex; justify-content: center; align-items: center;"">
      <img src=""images/red_deck_2.png"" style=""width: 300px; height: 300px; margin-right: 10px;"" />
      <img src=""images/blue_deck_1.png"" style=""width: 300px; height: 300px;"" />
    </div>","0","0"
"","","","","","html-keyboard-response","111","418981","0.0-111.0-0.0-0.0","8C002F40CAE340A38BFBBABEFB77AE9C","516ab52d-7901-4c5c-bdad-eb72ead15c8f","60874837-17fe-43d8-ba5e-75a805c652dd","","null","<div style=""display: flex; justify-content: center; align-items: center;"">
                <img src=""images/causal/causal_series_13/causal_series_13_d.jpg"" style=""width: 300px; height: 300px;"" />
              </div>","null",""
"","","","","","html-keyboard-response","112","421989","0.0-112.0","8C002F40CAE340A38BFBBABEFB77AE9C","516ab52d-7901-4c5c-bdad-eb72ead15c8f","60874837-17fe-43d8-ba5e-75a805c652dd","","null","<div style=""display: flex; justify-content: center; align-items: center;"">
                <img src=""images/other/blank.jpg"" style=""width: 300px; height: 300px;"" />
              </div>","null",""
"","","","","","survey-text","113","445086","0.0-113.0","8C002F40CAE340A38BFBBABEFB77AE9C","516ab52d-7901-4c5c-bdad-eb72ead15c8f","60874837-17fe-43d8-ba5e-75a805c652dd","","23058","","{""Q0"":""The left had more people and the right had more animated ones""}",""
"","","","","","survey-text","114","461031","0.0-114.0","8C002F40CAE340A38BFBBABEFB77AE9C","516ab52d-7901-4c5c-bdad-eb72ead15c8f","60874837-17fe-43d8-ba5e-75a805c652dd","","15930","","{""Q0"":""They were both interesting because of the different art styles.""}",""
"","","","","","html-button-response","115","473362","0.0-115.0","8C002F40CAE340A38BFBBABEFB77AE9C","516ab52d-7901-4c5c-bdad-eb72ead15c8f","60874837-17fe-43d8-ba5e-75a805c652dd","","12325","Which color deck does the fourth image continue the story from the series?","1",""
"","","","","","html-button-response","116","481343","0.0-116.0","8C002F40CAE340A38BFBBABEFB77AE9C","516ab52d-7901-4c5c-bdad-eb72ead15c8f","60874837-17fe-43d8-ba5e-75a805c652dd","","7975","Which color deck does the fourth image not follow the story from the series?","0",""
"","","","","","survey-text","117","487941","0.0-117.0","8C002F40CAE340A38BFBBABEFB77AE9C","516ab52d-7901-4c5c-bdad-eb72ead15c8f","60874837-17fe-43d8-ba5e-75a805c652dd","","6568","","{""Q0"":""Female"",""Q1"":""32""}",""
"","","","","","instructions","118","497200","0.0-118.0","8C002F40CAE340A38BFBBABEFB77AE9C","516ab52d-7901-4c5c-bdad-eb72ead15c8f","60874837-17fe-43d8-ba5e-75a805c652dd","[{""page_index"":0,""viewing_time"":9253}]","9255","","",""
