"success","timeout","failed_images","failed_audio","failed_video","trial_type","trial_index","time_elapsed","internal_node_id","subject_id","study_id","session_id","view_history","rt","stimulus","response","choice"
"true","false","[]","[]","[]","preload","0","6105","0.0-0.0","FA6C58571FE246D4B4A9CF938CECFBBF","932676be-cd1e-4835-8e54-3a079a71c39a","60874837-17fe-43d8-ba5e-75a805c652dd","","","","",""
"","","","","","instructions","1","8531","0.0-1.0","FA6C58571FE246D4B4A9CF938CECFBBF","932676be-cd1e-4835-8e54-3a079a71c39a","60874837-17fe-43d8-ba5e-75a805c652dd","[{""page_index"":0,""viewing_time"":2425}]","2425","","",""
"","","","","","instructions","2","70312","0.0-2.0","FA6C58571FE246D4B4A9CF938CECFBBF","932676be-cd1e-4835-8e54-3a079a71c39a","60874837-17fe-43d8-ba5e-75a805c652dd","[{""page_index"":0,""viewing_time"":61778}]","61782","","",""
"true","","","","","fullscreen","3","73529","0.0-3.0","FA6C58571FE246D4B4A9CF938CECFBBF","932676be-cd1e-4835-8e54-3a079a71c39a","60874837-17fe-43d8-ba5e-75a805c652dd","","2212","","",""
"","","","","","instructions","4","125257","0.0-4.0","FA6C58571FE246D4B4A9CF938CECFBBF","932676be-cd1e-4835-8e54-3a079a71c39a","60874837-17fe-43d8-ba5e-75a805c652dd","[{""page_index"":0,""viewing_time"":51728}]","51729","","",""
"","","","","","html-keyboard-response","5","128260","0.0-5.0","FA6C58571FE246D4B4A9CF938CECFBBF","932676be-cd1e-4835-8e54-3a079a71c39a","60874837-17fe-43d8-ba5e-75a805c652dd","","null","<div style=""display: flex; justify-content: center; align-items: center;"">
                <img src=""images/causal/causal_series_11/causal_series_11_a.jpg"" style=""width: 300px; height: 300px;"" />
              </div>","null",""
"","","","","","html-keyboard-response","6","131263","0.0-6.0","FA6C58571FE246D4B4A9CF938CECFBBF","932676be-cd1e-4835-8e54-3a079a71c39a","60874837-17fe-43d8-ba5e-75a805c652dd","","null","<div style=""display: flex; justify-content: center; align-items: center;"">
                <img src=""images/causal/causal_series_11/causal_series_11_b.jpg"" style=""width: 300px; height: 300px;"" />
              </div>","null",""
"","","","","","html-keyboard-response","7","134266","0.0-7.0","FA6C58571FE246D4B4A9CF938CECFBBF","932676be-cd1e-4835-8e54-3a079a71c39a","60874837-17fe-43d8-ba5e-75a805c652dd","","null","<div style=""display: flex; justify-content: center; align-items: center;"">
                <img src=""images/causal/causal_series_11/causal_series_11_c.jpg"" style=""width: 300px; height: 300px;"" />
              </div>","null",""
"","","","","","html-button-response","8","138923","0.0-8.0","FA6C58571FE246D4B4A9CF938CECFBBF","932676be-cd1e-4835-8e54-3a079a71c39a","60874837-17fe-43d8-ba5e-75a805c652dd","","4654","
    <div style=""display: flex; justify-content: center; align-items: center;"">
      <img src=""images/red_deck_2.png"" style=""width: 300px; height: 300px; margin-right: 10px;"" />
      <img src=""images/blue_deck_1.png"" style=""width: 300px; height: 300px;"" />
    </div>","0","0"
"","","","","","html-keyboard-response","9","141925","0.0-9.0-0.0-0.0","FA6C58571FE246D4B4A9CF938CECFBBF","932676be-cd1e-4835-8e54-3a079a71c39a","60874837-17fe-43d8-ba5e-75a805c652dd","","null","<div style=""display: flex; justify-content: center; align-items: center;"">
                <img src=""images/causal/causal_series_11/causal_series_11_d.jpg"" style=""width: 300px; height: 300px;"" />
              </div>","null",""
"","","","","","html-keyboard-response","10","144929","0.0-10.0","FA6C58571FE246D4B4A9CF938CECFBBF","932676be-cd1e-4835-8e54-3a079a71c39a","60874837-17fe-43d8-ba5e-75a805c652dd","","null","<div style=""display: flex; justify-content: center; align-items: center;"">
                <img src=""images/other/blank.jpg"" style=""width: 300px; height: 300px;"" />
              </div>","null",""
"","","","","","html-keyboard-response","11","147932","0.0-11.0","FA6C58571FE246D4B4A9CF938CECFBBF","932676be-cd1e-4835-8e54-3a079a71c39a","60874837-17fe-43d8-ba5e-75a805c652dd","","null","<div style=""display: flex; justify-content: center; align-items: center;"">
                <img src=""images/causal/causal_series_5/causal_series_5_a.jpg"" style=""width: 300px; height: 300px;"" />
              </div>","null",""
"","","","","","html-keyboard-response","12","150934","0.0-12.0","FA6C58571FE246D4B4A9CF938CECFBBF","932676be-cd1e-4835-8e54-3a079a71c39a","60874837-17fe-43d8-ba5e-75a805c652dd","","null","<div style=""display: flex; justify-content: center; align-items: center;"">
                <img src=""images/causal/causal_series_5/causal_series_5_b.jpg"" style=""width: 300px; height: 300px;"" />
              </div>","null",""
"","","","","","html-keyboard-response","13","153937","0.0-13.0","FA6C58571FE246D4B4A9CF938CECFBBF","932676be-cd1e-4835-8e54-3a079a71c39a","60874837-17fe-43d8-ba5e-75a805c652dd","","null","<div style=""display: flex; justify-content: center; align-items: center;"">
                <img src=""images/causal/causal_series_5/causal_series_5_c.jpg"" style=""width: 300px; height: 300px;"" />
              </div>","null",""
"","","","","","html-button-response","14","155623","0.0-14.0","FA6C58571FE246D4B4A9CF938CECFBBF","932676be-cd1e-4835-8e54-3a079a71c39a","60874837-17fe-43d8-ba5e-75a805c652dd","","1684","
    <div style=""display: flex; justify-content: center; align-items: center;"">
      <img src=""images/red_deck_2.png"" style=""width: 300px; height: 300px; margin-right: 10px;"" />
      <img src=""images/blue_deck_1.png"" style=""width: 300px; height: 300px;"" />
    </div>","1","1"
"","","","","","html-keyboard-response","15","158625","0.0-15.0-1.0-0.0","FA6C58571FE246D4B4A9CF938CECFBBF","932676be-cd1e-4835-8e54-3a079a71c39a","60874837-17fe-43d8-ba5e-75a805c652dd","","null","<div style=""display: flex; justify-content: center; align-items: center;"">
                <img src=""images/semantic/semantic_series_4/semantic_series_4_d.jpg"" style=""width: 300px; height: 300px;"" />
              </div>","null",""
"","","","","","html-keyboard-response","16","161628","0.0-16.0","FA6C58571FE246D4B4A9CF938CECFBBF","932676be-cd1e-4835-8e54-3a079a71c39a","60874837-17fe-43d8-ba5e-75a805c652dd","","null","<div style=""display: flex; justify-content: center; align-items: center;"">
                <img src=""images/other/blank.jpg"" style=""width: 300px; height: 300px;"" />
              </div>","null",""
"","","","","","html-keyboard-response","17","164630","0.0-17.0","FA6C58571FE246D4B4A9CF938CECFBBF","932676be-cd1e-4835-8e54-3a079a71c39a","60874837-17fe-43d8-ba5e-75a805c652dd","","null","<div style=""display: flex; justify-content: center; align-items: center;"">
                <img src=""images/causal/causal_series_7/causal_series_7_a.jpg"" style=""width: 300px; height: 300px;"" />
              </div>","null",""
"","","","","","html-keyboard-response","18","167633","0.0-18.0","FA6C58571FE246D4B4A9CF938CECFBBF","932676be-cd1e-4835-8e54-3a079a71c39a","60874837-17fe-43d8-ba5e-75a805c652dd","","null","<div style=""display: flex; justify-content: center; align-items: center;"">
                <img src=""images/causal/causal_series_7/causal_series_7_b.jpg"" style=""width: 300px; height: 300px;"" />
              </div>","null",""
"","","","","","html-keyboard-response","19","170636","0.0-19.0","FA6C58571FE246D4B4A9CF938CECFBBF","932676be-cd1e-4835-8e54-3a079a71c39a","60874837-17fe-43d8-ba5e-75a805c652dd","","null","<div style=""display: flex; justify-content: center; align-items: center;"">
                <img src=""images/causal/causal_series_7/causal_series_7_c.jpg"" style=""width: 300px; height: 300px;"" />
              </div>","null",""
"","","","","","html-button-response","20","171830","0.0-20.0","FA6C58571FE246D4B4A9CF938CECFBBF","932676be-cd1e-4835-8e54-3a079a71c39a","60874837-17fe-43d8-ba5e-75a805c652dd","","1192","
    <div style=""display: flex; justify-content: center; align-items: center;"">
      <img src=""images/red_deck_2.png"" style=""width: 300px; height: 300px; margin-right: 10px;"" />
      <img src=""images/blue_deck_1.png"" style=""width: 300px; height: 300px;"" />
    </div>","0","0"
"","","","","","html-keyboard-response","21","174832","0.0-21.0-0.0-0.0","FA6C58571FE246D4B4A9CF938CECFBBF","932676be-cd1e-4835-8e54-3a079a71c39a","60874837-17fe-43d8-ba5e-75a805c652dd","","null","<div style=""display: flex; justify-content: center; align-items: center;"">
                <img src=""images/causal/causal_series_7/causal_series_7_d.jpg"" style=""width: 300px; height: 300px;"" />
              </div>","null",""
"","","","","","html-keyboard-response","22","177835","0.0-22.0","FA6C58571FE246D4B4A9CF938CECFBBF","932676be-cd1e-4835-8e54-3a079a71c39a","60874837-17fe-43d8-ba5e-75a805c652dd","","null","<div style=""display: flex; justify-content: center; align-items: center;"">
                <img src=""images/other/blank.jpg"" style=""width: 300px; height: 300px;"" />
              </div>","null",""
"","","","","","html-keyboard-response","23","180837","0.0-23.0","FA6C58571FE246D4B4A9CF938CECFBBF","932676be-cd1e-4835-8e54-3a079a71c39a","60874837-17fe-43d8-ba5e-75a805c652dd","","null","<div style=""display: flex; justify-content: center; align-items: center;"">
                <img src=""images/causal/causal_series_18/causal_series_18_a.jpg"" style=""width: 300px; height: 300px;"" />
              </div>","null",""
"","","","","","html-keyboard-response","24","183840","0.0-24.0","FA6C58571FE246D4B4A9CF938CECFBBF","932676be-cd1e-4835-8e54-3a079a71c39a","60874837-17fe-43d8-ba5e-75a805c652dd","","null","<div style=""display: flex; justify-content: center; align-items: center;"">
                <img src=""images/causal/causal_series_18/causal_series_18_b.jpg"" style=""width: 300px; height: 300px;"" />
              </div>","null",""
"","","","","","html-keyboard-response","25","186842","0.0-25.0","FA6C58571FE246D4B4A9CF938CECFBBF","932676be-cd1e-4835-8e54-3a079a71c39a","60874837-17fe-43d8-ba5e-75a805c652dd","","null","<div style=""display: flex; justify-content: center; align-items: center;"">
                <img src=""images/causal/causal_series_18/causal_series_18_c.jpg"" style=""width: 300px; height: 300px;"" />
              </div>","null",""
"","","","","","html-button-response","26","188509","0.0-26.0","FA6C58571FE246D4B4A9CF938CECFBBF","932676be-cd1e-4835-8e54-3a079a71c39a","60874837-17fe-43d8-ba5e-75a805c652dd","","1665","
    <div style=""display: flex; justify-content: center; align-items: center;"">
      <img src=""images/red_deck_2.png"" style=""width: 300px; height: 300px; margin-right: 10px;"" />
      <img src=""images/blue_deck_1.png"" style=""width: 300px; height: 300px;"" />
    </div>","0","0"
"","","","","","html-keyboard-response","27","191510","0.0-27.0-0.0-0.0","FA6C58571FE246D4B4A9CF938CECFBBF","932676be-cd1e-4835-8e54-3a079a71c39a","60874837-17fe-43d8-ba5e-75a805c652dd","","null","<div style=""display: flex; justify-content: center; align-items: center;"">
                <img src=""images/causal/causal_series_18/causal_series_18_d.jpg"" style=""width: 300px; height: 300px;"" />
              </div>","null",""
"","","","","","html-keyboard-response","28","194513","0.0-28.0","FA6C58571FE246D4B4A9CF938CECFBBF","932676be-cd1e-4835-8e54-3a079a71c39a","60874837-17fe-43d8-ba5e-75a805c652dd","","null","<div style=""display: flex; justify-content: center; align-items: center;"">
                <img src=""images/other/blank.jpg"" style=""width: 300px; height: 300px;"" />
              </div>","null",""
"","","","","","html-keyboard-response","29","197515","0.0-29.0","FA6C58571FE246D4B4A9CF938CECFBBF","932676be-cd1e-4835-8e54-3a079a71c39a","60874837-17fe-43d8-ba5e-75a805c652dd","","null","<div style=""display: flex; justify-content: center; align-items: center;"">
                <img src=""images/causal/causal_series_3/causal_series_3_a.jpg"" style=""width: 300px; height: 300px;"" />
              </div>","null",""
"","","","","","html-keyboard-response","30","200518","0.0-30.0","FA6C58571FE246D4B4A9CF938CECFBBF","932676be-cd1e-4835-8e54-3a079a71c39a","60874837-17fe-43d8-ba5e-75a805c652dd","","null","<div style=""display: flex; justify-content: center; align-items: center;"">
                <img src=""images/causal/causal_series_3/causal_series_3_b.jpg"" style=""width: 300px; height: 300px;"" />
              </div>","null",""
"","","","","","html-keyboard-response","31","203520","0.0-31.0","FA6C58571FE246D4B4A9CF938CECFBBF","932676be-cd1e-4835-8e54-3a079a71c39a","60874837-17fe-43d8-ba5e-75a805c652dd","","null","<div style=""display: flex; justify-content: center; align-items: center;"">
                <img src=""images/causal/causal_series_3/causal_series_3_c.jpg"" style=""width: 300px; height: 300px;"" />
              </div>","null",""
"","","","","","html-button-response","32","205184","0.0-32.0","FA6C58571FE246D4B4A9CF938CECFBBF","932676be-cd1e-4835-8e54-3a079a71c39a","60874837-17fe-43d8-ba5e-75a805c652dd","","1663","
    <div style=""display: flex; justify-content: center; align-items: center;"">
      <img src=""images/red_deck_2.png"" style=""width: 300px; height: 300px; margin-right: 10px;"" />
      <img src=""images/blue_deck_1.png"" style=""width: 300px; height: 300px;"" />
    </div>","1","1"
"","","","","","html-keyboard-response","33","208187","0.0-33.0-1.0-0.0","FA6C58571FE246D4B4A9CF938CECFBBF","932676be-cd1e-4835-8e54-3a079a71c39a","60874837-17fe-43d8-ba5e-75a805c652dd","","null","<div style=""display: flex; justify-content: center; align-items: center;"">
                <img src=""images/semantic/semantic_series_2/semantic_series_2_d.jpg"" style=""width: 300px; height: 300px;"" />
              </div>","null",""
"","","","","","html-keyboard-response","34","211189","0.0-34.0","FA6C58571FE246D4B4A9CF938CECFBBF","932676be-cd1e-4835-8e54-3a079a71c39a","60874837-17fe-43d8-ba5e-75a805c652dd","","null","<div style=""display: flex; justify-content: center; align-items: center;"">
                <img src=""images/other/blank.jpg"" style=""width: 300px; height: 300px;"" />
              </div>","null",""
"","","","","","html-keyboard-response","35","214192","0.0-35.0","FA6C58571FE246D4B4A9CF938CECFBBF","932676be-cd1e-4835-8e54-3a079a71c39a","60874837-17fe-43d8-ba5e-75a805c652dd","","null","<div style=""display: flex; justify-content: center; align-items: center;"">
                <img src=""images/causal/causal_series_2/causal_series_2_a.jpg"" style=""width: 300px; height: 300px;"" />
              </div>","null",""
"","","","","","html-keyboard-response","36","217195","0.0-36.0","FA6C58571FE246D4B4A9CF938CECFBBF","932676be-cd1e-4835-8e54-3a079a71c39a","60874837-17fe-43d8-ba5e-75a805c652dd","","null","<div style=""display: flex; justify-content: center; align-items: center;"">
                <img src=""images/causal/causal_series_2/causal_series_2_b.jpg"" style=""width: 300px; height: 300px;"" />
              </div>","null",""
"","","","","","html-keyboard-response","37","220197","0.0-37.0","FA6C58571FE246D4B4A9CF938CECFBBF","932676be-cd1e-4835-8e54-3a079a71c39a","60874837-17fe-43d8-ba5e-75a805c652dd","","null","<div style=""display: flex; justify-content: center; align-items: center;"">
                <img src=""images/causal/causal_series_2/causal_series_2_c.jpg"" style=""width: 300px; height: 300px;"" />
              </div>","null",""
"","","","","","html-button-response","38","221206","0.0-38.0","FA6C58571FE246D4B4A9CF938CECFBBF","932676be-cd1e-4835-8e54-3a079a71c39a","60874837-17fe-43d8-ba5e-75a805c652dd","","1008","
    <div style=""display: flex; justify-content: center; align-items: center;"">
      <img src=""images/red_deck_2.png"" style=""width: 300px; height: 300px; margin-right: 10px;"" />
      <img src=""images/blue_deck_1.png"" style=""width: 300px; height: 300px;"" />
    </div>","0","0"
"","","","","","html-keyboard-response","39","224209","0.0-39.0-0.0-0.0","FA6C58571FE246D4B4A9CF938CECFBBF","932676be-cd1e-4835-8e54-3a079a71c39a","60874837-17fe-43d8-ba5e-75a805c652dd","","null","<div style=""display: flex; justify-content: center; align-items: center;"">
                <img src=""images/causal/causal_series_2/causal_series_2_d.jpg"" style=""width: 300px; height: 300px;"" />
              </div>","null",""
"","","","","","html-keyboard-response","40","227212","0.0-40.0","FA6C58571FE246D4B4A9CF938CECFBBF","932676be-cd1e-4835-8e54-3a079a71c39a","60874837-17fe-43d8-ba5e-75a805c652dd","","null","<div style=""display: flex; justify-content: center; align-items: center;"">
                <img src=""images/other/blank.jpg"" style=""width: 300px; height: 300px;"" />
              </div>","null",""
"","","","","","html-keyboard-response","41","230214","0.0-41.0","FA6C58571FE246D4B4A9CF938CECFBBF","932676be-cd1e-4835-8e54-3a079a71c39a","60874837-17fe-43d8-ba5e-75a805c652dd","","null","<div style=""display: flex; justify-content: center; align-items: center;"">
                <img src=""images/causal/causal_series_6/causal_series_6_a.jpg"" style=""width: 300px; height: 300px;"" />
              </div>","null",""
"","","","","","html-keyboard-response","42","233216","0.0-42.0","FA6C58571FE246D4B4A9CF938CECFBBF","932676be-cd1e-4835-8e54-3a079a71c39a","60874837-17fe-43d8-ba5e-75a805c652dd","","null","<div style=""display: flex; justify-content: center; align-items: center;"">
                <img src=""images/causal/causal_series_6/causal_series_6_b.jpg"" style=""width: 300px; height: 300px;"" />
              </div>","null",""
"","","","","","html-keyboard-response","43","236219","0.0-43.0","FA6C58571FE246D4B4A9CF938CECFBBF","932676be-cd1e-4835-8e54-3a079a71c39a","60874837-17fe-43d8-ba5e-75a805c652dd","","null","<div style=""display: flex; justify-content: center; align-items: center;"">
                <img src=""images/causal/causal_series_6/causal_series_6_c.jpg"" style=""width: 300px; height: 300px;"" />
              </div>","null",""
"","","","","","html-button-response","44","238597","0.0-44.0","FA6C58571FE246D4B4A9CF938CECFBBF","932676be-cd1e-4835-8e54-3a079a71c39a","60874837-17fe-43d8-ba5e-75a805c652dd","","2376","
    <div style=""display: flex; justify-content: center; align-items: center;"">
      <img src=""images/red_deck_2.png"" style=""width: 300px; height: 300px; margin-right: 10px;"" />
      <img src=""images/blue_deck_1.png"" style=""width: 300px; height: 300px;"" />
    </div>","0","0"
"","","","","","html-keyboard-response","45","241599","0.0-45.0-0.0-0.0","FA6C58571FE246D4B4A9CF938CECFBBF","932676be-cd1e-4835-8e54-3a079a71c39a","60874837-17fe-43d8-ba5e-75a805c652dd","","null","<div style=""display: flex; justify-content: center; align-items: center;"">
                <img src=""images/causal/causal_series_6/causal_series_6_d.jpg"" style=""width: 300px; height: 300px;"" />
              </div>","null",""
"","","","","","html-keyboard-response","46","244601","0.0-46.0","FA6C58571FE246D4B4A9CF938CECFBBF","932676be-cd1e-4835-8e54-3a079a71c39a","60874837-17fe-43d8-ba5e-75a805c652dd","","null","<div style=""display: flex; justify-content: center; align-items: center;"">
                <img src=""images/other/blank.jpg"" style=""width: 300px; height: 300px;"" />
              </div>","null",""
"","","","","","html-keyboard-response","47","247604","0.0-47.0","FA6C58571FE246D4B4A9CF938CECFBBF","932676be-cd1e-4835-8e54-3a079a71c39a","60874837-17fe-43d8-ba5e-75a805c652dd","","null","<div style=""display: flex; justify-content: center; align-items: center;"">
                <img src=""images/causal/causal_series_1/causal_series_1_a.jpg"" style=""width: 300px; height: 300px;"" />
              </div>","null",""
"","","","","","html-keyboard-response","48","250606","0.0-48.0","FA6C58571FE246D4B4A9CF938CECFBBF","932676be-cd1e-4835-8e54-3a079a71c39a","60874837-17fe-43d8-ba5e-75a805c652dd","","null","<div style=""display: flex; justify-content: center; align-items: center;"">
                <img src=""images/causal/causal_series_1/causal_series_1_b.jpg"" style=""width: 300px; height: 300px;"" />
              </div>","null",""
"","","","","","html-keyboard-response","49","253609","0.0-49.0","FA6C58571FE246D4B4A9CF938CECFBBF","932676be-cd1e-4835-8e54-3a079a71c39a","60874837-17fe-43d8-ba5e-75a805c652dd","","null","<div style=""display: flex; justify-content: center; align-items: center;"">
                <img src=""images/causal/causal_series_1/causal_series_1_c.jpg"" style=""width: 300px; height: 300px;"" />
              </div>","null",""
"","","","","","html-button-response","50","254302","0.0-50.0","FA6C58571FE246D4B4A9CF938CECFBBF","932676be-cd1e-4835-8e54-3a079a71c39a","60874837-17fe-43d8-ba5e-75a805c652dd","","692","
    <div style=""display: flex; justify-content: center; align-items: center;"">
      <img src=""images/red_deck_2.png"" style=""width: 300px; height: 300px; margin-right: 10px;"" />
      <img src=""images/blue_deck_1.png"" style=""width: 300px; height: 300px;"" />
    </div>","0","0"
"","","","","","html-keyboard-response","51","257304","0.0-51.0-0.0-0.0","FA6C58571FE246D4B4A9CF938CECFBBF","932676be-cd1e-4835-8e54-3a079a71c39a","60874837-17fe-43d8-ba5e-75a805c652dd","","null","<div style=""display: flex; justify-content: center; align-items: center;"">
                <img src=""images/causal/causal_series_1/causal_series_1_d.jpg"" style=""width: 300px; height: 300px;"" />
              </div>","null",""
"","","","","","html-keyboard-response","52","260307","0.0-52.0","FA6C58571FE246D4B4A9CF938CECFBBF","932676be-cd1e-4835-8e54-3a079a71c39a","60874837-17fe-43d8-ba5e-75a805c652dd","","null","<div style=""display: flex; justify-content: center; align-items: center;"">
                <img src=""images/other/blank.jpg"" style=""width: 300px; height: 300px;"" />
              </div>","null",""
"","","","","","html-keyboard-response","53","263309","0.0-53.0","FA6C58571FE246D4B4A9CF938CECFBBF","932676be-cd1e-4835-8e54-3a079a71c39a","60874837-17fe-43d8-ba5e-75a805c652dd","","null","<div style=""display: flex; justify-content: center; align-items: center;"">
                <img src=""images/causal/causal_series_13/causal_series_13_a.jpg"" style=""width: 300px; height: 300px;"" />
              </div>","null",""
"","","","","","html-keyboard-response","54","266312","0.0-54.0","FA6C58571FE246D4B4A9CF938CECFBBF","932676be-cd1e-4835-8e54-3a079a71c39a","60874837-17fe-43d8-ba5e-75a805c652dd","","null","<div style=""display: flex; justify-content: center; align-items: center;"">
                <img src=""images/causal/causal_series_13/causal_series_13_b.jpg"" style=""width: 300px; height: 300px;"" />
              </div>","null",""
"","","","","","html-keyboard-response","55","269313","0.0-55.0","FA6C58571FE246D4B4A9CF938CECFBBF","932676be-cd1e-4835-8e54-3a079a71c39a","60874837-17fe-43d8-ba5e-75a805c652dd","","null","<div style=""display: flex; justify-content: center; align-items: center;"">
                <img src=""images/causal/causal_series_13/causal_series_13_c.jpg"" style=""width: 300px; height: 300px;"" />
              </div>","null",""
"","","","","","html-button-response","56","270186","0.0-56.0","FA6C58571FE246D4B4A9CF938CECFBBF","932676be-cd1e-4835-8e54-3a079a71c39a","60874837-17fe-43d8-ba5e-75a805c652dd","","872","
    <div style=""display: flex; justify-content: center; align-items: center;"">
      <img src=""images/red_deck_2.png"" style=""width: 300px; height: 300px; margin-right: 10px;"" />
      <img src=""images/blue_deck_1.png"" style=""width: 300px; height: 300px;"" />
    </div>","1","1"
"","","","","","html-keyboard-response","57","273188","0.0-57.0-1.0-0.0","FA6C58571FE246D4B4A9CF938CECFBBF","932676be-cd1e-4835-8e54-3a079a71c39a","60874837-17fe-43d8-ba5e-75a805c652dd","","null","<div style=""display: flex; justify-content: center; align-items: center;"">
                <img src=""images/semantic/semantic_series_12/semantic_series_12_d.jpg"" style=""width: 300px; height: 300px;"" />
              </div>","null",""
"","","","","","html-keyboard-response","58","276192","0.0-58.0","FA6C58571FE246D4B4A9CF938CECFBBF","932676be-cd1e-4835-8e54-3a079a71c39a","60874837-17fe-43d8-ba5e-75a805c652dd","","null","<div style=""display: flex; justify-content: center; align-items: center;"">
                <img src=""images/other/blank.jpg"" style=""width: 300px; height: 300px;"" />
              </div>","null",""
"","","","","","html-keyboard-response","59","279195","0.0-59.0","FA6C58571FE246D4B4A9CF938CECFBBF","932676be-cd1e-4835-8e54-3a079a71c39a","60874837-17fe-43d8-ba5e-75a805c652dd","","null","<div style=""display: flex; justify-content: center; align-items: center;"">
                <img src=""images/causal/causal_series_17/causal_series_17_a.jpg"" style=""width: 300px; height: 300px;"" />
              </div>","null",""
"","","","","","html-keyboard-response","60","282197","0.0-60.0","FA6C58571FE246D4B4A9CF938CECFBBF","932676be-cd1e-4835-8e54-3a079a71c39a","60874837-17fe-43d8-ba5e-75a805c652dd","","null","<div style=""display: flex; justify-content: center; align-items: center;"">
                <img src=""images/causal/causal_series_17/causal_series_17_b.jpg"" style=""width: 300px; height: 300px;"" />
              </div>","null",""
"","","","","","html-keyboard-response","61","285199","0.0-61.0","FA6C58571FE246D4B4A9CF938CECFBBF","932676be-cd1e-4835-8e54-3a079a71c39a","60874837-17fe-43d8-ba5e-75a805c652dd","","null","<div style=""display: flex; justify-content: center; align-items: center;"">
                <img src=""images/causal/causal_series_17/causal_series_17_c.jpg"" style=""width: 300px; height: 300px;"" />
              </div>","null",""
"","","","","","html-button-response","62","287040","0.0-62.0","FA6C58571FE246D4B4A9CF938CECFBBF","932676be-cd1e-4835-8e54-3a079a71c39a","60874837-17fe-43d8-ba5e-75a805c652dd","","1839","
    <div style=""display: flex; justify-content: center; align-items: center;"">
      <img src=""images/red_deck_2.png"" style=""width: 300px; height: 300px; margin-right: 10px;"" />
      <img src=""images/blue_deck_1.png"" style=""width: 300px; height: 300px;"" />
    </div>","0","0"
"","","","","","html-keyboard-response","63","290042","0.0-63.0-0.0-0.0","FA6C58571FE246D4B4A9CF938CECFBBF","932676be-cd1e-4835-8e54-3a079a71c39a","60874837-17fe-43d8-ba5e-75a805c652dd","","null","<div style=""display: flex; justify-content: center; align-items: center;"">
                <img src=""images/causal/causal_series_17/causal_series_17_d.jpg"" style=""width: 300px; height: 300px;"" />
              </div>","null",""
"","","","","","html-keyboard-response","64","293046","0.0-64.0","FA6C58571FE246D4B4A9CF938CECFBBF","932676be-cd1e-4835-8e54-3a079a71c39a","60874837-17fe-43d8-ba5e-75a805c652dd","","null","<div style=""display: flex; justify-content: center; align-items: center;"">
                <img src=""images/other/blank.jpg"" style=""width: 300px; height: 300px;"" />
              </div>","null",""
"","","","","","html-keyboard-response","65","296049","0.0-65.0","FA6C58571FE246D4B4A9CF938CECFBBF","932676be-cd1e-4835-8e54-3a079a71c39a","60874837-17fe-43d8-ba5e-75a805c652dd","","null","<div style=""display: flex; justify-content: center; align-items: center;"">
                <img src=""images/causal/causal_series_15/causal_series_15_a.jpg"" style=""width: 300px; height: 300px;"" />
              </div>","null",""
"","","","","","html-keyboard-response","66","299052","0.0-66.0","FA6C58571FE246D4B4A9CF938CECFBBF","932676be-cd1e-4835-8e54-3a079a71c39a","60874837-17fe-43d8-ba5e-75a805c652dd","","null","<div style=""display: flex; justify-content: center; align-items: center;"">
                <img src=""images/causal/causal_series_15/causal_series_15_b.jpg"" style=""width: 300px; height: 300px;"" />
              </div>","null",""
"","","","","","html-keyboard-response","67","302055","0.0-67.0","FA6C58571FE246D4B4A9CF938CECFBBF","932676be-cd1e-4835-8e54-3a079a71c39a","60874837-17fe-43d8-ba5e-75a805c652dd","","null","<div style=""display: flex; justify-content: center; align-items: center;"">
                <img src=""images/causal/causal_series_15/causal_series_15_c.jpg"" style=""width: 300px; height: 300px;"" />
              </div>","null",""
"","","","","","html-button-response","68","303442","0.0-68.0","FA6C58571FE246D4B4A9CF938CECFBBF","932676be-cd1e-4835-8e54-3a079a71c39a","60874837-17fe-43d8-ba5e-75a805c652dd","","1386","
    <div style=""display: flex; justify-content: center; align-items: center;"">
      <img src=""images/red_deck_2.png"" style=""width: 300px; height: 300px; margin-right: 10px;"" />
      <img src=""images/blue_deck_1.png"" style=""width: 300px; height: 300px;"" />
    </div>","0","0"
"","","","","","html-keyboard-response","69","306443","0.0-69.0-0.0-0.0","FA6C58571FE246D4B4A9CF938CECFBBF","932676be-cd1e-4835-8e54-3a079a71c39a","60874837-17fe-43d8-ba5e-75a805c652dd","","null","<div style=""display: flex; justify-content: center; align-items: center;"">
                <img src=""images/causal/causal_series_15/causal_series_15_d.jpg"" style=""width: 300px; height: 300px;"" />
              </div>","null",""
"","","","","","html-keyboard-response","70","309446","0.0-70.0","FA6C58571FE246D4B4A9CF938CECFBBF","932676be-cd1e-4835-8e54-3a079a71c39a","60874837-17fe-43d8-ba5e-75a805c652dd","","null","<div style=""display: flex; justify-content: center; align-items: center;"">
                <img src=""images/other/blank.jpg"" style=""width: 300px; height: 300px;"" />
              </div>","null",""
"","","","","","html-keyboard-response","71","312448","0.0-71.0","FA6C58571FE246D4B4A9CF938CECFBBF","932676be-cd1e-4835-8e54-3a079a71c39a","60874837-17fe-43d8-ba5e-75a805c652dd","","null","<div style=""display: flex; justify-content: center; align-items: center;"">
                <img src=""images/causal/causal_series_4/causal_series_4_a.jpg"" style=""width: 300px; height: 300px;"" />
              </div>","null",""
"","","","","","html-keyboard-response","72","315451","0.0-72.0","FA6C58571FE246D4B4A9CF938CECFBBF","932676be-cd1e-4835-8e54-3a079a71c39a","60874837-17fe-43d8-ba5e-75a805c652dd","","null","<div style=""display: flex; justify-content: center; align-items: center;"">
                <img src=""images/causal/causal_series_4/causal_series_4_b.jpg"" style=""width: 300px; height: 300px;"" />
              </div>","null",""
"","","","","","html-keyboard-response","73","318453","0.0-73.0","FA6C58571FE246D4B4A9CF938CECFBBF","932676be-cd1e-4835-8e54-3a079a71c39a","60874837-17fe-43d8-ba5e-75a805c652dd","","null","<div style=""display: flex; justify-content: center; align-items: center;"">
                <img src=""images/causal/causal_series_4/causal_series_4_c.jpg"" style=""width: 300px; height: 300px;"" />
              </div>","null",""
"","","","","","html-button-response","74","319916","0.0-74.0","FA6C58571FE246D4B4A9CF938CECFBBF","932676be-cd1e-4835-8e54-3a079a71c39a","60874837-17fe-43d8-ba5e-75a805c652dd","","1461","
    <div style=""display: flex; justify-content: center; align-items: center;"">
      <img src=""images/red_deck_2.png"" style=""width: 300px; height: 300px; margin-right: 10px;"" />
      <img src=""images/blue_deck_1.png"" style=""width: 300px; height: 300px;"" />
    </div>","0","0"
"","","","","","html-keyboard-response","75","322917","0.0-75.0-0.0-0.0","FA6C58571FE246D4B4A9CF938CECFBBF","932676be-cd1e-4835-8e54-3a079a71c39a","60874837-17fe-43d8-ba5e-75a805c652dd","","null","<div style=""display: flex; justify-content: center; align-items: center;"">
                <img src=""images/causal/causal_series_4/causal_series_4_d.jpg"" style=""width: 300px; height: 300px;"" />
              </div>","null",""
"","","","","","html-keyboard-response","76","325920","0.0-76.0","FA6C58571FE246D4B4A9CF938CECFBBF","932676be-cd1e-4835-8e54-3a079a71c39a","60874837-17fe-43d8-ba5e-75a805c652dd","","null","<div style=""display: flex; justify-content: center; align-items: center;"">
                <img src=""images/other/blank.jpg"" style=""width: 300px; height: 300px;"" />
              </div>","null",""
"","","","","","html-keyboard-response","77","328922","0.0-77.0","FA6C58571FE246D4B4A9CF938CECFBBF","932676be-cd1e-4835-8e54-3a079a71c39a","60874837-17fe-43d8-ba5e-75a805c652dd","","null","<div style=""display: flex; justify-content: center; align-items: center;"">
                <img src=""images/causal/causal_series_10/causal_series_10_a.jpg"" style=""width: 300px; height: 300px;"" />
              </div>","null",""
"","","","","","html-keyboard-response","78","331925","0.0-78.0","FA6C58571FE246D4B4A9CF938CECFBBF","932676be-cd1e-4835-8e54-3a079a71c39a","60874837-17fe-43d8-ba5e-75a805c652dd","","null","<div style=""display: flex; justify-content: center; align-items: center;"">
                <img src=""images/causal/causal_series_10/causal_series_10_b.jpg"" style=""width: 300px; height: 300px;"" />
              </div>","null",""
"","","","","","html-keyboard-response","79","334927","0.0-79.0","FA6C58571FE246D4B4A9CF938CECFBBF","932676be-cd1e-4835-8e54-3a079a71c39a","60874837-17fe-43d8-ba5e-75a805c652dd","","null","<div style=""display: flex; justify-content: center; align-items: center;"">
                <img src=""images/causal/causal_series_10/causal_series_10_c.jpg"" style=""width: 300px; height: 300px;"" />
              </div>","null",""
"","","","","","html-button-response","80","336401","0.0-80.0","FA6C58571FE246D4B4A9CF938CECFBBF","932676be-cd1e-4835-8e54-3a079a71c39a","60874837-17fe-43d8-ba5e-75a805c652dd","","1473","
    <div style=""display: flex; justify-content: center; align-items: center;"">
      <img src=""images/red_deck_2.png"" style=""width: 300px; height: 300px; margin-right: 10px;"" />
      <img src=""images/blue_deck_1.png"" style=""width: 300px; height: 300px;"" />
    </div>","0","0"
"","","","","","html-keyboard-response","81","339403","0.0-81.0-0.0-0.0","FA6C58571FE246D4B4A9CF938CECFBBF","932676be-cd1e-4835-8e54-3a079a71c39a","60874837-17fe-43d8-ba5e-75a805c652dd","","null","<div style=""display: flex; justify-content: center; align-items: center;"">
                <img src=""images/causal/causal_series_10/causal_series_10_d.jpg"" style=""width: 300px; height: 300px;"" />
              </div>","null",""
"","","","","","html-keyboard-response","82","342405","0.0-82.0","FA6C58571FE246D4B4A9CF938CECFBBF","932676be-cd1e-4835-8e54-3a079a71c39a","60874837-17fe-43d8-ba5e-75a805c652dd","","null","<div style=""display: flex; justify-content: center; align-items: center;"">
                <img src=""images/other/blank.jpg"" style=""width: 300px; height: 300px;"" />
              </div>","null",""
"","","","","","html-keyboard-response","83","345408","0.0-83.0","FA6C58571FE246D4B4A9CF938CECFBBF","932676be-cd1e-4835-8e54-3a079a71c39a","60874837-17fe-43d8-ba5e-75a805c652dd","","null","<div style=""display: flex; justify-content: center; align-items: center;"">
                <img src=""images/causal/causal_series_16/causal_series_16_a.jpg"" style=""width: 300px; height: 300px;"" />
              </div>","null",""
"","","","","","html-keyboard-response","84","348410","0.0-84.0","FA6C58571FE246D4B4A9CF938CECFBBF","932676be-cd1e-4835-8e54-3a079a71c39a","60874837-17fe-43d8-ba5e-75a805c652dd","","null","<div style=""display: flex; justify-content: center; align-items: center;"">
                <img src=""images/causal/causal_series_16/causal_series_16_b.jpg"" style=""width: 300px; height: 300px;"" />
              </div>","null",""
"","","","","","html-keyboard-response","85","351413","0.0-85.0","FA6C58571FE246D4B4A9CF938CECFBBF","932676be-cd1e-4835-8e54-3a079a71c39a","60874837-17fe-43d8-ba5e-75a805c652dd","","null","<div style=""display: flex; justify-content: center; align-items: center;"">
                <img src=""images/causal/causal_series_16/causal_series_16_c.jpg"" style=""width: 300px; height: 300px;"" />
              </div>","null",""
"","","","","","html-button-response","86","352311","0.0-86.0","FA6C58571FE246D4B4A9CF938CECFBBF","932676be-cd1e-4835-8e54-3a079a71c39a","60874837-17fe-43d8-ba5e-75a805c652dd","","897","
    <div style=""display: flex; justify-content: center; align-items: center;"">
      <img src=""images/red_deck_2.png"" style=""width: 300px; height: 300px; margin-right: 10px;"" />
      <img src=""images/blue_deck_1.png"" style=""width: 300px; height: 300px;"" />
    </div>","1","1"
"","","","","","html-keyboard-response","87","355312","0.0-87.0-1.0-0.0","FA6C58571FE246D4B4A9CF938CECFBBF","932676be-cd1e-4835-8e54-3a079a71c39a","60874837-17fe-43d8-ba5e-75a805c652dd","","null","<div style=""display: flex; justify-content: center; align-items: center;"">
                <img src=""images/semantic/semantic_series_15/semantic_series_15_d.jpg"" style=""width: 300px; height: 300px;"" />
              </div>","null",""
"","","","","","html-keyboard-response","88","358313","0.0-88.0","FA6C58571FE246D4B4A9CF938CECFBBF","932676be-cd1e-4835-8e54-3a079a71c39a","60874837-17fe-43d8-ba5e-75a805c652dd","","null","<div style=""display: flex; justify-content: center; align-items: center;"">
                <img src=""images/other/blank.jpg"" style=""width: 300px; height: 300px;"" />
              </div>","null",""
"","","","","","html-keyboard-response","89","361315","0.0-89.0","FA6C58571FE246D4B4A9CF938CECFBBF","932676be-cd1e-4835-8e54-3a079a71c39a","60874837-17fe-43d8-ba5e-75a805c652dd","","null","<div style=""display: flex; justify-content: center; align-items: center;"">
                <img src=""images/causal/causal_series_12/causal_series_12_a.jpg"" style=""width: 300px; height: 300px;"" />
              </div>","null",""
"","","","","","html-keyboard-response","90","364318","0.0-90.0","FA6C58571FE246D4B4A9CF938CECFBBF","932676be-cd1e-4835-8e54-3a079a71c39a","60874837-17fe-43d8-ba5e-75a805c652dd","","null","<div style=""display: flex; justify-content: center; align-items: center;"">
                <img src=""images/causal/causal_series_12/causal_series_12_b.jpg"" style=""width: 300px; height: 300px;"" />
              </div>","null",""
"","","","","","html-keyboard-response","91","367320","0.0-91.0","FA6C58571FE246D4B4A9CF938CECFBBF","932676be-cd1e-4835-8e54-3a079a71c39a","60874837-17fe-43d8-ba5e-75a805c652dd","","null","<div style=""display: flex; justify-content: center; align-items: center;"">
                <img src=""images/causal/causal_series_12/causal_series_12_c.jpg"" style=""width: 300px; height: 300px;"" />
              </div>","null",""
"","","","","","html-button-response","92","368655","0.0-92.0","FA6C58571FE246D4B4A9CF938CECFBBF","932676be-cd1e-4835-8e54-3a079a71c39a","60874837-17fe-43d8-ba5e-75a805c652dd","","1332","
    <div style=""display: flex; justify-content: center; align-items: center;"">
      <img src=""images/red_deck_2.png"" style=""width: 300px; height: 300px; margin-right: 10px;"" />
      <img src=""images/blue_deck_1.png"" style=""width: 300px; height: 300px;"" />
    </div>","0","0"
"","","","","","html-keyboard-response","93","371657","0.0-93.0-0.0-0.0","FA6C58571FE246D4B4A9CF938CECFBBF","932676be-cd1e-4835-8e54-3a079a71c39a","60874837-17fe-43d8-ba5e-75a805c652dd","","null","<div style=""display: flex; justify-content: center; align-items: center;"">
                <img src=""images/causal/causal_series_12/causal_series_12_d.jpg"" style=""width: 300px; height: 300px;"" />
              </div>","null",""
"","","","","","html-keyboard-response","94","374659","0.0-94.0","FA6C58571FE246D4B4A9CF938CECFBBF","932676be-cd1e-4835-8e54-3a079a71c39a","60874837-17fe-43d8-ba5e-75a805c652dd","","null","<div style=""display: flex; justify-content: center; align-items: center;"">
                <img src=""images/other/blank.jpg"" style=""width: 300px; height: 300px;"" />
              </div>","null",""
"","","","","","html-keyboard-response","95","377662","0.0-95.0","FA6C58571FE246D4B4A9CF938CECFBBF","932676be-cd1e-4835-8e54-3a079a71c39a","60874837-17fe-43d8-ba5e-75a805c652dd","","null","<div style=""display: flex; justify-content: center; align-items: center;"">
                <img src=""images/causal/causal_series_8/causal_series_8_a.jpg"" style=""width: 300px; height: 300px;"" />
              </div>","null",""
"","","","","","html-keyboard-response","96","380664","0.0-96.0","FA6C58571FE246D4B4A9CF938CECFBBF","932676be-cd1e-4835-8e54-3a079a71c39a","60874837-17fe-43d8-ba5e-75a805c652dd","","null","<div style=""display: flex; justify-content: center; align-items: center;"">
                <img src=""images/causal/causal_series_8/causal_series_8_b.jpg"" style=""width: 300px; height: 300px;"" />
              </div>","null",""
"","","","","","html-keyboard-response","97","383667","0.0-97.0","FA6C58571FE246D4B4A9CF938CECFBBF","932676be-cd1e-4835-8e54-3a079a71c39a","60874837-17fe-43d8-ba5e-75a805c652dd","","null","<div style=""display: flex; justify-content: center; align-items: center;"">
                <img src=""images/causal/causal_series_8/causal_series_8_c.jpg"" style=""width: 300px; height: 300px;"" />
              </div>","null",""
"","","","","","html-button-response","98","385506","0.0-98.0","FA6C58571FE246D4B4A9CF938CECFBBF","932676be-cd1e-4835-8e54-3a079a71c39a","60874837-17fe-43d8-ba5e-75a805c652dd","","1836","
    <div style=""display: flex; justify-content: center; align-items: center;"">
      <img src=""images/red_deck_2.png"" style=""width: 300px; height: 300px; margin-right: 10px;"" />
      <img src=""images/blue_deck_1.png"" style=""width: 300px; height: 300px;"" />
    </div>","0","0"
"","","","","","html-keyboard-response","99","388509","0.0-99.0-0.0-0.0","FA6C58571FE246D4B4A9CF938CECFBBF","932676be-cd1e-4835-8e54-3a079a71c39a","60874837-17fe-43d8-ba5e-75a805c652dd","","null","<div style=""display: flex; justify-content: center; align-items: center;"">
                <img src=""images/causal/causal_series_8/causal_series_8_d.jpg"" style=""width: 300px; height: 300px;"" />
              </div>","null",""
"","","","","","html-keyboard-response","100","391512","0.0-100.0","FA6C58571FE246D4B4A9CF938CECFBBF","932676be-cd1e-4835-8e54-3a079a71c39a","60874837-17fe-43d8-ba5e-75a805c652dd","","null","<div style=""display: flex; justify-content: center; align-items: center;"">
                <img src=""images/other/blank.jpg"" style=""width: 300px; height: 300px;"" />
              </div>","null",""
"","","","","","html-keyboard-response","101","394515","0.0-101.0","FA6C58571FE246D4B4A9CF938CECFBBF","932676be-cd1e-4835-8e54-3a079a71c39a","60874837-17fe-43d8-ba5e-75a805c652dd","","null","<div style=""display: flex; justify-content: center; align-items: center;"">
                <img src=""images/causal/causal_series_14/causal_series_14_a.jpg"" style=""width: 300px; height: 300px;"" />
              </div>","null",""
"","","","","","html-keyboard-response","102","397517","0.0-102.0","FA6C58571FE246D4B4A9CF938CECFBBF","932676be-cd1e-4835-8e54-3a079a71c39a","60874837-17fe-43d8-ba5e-75a805c652dd","","null","<div style=""display: flex; justify-content: center; align-items: center;"">
                <img src=""images/causal/causal_series_14/causal_series_14_b.jpg"" style=""width: 300px; height: 300px;"" />
              </div>","null",""
"","","","","","html-keyboard-response","103","400519","0.0-103.0","FA6C58571FE246D4B4A9CF938CECFBBF","932676be-cd1e-4835-8e54-3a079a71c39a","60874837-17fe-43d8-ba5e-75a805c652dd","","null","<div style=""display: flex; justify-content: center; align-items: center;"">
                <img src=""images/causal/causal_series_14/causal_series_14_c.jpg"" style=""width: 300px; height: 300px;"" />
              </div>","null",""
"","","","","","html-button-response","104","402665","0.0-104.0","FA6C58571FE246D4B4A9CF938CECFBBF","932676be-cd1e-4835-8e54-3a079a71c39a","60874837-17fe-43d8-ba5e-75a805c652dd","","2144","
    <div style=""display: flex; justify-content: center; align-items: center;"">
      <img src=""images/red_deck_2.png"" style=""width: 300px; height: 300px; margin-right: 10px;"" />
      <img src=""images/blue_deck_1.png"" style=""width: 300px; height: 300px;"" />
    </div>","0","0"
"","","","","","html-keyboard-response","105","405667","0.0-105.0-0.0-0.0","FA6C58571FE246D4B4A9CF938CECFBBF","932676be-cd1e-4835-8e54-3a079a71c39a","60874837-17fe-43d8-ba5e-75a805c652dd","","null","<div style=""display: flex; justify-content: center; align-items: center;"">
                <img src=""images/causal/causal_series_14/causal_series_14_d.jpg"" style=""width: 300px; height: 300px;"" />
              </div>","null",""
"","","","","","html-keyboard-response","106","408670","0.0-106.0","FA6C58571FE246D4B4A9CF938CECFBBF","932676be-cd1e-4835-8e54-3a079a71c39a","60874837-17fe-43d8-ba5e-75a805c652dd","","null","<div style=""display: flex; justify-content: center; align-items: center;"">
                <img src=""images/other/blank.jpg"" style=""width: 300px; height: 300px;"" />
              </div>","null",""
"","","","","","html-keyboard-response","107","411673","0.0-107.0","FA6C58571FE246D4B4A9CF938CECFBBF","932676be-cd1e-4835-8e54-3a079a71c39a","60874837-17fe-43d8-ba5e-75a805c652dd","","null","<div style=""display: flex; justify-content: center; align-items: center;"">
                <img src=""images/causal/causal_series_9/causal_series_9_a.jpg"" style=""width: 300px; height: 300px;"" />
              </div>","null",""
"","","","","","html-keyboard-response","108","414676","0.0-108.0","FA6C58571FE246D4B4A9CF938CECFBBF","932676be-cd1e-4835-8e54-3a079a71c39a","60874837-17fe-43d8-ba5e-75a805c652dd","","null","<div style=""display: flex; justify-content: center; align-items: center;"">
                <img src=""images/causal/causal_series_9/causal_series_9_b.jpg"" style=""width: 300px; height: 300px;"" />
              </div>","null",""
"","","","","","html-keyboard-response","109","417678","0.0-109.0","FA6C58571FE246D4B4A9CF938CECFBBF","932676be-cd1e-4835-8e54-3a079a71c39a","60874837-17fe-43d8-ba5e-75a805c652dd","","null","<div style=""display: flex; justify-content: center; align-items: center;"">
                <img src=""images/causal/causal_series_9/causal_series_9_c.jpg"" style=""width: 300px; height: 300px;"" />
              </div>","null",""
"","","","","","html-button-response","110","418409","0.0-110.0","FA6C58571FE246D4B4A9CF938CECFBBF","932676be-cd1e-4835-8e54-3a079a71c39a","60874837-17fe-43d8-ba5e-75a805c652dd","","730","
    <div style=""display: flex; justify-content: center; align-items: center;"">
      <img src=""images/red_deck_2.png"" style=""width: 300px; height: 300px; margin-right: 10px;"" />
      <img src=""images/blue_deck_1.png"" style=""width: 300px; height: 300px;"" />
    </div>","0","0"
"","","","","","html-keyboard-response","111","421411","0.0-111.0-0.0-0.0","FA6C58571FE246D4B4A9CF938CECFBBF","932676be-cd1e-4835-8e54-3a079a71c39a","60874837-17fe-43d8-ba5e-75a805c652dd","","null","<div style=""display: flex; justify-content: center; align-items: center;"">
                <img src=""images/causal/causal_series_9/causal_series_9_d.jpg"" style=""width: 300px; height: 300px;"" />
              </div>","null",""
"","","","","","html-keyboard-response","112","424413","0.0-112.0","FA6C58571FE246D4B4A9CF938CECFBBF","932676be-cd1e-4835-8e54-3a079a71c39a","60874837-17fe-43d8-ba5e-75a805c652dd","","null","<div style=""display: flex; justify-content: center; align-items: center;"">
                <img src=""images/other/blank.jpg"" style=""width: 300px; height: 300px;"" />
              </div>","null",""
"","","","","","survey-text","113","452831","0.0-113.0","FA6C58571FE246D4B4A9CF938CECFBBF","932676be-cd1e-4835-8e54-3a079a71c39a","60874837-17fe-43d8-ba5e-75a805c652dd","","28390","","{""Q0"":""the red deck shows the last final image of the story. The blue deck shows a random picture.""}",""
"","","","","","survey-text","114","469120","0.0-114.0","FA6C58571FE246D4B4A9CF938CECFBBF","932676be-cd1e-4835-8e54-3a079a71c39a","60874837-17fe-43d8-ba5e-75a805c652dd","","16284","","{""Q0"":""The red deck seemed more interesting to me. ""}",""
"","","","","","html-button-response","115","483635","0.0-115.0","FA6C58571FE246D4B4A9CF938CECFBBF","932676be-cd1e-4835-8e54-3a079a71c39a","60874837-17fe-43d8-ba5e-75a805c652dd","","14515","Which color deck does the fourth image continue the story from the series?","1",""
"","","","","","html-button-response","116","486820","0.0-116.0","FA6C58571FE246D4B4A9CF938CECFBBF","932676be-cd1e-4835-8e54-3a079a71c39a","60874837-17fe-43d8-ba5e-75a805c652dd","","3183","Which color deck does the fourth image not follow the story from the series?","0",""
"","","","","","survey-text","117","493074","0.0-117.0","FA6C58571FE246D4B4A9CF938CECFBBF","932676be-cd1e-4835-8e54-3a079a71c39a","60874837-17fe-43d8-ba5e-75a805c652dd","","6249","","{""Q0"":""MALE"",""Q1"":""25""}",""
"","","","","","instructions","118","506553","0.0-118.0","FA6C58571FE246D4B4A9CF938CECFBBF","932676be-cd1e-4835-8e54-3a079a71c39a","60874837-17fe-43d8-ba5e-75a805c652dd","[{""page_index"":0,""viewing_time"":13478}]","13479","","",""
