"success","timeout","failed_images","failed_audio","failed_video","trial_type","trial_index","time_elapsed","internal_node_id","view_history","rt","stimulus","response","firstImageNumber","secondImageNumber","response_made","stimulus_type"
"true","false","[]","[]","[]","preload","0","22812","0.0-0.0","","","","","","","",""
"","","","","","instructions","1","26991","0.0-1.0","[{""page_index"":0,""viewing_time"":4178}]","4178","","","","","",""
"","","","","","html-button-response","2","34599","0.0-2.0","","7607","
        <div style=""display: flex; justify-content: center; align-items: center;"">
          <div style=""text-align: center; margin-right: 20px;"">
            <p style=""font-size: 24px; font-weight: bold;"">Event 1</p>
            <img src=""images/instructions/1.png"" style=""width: 300px; height: auto;"">
          </div>
          <div style=""text-align: center; margin-left: 20px;"">
            <p style=""font-size: 24px; font-weight: bold;"">Event 2</p>
            <img src=""images/instructions/2.png"" style=""width: 300px; height: auto;"">
          </div>
        </div>
        <p style=""text-align: center; margin-top: 20px;"">Does Event 1 lead to Event 2?</p>","0","","","",""
"","","","","","html-button-response","3","36398","0.0-3.0","","1799","
        <div style=""display: flex; justify-content: center; align-items: center;"">
          <div style=""text-align: center; margin-right: 20px;"">
            <p style=""font-size: 24px; font-weight: bold;"">Event 1</p>
            <img src=""images/instructions/1.png"" style=""width: 300px; height: auto;"">
          </div>
          <div style=""text-align: center; margin-left: 20px;"">
            <p style=""font-size: 24px; font-weight: bold;"">Event 2</p>
            <img src=""images/instructions/2.png"" style=""width: 300px; height: auto;"">
          </div>
        </div>
        <h2>Correct Answer</h2>
        <p>The correct answer is: <strong>Event 1 leads to Event 2</strong>.</p>
        <p>Click ""Next"" to proceed to the next example.</p>","0","","","",""
"","","","","","html-button-response","4","96403","0.0-4.0","","null","
        <div style=""display: flex; justify-content: center; align-items: center;"">
          <div style=""text-align: center; margin-right: 20px;"">
            <p style=""font-size: 24px; font-weight: bold;"">Event 1</p>
            <img src=""images/instructions/2.png"" style=""width: 300px; height: auto;"">
          </div>
          <div style=""text-align: center; margin-left: 20px;"">
            <p style=""font-size: 24px; font-weight: bold;"">Event 2</p>
            <img src=""images/instructions/1.png"" style=""width: 300px; height: auto;"">
          </div>
        </div>
        <p style=""text-align: center; margin-top: 20px;"">Does Event 1 lead to Event 2?</p>","null","","","",""
"","","","","","html-button-response","5","119675","0.0-5.0","","23272","
        <div style=""display: flex; justify-content: center; align-items: center;"">
          <div style=""text-align: center; margin-right: 20px;"">
            <p style=""font-size: 24px; font-weight: bold;"">Event 1</p>
            <img src=""images/instructions/2.png"" style=""width: 300px; height: auto;"">
          </div>
          <div style=""text-align: center; margin-left: 20px;"">
            <p style=""font-size: 24px; font-weight: bold;"">Event 2</p>
            <img src=""images/instructions/1.png"" style=""width: 300px; height: auto;"">
          </div>
        </div>
        <h2>Correct Answer</h2>
        <p>The correct answer is: <strong>Event 2 leads to Event 1</strong>.</p>
        <p>Click ""Next"" to proceed to the next example.</p>","0","","","",""
"","","","","","html-button-response","6","125264","0.0-6.0","","5588","
        <div style=""display: flex; justify-content: center; align-items: center;"">
          <div style=""text-align: center; margin-right: 20px;"">
            <p style=""font-size: 24px; font-weight: bold;"">Event 1</p>
            <img src=""images/instructions/5.png"" style=""width: 300px; height: auto;"">
          </div>
          <div style=""text-align: center; margin-left: 20px;"">
            <p style=""font-size: 24px; font-weight: bold;"">Event 2</p>
            <img src=""images/instructions/6.png"" style=""width: 300px; height: auto;"">
          </div>
        </div>
        <p style=""text-align: center; margin-top: 20px;"">Does Event 1 lead to Event 2?</p>","2","","","",""
"","","","","","html-button-response","7","126320","0.0-7.0","","1055","
        <div style=""display: flex; justify-content: center; align-items: center;"">
          <div style=""text-align: center; margin-right: 20px;"">
            <p style=""font-size: 24px; font-weight: bold;"">Event 1</p>
            <img src=""images/instructions/5.png"" style=""width: 300px; height: auto;"">
          </div>
          <div style=""text-align: center; margin-left: 20px;"">
            <p style=""font-size: 24px; font-weight: bold;"">Event 2</p>
            <img src=""images/instructions/6.png"" style=""width: 300px; height: auto;"">
          </div>
        </div>
        <h2>Correct Answer</h2>
        <p>The correct answer is: <strong>Events are unrelated</strong>.</p>
        <p>Click ""Next"" to proceed to the experiment.</p>","0","","","",""
"","","","","","html-button-response","8","128315","0.0-8.0","","1995","
        <h2>Get Ready!</h2>
        <p>You have completed the examples. The experiment is about to begin.</p>
        <p>Click ""Start"" to begin the experiment.</p>","0","","","",""
"","","","","","html-button-response","9","136605","0.0-9.0","","8289","
      <div style=""display: flex; justify-content: center; align-items: center;"">
        <div style=""text-align: center; margin-right: 20px;"">
          <p style=""font-size: 24px; font-weight: bold;"">Event 1</p>
          <img src=""images/causal/saving_a_cat_causal/saving_a_cat_causal_7.png"" style=""width: 300px; height: auto;"">
        </div>
        <div style=""text-align: center; margin-left: 20px;"">
          <p style=""font-size: 24px; font-weight: bold;"">Event 2</p>
          <img src=""images/causal/saving_a_cat_causal/saving_a_cat_causal_1.png"" style=""width: 300px; height: auto;"">
        </div>
      </div>
      <p style=""text-align: center; margin-top: 20px;"">Does Event 1 lead to Event 2?</p>","1","7","1","true","package_causal"
"","","","","","html-button-response","10","143514","0.0-10.0","","6909","
      <div style=""display: flex; justify-content: center; align-items: center;"">
        <div style=""text-align: center; margin-right: 20px;"">
          <p style=""font-size: 24px; font-weight: bold;"">Event 1</p>
          <img src=""images/causal/saving_a_cat_causal/saving_a_cat_causal_8.png"" style=""width: 300px; height: auto;"">
        </div>
        <div style=""text-align: center; margin-left: 20px;"">
          <p style=""font-size: 24px; font-weight: bold;"">Event 2</p>
          <img src=""images/causal/saving_a_cat_causal/saving_a_cat_causal_10.png"" style=""width: 300px; height: auto;"">
        </div>
      </div>
      <p style=""text-align: center; margin-top: 20px;"">Does Event 1 lead to Event 2?</p>","2","8","10","true","package_causal"
"","","","","","html-button-response","11","151130","0.0-11.0","","7616","
      <div style=""display: flex; justify-content: center; align-items: center;"">
        <div style=""text-align: center; margin-right: 20px;"">
          <p style=""font-size: 24px; font-weight: bold;"">Event 1</p>
          <img src=""images/causal/cat_care_semantic/cat_care_semantic_4.png"" style=""width: 300px; height: auto;"">
        </div>
        <div style=""text-align: center; margin-left: 20px;"">
          <p style=""font-size: 24px; font-weight: bold;"">Event 2</p>
          <img src=""images/causal/cat_care_semantic/cat_care_semantic_6.png"" style=""width: 300px; height: auto;"">
        </div>
      </div>
      <p style=""text-align: center; margin-top: 20px;"">Does Event 1 lead to Event 2?</p>","0","4","6","true","physical_activity_semantic"
"","","","","","html-button-response","12","156589","0.0-12.0","","5458","
      <div style=""display: flex; justify-content: center; align-items: center;"">
        <div style=""text-align: center; margin-right: 20px;"">
          <p style=""font-size: 24px; font-weight: bold;"">Event 1</p>
          <img src=""images/causal/flight_scheme/flight_scheme_3.png"" style=""width: 300px; height: auto;"">
        </div>
        <div style=""text-align: center; margin-left: 20px;"">
          <p style=""font-size: 24px; font-weight: bold;"">Event 2</p>
          <img src=""images/causal/flight_scheme/flight_scheme_5.png"" style=""width: 300px; height: auto;"">
        </div>
      </div>
      <p style=""text-align: center; margin-top: 20px;"">Does Event 1 lead to Event 2?</p>","0","3","5","true","dog_causal"
"","","","","","html-button-response","13","165076","0.0-13.0","","8487","
      <div style=""display: flex; justify-content: center; align-items: center;"">
        <div style=""text-align: center; margin-right: 20px;"">
          <p style=""font-size: 24px; font-weight: bold;"">Event 1</p>
          <img src=""images/causal/cat_care_semantic/cat_care_semantic_6.png"" style=""width: 300px; height: auto;"">
        </div>
        <div style=""text-align: center; margin-left: 20px;"">
          <p style=""font-size: 24px; font-weight: bold;"">Event 2</p>
          <img src=""images/causal/cat_care_semantic/cat_care_semantic_3.png"" style=""width: 300px; height: auto;"">
        </div>
      </div>
      <p style=""text-align: center; margin-top: 20px;"">Does Event 1 lead to Event 2?</p>","2","6","3","true","physical_activity_semantic"
"","","","","","html-button-response","14","174215","0.0-14.0","","9138","
      <div style=""display: flex; justify-content: center; align-items: center;"">
        <div style=""text-align: center; margin-right: 20px;"">
          <p style=""font-size: 24px; font-weight: bold;"">Event 1</p>
          <img src=""images/causal/flight_scheme/flight_scheme_1.png"" style=""width: 300px; height: auto;"">
        </div>
        <div style=""text-align: center; margin-left: 20px;"">
          <p style=""font-size: 24px; font-weight: bold;"">Event 2</p>
          <img src=""images/causal/flight_scheme/flight_scheme_10.png"" style=""width: 300px; height: auto;"">
        </div>
      </div>
      <p style=""text-align: center; margin-top: 20px;"">Does Event 1 lead to Event 2?</p>","0","1","10","true","dog_causal"
"","","","","","html-button-response","15","179679","0.0-15.0","","5464","
      <div style=""display: flex; justify-content: center; align-items: center;"">
        <div style=""text-align: center; margin-right: 20px;"">
          <p style=""font-size: 24px; font-weight: bold;"">Event 1</p>
          <img src=""images/causal/flight_scheme/flight_scheme_6.png"" style=""width: 300px; height: auto;"">
        </div>
        <div style=""text-align: center; margin-left: 20px;"">
          <p style=""font-size: 24px; font-weight: bold;"">Event 2</p>
          <img src=""images/causal/flight_scheme/flight_scheme_7.png"" style=""width: 300px; height: auto;"">
        </div>
      </div>
      <p style=""text-align: center; margin-top: 20px;"">Does Event 1 lead to Event 2?</p>","0","6","7","true","dog_causal"
"","","","","","html-button-response","16","185292","0.0-16.0","","5612","
      <div style=""display: flex; justify-content: center; align-items: center;"">
        <div style=""text-align: center; margin-right: 20px;"">
          <p style=""font-size: 24px; font-weight: bold;"">Event 1</p>
          <img src=""images/causal/saving_a_cat_causal/saving_a_cat_causal_3.png"" style=""width: 300px; height: auto;"">
        </div>
        <div style=""text-align: center; margin-left: 20px;"">
          <p style=""font-size: 24px; font-weight: bold;"">Event 2</p>
          <img src=""images/causal/saving_a_cat_causal/saving_a_cat_causal_6.png"" style=""width: 300px; height: auto;"">
        </div>
      </div>
      <p style=""text-align: center; margin-top: 20px;"">Does Event 1 lead to Event 2?</p>","0","3","6","true","package_causal"
"","","","","","html-button-response","17","190718","0.0-17.0","","5425","
      <div style=""display: flex; justify-content: center; align-items: center;"">
        <div style=""text-align: center; margin-right: 20px;"">
          <p style=""font-size: 24px; font-weight: bold;"">Event 1</p>
          <img src=""images/causal/saving_a_cat_causal/saving_a_cat_causal_3.png"" style=""width: 300px; height: auto;"">
        </div>
        <div style=""text-align: center; margin-left: 20px;"">
          <p style=""font-size: 24px; font-weight: bold;"">Event 2</p>
          <img src=""images/causal/saving_a_cat_causal/saving_a_cat_causal_8.png"" style=""width: 300px; height: auto;"">
        </div>
      </div>
      <p style=""text-align: center; margin-top: 20px;"">Does Event 1 lead to Event 2?</p>","0","3","8","true","package_causal"
"","","","","","html-button-response","18","196302","0.0-18.0","","5583","
      <div style=""display: flex; justify-content: center; align-items: center;"">
        <div style=""text-align: center; margin-right: 20px;"">
          <p style=""font-size: 24px; font-weight: bold;"">Event 1</p>
          <img src=""images/causal/flight_scheme/flight_scheme_7.png"" style=""width: 300px; height: auto;"">
        </div>
        <div style=""text-align: center; margin-left: 20px;"">
          <p style=""font-size: 24px; font-weight: bold;"">Event 2</p>
          <img src=""images/causal/flight_scheme/flight_scheme_3.png"" style=""width: 300px; height: auto;"">
        </div>
      </div>
      <p style=""text-align: center; margin-top: 20px;"">Does Event 1 lead to Event 2?</p>","1","7","3","true","dog_causal"
"","","","","","html-button-response","19","205168","0.0-19.0","","8865","
      <div style=""display: flex; justify-content: center; align-items: center;"">
        <div style=""text-align: center; margin-right: 20px;"">
          <p style=""font-size: 24px; font-weight: bold;"">Event 1</p>
          <img src=""images/causal/cat_care_semantic/cat_care_semantic_6.png"" style=""width: 300px; height: auto;"">
        </div>
        <div style=""text-align: center; margin-left: 20px;"">
          <p style=""font-size: 24px; font-weight: bold;"">Event 2</p>
          <img src=""images/causal/cat_care_semantic/cat_care_semantic_9.png"" style=""width: 300px; height: auto;"">
        </div>
      </div>
      <p style=""text-align: center; margin-top: 20px;"">Does Event 1 lead to Event 2?</p>","2","6","9","true","physical_activity_semantic"
"","","","","","html-button-response","20","210720","0.0-20.0","","5552","
      <div style=""display: flex; justify-content: center; align-items: center;"">
        <div style=""text-align: center; margin-right: 20px;"">
          <p style=""font-size: 24px; font-weight: bold;"">Event 1</p>
          <img src=""images/causal/saving_a_cat_causal/saving_a_cat_causal_4.png"" style=""width: 300px; height: auto;"">
        </div>
        <div style=""text-align: center; margin-left: 20px;"">
          <p style=""font-size: 24px; font-weight: bold;"">Event 2</p>
          <img src=""images/causal/saving_a_cat_causal/saving_a_cat_causal_7.png"" style=""width: 300px; height: auto;"">
        </div>
      </div>
      <p style=""text-align: center; margin-top: 20px;"">Does Event 1 lead to Event 2?</p>","0","4","7","true","package_causal"
"","","","","","html-button-response","21","217172","0.0-21.0","","6451","
      <div style=""display: flex; justify-content: center; align-items: center;"">
        <div style=""text-align: center; margin-right: 20px;"">
          <p style=""font-size: 24px; font-weight: bold;"">Event 1</p>
          <img src=""images/causal/cat_care_semantic/cat_care_semantic_7.png"" style=""width: 300px; height: auto;"">
        </div>
        <div style=""text-align: center; margin-left: 20px;"">
          <p style=""font-size: 24px; font-weight: bold;"">Event 2</p>
          <img src=""images/causal/cat_care_semantic/cat_care_semantic_3.png"" style=""width: 300px; height: auto;"">
        </div>
      </div>
      <p style=""text-align: center; margin-top: 20px;"">Does Event 1 lead to Event 2?</p>","1","7","3","true","physical_activity_semantic"
"","","","","","html-button-response","22","222702","0.0-22.0","","5529","
      <div style=""display: flex; justify-content: center; align-items: center;"">
        <div style=""text-align: center; margin-right: 20px;"">
          <p style=""font-size: 24px; font-weight: bold;"">Event 1</p>
          <img src=""images/causal/saving_a_cat_causal/saving_a_cat_causal_6.png"" style=""width: 300px; height: auto;"">
        </div>
        <div style=""text-align: center; margin-left: 20px;"">
          <p style=""font-size: 24px; font-weight: bold;"">Event 2</p>
          <img src=""images/causal/saving_a_cat_causal/saving_a_cat_causal_9.png"" style=""width: 300px; height: auto;"">
        </div>
      </div>
      <p style=""text-align: center; margin-top: 20px;"">Does Event 1 lead to Event 2?</p>","0","6","9","true","package_causal"
"","","","","","html-button-response","23","228384","0.0-23.0","","5681","
      <div style=""display: flex; justify-content: center; align-items: center;"">
        <div style=""text-align: center; margin-right: 20px;"">
          <p style=""font-size: 24px; font-weight: bold;"">Event 1</p>
          <img src=""images/causal/cat_care_semantic/cat_care_semantic_5.png"" style=""width: 300px; height: auto;"">
        </div>
        <div style=""text-align: center; margin-left: 20px;"">
          <p style=""font-size: 24px; font-weight: bold;"">Event 2</p>
          <img src=""images/causal/cat_care_semantic/cat_care_semantic_3.png"" style=""width: 300px; height: auto;"">
        </div>
      </div>
      <p style=""text-align: center; margin-top: 20px;"">Does Event 1 lead to Event 2?</p>","1","5","3","true","physical_activity_semantic"
"","","","","","html-button-response","24","235176","0.0-24.0","","6792","
      <div style=""display: flex; justify-content: center; align-items: center;"">
        <div style=""text-align: center; margin-right: 20px;"">
          <p style=""font-size: 24px; font-weight: bold;"">Event 1</p>
          <img src=""images/causal/flight_scheme/flight_scheme_2.png"" style=""width: 300px; height: auto;"">
        </div>
        <div style=""text-align: center; margin-left: 20px;"">
          <p style=""font-size: 24px; font-weight: bold;"">Event 2</p>
          <img src=""images/causal/flight_scheme/flight_scheme_6.png"" style=""width: 300px; height: auto;"">
        </div>
      </div>
      <p style=""text-align: center; margin-top: 20px;"">Does Event 1 lead to Event 2?</p>","0","2","6","true","dog_causal"
"","","","","","html-button-response","25","242241","0.0-25.0","","7064","
      <div style=""display: flex; justify-content: center; align-items: center;"">
        <div style=""text-align: center; margin-right: 20px;"">
          <p style=""font-size: 24px; font-weight: bold;"">Event 1</p>
          <img src=""images/causal/cat_care_semantic/cat_care_semantic_7.png"" style=""width: 300px; height: auto;"">
        </div>
        <div style=""text-align: center; margin-left: 20px;"">
          <p style=""font-size: 24px; font-weight: bold;"">Event 2</p>
          <img src=""images/causal/cat_care_semantic/cat_care_semantic_5.png"" style=""width: 300px; height: auto;"">
        </div>
      </div>
      <p style=""text-align: center; margin-top: 20px;"">Does Event 1 lead to Event 2?</p>","1","7","5","true","physical_activity_semantic"
"","","","","","html-button-response","26","248187","0.0-26.0","","5945","
      <div style=""display: flex; justify-content: center; align-items: center;"">
        <div style=""text-align: center; margin-right: 20px;"">
          <p style=""font-size: 24px; font-weight: bold;"">Event 1</p>
          <img src=""images/causal/cat_care_semantic/cat_care_semantic_1.png"" style=""width: 300px; height: auto;"">
        </div>
        <div style=""text-align: center; margin-left: 20px;"">
          <p style=""font-size: 24px; font-weight: bold;"">Event 2</p>
          <img src=""images/causal/cat_care_semantic/cat_care_semantic_6.png"" style=""width: 300px; height: auto;"">
        </div>
      </div>
      <p style=""text-align: center; margin-top: 20px;"">Does Event 1 lead to Event 2?</p>","0","1","6","true","physical_activity_semantic"
"","","","","","html-button-response","27","254213","0.0-27.0","","6026","
      <div style=""display: flex; justify-content: center; align-items: center;"">
        <div style=""text-align: center; margin-right: 20px;"">
          <p style=""font-size: 24px; font-weight: bold;"">Event 1</p>
          <img src=""images/causal/saving_a_cat_causal/saving_a_cat_causal_1.png"" style=""width: 300px; height: auto;"">
        </div>
        <div style=""text-align: center; margin-left: 20px;"">
          <p style=""font-size: 24px; font-weight: bold;"">Event 2</p>
          <img src=""images/causal/saving_a_cat_causal/saving_a_cat_causal_8.png"" style=""width: 300px; height: auto;"">
        </div>
      </div>
      <p style=""text-align: center; margin-top: 20px;"">Does Event 1 lead to Event 2?</p>","0","1","8","true","package_causal"
"","","","","","html-button-response","28","260726","0.0-28.0","","6512","
      <div style=""display: flex; justify-content: center; align-items: center;"">
        <div style=""text-align: center; margin-right: 20px;"">
          <p style=""font-size: 24px; font-weight: bold;"">Event 1</p>
          <img src=""images/causal/saving_a_cat_causal/saving_a_cat_causal_1.png"" style=""width: 300px; height: auto;"">
        </div>
        <div style=""text-align: center; margin-left: 20px;"">
          <p style=""font-size: 24px; font-weight: bold;"">Event 2</p>
          <img src=""images/causal/saving_a_cat_causal/saving_a_cat_causal_9.png"" style=""width: 300px; height: auto;"">
        </div>
      </div>
      <p style=""text-align: center; margin-top: 20px;"">Does Event 1 lead to Event 2?</p>","2","1","9","true","package_causal"
"","","","","","html-button-response","29","267875","0.0-29.0","","7148","
      <div style=""display: flex; justify-content: center; align-items: center;"">
        <div style=""text-align: center; margin-right: 20px;"">
          <p style=""font-size: 24px; font-weight: bold;"">Event 1</p>
          <img src=""images/causal/cat_care_semantic/cat_care_semantic_6.png"" style=""width: 300px; height: auto;"">
        </div>
        <div style=""text-align: center; margin-left: 20px;"">
          <p style=""font-size: 24px; font-weight: bold;"">Event 2</p>
          <img src=""images/causal/cat_care_semantic/cat_care_semantic_7.png"" style=""width: 300px; height: auto;"">
        </div>
      </div>
      <p style=""text-align: center; margin-top: 20px;"">Does Event 1 lead to Event 2?</p>","0","6","7","true","physical_activity_semantic"
"","","","","","html-button-response","30","273451","0.0-30.0","","5575","
      <div style=""display: flex; justify-content: center; align-items: center;"">
        <div style=""text-align: center; margin-right: 20px;"">
          <p style=""font-size: 24px; font-weight: bold;"">Event 1</p>
          <img src=""images/causal/flight_scheme/flight_scheme_4.png"" style=""width: 300px; height: auto;"">
        </div>
        <div style=""text-align: center; margin-left: 20px;"">
          <p style=""font-size: 24px; font-weight: bold;"">Event 2</p>
          <img src=""images/causal/flight_scheme/flight_scheme_6.png"" style=""width: 300px; height: auto;"">
        </div>
      </div>
      <p style=""text-align: center; margin-top: 20px;"">Does Event 1 lead to Event 2?</p>","0","4","6","true","dog_causal"
"","","","","","html-button-response","31","286199","0.0-31.0","","12748","
      <div style=""display: flex; justify-content: center; align-items: center;"">
        <div style=""text-align: center; margin-right: 20px;"">
          <p style=""font-size: 24px; font-weight: bold;"">Event 1</p>
          <img src=""images/causal/cat_care_semantic/cat_care_semantic_5.png"" style=""width: 300px; height: auto;"">
        </div>
        <div style=""text-align: center; margin-left: 20px;"">
          <p style=""font-size: 24px; font-weight: bold;"">Event 2</p>
          <img src=""images/causal/cat_care_semantic/cat_care_semantic_10.png"" style=""width: 300px; height: auto;"">
        </div>
      </div>
      <p style=""text-align: center; margin-top: 20px;"">Does Event 1 lead to Event 2?</p>","2","5","10","true","physical_activity_semantic"
"","","","","","html-button-response","32","297722","0.0-32.0","","11522","
      <div style=""display: flex; justify-content: center; align-items: center;"">
        <div style=""text-align: center; margin-right: 20px;"">
          <p style=""font-size: 24px; font-weight: bold;"">Event 1</p>
          <img src=""images/causal/cat_care_semantic/cat_care_semantic_8.png"" style=""width: 300px; height: auto;"">
        </div>
        <div style=""text-align: center; margin-left: 20px;"">
          <p style=""font-size: 24px; font-weight: bold;"">Event 2</p>
          <img src=""images/causal/cat_care_semantic/cat_care_semantic_2.png"" style=""width: 300px; height: auto;"">
        </div>
      </div>
      <p style=""text-align: center; margin-top: 20px;"">Does Event 1 lead to Event 2?</p>","1","8","2","true","physical_activity_semantic"
"","","","","","html-button-response","33","304102","0.0-33.0","","6380","
      <div style=""display: flex; justify-content: center; align-items: center;"">
        <div style=""text-align: center; margin-right: 20px;"">
          <p style=""font-size: 24px; font-weight: bold;"">Event 1</p>
          <img src=""images/causal/saving_a_cat_causal/saving_a_cat_causal_10.png"" style=""width: 300px; height: auto;"">
        </div>
        <div style=""text-align: center; margin-left: 20px;"">
          <p style=""font-size: 24px; font-weight: bold;"">Event 2</p>
          <img src=""images/causal/saving_a_cat_causal/saving_a_cat_causal_1.png"" style=""width: 300px; height: auto;"">
        </div>
      </div>
      <p style=""text-align: center; margin-top: 20px;"">Does Event 1 lead to Event 2?</p>","1","10","1","true","package_causal"
"","","","","","html-button-response","34","309710","0.0-34.0","","5606","
      <div style=""display: flex; justify-content: center; align-items: center;"">
        <div style=""text-align: center; margin-right: 20px;"">
          <p style=""font-size: 24px; font-weight: bold;"">Event 1</p>
          <img src=""images/causal/saving_a_cat_causal/saving_a_cat_causal_5.png"" style=""width: 300px; height: auto;"">
        </div>
        <div style=""text-align: center; margin-left: 20px;"">
          <p style=""font-size: 24px; font-weight: bold;"">Event 2</p>
          <img src=""images/causal/saving_a_cat_causal/saving_a_cat_causal_1.png"" style=""width: 300px; height: auto;"">
        </div>
      </div>
      <p style=""text-align: center; margin-top: 20px;"">Does Event 1 lead to Event 2?</p>","1","5","1","true","package_causal"
"","","","","","html-button-response","35","320398","0.0-35.0","","10688","
      <div style=""display: flex; justify-content: center; align-items: center;"">
        <div style=""text-align: center; margin-right: 20px;"">
          <p style=""font-size: 24px; font-weight: bold;"">Event 1</p>
          <img src=""images/causal/cat_care_semantic/cat_care_semantic_10.png"" style=""width: 300px; height: auto;"">
        </div>
        <div style=""text-align: center; margin-left: 20px;"">
          <p style=""font-size: 24px; font-weight: bold;"">Event 2</p>
          <img src=""images/causal/cat_care_semantic/cat_care_semantic_1.png"" style=""width: 300px; height: auto;"">
        </div>
      </div>
      <p style=""text-align: center; margin-top: 20px;"">Does Event 1 lead to Event 2?</p>","1","10","1","true","physical_activity_semantic"
"","","","","","html-button-response","36","326314","0.0-36.0","","5916","
      <div style=""display: flex; justify-content: center; align-items: center;"">
        <div style=""text-align: center; margin-right: 20px;"">
          <p style=""font-size: 24px; font-weight: bold;"">Event 1</p>
          <img src=""images/causal/cat_care_semantic/cat_care_semantic_8.png"" style=""width: 300px; height: auto;"">
        </div>
        <div style=""text-align: center; margin-left: 20px;"">
          <p style=""font-size: 24px; font-weight: bold;"">Event 2</p>
          <img src=""images/causal/cat_care_semantic/cat_care_semantic_5.png"" style=""width: 300px; height: auto;"">
        </div>
      </div>
      <p style=""text-align: center; margin-top: 20px;"">Does Event 1 lead to Event 2?</p>","1","8","5","true","physical_activity_semantic"
"","","","","","html-button-response","37","331849","0.0-37.0","","5534","
      <div style=""display: flex; justify-content: center; align-items: center;"">
        <div style=""text-align: center; margin-right: 20px;"">
          <p style=""font-size: 24px; font-weight: bold;"">Event 1</p>
          <img src=""images/causal/flight_scheme/flight_scheme_7.png"" style=""width: 300px; height: auto;"">
        </div>
        <div style=""text-align: center; margin-left: 20px;"">
          <p style=""font-size: 24px; font-weight: bold;"">Event 2</p>
          <img src=""images/causal/flight_scheme/flight_scheme_9.png"" style=""width: 300px; height: auto;"">
        </div>
      </div>
      <p style=""text-align: center; margin-top: 20px;"">Does Event 1 lead to Event 2?</p>","0","7","9","true","dog_causal"
"","","","","","html-button-response","38","339139","0.0-38.0","","7290","
      <div style=""display: flex; justify-content: center; align-items: center;"">
        <div style=""text-align: center; margin-right: 20px;"">
          <p style=""font-size: 24px; font-weight: bold;"">Event 1</p>
          <img src=""images/causal/saving_a_cat_causal/saving_a_cat_causal_7.png"" style=""width: 300px; height: auto;"">
        </div>
        <div style=""text-align: center; margin-left: 20px;"">
          <p style=""font-size: 24px; font-weight: bold;"">Event 2</p>
          <img src=""images/causal/saving_a_cat_causal/saving_a_cat_causal_10.png"" style=""width: 300px; height: auto;"">
        </div>
      </div>
      <p style=""text-align: center; margin-top: 20px;"">Does Event 1 lead to Event 2?</p>","2","7","10","true","package_causal"
"","","","","","html-button-response","39","349051","0.0-39.0","","9911","
      <div style=""display: flex; justify-content: center; align-items: center;"">
        <div style=""text-align: center; margin-right: 20px;"">
          <p style=""font-size: 24px; font-weight: bold;"">Event 1</p>
          <img src=""images/causal/cat_care_semantic/cat_care_semantic_8.png"" style=""width: 300px; height: auto;"">
        </div>
        <div style=""text-align: center; margin-left: 20px;"">
          <p style=""font-size: 24px; font-weight: bold;"">Event 2</p>
          <img src=""images/causal/cat_care_semantic/cat_care_semantic_6.png"" style=""width: 300px; height: auto;"">
        </div>
      </div>
      <p style=""text-align: center; margin-top: 20px;"">Does Event 1 lead to Event 2?</p>","2","8","6","true","physical_activity_semantic"
"","","","","","html-button-response","40","354641","0.0-40.0","","5590","
      <div style=""display: flex; justify-content: center; align-items: center;"">
        <div style=""text-align: center; margin-right: 20px;"">
          <p style=""font-size: 24px; font-weight: bold;"">Event 1</p>
          <img src=""images/causal/flight_scheme/flight_scheme_3.png"" style=""width: 300px; height: auto;"">
        </div>
        <div style=""text-align: center; margin-left: 20px;"">
          <p style=""font-size: 24px; font-weight: bold;"">Event 2</p>
          <img src=""images/causal/flight_scheme/flight_scheme_8.png"" style=""width: 300px; height: auto;"">
        </div>
      </div>
      <p style=""text-align: center; margin-top: 20px;"">Does Event 1 lead to Event 2?</p>","0","3","8","true","dog_causal"
"","","","","","html-button-response","41","361552","0.0-41.0","","6910","
      <div style=""display: flex; justify-content: center; align-items: center;"">
        <div style=""text-align: center; margin-right: 20px;"">
          <p style=""font-size: 24px; font-weight: bold;"">Event 1</p>
          <img src=""images/causal/saving_a_cat_causal/saving_a_cat_causal_4.png"" style=""width: 300px; height: auto;"">
        </div>
        <div style=""text-align: center; margin-left: 20px;"">
          <p style=""font-size: 24px; font-weight: bold;"">Event 2</p>
          <img src=""images/causal/saving_a_cat_causal/saving_a_cat_causal_5.png"" style=""width: 300px; height: auto;"">
        </div>
      </div>
      <p style=""text-align: center; margin-top: 20px;"">Does Event 1 lead to Event 2?</p>","0","4","5","true","package_causal"
"","","","","","html-button-response","42","369209","0.0-42.0","","7657","
      <div style=""display: flex; justify-content: center; align-items: center;"">
        <div style=""text-align: center; margin-right: 20px;"">
          <p style=""font-size: 24px; font-weight: bold;"">Event 1</p>
          <img src=""images/causal/saving_a_cat_causal/saving_a_cat_causal_8.png"" style=""width: 300px; height: auto;"">
        </div>
        <div style=""text-align: center; margin-left: 20px;"">
          <p style=""font-size: 24px; font-weight: bold;"">Event 2</p>
          <img src=""images/causal/saving_a_cat_causal/saving_a_cat_causal_6.png"" style=""width: 300px; height: auto;"">
        </div>
      </div>
      <p style=""text-align: center; margin-top: 20px;"">Does Event 1 lead to Event 2?</p>","1","8","6","true","package_causal"
"","","","","","html-button-response","43","374721","0.0-43.0","","5511","
      <div style=""display: flex; justify-content: center; align-items: center;"">
        <div style=""text-align: center; margin-right: 20px;"">
          <p style=""font-size: 24px; font-weight: bold;"">Event 1</p>
          <img src=""images/causal/saving_a_cat_causal/saving_a_cat_causal_5.png"" style=""width: 300px; height: auto;"">
        </div>
        <div style=""text-align: center; margin-left: 20px;"">
          <p style=""font-size: 24px; font-weight: bold;"">Event 2</p>
          <img src=""images/causal/saving_a_cat_causal/saving_a_cat_causal_6.png"" style=""width: 300px; height: auto;"">
        </div>
      </div>
      <p style=""text-align: center; margin-top: 20px;"">Does Event 1 lead to Event 2?</p>","0","5","6","true","package_causal"
"","","","","","html-button-response","44","387855","0.0-44.0","","13133","
      <div style=""display: flex; justify-content: center; align-items: center;"">
        <div style=""text-align: center; margin-right: 20px;"">
          <p style=""font-size: 24px; font-weight: bold;"">Event 1</p>
          <img src=""images/causal/saving_a_cat_causal/saving_a_cat_causal_8.png"" style=""width: 300px; height: auto;"">
        </div>
        <div style=""text-align: center; margin-left: 20px;"">
          <p style=""font-size: 24px; font-weight: bold;"">Event 2</p>
          <img src=""images/causal/saving_a_cat_causal/saving_a_cat_causal_4.png"" style=""width: 300px; height: auto;"">
        </div>
      </div>
      <p style=""text-align: center; margin-top: 20px;"">Does Event 1 lead to Event 2?</p>","1","8","4","true","package_causal"
"","","","","","html-button-response","45","394465","0.0-45.0","","6610","
      <div style=""display: flex; justify-content: center; align-items: center;"">
        <div style=""text-align: center; margin-right: 20px;"">
          <p style=""font-size: 24px; font-weight: bold;"">Event 1</p>
          <img src=""images/causal/cat_care_semantic/cat_care_semantic_1.png"" style=""width: 300px; height: auto;"">
        </div>
        <div style=""text-align: center; margin-left: 20px;"">
          <p style=""font-size: 24px; font-weight: bold;"">Event 2</p>
          <img src=""images/causal/cat_care_semantic/cat_care_semantic_2.png"" style=""width: 300px; height: auto;"">
        </div>
      </div>
      <p style=""text-align: center; margin-top: 20px;"">Does Event 1 lead to Event 2?</p>","0","1","2","true","physical_activity_semantic"
"","","","","","html-button-response","46","400916","0.0-46.0","","6450","
      <div style=""display: flex; justify-content: center; align-items: center;"">
        <div style=""text-align: center; margin-right: 20px;"">
          <p style=""font-size: 24px; font-weight: bold;"">Event 1</p>
          <img src=""images/causal/cat_care_semantic/cat_care_semantic_1.png"" style=""width: 300px; height: auto;"">
        </div>
        <div style=""text-align: center; margin-left: 20px;"">
          <p style=""font-size: 24px; font-weight: bold;"">Event 2</p>
          <img src=""images/causal/cat_care_semantic/cat_care_semantic_7.png"" style=""width: 300px; height: auto;"">
        </div>
      </div>
      <p style=""text-align: center; margin-top: 20px;"">Does Event 1 lead to Event 2?</p>","0","1","7","true","physical_activity_semantic"
"","","","","","html-button-response","47","407860","0.0-47.0","","6943","
      <div style=""display: flex; justify-content: center; align-items: center;"">
        <div style=""text-align: center; margin-right: 20px;"">
          <p style=""font-size: 24px; font-weight: bold;"">Event 1</p>
          <img src=""images/causal/flight_scheme/flight_scheme_1.png"" style=""width: 300px; height: auto;"">
        </div>
        <div style=""text-align: center; margin-left: 20px;"">
          <p style=""font-size: 24px; font-weight: bold;"">Event 2</p>
          <img src=""images/causal/flight_scheme/flight_scheme_8.png"" style=""width: 300px; height: auto;"">
        </div>
      </div>
      <p style=""text-align: center; margin-top: 20px;"">Does Event 1 lead to Event 2?</p>","0","1","8","true","dog_causal"
"","","","","","html-button-response","48","414195","0.0-48.0","","6335","
      <div style=""display: flex; justify-content: center; align-items: center;"">
        <div style=""text-align: center; margin-right: 20px;"">
          <p style=""font-size: 24px; font-weight: bold;"">Event 1</p>
          <img src=""images/causal/flight_scheme/flight_scheme_4.png"" style=""width: 300px; height: auto;"">
        </div>
        <div style=""text-align: center; margin-left: 20px;"">
          <p style=""font-size: 24px; font-weight: bold;"">Event 2</p>
          <img src=""images/causal/flight_scheme/flight_scheme_5.png"" style=""width: 300px; height: auto;"">
        </div>
      </div>
      <p style=""text-align: center; margin-top: 20px;"">Does Event 1 lead to Event 2?</p>","0","4","5","true","dog_causal"
"","","","","","html-button-response","49","420360","0.0-49.0","","6165","
      <div style=""display: flex; justify-content: center; align-items: center;"">
        <div style=""text-align: center; margin-right: 20px;"">
          <p style=""font-size: 24px; font-weight: bold;"">Event 1</p>
          <img src=""images/causal/saving_a_cat_causal/saving_a_cat_causal_1.png"" style=""width: 300px; height: auto;"">
        </div>
        <div style=""text-align: center; margin-left: 20px;"">
          <p style=""font-size: 24px; font-weight: bold;"">Event 2</p>
          <img src=""images/causal/saving_a_cat_causal/saving_a_cat_causal_2.png"" style=""width: 300px; height: auto;"">
        </div>
      </div>
      <p style=""text-align: center; margin-top: 20px;"">Does Event 1 lead to Event 2?</p>","0","1","2","true","package_causal"
"","","","","","html-button-response","50","426305","0.0-50.0","","5944","
      <div style=""display: flex; justify-content: center; align-items: center;"">
        <div style=""text-align: center; margin-right: 20px;"">
          <p style=""font-size: 24px; font-weight: bold;"">Event 1</p>
          <img src=""images/causal/flight_scheme/flight_scheme_2.png"" style=""width: 300px; height: auto;"">
        </div>
        <div style=""text-align: center; margin-left: 20px;"">
          <p style=""font-size: 24px; font-weight: bold;"">Event 2</p>
          <img src=""images/causal/flight_scheme/flight_scheme_7.png"" style=""width: 300px; height: auto;"">
        </div>
      </div>
      <p style=""text-align: center; margin-top: 20px;"">Does Event 1 lead to Event 2?</p>","0","2","7","true","dog_causal"
"","","","","","html-button-response","51","433511","0.0-51.0","","7206","
      <div style=""display: flex; justify-content: center; align-items: center;"">
        <div style=""text-align: center; margin-right: 20px;"">
          <p style=""font-size: 24px; font-weight: bold;"">Event 1</p>
          <img src=""images/causal/cat_care_semantic/cat_care_semantic_1.png"" style=""width: 300px; height: auto;"">
        </div>
        <div style=""text-align: center; margin-left: 20px;"">
          <p style=""font-size: 24px; font-weight: bold;"">Event 2</p>
          <img src=""images/causal/cat_care_semantic/cat_care_semantic_8.png"" style=""width: 300px; height: auto;"">
        </div>
      </div>
      <p style=""text-align: center; margin-top: 20px;"">Does Event 1 lead to Event 2?</p>","2","1","8","true","physical_activity_semantic"
"","","","","","html-button-response","52","440821","0.0-52.0","","7309","
      <div style=""display: flex; justify-content: center; align-items: center;"">
        <div style=""text-align: center; margin-right: 20px;"">
          <p style=""font-size: 24px; font-weight: bold;"">Event 1</p>
          <img src=""images/causal/cat_care_semantic/cat_care_semantic_5.png"" style=""width: 300px; height: auto;"">
        </div>
        <div style=""text-align: center; margin-left: 20px;"">
          <p style=""font-size: 24px; font-weight: bold;"">Event 2</p>
          <img src=""images/causal/cat_care_semantic/cat_care_semantic_6.png"" style=""width: 300px; height: auto;"">
        </div>
      </div>
      <p style=""text-align: center; margin-top: 20px;"">Does Event 1 lead to Event 2?</p>","0","5","6","true","physical_activity_semantic"
"","","","","","html-button-response","53","448502","0.0-53.0","","7680","
      <div style=""display: flex; justify-content: center; align-items: center;"">
        <div style=""text-align: center; margin-right: 20px;"">
          <p style=""font-size: 24px; font-weight: bold;"">Event 1</p>
          <img src=""images/causal/cat_care_semantic/cat_care_semantic_9.png"" style=""width: 300px; height: auto;"">
        </div>
        <div style=""text-align: center; margin-left: 20px;"">
          <p style=""font-size: 24px; font-weight: bold;"">Event 2</p>
          <img src=""images/causal/cat_care_semantic/cat_care_semantic_7.png"" style=""width: 300px; height: auto;"">
        </div>
      </div>
      <p style=""text-align: center; margin-top: 20px;"">Does Event 1 lead to Event 2?</p>","2","9","7","true","physical_activity_semantic"
"","","","","","html-button-response","54","457986","0.0-54.0","","9484","
      <div style=""display: flex; justify-content: center; align-items: center;"">
        <div style=""text-align: center; margin-right: 20px;"">
          <p style=""font-size: 24px; font-weight: bold;"">Event 1</p>
          <img src=""images/causal/saving_a_cat_causal/saving_a_cat_causal_2.png"" style=""width: 300px; height: auto;"">
        </div>
        <div style=""text-align: center; margin-left: 20px;"">
          <p style=""font-size: 24px; font-weight: bold;"">Event 2</p>
          <img src=""images/causal/saving_a_cat_causal/saving_a_cat_causal_6.png"" style=""width: 300px; height: auto;"">
        </div>
      </div>
      <p style=""text-align: center; margin-top: 20px;"">Does Event 1 lead to Event 2?</p>","0","2","6","true","package_causal"
"","","","","","html-button-response","55","465738","0.0-55.0","","7752","
      <div style=""display: flex; justify-content: center; align-items: center;"">
        <div style=""text-align: center; margin-right: 20px;"">
          <p style=""font-size: 24px; font-weight: bold;"">Event 1</p>
          <img src=""images/causal/flight_scheme/flight_scheme_8.png"" style=""width: 300px; height: auto;"">
        </div>
        <div style=""text-align: center; margin-left: 20px;"">
          <p style=""font-size: 24px; font-weight: bold;"">Event 2</p>
          <img src=""images/causal/flight_scheme/flight_scheme_6.png"" style=""width: 300px; height: auto;"">
        </div>
      </div>
      <p style=""text-align: center; margin-top: 20px;"">Does Event 1 lead to Event 2?</p>","1","8","6","true","dog_causal"
"","","","","","html-button-response","56","471670","0.0-56.0","","5931","
      <div style=""display: flex; justify-content: center; align-items: center;"">
        <div style=""text-align: center; margin-right: 20px;"">
          <p style=""font-size: 24px; font-weight: bold;"">Event 1</p>
          <img src=""images/causal/flight_scheme/flight_scheme_1.png"" style=""width: 300px; height: auto;"">
        </div>
        <div style=""text-align: center; margin-left: 20px;"">
          <p style=""font-size: 24px; font-weight: bold;"">Event 2</p>
          <img src=""images/causal/flight_scheme/flight_scheme_2.png"" style=""width: 300px; height: auto;"">
        </div>
      </div>
      <p style=""text-align: center; margin-top: 20px;"">Does Event 1 lead to Event 2?</p>","0","1","2","true","dog_causal"
"","","","","","html-button-response","57","478283","0.0-57.0","","6613","
      <div style=""display: flex; justify-content: center; align-items: center;"">
        <div style=""text-align: center; margin-right: 20px;"">
          <p style=""font-size: 24px; font-weight: bold;"">Event 1</p>
          <img src=""images/causal/flight_scheme/flight_scheme_9.png"" style=""width: 300px; height: auto;"">
        </div>
        <div style=""text-align: center; margin-left: 20px;"">
          <p style=""font-size: 24px; font-weight: bold;"">Event 2</p>
          <img src=""images/causal/flight_scheme/flight_scheme_1.png"" style=""width: 300px; height: auto;"">
        </div>
      </div>
      <p style=""text-align: center; margin-top: 20px;"">Does Event 1 lead to Event 2?</p>","1","9","1","true","dog_causal"
"","","","","","html-button-response","58","484709","0.0-58.0","","6425","
      <div style=""display: flex; justify-content: center; align-items: center;"">
        <div style=""text-align: center; margin-right: 20px;"">
          <p style=""font-size: 24px; font-weight: bold;"">Event 1</p>
          <img src=""images/causal/flight_scheme/flight_scheme_9.png"" style=""width: 300px; height: auto;"">
        </div>
        <div style=""text-align: center; margin-left: 20px;"">
          <p style=""font-size: 24px; font-weight: bold;"">Event 2</p>
          <img src=""images/causal/flight_scheme/flight_scheme_8.png"" style=""width: 300px; height: auto;"">
        </div>
      </div>
      <p style=""text-align: center; margin-top: 20px;"">Does Event 1 lead to Event 2?</p>","1","9","8","true","dog_causal"
"","","","","","html-button-response","59","491331","0.0-59.0","","6621","
      <div style=""display: flex; justify-content: center; align-items: center;"">
        <div style=""text-align: center; margin-right: 20px;"">
          <p style=""font-size: 24px; font-weight: bold;"">Event 1</p>
          <img src=""images/causal/saving_a_cat_causal/saving_a_cat_causal_5.png"" style=""width: 300px; height: auto;"">
        </div>
        <div style=""text-align: center; margin-left: 20px;"">
          <p style=""font-size: 24px; font-weight: bold;"">Event 2</p>
          <img src=""images/causal/saving_a_cat_causal/saving_a_cat_causal_10.png"" style=""width: 300px; height: auto;"">
        </div>
      </div>
      <p style=""text-align: center; margin-top: 20px;"">Does Event 1 lead to Event 2?</p>","2","5","10","true","package_causal"
"","","","","","html-button-response","60","497872","0.0-60.0","","6541","
      <div style=""display: flex; justify-content: center; align-items: center;"">
        <div style=""text-align: center; margin-right: 20px;"">
          <p style=""font-size: 24px; font-weight: bold;"">Event 1</p>
          <img src=""images/causal/saving_a_cat_causal/saving_a_cat_causal_10.png"" style=""width: 300px; height: auto;"">
        </div>
        <div style=""text-align: center; margin-left: 20px;"">
          <p style=""font-size: 24px; font-weight: bold;"">Event 2</p>
          <img src=""images/causal/saving_a_cat_causal/saving_a_cat_causal_3.png"" style=""width: 300px; height: auto;"">
        </div>
      </div>
      <p style=""text-align: center; margin-top: 20px;"">Does Event 1 lead to Event 2?</p>","1","10","3","true","package_causal"
"","","","","","html-button-response","61","506078","0.0-61.0","","8205","
      <div style=""display: flex; justify-content: center; align-items: center;"">
        <div style=""text-align: center; margin-right: 20px;"">
          <p style=""font-size: 24px; font-weight: bold;"">Event 1</p>
          <img src=""images/causal/cat_care_semantic/cat_care_semantic_2.png"" style=""width: 300px; height: auto;"">
        </div>
        <div style=""text-align: center; margin-left: 20px;"">
          <p style=""font-size: 24px; font-weight: bold;"">Event 2</p>
          <img src=""images/causal/cat_care_semantic/cat_care_semantic_4.png"" style=""width: 300px; height: auto;"">
        </div>
      </div>
      <p style=""text-align: center; margin-top: 20px;"">Does Event 1 lead to Event 2?</p>","0","2","4","true","physical_activity_semantic"
"","","","","","html-button-response","62","514230","0.0-62.0","","8152","
      <div style=""display: flex; justify-content: center; align-items: center;"">
        <div style=""text-align: center; margin-right: 20px;"">
          <p style=""font-size: 24px; font-weight: bold;"">Event 1</p>
          <img src=""images/causal/cat_care_semantic/cat_care_semantic_9.png"" style=""width: 300px; height: auto;"">
        </div>
        <div style=""text-align: center; margin-left: 20px;"">
          <p style=""font-size: 24px; font-weight: bold;"">Event 2</p>
          <img src=""images/causal/cat_care_semantic/cat_care_semantic_5.png"" style=""width: 300px; height: auto;"">
        </div>
      </div>
      <p style=""text-align: center; margin-top: 20px;"">Does Event 1 lead to Event 2?</p>","0","9","5","true","physical_activity_semantic"
"","","","","","html-button-response","63","519719","0.0-63.0","","5488","
      <div style=""display: flex; justify-content: center; align-items: center;"">
        <div style=""text-align: center; margin-right: 20px;"">
          <p style=""font-size: 24px; font-weight: bold;"">Event 1</p>
          <img src=""images/causal/cat_care_semantic/cat_care_semantic_10.png"" style=""width: 300px; height: auto;"">
        </div>
        <div style=""text-align: center; margin-left: 20px;"">
          <p style=""font-size: 24px; font-weight: bold;"">Event 2</p>
          <img src=""images/causal/cat_care_semantic/cat_care_semantic_2.png"" style=""width: 300px; height: auto;"">
        </div>
      </div>
      <p style=""text-align: center; margin-top: 20px;"">Does Event 1 lead to Event 2?</p>","0","10","2","true","physical_activity_semantic"
"","","","","","html-button-response","64","525152","0.0-64.0","","5432","
      <div style=""display: flex; justify-content: center; align-items: center;"">
        <div style=""text-align: center; margin-right: 20px;"">
          <p style=""font-size: 24px; font-weight: bold;"">Event 1</p>
          <img src=""images/causal/flight_scheme/flight_scheme_8.png"" style=""width: 300px; height: auto;"">
        </div>
        <div style=""text-align: center; margin-left: 20px;"">
          <p style=""font-size: 24px; font-weight: bold;"">Event 2</p>
          <img src=""images/causal/flight_scheme/flight_scheme_7.png"" style=""width: 300px; height: auto;"">
        </div>
      </div>
      <p style=""text-align: center; margin-top: 20px;"">Does Event 1 lead to Event 2?</p>","1","8","7","true","dog_causal"
"","","","","","html-button-response","65","530988","0.0-65.0","","5836","
      <div style=""display: flex; justify-content: center; align-items: center;"">
        <div style=""text-align: center; margin-right: 20px;"">
          <p style=""font-size: 24px; font-weight: bold;"">Event 1</p>
          <img src=""images/causal/cat_care_semantic/cat_care_semantic_2.png"" style=""width: 300px; height: auto;"">
        </div>
        <div style=""text-align: center; margin-left: 20px;"">
          <p style=""font-size: 24px; font-weight: bold;"">Event 2</p>
          <img src=""images/causal/cat_care_semantic/cat_care_semantic_9.png"" style=""width: 300px; height: auto;"">
        </div>
      </div>
      <p style=""text-align: center; margin-top: 20px;"">Does Event 1 lead to Event 2?</p>","0","2","9","true","physical_activity_semantic"
"","","","","","html-button-response","66","536704","0.0-66.0","","5715","
      <div style=""display: flex; justify-content: center; align-items: center;"">
        <div style=""text-align: center; margin-right: 20px;"">
          <p style=""font-size: 24px; font-weight: bold;"">Event 1</p>
          <img src=""images/causal/cat_care_semantic/cat_care_semantic_3.png"" style=""width: 300px; height: auto;"">
        </div>
        <div style=""text-align: center; margin-left: 20px;"">
          <p style=""font-size: 24px; font-weight: bold;"">Event 2</p>
          <img src=""images/causal/cat_care_semantic/cat_care_semantic_10.png"" style=""width: 300px; height: auto;"">
        </div>
      </div>
      <p style=""text-align: center; margin-top: 20px;"">Does Event 1 lead to Event 2?</p>","2","3","10","true","physical_activity_semantic"
"","","","","","html-button-response","67","543059","0.0-67.0","","6355","
      <div style=""display: flex; justify-content: center; align-items: center;"">
        <div style=""text-align: center; margin-right: 20px;"">
          <p style=""font-size: 24px; font-weight: bold;"">Event 1</p>
          <img src=""images/causal/flight_scheme/flight_scheme_9.png"" style=""width: 300px; height: auto;"">
        </div>
        <div style=""text-align: center; margin-left: 20px;"">
          <p style=""font-size: 24px; font-weight: bold;"">Event 2</p>
          <img src=""images/causal/flight_scheme/flight_scheme_4.png"" style=""width: 300px; height: auto;"">
        </div>
      </div>
      <p style=""text-align: center; margin-top: 20px;"">Does Event 1 lead to Event 2?</p>","1","9","4","true","dog_causal"
"","","","","","html-button-response","68","552847","0.0-68.0","","9787","
      <div style=""display: flex; justify-content: center; align-items: center;"">
        <div style=""text-align: center; margin-right: 20px;"">
          <p style=""font-size: 24px; font-weight: bold;"">Event 1</p>
          <img src=""images/causal/flight_scheme/flight_scheme_4.png"" style=""width: 300px; height: auto;"">
        </div>
        <div style=""text-align: center; margin-left: 20px;"">
          <p style=""font-size: 24px; font-weight: bold;"">Event 2</p>
          <img src=""images/causal/flight_scheme/flight_scheme_10.png"" style=""width: 300px; height: auto;"">
        </div>
      </div>
      <p style=""text-align: center; margin-top: 20px;"">Does Event 1 lead to Event 2?</p>","2","4","10","true","dog_causal"
"","","","","","html-button-response","69","558489","0.0-69.0","","5641","
      <div style=""display: flex; justify-content: center; align-items: center;"">
        <div style=""text-align: center; margin-right: 20px;"">
          <p style=""font-size: 24px; font-weight: bold;"">Event 1</p>
          <img src=""images/causal/saving_a_cat_causal/saving_a_cat_causal_2.png"" style=""width: 300px; height: auto;"">
        </div>
        <div style=""text-align: center; margin-left: 20px;"">
          <p style=""font-size: 24px; font-weight: bold;"">Event 2</p>
          <img src=""images/causal/saving_a_cat_causal/saving_a_cat_causal_5.png"" style=""width: 300px; height: auto;"">
        </div>
      </div>
      <p style=""text-align: center; margin-top: 20px;"">Does Event 1 lead to Event 2?</p>","0","2","5","true","package_causal"
"","","","","","html-button-response","70","563992","0.0-70.0","","5502","
      <div style=""display: flex; justify-content: center; align-items: center;"">
        <div style=""text-align: center; margin-right: 20px;"">
          <p style=""font-size: 24px; font-weight: bold;"">Event 1</p>
          <img src=""images/causal/flight_scheme/flight_scheme_9.png"" style=""width: 300px; height: auto;"">
        </div>
        <div style=""text-align: center; margin-left: 20px;"">
          <p style=""font-size: 24px; font-weight: bold;"">Event 2</p>
          <img src=""images/causal/flight_scheme/flight_scheme_6.png"" style=""width: 300px; height: auto;"">
        </div>
      </div>
      <p style=""text-align: center; margin-top: 20px;"">Does Event 1 lead to Event 2?</p>","1","9","6","true","dog_causal"
"","","","","","html-button-response","71","569744","0.0-71.0","","5752","
      <div style=""display: flex; justify-content: center; align-items: center;"">
        <div style=""text-align: center; margin-right: 20px;"">
          <p style=""font-size: 24px; font-weight: bold;"">Event 1</p>
          <img src=""images/causal/flight_scheme/flight_scheme_6.png"" style=""width: 300px; height: auto;"">
        </div>
        <div style=""text-align: center; margin-left: 20px;"">
          <p style=""font-size: 24px; font-weight: bold;"">Event 2</p>
          <img src=""images/causal/flight_scheme/flight_scheme_5.png"" style=""width: 300px; height: auto;"">
        </div>
      </div>
      <p style=""text-align: center; margin-top: 20px;"">Does Event 1 lead to Event 2?</p>","1","6","5","true","dog_causal"
"","","","","","html-button-response","72","575433","0.0-72.0","","5689","
      <div style=""display: flex; justify-content: center; align-items: center;"">
        <div style=""text-align: center; margin-right: 20px;"">
          <p style=""font-size: 24px; font-weight: bold;"">Event 1</p>
          <img src=""images/causal/cat_care_semantic/cat_care_semantic_7.png"" style=""width: 300px; height: auto;"">
        </div>
        <div style=""text-align: center; margin-left: 20px;"">
          <p style=""font-size: 24px; font-weight: bold;"">Event 2</p>
          <img src=""images/causal/cat_care_semantic/cat_care_semantic_2.png"" style=""width: 300px; height: auto;"">
        </div>
      </div>
      <p style=""text-align: center; margin-top: 20px;"">Does Event 1 lead to Event 2?</p>","0","7","2","true","physical_activity_semantic"
"","","","","","html-button-response","73","581252","0.0-73.0","","5818","
      <div style=""display: flex; justify-content: center; align-items: center;"">
        <div style=""text-align: center; margin-right: 20px;"">
          <p style=""font-size: 24px; font-weight: bold;"">Event 1</p>
          <img src=""images/causal/flight_scheme/flight_scheme_7.png"" style=""width: 300px; height: auto;"">
        </div>
        <div style=""text-align: center; margin-left: 20px;"">
          <p style=""font-size: 24px; font-weight: bold;"">Event 2</p>
          <img src=""images/causal/flight_scheme/flight_scheme_4.png"" style=""width: 300px; height: auto;"">
        </div>
      </div>
      <p style=""text-align: center; margin-top: 20px;"">Does Event 1 lead to Event 2?</p>","1","7","4","true","dog_causal"
"","","","","","html-button-response","74","587859","0.0-74.0","","6606","
      <div style=""display: flex; justify-content: center; align-items: center;"">
        <div style=""text-align: center; margin-right: 20px;"">
          <p style=""font-size: 24px; font-weight: bold;"">Event 1</p>
          <img src=""images/causal/saving_a_cat_causal/saving_a_cat_causal_6.png"" style=""width: 300px; height: auto;"">
        </div>
        <div style=""text-align: center; margin-left: 20px;"">
          <p style=""font-size: 24px; font-weight: bold;"">Event 2</p>
          <img src=""images/causal/saving_a_cat_causal/saving_a_cat_causal_1.png"" style=""width: 300px; height: auto;"">
        </div>
      </div>
      <p style=""text-align: center; margin-top: 20px;"">Does Event 1 lead to Event 2?</p>","1","6","1","true","package_causal"
"","","","","","html-button-response","75","596310","0.0-75.0","","8451","
      <div style=""display: flex; justify-content: center; align-items: center;"">
        <div style=""text-align: center; margin-right: 20px;"">
          <p style=""font-size: 24px; font-weight: bold;"">Event 1</p>
          <img src=""images/causal/saving_a_cat_causal/saving_a_cat_causal_9.png"" style=""width: 300px; height: auto;"">
        </div>
        <div style=""text-align: center; margin-left: 20px;"">
          <p style=""font-size: 24px; font-weight: bold;"">Event 2</p>
          <img src=""images/causal/saving_a_cat_causal/saving_a_cat_causal_5.png"" style=""width: 300px; height: auto;"">
        </div>
      </div>
      <p style=""text-align: center; margin-top: 20px;"">Does Event 1 lead to Event 2?</p>","1","9","5","true","package_causal"
"","","","","","html-button-response","76","602063","0.0-76.0","","5753","
      <div style=""display: flex; justify-content: center; align-items: center;"">
        <div style=""text-align: center; margin-right: 20px;"">
          <p style=""font-size: 24px; font-weight: bold;"">Event 1</p>
          <img src=""images/causal/cat_care_semantic/cat_care_semantic_4.png"" style=""width: 300px; height: auto;"">
        </div>
        <div style=""text-align: center; margin-left: 20px;"">
          <p style=""font-size: 24px; font-weight: bold;"">Event 2</p>
          <img src=""images/causal/cat_care_semantic/cat_care_semantic_1.png"" style=""width: 300px; height: auto;"">
        </div>
      </div>
      <p style=""text-align: center; margin-top: 20px;"">Does Event 1 lead to Event 2?</p>","1","4","1","true","physical_activity_semantic"
"","","","","","html-button-response","77","611751","0.0-77.0","","9687","
      <div style=""display: flex; justify-content: center; align-items: center;"">
        <div style=""text-align: center; margin-right: 20px;"">
          <p style=""font-size: 24px; font-weight: bold;"">Event 1</p>
          <img src=""images/causal/flight_scheme/flight_scheme_10.png"" style=""width: 300px; height: auto;"">
        </div>
        <div style=""text-align: center; margin-left: 20px;"">
          <p style=""font-size: 24px; font-weight: bold;"">Event 2</p>
          <img src=""images/causal/flight_scheme/flight_scheme_3.png"" style=""width: 300px; height: auto;"">
        </div>
      </div>
      <p style=""text-align: center; margin-top: 20px;"">Does Event 1 lead to Event 2?</p>","1","10","3","true","dog_causal"
"","","","","","html-button-response","78","619139","0.0-78.0","","7387","
      <div style=""display: flex; justify-content: center; align-items: center;"">
        <div style=""text-align: center; margin-right: 20px;"">
          <p style=""font-size: 24px; font-weight: bold;"">Event 1</p>
          <img src=""images/causal/cat_care_semantic/cat_care_semantic_9.png"" style=""width: 300px; height: auto;"">
        </div>
        <div style=""text-align: center; margin-left: 20px;"">
          <p style=""font-size: 24px; font-weight: bold;"">Event 2</p>
          <img src=""images/causal/cat_care_semantic/cat_care_semantic_8.png"" style=""width: 300px; height: auto;"">
        </div>
      </div>
      <p style=""text-align: center; margin-top: 20px;"">Does Event 1 lead to Event 2?</p>","0","9","8","true","physical_activity_semantic"
"","","","","","html-button-response","79","626124","0.0-79.0","","6985","
      <div style=""display: flex; justify-content: center; align-items: center;"">
        <div style=""text-align: center; margin-right: 20px;"">
          <p style=""font-size: 24px; font-weight: bold;"">Event 1</p>
          <img src=""images/causal/cat_care_semantic/cat_care_semantic_7.png"" style=""width: 300px; height: auto;"">
        </div>
        <div style=""text-align: center; margin-left: 20px;"">
          <p style=""font-size: 24px; font-weight: bold;"">Event 2</p>
          <img src=""images/causal/cat_care_semantic/cat_care_semantic_10.png"" style=""width: 300px; height: auto;"">
        </div>
      </div>
      <p style=""text-align: center; margin-top: 20px;"">Does Event 1 lead to Event 2?</p>","2","7","10","true","physical_activity_semantic"
"","","","","","html-button-response","80","631588","0.0-80.0","","5464","
      <div style=""display: flex; justify-content: center; align-items: center;"">
        <div style=""text-align: center; margin-right: 20px;"">
          <p style=""font-size: 24px; font-weight: bold;"">Event 1</p>
          <img src=""images/causal/saving_a_cat_causal/saving_a_cat_causal_10.png"" style=""width: 300px; height: auto;"">
        </div>
        <div style=""text-align: center; margin-left: 20px;"">
          <p style=""font-size: 24px; font-weight: bold;"">Event 2</p>
          <img src=""images/causal/saving_a_cat_causal/saving_a_cat_causal_6.png"" style=""width: 300px; height: auto;"">
        </div>
      </div>
      <p style=""text-align: center; margin-top: 20px;"">Does Event 1 lead to Event 2?</p>","2","10","6","true","package_causal"
"","","","","","html-button-response","81","639216","0.0-81.0","","7628","
      <div style=""display: flex; justify-content: center; align-items: center;"">
        <div style=""text-align: center; margin-right: 20px;"">
          <p style=""font-size: 24px; font-weight: bold;"">Event 1</p>
          <img src=""images/causal/saving_a_cat_causal/saving_a_cat_causal_5.png"" style=""width: 300px; height: auto;"">
        </div>
        <div style=""text-align: center; margin-left: 20px;"">
          <p style=""font-size: 24px; font-weight: bold;"">Event 2</p>
          <img src=""images/causal/saving_a_cat_causal/saving_a_cat_causal_3.png"" style=""width: 300px; height: auto;"">
        </div>
      </div>
      <p style=""text-align: center; margin-top: 20px;"">Does Event 1 lead to Event 2?</p>","1","5","3","true","package_causal"
"","","","","","html-button-response","82","647454","0.0-82.0","","8236","
      <div style=""display: flex; justify-content: center; align-items: center;"">
        <div style=""text-align: center; margin-right: 20px;"">
          <p style=""font-size: 24px; font-weight: bold;"">Event 1</p>
          <img src=""images/causal/cat_care_semantic/cat_care_semantic_4.png"" style=""width: 300px; height: auto;"">
        </div>
        <div style=""text-align: center; margin-left: 20px;"">
          <p style=""font-size: 24px; font-weight: bold;"">Event 2</p>
          <img src=""images/causal/cat_care_semantic/cat_care_semantic_9.png"" style=""width: 300px; height: auto;"">
        </div>
      </div>
      <p style=""text-align: center; margin-top: 20px;"">Does Event 1 lead to Event 2?</p>","0","4","9","true","physical_activity_semantic"
"","","","","","html-button-response","83","656635","0.0-83.0","","9180","
      <div style=""display: flex; justify-content: center; align-items: center;"">
        <div style=""text-align: center; margin-right: 20px;"">
          <p style=""font-size: 24px; font-weight: bold;"">Event 1</p>
          <img src=""images/causal/flight_scheme/flight_scheme_5.png"" style=""width: 300px; height: auto;"">
        </div>
        <div style=""text-align: center; margin-left: 20px;"">
          <p style=""font-size: 24px; font-weight: bold;"">Event 2</p>
          <img src=""images/causal/flight_scheme/flight_scheme_9.png"" style=""width: 300px; height: auto;"">
        </div>
      </div>
      <p style=""text-align: center; margin-top: 20px;"">Does Event 1 lead to Event 2?</p>","0","5","9","true","dog_causal"
"","","","","","html-button-response","84","664289","0.0-84.0","","7654","
      <div style=""display: flex; justify-content: center; align-items: center;"">
        <div style=""text-align: center; margin-right: 20px;"">
          <p style=""font-size: 24px; font-weight: bold;"">Event 1</p>
          <img src=""images/causal/flight_scheme/flight_scheme_8.png"" style=""width: 300px; height: auto;"">
        </div>
        <div style=""text-align: center; margin-left: 20px;"">
          <p style=""font-size: 24px; font-weight: bold;"">Event 2</p>
          <img src=""images/causal/flight_scheme/flight_scheme_5.png"" style=""width: 300px; height: auto;"">
        </div>
      </div>
      <p style=""text-align: center; margin-top: 20px;"">Does Event 1 lead to Event 2?</p>","1","8","5","true","dog_causal"
"","","","","","html-button-response","85","670128","0.0-85.0","","5838","
      <div style=""display: flex; justify-content: center; align-items: center;"">
        <div style=""text-align: center; margin-right: 20px;"">
          <p style=""font-size: 24px; font-weight: bold;"">Event 1</p>
          <img src=""images/causal/cat_care_semantic/cat_care_semantic_10.png"" style=""width: 300px; height: auto;"">
        </div>
        <div style=""text-align: center; margin-left: 20px;"">
          <p style=""font-size: 24px; font-weight: bold;"">Event 2</p>
          <img src=""images/causal/cat_care_semantic/cat_care_semantic_9.png"" style=""width: 300px; height: auto;"">
        </div>
      </div>
      <p style=""text-align: center; margin-top: 20px;"">Does Event 1 lead to Event 2?</p>","1","10","9","true","physical_activity_semantic"
"","","","","","html-button-response","86","676863","0.0-86.0","","6735","
      <div style=""display: flex; justify-content: center; align-items: center;"">
        <div style=""text-align: center; margin-right: 20px;"">
          <p style=""font-size: 24px; font-weight: bold;"">Event 1</p>
          <img src=""images/causal/flight_scheme/flight_scheme_5.png"" style=""width: 300px; height: auto;"">
        </div>
        <div style=""text-align: center; margin-left: 20px;"">
          <p style=""font-size: 24px; font-weight: bold;"">Event 2</p>
          <img src=""images/causal/flight_scheme/flight_scheme_10.png"" style=""width: 300px; height: auto;"">
        </div>
      </div>
      <p style=""text-align: center; margin-top: 20px;"">Does Event 1 lead to Event 2?</p>","0","5","10","true","dog_causal"
"","","","","","html-button-response","87","682265","0.0-87.0","","5401","
      <div style=""display: flex; justify-content: center; align-items: center;"">
        <div style=""text-align: center; margin-right: 20px;"">
          <p style=""font-size: 24px; font-weight: bold;"">Event 1</p>
          <img src=""images/causal/saving_a_cat_causal/saving_a_cat_causal_9.png"" style=""width: 300px; height: auto;"">
        </div>
        <div style=""text-align: center; margin-left: 20px;"">
          <p style=""font-size: 24px; font-weight: bold;"">Event 2</p>
          <img src=""images/causal/saving_a_cat_causal/saving_a_cat_causal_8.png"" style=""width: 300px; height: auto;"">
        </div>
      </div>
      <p style=""text-align: center; margin-top: 20px;"">Does Event 1 lead to Event 2?</p>","1","9","8","true","package_causal"
"","","","","","html-button-response","88","687714","0.0-88.0","","5448","
      <div style=""display: flex; justify-content: center; align-items: center;"">
        <div style=""text-align: center; margin-right: 20px;"">
          <p style=""font-size: 24px; font-weight: bold;"">Event 1</p>
          <img src=""images/causal/cat_care_semantic/cat_care_semantic_2.png"" style=""width: 300px; height: auto;"">
        </div>
        <div style=""text-align: center; margin-left: 20px;"">
          <p style=""font-size: 24px; font-weight: bold;"">Event 2</p>
          <img src=""images/causal/cat_care_semantic/cat_care_semantic_3.png"" style=""width: 300px; height: auto;"">
        </div>
      </div>
      <p style=""text-align: center; margin-top: 20px;"">Does Event 1 lead to Event 2?</p>","2","2","3","true","physical_activity_semantic"
"","","","","","html-button-response","89","693131","0.0-89.0","","5417","
      <div style=""display: flex; justify-content: center; align-items: center;"">
        <div style=""text-align: center; margin-right: 20px;"">
          <p style=""font-size: 24px; font-weight: bold;"">Event 1</p>
          <img src=""images/causal/saving_a_cat_causal/saving_a_cat_causal_6.png"" style=""width: 300px; height: auto;"">
        </div>
        <div style=""text-align: center; margin-left: 20px;"">
          <p style=""font-size: 24px; font-weight: bold;"">Event 2</p>
          <img src=""images/causal/saving_a_cat_causal/saving_a_cat_causal_7.png"" style=""width: 300px; height: auto;"">
        </div>
      </div>
      <p style=""text-align: center; margin-top: 20px;"">Does Event 1 lead to Event 2?</p>","0","6","7","true","package_causal"
"","","","","","html-button-response","90","698571","0.0-90.0","","5440","
      <div style=""display: flex; justify-content: center; align-items: center;"">
        <div style=""text-align: center; margin-right: 20px;"">
          <p style=""font-size: 24px; font-weight: bold;"">Event 1</p>
          <img src=""images/causal/saving_a_cat_causal/saving_a_cat_causal_4.png"" style=""width: 300px; height: auto;"">
        </div>
        <div style=""text-align: center; margin-left: 20px;"">
          <p style=""font-size: 24px; font-weight: bold;"">Event 2</p>
          <img src=""images/causal/saving_a_cat_causal/saving_a_cat_causal_6.png"" style=""width: 300px; height: auto;"">
        </div>
      </div>
      <p style=""text-align: center; margin-top: 20px;"">Does Event 1 lead to Event 2?</p>","0","4","6","true","package_causal"
"","","","","","html-button-response","91","705455","0.0-91.0","","6883","
      <div style=""display: flex; justify-content: center; align-items: center;"">
        <div style=""text-align: center; margin-right: 20px;"">
          <p style=""font-size: 24px; font-weight: bold;"">Event 1</p>
          <img src=""images/causal/cat_care_semantic/cat_care_semantic_2.png"" style=""width: 300px; height: auto;"">
        </div>
        <div style=""text-align: center; margin-left: 20px;"">
          <p style=""font-size: 24px; font-weight: bold;"">Event 2</p>
          <img src=""images/causal/cat_care_semantic/cat_care_semantic_5.png"" style=""width: 300px; height: auto;"">
        </div>
      </div>
      <p style=""text-align: center; margin-top: 20px;"">Does Event 1 lead to Event 2?</p>","0","2","5","true","physical_activity_semantic"
"","","","","","html-button-response","92","711314","0.0-92.0","","5859","
      <div style=""display: flex; justify-content: center; align-items: center;"">
        <div style=""text-align: center; margin-right: 20px;"">
          <p style=""font-size: 24px; font-weight: bold;"">Event 1</p>
          <img src=""images/causal/cat_care_semantic/cat_care_semantic_8.png"" style=""width: 300px; height: auto;"">
        </div>
        <div style=""text-align: center; margin-left: 20px;"">
          <p style=""font-size: 24px; font-weight: bold;"">Event 2</p>
          <img src=""images/causal/cat_care_semantic/cat_care_semantic_10.png"" style=""width: 300px; height: auto;"">
        </div>
      </div>
      <p style=""text-align: center; margin-top: 20px;"">Does Event 1 lead to Event 2?</p>","2","8","10","true","physical_activity_semantic"
"","","","","","html-button-response","93","717341","0.0-93.0","","6026","
      <div style=""display: flex; justify-content: center; align-items: center;"">
        <div style=""text-align: center; margin-right: 20px;"">
          <p style=""font-size: 24px; font-weight: bold;"">Event 1</p>
          <img src=""images/causal/cat_care_semantic/cat_care_semantic_10.png"" style=""width: 300px; height: auto;"">
        </div>
        <div style=""text-align: center; margin-left: 20px;"">
          <p style=""font-size: 24px; font-weight: bold;"">Event 2</p>
          <img src=""images/causal/cat_care_semantic/cat_care_semantic_4.png"" style=""width: 300px; height: auto;"">
        </div>
      </div>
      <p style=""text-align: center; margin-top: 20px;"">Does Event 1 lead to Event 2?</p>","2","10","4","true","physical_activity_semantic"
"","","","","","html-button-response","94","722983","0.0-94.0","","5641","
      <div style=""display: flex; justify-content: center; align-items: center;"">
        <div style=""text-align: center; margin-right: 20px;"">
          <p style=""font-size: 24px; font-weight: bold;"">Event 1</p>
          <img src=""images/causal/flight_scheme/flight_scheme_3.png"" style=""width: 300px; height: auto;"">
        </div>
        <div style=""text-align: center; margin-left: 20px;"">
          <p style=""font-size: 24px; font-weight: bold;"">Event 2</p>
          <img src=""images/causal/flight_scheme/flight_scheme_4.png"" style=""width: 300px; height: auto;"">
        </div>
      </div>
      <p style=""text-align: center; margin-top: 20px;"">Does Event 1 lead to Event 2?</p>","0","3","4","true","dog_causal"
"","","","","","html-button-response","95","733341","0.0-95.0","","10358","
      <div style=""display: flex; justify-content: center; align-items: center;"">
        <div style=""text-align: center; margin-right: 20px;"">
          <p style=""font-size: 24px; font-weight: bold;"">Event 1</p>
          <img src=""images/causal/cat_care_semantic/cat_care_semantic_5.png"" style=""width: 300px; height: auto;"">
        </div>
        <div style=""text-align: center; margin-left: 20px;"">
          <p style=""font-size: 24px; font-weight: bold;"">Event 2</p>
          <img src=""images/causal/cat_care_semantic/cat_care_semantic_4.png"" style=""width: 300px; height: auto;"">
        </div>
      </div>
      <p style=""text-align: center; margin-top: 20px;"">Does Event 1 lead to Event 2?</p>","1","5","4","true","physical_activity_semantic"
"","","","","","html-button-response","96","742412","0.0-96.0","","9070","
      <div style=""display: flex; justify-content: center; align-items: center;"">
        <div style=""text-align: center; margin-right: 20px;"">
          <p style=""font-size: 24px; font-weight: bold;"">Event 1</p>
          <img src=""images/causal/saving_a_cat_causal/saving_a_cat_causal_7.png"" style=""width: 300px; height: auto;"">
        </div>
        <div style=""text-align: center; margin-left: 20px;"">
          <p style=""font-size: 24px; font-weight: bold;"">Event 2</p>
          <img src=""images/causal/saving_a_cat_causal/saving_a_cat_causal_5.png"" style=""width: 300px; height: auto;"">
        </div>
      </div>
      <p style=""text-align: center; margin-top: 20px;"">Does Event 1 lead to Event 2?</p>","1","7","5","true","package_causal"
"","","","","","html-button-response","97","750329","0.0-97.0","","7917","
      <div style=""display: flex; justify-content: center; align-items: center;"">
        <div style=""text-align: center; margin-right: 20px;"">
          <p style=""font-size: 24px; font-weight: bold;"">Event 1</p>
          <img src=""images/causal/saving_a_cat_causal/saving_a_cat_causal_10.png"" style=""width: 300px; height: auto;"">
        </div>
        <div style=""text-align: center; margin-left: 20px;"">
          <p style=""font-size: 24px; font-weight: bold;"">Event 2</p>
          <img src=""images/causal/saving_a_cat_causal/saving_a_cat_causal_2.png"" style=""width: 300px; height: auto;"">
        </div>
      </div>
      <p style=""text-align: center; margin-top: 20px;"">Does Event 1 lead to Event 2?</p>","2","10","2","true","package_causal"
"","","","","","html-button-response","98","758460","0.0-98.0","","8130","
      <div style=""display: flex; justify-content: center; align-items: center;"">
        <div style=""text-align: center; margin-right: 20px;"">
          <p style=""font-size: 24px; font-weight: bold;"">Event 1</p>
          <img src=""images/causal/saving_a_cat_causal/saving_a_cat_causal_2.png"" style=""width: 300px; height: auto;"">
        </div>
        <div style=""text-align: center; margin-left: 20px;"">
          <p style=""font-size: 24px; font-weight: bold;"">Event 2</p>
          <img src=""images/causal/saving_a_cat_causal/saving_a_cat_causal_7.png"" style=""width: 300px; height: auto;"">
        </div>
      </div>
      <p style=""text-align: center; margin-top: 20px;"">Does Event 1 lead to Event 2?</p>","0","2","7","true","package_causal"
"","","","","","html-button-response","99","764833","0.0-99.0","","6372","
      <div style=""display: flex; justify-content: center; align-items: center;"">
        <div style=""text-align: center; margin-right: 20px;"">
          <p style=""font-size: 24px; font-weight: bold;"">Event 1</p>
          <img src=""images/causal/saving_a_cat_causal/saving_a_cat_causal_1.png"" style=""width: 300px; height: auto;"">
        </div>
        <div style=""text-align: center; margin-left: 20px;"">
          <p style=""font-size: 24px; font-weight: bold;"">Event 2</p>
          <img src=""images/causal/saving_a_cat_causal/saving_a_cat_causal_3.png"" style=""width: 300px; height: auto;"">
        </div>
      </div>
      <p style=""text-align: center; margin-top: 20px;"">Does Event 1 lead to Event 2?</p>","0","1","3","true","package_causal"
"","","","","","html-button-response","100","771646","0.0-100.0","","6813","
      <div style=""display: flex; justify-content: center; align-items: center;"">
        <div style=""text-align: center; margin-right: 20px;"">
          <p style=""font-size: 24px; font-weight: bold;"">Event 1</p>
          <img src=""images/causal/cat_care_semantic/cat_care_semantic_1.png"" style=""width: 300px; height: auto;"">
        </div>
        <div style=""text-align: center; margin-left: 20px;"">
          <p style=""font-size: 24px; font-weight: bold;"">Event 2</p>
          <img src=""images/causal/cat_care_semantic/cat_care_semantic_3.png"" style=""width: 300px; height: auto;"">
        </div>
      </div>
      <p style=""text-align: center; margin-top: 20px;"">Does Event 1 lead to Event 2?</p>","0","1","3","true","physical_activity_semantic"
"","","","","","html-button-response","101","780078","0.0-101.0","","8430","
      <div style=""display: flex; justify-content: center; align-items: center;"">
        <div style=""text-align: center; margin-right: 20px;"">
          <p style=""font-size: 24px; font-weight: bold;"">Event 1</p>
          <img src=""images/causal/flight_scheme/flight_scheme_4.png"" style=""width: 300px; height: auto;"">
        </div>
        <div style=""text-align: center; margin-left: 20px;"">
          <p style=""font-size: 24px; font-weight: bold;"">Event 2</p>
          <img src=""images/causal/flight_scheme/flight_scheme_8.png"" style=""width: 300px; height: auto;"">
        </div>
      </div>
      <p style=""text-align: center; margin-top: 20px;"">Does Event 1 lead to Event 2?</p>","0","4","8","true","dog_causal"
"","","","","","html-button-response","102","785657","0.0-102.0","","5579","
      <div style=""display: flex; justify-content: center; align-items: center;"">
        <div style=""text-align: center; margin-right: 20px;"">
          <p style=""font-size: 24px; font-weight: bold;"">Event 1</p>
          <img src=""images/causal/saving_a_cat_causal/saving_a_cat_causal_10.png"" style=""width: 300px; height: auto;"">
        </div>
        <div style=""text-align: center; margin-left: 20px;"">
          <p style=""font-size: 24px; font-weight: bold;"">Event 2</p>
          <img src=""images/causal/saving_a_cat_causal/saving_a_cat_causal_9.png"" style=""width: 300px; height: auto;"">
        </div>
      </div>
      <p style=""text-align: center; margin-top: 20px;"">Does Event 1 lead to Event 2?</p>","1","10","9","true","package_causal"
"","","","","","html-button-response","103","792363","0.0-103.0","","6706","
      <div style=""display: flex; justify-content: center; align-items: center;"">
        <div style=""text-align: center; margin-right: 20px;"">
          <p style=""font-size: 24px; font-weight: bold;"">Event 1</p>
          <img src=""images/causal/saving_a_cat_causal/saving_a_cat_causal_7.png"" style=""width: 300px; height: auto;"">
        </div>
        <div style=""text-align: center; margin-left: 20px;"">
          <p style=""font-size: 24px; font-weight: bold;"">Event 2</p>
          <img src=""images/causal/saving_a_cat_causal/saving_a_cat_causal_9.png"" style=""width: 300px; height: auto;"">
        </div>
      </div>
      <p style=""text-align: center; margin-top: 20px;"">Does Event 1 lead to Event 2?</p>","0","7","9","true","package_causal"
"","","","","","html-button-response","104","798089","0.0-104.0","","5726","
      <div style=""display: flex; justify-content: center; align-items: center;"">
        <div style=""text-align: center; margin-right: 20px;"">
          <p style=""font-size: 24px; font-weight: bold;"">Event 1</p>
          <img src=""images/causal/flight_scheme/flight_scheme_3.png"" style=""width: 300px; height: auto;"">
        </div>
        <div style=""text-align: center; margin-left: 20px;"">
          <p style=""font-size: 24px; font-weight: bold;"">Event 2</p>
          <img src=""images/causal/flight_scheme/flight_scheme_6.png"" style=""width: 300px; height: auto;"">
        </div>
      </div>
      <p style=""text-align: center; margin-top: 20px;"">Does Event 1 lead to Event 2?</p>","0","3","6","true","dog_causal"
"","","","","","html-button-response","105","803561","0.0-105.0","","5472","
      <div style=""display: flex; justify-content: center; align-items: center;"">
        <div style=""text-align: center; margin-right: 20px;"">
          <p style=""font-size: 24px; font-weight: bold;"">Event 1</p>
          <img src=""images/causal/cat_care_semantic/cat_care_semantic_5.png"" style=""width: 300px; height: auto;"">
        </div>
        <div style=""text-align: center; margin-left: 20px;"">
          <p style=""font-size: 24px; font-weight: bold;"">Event 2</p>
          <img src=""images/causal/cat_care_semantic/cat_care_semantic_1.png"" style=""width: 300px; height: auto;"">
        </div>
      </div>
      <p style=""text-align: center; margin-top: 20px;"">Does Event 1 lead to Event 2?</p>","1","5","1","true","physical_activity_semantic"
"","","","","","html-button-response","106","809437","0.0-106.0","","5875","
      <div style=""display: flex; justify-content: center; align-items: center;"">
        <div style=""text-align: center; margin-right: 20px;"">
          <p style=""font-size: 24px; font-weight: bold;"">Event 1</p>
          <img src=""images/causal/flight_scheme/flight_scheme_4.png"" style=""width: 300px; height: auto;"">
        </div>
        <div style=""text-align: center; margin-left: 20px;"">
          <p style=""font-size: 24px; font-weight: bold;"">Event 2</p>
          <img src=""images/causal/flight_scheme/flight_scheme_1.png"" style=""width: 300px; height: auto;"">
        </div>
      </div>
      <p style=""text-align: center; margin-top: 20px;"">Does Event 1 lead to Event 2?</p>","1","4","1","true","dog_causal"
"","","","","","html-button-response","107","814985","0.0-107.0","","5547","
      <div style=""display: flex; justify-content: center; align-items: center;"">
        <div style=""text-align: center; margin-right: 20px;"">
          <p style=""font-size: 24px; font-weight: bold;"">Event 1</p>
          <img src=""images/causal/flight_scheme/flight_scheme_1.png"" style=""width: 300px; height: auto;"">
        </div>
        <div style=""text-align: center; margin-left: 20px;"">
          <p style=""font-size: 24px; font-weight: bold;"">Event 2</p>
          <img src=""images/causal/flight_scheme/flight_scheme_3.png"" style=""width: 300px; height: auto;"">
        </div>
      </div>
      <p style=""text-align: center; margin-top: 20px;"">Does Event 1 lead to Event 2?</p>","0","1","3","true","dog_causal"
"","","","","","html-button-response","108","821768","0.0-108.0","","6783","
      <div style=""display: flex; justify-content: center; align-items: center;"">
        <div style=""text-align: center; margin-right: 20px;"">
          <p style=""font-size: 24px; font-weight: bold;"">Event 1</p>
          <img src=""images/causal/cat_care_semantic/cat_care_semantic_8.png"" style=""width: 300px; height: auto;"">
        </div>
        <div style=""text-align: center; margin-left: 20px;"">
          <p style=""font-size: 24px; font-weight: bold;"">Event 2</p>
          <img src=""images/causal/cat_care_semantic/cat_care_semantic_3.png"" style=""width: 300px; height: auto;"">
        </div>
      </div>
      <p style=""text-align: center; margin-top: 20px;"">Does Event 1 lead to Event 2?</p>","0","8","3","true","physical_activity_semantic"
"","","","","","html-button-response","109","827263","0.0-109.0","","5494","
      <div style=""display: flex; justify-content: center; align-items: center;"">
        <div style=""text-align: center; margin-right: 20px;"">
          <p style=""font-size: 24px; font-weight: bold;"">Event 1</p>
          <img src=""images/causal/flight_scheme/flight_scheme_10.png"" style=""width: 300px; height: auto;"">
        </div>
        <div style=""text-align: center; margin-left: 20px;"">
          <p style=""font-size: 24px; font-weight: bold;"">Event 2</p>
          <img src=""images/causal/flight_scheme/flight_scheme_2.png"" style=""width: 300px; height: auto;"">
        </div>
      </div>
      <p style=""text-align: center; margin-top: 20px;"">Does Event 1 lead to Event 2?</p>","1","10","2","true","dog_causal"
"","","","","","html-button-response","110","832802","0.0-110.0","","5539","
      <div style=""display: flex; justify-content: center; align-items: center;"">
        <div style=""text-align: center; margin-right: 20px;"">
          <p style=""font-size: 24px; font-weight: bold;"">Event 1</p>
          <img src=""images/causal/saving_a_cat_causal/saving_a_cat_causal_8.png"" style=""width: 300px; height: auto;"">
        </div>
        <div style=""text-align: center; margin-left: 20px;"">
          <p style=""font-size: 24px; font-weight: bold;"">Event 2</p>
          <img src=""images/causal/saving_a_cat_causal/saving_a_cat_causal_2.png"" style=""width: 300px; height: auto;"">
        </div>
      </div>
      <p style=""text-align: center; margin-top: 20px;"">Does Event 1 lead to Event 2?</p>","1","8","2","true","package_causal"
"","","","","","html-button-response","111","838297","0.0-111.0","","5494","
      <div style=""display: flex; justify-content: center; align-items: center;"">
        <div style=""text-align: center; margin-right: 20px;"">
          <p style=""font-size: 24px; font-weight: bold;"">Event 1</p>
          <img src=""images/causal/flight_scheme/flight_scheme_5.png"" style=""width: 300px; height: auto;"">
        </div>
        <div style=""text-align: center; margin-left: 20px;"">
          <p style=""font-size: 24px; font-weight: bold;"">Event 2</p>
          <img src=""images/causal/flight_scheme/flight_scheme_7.png"" style=""width: 300px; height: auto;"">
        </div>
      </div>
      <p style=""text-align: center; margin-top: 20px;"">Does Event 1 lead to Event 2?</p>","0","5","7","true","dog_causal"
"","","","","","html-button-response","112","844923","0.0-112.0","","6626","
      <div style=""display: flex; justify-content: center; align-items: center;"">
        <div style=""text-align: center; margin-right: 20px;"">
          <p style=""font-size: 24px; font-weight: bold;"">Event 1</p>
          <img src=""images/causal/flight_scheme/flight_scheme_8.png"" style=""width: 300px; height: auto;"">
        </div>
        <div style=""text-align: center; margin-left: 20px;"">
          <p style=""font-size: 24px; font-weight: bold;"">Event 2</p>
          <img src=""images/causal/flight_scheme/flight_scheme_10.png"" style=""width: 300px; height: auto;"">
        </div>
      </div>
      <p style=""text-align: center; margin-top: 20px;"">Does Event 1 lead to Event 2?</p>","1","8","10","true","dog_causal"
"","","","","","html-button-response","113","850502","0.0-113.0","","5579","
      <div style=""display: flex; justify-content: center; align-items: center;"">
        <div style=""text-align: center; margin-right: 20px;"">
          <p style=""font-size: 24px; font-weight: bold;"">Event 1</p>
          <img src=""images/causal/flight_scheme/flight_scheme_2.png"" style=""width: 300px; height: auto;"">
        </div>
        <div style=""text-align: center; margin-left: 20px;"">
          <p style=""font-size: 24px; font-weight: bold;"">Event 2</p>
          <img src=""images/causal/flight_scheme/flight_scheme_3.png"" style=""width: 300px; height: auto;"">
        </div>
      </div>
      <p style=""text-align: center; margin-top: 20px;"">Does Event 1 lead to Event 2?</p>","0","2","3","true","dog_causal"
"","","","","","html-button-response","114","859040","0.0-114.0","","8537","
      <div style=""display: flex; justify-content: center; align-items: center;"">
        <div style=""text-align: center; margin-right: 20px;"">
          <p style=""font-size: 24px; font-weight: bold;"">Event 1</p>
          <img src=""images/causal/saving_a_cat_causal/saving_a_cat_causal_4.png"" style=""width: 300px; height: auto;"">
        </div>
        <div style=""text-align: center; margin-left: 20px;"">
          <p style=""font-size: 24px; font-weight: bold;"">Event 2</p>
          <img src=""images/causal/saving_a_cat_causal/saving_a_cat_causal_10.png"" style=""width: 300px; height: auto;"">
        </div>
      </div>
      <p style=""text-align: center; margin-top: 20px;"">Does Event 1 lead to Event 2?</p>","0","4","10","true","package_causal"
"","","","","","html-button-response","115","864673","0.0-115.0","","5632","
      <div style=""display: flex; justify-content: center; align-items: center;"">
        <div style=""text-align: center; margin-right: 20px;"">
          <p style=""font-size: 24px; font-weight: bold;"">Event 1</p>
          <img src=""images/causal/flight_scheme/flight_scheme_9.png"" style=""width: 300px; height: auto;"">
        </div>
        <div style=""text-align: center; margin-left: 20px;"">
          <p style=""font-size: 24px; font-weight: bold;"">Event 2</p>
          <img src=""images/causal/flight_scheme/flight_scheme_3.png"" style=""width: 300px; height: auto;"">
        </div>
      </div>
      <p style=""text-align: center; margin-top: 20px;"">Does Event 1 lead to Event 2?</p>","1","9","3","true","dog_causal"
"","","","","","html-button-response","116","873816","0.0-116.0","","9143","
      <div style=""display: flex; justify-content: center; align-items: center;"">
        <div style=""text-align: center; margin-right: 20px;"">
          <p style=""font-size: 24px; font-weight: bold;"">Event 1</p>
          <img src=""images/causal/flight_scheme/flight_scheme_6.png"" style=""width: 300px; height: auto;"">
        </div>
        <div style=""text-align: center; margin-left: 20px;"">
          <p style=""font-size: 24px; font-weight: bold;"">Event 2</p>
          <img src=""images/causal/flight_scheme/flight_scheme_10.png"" style=""width: 300px; height: auto;"">
        </div>
      </div>
      <p style=""text-align: center; margin-top: 20px;"">Does Event 1 lead to Event 2?</p>","0","6","10","true","dog_causal"
"","","","","","html-button-response","117","881142","0.0-117.0","","7326","
      <div style=""display: flex; justify-content: center; align-items: center;"">
        <div style=""text-align: center; margin-right: 20px;"">
          <p style=""font-size: 24px; font-weight: bold;"">Event 1</p>
          <img src=""images/causal/flight_scheme/flight_scheme_1.png"" style=""width: 300px; height: auto;"">
        </div>
        <div style=""text-align: center; margin-left: 20px;"">
          <p style=""font-size: 24px; font-weight: bold;"">Event 2</p>
          <img src=""images/causal/flight_scheme/flight_scheme_7.png"" style=""width: 300px; height: auto;"">
        </div>
      </div>
      <p style=""text-align: center; margin-top: 20px;"">Does Event 1 lead to Event 2?</p>","0","1","7","true","dog_causal"
"","","","","","html-button-response","118","890766","0.0-118.0","","9623","
      <div style=""display: flex; justify-content: center; align-items: center;"">
        <div style=""text-align: center; margin-right: 20px;"">
          <p style=""font-size: 24px; font-weight: bold;"">Event 1</p>
          <img src=""images/causal/cat_care_semantic/cat_care_semantic_6.png"" style=""width: 300px; height: auto;"">
        </div>
        <div style=""text-align: center; margin-left: 20px;"">
          <p style=""font-size: 24px; font-weight: bold;"">Event 2</p>
          <img src=""images/causal/cat_care_semantic/cat_care_semantic_10.png"" style=""width: 300px; height: auto;"">
        </div>
      </div>
      <p style=""text-align: center; margin-top: 20px;"">Does Event 1 lead to Event 2?</p>","2","6","10","true","physical_activity_semantic"
"","","","","","html-button-response","119","902609","0.0-119.0","","11842","
      <div style=""display: flex; justify-content: center; align-items: center;"">
        <div style=""text-align: center; margin-right: 20px;"">
          <p style=""font-size: 24px; font-weight: bold;"">Event 1</p>
          <img src=""images/causal/flight_scheme/flight_scheme_10.png"" style=""width: 300px; height: auto;"">
        </div>
        <div style=""text-align: center; margin-left: 20px;"">
          <p style=""font-size: 24px; font-weight: bold;"">Event 2</p>
          <img src=""images/causal/flight_scheme/flight_scheme_9.png"" style=""width: 300px; height: auto;"">
        </div>
      </div>
      <p style=""text-align: center; margin-top: 20px;"">Does Event 1 lead to Event 2?</p>","1","10","9","true","dog_causal"
"","","","","","html-button-response","120","908335","0.0-120.0","","5725","
      <div style=""display: flex; justify-content: center; align-items: center;"">
        <div style=""text-align: center; margin-right: 20px;"">
          <p style=""font-size: 24px; font-weight: bold;"">Event 1</p>
          <img src=""images/causal/saving_a_cat_causal/saving_a_cat_causal_4.png"" style=""width: 300px; height: auto;"">
        </div>
        <div style=""text-align: center; margin-left: 20px;"">
          <p style=""font-size: 24px; font-weight: bold;"">Event 2</p>
          <img src=""images/causal/saving_a_cat_causal/saving_a_cat_causal_1.png"" style=""width: 300px; height: auto;"">
        </div>
      </div>
      <p style=""text-align: center; margin-top: 20px;"">Does Event 1 lead to Event 2?</p>","1","4","1","true","package_causal"
"","","","","","html-button-response","121","914303","0.0-121.0","","5968","
      <div style=""display: flex; justify-content: center; align-items: center;"">
        <div style=""text-align: center; margin-right: 20px;"">
          <p style=""font-size: 24px; font-weight: bold;"">Event 1</p>
          <img src=""images/causal/cat_care_semantic/cat_care_semantic_8.png"" style=""width: 300px; height: auto;"">
        </div>
        <div style=""text-align: center; margin-left: 20px;"">
          <p style=""font-size: 24px; font-weight: bold;"">Event 2</p>
          <img src=""images/causal/cat_care_semantic/cat_care_semantic_4.png"" style=""width: 300px; height: auto;"">
        </div>
      </div>
