"success","timeout","failed_images","failed_audio","failed_video","trial_type","trial_index","time_elapsed","internal_node_id","subject_id","study_id","session_id","view_history","rt","stimulus","response","choice"
"true","false","[]","[]","[]","preload","0","4083","0.0-0.0","49A5FF05887947508ADBDC5F84F3C0B5","cf56e7d1-d494-47e3-b3fe-d75d877ce5b8","60874837-17fe-43d8-ba5e-75a805c652dd","","","","",""
"","","","","","instructions","1","7630","0.0-1.0","49A5FF05887947508ADBDC5F84F3C0B5","cf56e7d1-d494-47e3-b3fe-d75d877ce5b8","60874837-17fe-43d8-ba5e-75a805c652dd","[{""page_index"":0,""viewing_time"":3546}]","3546","","",""
"","","","","","instructions","2","35783","0.0-2.0","49A5FF05887947508ADBDC5F84F3C0B5","cf56e7d1-d494-47e3-b3fe-d75d877ce5b8","60874837-17fe-43d8-ba5e-75a805c652dd","[{""page_index"":0,""viewing_time"":28151}]","28152","","",""
"true","","","","","fullscreen","3","43193","0.0-3.0","49A5FF05887947508ADBDC5F84F3C0B5","cf56e7d1-d494-47e3-b3fe-d75d877ce5b8","60874837-17fe-43d8-ba5e-75a805c652dd","","6406","","",""
"","","","","","instructions","4","53000","0.0-4.0","49A5FF05887947508ADBDC5F84F3C0B5","cf56e7d1-d494-47e3-b3fe-d75d877ce5b8","60874837-17fe-43d8-ba5e-75a805c652dd","[{""page_index"":0,""viewing_time"":9804}]","9805","","",""
"","","","","","html-keyboard-response","5","56005","0.0-5.0","49A5FF05887947508ADBDC5F84F3C0B5","cf56e7d1-d494-47e3-b3fe-d75d877ce5b8","60874837-17fe-43d8-ba5e-75a805c652dd","","null","<div style=""display: flex; justify-content: center; align-items: center;"">
                <img src=""images/causal/causal_series_11/causal_series_11_a.jpg"" style=""width: 300px; height: 300px;"" />
              </div>","null",""
"","","","","","html-keyboard-response","6","59007","0.0-6.0","49A5FF05887947508ADBDC5F84F3C0B5","cf56e7d1-d494-47e3-b3fe-d75d877ce5b8","60874837-17fe-43d8-ba5e-75a805c652dd","","null","<div style=""display: flex; justify-content: center; align-items: center;"">
                <img src=""images/causal/causal_series_11/causal_series_11_b.jpg"" style=""width: 300px; height: 300px;"" />
              </div>","null",""
"","","","","","html-keyboard-response","7","62012","0.0-7.0","49A5FF05887947508ADBDC5F84F3C0B5","cf56e7d1-d494-47e3-b3fe-d75d877ce5b8","60874837-17fe-43d8-ba5e-75a805c652dd","","null","<div style=""display: flex; justify-content: center; align-items: center;"">
                <img src=""images/causal/causal_series_11/causal_series_11_c.jpg"" style=""width: 300px; height: 300px;"" />
              </div>","null",""
"","","","","","html-button-response","8","64623","0.0-8.0","49A5FF05887947508ADBDC5F84F3C0B5","cf56e7d1-d494-47e3-b3fe-d75d877ce5b8","60874837-17fe-43d8-ba5e-75a805c652dd","","2607","
    <div style=""display: flex; justify-content: center; align-items: center;"">
      <img src=""images/red_deck_2.png"" style=""width: 300px; height: 300px; margin-right: 10px;"" />
      <img src=""images/blue_deck_1.png"" style=""width: 300px; height: 300px;"" />
    </div>","1","1"
"","","","","","html-keyboard-response","9","67625","0.0-9.0-1.0-0.0","49A5FF05887947508ADBDC5F84F3C0B5","cf56e7d1-d494-47e3-b3fe-d75d877ce5b8","60874837-17fe-43d8-ba5e-75a805c652dd","","null","<div style=""display: flex; justify-content: center; align-items: center;"">
                <img src=""images/semantic/semantic_series_10/semantic_series_10_d.jpg"" style=""width: 300px; height: 300px;"" />
              </div>","null",""
"","","","","","html-keyboard-response","10","70628","0.0-10.0","49A5FF05887947508ADBDC5F84F3C0B5","cf56e7d1-d494-47e3-b3fe-d75d877ce5b8","60874837-17fe-43d8-ba5e-75a805c652dd","","null","<div style=""display: flex; justify-content: center; align-items: center;"">
                <img src=""images/other/blank.jpg"" style=""width: 300px; height: 300px;"" />
              </div>","null",""
"","","","","","html-keyboard-response","11","73631","0.0-11.0","49A5FF05887947508ADBDC5F84F3C0B5","cf56e7d1-d494-47e3-b3fe-d75d877ce5b8","60874837-17fe-43d8-ba5e-75a805c652dd","","null","<div style=""display: flex; justify-content: center; align-items: center;"">
                <img src=""images/causal/causal_series_18/causal_series_18_a.jpg"" style=""width: 300px; height: 300px;"" />
              </div>","null",""
"","","","","","html-keyboard-response","12","76633","0.0-12.0","49A5FF05887947508ADBDC5F84F3C0B5","cf56e7d1-d494-47e3-b3fe-d75d877ce5b8","60874837-17fe-43d8-ba5e-75a805c652dd","","null","<div style=""display: flex; justify-content: center; align-items: center;"">
                <img src=""images/causal/causal_series_18/causal_series_18_b.jpg"" style=""width: 300px; height: 300px;"" />
              </div>","null",""
"","","","","","html-keyboard-response","13","79635","0.0-13.0","49A5FF05887947508ADBDC5F84F3C0B5","cf56e7d1-d494-47e3-b3fe-d75d877ce5b8","60874837-17fe-43d8-ba5e-75a805c652dd","","null","<div style=""display: flex; justify-content: center; align-items: center;"">
                <img src=""images/causal/causal_series_18/causal_series_18_c.jpg"" style=""width: 300px; height: 300px;"" />
              </div>","null",""
"","","","","","html-button-response","14","80957","0.0-14.0","49A5FF05887947508ADBDC5F84F3C0B5","cf56e7d1-d494-47e3-b3fe-d75d877ce5b8","60874837-17fe-43d8-ba5e-75a805c652dd","","1321","
    <div style=""display: flex; justify-content: center; align-items: center;"">
      <img src=""images/red_deck_2.png"" style=""width: 300px; height: 300px; margin-right: 10px;"" />
      <img src=""images/blue_deck_1.png"" style=""width: 300px; height: 300px;"" />
    </div>","0","0"
"","","","","","html-keyboard-response","15","83960","0.0-15.0-0.0-0.0","49A5FF05887947508ADBDC5F84F3C0B5","cf56e7d1-d494-47e3-b3fe-d75d877ce5b8","60874837-17fe-43d8-ba5e-75a805c652dd","","null","<div style=""display: flex; justify-content: center; align-items: center;"">
                <img src=""images/causal/causal_series_18/causal_series_18_d.jpg"" style=""width: 300px; height: 300px;"" />
              </div>","null",""
"","","","","","html-keyboard-response","16","86965","0.0-16.0","49A5FF05887947508ADBDC5F84F3C0B5","cf56e7d1-d494-47e3-b3fe-d75d877ce5b8","60874837-17fe-43d8-ba5e-75a805c652dd","","null","<div style=""display: flex; justify-content: center; align-items: center;"">
                <img src=""images/other/blank.jpg"" style=""width: 300px; height: 300px;"" />
              </div>","null",""
"","","","","","html-keyboard-response","17","89968","0.0-17.0","49A5FF05887947508ADBDC5F84F3C0B5","cf56e7d1-d494-47e3-b3fe-d75d877ce5b8","60874837-17fe-43d8-ba5e-75a805c652dd","","null","<div style=""display: flex; justify-content: center; align-items: center;"">
                <img src=""images/causal/causal_series_3/causal_series_3_a.jpg"" style=""width: 300px; height: 300px;"" />
              </div>","null",""
"","","","","","html-keyboard-response","18","92973","0.0-18.0","49A5FF05887947508ADBDC5F84F3C0B5","cf56e7d1-d494-47e3-b3fe-d75d877ce5b8","60874837-17fe-43d8-ba5e-75a805c652dd","","null","<div style=""display: flex; justify-content: center; align-items: center;"">
                <img src=""images/causal/causal_series_3/causal_series_3_b.jpg"" style=""width: 300px; height: 300px;"" />
              </div>","null",""
"","","","","","html-keyboard-response","19","95976","0.0-19.0","49A5FF05887947508ADBDC5F84F3C0B5","cf56e7d1-d494-47e3-b3fe-d75d877ce5b8","60874837-17fe-43d8-ba5e-75a805c652dd","","null","<div style=""display: flex; justify-content: center; align-items: center;"">
                <img src=""images/causal/causal_series_3/causal_series_3_c.jpg"" style=""width: 300px; height: 300px;"" />
              </div>","null",""
"","","","","","html-button-response","20","97174","0.0-20.0","49A5FF05887947508ADBDC5F84F3C0B5","cf56e7d1-d494-47e3-b3fe-d75d877ce5b8","60874837-17fe-43d8-ba5e-75a805c652dd","","1195","
    <div style=""display: flex; justify-content: center; align-items: center;"">
      <img src=""images/red_deck_2.png"" style=""width: 300px; height: 300px; margin-right: 10px;"" />
      <img src=""images/blue_deck_1.png"" style=""width: 300px; height: 300px;"" />
    </div>","1","1"
"","","","","","html-keyboard-response","21","100177","0.0-21.0-1.0-0.0","49A5FF05887947508ADBDC5F84F3C0B5","cf56e7d1-d494-47e3-b3fe-d75d877ce5b8","60874837-17fe-43d8-ba5e-75a805c652dd","","null","<div style=""display: flex; justify-content: center; align-items: center;"">
                <img src=""images/semantic/semantic_series_2/semantic_series_2_d.jpg"" style=""width: 300px; height: 300px;"" />
              </div>","null",""
"","","","","","html-keyboard-response","22","103181","0.0-22.0","49A5FF05887947508ADBDC5F84F3C0B5","cf56e7d1-d494-47e3-b3fe-d75d877ce5b8","60874837-17fe-43d8-ba5e-75a805c652dd","","null","<div style=""display: flex; justify-content: center; align-items: center;"">
                <img src=""images/other/blank.jpg"" style=""width: 300px; height: 300px;"" />
              </div>","null",""
"","","","","","html-keyboard-response","23","106184","0.0-23.0","49A5FF05887947508ADBDC5F84F3C0B5","cf56e7d1-d494-47e3-b3fe-d75d877ce5b8","60874837-17fe-43d8-ba5e-75a805c652dd","","null","<div style=""display: flex; justify-content: center; align-items: center;"">
                <img src=""images/causal/causal_series_12/causal_series_12_a.jpg"" style=""width: 300px; height: 300px;"" />
              </div>","null",""
"","","","","","html-keyboard-response","24","109187","0.0-24.0","49A5FF05887947508ADBDC5F84F3C0B5","cf56e7d1-d494-47e3-b3fe-d75d877ce5b8","60874837-17fe-43d8-ba5e-75a805c652dd","","null","<div style=""display: flex; justify-content: center; align-items: center;"">
                <img src=""images/causal/causal_series_12/causal_series_12_b.jpg"" style=""width: 300px; height: 300px;"" />
              </div>","null",""
"","","","","","html-keyboard-response","25","112191","0.0-25.0","49A5FF05887947508ADBDC5F84F3C0B5","cf56e7d1-d494-47e3-b3fe-d75d877ce5b8","60874837-17fe-43d8-ba5e-75a805c652dd","","null","<div style=""display: flex; justify-content: center; align-items: center;"">
                <img src=""images/causal/causal_series_12/causal_series_12_c.jpg"" style=""width: 300px; height: 300px;"" />
              </div>","null",""
"","","","","","html-button-response","26","113275","0.0-26.0","49A5FF05887947508ADBDC5F84F3C0B5","cf56e7d1-d494-47e3-b3fe-d75d877ce5b8","60874837-17fe-43d8-ba5e-75a805c652dd","","1081","
    <div style=""display: flex; justify-content: center; align-items: center;"">
      <img src=""images/red_deck_2.png"" style=""width: 300px; height: 300px; margin-right: 10px;"" />
      <img src=""images/blue_deck_1.png"" style=""width: 300px; height: 300px;"" />
    </div>","0","0"
"","","","","","html-keyboard-response","27","116278","0.0-27.0-0.0-0.0","49A5FF05887947508ADBDC5F84F3C0B5","cf56e7d1-d494-47e3-b3fe-d75d877ce5b8","60874837-17fe-43d8-ba5e-75a805c652dd","","null","<div style=""display: flex; justify-content: center; align-items: center;"">
                <img src=""images/causal/causal_series_12/causal_series_12_d.jpg"" style=""width: 300px; height: 300px;"" />
              </div>","null",""
"","","","","","html-keyboard-response","28","119281","0.0-28.0","49A5FF05887947508ADBDC5F84F3C0B5","cf56e7d1-d494-47e3-b3fe-d75d877ce5b8","60874837-17fe-43d8-ba5e-75a805c652dd","","null","<div style=""display: flex; justify-content: center; align-items: center;"">
                <img src=""images/other/blank.jpg"" style=""width: 300px; height: 300px;"" />
              </div>","null",""
"","","","","","html-keyboard-response","29","122284","0.0-29.0","49A5FF05887947508ADBDC5F84F3C0B5","cf56e7d1-d494-47e3-b3fe-d75d877ce5b8","60874837-17fe-43d8-ba5e-75a805c652dd","","null","<div style=""display: flex; justify-content: center; align-items: center;"">
                <img src=""images/causal/causal_series_2/causal_series_2_a.jpg"" style=""width: 300px; height: 300px;"" />
              </div>","null",""
"","","","","","html-keyboard-response","30","125289","0.0-30.0","49A5FF05887947508ADBDC5F84F3C0B5","cf56e7d1-d494-47e3-b3fe-d75d877ce5b8","60874837-17fe-43d8-ba5e-75a805c652dd","","null","<div style=""display: flex; justify-content: center; align-items: center;"">
                <img src=""images/causal/causal_series_2/causal_series_2_b.jpg"" style=""width: 300px; height: 300px;"" />
              </div>","null",""
"","","","","","html-keyboard-response","31","128292","0.0-31.0","49A5FF05887947508ADBDC5F84F3C0B5","cf56e7d1-d494-47e3-b3fe-d75d877ce5b8","60874837-17fe-43d8-ba5e-75a805c652dd","","null","<div style=""display: flex; justify-content: center; align-items: center;"">
                <img src=""images/causal/causal_series_2/causal_series_2_c.jpg"" style=""width: 300px; height: 300px;"" />
              </div>","null",""
"","","","","","html-button-response","32","129024","0.0-32.0","49A5FF05887947508ADBDC5F84F3C0B5","cf56e7d1-d494-47e3-b3fe-d75d877ce5b8","60874837-17fe-43d8-ba5e-75a805c652dd","","728","
    <div style=""display: flex; justify-content: center; align-items: center;"">
      <img src=""images/red_deck_2.png"" style=""width: 300px; height: 300px; margin-right: 10px;"" />
      <img src=""images/blue_deck_1.png"" style=""width: 300px; height: 300px;"" />
    </div>","0","0"
"","","","","","html-keyboard-response","33","132027","0.0-33.0-0.0-0.0","49A5FF05887947508ADBDC5F84F3C0B5","cf56e7d1-d494-47e3-b3fe-d75d877ce5b8","60874837-17fe-43d8-ba5e-75a805c652dd","","null","<div style=""display: flex; justify-content: center; align-items: center;"">
                <img src=""images/causal/causal_series_2/causal_series_2_d.jpg"" style=""width: 300px; height: 300px;"" />
              </div>","null",""
"","","","","","html-keyboard-response","34","135030","0.0-34.0","49A5FF05887947508ADBDC5F84F3C0B5","cf56e7d1-d494-47e3-b3fe-d75d877ce5b8","60874837-17fe-43d8-ba5e-75a805c652dd","","null","<div style=""display: flex; justify-content: center; align-items: center;"">
                <img src=""images/other/blank.jpg"" style=""width: 300px; height: 300px;"" />
              </div>","null",""
"","","","","","html-keyboard-response","35","138034","0.0-35.0","49A5FF05887947508ADBDC5F84F3C0B5","cf56e7d1-d494-47e3-b3fe-d75d877ce5b8","60874837-17fe-43d8-ba5e-75a805c652dd","","null","<div style=""display: flex; justify-content: center; align-items: center;"">
                <img src=""images/causal/causal_series_5/causal_series_5_a.jpg"" style=""width: 300px; height: 300px;"" />
              </div>","null",""
"","","","","","html-keyboard-response","36","141038","0.0-36.0","49A5FF05887947508ADBDC5F84F3C0B5","cf56e7d1-d494-47e3-b3fe-d75d877ce5b8","60874837-17fe-43d8-ba5e-75a805c652dd","","null","<div style=""display: flex; justify-content: center; align-items: center;"">
                <img src=""images/causal/causal_series_5/causal_series_5_b.jpg"" style=""width: 300px; height: 300px;"" />
              </div>","null",""
"","","","","","html-keyboard-response","37","144041","0.0-37.0","49A5FF05887947508ADBDC5F84F3C0B5","cf56e7d1-d494-47e3-b3fe-d75d877ce5b8","60874837-17fe-43d8-ba5e-75a805c652dd","","null","<div style=""display: flex; justify-content: center; align-items: center;"">
                <img src=""images/causal/causal_series_5/causal_series_5_c.jpg"" style=""width: 300px; height: 300px;"" />
              </div>","null",""
"","","","","","html-button-response","38","144885","0.0-38.0","49A5FF05887947508ADBDC5F84F3C0B5","cf56e7d1-d494-47e3-b3fe-d75d877ce5b8","60874837-17fe-43d8-ba5e-75a805c652dd","","842","
    <div style=""display: flex; justify-content: center; align-items: center;"">
      <img src=""images/red_deck_2.png"" style=""width: 300px; height: 300px; margin-right: 10px;"" />
      <img src=""images/blue_deck_1.png"" style=""width: 300px; height: 300px;"" />
    </div>","1","1"
"","","","","","html-keyboard-response","39","147888","0.0-39.0-1.0-0.0","49A5FF05887947508ADBDC5F84F3C0B5","cf56e7d1-d494-47e3-b3fe-d75d877ce5b8","60874837-17fe-43d8-ba5e-75a805c652dd","","null","<div style=""display: flex; justify-content: center; align-items: center;"">
                <img src=""images/semantic/semantic_series_4/semantic_series_4_d.jpg"" style=""width: 300px; height: 300px;"" />
              </div>","null",""
"","","","","","html-keyboard-response","40","150891","0.0-40.0","49A5FF05887947508ADBDC5F84F3C0B5","cf56e7d1-d494-47e3-b3fe-d75d877ce5b8","60874837-17fe-43d8-ba5e-75a805c652dd","","null","<div style=""display: flex; justify-content: center; align-items: center;"">
                <img src=""images/other/blank.jpg"" style=""width: 300px; height: 300px;"" />
              </div>","null",""
"","","","","","html-keyboard-response","41","153894","0.0-41.0","49A5FF05887947508ADBDC5F84F3C0B5","cf56e7d1-d494-47e3-b3fe-d75d877ce5b8","60874837-17fe-43d8-ba5e-75a805c652dd","","null","<div style=""display: flex; justify-content: center; align-items: center;"">
                <img src=""images/causal/causal_series_4/causal_series_4_a.jpg"" style=""width: 300px; height: 300px;"" />
              </div>","null",""
"","","","","","html-keyboard-response","42","156898","0.0-42.0","49A5FF05887947508ADBDC5F84F3C0B5","cf56e7d1-d494-47e3-b3fe-d75d877ce5b8","60874837-17fe-43d8-ba5e-75a805c652dd","","null","<div style=""display: flex; justify-content: center; align-items: center;"">
                <img src=""images/causal/causal_series_4/causal_series_4_b.jpg"" style=""width: 300px; height: 300px;"" />
              </div>","null",""
"","","","","","html-keyboard-response","43","159902","0.0-43.0","49A5FF05887947508ADBDC5F84F3C0B5","cf56e7d1-d494-47e3-b3fe-d75d877ce5b8","60874837-17fe-43d8-ba5e-75a805c652dd","","null","<div style=""display: flex; justify-content: center; align-items: center;"">
                <img src=""images/causal/causal_series_4/causal_series_4_c.jpg"" style=""width: 300px; height: 300px;"" />
              </div>","null",""
"","","","","","html-button-response","44","160659","0.0-44.0","49A5FF05887947508ADBDC5F84F3C0B5","cf56e7d1-d494-47e3-b3fe-d75d877ce5b8","60874837-17fe-43d8-ba5e-75a805c652dd","","754","
    <div style=""display: flex; justify-content: center; align-items: center;"">
      <img src=""images/red_deck_2.png"" style=""width: 300px; height: 300px; margin-right: 10px;"" />
      <img src=""images/blue_deck_1.png"" style=""width: 300px; height: 300px;"" />
    </div>","1","1"
"","","","","","html-keyboard-response","45","163662","0.0-45.0-1.0-0.0","49A5FF05887947508ADBDC5F84F3C0B5","cf56e7d1-d494-47e3-b3fe-d75d877ce5b8","60874837-17fe-43d8-ba5e-75a805c652dd","","null","<div style=""display: flex; justify-content: center; align-items: center;"">
                <img src=""images/semantic/semantic_series_3/semantic_series_3_d.jpg"" style=""width: 300px; height: 300px;"" />
              </div>","null",""
"","","","","","html-keyboard-response","46","166665","0.0-46.0","49A5FF05887947508ADBDC5F84F3C0B5","cf56e7d1-d494-47e3-b3fe-d75d877ce5b8","60874837-17fe-43d8-ba5e-75a805c652dd","","null","<div style=""display: flex; justify-content: center; align-items: center;"">
                <img src=""images/other/blank.jpg"" style=""width: 300px; height: 300px;"" />
              </div>","null",""
"","","","","","html-keyboard-response","47","169669","0.0-47.0","49A5FF05887947508ADBDC5F84F3C0B5","cf56e7d1-d494-47e3-b3fe-d75d877ce5b8","60874837-17fe-43d8-ba5e-75a805c652dd","","null","<div style=""display: flex; justify-content: center; align-items: center;"">
                <img src=""images/causal/causal_series_9/causal_series_9_a.jpg"" style=""width: 300px; height: 300px;"" />
              </div>","null",""
"","","","","","html-keyboard-response","48","172672","0.0-48.0","49A5FF05887947508ADBDC5F84F3C0B5","cf56e7d1-d494-47e3-b3fe-d75d877ce5b8","60874837-17fe-43d8-ba5e-75a805c652dd","","null","<div style=""display: flex; justify-content: center; align-items: center;"">
                <img src=""images/causal/causal_series_9/causal_series_9_b.jpg"" style=""width: 300px; height: 300px;"" />
              </div>","null",""
"","","","","","html-keyboard-response","49","175676","0.0-49.0","49A5FF05887947508ADBDC5F84F3C0B5","cf56e7d1-d494-47e3-b3fe-d75d877ce5b8","60874837-17fe-43d8-ba5e-75a805c652dd","","null","<div style=""display: flex; justify-content: center; align-items: center;"">
                <img src=""images/causal/causal_series_9/causal_series_9_c.jpg"" style=""width: 300px; height: 300px;"" />
              </div>","null",""
"","","","","","html-button-response","50","176669","0.0-50.0","49A5FF05887947508ADBDC5F84F3C0B5","cf56e7d1-d494-47e3-b3fe-d75d877ce5b8","60874837-17fe-43d8-ba5e-75a805c652dd","","990","
    <div style=""display: flex; justify-content: center; align-items: center;"">
      <img src=""images/red_deck_2.png"" style=""width: 300px; height: 300px; margin-right: 10px;"" />
      <img src=""images/blue_deck_1.png"" style=""width: 300px; height: 300px;"" />
    </div>","1","1"
"","","","","","html-keyboard-response","51","179673","0.0-51.0-1.0-0.0","49A5FF05887947508ADBDC5F84F3C0B5","cf56e7d1-d494-47e3-b3fe-d75d877ce5b8","60874837-17fe-43d8-ba5e-75a805c652dd","","null","<div style=""display: flex; justify-content: center; align-items: center;"">
                <img src=""images/semantic/semantic_series_8/semantic_series_8_d.jpg"" style=""width: 300px; height: 300px;"" />
              </div>","null",""
"","","","","","html-keyboard-response","52","182677","0.0-52.0","49A5FF05887947508ADBDC5F84F3C0B5","cf56e7d1-d494-47e3-b3fe-d75d877ce5b8","60874837-17fe-43d8-ba5e-75a805c652dd","","null","<div style=""display: flex; justify-content: center; align-items: center;"">
                <img src=""images/other/blank.jpg"" style=""width: 300px; height: 300px;"" />
              </div>","null",""
"","","","","","html-keyboard-response","53","185680","0.0-53.0","49A5FF05887947508ADBDC5F84F3C0B5","cf56e7d1-d494-47e3-b3fe-d75d877ce5b8","60874837-17fe-43d8-ba5e-75a805c652dd","","null","<div style=""display: flex; justify-content: center; align-items: center;"">
                <img src=""images/causal/causal_series_17/causal_series_17_a.jpg"" style=""width: 300px; height: 300px;"" />
              </div>","null",""
"","","","","","html-keyboard-response","54","188683","0.0-54.0","49A5FF05887947508ADBDC5F84F3C0B5","cf56e7d1-d494-47e3-b3fe-d75d877ce5b8","60874837-17fe-43d8-ba5e-75a805c652dd","","null","<div style=""display: flex; justify-content: center; align-items: center;"">
                <img src=""images/causal/causal_series_17/causal_series_17_b.jpg"" style=""width: 300px; height: 300px;"" />
              </div>","null",""
"","","","","","html-keyboard-response","55","191686","0.0-55.0","49A5FF05887947508ADBDC5F84F3C0B5","cf56e7d1-d494-47e3-b3fe-d75d877ce5b8","60874837-17fe-43d8-ba5e-75a805c652dd","","null","<div style=""display: flex; justify-content: center; align-items: center;"">
                <img src=""images/causal/causal_series_17/causal_series_17_c.jpg"" style=""width: 300px; height: 300px;"" />
              </div>","null",""
"","","","","","html-button-response","56","192557","0.0-56.0","49A5FF05887947508ADBDC5F84F3C0B5","cf56e7d1-d494-47e3-b3fe-d75d877ce5b8","60874837-17fe-43d8-ba5e-75a805c652dd","","868","
    <div style=""display: flex; justify-content: center; align-items: center;"">
      <img src=""images/red_deck_2.png"" style=""width: 300px; height: 300px; margin-right: 10px;"" />
      <img src=""images/blue_deck_1.png"" style=""width: 300px; height: 300px;"" />
    </div>","0","0"
"","","","","","html-keyboard-response","57","195561","0.0-57.0-0.0-0.0","49A5FF05887947508ADBDC5F84F3C0B5","cf56e7d1-d494-47e3-b3fe-d75d877ce5b8","60874837-17fe-43d8-ba5e-75a805c652dd","","null","<div style=""display: flex; justify-content: center; align-items: center;"">
                <img src=""images/causal/causal_series_17/causal_series_17_d.jpg"" style=""width: 300px; height: 300px;"" />
              </div>","null",""
"","","","","","html-keyboard-response","58","198566","0.0-58.0","49A5FF05887947508ADBDC5F84F3C0B5","cf56e7d1-d494-47e3-b3fe-d75d877ce5b8","60874837-17fe-43d8-ba5e-75a805c652dd","","null","<div style=""display: flex; justify-content: center; align-items: center;"">
                <img src=""images/other/blank.jpg"" style=""width: 300px; height: 300px;"" />
              </div>","null",""
"","","","","","html-keyboard-response","59","201570","0.0-59.0","49A5FF05887947508ADBDC5F84F3C0B5","cf56e7d1-d494-47e3-b3fe-d75d877ce5b8","60874837-17fe-43d8-ba5e-75a805c652dd","","null","<div style=""display: flex; justify-content: center; align-items: center;"">
                <img src=""images/causal/causal_series_13/causal_series_13_a.jpg"" style=""width: 300px; height: 300px;"" />
              </div>","null",""
"","","","","","html-keyboard-response","60","204574","0.0-60.0","49A5FF05887947508ADBDC5F84F3C0B5","cf56e7d1-d494-47e3-b3fe-d75d877ce5b8","60874837-17fe-43d8-ba5e-75a805c652dd","","null","<div style=""display: flex; justify-content: center; align-items: center;"">
                <img src=""images/causal/causal_series_13/causal_series_13_b.jpg"" style=""width: 300px; height: 300px;"" />
              </div>","null",""
"","","","","","html-keyboard-response","61","207578","0.0-61.0","49A5FF05887947508ADBDC5F84F3C0B5","cf56e7d1-d494-47e3-b3fe-d75d877ce5b8","60874837-17fe-43d8-ba5e-75a805c652dd","","null","<div style=""display: flex; justify-content: center; align-items: center;"">
                <img src=""images/causal/causal_series_13/causal_series_13_c.jpg"" style=""width: 300px; height: 300px;"" />
              </div>","null",""
"","","","","","html-button-response","62","209837","0.0-62.0","49A5FF05887947508ADBDC5F84F3C0B5","cf56e7d1-d494-47e3-b3fe-d75d877ce5b8","60874837-17fe-43d8-ba5e-75a805c652dd","","2257","
    <div style=""display: flex; justify-content: center; align-items: center;"">
      <img src=""images/red_deck_2.png"" style=""width: 300px; height: 300px; margin-right: 10px;"" />
      <img src=""images/blue_deck_1.png"" style=""width: 300px; height: 300px;"" />
    </div>","1","1"
"","","","","","html-keyboard-response","63","213583","0.0-63.0-1.0-0.0","49A5FF05887947508ADBDC5F84F3C0B5","cf56e7d1-d494-47e3-b3fe-d75d877ce5b8","60874837-17fe-43d8-ba5e-75a805c652dd","","null","<div style=""display: flex; justify-content: center; align-items: center;"">
                <img src=""images/semantic/semantic_series_12/semantic_series_12_d.jpg"" style=""width: 300px; height: 300px;"" />
              </div>","null",""
"","","","","","html-keyboard-response","64","216586","0.0-64.0","49A5FF05887947508ADBDC5F84F3C0B5","cf56e7d1-d494-47e3-b3fe-d75d877ce5b8","60874837-17fe-43d8-ba5e-75a805c652dd","","null","<div style=""display: flex; justify-content: center; align-items: center;"">
                <img src=""images/other/blank.jpg"" style=""width: 300px; height: 300px;"" />
              </div>","null",""
"","","","","","html-keyboard-response","65","219587","0.0-65.0","49A5FF05887947508ADBDC5F84F3C0B5","cf56e7d1-d494-47e3-b3fe-d75d877ce5b8","60874837-17fe-43d8-ba5e-75a805c652dd","","null","<div style=""display: flex; justify-content: center; align-items: center;"">
                <img src=""images/causal/causal_series_1/causal_series_1_a.jpg"" style=""width: 300px; height: 300px;"" />
              </div>","null",""
"","","","","","html-keyboard-response","66","222590","0.0-66.0","49A5FF05887947508ADBDC5F84F3C0B5","cf56e7d1-d494-47e3-b3fe-d75d877ce5b8","60874837-17fe-43d8-ba5e-75a805c652dd","","null","<div style=""display: flex; justify-content: center; align-items: center;"">
                <img src=""images/causal/causal_series_1/causal_series_1_b.jpg"" style=""width: 300px; height: 300px;"" />
              </div>","null",""
"","","","","","html-keyboard-response","67","225591","0.0-67.0","49A5FF05887947508ADBDC5F84F3C0B5","cf56e7d1-d494-47e3-b3fe-d75d877ce5b8","60874837-17fe-43d8-ba5e-75a805c652dd","","null","<div style=""display: flex; justify-content: center; align-items: center;"">
                <img src=""images/causal/causal_series_1/causal_series_1_c.jpg"" style=""width: 300px; height: 300px;"" />
              </div>","null",""
"","","","","","html-button-response","68","226982","0.0-68.0","49A5FF05887947508ADBDC5F84F3C0B5","cf56e7d1-d494-47e3-b3fe-d75d877ce5b8","60874837-17fe-43d8-ba5e-75a805c652dd","","1389","
    <div style=""display: flex; justify-content: center; align-items: center;"">
      <img src=""images/red_deck_2.png"" style=""width: 300px; height: 300px; margin-right: 10px;"" />
      <img src=""images/blue_deck_1.png"" style=""width: 300px; height: 300px;"" />
    </div>","1","1"
"","","","","","html-keyboard-response","69","229985","0.0-69.0-1.0-0.0","49A5FF05887947508ADBDC5F84F3C0B5","cf56e7d1-d494-47e3-b3fe-d75d877ce5b8","60874837-17fe-43d8-ba5e-75a805c652dd","","null","<div style=""display: flex; justify-content: center; align-items: center;"">
                <img src=""images/semantic/semantic_series_18/semantic_series_18_d.jpg"" style=""width: 300px; height: 300px;"" />
              </div>","null",""
"","","","","","html-keyboard-response","70","232988","0.0-70.0","49A5FF05887947508ADBDC5F84F3C0B5","cf56e7d1-d494-47e3-b3fe-d75d877ce5b8","60874837-17fe-43d8-ba5e-75a805c652dd","","null","<div style=""display: flex; justify-content: center; align-items: center;"">
                <img src=""images/other/blank.jpg"" style=""width: 300px; height: 300px;"" />
              </div>","null",""
"","","","","","html-keyboard-response","71","235991","0.0-71.0","49A5FF05887947508ADBDC5F84F3C0B5","cf56e7d1-d494-47e3-b3fe-d75d877ce5b8","60874837-17fe-43d8-ba5e-75a805c652dd","","null","<div style=""display: flex; justify-content: center; align-items: center;"">
                <img src=""images/causal/causal_series_10/causal_series_10_a.jpg"" style=""width: 300px; height: 300px;"" />
              </div>","null",""
"","","","","","html-keyboard-response","72","238995","0.0-72.0","49A5FF05887947508ADBDC5F84F3C0B5","cf56e7d1-d494-47e3-b3fe-d75d877ce5b8","60874837-17fe-43d8-ba5e-75a805c652dd","","null","<div style=""display: flex; justify-content: center; align-items: center;"">
                <img src=""images/causal/causal_series_10/causal_series_10_b.jpg"" style=""width: 300px; height: 300px;"" />
              </div>","null",""
"","","","","","html-keyboard-response","73","241998","0.0-73.0","49A5FF05887947508ADBDC5F84F3C0B5","cf56e7d1-d494-47e3-b3fe-d75d877ce5b8","60874837-17fe-43d8-ba5e-75a805c652dd","","null","<div style=""display: flex; justify-content: center; align-items: center;"">
                <img src=""images/causal/causal_series_10/causal_series_10_c.jpg"" style=""width: 300px; height: 300px;"" />
              </div>","null",""
"","","","","","html-button-response","74","243132","0.0-74.0","49A5FF05887947508ADBDC5F84F3C0B5","cf56e7d1-d494-47e3-b3fe-d75d877ce5b8","60874837-17fe-43d8-ba5e-75a805c652dd","","1131","
    <div style=""display: flex; justify-content: center; align-items: center;"">
      <img src=""images/red_deck_2.png"" style=""width: 300px; height: 300px; margin-right: 10px;"" />
      <img src=""images/blue_deck_1.png"" style=""width: 300px; height: 300px;"" />
    </div>","0","0"
"","","","","","html-keyboard-response","75","246135","0.0-75.0-0.0-0.0","49A5FF05887947508ADBDC5F84F3C0B5","cf56e7d1-d494-47e3-b3fe-d75d877ce5b8","60874837-17fe-43d8-ba5e-75a805c652dd","","null","<div style=""display: flex; justify-content: center; align-items: center;"">
                <img src=""images/causal/causal_series_10/causal_series_10_d.jpg"" style=""width: 300px; height: 300px;"" />
              </div>","null",""
"","","","","","html-keyboard-response","76","249139","0.0-76.0","49A5FF05887947508ADBDC5F84F3C0B5","cf56e7d1-d494-47e3-b3fe-d75d877ce5b8","60874837-17fe-43d8-ba5e-75a805c652dd","","null","<div style=""display: flex; justify-content: center; align-items: center;"">
                <img src=""images/other/blank.jpg"" style=""width: 300px; height: 300px;"" />
              </div>","null",""
"","","","","","html-keyboard-response","77","252143","0.0-77.0","49A5FF05887947508ADBDC5F84F3C0B5","cf56e7d1-d494-47e3-b3fe-d75d877ce5b8","60874837-17fe-43d8-ba5e-75a805c652dd","","null","<div style=""display: flex; justify-content: center; align-items: center;"">
                <img src=""images/causal/causal_series_6/causal_series_6_a.jpg"" style=""width: 300px; height: 300px;"" />
              </div>","null",""
"","","","","","html-keyboard-response","78","255146","0.0-78.0","49A5FF05887947508ADBDC5F84F3C0B5","cf56e7d1-d494-47e3-b3fe-d75d877ce5b8","60874837-17fe-43d8-ba5e-75a805c652dd","","null","<div style=""display: flex; justify-content: center; align-items: center;"">
                <img src=""images/causal/causal_series_6/causal_series_6_b.jpg"" style=""width: 300px; height: 300px;"" />
              </div>","null",""
"","","","","","html-keyboard-response","79","258149","0.0-79.0","49A5FF05887947508ADBDC5F84F3C0B5","cf56e7d1-d494-47e3-b3fe-d75d877ce5b8","60874837-17fe-43d8-ba5e-75a805c652dd","","null","<div style=""display: flex; justify-content: center; align-items: center;"">
                <img src=""images/causal/causal_series_6/causal_series_6_c.jpg"" style=""width: 300px; height: 300px;"" />
              </div>","null",""
"","","","","","html-button-response","80","259294","0.0-80.0","49A5FF05887947508ADBDC5F84F3C0B5","cf56e7d1-d494-47e3-b3fe-d75d877ce5b8","60874837-17fe-43d8-ba5e-75a805c652dd","","1142","
    <div style=""display: flex; justify-content: center; align-items: center;"">
      <img src=""images/red_deck_2.png"" style=""width: 300px; height: 300px; margin-right: 10px;"" />
      <img src=""images/blue_deck_1.png"" style=""width: 300px; height: 300px;"" />
    </div>","1","1"
"","","","","","html-keyboard-response","81","262296","0.0-81.0-1.0-0.0","49A5FF05887947508ADBDC5F84F3C0B5","cf56e7d1-d494-47e3-b3fe-d75d877ce5b8","60874837-17fe-43d8-ba5e-75a805c652dd","","null","<div style=""display: flex; justify-content: center; align-items: center;"">
                <img src=""images/semantic/semantic_series_5/semantic_series_5_d.jpg"" style=""width: 300px; height: 300px;"" />
              </div>","null",""
"","","","","","html-keyboard-response","82","265301","0.0-82.0","49A5FF05887947508ADBDC5F84F3C0B5","cf56e7d1-d494-47e3-b3fe-d75d877ce5b8","60874837-17fe-43d8-ba5e-75a805c652dd","","null","<div style=""display: flex; justify-content: center; align-items: center;"">
                <img src=""images/other/blank.jpg"" style=""width: 300px; height: 300px;"" />
              </div>","null",""
"","","","","","html-keyboard-response","83","268304","0.0-83.0","49A5FF05887947508ADBDC5F84F3C0B5","cf56e7d1-d494-47e3-b3fe-d75d877ce5b8","60874837-17fe-43d8-ba5e-75a805c652dd","","null","<div style=""display: flex; justify-content: center; align-items: center;"">
                <img src=""images/causal/causal_series_14/causal_series_14_a.jpg"" style=""width: 300px; height: 300px;"" />
              </div>","null",""
"","","","","","html-keyboard-response","84","271308","0.0-84.0","49A5FF05887947508ADBDC5F84F3C0B5","cf56e7d1-d494-47e3-b3fe-d75d877ce5b8","60874837-17fe-43d8-ba5e-75a805c652dd","","null","<div style=""display: flex; justify-content: center; align-items: center;"">
                <img src=""images/causal/causal_series_14/causal_series_14_b.jpg"" style=""width: 300px; height: 300px;"" />
              </div>","null",""
"","","","","","html-keyboard-response","85","274311","0.0-85.0","49A5FF05887947508ADBDC5F84F3C0B5","cf56e7d1-d494-47e3-b3fe-d75d877ce5b8","60874837-17fe-43d8-ba5e-75a805c652dd","","null","<div style=""display: flex; justify-content: center; align-items: center;"">
                <img src=""images/causal/causal_series_14/causal_series_14_c.jpg"" style=""width: 300px; height: 300px;"" />
              </div>","null",""
"","","","","","html-button-response","86","275104","0.0-86.0","49A5FF05887947508ADBDC5F84F3C0B5","cf56e7d1-d494-47e3-b3fe-d75d877ce5b8","60874837-17fe-43d8-ba5e-75a805c652dd","","790","
    <div style=""display: flex; justify-content: center; align-items: center;"">
      <img src=""images/red_deck_2.png"" style=""width: 300px; height: 300px; margin-right: 10px;"" />
      <img src=""images/blue_deck_1.png"" style=""width: 300px; height: 300px;"" />
    </div>","0","0"
"","","","","","html-keyboard-response","87","278107","0.0-87.0-0.0-0.0","49A5FF05887947508ADBDC5F84F3C0B5","cf56e7d1-d494-47e3-b3fe-d75d877ce5b8","60874837-17fe-43d8-ba5e-75a805c652dd","","null","<div style=""display: flex; justify-content: center; align-items: center;"">
                <img src=""images/causal/causal_series_14/causal_series_14_d.jpg"" style=""width: 300px; height: 300px;"" />
              </div>","null",""
"","","","","","html-keyboard-response","88","281110","0.0-88.0","49A5FF05887947508ADBDC5F84F3C0B5","cf56e7d1-d494-47e3-b3fe-d75d877ce5b8","60874837-17fe-43d8-ba5e-75a805c652dd","","null","<div style=""display: flex; justify-content: center; align-items: center;"">
                <img src=""images/other/blank.jpg"" style=""width: 300px; height: 300px;"" />
              </div>","null",""
"","","","","","html-keyboard-response","89","284115","0.0-89.0","49A5FF05887947508ADBDC5F84F3C0B5","cf56e7d1-d494-47e3-b3fe-d75d877ce5b8","60874837-17fe-43d8-ba5e-75a805c652dd","","null","<div style=""display: flex; justify-content: center; align-items: center;"">
                <img src=""images/causal/causal_series_7/causal_series_7_a.jpg"" style=""width: 300px; height: 300px;"" />
              </div>","null",""
"","","","","","html-keyboard-response","90","287119","0.0-90.0","49A5FF05887947508ADBDC5F84F3C0B5","cf56e7d1-d494-47e3-b3fe-d75d877ce5b8","60874837-17fe-43d8-ba5e-75a805c652dd","","null","<div style=""display: flex; justify-content: center; align-items: center;"">
                <img src=""images/causal/causal_series_7/causal_series_7_b.jpg"" style=""width: 300px; height: 300px;"" />
              </div>","null",""
"","","","","","html-keyboard-response","91","290121","0.0-91.0","49A5FF05887947508ADBDC5F84F3C0B5","cf56e7d1-d494-47e3-b3fe-d75d877ce5b8","60874837-17fe-43d8-ba5e-75a805c652dd","","null","<div style=""display: flex; justify-content: center; align-items: center;"">
                <img src=""images/causal/causal_series_7/causal_series_7_c.jpg"" style=""width: 300px; height: 300px;"" />
              </div>","null",""
"","","","","","html-button-response","92","290741","0.0-92.0","49A5FF05887947508ADBDC5F84F3C0B5","cf56e7d1-d494-47e3-b3fe-d75d877ce5b8","60874837-17fe-43d8-ba5e-75a805c652dd","","618","
    <div style=""display: flex; justify-content: center; align-items: center;"">
      <img src=""images/red_deck_2.png"" style=""width: 300px; height: 300px; margin-right: 10px;"" />
      <img src=""images/blue_deck_1.png"" style=""width: 300px; height: 300px;"" />
    </div>","1","1"
"","","","","","html-keyboard-response","93","293744","0.0-93.0-1.0-0.0","49A5FF05887947508ADBDC5F84F3C0B5","cf56e7d1-d494-47e3-b3fe-d75d877ce5b8","60874837-17fe-43d8-ba5e-75a805c652dd","","null","<div style=""display: flex; justify-content: center; align-items: center;"">
                <img src=""images/semantic/semantic_series_6/semantic_series_6_d.jpg"" style=""width: 300px; height: 300px;"" />
              </div>","null",""
"","","","","","html-keyboard-response","94","296748","0.0-94.0","49A5FF05887947508ADBDC5F84F3C0B5","cf56e7d1-d494-47e3-b3fe-d75d877ce5b8","60874837-17fe-43d8-ba5e-75a805c652dd","","null","<div style=""display: flex; justify-content: center; align-items: center;"">
                <img src=""images/other/blank.jpg"" style=""width: 300px; height: 300px;"" />
              </div>","null",""
"","","","","","html-keyboard-response","95","299751","0.0-95.0","49A5FF05887947508ADBDC5F84F3C0B5","cf56e7d1-d494-47e3-b3fe-d75d877ce5b8","60874837-17fe-43d8-ba5e-75a805c652dd","","null","<div style=""display: flex; justify-content: center; align-items: center;"">
                <img src=""images/causal/causal_series_15/causal_series_15_a.jpg"" style=""width: 300px; height: 300px;"" />
              </div>","null",""
"","","","","","html-keyboard-response","96","302755","0.0-96.0","49A5FF05887947508ADBDC5F84F3C0B5","cf56e7d1-d494-47e3-b3fe-d75d877ce5b8","60874837-17fe-43d8-ba5e-75a805c652dd","","null","<div style=""display: flex; justify-content: center; align-items: center;"">
                <img src=""images/causal/causal_series_15/causal_series_15_b.jpg"" style=""width: 300px; height: 300px;"" />
              </div>","null",""
"","","","","","html-keyboard-response","97","305759","0.0-97.0","49A5FF05887947508ADBDC5F84F3C0B5","cf56e7d1-d494-47e3-b3fe-d75d877ce5b8","60874837-17fe-43d8-ba5e-75a805c652dd","","null","<div style=""display: flex; justify-content: center; align-items: center;"">
                <img src=""images/causal/causal_series_15/causal_series_15_c.jpg"" style=""width: 300px; height: 300px;"" />
              </div>","null",""
"","","","","","html-button-response","98","306682","0.0-98.0","49A5FF05887947508ADBDC5F84F3C0B5","cf56e7d1-d494-47e3-b3fe-d75d877ce5b8","60874837-17fe-43d8-ba5e-75a805c652dd","","920","
    <div style=""display: flex; justify-content: center; align-items: center;"">
      <img src=""images/red_deck_2.png"" style=""width: 300px; height: 300px; margin-right: 10px;"" />
      <img src=""images/blue_deck_1.png"" style=""width: 300px; height: 300px;"" />
    </div>","1","1"
"","","","","","html-keyboard-response","99","309685","0.0-99.0-1.0-0.0","49A5FF05887947508ADBDC5F84F3C0B5","cf56e7d1-d494-47e3-b3fe-d75d877ce5b8","60874837-17fe-43d8-ba5e-75a805c652dd","","null","<div style=""display: flex; justify-content: center; align-items: center;"">
                <img src=""images/semantic/semantic_series_14/semantic_series_14_d.jpg"" style=""width: 300px; height: 300px;"" />
              </div>","null",""
"","","","","","html-keyboard-response","100","312689","0.0-100.0","49A5FF05887947508ADBDC5F84F3C0B5","cf56e7d1-d494-47e3-b3fe-d75d877ce5b8","60874837-17fe-43d8-ba5e-75a805c652dd","","null","<div style=""display: flex; justify-content: center; align-items: center;"">
                <img src=""images/other/blank.jpg"" style=""width: 300px; height: 300px;"" />
              </div>","null",""
"","","","","","html-keyboard-response","101","315692","0.0-101.0","49A5FF05887947508ADBDC5F84F3C0B5","cf56e7d1-d494-47e3-b3fe-d75d877ce5b8","60874837-17fe-43d8-ba5e-75a805c652dd","","null","<div style=""display: flex; justify-content: center; align-items: center;"">
                <img src=""images/causal/causal_series_8/causal_series_8_a.jpg"" style=""width: 300px; height: 300px;"" />
              </div>","null",""
"","","","","","html-keyboard-response","102","318694","0.0-102.0","49A5FF05887947508ADBDC5F84F3C0B5","cf56e7d1-d494-47e3-b3fe-d75d877ce5b8","60874837-17fe-43d8-ba5e-75a805c652dd","","null","<div style=""display: flex; justify-content: center; align-items: center;"">
                <img src=""images/causal/causal_series_8/causal_series_8_b.jpg"" style=""width: 300px; height: 300px;"" />
              </div>","null",""
"","","","","","html-keyboard-response","103","321698","0.0-103.0","49A5FF05887947508ADBDC5F84F3C0B5","cf56e7d1-d494-47e3-b3fe-d75d877ce5b8","60874837-17fe-43d8-ba5e-75a805c652dd","","null","<div style=""display: flex; justify-content: center; align-items: center;"">
                <img src=""images/causal/causal_series_8/causal_series_8_c.jpg"" style=""width: 300px; height: 300px;"" />
              </div>","null",""
"","","","","","html-button-response","104","322678","0.0-104.0","49A5FF05887947508ADBDC5F84F3C0B5","cf56e7d1-d494-47e3-b3fe-d75d877ce5b8","60874837-17fe-43d8-ba5e-75a805c652dd","","978","
    <div style=""display: flex; justify-content: center; align-items: center;"">
      <img src=""images/red_deck_2.png"" style=""width: 300px; height: 300px; margin-right: 10px;"" />
      <img src=""images/blue_deck_1.png"" style=""width: 300px; height: 300px;"" />
    </div>","0","0"
"","","","","","html-keyboard-response","105","325681","0.0-105.0-0.0-0.0","49A5FF05887947508ADBDC5F84F3C0B5","cf56e7d1-d494-47e3-b3fe-d75d877ce5b8","60874837-17fe-43d8-ba5e-75a805c652dd","","null","<div style=""display: flex; justify-content: center; align-items: center;"">
                <img src=""images/causal/causal_series_8/causal_series_8_d.jpg"" style=""width: 300px; height: 300px;"" />
              </div>","null",""
"","","","","","html-keyboard-response","106","328684","0.0-106.0","49A5FF05887947508ADBDC5F84F3C0B5","cf56e7d1-d494-47e3-b3fe-d75d877ce5b8","60874837-17fe-43d8-ba5e-75a805c652dd","","null","<div style=""display: flex; justify-content: center; align-items: center;"">
                <img src=""images/other/blank.jpg"" style=""width: 300px; height: 300px;"" />
              </div>","null",""
"","","","","","html-keyboard-response","107","331688","0.0-107.0","49A5FF05887947508ADBDC5F84F3C0B5","cf56e7d1-d494-47e3-b3fe-d75d877ce5b8","60874837-17fe-43d8-ba5e-75a805c652dd","","null","<div style=""display: flex; justify-content: center; align-items: center;"">
                <img src=""images/causal/causal_series_16/causal_series_16_a.jpg"" style=""width: 300px; height: 300px;"" />
              </div>","null",""
"","","","","","html-keyboard-response","108","334691","0.0-108.0","49A5FF05887947508ADBDC5F84F3C0B5","cf56e7d1-d494-47e3-b3fe-d75d877ce5b8","60874837-17fe-43d8-ba5e-75a805c652dd","","null","<div style=""display: flex; justify-content: center; align-items: center;"">
                <img src=""images/causal/causal_series_16/causal_series_16_b.jpg"" style=""width: 300px; height: 300px;"" />
              </div>","null",""
"","","","","","html-keyboard-response","109","337693","0.0-109.0","49A5FF05887947508ADBDC5F84F3C0B5","cf56e7d1-d494-47e3-b3fe-d75d877ce5b8","60874837-17fe-43d8-ba5e-75a805c652dd","","null","<div style=""display: flex; justify-content: center; align-items: center;"">
                <img src=""images/causal/causal_series_16/causal_series_16_c.jpg"" style=""width: 300px; height: 300px;"" />
              </div>","null",""
"","","","","","html-button-response","110","338431","0.0-110.0","49A5FF05887947508ADBDC5F84F3C0B5","cf56e7d1-d494-47e3-b3fe-d75d877ce5b8","60874837-17fe-43d8-ba5e-75a805c652dd","","736","
    <div style=""display: flex; justify-content: center; align-items: center;"">
      <img src=""images/red_deck_2.png"" style=""width: 300px; height: 300px; margin-right: 10px;"" />
      <img src=""images/blue_deck_1.png"" style=""width: 300px; height: 300px;"" />
    </div>","0","0"
"","","","","","html-keyboard-response","111","341435","0.0-111.0-0.0-0.0","49A5FF05887947508ADBDC5F84F3C0B5","cf56e7d1-d494-47e3-b3fe-d75d877ce5b8","60874837-17fe-43d8-ba5e-75a805c652dd","","null","<div style=""display: flex; justify-content: center; align-items: center;"">
                <img src=""images/causal/causal_series_16/causal_series_16_d.jpg"" style=""width: 300px; height: 300px;"" />
              </div>","null",""
"","","","","","html-keyboard-response","112","344439","0.0-112.0","49A5FF05887947508ADBDC5F84F3C0B5","cf56e7d1-d494-47e3-b3fe-d75d877ce5b8","60874837-17fe-43d8-ba5e-75a805c652dd","","null","<div style=""display: flex; justify-content: center; align-items: center;"">
                <img src=""images/other/blank.jpg"" style=""width: 300px; height: 300px;"" />
              </div>","null",""
"","","","","","survey-text","113","383728","0.0-113.0","49A5FF05887947508ADBDC5F84F3C0B5","cf56e7d1-d494-47e3-b3fe-d75d877ce5b8","60874837-17fe-43d8-ba5e-75a805c652dd","","39281","","{""Q0"":""The two cards are different colors (red and blue), and choosing one card seems to lead to different outcomes for the picture stories (good or bad outcomes).""}",""
"","","","","","survey-text","114","394613","0.0-114.0","49A5FF05887947508ADBDC5F84F3C0B5","cf56e7d1-d494-47e3-b3fe-d75d877ce5b8","60874837-17fe-43d8-ba5e-75a805c652dd","","10883","","{""Q0"":""The blue deck was more interesting to me.""}",""
"","","","","","html-button-response","115","403511","0.0-115.0","49A5FF05887947508ADBDC5F84F3C0B5","cf56e7d1-d494-47e3-b3fe-d75d877ce5b8","60874837-17fe-43d8-ba5e-75a805c652dd","","8897","Which color deck does the fourth image continue the story from the series?","1",""
"","","","","","html-button-response","116","406429","0.0-116.0","49A5FF05887947508ADBDC5F84F3C0B5","cf56e7d1-d494-47e3-b3fe-d75d877ce5b8","60874837-17fe-43d8-ba5e-75a805c652dd","","2916","Which color deck does the fourth image not follow the story from the series?","0",""
"","","","","","survey-text","117","413509","0.0-117.0","49A5FF05887947508ADBDC5F84F3C0B5","cf56e7d1-d494-47e3-b3fe-d75d877ce5b8","60874837-17fe-43d8-ba5e-75a805c652dd","","7078","","{""Q0"":""Male"",""Q1"":""26""}",""
"","","","","","instructions","118","423456","0.0-118.0","49A5FF05887947508ADBDC5F84F3C0B5","cf56e7d1-d494-47e3-b3fe-d75d877ce5b8","60874837-17fe-43d8-ba5e-75a805c652dd","[{""page_index"":0,""viewing_time"":9945}]","9946","","",""
