"success","timeout","failed_images","failed_audio","failed_video","trial_type","trial_index","time_elapsed","internal_node_id","subject","audio_id","rt","device_id","view_history","stimulus","response","estimated_stimulus_onset"
"true","false","[]","[]","[]","preload","0","193","0.0-0.0","8cz46cy9hou3eez","8cz46cy9hou3eez-2024-04-14-06-08-58","","","","","",""
"true","","","","","fullscreen","1","3545","0.0-1.0","8cz46cy9hou3eez","8cz46cy9hou3eez-2024-04-14-06-08-58","2343","","","","",""
"","","","","","initialize-microphone","2","6245","0.0-2.0","8cz46cy9hou3eez","8cz46cy9hou3eez-2024-04-14-06-08-58","","a245aeecc0339b94ca3b74e02bb1150e9e1aee21df4e57afe28caa91d36d71b3","","","",""
"","","","","","instructions","3","7775","0.0-3.0","8cz46cy9hou3eez","8cz46cy9hou3eez-2024-04-14-06-08-58","1530","","[{""page_index"":0,""viewing_time"":866},{""page_index"":1,""viewing_time"":664}]","","",""
"","","","","","image-button-response","4","12881","0.0-4.0-0.0","8cz46cy9hou3eez","8cz46cy9hou3eez-2024-04-14-06-08-58","null","","","images/instructions/movie_1.png","null",""
"","","","","","image-button-response","5","15590","0.0-4.0-1.0","8cz46cy9hou3eez","8cz46cy9hou3eez-2024-04-14-06-08-58","null","","","images/instructions/movie_1.png","null",""
"","","","","","image-button-response","6","17394","0.0-4.0-2.0","8cz46cy9hou3eez","8cz46cy9hou3eez-2024-04-14-06-08-58","null","","","[]","null",""
"","","","","","image-button-response","7","22877","0.0-4.0-0.1","8cz46cy9hou3eez","8cz46cy9hou3eez-2024-04-14-06-08-58","null","","","images/instructions/movie_2.png","null",""
"","","","","","image-button-response","8","25876","0.0-4.0-1.1","8cz46cy9hou3eez","8cz46cy9hou3eez-2024-04-14-06-08-58","null","","","images/instructions/movie_2.png","null",""
"","","","","","image-button-response","9","27871","0.0-4.0-2.1","8cz46cy9hou3eez","8cz46cy9hou3eez-2024-04-14-06-08-58","null","","","[]","null",""
"","","","","","image-button-response","10","32875","0.0-4.0-0.2","8cz46cy9hou3eez","8cz46cy9hou3eez-2024-04-14-06-08-58","null","","","images/instructions/movie_3.png","null",""
"","","","","","image-button-response","11","35879","0.0-4.0-1.2","8cz46cy9hou3eez","8cz46cy9hou3eez-2024-04-14-06-08-58","null","","","images/instructions/movie_3.png","null",""
"","","","","","image-button-response","12","37880","0.0-4.0-2.2","8cz46cy9hou3eez","8cz46cy9hou3eez-2024-04-14-06-08-58","null","","","[]","null",""
"","","","","","image-button-response","13","42875","0.0-4.0-0.3","8cz46cy9hou3eez","8cz46cy9hou3eez-2024-04-14-06-08-58","null","","","images/instructions/movie_4.png","null",""
"","","","","","image-button-response","14","45810","0.0-4.0-1.3","8cz46cy9hou3eez","8cz46cy9hou3eez-2024-04-14-06-08-58","null","","","images/instructions/movie_4.png","null",""
"","","","","","image-button-response","15","47874","0.0-4.0-2.3","8cz46cy9hou3eez","8cz46cy9hou3eez-2024-04-14-06-08-58","null","","","[]","null",""
"","","","","","instructions","16","100479","0.0-5.0","8cz46cy9hou3eez","8cz46cy9hou3eez-2024-04-14-06-08-58","52604","","[{""page_index"":0,""viewing_time"":51292},{""page_index"":1,""viewing_time"":1312}]","","",""
"","","","","","html-audio-response","17","101984","0.0-6.0","8cz46cy9hou3eez","8cz46cy9hou3eez-2024-04-14-06-08-58","746","","","<span style=""color: red; font-size: 24px""> NOW RECORDING</span>
        <p>Please say out loud the list of the actions you saw. The actions can be said in any order.</p>","GkXfo59ChoEBQveBAULygQRC84EIQoKEd2VibUKHgQRChYECGFOAZwH/////////FUmpZpkq17GDD0JATYCGQ2hyb21lV0GGQ2hyb21lFlSua7+uvdeBAXPFh7NKmUfb+fODgQKGhkFfT1BVU2Oik09wdXNIZWFkAQEAAIC7AAAAAADhjbWERzuAAJ+BAWJkgSAfQ7Z1Af/////////ngQCjRBmBAACA+4P+MvwKf/OzI/bwQHAHB4B1jNzpgkUN8WU+oeyRMbvN6oUTXZb0RVE8UpJcTBB9+Rs4zQ5x5u3zob9EYyqglkTx0ARNbZFXM6R8BTVEzPZwK1nBbS4C4K5iXYX9i+BmT/MuoWjBURV7gpCVXH2M1Dq3/g8uW4mcs5HbDmm2ICwMuj3N+3YotYG0fXAZs6RYr3U5Se0GEAyvXB5eDxVp2mu+ePS+EluioWjzm/11qu/e0Bh8LYQhBhP1Tmqp3ayS+FeufZcQlPug6DblnoUKDcHrGrUsYAAAAAAAAAdX27nkW8uuD6l/nIu2SsX+bbQicpYt7ZNlS521ftdWJbYi1xMhU76WuFSb74uMZKqdbbOuyWHGm9fh6yXbWdresrLSRJTxoQJDaOH+c7zY5aj+qMqkfQRwdMGK5VOSOmwwhJgpUPsK6sLXp+VeQsa714z6LWTJudAvJbVhcoHJLuAk2afuB4dwq1ZV2e4EUkx4lhS8OEBiyClxOQoAbdK7vHuI5dkNfmbxM2VCAhYa0OFI4i69ZGTxF+DuSHxYRQSoq8F0efFe+GFH0hsiwkzAZwFrU0evnZEuM4KI+pJcxKytzSjXEFgWAQ8OnkXATWHAdCuGdYe+wa7ypX+GcbO/Rk+umSDOPzTiD2nI5luE8ZNzoGbnss78kxJv3Yl0FS8CfUR5yo1s7t+Gk11Jp4oSb+tiBt+4cBHfPqI3Mr3G9ykmHoYXgccITpNAzMdopufYTZdTcKdZlzc8LXBWdWnEz+RIE+Et03AUrCk1A/oyUSP4S29W0drOXA+8jyjCkq5JqysCcjm5wPnpJsKnQvxzAUqqBjmFo27ZowVZoO/UJABjFtOn/ywW5eWd/blq3OIpetrRXBLNI8c7FF3OnNaxBk8W8z3TbuTXgKBDAO+9O83+9D7cKVmaKKwLmJiqKqSA/gjczbHXhrJwVvLzWeq9ifDNSgbzpUvDhizqIs+lBH5tbL8CklwaTcUNekX5xZp1Kf5hhd5yX8Owycov9Rr7Znu+d/oLpHfyupt6LG1ftdgQneOWwMcyNYxQgO3xaYRwE50NnkRrLbd1kFDzSgwT3IRdHtK7F9HlBTBTbzKICE/I2OYg8kK7IoYM4nQG2UgTwomMVPeNzKfazatMoPeDXmO4P0ftWIbSHB6y+PQqSYee5VFJGjUB5aqVZ4vQWh1yxeoPoPSN7OfsiVgvESiBL+uytib9WZ1QO830yvt3XDuvkDljEq7a6gSOjfabak3KbGMjlrpWpeW/D0AKu2yu3cmbiN9qrtNUM3Zci93aHvsYB/WWjk2ur0kY6vOyRhH0kPJl1byu8wFkgMz4KN6cW7WWA89tRMRhTWDlRkz/C649wUPiucJOIR1i6/rMIGpxPVTGcETGEqNDg4EAO4D7g/8K/AthiSfvO4MIgZP/30tFb1BxQcJugFGRnQrzan2UjXPHoIiSdz1ntLUH4KFmRx/z/ni3URLC7i7dR2ZB7zQuZ3fc50BvAfjjIX2ulVZ0cjI6Awb4y2DwMb7oG1Qk2QGV0tXM8vLNtKYtqiD+IcTzllOEZc/IOxwIrxXT3fdBqXzqTv1L9EobXPRsGsN6ktTo50nWGuQ5reUveVeq/6h3/cAR0LKO89fWO1Vj/sIAVGIzeS39LF1swncbr4GnLMm3eKp7YkScGG6fDDz6TI2fpDgQ4LjuXRQaHLMDVKcV3MuXQ5NgJMn7po6MVWvg/ERpavGbbSB6+M5B/aZFsoJoiX5bcD6SLUr/WqTqusllXiwhbYMMSRLo+jnhaTjskzKCrCfsduU7dRlMYZOhxlteuIztzC0WSKqfGK9K2sXa99vEmM0nP8vzVotY/EGBLR/YW66W2j9W/4u3+J8Wv8jG9cUNXvvacJyiGok/VSqpFbI+xoCn6Akx9FjjcERz5dhPW88z7MeSLbpql8xzs35JBglApFXvnRSeDQTp2+Zf15Cpc/jHYdxFa59nNbWJ2yeQ0wez7hFkMFdhRE3qjzVlN2aScLQL61g8+QhEBy7VQf6NupUja+wIZ3hQtsUwyDWd/iXr+2GHHfSTtntkagmkrXSh4g2OWYQsRiBIr9bx/4RBlU8/ef0PJRS/Ysvz8WUpV8dnCNLoWoOE0E26RDh0pMxQN52Ca8hqfn59iMUESov6cCLbp77VKhffMHQX+CzLGuuAIpCyX+tZZgbQXaKEMKNhiQCt0GJybGU28LyR5QBo0LqwAMKGuawWusd9+zHsOhZnshd2y5xIV6IZiVZW2K14ZTVz5trNvEU/+96gu/jIEclN2elvT7p27Gc0kVmDunfXUJzXFKnoeO8GZRshA4wV3bQRoh+9aU/xtqerUc4a7v5eu0+Jpq2ujtpEy+iR3zVpvpBezEFfnLi9LbjfsZUGAvkW9CuEFByf+GldSQ+dQe8ol2SKR7QtYD9ScCn4X16IMNH5HMHLcYz6UW6PXlPDCnowYvtas7vJuZcBmYZdZZATCR69SNmLwT94bHpDMz8GJKnJuGqjS3ZT0r0WO9Y40NNjE0jQfOVCE8SlhjMkRyFAb4JpemoI/tpmBYID592mzIBFeT6vHnOCHgH+N7WqLcD9MvR1GBTzo0PCgQB4gPuD/A/8EWG0haC5+JwZN1TGtEk0tpQgGj5X+C0CwJ8A6W7bVUQvxjRUr72i61uiGxEDLMe5878v6AN+IQ/ZY3e41RNQRDg2Z4m2WKJcmADeVdlYUW9NwH8Iw+O57AEqV/+jkLErLIPBxtRHsBKT4WbSZMCSAPgHD+Xs0qi4WDqd0AQzqz6rpDXRiy13X7wqxvUkTcfUc+ABJ4a9E3Nf4mrfNhNGoziKAP+6RnoNl0cB+fdGka6jllBY4p7d3+Z+dGVIrBBjlOtbCnylopYZiiuYu/XmnL0s5erq34PqZ9t4TIXTdn5fYC02QmcHOJGPFJHgZZZc3ZtTYJOZ3kyDVT8Os4CaPUJLJ6TfOKI3FqZA9WZpSwluEdUJqOos4WIjfBn8J3OEScTUAISyw+i76cnqE1i8ROWKG4iiNtZr5WHAc4ZA9IHdEmjPSCbAmIB1eq0AUuU0oNggrBH3tf7X8prolDmP6OFJ+7XGf086sc/OWj+LKVMtbhxtOiYW7Oklt+TtVA/g7Z1yY3v8NinOlTHKUXn1SPkKAN7519LAVebQMVYK7TktV8gxt+RIzFv9dm62ophGGNg6SuAJs2foP6JPyR0yTU67vHsWBAVOslqfEkv8m7c09T901PYVVlJQIuDSKFoZggE8sajeDSMZawtYVHlq6POH2F9EpbSuVOhmGD8tdSrvwg1fAHMcYYRcKxaFDvK5NmwO7dzaiDGw3EOxOUFrIgi44Crg8r5wDLuv0MzRC7R0Zo/OoWH2dZbyvqB5MYwiActDtusCQruHRB9RHgtG3FLmDz6MiK4vGpbNlk9H0CMopGDfww8j9sWVJj6l+BsdnR2IpyGB+eu+Ybd30LR+qZ9tdrsKZpUHMXrou4iOjws1613cDMv1k7o/FUDEdqE4xUkO3kBQ+FkOj56Yp4+mUBSyDkX0XyJJUYDf4fEEbt5tWtTQKTOqjiVtUZrl5K2J7qJcRwgyyRMwxUONulc/eYdta31Kk7cssHA4tNJvEbLVAPkZpPckkynTzDN9JUB7qwEnGX7boOUFfY+fzKqR9K0JAtJNe7Q8qbEwIPx26gT3zAKi4SSxnBBNdXNnR6bWeDEqxbfIIhXjqORZfrc3P1xaXLUCvjUDz37bazsp2gSJAeZLhl8lhwuEoDxDNig+VOQlLx0T4TbRQkDnMEm751x8/obyx6Yf4tLkXNMVnonli7SCBMbVY9u1xJ1Uebb+Wxmudht+MzK8KGQp1J37z+6w4HpD+6eNZxC875eP6iotLZt3Cvivc46jQ8aBALSA+wNhhvd5D5/Mqa27upqN+2dzwDPBBnCLUb1t2NOUDxUnasP81KukZrd2rsFxFPXo6B17cO959CGfqkjpFU0vOvgDqEkGxm116EVEHEUNAR9hKudsO3QBTdgU2sfql2v33CLbEaqPVw3e2V9rSz8htXoHAHSej1yzEsx56hvQUjcSjN3wo5szUuc5AFVamMEh1fQDv5WrFixBbJCMV6xvrhZGoc/6GGnjmA8MXfDiNzJZPNlqEGFzip8ZO7qo9ezvPgpteCih01o8X2k4Vfr2xQYAX2baKelbwiPqaAmM+w8j9TgU3aS/j09B8vZeuUj5tenVoaAxxxdX63a+N4fjaR8QD2oH91Iq7yhnJ1WN5dtAACgY+pbkmMFxAV+6W6gsYQ9sKY7Ot1ZrEcZ4TOfql3d62zU/tWEjAqlgtyzu/W6GQGG57pdtjlxFYEE8o+ZTPDopknM93+ZVhapRjS1geUGVJHwz8cKzl7wNBJ/2RiZeEWzv8EIw9DV5A8L40/3PuQoTnvlsakbruJ+K0yZc3Zo64FvC6dZtZ7/U2ysghBKJDRN6GBtmPFlSCz4EvNxBILVFT7gGjfy1dtGk8gFIa4h3J4uBfymMv/yzFvvXxCO9XvIFa13/5qD8Er2CLTGL5tetWUW3NSdfjSCd7LuuuipNQJ+EfaUXrjXg331QaAuH8+ai34vTfHxqUtMo3NIsSe+a1+BFNcEiKJdsUplLDJj9H75ZukQIIZxczoYJXpR/SKuZm6X96MVyrCV0J8YybqJ5qRsrnQWdRjbH0REDcOYYoiOBp9yPgiAbhTKAak9uhQGFGvV3D3tVQBvx4zVaDVZt9pEMMsRjng2YuVj6eQ/Tb8UeLI3wyooBmKsfiq4JfKS8Zqeceu3Ewg8ntnVHcy7NTQQbe90iN8sh69kkofqZICLbOSunZb++AgpKkY6lvhS+69lBo67p9Vr8hoQ/kYI4mL0DIK72d6D/RkTFcR+kOrtPrEidTYbvXTNuYP3z33K1j1JONWqRdYHilHJz0A2AhVbljh/wGLJZnYi29elePDOoyzlKHCi4j4Ct3DNsIoHXbJBmuUec4+XRvQy4peWUd1ARCnewmA+JhsWJWLFpnieUdZDgAL0fYxuKTshmzhuYSWCFXFJbt8DzhN44cmEE4ziJxLN8iOgIm1qBdkYf1ZdNXdx5SxsYITfdvboLU4rzVyQ1LiTDsZ/BGWMZMHenM+a3z18PVCAC+pwofyqNlJuyXkkKEmHIdlerpQONeNIFygLYE4xXnVKN1okJ2dSjQ8aBAO+A+wNhhVtP0Z4R9sFYEko6ae19uIhac/zFECRf807td2NrZjKq2xr0lirx5uFVWJFB4O1HVpLYReYpIutIcA4PuNDLDtQDMCE0yFpW4JID4yxYwZNUhOEumxtgYn2gGU1o9Y/amPMRTTBq8RTm3dFy03RngAACbgp4fOXatPx25adx4KuoniFCW229B7hnQP1KsT3SMI9YpquWAz/VnkYMtroyzihhE64m1Hb6T6ja/BllVbftbjs6a3McQB0drIavY02Mo7L67gdbtj2lIkQBnoF2LLYgqmF+K25YcX7zfgefzZYboxFoIObzwtQK7CK/k+N2ym7QPdMhEAGdqP1ktt0XxDO+VXnUMiJ33VhdH0TR5vxQoJ3vEbtD/O+9gU3oFNNmioEiIZ9k1fS0gEuPGM7a4SpXYqOJvy8reqO2DDzbjWG6VZ0xFkaZfyWw0lQmRlO0sBu9Ly5W1b35FFk29dKBlT2sSmjZKukcfDwZId/IDhxM8kjc5yd9UJTMJOltW4Je3gyrBwJghpFlVyeWyhwv+enTSbWOvH8TQGJ7NqL53qb/X1dyfgYRstKD3R+kVgrEcuveVUbn7qlW7/GFcWEkM/435cnLZgWVNTDsREDG6g4/HvOEGi4kQ57e5K5+EbeFADLtumZT5i8/qhtrVEJCGbGyNEq5rlNSH6cqCzvgMvB7zxvfBVTlv4+9MZu23Fer/MEaQEeJl9mNtUXGmS8G2ds2hFG18X5Mozh7k7BAuaIQbW6rTsyBU12Yw8Nn0JHO6sQSP6KsZWDustfWvsizpWSIA2e7+KrI+A9ozgoVtVkcy72hPQdjd1liFHoNZQ8svzifqdpKvGG7Au9cjwS1YYXJUdOspmicEaGq51anjrycPmRppnTRZuH7KISTdtK3O/6Vnh2x2zUeFxEYoHo0N8AH04XRWgn0xuwrp8csLTsKClz0Ehak+9fhc067XnVMF7i2LMD/+ibiefNa0iv4KY5AMjvp9QIvYBSWOA51DkdqpBA1WZ9Kv15nbHTj2XP1rab7Ne6eO7uumNzSWFNp1WeEwI1+YjdzSp/lSupV3ZVJhcYdDp/1fJrQB+BadcXqN8ZbCo0eum0CilCv60eN0dWyMlhcuf7h7BWx5xUoHIt+W9n9H/CWuQmfCV145T3X43EFeiWvssIGOQYg5ABtGn7QLd6zAkWAxKnH89MyCLO+zx+AiAUrws18+wzssp3zmoI6p/IZLVS3OTmHrbe4OpUPt9gSm1tqDgVnVfmevoHF1FSuvRusPYWFjDmyFF6jQ8aBASuA+wNhM8yWWDZxSmBL80NUDw7e50VDcalfXh2kkpfzRKS9QDg84aBkfsnucvxU9cjkmQNtbmFGA9EYbVzev51cjeZ4udxRtYI+DRyvXUsDFRmfZHQPnZFL52W0EoNBanD6Al7o8OrC6kdTYFFQeF69ir2BJjJU7QTCxOY9Xx+S+c8m6PzmcsFX4kX5EHl50IXghgkBXXqiqCMXxjPRgaMui/FqdVdYki6F1/fXU/waaDRR+rOswpMw6NsOimnugZgOyTYp3oVj76yTczIk1ibm/FbPw/CeP8hWoB/zTZESd8mfHl6SSM+/oLpZEVbDk4bQtOQe3Yq25FTgMayUs7w49/JtjW7gwvdwQecsLLqVaKLK+pnrRBg8FPWKu81Py4DlKEmC4flS3HUfPtgEw028Ih+NJ10gVjPPDC0b6VzGexZbIGGFbB0bOdHJdJ/7S8G12/p9aApFeRJMsWc5OvS6M9BPGFlsvV6QICyLwHFPXuSCP8J8rbu7Pbds4jLX3j79B9Z63V+9vU+dqtDgijJV9uL6XGDzfySDqHxwgpFt1pN5fusnCRZu4EWcns9pi80yo8RofGepvBj2wQtIDDx6mHKBhezzPMhsNP0J6xgOoNINxc25XTHeppM+4dXPeby/Lu+hc4+bdLfnpEjq5TQ9YvxaXHsiaRnP+bu/iO2lTf+TlejLbegOtyOoJ/MpN1D2TVjCAOwdNUSwQDc9hGV92kGz3uoF5EV7Ltu68uf6VKOmVw4OLTNr1EXnZYaTHcJxwq7vVDnytXT/AONPKcTcB/1lSbqnEOddOlgH+OpcDIlT0VfMskBmVlxt/p1s3mw7giMMIUQYxv+3qf93OJ9EYEExYYX3Ysh585Oik6v3je99kq6Z3xd8WeID+n2f5f5+4id79lQJrbl/uWaOVHAesCMpIfB5DFpZYETTqThmZccSdeLXj34zsLphxHZPwvDooTq8K9SSp2M8ceZ5XfgixRI78NO0jjwO/VErryz+XVca0Xtj/oeADiflnDIGn+bL4EJpoSjTOdFRHuEk8EaDqgcjJ3qMtQC9z5kKskB5/HRrUXN1kT9zVaK8M3l2HgFu/usdVVW0hyf0Qhyxgw9Ch5CauQlxvW3M2c8KVhc386WqwVkaiHRFB3HYyw5X1hGip28jEwOCUiYq8DDDOvK5/7j2OOnXVY7pkygk+8khEDyQhSMZYoUWNwMHWBFWtL4qZCokzvVCx0ALG49lQtE0oRzFwn9Gov2XEfxXkcmkqCnjfnn/ecHXZhgsPKyD9eYzjRSjQ8aBAWeA+wNhumYE1Gxhr4Ayc7RNljXSvLmXVvGS1Hvx6vf8usFeGSde0Gcy6oOxP7syAx2Wcu77Js4kQ+TTWhZvUM2ZThwaQkIUfTfYZKiFczC6sUJVbugRWqtQgjUvs/gGL3TuA0nOu1e/9gznLUPSHTslonbBu7lcG/5kxsQy/zpsHUZdxXRt0P4+HZ1OtGmSel+0Q4v2PDNRyDFQZUZ5Sud7eG/EUsqCxZwusg5N+fVnNeSdWoiKD6uY+4Y5B/qGYthyCzq33akR6tyLhDvkE8XMgEmnPA0fKJIKvgP8tKPsIPAEIqOy06rsx4P3O6idc4MckHBeXVANCvxfGak3B6CLbujQULEVLHkPMRm2D/BXC89m1FIsCritdZaldqdqDL+dZpF5cpk6qVT1eUmJyzfuiciSQo1CI3K0HqxOjFxGJxvjtmGJL1m8PrfD/IF2gJy//lByiVCvTv2FLiCOTU+U937u8/fxpXEU04lAga7NXnhE3CurOh3J+3wuY9kvRtlWhUuXZiNMFqgVFCCgajSUqOgSRyd5WthAa4vq314UH/SvIOyQd8ILdy9DwBaoDc65IQRlyFNr3i8P4/6j9DsfKq9Zu2gNAXK0x2mqGC9skvH5jeGgfodyTyP8oIOgpInX8UwJp9saYIlIQoAqnafRs47V/Lw7f8pqC9htEQrTUw6DATVg+UX/6mcceHCJ3IPsLVhWFG+VzbAhr8zgknYhFaVLvlL1DNA2VtcvBf3NVgxRsdmuhdP5ThgnQYdc8ysn2KixBeFVoTyJTlpxCDSTjSfTKNmeLVzGQI5MdmnbfvdWe5BnccJyxW2kK90LGdm1bn/bqJzf3x5yqi5RBU88WNVjYYX15BN6u4nOfE+uQxad9W/98NYFpoJCj9sWlNgCFYsHEY7LpyQAvJArM+kkv7+CvH8LthLqmTExz2Rj7a1u9r2Z1xc5n+zXn5zyW7vubu2vuTTVN/kRSabc9zGtvDM4dlgn0EqHQP98UjWAa4ZyUDxSJy4L8vK7W91VQw+klPpNjyqK+kwdCyRXmnQ94Afe7qf/T1O1fFW0nwN58NbeGCnkCwp8GJO4N8oBqwjAWm9mBA7bWlJI2FXWQcezS0NOKc56RcQNc4EyPrmHUggAaj/QeVSgRh6kbnc0CnSJNlWabOs+ErYe7C1t7swuLbIlHmqFVn1ueExBCuUJy5a3Li3HfWlfTFzg5qG0ZIv9KFkwwAqMmTen3YMRp5zs6VhopudKGOH4ZT+I3+Paq1sRpa9QEoflk/y/LOiYxKp+uGWjQ8aBAaOA+wNhM/YuvHkzvDqO4eadWTGzPp9+sb6gd82TNIjHnxP6YCgTGUH33gsLVKUL0vNxfvIY5H6MoL6wZCxGvZ7+o/tjFRytss/w7c2oQ9KMAMaVjOd6F4WwIFfgTzQ/MunURVWqTGHmcmG9+1mhD8xDyA5vhh7LYdhz7vT46yl1+YFuV7SycAWeTSgFKvJmPb4Zyt3RVem33Q5J2FmECMjO1kWj0/R7NamaN4suzI+UdJI3dMsKpAv3vjUym4Lp198UN2Adk9fCHAaL9Ylc9QXhzXh9dS8ubucYi1n7S0b4DmRsl/JBn5R6m7KCNsyWd0HTPHN4VCGBx3YXxriefL9hTzE9yoLRf2Ie3t6hGus4Skska8F1QHZTEdq4qZEvwePJmM7bi/aMDbWeCQBXy54ZoPx/slN4+4jN6D6SqQH7hcAA4GGTDbJ/ovnUlmmmQnM+frUXDi/4TVccHdN4vqfnjGNZFyv9Yeq3IwOio7V9x2ds9hYPsFSCNI8u4iH+kE4XWmEOSwFhGyeN1FYn+HOtdrwczj42WyCWW/4S8d1niBKjCJdOaAb7AtsiReNm5BPYaEWQCVqu6HlHKuHj9HuqS4E4J8Bk05tdr/hwAyfZc6xOAb2SkT4oQZNQ9TjWjeNQL65b5wvX/O/FUi07GRgj3LAo1GecFUn/6ZWms/IHYmdaoetloko+EOmmctoqwzWjIZkX4pMz1Qn1MM6Ycb3If933WIJyUSZVoH43LE5OQmvqtHlrFTSHzsAufGfjjCJ5fyFaS/icbAi3GuseTVf1j8U/+pCn646iy/H4nz6lKW7cP5M7uk2CIcoGwi2NvnWU4FhGuWp6M76QnB/JPfwbKBlxYbufPBHfJmwHT1IaHrpZezvJ6CAK04ICcaKWhYOZ5uoGurlpRxgJ6KckwJI0qoSfusht0U2UZivvmEa4qoD87p/ev+9rZnkRJF0Cd4LgeRImjyV0o9Me8CMr+30tUkNe376LJGZetJM6q+jZpxqZ+fSqPEK6zfpqx4w1w+u1CxhcgLpGOmp2sd0vDyDzEUEyxkJUkFaayUsZc8Hp9zR1w6d7NlBs33Vm6ItkKrf56t9lj00verSu7tzx9UOQZa1LCMjHBYRdy9Bz5iqepYlLVH3/83T5DM79fE7bYzE8L/pcimasstr2k9xlzmyjbuYFPXL8CgBEtYQ80SSgKi3lecdgGwWandSuQfco8hTgtUabkbObqkwGy3OuhLnj/xdrDxBnRWexIt1PtyHOd19VQmwjy8wcwq2tSXdxDBgiWr2jQ8aBAd+A+wNhtP1dBqpkQ4+7w10wsat3CG2zbP9Gf4lDBJgTNja2yYyLozautm9EfxAeTS0BtmY0VvRw07QRRjqcH5ZUn1hjD9nrtyVP5YHKzR/irGzC1++yZj4dWsJgmx9cG00T0D54FQNKOs0qj61Rcc1aYuaJXw4kZ89kDbn6Fzj30iD31kX7goThiNd1qERSlPxLD+aI4W+QUqO5VnMEtXIMTBRA2RimRumvmEJg/xHGPkNNHqyjop3swQ995z6ltVeY36lDQMnwfoL9lsntUOEMgSeP/YMH6pshR8IoHyAUdnHD6iyl+FWBVoLhjutzhezwJ0++TjuSsCuAqExS36meGZ50NOVSEyHoFmlCgf83Tnmc7WVs06RW4T1mDIVJPFEkUTni6C/DYxWBQozIZEY0s4tT/EHW4Uga6CxQqzqjK9eTzmGF4C19GF+XwSvyEvEHKFF4G0FRBK1aqFToprgmt8m8kyqFzf+cwU/RtH8iHVdoMAxMRPc50wSWYaFI/mkQ59MMHptBPVJqDQmuBTKToa9uUBffnafwgjRtlL/0/oevyI2qJorQwWoZ8CZyw9JN0G78TNrH+qVdKRvWt+mJXqeuAAmVgVBXptTNsHIXXUAfRrBxZLiedYfRh7UYZz1oW2Ezz4S8laqEGJPihDvWMJtYd5LBiUEaNk8gG1x1C2WeKH53XglxxhaB7xFSkLIkkAPP8OdtOwvY8bMJNEWh/inQVdYRs3PmJdI+x2s2SYSTXCXMUl7kipgmPEZmFNjOOKq2Uh31OpRNpf2dSJWbdEKy7Thl1NDPpotCFIpy5TQrA7aTyF8Pj/f8N8bOGzurV188/9SAG9eFMEybe7w8AZYIYZL1eMXwXiBCBq1nU6WHWj60RXepbPSZuTbqwO8uSprQy+EtSNUf8sl7JzwsK/WRF4XlcypPajKi7Sjy3rE/UnGHtBZOy2Le4cjuibL/AOtu3oVinS2LfQ5jYHCEq4mSGuI+TYljp0ROFY1zZVhHCo+IS2gWyxn1NSr3B6oCNIBXSTvlttJDPR3yqXwwWAFQvZ6L2GRjVISlY45Dulc5nGNGGQE24eDB190yMAo9xsJiQ9W/4uzkKy/u7cLqQhGWI7NVUWFEYs0CtxcER/beBqDBQRHDWsxUb1YdDcz96S36Mdlfsi86qwhZSfRsl5yuuwj/MTslZiuNfNgoOWwKylA4VWZdfvp7KbVSBMsnUPfMgO0PaqIN8NDk8j6aIih67tC7nc26VMT/hcTDpG8axAv2lXchTne5YKX3zO186bqjQ8aBAhuA+wNhkwXxsGU2Uq8oHDJ8RHaj/P/aA+P3tWEun0plLczfMePGuNo7oFtenQZvB9Bpu1TzCBi4osTcvNi5rqyN2Cj9hMYMZXWrDCgAZFJ5SzzbLvtBrlPn5qNiv4a3OBaKFosn3fDeG86hToPepwLZX3K/Pyy06WpzFfb+5U3CyNlanGB5AKsmO1KVbMH1tkBKPJb+eDKjxbPSoUw769B3+j0TJPRqul2hllTLb1HtEO1wfDUtwFyuTmT6DZacehmVC/9361LYFfUdabOWWbW9C+0xy18p4sXrE7ZTOTn2TnNaPJBK+yHKdrzBO5pXTbbS8WT15v9N7XYdm268CZmlk8JbDV3lja2ygGY9PonnQcjgq5Ywkjq4KdaevVSJ1A8CvpqBpTpTel/6CpXzjt204s/XqXN9VbDkki1bSIvJVOyr4GGFYHiXUcXPrbmKaqSrXMmz8XfqhXm4fQWjf2rkH/F+V9i8z8hiSaMMhm55eWADcHvT/fZTf+LrdhFYuPgf6lxptICcb6qUJOImGs320Iqh9XtnwuQUtPZZTSmomrIxGLEfSHdKb/T1IRaI29qmpTh3N4Yc8h5mp/DOTK8SuOvo9aKa85WDg64XE3TBMsxuEUPKFALDW+1Q8l69naVQwfrGMEnIQGiodXkwJF9CJVQpPD9njymYxi6x0F/43s+yuZtepi4NCnLyoPMEqYPD0BfZ+ymYE6bTVUhrkY6g6Z7eQIwvFvqtjoY0IzdSIENSq1d/T5JgE+VAAP8j76acFw60wXd8cddDUZcYJYSVRlr3IO2yCt57gPNTf6boJoFB2RY7RhUnQWnY6m4iUtRejPk8HLzlVnIirUHOMdFxTONJYbppL7ksQ/2701CIlavQ0NoxnBcYOObS3A3ktYxey8Ll2U0kZXMsApWn22Q3F59+UgrtRpEHeB9OpvrVPiiru+3gE4cgnkdursIqG5Mp3pdmH2dYowRjm6p7nyvigstSeGtj/EWjj4e2/t6F6+yHC74eJnC3kTPa0f2aZUMY1JrFQylemOFHvYyFnk6yHyjcw6VnViif+oK5Si8sKpYpFqrfDihS78GLqFqmqi766rcl0x6i/1zJjNN6/BDonJCvdLuHEaxaz6YwYt5F6ngA6ltlIR1RiQbDVKCSn0fWVgQvfe5hHO2nuVNZDspl2K+6To8YuWRJRLqrACCrwQId51ZGLOejQoAnnE5G7UVOU4aMDaHr7/7KtEiISwxJaoaNJ6BgeBnOMlrlJDFtBKzpsZCDnyKBSlcuTOGG+jWlr5SjQ8aBAleA+wNhk54pLlgV30PTykNmtR7hzBbbTls3Z9qLPhNWtFnmr+lBuXLZcMot+3uVLw8q8MB9usXBBw6EnqVSj9Z2JFadkLmNZc0TGCXT/IiA/JsZszvQZuW8PvGI8hegVMWT4bQdgv/TqKxD32FJzQ2fdz5SjlQHV/HesZDIJg+eDP3jQs3SiWUi14bo4Q/UQvU5dA+JBfR88ZsV1RXJKVbsN8+5k3X7M1fZnldF+xoS9PWK2OUznslqL1RkmgPqrKuq6gi4knE4PYRGuZjExS+57f4YcjeP+ZXMDnC9SbB/+YoiSaPNV3C3O4WWDHNHu7SgGYTwhaacz34XTvx04nG/mZY7/GoPuI+OfT/cckM89D8yg2JvWMTC64l2ABLCLREVcjtkNvbk0tdh9XkRG/5GlXxK/nwzCgxQJK0peWtCyqF0sGGTtj1+Vx75psnlSL/+Pt440wfenz26Bv6lS2CEb9qB4f5+yjwzWUHQQo56UhN6S61EGUaXmhWyE4MHcddxrWPF5JklrsUgqkSzA5CYWpMUO7UD95BedeVxP4dIprng33TIxZcf2YtNVTd4HkUV8SBSfq9AjZ08o5DmX70V6UXCX4z9PYnSp64sYlyu4obXnNAsrW9cMUEsjHOnwgbSFInr7HNMMMmSqd+HUm1f4WK4TTsaYc9bMjmpOYUaruhV9br6bUI059UMBk0UqaQZmhqzSd8gWMiK3G00tEKmr/160kyvGZGBtzLQn/79fANElnxX5cJ43ZtwG1fn28+9t7/TFCneXDmvxqubSygaYeW6+/MTcVqGwntNiontTIyAPE70uGg7Nw3h6d1ogfIBLSCThBzwzpymK0+KW1reYIa9YbTkjFTehdFJDDPvhq9T8pO+f8ULV8pMCV4T+dpvsJztj64ybYtIJ1shdTxmCMRdds8MQSgXJqKqsgIb6SXOkekSiVWbRu7Z5YJfXQyK7Jym3J7v3TYBEfEVOGaaqLDNzaK0PZlDEO+L3Ws26kYlHxO9kevndaMNCdMygzy/fKnXKZKXRzwwPMMw+6Z+EEE19w/zCK2J39MtTdDhbghz00WdTbe720ILJxSdYDpN606orPie2ePTkttFeDMK/GLKY2MP27HESrnW1+N14bwOQ32dIbStT5GDekDEhbk9XlzM8jT9CEK0PH9W4JOdS6dIR/L7vA/CAj5XnxxpQ2F+yN0cRNJ0U2rZuP8O1/p4UMfeo2BZhiJ6Gi5uTxcow1Fqube/xqS+IwzUEA/64V8NdtuonCpf54Vhkxb8/7Q1DKOjQ8aBApOA+wNht1Jb45e0xqVJ25L/P/SEIXFW1XbYyC76I+HF45mfv8HQWEizVrf9K41R2GNe6A580b3r6LG9oJk7yaSHsXyL/oqbIW/1WDLDdOCJO8H/jmd+p25Vc6nTXUuhRJMd3jMeSSYgS0I7DWT6aPHdffrUXysUjKzdieERT9mHpL1t1oO4AvG+qXCTbSzErKKvM9Kg8idg9KoQndVFd8Jp6rCqJGQ4zsLIPcpXFJXcrnL0DUosu23FCtmqdqwM9hPOSSHqjwr6qJymZAc9s7a1etHcN84sYJ9gga+WVYgn7sGQ01pFHygLOGI8xsukhWWo4yieCUO7wyJWKIddLbK41suilRe0MKxnSXr6Qhns5Q0rcrl5WlBF3MopPTGLYRDLf5GNDT5XPxW246ZZ953v1Zb5NSPHhtv2NJo+mqEYT/RVg2GTBecSLXLDRoPmI2XAO/gbUvfkSZ6beKGgiXuuvgQWPQ5UAhyoeVWmfk8kpz0R3AhW4TNbwJHG9IPgcN/S9RsaKmyL5GDuebX/1hMWnQUWINz1MBjGA8Y4n3r4zoSAEUSQ0WhZ8uIrcBFvRF7yq5T9vuFHj90yAbkCbFvI4cM24bo1o/id/jPKovZmhOyT49f5SDjMFRLB5sCBmVe6WLnnd56OdcXhTZ9P90p44KEhk9Gj5xkp/15ZzYabjr5Uzb+q/dp1e+D0NZgUmn06WPTlhhQzABdYmKsJf8vrBgBs6kaptLHjb71pvCX2AtnFugqtkIYXrxmM3C1Ov+yalWRZ9FfCpwU7z5hwAGbOEGtpPCRGJ8frt3r8q3P81t0kkS51hoE76euuuNeNcn/kdgsX0Dd/7IDIq0q3JXLlZTfyYbqNOuOxr81p7zgt5p+cDc65VBI1FsTHj0aRVjovr3VQJfoKqqWRJIuSm37+eHVci7zKWqjnuOcplulHxS4YGKakG3rAxTVwu6Z4EjauD6FTWi9r7eh7rz1IbCNvNUQP52vQV3hWrRgShPIFBnPRydkFzqAp7r4HoTB83qW4Im2C7a5gEjoJ1CqqBEUFWZYyQ0+PxonVpBtUkJ2AEIY7UZ07cZbZScMMFvWM2BPZnKNlT3Xgfd8H7Oz7jMJviEBTKL5FY97az9LJic4/DHeyftZv71qBPVch8iwR2SMbHjegFD3d1DGFLFVU1v8jyOzx8BwvFzkS+1rrZH2VXBgsfcH79hjG/C6hnK4FCn9zrSQOJT6Ow8Ce16dzNdCMhQ1HwAEAKzu2QyCb7ELKQJ3PiQw0U8is52ctQIZ7TZFDoTSjQ8aBAs+A+wNhkwYEe0dS+tm5oqkfqQ7r7cwpk2Ud1meQIrL83fMu0YBpwYU9sIc5ew6666vcdtoMCe56KDWsGUZEM7CpoUOp/qJQ3ME91feum4vcVeTEP6vsy0/LYvWN97rl3E75KYfOPHEZ+NmrnXTLSODRlx7YAfIbR88nkaeFKoos7I9M0HfCJTG3Hs1TJW1GfNjCZWWyu2A1mx/rfkMlaua7BXx5V/A8d0ffbEAhegUm+cSzrwE2Z4fJwQs4ugjyV/X64RTe38M6WUJN57qYZigW/K7ugZwmVdSiLNJhwEBWijAGunYWZ+JZggkK+diLKfv6Wv8UJIxEOXTyeDu0mLnG7Y6gU7J0sjdvCT9pRgZN5u+HNgVkDiWuG2NTonQAphm5ZekEzUgg2oL6QnEUOZo9y77F+SQ6s63ARKwsQ7Pkkv6iKWGGeXb+4exSdRp+tyxqYUKBPzvyJbchSMCTTAAqlx0W7aZOBCdmAyBwLZHD5JCOY5iMOTfni+IR0aVrJlkD/ut1QIYYfDXL2mTh/hNCSbXfu0blpLkHm+Vo+m1k9WAfZ2Reft1RcYuMCoiiroCS3MWmhq0NzGOG1RxYZChtUSHzcnp5b/SZI6TqlKhdAQYmvtS76OhOD/BJFjzV1mRf5jms2BrKRG1KaviWpchRZ029C9vna6IaiVcouq+DCWfTqpsW7vaKc9s0KUW/rsbZpGamiVphF4VSA+gGumNGpkjT2esWjW/qrh+VB7+WcbrdYN1E6KUze/UtMzaoqxbkjQ6XQtxIDYJwaa4yh9Fp5w+xg6/PLyxi+VO261FPfe8BOgj8xQMK14yhDKKfpjKifoMa+cgMvbLVWl3/Rzft+e8JYYbeu0qvZZ7izmaa0TvVPoe3QEr/+M2Hse6LUAaSsQkSIWR7YSVJy+A01xQc5kc17wqWQX8CPM2mGhdllkRgezns6RHg+PuRfMtmkh2tvQgdDPgSbbGeWLK25mdGCdQcEh3Z68cR5CPXpGvyn2MqY9Jk5fQwfVA23cWLptGte2sr/wdQIBeC55BRb3KgCKxVhQNQKhk3e+gBFFvllk98nRHYXbMyGts5Iqu7UApP6acSLuNY0xfnVQob1DUfNWhvvr1mmSZgwGaO8Ei5fiASbfs6Jq74/oSF13Rf1cXK9rIXr4TQenlYdToPwMslsjmXSLyXD+OL78GfA0X5wQV7ZHZe0mzCi9F+v9CM578uCFHfN+2FuDScmJkjRPvoNo/65VcI7e0hyZrH8p1sObCEynqmTDrZzTa8XZo/DVoN5EU=","4"
"","","","","","instructions","18","102503","0.0-7.0","8cz46cy9hou3eez","8cz46cy9hou3eez-2024-04-14-06-08-58","516","","[{""page_index"":0,""viewing_time"":515}]","","",""
"","","","","","image-button-response","19","107007","0.0-8.0-0.0","8cz46cy9hou3eez","8cz46cy9hou3eez-2024-04-14-06-08-58","null","","","images/schemes/restaurant_scheme/restaurant_1.png","null",""
"","","","","","image-button-response","20","109718","0.0-8.0-1.0","8cz46cy9hou3eez","8cz46cy9hou3eez-2024-04-14-06-08-58","null","","","images/schemes/restaurant_scheme/restaurant_1.png","null",""
"","","","","","image-button-response","21","111526","0.0-8.0-2.0","8cz46cy9hou3eez","8cz46cy9hou3eez-2024-04-14-06-08-58","null","","","[]","null",""
"","","","","","image-button-response","22","116042","0.0-8.0-0.1","8cz46cy9hou3eez","8cz46cy9hou3eez-2024-04-14-06-08-58","null","","","images/schemes/restaurant_scheme/restaurant_2.png","null",""
"","","","","","image-button-response","23","118753","0.0-8.0-1.1","8cz46cy9hou3eez","8cz46cy9hou3eez-2024-04-14-06-08-58","null","","","images/schemes/restaurant_scheme/restaurant_2.png","null",""
"","","","","","image-button-response","24","120563","0.0-8.0-2.1","8cz46cy9hou3eez","8cz46cy9hou3eez-2024-04-14-06-08-58","null","","","[]","null",""
"","","","","","image-button-response","25","125068","0.0-8.0-0.2","8cz46cy9hou3eez","8cz46cy9hou3eez-2024-04-14-06-08-58","null","","","images/schemes/restaurant_scheme/restaurant_3.png","null",""
"","","","","","image-button-response","26","126591","0.0-8.0-1.2","8cz46cy9hou3eez","8cz46cy9hou3eez-2024-04-14-06-08-58","1520","","","images/schemes/restaurant_scheme/restaurant_3.png","1",""
"","","","","","image-button-response","27","128400","0.0-8.0-2.2","8cz46cy9hou3eez","8cz46cy9hou3eez-2024-04-14-06-08-58","null","","","[]","null",""
"","","","","","image-button-response","28","132905","0.0-8.0-0.3","8cz46cy9hou3eez","8cz46cy9hou3eez-2024-04-14-06-08-58","null","","","images/schemes/restaurant_scheme/restaurant_4.png","null",""
"","","","","","image-button-response","29","134123","0.0-8.0-1.3","8cz46cy9hou3eez","8cz46cy9hou3eez-2024-04-14-06-08-58","1216","","","images/schemes/restaurant_scheme/restaurant_4.png","1",""
"","","","","","image-button-response","30","135933","0.0-8.0-2.3","8cz46cy9hou3eez","8cz46cy9hou3eez-2024-04-14-06-08-58","null","","","[]","null",""
"","","","","","image-button-response","31","140876","0.0-8.0-0.4","8cz46cy9hou3eez","8cz46cy9hou3eez-2024-04-14-06-08-58","null","","","images/schemes/restaurant_scheme/restaurant_5.png","null",""
"","","","","","image-button-response","32","143885","0.0-8.0-1.4","8cz46cy9hou3eez","8cz46cy9hou3eez-2024-04-14-06-08-58","null","","","images/schemes/restaurant_scheme/restaurant_5.png","null",""
"","","","","","image-button-response","33","145876","0.0-8.0-2.4","8cz46cy9hou3eez","8cz46cy9hou3eez-2024-04-14-06-08-58","null","","","[]","null",""
"","","","","","image-button-response","34","150877","0.0-8.0-0.5","8cz46cy9hou3eez","8cz46cy9hou3eez-2024-04-14-06-08-58","null","","","images/schemes/restaurant_scheme/restaurant_6.png","null",""
"","","","","","image-button-response","35","153884","0.0-8.0-1.5","8cz46cy9hou3eez","8cz46cy9hou3eez-2024-04-14-06-08-58","null","","","images/schemes/restaurant_scheme/restaurant_6.png","null",""
"","","","","","image-button-response","36","155880","0.0-8.0-2.5","8cz46cy9hou3eez","8cz46cy9hou3eez-2024-04-14-06-08-58","null","","","[]","null",""
"","","","","","image-button-response","37","160877","0.0-8.0-0.6","8cz46cy9hou3eez","8cz46cy9hou3eez-2024-04-14-06-08-58","null","","","images/schemes/restaurant_scheme/restaurant_7.png","null",""
"","","","","","image-button-response","38","163885","0.0-8.0-1.6","8cz46cy9hou3eez","8cz46cy9hou3eez-2024-04-14-06-08-58","null","","","images/schemes/restaurant_scheme/restaurant_7.png","null",""
"","","","","","image-button-response","39","165692","0.0-8.0-2.6","8cz46cy9hou3eez","8cz46cy9hou3eez-2024-04-14-06-08-58","null","","","[]","null",""
"","","","","","image-button-response","40","170209","0.0-8.0-0.7","8cz46cy9hou3eez","8cz46cy9hou3eez-2024-04-14-06-08-58","null","","","images/schemes/restaurant_scheme/restaurant_8.png","null",""
"","","","","","image-button-response","41","171692","0.0-8.0-1.7","8cz46cy9hou3eez","8cz46cy9hou3eez-2024-04-14-06-08-58","1480","","","images/schemes/restaurant_scheme/restaurant_8.png","1",""
"","","","","","image-button-response","42","173501","0.0-8.0-2.7","8cz46cy9hou3eez","8cz46cy9hou3eez-2024-04-14-06-08-58","null","","","[]","null",""
"","","","","","image-button-response","43","178007","0.0-8.0-0.8","8cz46cy9hou3eez","8cz46cy9hou3eez-2024-04-14-06-08-58","null","","","images/schemes/restaurant_scheme/restaurant_9.png","null",""
"","","","","","image-button-response","44","179274","0.0-8.0-1.8","8cz46cy9hou3eez","8cz46cy9hou3eez-2024-04-14-06-08-58","1264","","","images/schemes/restaurant_scheme/restaurant_9.png","1",""
"","","","","","image-button-response","45","181082","0.0-8.0-2.8","8cz46cy9hou3eez","8cz46cy9hou3eez-2024-04-14-06-08-58","null","","","[]","null",""
"","","","","","image-button-response","46","185637","0.0-8.0-0.9","8cz46cy9hou3eez","8cz46cy9hou3eez-2024-04-14-06-08-58","null","","","images/schemes/restaurant_scheme/restaurant_10.png","null",""
"","","","","","image-button-response","47","186823","0.0-8.0-1.9","8cz46cy9hou3eez","8cz46cy9hou3eez-2024-04-14-06-08-58","1184","","","images/schemes/restaurant_scheme/restaurant_10.png","1",""
"","","","","","image-button-response","48","188625","0.0-8.0-2.9","8cz46cy9hou3eez","8cz46cy9hou3eez-2024-04-14-06-08-58","null","","","[]","null",""
"","","","","","html-audio-response","49","192845","0.0-9.0","8cz46cy9hou3eez","8cz46cy9hou3eez-2024-04-14-06-08-58","1620","","","<span style=""color: red; font-size: 24px""> NOW RECORDING</span>
        <p>Please say out loud the list of the actions you saw. The actions can be said in any order.</p>","GkXfo59ChoEBQveBAULygQRC84EIQoKEd2VibUKHgQRChYECGFOAZwH/////////FUmpZpkq17GDD0JATYCGQ2hyb21lV0GGQ2hyb21lFlSua7+uvdeBAXPFh8Q2ZkN1VtKDgQKGhkFfT1BVU2Oik09wdXNIZWFkAQEAAIC7AAAAAADhjbWERzuAAJ+BAWJkgSAfQ7Z1Af/////////ngQCjRBqBAACA+4P9Mv0KffssyvnoeWQXc/477WtFvJfUMahm+VUOzwuA9wVj0MFJLHmQCYWQV/MQacpSV/bubtcOf1twdM24mO14aE8Em2rXXmLVn/HUO4/rDv+1/c+3WPUj6TzUZtSfBbd4WUttKmeBXsuEgprwFes2YEFKCmXafNHIsp2gSrdp6BIlcACDdK1NVjsEjMoxw7FGyfmZheh8xGezRV75ufxCm4R8K3BPXEyhd+YpHFWhq7FS/lc8JKrD5hQQhmMaC7CgYObGQBtTQ02Itwkj4osfhPsLyAAAAAAAAACbi9d1OshGFuUPTc0pblPs9mkGh0q8lgTeXULZ9iOoh7t3JchCEqj+j/D2BL1CgUPGxqfb47nbtmbNr80eIOO06QUXkJjgUFa2lOHeYDn/MY65hLgrMJp39DGg8AyhRnJsAPs3XSsZVSHT/B/WKGdJoSDo3wvTQ7UM3RjSyC8UH+bBbMt9ntlVQTf7qD9gtL4K6bEUWjEpihgPo7OjMN5Y9ihwWanpvotjm0EDcDN2weN6/NpM4PMibVkHC6MscTNUKbvZAlDDRp1vRdE7NYumdMtJib1ka3Wk3BgbcaMRwDVZsmnaD8cIALiMoiavYZMF5cXwGPs7F7Rxpr/PG/qXMUSnJUg5xYostAdJvl/y43LUV1mzA/nUefzyO2GMiWzC81Txb8sYyK6HQgaFM2SOInqvzclpw7nddxvZkg8o6Ph73B/FjKC0d5RwanpFBUygQrU+gHtu490uoGfmOkDVp/ihb9lRfsGGwQN+b4Vkxo+xTnXakxEnlnx11NW3WaSK2PDeo5nP/M9QK+AQuQIlrzKte4MrG6hV1SAAzhsVaGksvYN6M3rrRr8rs1nICK816JmoEgQWfwvjur7F8CdtODCYTR+tRbxgAXO/kigzXCqvpYJrsXOgxjt6jDYCX/zmMcizNMGcfY1qNioqvUkQfto1nZYHnYJFNSHBXu1jV92Isti2H6b+NAAhtwbRgk3Rj2JhNQrdTDqbzRQuW4718r0rRzXMpJmQAyBs1aPiU5F7OiI5PFWXkOU6c1HGNqeNIujIPU2ce4lLBBjKNNd86rPPSgOLgukrKaQ9zPTuEORqzi/isKZL/js59nPDOcwzxMKS1sWHhFSHlkuZr4eNdk5AujDbi1TqARuBQJYfC93blDci5S7iBmEmWa5WTyLxtNW8Ur/a7iBQwNSGnrEkQwnJ/8HqVLzIZZIA/9wOWc1lygSXRYqB8P9VVIlS1DvmzD5PWWR31CPthLKLMaI22Gd6VXU8dev14XWHTxbBX/si/3tharlWtJ5UCDFjSKqNDmAXIXr0QQHSAFF7scG8CkHWpTosBJpjm1gbZeFSrHpNMGH6DNlQneAsUUkHZEJUfOUstNXmeamjQ4KBADyA+4P/CvwLYTUInwvwEGUV1gWtO5gLZgV3AWQxq9dr9Pu07Uh8pcmiRecWaTyGEAzomzeOjGOpeiCuX3ulEFlthpHQc9H2aXKg/jmur0b/n7RnGif6qXm82MZNMlS5UOjsk6oDySiGvU35pNPifOQixAWHX11EMSvfXTLQi4muC+od2/id05uZKXXwXhvIa8k09HJRFMmQY9OEtHN4vpbiPcGJR6eKKWgRkKsCNU5MckIDMwFLy6z9WTGcexk+RAyCcmLsnKidEDN3zXduyoJeqpmwrM6OkOVDOSMVhy6jWXqsfQOD0MrEqhwJ65UORWxkUqocMLsVG8sSiRFe9EpcCj9meg2DRJLK2bDg6XUPTjpU0ppZP+M56hgZ6cMaRxttbYqz3iH4dutgcIrtsGGFvyxILUHHjv78RmYSkTUiTgcaAYIiqw7yHmaNKJAgM5Eg59uNm6BLc4ZqlIXW7mtpwF8m7JYLep6aJghJ0oEyc/jAV4K2M4cpmZg2d8SmiZQg/SfK231CD7TWIndzEiqfwnLZiWMFPs7CQs16MmnrbyZQmQFpTrdlWGODkEtQm/2LHx7zUKlk3hpYzwvXrOaUrwzhvsOSLE2jSBt98ZDRMwo22L4H/tIrbJxB9snMhpmxiO9nFeT3NvgKIR45zF/TfV66i3dRzNSqWNZuL3wz0ogCwvy3opN5S7vGXD/98e9Trw7jXNS2Ln1++xCffcaLwv9GFSM8dFu59opfEOU0RvirgBST15bbtIp16+y/mpKZKxaRHpbM3d1opTPf5SWMZQfnDn8lYZPaZ7jRaMM7cNhccloSU/FlOYpTsicKDxwrEcsgzoi0atWUqFXilfp6YyeVvUepnKfRhz+JPS2Wsgv5IuKzqlPpsFvw/8iPe6voSVDJmlyzjSSMSJhEA4pDpQ3TX0DIWksnYwsVO4EMGEmvf3Xnt0ucmvX3GWeI3eJTxZtNUdkSnzvPFVmerSybyZsOixOqWNlD9QtXq1hdEzS4bsuOIcxwJZYZ2InoFudj043+MLO8jo9ozOo7pV7XXRWb2M8+1K3kdjcR7bGrZOgj3zVIZZ8BWFWdhCSZLydXyqiZ8hKNAY5wrw+VuI0xRnGodPL8wLLY+sOQcJIB7mhNFmQs+6H6mS0bAvilcGsUxBPqQ0R5Dj0LykBl9kSD4LEpfjmq1fSmguNb6vFto0PCgQB3gPuD/A/8EWG6h88Jri0iCcVVHpv44nG7wc4QgQhIFeeWvWCLg3FNn0yIQB98k700//FfPiUD7zHcuQxkhrQp3t0zJ4VEldp3C4iVvTvYqgHiBLhTmX7kFud8JTlg5129JQxa8DEN+0sAanMAjHhcbflDP8cm9rAFVqYVqH5uLlOtXks+vLn3KbQ383Jxls2lQSzEIVzDHdPliEr8l06EGyNItDSOJOn18KrPsjD/C0NgEDhfRZbr6trWxJae51bxh0Q6ZRN1zVaJ8dAKFkMXwV8ITMWLqKwaL4NqGFFagXjNo7e9WW/RCpkIuyGDT/JzkYEaooisQ1zwHm2R979FqOT6Ld308mBYw8+Heeu8szY9NehWbzngBZVxjKEOY8PKlmIezIQos2KXpm1O8uOS4cyXkec4a0PuTJLTcKmt32G3bggPy4rCuaKqWsDBfAYLGuHuMqIb5K8v7FOJiwSufz54tys89ieOZxbxS2DYn/JFsDMOthutxX56o4+tsNpnZisJ/GSUq5A07DSL5sJJx96kGFVI5BixOIRrFYJr9gZ2fnaRhlWg7pRFW/9xy7hP3ulZNarVheiiZiD7oIk84/uaNKmsnAAl7BU9rXnukbNKYygEkJ2GMBb8HYXz8KflSLscN8bi/lNnVOpN7tmSw1J1XUGlIXWcWmXzRlKnNkdG1GadqSIiZg/tbGbm3TLHkG00tZ+6TTlnYoOEoU6wsM0KbGuWomzfl6upStcB/F30StwIMO/UEZku0AoY72BMevmA+6YsmpJMRiRFGmAL8c6DG0n0Ak6RqoNVPUk1Hex5pJiUx7PVq5/bhzrvgCjq6Goc5Z7JPCuMQObR8UFDYYXRlWUh4UJvPcHpu6yEDSJU5M3+HxgLt+4QlK3YS/HqvbRL3ZfhMN0+sutBwfh/JKyI6rHDqc0sGjnLU24oAgG2cXYA9TUWdjKENG5I4IpdlWVHNSSBbIMoVpPChZzUuYyySfIuP8YXOPvH627e7PdQUGHM8AWHm7YxWa2f+8D22wD4GPjeTQLgpDHJwk980yd03/0UfQrKLUB/OWZTk6hYiM2azdTN9DftHRQ4M7H/zr3tCY0xX09SzSJdiSA4A+Q40SQyFGtvR/OG00wlaYuFnL4liSLv6xw2oIyp5WO0BPAN86dIpWAgij4GTsbKZxhSPCLTyfzG2+O6kv3l2uJMTVVRCRxGhiYoioy5IUtvI8JvoH83U+xuKHaIhfrE0AYrsEDsliB5BS6YjRUetq5qeY0qpgEtb9lhRucMmJGjQ8aBALOA+wNh0CJ8qLh6oUGHR2XHIMycR3bHHeEHSAdSp+xl3RmNP29F7+PJbvvEngGRB8UJgRzIsz6WmQvvfiOePUK6e4F8YNyLcXlbtB5jTzjr9gIfXb2tJsE8jBRdcoMugEEhV14HBsCi8034GzziIhHqzcdLi3FXqrEfZOEYjMuMKhvnRqcYs8erTSc7R7whnjq2//CwV/rObhK8bhPXFcgJlSQfcAPeUQjNOeLwltTw/ubp+y2txnvYbdl23cHMhvn4psY5CLKiXR/uAXoIq/Y9ynHSmKIY4QqssHgFp1S0gzv1BASNmT1MoCoObaqkQfxSTruIe9zSfeMRUiVbBZJLXP+hPJb7tRAb9MBxF295Aut2aJ5XsrsJ3Zfeb6jiHGC3yzvXXplTPJzQfpc1RhrsPAE/zSI0ctE5frstW5mIyRbpZ2GFWoD3ZtyzzQslOx48SAXfQkmIx79TgxJ9QdU5OZyDlQDX7DjTYOd8hh9EZ+5B5sS6ekdrj5CiWZBGxv9XcsqNAdLhQnda9lCqtRcP9hftlP3QnnFV4mBWjoqSYk4HsvY4r0aMigUm80mRhx9mSC5qEDg46GR5+WRp0WmHKHZ8D+Z2LKA+ka0XWwJ2N6/210F5Wr8lgbO4QX/rdbz1HP6RtQVpZlr6r1UjPVxB0yrUJ55yZDPZbGFXpVeXeusge6xknsYQooDN3VCwDeksE7xkHufJLxW3UJbR5PBjr5t6F/equXT7ySHjGmZKAEmM3Z8tdZOufrOUFAPbtP8/m+C6PFJVVWJOOCdrdhNexkwj1Coj9ATIFKE9XURa1Yud4vlRc2yodEpJjaJU8LX3ZvTIT/MkEqnUzWLegUr20TZJYYbCo1Ye0xOeX9NcAXB9pdbzGqbMKzGxGypXEDvNnBuXX0JDlUvPOBuoK5kuomePNppCyZCMobrRLVLRDfw6zuqvKrOafA2IahoTW4TjVYryeKANfS6b/62lX/dwwG/Sl/Cd4CxWNckMFo3NwScQG9LQeSEr+22ueXubrF4pGoWEwZi1/mRidfTpOjW4ucz4FKU5JZEU2DfPzXmFWMACcSUNW+pTBKQWVdGSJxebzeqkkkeiykdF3Tu9Qa9JkULaxhWEHFIzU0erzy50SMMzQb0OImwXFWeee5WiV5ygctU7jcofzQudVmKtxXnuCEtkiYdTuN/BnecAa7r2EM+UqF6cw/g13XSuc7rFXqH3J6Hzu2w7yPQcAVONyM8Dd4UAyE9eNgI2HUrE26gr4NLh2L2ZkuAXXikfZ2NbTLQOPSWjQ8aBAO+A+wNhkq4kXYN2QSUurfabayoclQxpUFsYxhSuBGxb1Sc3U7bBtIYSNY6UHX2Gu+LNJACouCuPD1XAD+G6oaXIuGXC39Bv05o2Om17PMCVLiU5mhT38g/aMC6AKi+ackZL46cEGAOM7iIHuCgEbYmjEDptaQCVKb7k70fsVttcOblmI7uBzNGRFpAcQY2hbnBZ5JSOy/lmld6eKhp3GJN8kYCWBd8SteZ685DnHTWqyMlw8h+EBBWCXDuJ+2v7xPvnLgxQLlXIkVgoJr164J7vombE9pJjsKVqf61s7GOOyJMgcisgY8RqCaCicDS8N5bdfjFrF7lE6zuXql+/NhjfhtO0jPoYOfpd+fl+L1sVBzjOy4qQ3k8wmPteA/I56MxzJZmqVp7TU76TrBOtnqSf1dKyFy2n+1imh6staqUE8lV2sWGJJ+9opHVWWF3cFz8hO15YuPY4jjvmpgcVinHl49jj0nRJaZ4jF+ahlReZ+cY/PjddRkOAzbxmicsQkCob1RsKMivXjXYJT+dIa0BffmI2QrpLsMlkPL1O62bSdHoEab9Bebe5IkvxaNPXfzRpDiZFglYXPXnoTa+tImUEZ9yf7Pz7gVzjHVfX9+HoEss4RqQE7gbls7P6jL7rVWimJRCkpD/YpnNBYd4Fsah2LDHw8GInDZHwUhsYP6zmpx8CX97DNjQbvIUzUIXdYoGTcpymjzG57xlOt9maOmrw0BZJj7bxQFBFjaXNkQ5K7G2VzXUpMArQLGv3RxjdxwtIQ+mgC68Lm95R/cPY9PBNBQGxlULi7uJGhW/nXdm6yrxtjSKcY8jv2ExW9neZ0GgTZUReUt7S2352r0Qafe22ArnCYZZEuVWoZymPhb2tCB7YOJJOJvAsE6mdt9bLKpXE1fKCiVRC3K9MVHrvmQNfL57114p6mA4SGXTNkvroA6JSETWxLVimqIgC/07vdSSJEn1ZtHPtVh68PUqjUlufXfHu9ICp72qyECUy5aFWUZGcWkP5Y6apLwsZ36jblStDMOtuYQBQimbObKsKaC6ZyQwiYUEt+6F2fFftKxFahTpLJ3GLJmsgSB8dUnkk9/WiO6fJnEVNKquO0WyP/4VW935Zx4DdMht4di9A7X95goNfFribYW8Xu1FeE2VxXNl8Ki+j2ijsD9iNrFh44pDERkTXpVvrpHdBAOFAm6KAHw8AzV2ANhNsNHz2d+kt4AocEXnWeWH/oZ16bvpoj678hmdcbkE7HB75YjWyCf7IIG2m+OaVv5LRjHmrPqivWOaclTOjQ8aBASuA+wNhiS9fKmfilQP6sO1TThXOVjxO9v6VYBOB5DuNOTrI1ulNByUNWajVpN0BvXpMvRccYvrlPH/2Kq3Qy0TdDjypldM8FGiATYcsr+q94rJ/0/+9fG5+y06/KS3Z3YrgkwNj6FzFX/09UZvifRr3bvhTH4uau0+cOsiT0gBNq7tUmWZgiMCKyL2+aiuqAI9gZ20kVi28jc3oWdi9n/zIRRs4PWte9xRwkxzUga2dVPKBQ5i5M8DjHexTCrKlTy8+YhhymyPav9Gv2CgYhA/Hn4BYkoa+uU8DIY22br7EnyyTSeo1WeTXeQtTqV0MNZ7yQ/83l95QZj3+WrKio0gdOqsT6q7HC1lK5GSPJ0vaMx8InfF06RsXyigJjoPOHtFa9WKp9Z8znZNedW1FqkbbChpKNoXXsNyZvD09xtcuMBshymE0IbL20aRTz1RZ6avVtqE8RdX0OYy8k7OdEVKrTEJr/2vZTWgxhkZe7jGvoBXuWbXToNGypBLZkiIT1K+8IP/phbhnRTHDwSX2vzMRHm4XKxoTJtsmB2rPuBBUMhFDkYuIvGbtFO+yfNKPKItZm+lBRwsMKCb3HmEFbPbxKJrXjDfpWBcPd00xSOBIgdcVRxvL4ycKv2lxsPpIw4uNveQA7wYdEQaPs6nrNRTu07COLMRY1fiBsFDYhsTOOZpmvLacTJl7XEadAGkBKSXgQASxf2P9QDQiWGuMmnXybwBRm/5f8Wz1wynVtBqU6BPIfJ9p6x2r+RgDrLDwIxGcAxR2CEqf2tAH2o2l9uOVO3wpAzEd/6CIb5GC1eeUfaInoYZO+DrCg+DTdZfEzaiHwGGe8uMzJ7sMLmytoY2zMnCIYYj+00LTJh1lwySbKzbAb9tX/nRR3biV7koa5dkfktyv/k6Ahc6uMjctDTreTavSqHbFgiw/KoA8/9ylnzEg+kjE8oI0dp8ObBSBwQG7x08rHAKVsxdibMT08Zce6gUbI8ZXuiXJfTgbd+8psbQLeaRqeyt+Ga8PnZZc4eFiLo0COfcxr7z4BaTw4iMjrtTPjMHmieC9kr5iC1zr3bKTFfnmm7bQbu6GB62e/YRATQx3F+pyS1aJA0ObGND8km+UFWTPNTORzEeRYm7WXMF7PoyoXVxD6j5giYgrsuk41Ber09mE0LXXDzPDXpCaRbi6DGunQSFv1Y0LyV//XpSHG9jpKNLqjgyNMsluCB6dLHGiM5Rh2EFxtm0sIhFhStUqRjLNI910X9qQdrfh2ZV1sU0FART2MSItXImFxqHcdqejQ8aBAWeA+wNhk63/8lHikCilLDn4BcLEZ7Fu3gj2b9ZwxwGQ2Sebx0TO0wpIWJCQUiM0CY/e7m5V7Dyy+uslv40ivDvrSWqb2N4zhinkHCfFXoYNd8DFl95X2v/nFKu6tgn67cxT5Flh6rUiOcjAVmTxzZBZ55ZMeLzuKvpAIOl6dUSQOgioZOcJNs9lRyNb/OQHB0OFOg3blmezjm9QCPWxPhfUpwKWY/hK5klzMiAw0ZmKAgXn0tbF+mYhV8hpDXiqSmN3iTlda8Vg32lHWStjCp/UMlwVS7PSEEp1G6JOO9nSymDErCeefWcBYxmMp9Oytq7yVB2c4pV/BSgNjqVZmVgfYRl57ixUv4qOKvJfCbLfxL0D1cX4kPx06kvtg8CeLCmoffkUYBdc459RtOVeZS/lT5RyAv6LEQ4hdKsOmn17ejxsQWGI7mpOacSpRVtV0jDR/lYtr0uK1uP2KtGEazrxSLf7CmQj7eoa2cYpxPhDJERWJDZLue/Ev9LArLJ8Uxk0vkOhqakMBWEF4cScpN+Ees1XDma6izk3NTl54S33hS59TbfART4X9UAMcDG0ofO3Tar/ds3goxh+D0wh4/RfS+tP9J61og6QvmH73V/J1u0cs1aLaU0xUF6unRj3tcW1P1ncFiliBtfwGa+nfTDmfrqCJwRCJfD4M/jZcd3rlR5Jb89oxfSfT8GgPMKBhAut4IRGM7DROYzx86rQDeUYPesjzCwGp4OPdg4NnbfJ3FxwgnqwE27Hl20CAVl9BvDA6fZdljBh23DJlAWzkfgcz2kygR6+zLDn8BG53XfSJ4x0CaKbBFzVojk/KCuMJmbaq1QLPsXcwqNbL06GQQaRvdVEYZOX1jjLYHB0zZNIJ9QppQtNYnCfvNwhkhasW/QDgj9nDajyRyVgxLKY7cHrlyJSKPQaWzaw0Hbj811/MziIxOG2r1bBWZHPncKIUaWGqPQEDgSP5WwL9afk25/qjujF3sp1zjUh7viCdJm/jZEkenrspfYsrZRZArpwFDqnHjqiCdq32jhK7qWahH2QzNO5ok8tMBzGiBsIR/dNzerAwlu5DVbJ55eBZHaCy4ownxICgH1HPukav1mMprIGUmpCMosAb1GK1tdM82NVuN3EguHOLRMxqWJjmnL1APsOCLJLhLKtP3pwca/n0tIH44EvkCGDO/jggGby/tgLrV9s4B0qipIiil8AVqhV0m2rbVTPzEH955SCSnIWZoVMTgdnJrz+REABEysA87pW3hJJ/zzrkj+EDm0dLXxBht0qUOSjQ8aBAaOA+wNhMwFVZ4MZ1ciNVgUCTVg7N7gNt9xpHV89KRkgFAV6VvYok4iMStjab2DBD+L3e0KhVxZSQKIx09PCETX4Q13HdMSPKiQws1jVZ4+ShmePclskktM8vXmTSgIQmlbgi8LoEmYQ5a91+hEj6w8YNFPvTBGnrNnzpzAY0k0yZEm7WWPc6JFf8YWZfh0Fr/j64fIvktQk4oiUv4udvjHEkpayrGlv/w4IAL2YiaPVYdFbpKx5mznsi9eIQsRuSWXfgZ2DJpvhv9EVYWG91nHpQuNf36WRU4I4AI8ApChPB5k/pcyuytKlkHU2eFSSIA/+1Sg2iIL1bizd3K775A6XyuVHdJQxxiC6agpT55fSNSlx896gfx65uHMMlblXpRH0sYlFdwBVXIT/nqXVBo6k/1DfeuZ4OUeiYzpc11+vgSdrEWGHN6JeH+LC278DUsy3s/tntIQNUlZ6HWBwMPdNScN6PQIOhPVIwc4G2hAEma/e64RGzYhqJb7FDJpdREEELfjXUjccV2zmwdmdK6gci+pBapM0CGHcl3RjAZCpdmLea2QOSap6PBqLRQBJRbVIrOwNzkRMgbouYqvNlAKKw+7/gD5RnYCOXLrqGdbj8lriqO3W9E1ss5WYVvEyoqUw5xdoeGCpO/hGeHpcP3tDsDMbYbhvz5z+6Ux3pFvArKlMbF9aEzX4cXXsA5Obxq4DL6fFNi26QimSuNNlXnm2pqOUbSm7zPq8/23g0Hxng/ESWD6dc5mrPpA+OkKQNkstpf8gvOROz6vW6k+j2eudUCDj2dTY7q9WAGz1TFONaytFxc5lYQJbbv3OkLePe0EBvfdvJSK63PE/HT3Wm45Uf2UzYZMIkXCx+Br/b2y1WGlWU4jwFsOOCxA0IQHedWFQBRU6C7H/EazfavHHzU2QCiYD4Ewpr5ChUD+DQoJhUIir7ednp4BOHwNTdUYeVD7GsJRAG7L0dvovWufJlWNA70BVuER/fgGT+/qF/WvCYft1Pjr7kqQxiB3WebCp4QE3Xf3gqA97mE8yuzzpLDKB/TDKhXFJ7WdDlWefdVvqlU0x5r+vXF7rvKqoh5OhrH4ayAvAt4bu5en3KDNU8teIaBueYyDJEEwU+0Solt5Z/YbK/5tGDSV5k8YJTKcBqwgXpMwD1mNYKaWZCkWo1AbC10Q+Boqei6VYISNNPWt5rEJ9V76rYfkw0bmO5DOD+SC52mGANB2qJDwtetl0+UNii9voU+wvECtg6s90SsnpoXHWRslyjFOju2K+YcY6ysiYluujQ8aBAeCA+wNhhSuKGWkpNwPYiu4bWdfvHpqfTupy1PvzO5+yPcstWzTdgFEeK8TaMZK6PwQ2gzlDmwKPoFOkAq388CvDwn0B6iH3lUMJrfJDlzytxefTsix5XuyALI5oH1JTmLR8xYBRL/9na3nzQpy9Cf+bSywVutvt5ljmxL/F2UtqupeL4xgNfC0yOuo5fIZN56m9sD0jO5s4H90o6bmjNmOmt5Hlrc7pSVlNl5zkn3TpF/vH2hl1g4DAMOLoE9cI1tKbFMwARuxmPfXc2fL2fCdjyy4qDMewy76DGKsXT36YlnyIjXGsHSv+fj6WsHfbzTTdR1fN1y7627Ydx3FQiZH0RocFuv36ek7A4mcU448T6W+aDPQlwnFBP1Sd1IHu4ijjU6IkTldOkckOOUf83ab5ltHXbfZ4UMSf7hsLbkUEBFPGimGFV+wXWAAB605PdeP+8kq0gan1dutLermZEthDt1xu5NFdBN7jcOq9ll+tQOupQIHXhDxrLcj0CZ5B+I1MXzagReNJzBARrhqcflg3poB2qzKMaRUlPCV6yVUe6oHzfIJGEziiKlukUKWdT1omNVHCsp7H1MlbQhKEsCjr2xWypXJJlOZaSLYTJmoSV39HdNmuujqPzm9nZMRqnM2Sl+4fuJlfwWNQwc8ateLMoPs5rpjdvircL1Zn81Fy7VHk0bv9PANbhT7RNv3T73gCZsjuPDF9G1l9/cgBLH56eTCwUZafq5cDIqRDe28y3VIchLX0MYZmHii8TDauJvEmEdLgVZFUg8v7HEFVbxjlaauG/VYm/Bctdc4abhgY0qC7zzfbvuVvsnTOfi5cQa5M1wt8b4WWQfvrwGqsWqcPHEVDYZKs/iDKH79Vay+3TBAgPSg4mhGQgs+WEpk9UYyse1OPG/xzkV+GRIqWAPqyKsVS72GPsMp7BaRXVdJFfJdvLCOm6iAkXO7c+DgKLLAQZtbvgRLZxI+80wBqwbaJO0YDJfhP6drvVbK24JGVjTPXBe+Cb4MurKyx8vUXtzm5b6VFdJ3TzorzedvbXTXUrPpBcOrp/I3WoLDoiZC1l5nCXF7Qky8njW4Ckjz2t8KDGNli2mV4+qboCTiqjCWl58PvDDIRK2c2UetAGyvHCoTq1tzi+l9osLjBDMeW39E6C5R3AJBMzNuUySdk8FTO/3bcs7qGrIbemPnItjcorvsrK/JiQlWYGvRiVvU+ZREmzokOaAyIeuffg1raimSW8QcKiDlynfD3zl2yMxqEb+hzGz8VwdX0gJasUaMcB7+1L6mjQ8aBAhuA+wNhkva8HKGec6JCRTurlaXwBbaJhXDM+7OhH4nV1CFIPvo7uql4Lbv4OWDt+NDZq42N1Im5clpw+/ngBuAqnEyaOCTp73SaDVTfAOxTSCqakcY/RWP0aPnDkTsVdV3nyUyVvM+TU7GjuGpbX7lM2Rx1AVwDGHuOIzXpw75b2nsrWtEwzTvf/ewx1/YPQAeVxP6DRhMSK+X2a/XtFC8q3cR9qautsYjkjt5EgHpIXjcxAb1AXTsU2V5UOwzvCimKrQ8So1U4aeBrAXClx/c6sluY15/uU0CIYBlLq5FOFvp/PaIFPA6wFisiXQJNo16IlaJpwkcrLhD3kv1tNGvFZ9DsR8SyMps5zknSZdIQzF0Avq34m871Numr4y67tm/jfm/NbQM7D1WMDiuW/xTycoT2GhfjrGc2pT8/rbvFBRj6/mGJKVnDetwm4nOuOk2V+K1JFZdHGe10BCawtjQICMezT1v8tJY9lo0RLbhwdbonnKHo65wHtekjGQi8/M3kylb9MXZNHevMXriL2kq8s/6LKeWs3n/ubxq2R+Pt4qzIKvgh7habJ7VUG8y7gyKQv1NE0CgLKGX7iHcRTK95iHSHkMd7HIWJ5jF8eNoS53X3145j9UD95SdZWSpa9hS0mA4xilBgLBbHXEDhARLIDSds8klpd3GAISonkb8vsb/4JGCg0srnd4OcsjzVG1kKOLZSmarFVFbG/I85fWL34fQKe3ZxasNwAbwQaz8i+z6DBmDsSlwK9YBeKOD/AL/aGk4fVBx6uD+VWVweXmajw6dujvdd4uXDbwsdmhB1DZxWY0rGWNPtc5N2wF48SxxDgBCEQ9BTKoERHD21UDv28hSKYbnWBzxC5DrQIgkKgQS+fTrKDxcpaG3ccB/Z+TQ+HIBehYlEU5uplfLgPiVtMI/8KOUqzb40joHDLpHLdHesi/e59agMS2O713wOfClJO4qQbTafJio46yUu7/peNHC2MnRX37dvvsncuXYUk5IRJ0fa22G6A41c6ZOfNawq9THP4S7wNi4uBKB9x5K/p+2VaN4QHZqbZccSxphY4xz+gO95xNf4hMasxLc8OjyOeJLilDpTsqx3+QO2ixylY4BPCRM33kcvf0rBPQ3UgtkEXffXFzUmLdeVa/FZESIoWGGoBx3Vld6ie0c7s2lyWHJwND+d86oVAHVXh2zn8xWxWKJVgsAJx+j2iOjEX3xubSfpHseU+xaE18DXJgKvjuA7vwxUOtQ8Hcp0d99kmG7KIzxsRWH7m/Q+Dp5966XCa5+jQ8aBAleA+wNhkwYEe2ihc2L0YFhUoEkZeaOfnSmii+MS9X4VnOlmjbf7jnH/bvb9FxEY2Y0TLc9PrSjrOxfH/amHgxf58cVXJF5W1vThEk+ieI0Iphbn6Nt1omJKd4e0S2vy7ixb9BRYnexVFxom5lUf0o055skHZqgwZRtShulJ1xzLbE8b+3qo7MZsoZmV6LB3jGIBec2lJkzxviZpWNmp6JkgeIoLmDyd3fFjVRHgSjiIHT82JXarZMxlcmLXwtP3nE36063Y1FmRFF8fygk0ZF9Af28f8rrDKx4x7GH1wKvyVy9+MvXIBlBfklWUkHWB2fZerOOd6zSEuX0SY+WZGfypj0t89ZeClC4c+miUR9X2O/jSOR0weYdk3ll8FObD2TY0VXOWFrrjC1RRlX3ZhM9LHyoYuPFtLh55ihs9eO8ohS2TMWGTrx+ijZHnfDZKX8sBvlQPV9KGQ7WOinnpZ+QCz1FZgc03EWpnkntgDsBvDLsgLruufJ1b83KCwyXHZ33bSE8w7j61NnhaTt4grmRFiljOwSF39X+sAsJLvsrxY5xM4mB4JFiziymhA1JtOiv6eDvNDAnFasALvZPAq0ik4AoaOzFWD2R2e/32E9FRTyyzKjig0IbTWh6Ste8KYEiRhSaChyzO85QUehS5/pKbVr39o8Hwq0nulzBrru9X4NXYS8v1KmllG7JO6iLvvreJYxQ2oonoDazNfzxlqoUoffahWu5Il3v7KRh49hyJN5GI2+8rvxk4e78aqDR7EolqYr9zQfElbDja5z1AxrA0iu03KkKvdNV31EB+nqfa6fwXbN0FuRu4JjS9wz9PPQvmtHSYRGc068BCUFzpgZNSuZB8YZQUnDIY1tKLUaIGpvsSrcRwXb4YF8/EgNN32PVM6F6dNk9SO6aXvdaGwQxK+asP+jLfrAcjtxrvxQwN6iPfYIjq/v762TZym11Qv+6iA0GCB0zGLoKk54lZMRUkVdET+8PxbyJAvDe0per6cyXpaJGnIdDyAVjHYK5SZtcLyqZLpGc5gxbubWDwiNEj4DCNd2ybjiFzMdIAUIFgj2ExjnfP4z6YD4wyoT42aWUENXfTPKGC3CADAJJoyWeNys4FRwtMAvLLF8TGVQsQCBJ/fL/LF4CApN5gxqohaYn+CCjEnzkcSL9lnciABPEqsfsvBdRL4FEXg8FrhYQkUjp47FaFU3L0cHVHeODuwnpNkZfrrNUqXWH36iYR77WQPXj9tIt0WdwjwgBePJzl89nmCZK7ZSbLKBIcLTshc9WRFmGjQ8aBApOA+wNhtgEjQkkSaFkJo6x1YKLs0BXW4lyX50Fn5UB+w1r/GdKDqqWji8Uz0NGaeeiNw+FcjgLDXPWCVtOoF1qMGtEckpUjZQl2HP+rq6cZfYK7ImasLMCw0ELUIw4OG+zcnOjzUtWbh/OG4LN2LQbY5K3UsGrFdyKCpuw/op1SFLx3f0dTFJtqpmY8fiursbMj6sC4Qje8UeSYo6VouR4RUt3JbyrLm4CVA7pj+LoEOIMujCw1zXnx8uYIUDG0B84gvjkENJlUvU28/j4m38WS+okQKysCRX1mkdfC2F/fmbfH4hB50w6pS+fLVDPAYshxd/TN5kjLdRiossK8ojkjSijblL77jvekXpnRwgOTNg6gJC4TpybTWpVaz5W+y52iJ/VKIPE6xJ426cQT+kFqmL6hQOA3yN25iytxp+nNPjn112GF0ZVlI00G3fCTCjNBqk3jOwEBRP79Hwe1k/2RYcWoRdtJpMW/5m21FbwgKo2PwqyvN10TSsAcIj80yDSxtb6evgc6O6wwIHW6z7v1qwUj0jr4DT0TUlwc+9hHw5f9cu7+BMG+cGHKxU3kz+FRDcj/alhhBTSe6rEigHM1C9oQNAYp6yACW4hDR/dUQ6EEdVGqXoJ1a9RcVdvO1s4noN6FE/u/E39zbW6QUcvlBw9wCWprIntFzcVaPA5z7zusU85dTDoHTsR8nTuyXzgRpUFQK3DZ9QN4F63De31KHJHuAa7g1c8EkdjTOj0JyRUv7uI6BSE46HOzOGPZIl8keCgRb6c7Julpx24ltiUm9Soclb4Ag+20srECG1BDnZ7bcdzCm7GOO2BS6BU0CENqefjGt/6kd8LLnR66gQJFub+bYZLvAlsx/zUa97giC4GDXFAVzvhsgrN2E4HbxL2lCdUPCjtrh8yQ+7ikVR+rEjTQYUesHPKwZzE7RthpNbnPFTMaYZSFyJzvrGH+hAVkQKeaaXgeqwPO7v36yVezpucAjmEXgCmS7X1oS0Cw5o43ObCbVYtuotvG5Q+NX1VCi2iur25W45xhDYJTp8M+C8j8IoC66yDy+saa9N/9KMMaW7v/+v4gmQf76tkQdN1LinEZcnRZhwKjDLjO2OPRv55+26iWRWv/WjqTI+qauBd6vPJPWO9cj00GycF/cVMbiaTMLphM61bMmTngb7fFoYz3DeU/BOSFIML8QIN/1FCBGsruDYR1FtiKBnPpv3o8YtLLp/hmIH6xw2uFk8c6RNRYAaMohorZsZCx1lSVLbCralKtBQTVMHg3+ax+6/ubePqjQ8aBAs+A+wNhkwbKvzUNk4CIOGeylY5Ap54f+JJ/0pUMBT8SzcELK0k31oyhhJizGUuj1X5M2t+F7i6J7tCdBAwff7mD+/kQxVaXilQPuXU7l9iEsbILDKvxsxKPeIS2tGWftu0VpVfQ/ogQKktYfWk6Y3p4aN7rffoZCg1OQDFFRGz+ZPUiEypSkdtkBwgH8LlgGkXpdMaCe8l5KRZi/AXsLp8wu+gzLIxvc7N/CAe6ICCMnvaaOhbfJjl0j40zwYDTYKN0eBG2LRjIjo+R6glwIV+6xZAyzcSvcLiUnobhwedjKgWSefLz34ALYNL1NR/xDFvAuOcl35QlZIeuOl8zt3LC7pMMVtWMA9qFfOdAQ0iMgHgM0XmjNaGX4MDK391XUx+BetcXcBKCw2pMhu6qt3HjpQYhREJhcZGtEh19s6IIqkKF2mGFJM0oGsILcyWgWyHDEdwNZCtL35NArQq8BnfmGkD/l+EoNgFjPQwUZGRgwUExMfbxMdJ1bNyndRtYFKLsNcA46MVCzeL5K7azGsOip6ilPJTRiTn0KuXtRjimNR1IHb/YqFaKUJmwD6ebAhNm6Gdiz7r0qnQe+noXUuj+owFjmTUS3k8jp8c3ClSxqz8lyey6f669HW9de+I0Ce7D39rkEXjrl3iXv/SXl3+1PP3qjY/rZZOzNBeuHz70jpQ8XJuAYIDXeM28tddNhCqEhpq7yM7CBHv8Pv/Jvqz7OFUoBdYouYNWFgaXuvjJ3hl6qVRHn6NbC13uKpexxrAxF5Au2cOiM8tEH5nxvUqeEWdHih8XbGrzQb42iLDqRCKh9TcMWkVFEDX0giDTbHHR5Czxd1dvfvZaKz5ZvAdE9vrCYYdoZsK5CAtoWp/zg4qzVOMQ00hTW1cTsgMrt9+bV8hKDwJLbP1BpBilO+WQuvmmnk7I0Wrkagg6rLEpj6iAEJYWAzoCz5UCZd/8VW15dkmioWZB5IT/ZjlFnLPisWtuzMkC8yuZZH2TJxKJtzlNPI+yCJ7f9SrSjsFOsb6cz83+6LDtP9DuXatm1re9iphIS3sj12lKH/of37JApnyRDufgtdFnR24dF8k2mMnPHuNaw6nAKcKAq9H2DldDg6ZT5x70MfWfnwf9esTpX0nVar7mtrwXVmY9zgucSj5UUsi4FqBa+RewF6s2g2sx5qzOEsLeR6DW7f8Q3Sea9tQwNPvDvgBiHX7+Xivgq8sKGP5SdLGaIpJIhba0Dl1kUNLCDX+LB7ZgEJxJtsZ0wXqgjp9qrjPWjkArH3dtbgxLkWCjQ8aBAwuA+wNhuqfhZAyTyqSK6sY/tk3TIreXHT7EzoFROfzzdj/0kw2LgWXhUlAm/+hCcCqLS19+CANwN1P44uQPhfuyt/TfcFVqAleCGNBk8bwEwwIN4O3vH7szmmxlLX63GuBArxpPlcEdMsOlG+lZc14zMCEJtQwm+0N7ovoo8nbJ+vTfYcpQGqgf5Dc3dNMezlcs8gtRZZgI/6fS7eMfvoYBRoxoXxO/z1YLbYOtacIj6KyIj7kM3tHJpwSSuRDtuWb/1OUKzvH9z5ySMTvV/cSk/oIo0/GY0xNX7feOnnru49PE8zSPO+sZcazvn1lMhXUEdaOTUU0E2oH+hrKrrrL7vzF2qh2edEJAURjFnY1aU2eoFJdscbuNz22cK2vkfTWRvey1Fkz60Oc/bVC1pVoIIHJUqk1zreNS3B5qrkTDVhbX3GGS9XAQ1Xg4IdY29fLsC/Vz+ubw1xVKRF8OBdAt0LUW9tW9EUH2DAdC2hFXlrURqpnW2AWKdVimxo+Pa2m9Y4xKI8JGadxrzk5+KO3r254yFO5nuvusaWUGWBj4vBQ0JWKIRgAe8DQLxcBJWwueH6JSeCpR4Z/U+LT8K7WnwUyv8YTdKVdXlDr5EDbsBnDY8gyIBcclxCVPjmVP7bQvcz4DVYaIUX1H3OD56U75refvrwRTGWqIk7RJ3saGbbxFLk4HUrGusac6Fl9o/owM05wRrpJSOMvDt/gnGvYtqFfH36qj8eVUQzSs2TQr7aEkAkaZoOmuVONbaYz/O4DeoIITLs/vd4jKB6nNlVxbN2UdBAlzaRL1gsrjJMN/5SV4ga9Zh1oJu/bLQsAJmiDXR3Do2dkn5rY7vGC3XuoLmiuyYYc1Q3zLjJbL/5Qf3ejN9irse+1FwMQ1qn+TPMorZJbKGxYDYlu7EgGGTkv2QY/bmE6EP4nogJnm+8spxDIao+w/o6gHMZUpd56KXrevc4E4KEdHHQvO25iDehJGEyZy0tROVGxGqoDPhctblh3d+AW4RxB/D7z1NXll7WcRWzLv/l8zWkXafl7jM/327jbg2CQ1xyyqzqJK2dBcWw600/rM5jQ7PzskzTe8BIlfBRxSJrQU7J84+9mEVH19dlkXOCj3KMwnTp5KsFps7bWJCljUfV2O8zIjFBRfiV/uJb+auq86FhGYnyahWbwJ4cYMoxiFje5gr/dl7uHFsnj89kZ01YHcmzHbXuKvf6O9uGhhBh1FqnVzrrza7UTIkXGE1/tf4gTybxUIiX/yeUKHnqw7eWcNSI8qYog1A47v4EqjQ8aBA0eA+wNhhfSIv4vM+AuQMmIIFRuYSwLQhL/bo/5XGVMy40FuYwPCj50rRNh5MM/g/pbWKPVHdvl+z4hWVJPSwkyHbKNHNzqeJocrUY3zee7rOY2WsEJcb9qaihcjpuoi4hCuR/J8hypdYZBAkbfvb671gN2UtB0e+2HQbxew0sDTarYtxx/ZE4Tnvca2AMXqKgpj8MNo8HmYyx84cB+F/zD799YxJyTrIbSryC/BzTb25SRneTW5DbdsnYg97twxiYlni2JKjRF+ggF4cCQTQ2dSqoi4aHQ192/FD+RAmLIV29lkpW02AThQgKXBJcp9PNJr9sPZ4Jn/1CWSzSa1VWf7LrW6+v34ATaRhMGjxAV88C0vve6ILHO46yIPUIf9Y2+aYMVYFpUVPeC9hOpF5EhKPPDcFJf+5utG9MBetN+ZOJEWkmGG3rtKeaMAt71kTO1fa3Yr4aV7y5ENeLdQ2lHKZ0kVLbHTacEfZbKNXH0k8/789DUhRIXKaY7Mw4tnn3nF9Zt+jqip3WQxKx4jk4vRLhRZGmNu8vErp8nyYUUYAMTvh3oWKhhXX8XRUQAUIYK6uQoUnX5HomuYLjvSmlSeW46CevziSVo55rq43Cqs08TZCMSEHNOJAGvShlTVDPcUaIIQAtm4hyXANwQUxifwYZqv5Moga43r2iK2yJzFZ/zFvSB2Up28laTzDtonbJZpmML3l6w57iJ6PVk+7f7e4gT1LI+kMvv2KSEKo8s45fBBSi2FFTm+sSUXFKijbuGvn9BheHpuS7a0Fen2nc6Rk2sREC3JUGApOqB9LnYQRrrRFu0xg1iC8XKq0cSQtgTiBCotzLGQ6YH6GxuqVyRtSyJFYbvCHJdydX5HQadjinYaKX2ZnmWq2a3QY57Ja8EAITspEvSlBXj5F+arGmGDx99m6D4R0TrH5YKrcd6Qr/9enbY6tUmPc5WjLtPY4cbwCgSaYD8WepcxcrvJWjHFeBsd7O1NCvkoR238JoT/peQDp5OfIiPDH87yVIVXnCIWAgB9W+qsCSVF+DaQTQsHn+Skt8oTMvJMbVdHuq1kpSSBrRWrXzsnF1CuX9E1zjI3PtJCDeTFkQKqaYq/Sgbj8V/7l1g6jvvlk8GAwrdVuGjulNfd0A+Cqs8GsJbYCXuMEWawoTI4lOsJRL8lBVwnmEnDcEf5Zrmx5obOpPYTXUs6NI/UgIPtdPwnheaZWjUxKjjib1XuSL1qmCOHJB3LYiF3SXRnxhmhuVKoPvKBTvhnh5jMwr/SV/esUJeHT7NdBTejQ8aBA4OA+wNhlAyE+Oob8JdjKgMkkQhP2t33o42GA/rZSbZ3CqcF3hkdM1GLE5evvGKBvQiMv0RY3rYDCA1q5mWI0rUpr6aumwkQBRnLZVn/rE8vmrr3MWgMuW54zTdqot/I+OxC7yqBWGppXcsuc6y+xRtuxQyKc/6OkJnJa4BfF1CTgSUBdRl2gs0tFibCCm+kkm++I2QJXhDr2/AdkvfIa1v9b1V5ZWuDMLeWyeoYbHEevML9sQBNnqBzWzxctnwdkTCz99MjNZKX48RtnK1nNw1CkL/3zvXAYC0RUJeLXmLyQnU5u6EwIIQlJyQOrNhf5yKzYt+bs14uPU7dq3r4kBeYafTOe+laiM5g7rwYowh7t9RAa44wXFjB+ARnkLPGrxkCLKCqVVB882Nvg3Bkkm9r5NjcH+ASm4KUCZ1tm4Nme03EOmGTCRSeJlKHlbw7vCF8jo/J5Th8mLDTFEm1U8oReZEdmnhG2mef9jiEPbEzKpzyh6jKoUUcbqbOwifMjBTT7MSjuSsTzOPuPBXey6KPRCGogPy4gpbO7SV+0L37vDbu7adQm9xqXoZ2L8vfPcp0KaumevMjlwnzLN8yAIFPItrFQbLhVQUzuiETsELtIVd70RmsW3thlLfpsl5DgJ9EtUowlBt1pE6cnUfKaKJ6kTH6j2DSQLREOvlzwdH3ijR7/Sb3DJLaY3SN5CUc9hN4xAVU2QiH2NzLYPdv/6anu3RWYAUHnh8/AKuQXjUoYsCZM/eK3Yxo8C7CbIn8Q6fsHjT3J/skHTz18KqMjsytTRrfNm6FNsmn7ItI1D3KWHkA1OPG5/m3P81kYfov3MPyp1x3OgKrLqlFLC2Ko5XLJwFoYbdYMUW/PIOpIfpVzDuWPvaHgDPQezL1rboMm7/MFJ2pFEkulNGqfGQFNk0Vjgde1r15yjcmNNfRmhhAZUO646Iyw4Oro3Cg6KTLPIHwnPSavGrgSp/Blcxradxg2cRK5Rm30gyAGGSjIuAK8uxviLazJS1u8ID8JaP2wiYNCKJn0X8WXiIe5brqJtNpOsc+jsq+WAprKBcofC32k+dC4YfmjmTtTuuIUxFfH+el4szgE3J99F8iJhn10KJm1v2JrUHZyrKsCxuxQKoLqNUqTjNbF8GPi5NDt7Lub2uT15SJrc382LdtVy/XBbvBcV8Yhu5BqwusB0BPPEfrybtasanOvIVIcGuylmdfqmHIsrmteay+NX6zNkzIE//Kg+Bdx6aJ46E5TFuA4E0W54hGbMzDi79sPS6tQKl4A8XnQQSjQ8aBA7+A+wNhttnleLuy10yEgXZCa3PnshC1L6gVWJjuzQD8Dpj0qBeoQiuEB6rrExJCpy8qtnGxRNvxUZgkf5GA5Yc3jQYiMl+VaE4BO9+W0pYYn+Uk3XBP1OXr8hacKyAi7u2RtXd3Co7Wozo5Cign8NBNsniA5feNWUAkPH7+vFch14JqqsVYXmWWAljR3HY/qq4rGHawg8iKZNw8KnVqalv9wPjcf0Va+iwG/RHxZGJ8z8T29Nercre3AcaLPV4JtI3oXFJzgxKReFoqB6xcTvMvst8X3RkSn/yGM6xfSKFcp2Y/XrvhIgEsyNhx7E9x9i+EMCPFn0bJQS99BcCdAWlAQg+gD5MJr80YqdeUBGxqeeSdMDY2o9M7zFrtv0qrhmCEPc5uRCdD2Z6krPcle8PDaP8DFMCs7FFuKyqcrTUp4HB7ZWGTBskjQkMScdPsTf25AB7K4Rv5Tr8vwQoP61O1Nt57zvWAem2J7Md08b8y5HEoCwGYjiWP30N+gSutjl2ZEBks00+0hkSsb2xvQRNWfEqj0DRVEn8Jbs1yi9/HZJGDmiu9BkZV4SDjiWQSE6zyYyGiK2/Vned7/2aaXSsFA7sIuVZPdXMQWpkUd8CH1Dm/VW8OGpzPCoIO3aCLz6i+OhKbVbrQ1AltRvKNldb68GHGsbyi/ZaXQB4866lvRjVv72k/D68m5+k71RNDZmAd2Jt9Gow5M92Vcj1oIyrxYoUvKvu8ao3vQNjLz+9ZBTfUKQt01Oa5eW51am6cfNbiIL4MY40whu5Mf88Feq8ZwyT0r/2/hyEmCYTcF+h1bwzdnWucDV0pIOV4buguV9R/ArmQzm6tnZ4ILC41Y5kmgqGaYZPYZW3+sG5R63T0KMQCTfq5RX9CGKtkeb9Pk+KqJ6IixLAI/H9qAoV7WFL0fG4Lx0XoTHB0/TaESIeW8BroYh0EOpFZkVw2AWAezWMMBKTi341tooPcwlG0rmj1zjqFZPkc+A+ZzrHm2aKBPJxpvd+d89kQiav41YI9hcaub8BPj/ADhvBQFY9yHrVLSiB/awrQeH7Gwz60u5C91QcuQo1Q6FHc1aDaP+zhX+E2Iy99roRx9BU3I02YoTQe/XUehZtkGDsjN/hhqe/to3k7JrWbu/cEjqdnV4wDCLIAJyiip2hq3cRxUNtFLqkd6iZnh/X2BRMKpYb4XUsVQGV4pry++8BoLiT8VBj9OmJK4ecS1+3r4lxkZ8nhc7DODauqFXZUKXsIqilVvjNEL6EU4zbh2z1Ytj/RTOtd/ve8gpKjQ8aBA/uA+wNhwH2aULJhRBFy8ohxnzpDISX9dmjGENYwKiAOdgHyBymm1idXDYm17LDRv+iL0oXrZmVG0rqHQ2ITwQ+2+GpKevY/YoEVUSvjQKo0xjSM19ojaR/EzWlyzsL0haEcHSq0ORyij1ECcYqcAo1ga3QnfQewHorOVfhUWDz1p7pKLLCniEsVozkSTKh/MsUGD1gfj0hWJuC51kY7Pirz6jZ6vFJf4qzFy9hfDUYOf/3fYYsMJicpj3N8l6UKDfMx9qftarRKDZM+fhQ263ra25LBtoE0kjWgLj9ThiJyqgBNTAXmYvrNzO50dCj2BQgB8N6WHLfdlZJLSSQ+HZjAe0isc7Wtd9hDt3zg1Soi3rxRsVlXrTLAvEkEHDNJ0JxUhZes1YSzvukk3Cjz1k4UquBjSgNMxff2iosciUbZXJsGb2Ez4i2zJfIREpSxfGH8MdWx+R91YDEdtPWbBYWJSQKdjaVezulJEVuxv0tEjAXQSE5UxzIEzJTesPOmzn2K6YfvSYRz+Kl3gwicqbF7woLxCMVqOHRP4a/OicGOzTPmfplSK8hKQ0/Ot4tph8EJJv905n215Q2sJyKQys+Fyb09tfRCrFv1F/TCMyyx1oThA46H6EcT3hpI8G/CD6CmplJETlGeU1p8wPdXzHV0RyPz9biIAqlcPRW57BFSYkjby1FyLVSo7iU1g798Lym+jPQ/NDCOX7ML1u62MtQyJQS4DqcbIqausXHNgyN9btnqnukWLU4Y/pzPOvjPvgnlEFqwx/H8rnTraJgBPRp9jDUJtTcYJCkKqFhRpEk7PqcnGdrU2YpfQ0wMjuOeWwP8fbp5LqDQ2/sMTVDJZn80Fw1AYX8DFxcDT3XajOL02S0Ac5UFY8fLoT9m71R+IutAYPjkmsNEa4ZJz6OVSiUeX4ybvBbgS3nlYjVZaOOR/TUxwlFE0g3LIdCUbRHA1hTpl6CXKOP61fRL/3jP8NiWXivGt8zhaa4VygNItKEDtbyfjZUOEyT2L1vCbhG76scqQMWLNDLN3oNDlROwUeEvCeIe5W9fBq2qOiHzkcz0cGcsSqUFM40O5ORWNFitOatqeYQtDiuZbvs6c1H0u2hNyiobo8L2TmVI5BdA80i0H93+K60N1LkSqxP+m2LwkP2q2lDr3qSop3gmSc5Yj7PAF0HkrXMzN81tXQoEAUVV1NJGwl1CoN3EHQv0dUdqEP9MbzeJF+USSm44tuct04e7QRDEC/fzI9osocF/yQqPLI0muoxXHvuY/e2scVUA/VKBMQ2jQ8aBBDeA+wNhk+cRDH8rVn3Wzguzay8scP/iGqR4VB/g6Ksz2gsJQg8v5z3vpsr0OOBUrrDg2pkqoYCsIBANBP+PAGETwOjjp9Foc/FwMyLfkiXKobVNiK4fTTCxBpGKx63pt1MAX7yp/JKwzaE4456EpJQOXufr9Dx4y/uexDQpQ0Gby7Mh5pX3gIIpcDEei8plw3kkFDvPZdleeCLRTdP4B03TmuzewZw6xoyRWIqUZABITAJ2RPG3uSyDbHQqLofvbboedL/AzlZUsQCiGBgvFQTeQNnBHU0FboDahlZlB2YOCrF1tRF2mkYYywwzIWW4kInEaCoFlNTE9DRoymHS2JJdeLLFGfkGsyj3z2nuOGtLtUIC3ijn20PrPF3JYt/vDxxd3Y1fFCyjjBe7GYY9ozVhupK0oBZBxtN6RhsqeUCXTiGSNGGFbEXT0SwQjHQ7YWF4M4cGrqf1Xh9Aa4PXWqdmYn7tePr2TM2F1Xr6aww76vglbrR26j2iCl6fYL/ZJC9Nf3BL9we7ugOxHl1bNNv+KaZ89C4YJD2BmxppGjipcmryScRIBHT3yGujgM+MpsyEoiay7wydCVCKYMIQ9oKcUNsa0cdT4JOMBfsElJsex+giOgfGpxMrvqbihkozBnAVxtX27yVZ4o0JQMEonwv+k5xiuS3EWF5TvZ/0bXbQcmdTGqShjx9ihXRWK0rAMVvAMFapxZ4ab+aVLSCmhS4Es/mpIwCtsI50Agvq6RgGAqJbVnZq7ID4j8a5hyhvO5hV6ku/EAF77EeAukil8FFD50x405xsV3o0TqQT+VHptfjEXjxdN7Zbso+DXsNeUhuj0N1Id7prhHpTrC/bXYlopHZJYTp3l2ml49GDV5/tKiuMdB482NtV3X9Ku62MKCX3+HWb51vA3rLiiOHWaNjJUGJ9CSO4Xckaizp1UghpUj+mSKv7vEs08JpEmvSq3dyqTPOlfMOL9RzNrDhHcODUejP17wg43dl/W1dOrKuncJ/9GzcetNNSw5HGYHS85VajiUbVuCrgsGlWCby95NfU8fslZqPqyAnACJanEGBZKobieb/AfpYmM1grhNOm6EYUDeNTmaKLismYZ3KksfZY614+lZEXTw/pFWwpno/Ww6sDQL+zL6k3UixbQ7MrSGauOQNhltPSaewjqX4k+ObyEHfhXJUCpjcArEBt/5dSSbaheOjeOnEWX1xh2+WQicujl0IURsuVFpm8+/3kapXg+WTj8ZNjgOJJ3MVrUG6HYgchhXhfqDWH8vAsLiqgyJRXUuijQ8aBBHSA+wNhk9B6CD2MLN8S1t9N3Mwe8OVfg65Xu3tLG6vhwJDs43z3ehguHNpqXCwJYkJ5qGmdE1Jmj5mLV0GqDby0Z0mFZ+TejsKfXGcsj0RsJ5MlzCN/VyRsFYkbatSwe6H/2XyZsrYVFG458i9k+ZOjcP2A9XQBq2vaYE71fMgvatx3RhtNMO11oJrYdWFo45bNn6kpCSEhPS578GwohUnI45+EVzY/Kxj/JtWEdWQ+XlRZdqT3yCBNa1epw2R48e8hMI7iAuUmd4iPng3vIyzD6j4vSczgY3P/d6LQzC1QPbyEriAne9Gmb2sZei0X2JpBrBln2FDKX9QQEHyPuD4EHuHZ3g5Gpr297hA0vUmVUud9hn0GuUX9HxtdFbYcrroWlFBoHkuR1lpn8ezUCE8hFlY68OHW5ldxJzw/oxeHwHLM+GGT2nnubJCS0KBQUE85RbAGtQtxA9bCytdOSoo0UPDxotGoFD5uzNKu0yTdTsbNg4moSrmeBzVFUfVH7P2g2mtgKE7Qhie1qTJReUwWUMtleBONIkTLyMVF1c9KUgS7VV33Pvuitl/0E4y+Kx7i+hj8M6mhRyj8LX4Z1e/apn6c4dy3QHsu/okIpz1PJcq1jh0JA5z7f/dahT77d+LwJOd0c+g8wChjxGz3f+pjzPEHM95bAhZDujJG8K53tSI8SlA9sxOWkqn/tBByEl5mKAKDqChhXoJO1gt6tTYcBq3AbAmxKjLNv79NiF5dEBsb3kuRa9l4IWCyg5Brd6aTM3NJmvBJvG1fDLtcsM+mfsRX4EcWKyHOQm7MKjUXWAH/7++YRw934ahjD0nqXU+gGJ8P+/33YtyFHCz7Lnj4SUCcYTr13tlmjgVbJXdpnAeFp0DHFIq4Qoc1RG9NzpXvhKG6f9dECP5G2RrwIJ2FiHnFsBZmRC/f0J036e2n4cX7wiA7Z7yow5bikNPT0HswncenUSCFydwYLHR6slG6I7oZ5V0zuvRtH4c+tZrMBwzl2afM4rhW0Uudf00Ilw6DnaadPb2mJK8pG6/Xbz4PfcOeLEc9XaWcNot2Xj3pxWpyx6fC6Krfk1GxymSYmz+hQ7k6sXriI7150Iw3l7Nql64Zl8HRdni4tE8ftp7KaB3gVeBeBq1YDMXUF8sFLPnUxP+1eE1NpmTOIUXlaLTyLuF0XC9t7p6M3Ma9RkNOWkFe8Dj8wdTxUuF0N3/1RCtNyDs6q9T2mcroNPKe9qQX3YPAAqhERHiKz2fA0mjw8fEKrdJ3w3Wft9DAQHuFtTnpkyijQ8aBBK+A+wNhhr9gKHEkuA24QsQdR6Z/vREJenc8+L3eBw8q3Yfayyi0wIk5XFCVuK0p5oy5b0Xtq+ta6S0ZaO0Q1CIaa1KHdewwIxwuJS2tPhSx6OzwSIv63hcPe3eebLqLD/PpvsbGuguNfcEY61dMj/zTwWV8oXgOj+JEkqUwEL0tDLua5qe68DnDqFyu11xpCp5qqi2NPojzHSs8aazCZYVHq3aEI3c7ztZ61OQkOakaeeE6NUXKy2FP2ARVQagmpm/C19TT2FjLsdc8EQPuHdVhHGVT0K3EQeCvfXGoGAUFX8fIb2dFGPSZysA9qlIbVHzehZ5Bns8CrEu2x1asWSFoku0CnIyYybtNFxunSwcFj9yeGwKJHTxDGV52uAgFX6Cvy633wbYy5xreZCaAi8VLyUKkyCiQqFZTzixx2j2kASce5GG7m7zKU/fgoerfNtyPKrj0vJcbOvvLA3kOW1iWYg8hgjpGkjB+LzIm5X5D3BwMivCV3qkNhYx/XpiTS2+XvS9t4qg3z1Df1mne26NGVsifovpXe89HcwwwgHhU0E+T+CyWOm+MgUmk8qEFQyXmH5gXAT6ws//RJTrnRp3TeUdxIb0fasRF84lAL1fl03aJwP1g+Jb7xSOaVDmLAO3UbeHXXOAB7hOu4UT5DBJPfYGFDob8cnVGgdGelFmYGbg/Dh2sXcd0VgvUrGcxMa78MkDkAvvumxKw54ZixuhDemWOfLpzpZb+9eWUBYmRtZHi3rKiIeUlR88JNRXvTQ0K4043dysmP0EbiXNwyeq8Gp0OWxJKoAAL3f9JZZExt2kx2KacZ9aX5lsFcDJwNHbkhQFqeHTBp6HlPF+eX4uXdErfYZOyaAywdCvxTlP6v6FvtZppx2+UUO3NwDVkASrZCNny2t7P8ls17RvTL2whQPtF2R73VhjnC6CoV5j1yMDHl2YrStYV6oZVxg3JEBO+L1RahFkjxyEixfsG/lD7Lf1ngDHLxSHFDntebLQYGyKVcCBbcFiPUn0zTZ0brXiOnkJX/Bo+Ivm8WUSHwqdwsTua3uwh59xLWIuLGrwDwwpnGiPW11kArzmkhu0uJuT4VBNtbo7hakjOo3yO7Zix9anjQndWjeynHDLo+tUFROpwOtT4menmVTuJqK74evuEl3Y3Qqalxqjqgs0ubyHU+h/48pinkZQGGBkCe2DXGrgsgi880cikGe7hPVESKnVAwm3bq+ubVre/3lavvqRQE2Ccl1ig1ckUx+LdimNHSfGivnk4In0g0I+9K6f0yD/hEgmjQ8aBBOuA+wNhk7RAILjZFheDFQyl6bydKShT2VYam1TFIKhKAFfeBNPb6gt405O/I/8mV0WPxlZ28Ht6gAV6dO8cd7xMCgt0Y7vCc4WwJvjQF/SaJASI212afBbb5yepyOoVJoj4thm9ezXZWjiaGMwjHRHgjPHYj/TmyY/SNl3gYdkEzEKvroKmFcRiAdKX8yv+URyV/ckfi02kETuWrfYu8/1B0DHguDbf+EdAVHzbmsWIcJPtCb7ftRk11jpxufLJeutEhLb6mYMrVKSb4juzKIaetZmY38vNYrIZ09FlqHKNpW28xtjRVICtBiM8gEO6yvkEA7mANOYuBT8mG4SRFXgbnSEN2ooTerr9oSVkTCnYFF58m6lS3H5Eb6EoILO3DINg63bmPZ/UkCnPysxuf9FhT/jRkkATs23HMpwrdeUYUF0/OmG8BGhVxz0sHA9ImiecXAoSWmwONy+a1GLKWkJ8GMSwKIgUkD9py0AyJFjYl0boQdwu0g1ZipfOpLhkKKYbijLu8yfus38dup/cLMe+TO6G3S0rBRU+E5uOEBZmacOW9LDUPsSBVJYqA7JngYh5yzknZEietRx8AeEyiZipSpSKH4x+hoyysqhMv3thVtsA2/LmtWj24wJE5+wBzK5tgLt3aU+Z9SfKnaMtQZ5HwxFCrK+f0GkgxnDJmnNoVo/QjDJlQeyRJZMIq/lYUHjVpHAd2CCbhMYjRkUqzttx5S/+y6DZcp32pkSznToIaMAogasnyBwJ2/Ecg+16IbawNZU6H2AFO8petKQvw0EByRvSrb151FmsWjWYc18wSR15j+exJpIvyLqA1XyNuO+ImGNlhIPHX0aBrS6k/q93QTG+YbRiq26Lg+GUqytqfRY6wb5f2cQbOZ8g4UKEp4RXfgoBGnmZhFdmF6jsey3g9oFxyGpVwZvSBn+J6fVYAHFwMt/8UrvBhjX50LIUjcrKUVknvoCEzgM9MC4afLeyGqfu43nZuXzvWfEMrwIwzR+KbkC1nUFLxIGalla9hjClFt7Cle+FtoBwGptdWqZZ+ea1R1CD+CJWV+wbfLvVFpitRAOgJd7QW0OZ7v1KoOwqZyP5ofmJN2lS4NP1RiN1r07jMX4sBCkP2XHO1qiguhRAjbVcxof8np5n+vUPor1Pr4sv3YX7S+medaWmiU3uWx9uHnsDwGc7q9K9GGJ4LTrvKNfZgKVbkmnlc3wZ0JRKVsGRiQZh6ruCmXmhDeorokR8o3DAgS8w+NdALkhya8Ybs6fJMw8yzEcrTtudR/136syjQ8aBBSeA+wNhiO4YyeGJMR30/drI4AdnPINzGgHQoyCh0uLCKUvFhp+yaYYd8KAcVYeEk4D0V0zSBXVtOzbm0zaQqd6+6GCXZPn1medALuyp2JP16cfMEB4t0x4ESeIEtkFpaTAlb3YxQBvTpxEtf55LjNjhGpGSY4e+9q9aVdY8iWpJrDplDP/P5xZ2t+5PsVviCxT69CVp3cXLvS2EdLweb/GpV11I9mGHWqpQzF9nbEFcIiQpwnkQYBqJ2uQvC31g4eK6rwxO+RjxkOjGoZ8cWSWc564oEB7odmHLxb10rukNGcLVehPnKDKJ6qX9E5UY4m3oDweIh/HH9mgSsR1KeilRGZs2wUYG88ZV0IPOq/vpgJW3U9qdtP24mLxo1/nCULwKF6WsC2VTWVn2lJcRMXTUcHrDGVazx1miDb0exkFi4dTDGmG6aJGE85mkGTAAE5O1vf+zjZb17hyWbtkid6gJ5pC+yCEWg7OsZgZzEEa5O93u2yB7JuohQwvcyNN4jr90/NGfR8Z5lEKQt+5xDSBgkplQhJd7Ywgf2ROCg21gYkIE23GL/m/o9MXcHmtmtP7rPuLOOwOvjniJ0x0Efa1AINbbEmEoLlz2jWOaKi0LYc2nC+U+QK6ecplcLPtjPNkptaJDTJTUL0S65dgvrNVkSC7CDRp7XdOjhljO9MelZJbrfmOYB+TU79IYnLJ0ClOlPF+XTNT2udnjuB6bNH9ArKYliU0xvOkAU2FwHKKsFN/mR+NEvoxqvY2PhJ504sORTROZUqnrK8n8HcYfCQTEyz4wnEpTeD6HMKIOiw+sat02VpSpcy7SPpC+lg0lEs+EvRH13/6/twJIv2/fObDAvojnYZPfXFE7C9RJEruKFZ4TFzlHzsiUg9r5G+CVkCNdfnqspfC7OsKR422UIBD++KFPw7lbGanP6256P96CXoxQ3Vb3YqRbgKi2Ic8TxGT9fdfS+6ufTlLhvsS00/m3NZsTr5dVGOrth4gL/CQ3bC+i9W4GR7RdUzG+UlladOg8YW+/6anxSAnekmeBUF7aSFRvi88QjlU3TF+asWuaUoYxLtOJxiLT/4CKxk8EJsFoCQsbnH52mis0DoH0M1zcXwNh6QZ91/GWnzYRkeYTy+YLdVxVgYLYeixa5qxIIWG2mwZfpF/Mg+6sMS5gppT4Sug7iCLYEP0Mqe8rKLfrCdqoRsCYXaK+7ZT49kWHT5CwZhqgNrNGom8EuxqVHbWVmeUMsQ0IPFyl0YirzggV1OOiKm1GbFCpCn4eLmdhrs0s8GKjQ8aBBWOA+wNhkvXZQsrC5aIM+VA98grbqUy6DGcJGvTLVAMGpbxOBtCkHedzJJqX/blT9es9welxEe3rlNnqW1+GhnFM8+YQ5uBiJBa1lLoKIzinz3OwCGUaZM6Qscd0sIzRhRxAMumdAHLadOSvT21j1HaWNSgn0aHlAENeA2pk/roKEPTQ+WIBXbAlm2I//QkkVsyfznpWx4R+qxvcddu3usgIaJic5Juv7v2S2xRp5w+eddeKN6Uuzvsfim8zd53XS4rfx4t+GdnYOEcJX+7l+S/MQxM4SLCO++SZyW9LM4RbKxxBxe0xukXTC2lkH3lVowa+ps22CFugQfnLJ2vIJpIrryWG9wol3Cq1v292WKZX+VyX2RY33B9Trx+Fop8e8My+fo0UT+JizpW6MIkCaAYSU2+N/QSeDxbfDB4+t2IJcbV7bWGS+lhI9UEAoLKDCi69uAVq3xBOfVou5sqZyMRl4ReADAyrWa2Hm7wT4UDqetiHzDur8oUFQbtHYsLw/5DDk6mi5uNxVAXg63Rd37ltKUHCp2TwNZQA64YJY5jitx9a18D4fJn+owgDZvLJUXizqckjGUjTjBqQKCymWl2li7voqcLCjcd79IZBQAb/K40+/cT3ZWL8lNcAyKLwP5X3nsd7aNOMzm6YX8lsml6HZ+TmojpH2wDjyDAIwm1Clu+6p8Ms2U9KAJeDmJOhpUey52aCbVLB6rQdIGnXv8iSXSl5OsIlon27xtEysEJndYzwPAGIRQp1Knjs7Jagetq2p1D3kSh50Fk15IvzZVUojooZOWN8o4VesZVrbZZxa1dQTjnIBLf7MecFo5u9f230AAVdxNWv2qenG4B5RTwhBSPRYZL1yBxGc/2ho00zEss4E92lU8OfNWsKDRQK7YjaltkWUOvNaeTERvlpHnYH+Ba5EfumvET3GQBsbnKiBoKQI5bvdZTgj09ZjlhdjsIwqsn+OXmh39XvTwbJ9tQy4Cf5vUT851L3RM9e3CZqCFSTb3wr7sJMJyChcYNG11/pwpGgSphOiYnZgAgN2KLTyeSArlR6hFmibjhnJhhXSBV1i8UkM3TyHThIcZ1na8glUi9W6/iVaN7NoTCvKuhV0qL+C6faPx3UrJdwYxw3rWEsbM53pknJ4+lJebr2GzY5ElPVNZMbzY3eySZlB6ZWjW3ZsVmbn0Whm6m5i/IoNT/2QQ2FFKpweqxVP2f321roc8RGuj7UxedsoHnFfOuiQo4QBMe2upkGeenPlYmGXWyzv9eOUdLvOsS7KIl+/0AeTtCjQ8aBBZ+A+wNhk59oDsBu12dSI2R3RzTxxfpFvZGagPQtggAVJKXtYJGn6gMR2u1wxK2SZnVeYMIF6zL0zYrX5IozyhVzO0sGuvhb0llrb4gQuL8BIxahPssfSXHX4UL+GxwzMrZjXeCjGZ7rOCDXcOhwltCwAI7fCV5HkOhD/NpdOVe8AVxoHsRfBqDJULhI8Fj8iLh87bHWvHSrBIFcLZNPyfz9nqEA5MbLwToDag6uDJtIhlpXQygzpKxDQiqZ//Bs54STiGUe1IJ0einQvP0IWqXGE+1LCk7jFlGfhG0MpVKwFOfP6d1s00s4TUyUhHbfiTHIF0cmUN1BLMfOT0Ur7QvKxqzMBppMgXsIQ7wh91gnWhxTQyOEVQlnsYtHhBsnVC0domgnkYq9TH3VDrjOF8FQY4HA7EvW8H0mSx1g2l+hZVDSsmGToSFWfS2dqUveCTVx5MoMNlU4FQirsIkURexetlb52VcqGa7T3Sq2p6gt3ZcexQ95PW7mTon6MRjYw2A57kN/O4rKu9Kcq/9K4ZNXv7Fl/Ws6a/wm0YZUyljln/Sv8nRZtnhtjIrVPyrAAvsqKAr/t0IOMRXfL59gspVKkkbj3io2PAo725mup4EqxQSomq086GR/VDF7LXaeh3Mc9mJyAbOqUVYV6jT3MjSS3Me9zhhNFTZYFkoaREQXCbPkiOo8kp4qZcbWZHqKEV3Yy4aiAdP+c+8kg88zeshHOUiMCoJvjnIjfJXhSfvzUbmAQ3+tpnoTnCB+U+gg42QaH7c2ApSAY2kF+vRw4N/P8BFsx58AdH1a08jL8Dheu4XZkDoica06JqrT5UMp6QjmsCCsrP02KoNjm0tnGUNkgc0sYZOwCbMrqwcJiK8yybNFMxB6tlrtyl/GThKyfQq2L2nFB16uFoj5xpVlfhM4j3+hz4EFyLDYVIV8tVkfB7Le4ERU9YvRnVn0szhE0pwkRHb3JmTt7y7SWP0nm3ialbs0DhTIyjx+CU9cSnQ8+574j8rULodoTJW+aw9ZjTjxO9kwk1zrH9sLCVI1pqpVp8XewFXpPaJjLxKpOspzmqD0/sxR5qtWJw+dxfY+ptuknJAQRT6uDdNO2UDXXq/cBedv6qC3W3HeW5RWCmoNJ23yaxNxU55IieOt33+kjsq+KuXx1TmASFqa/onx3UDRstcu1n875EH8y/E2NArcJ3CwID6ZiJkMJ5SFMI1dOG8jYesgI0fuGoWIN6ATNmTdLSQKH+L0GV7rIOWVweFYLegSTcc/gALBhdK/DZtaALIVyoujQ8aBBduA+wNhkwbIXvrV4QWeIkINUqE8ADExWEv+iWmtK7KCIslq7Za1R9DWKYyQVlqSA817/MZTxfiMsl+JhK83/obkVTmjxbelUa2Y8kRHn22hhfY5WNVSThZdc+rrAK/lYWRutp5DwhwYNvkgGqPgVmYfrDtcKGoVOBlwY3+VjNn/w/s+wiMzu/PewCWShmEi2VTlAOOulw7AhZOOP2pI6Wwoutio6n70bPSY9WGkDhhFxj4wY6XH2H2NAhO/jNLMuXzGEjtiy9oXroD9rULPTJ2BtLFLq6NMA8Zh+P6BBilyoWix8JF2PPagvJ/MY0bHu0YkH21DxObgrypIt2lYwwBBSUGAEfsW9TQgZ+IN4QCU3zSgat3k06JbL22szrteywT6L+0rt6zt4Cv1LBJTn2Dyznb/Fm6XJNuQ0xw9ylSKRjrL/GGFIhsdp0rOaqM7AIMdZnPA37TQbgdztuOWjJ/21HUdWj8p/bCTgdfEvZciIkmPuS98bD6hMDe74ViXwx/lq+/eJ5tqgIbPVfp3z8Ey99RlmKiD9hqdv3oqhsuOvwwCvthAXydxQW0K6D5CRDzrfrs8zEf7+Yyb0vTUVKsKh1JT9QgUDhDbzV+1t3VjdiEYLamzByMrJeL9lp3BYu+GMIj3qpACFgJESmPSN0+2LXoQXDWjGIyaiknUx84Aw9n3ZSX8uxwSagF3kf1d1IQ+2BfuiZQX+v8lErQZG21mydUFoKNvjur+gi2biWc4/GJV5t0GBaP8Yb+cY+h93CUuroK64Uz/z0e+u8icPnc2j5LNqOEpm6VnFBe93pISHb7E5/iB4UyQS57Yoz5ZhzSWI4Z6foX4Ju24Ph1jPQaO4nImYbSLuV0vaBbW9xdbqAGgmQmTsHGpm5pcOpUVDEVjYQ3cSQhY5r8MvGkho9ek4sxWA5BUEmas1kpj82oWaTyO1qR/L7w1iKCpoj1Yf+ezX0C2XTofCGY/qSpXOJTBws754CDVHmmz6ugTR2Ft7NCKG+C7mkc8FKzsW+TiQ9amHR5VqwOy4caZamczsJWEzSTaQsy8naJrZqBol0kmtO7g63DE+SyKb2/qOHLqRcloCgZI7nkQhcQZXd4sr0UvozrHvrzR6LWw9fALAUlSgXhsqRlkvvIsHCff4k7z429yM34WHOyfv3qS8E+/TLl0KTKAspReOt/8BtF87CRC420Srp5pVJJtCZ1LGNUeZ5UKh4VZH3PX4kGQGHBWzRoAAl3ROKx9YyKshrVAVjsxvVgfpDsoj6Es9G8sL8j9YqxRPM2jQ8aBBheA+wNhhd4gSb7xdhqnXaCR5bk+L+zVgwbbEq43TisYtmdhzwhRpIE1xCJZIC7yiPO9PVI1GVeX7tqeGsu1fFNmOtj6gaCmxvvfSj8olmPuWFFanStDAnWxT04jvwGfDn5s4utrEGXTJ/0cdYwFBRk0hDaMVeo1ua2G/Ly7TR4h5V4UXEjTBPJZCe61mCVegxjX9pJ/z3JjuyHdC1AKmLMKEfbG0xHCyv0ZAYHeKx7OM+JvfqjkrR2d0yPF/kM7a9jmI3stoIXq79wOtU1GwVxVoz+glg859XNj0V6YcF25L0aySHA3IBNfh+MX2J1lCF0yRlpMLMuFFjktAOwHvcg0dNwmDLE24NIFdj52caRmrhoD/z7mHCUaorjeJwbXC6qYV+ByS6UJ0OffdE+ClDsHQyHCt2jPgqvUbBtfp4cp9CEMQmGTtV7iWeALuuZl8UvInmRSO816mcve4VNcOjxUgguqgeCdc9pR9Har6u+ptfyxCSeJQnxEjWxyOTm2QjlStkHBbUMrYZAVQ96cNPXwwRsHiWQaqprbas/DA0OXZAVCBRnfJaexLSPhiOd7OlicPpJ9TLUwlC5Q5nm2+UqfxcvV1ty2+yJHfm0BbUngLl5q/bY48m9r/6dw/SkiG2PfHxroK5m+c6UBmy0dRbY+yihhk9vO1M8T6DlekkRjnlBGwWLIxEHOvoiyvoAcw0wE+JgLPeTG3GY/VE3Ddl5CNjjkPAEQhMJW1mbOcofhxYqxa3qUbsUrlwX4H9qXOcSk/GYLs95LAFY1GtAYs+8x09FNQzPBXXor1//KQUxYbdOJMTNTMSkSMugSRhf5DkvVx0fn0IFN1QHLLF+GoucPZYUqYTYc79npBBMHDMy2BWqZbtsYAiGREK57EHml4ZP6khAwmOEUpomnWTZQIbOBO4VTKLBmPjFarc8icOyZgkQnfB4u/J9NMAdKC2Slnb5TTAtKolcQxNIUSZQW+TvYzuu6uqIy+1gHl4ZJzI8pd6CP/7uxIg4YKhjJQJvJNgju4kVJh+Ys1R9Inoz+p2NBucTW4KQSONQ2WlxDSpBhVZkGuwJnMci2aOZP1JJ28mGzLGvtEOrXoQd8bpN93ww6z+vGEou/8DxHrHQGKVDAP47uuoYjoPwTauQ0XF/d3ehY6zYHJYv0Cbp2dcStWGaaoqJys/PNdsdcfcx1hBFLW7jihoUK32RLnfqmlmTXQA694lxx1to6maV5wE3czSMmWbCXM3bcQm0iHdfUn0I9R3UV0CugW1pNRaEwCotmO+E5zjCjQ8aBBlOA+wNhk9h/btaiSBHBDdvdJGeFfXHFz4PZUihLxmYxYhDC4CR/gY99m87jCXGaOmPW1terOzKnSffxJZant1TqzF0gXda2XMDDanqZi+cE7bIfr1huuZL7E7ZZygDF+3jkeJZzUNUk+6HNDanh6OVjuTz4PUHs0QNQVeSstXnquzpc1x05WHPJvAODpBe5ks+DagpQlEL1Gf2OiCFKyVcc/ui3LGroSQxACf3Bcvh6H18yDyfBr7fzETO31P1TiQ7DZB/bInpaNa75enJJ1cT9ThoNE1qJVMsiFfFB1pFbKsPuYsSEXgMbYetvlXlsxGM2l0kyH8OUSRrUkQjuYsFq78nZ+2galgASmvwtMEo7f1xaR30N88tKg77Hfy0ro0HT+iAXQHOVV0CBUYxyTc919FD7AM100pwY8qtJZBUUpQZBM2GUECuGbZVULkw+JcDWQBN9GeFsH/pQVGT7N5Ts9eKXM4kIpXxlMqagIa/TtmslIOvCPpR56+s6BrWgb8t/CoNqd+/Y/BvtIt5Wo5Je+kEbeCbmoj+ia6z/Y8pv7hxd05nk9twJOfiL7/wIGvzMaGwvKl/+h+hZJPiKWzKzZ3qm/7/FdebVcPIxogluEXAJwglQBF4EAMmI86aWD7vBnmQMHcYMJPlbnQXg29PLV6ykPMjoYGfStZ5U45vj62FDSyYP3sm/8qbMHA03HUzBfN3c3p2usJa+JJWTBmfo3dYJoV0yXwub1pX6A5+U8mXU5ihUBblEafaTL7+6L8TscnbAxKaWh1VZMvFuddD53F3l/KpPpzinAzIj7Jo07KcW0WKmJsD2ySM9vhoKwrXL6au7abskN7DJLD2/CV2FVRBoYTPo0vbeWPP/g/Ml1b/F6FnTpV7tXSdtPnqytdglCOkj8d55IZxqRBCTVbGP0emZ91Lm8vrQEKTMmjzVQlrq3LiU6soUU+D0o/vq0LY6XhR1SSQiYnzrPlyemIs0m3737vycfdRoYrQCCbEVWleGtzdwqitbnQNXEE08Ji6lRIXbazfwk0IUCv8uAF/caCoB7mr4ETVYQ2gZuJkVObAPaNvjy31B3XfNZTvLB+d+5XBTkEGmobrOpZCQysCAiFuJuw+AHhQH8WpDccgCjsjlS/hFbbPYm2ZduJokLlGTY9T73fcTbJbi3UpnAT0gPNGACvBUE1QX7E+yASu4QNnPofMhiy81sGwhPjcNGSI7XyEJlHyrFiQVKE+4XPdmTIFRqqv76Pjv7hJAZvc4r+LuS+e1J01CirGsc5l+xP7slSA=","9"
"","","","","","image-button-response","50","197365","0.0-10.0-0.0","8cz46cy9hou3eez","8cz46cy9hou3eez-2024-04-14-06-08-58","null","","","images/celebs/timeline_1/6__Brooke_Shields.png","null",""
"","","","","","image-button-response","51","200070","0.0-10.0-1.0","8cz46cy9hou3eez","8cz46cy9hou3eez-2024-04-14-06-08-58","null","","","images/celebs/timeline_1/6__Brooke_Shields.png","null",""
"","","","","","image-button-response","52","201883","0.0-10.0-2.0","8cz46cy9hou3eez","8cz46cy9hou3eez-2024-04-14-06-08-58","null","","","[]","null",""
"","","","","","image-button-response","53","206385","0.0-10.0-0.1","8cz46cy9hou3eez","8cz46cy9hou3eez-2024-04-14-06-08-58","null","","","images/celebs/timeline_1/11_Timothee_Chalamet.png","null",""
"","","","","","image-button-response","54","209088","0.0-10.0-1.1","8cz46cy9hou3eez","8cz46cy9hou3eez-2024-04-14-06-08-58","null","","","images/celebs/timeline_1/11_Timothee_Chalamet.png","null",""
"","","","","","image-button-response","55","210899","0.0-10.0-2.1","8cz46cy9hou3eez","8cz46cy9hou3eez-2024-04-14-06-08-58","null","","","[]","null",""
"","","","","","image-button-response","56","215401","0.0-10.0-0.2","8cz46cy9hou3eez","8cz46cy9hou3eez-2024-04-14-06-08-58","null","","","images/celebs/timeline_1/7_Tina_Fey.png","null",""
"","","","","","image-button-response","57","218115","0.0-10.0-1.2","8cz46cy9hou3eez","8cz46cy9hou3eez-2024-04-14-06-08-58","null","","","images/celebs/timeline_1/7_Tina_Fey.png","null",""
"","","","","","image-button-response","58","219921","0.0-10.0-2.2","8cz46cy9hou3eez","8cz46cy9hou3eez-2024-04-14-06-08-58","null","","","[]","null",""
"","","","","","image-button-response","59","224429","0.0-10.0-0.3","8cz46cy9hou3eez","8cz46cy9hou3eez-2024-04-14-06-08-58","null","","","images/celebs/timeline_1/12_Halle_Bailey.png","null",""
"","","","","","image-button-response","60","227146","0.0-10.0-1.3","8cz46cy9hou3eez","8cz46cy9hou3eez-2024-04-14-06-08-58","null","","","images/celebs/timeline_1/12_Halle_Bailey.png","null",""
"","","","","","image-button-response","61","228957","0.0-10.0-2.3","8cz46cy9hou3eez","8cz46cy9hou3eez-2024-04-14-06-08-58","null","","","[]","null",""
"","","","","","image-button-response","62","233461","0.0-10.0-0.4","8cz46cy9hou3eez","8cz46cy9hou3eez-2024-04-14-06-08-58","null","","","images/celebs/timeline_1/2_Julie_Andrews.png","null",""
"","","","","","image-button-response","63","236175","0.0-10.0-1.4","8cz46cy9hou3eez","8cz46cy9hou3eez-2024-04-14-06-08-58","null","","","images/celebs/timeline_1/2_Julie_Andrews.png","null",""
"","","","","","image-button-response","64","237986","0.0-10.0-2.4","8cz46cy9hou3eez","8cz46cy9hou3eez-2024-04-14-06-08-58","null","","","[]","null",""
"","","","","","image-button-response","65","242492","0.0-10.0-0.5","8cz46cy9hou3eez","8cz46cy9hou3eez-2024-04-14-06-08-58","null","","","images/celebs/timeline_1/4_Stevie_Wonder.png","null",""
"","","","","","image-button-response","66","243930","0.0-10.0-1.5","8cz46cy9hou3eez","8cz46cy9hou3eez-2024-04-14-06-08-58","1436","","","images/celebs/timeline_1/4_Stevie_Wonder.png","1",""
"","","","","","image-button-response","67","245737","0.0-10.0-2.5","8cz46cy9hou3eez","8cz46cy9hou3eez-2024-04-14-06-08-58","null","","","[]","null",""
"","","","","","image-button-response","68","250245","0.0-10.0-0.6","8cz46cy9hou3eez","8cz46cy9hou3eez-2024-04-14-06-08-58","null","","","images/celebs/timeline_1/8__Pedro_Pascal.png","null",""
"","","","","","image-button-response","69","252952","0.0-10.0-1.6","8cz46cy9hou3eez","8cz46cy9hou3eez-2024-04-14-06-08-58","null","","","images/celebs/timeline_1/8__Pedro_Pascal.png","null",""
"","","","","","image-button-response","70","254766","0.0-10.0-2.6","8cz46cy9hou3eez","8cz46cy9hou3eez-2024-04-14-06-08-58","null","","","[]","null",""
"","","","","","image-button-response","71","259282","0.0-10.0-0.7","8cz46cy9hou3eez","8cz46cy9hou3eez-2024-04-14-06-08-58","null","","","images/celebs/timeline_1/3_Patrick_Stewart.png","null",""
"","","","","","image-button-response","72","262000","0.0-10.0-1.7","8cz46cy9hou3eez","8cz46cy9hou3eez-2024-04-14-06-08-58","null","","","images/celebs/timeline_1/3_Patrick_Stewart.png","null",""
"","","","","","image-button-response","73","263810","0.0-10.0-2.7","8cz46cy9hou3eez","8cz46cy9hou3eez-2024-04-14-06-08-58","null","","","[]","null",""
"","","","","","image-button-response","74","268317","0.0-10.0-0.8","8cz46cy9hou3eez","8cz46cy9hou3eez-2024-04-14-06-08-58","null","","","images/celebs/timeline_1/9_Kristen_Bell.png","null",""
"","","","","","image-button-response","75","271030","0.0-10.0-1.8","8cz46cy9hou3eez","8cz46cy9hou3eez-2024-04-14-06-08-58","null","","","images/celebs/timeline_1/9_Kristen_Bell.png","null",""
"","","","","","image-button-response","76","272838","0.0-10.0-2.8","8cz46cy9hou3eez","8cz46cy9hou3eez-2024-04-14-06-08-58","null","","","[]","null",""
"","","","","","image-button-response","77","277353","0.0-10.0-0.9","8cz46cy9hou3eez","8cz46cy9hou3eez-2024-04-14-06-08-58","null","","","images/celebs/timeline_1/10_Jennifer_Lawrence.png","null",""
"","","","","","image-button-response","78","278622","0.0-10.0-1.9","8cz46cy9hou3eez","8cz46cy9hou3eez-2024-04-14-06-08-58","1266","","","images/celebs/timeline_1/10_Jennifer_Lawrence.png","1",""
"","","","","","image-button-response","79","280430","0.0-10.0-2.9","8cz46cy9hou3eez","8cz46cy9hou3eez-2024-04-14-06-08-58","null","","","[]","null",""
"","","","","","image-button-response","80","284948","0.0-10.0-0.10","8cz46cy9hou3eez","8cz46cy9hou3eez-2024-04-14-06-08-58","null","","","images/celebs/timeline_1/1_Clint_Eastwood.png","null",""
"","","","","","image-button-response","81","287247","0.0-10.0-1.10","8cz46cy9hou3eez","8cz46cy9hou3eez-2024-04-14-06-08-58","2296","","","images/celebs/timeline_1/1_Clint_Eastwood.png","1",""
"","","","","","image-button-response","82","289057","0.0-10.0-2.10","8cz46cy9hou3eez","8cz46cy9hou3eez-2024-04-14-06-08-58","null","","","[]","null",""
"","","","","","image-button-response","83","293882","0.0-10.0-0.11","8cz46cy9hou3eez","8cz46cy9hou3eez-2024-04-14-06-08-58","null","","","images/celebs/timeline_1/5_Sean_Penn.png","null",""
"","","","","","image-button-response","84","295817","0.0-10.0-1.11","8cz46cy9hou3eez","8cz46cy9hou3eez-2024-04-14-06-08-58","1932","","","images/celebs/timeline_1/5_Sean_Penn.png","1",""
"","","","","","image-button-response","85","297634","0.0-10.0-2.11","8cz46cy9hou3eez","8cz46cy9hou3eez-2024-04-14-06-08-58","null","","","[]","null",""
"","","","","","html-audio-response","86","300612","0.0-11.0","8cz46cy9hou3eez","8cz46cy9hou3eez-2024-04-14-06-08-58","2029","","","<span style=""color: red; font-size: 24px""> NOW RECORDING</span>
