"success","timeout","failed_images","failed_audio","failed_video","trial_type","trial_index","time_elapsed","internal_node_id","subject","subject_id","study_id","session_id","urlvar","current_url","view_history","rt","stimulus","response","choice","question_order"
"true","false","[]","[]","[]","preload","0","47196","0.0-0.0","ADBED8CA237E4688A03E6010D8E6CE08","ADBED8CA237E4688A03E6010D8E6CE08","5613f12b-c2da-4bc3-84a5-ead06872f6a7","54f8d589-66fc-4c65-830f-1dcc63bce8cc","{""participantId"":""ADBED8CA237E4688A03E6010D8E6CE08"",""assignmentId"":""5613f12b-c2da-4bc3-84a5-ead06872f6a7"",""projectId"":""54f8d589-66fc-4c65-830f-1dcc63bce8cc""}","https://test12345.live/?participantId=ADBED8CA237E4688A03E6010D8E6CE08&assignmentId=5613f12b-c2da-4bc3-84a5-ead06872f6a7&projectId=54f8d589-66fc-4c65-830f-1dcc63bce8cc","","","","","",""
"","","","","","instructions","1","124537","0.0-1.0","ADBED8CA237E4688A03E6010D8E6CE08","ADBED8CA237E4688A03E6010D8E6CE08","5613f12b-c2da-4bc3-84a5-ead06872f6a7","54f8d589-66fc-4c65-830f-1dcc63bce8cc","{""participantId"":""ADBED8CA237E4688A03E6010D8E6CE08"",""assignmentId"":""5613f12b-c2da-4bc3-84a5-ead06872f6a7"",""projectId"":""54f8d589-66fc-4c65-830f-1dcc63bce8cc""}","https://test12345.live/?participantId=ADBED8CA237E4688A03E6010D8E6CE08&assignmentId=5613f12b-c2da-4bc3-84a5-ead06872f6a7&projectId=54f8d589-66fc-4c65-830f-1dcc63bce8cc","[{""page_index"":0,""viewing_time"":77338}]","77339","","","",""
"","","","","","instructions","2","157216","0.0-2.0","ADBED8CA237E4688A03E6010D8E6CE08","ADBED8CA237E4688A03E6010D8E6CE08","5613f12b-c2da-4bc3-84a5-ead06872f6a7","54f8d589-66fc-4c65-830f-1dcc63bce8cc","{""participantId"":""ADBED8CA237E4688A03E6010D8E6CE08"",""assignmentId"":""5613f12b-c2da-4bc3-84a5-ead06872f6a7"",""projectId"":""54f8d589-66fc-4c65-830f-1dcc63bce8cc""}","https://test12345.live/?participantId=ADBED8CA237E4688A03E6010D8E6CE08&assignmentId=5613f12b-c2da-4bc3-84a5-ead06872f6a7&projectId=54f8d589-66fc-4c65-830f-1dcc63bce8cc","[{""page_index"":0,""viewing_time"":32678}]","32678","","","",""
"true","","","","","fullscreen","3","161039","0.0-3.0","ADBED8CA237E4688A03E6010D8E6CE08","ADBED8CA237E4688A03E6010D8E6CE08","5613f12b-c2da-4bc3-84a5-ead06872f6a7","54f8d589-66fc-4c65-830f-1dcc63bce8cc","{""participantId"":""ADBED8CA237E4688A03E6010D8E6CE08"",""assignmentId"":""5613f12b-c2da-4bc3-84a5-ead06872f6a7"",""projectId"":""54f8d589-66fc-4c65-830f-1dcc63bce8cc""}","https://test12345.live/?participantId=ADBED8CA237E4688A03E6010D8E6CE08&assignmentId=5613f12b-c2da-4bc3-84a5-ead06872f6a7&projectId=54f8d589-66fc-4c65-830f-1dcc63bce8cc","","2819","","","",""
"","","","","","instructions","4","177426","0.0-4.0","ADBED8CA237E4688A03E6010D8E6CE08","ADBED8CA237E4688A03E6010D8E6CE08","5613f12b-c2da-4bc3-84a5-ead06872f6a7","54f8d589-66fc-4c65-830f-1dcc63bce8cc","{""participantId"":""ADBED8CA237E4688A03E6010D8E6CE08"",""assignmentId"":""5613f12b-c2da-4bc3-84a5-ead06872f6a7"",""projectId"":""54f8d589-66fc-4c65-830f-1dcc63bce8cc""}","https://test12345.live/?participantId=ADBED8CA237E4688A03E6010D8E6CE08&assignmentId=5613f12b-c2da-4bc3-84a5-ead06872f6a7&projectId=54f8d589-66fc-4c65-830f-1dcc63bce8cc","[{""page_index"":0,""viewing_time"":16385}]","16385","","","",""
"","","","","","html-button-response","5","227709","0.0-5.0","ADBED8CA237E4688A03E6010D8E6CE08","ADBED8CA237E4688A03E6010D8E6CE08","5613f12b-c2da-4bc3-84a5-ead06872f6a7","54f8d589-66fc-4c65-830f-1dcc63bce8cc","{""participantId"":""ADBED8CA237E4688A03E6010D8E6CE08"",""assignmentId"":""5613f12b-c2da-4bc3-84a5-ead06872f6a7"",""projectId"":""54f8d589-66fc-4c65-830f-1dcc63bce8cc""}","https://test12345.live/?participantId=ADBED8CA237E4688A03E6010D8E6CE08&assignmentId=5613f12b-c2da-4bc3-84a5-ead06872f6a7&projectId=54f8d589-66fc-4c65-830f-1dcc63bce8cc","","50280","
    <div style=""display: flex; justify-content: center; align-items: center;"">
      <img src=""images/red_deck_2.png"" style=""width: 300px; height: 300px; margin-right: 10px;"" />
      <img src=""images/blue_deck_1.png"" style=""width: 300px; height: 300px;"" />
    </div>","0","0",""
"","","","","","html-keyboard-response","6","230715","0.0-6.0-0.0","ADBED8CA237E4688A03E6010D8E6CE08","ADBED8CA237E4688A03E6010D8E6CE08","5613f12b-c2da-4bc3-84a5-ead06872f6a7","54f8d589-66fc-4c65-830f-1dcc63bce8cc","{""participantId"":""ADBED8CA237E4688A03E6010D8E6CE08"",""assignmentId"":""5613f12b-c2da-4bc3-84a5-ead06872f6a7"",""projectId"":""54f8d589-66fc-4c65-830f-1dcc63bce8cc""}","https://test12345.live/?participantId=ADBED8CA237E4688A03E6010D8E6CE08&assignmentId=5613f12b-c2da-4bc3-84a5-ead06872f6a7&projectId=54f8d589-66fc-4c65-830f-1dcc63bce8cc","","null","<div style=""display: flex; justify-content: center; align-items: center;"">
                    <img src=""images/causal/causal_series_10/causal_series_10_a.jpg"" style=""width: 300px; height: 300px;"" />
                  </div>","null","",""
"","","","","","html-keyboard-response","7","233730","0.0-6.0-1.0","ADBED8CA237E4688A03E6010D8E6CE08","ADBED8CA237E4688A03E6010D8E6CE08","5613f12b-c2da-4bc3-84a5-ead06872f6a7","54f8d589-66fc-4c65-830f-1dcc63bce8cc","{""participantId"":""ADBED8CA237E4688A03E6010D8E6CE08"",""assignmentId"":""5613f12b-c2da-4bc3-84a5-ead06872f6a7"",""projectId"":""54f8d589-66fc-4c65-830f-1dcc63bce8cc""}","https://test12345.live/?participantId=ADBED8CA237E4688A03E6010D8E6CE08&assignmentId=5613f12b-c2da-4bc3-84a5-ead06872f6a7&projectId=54f8d589-66fc-4c65-830f-1dcc63bce8cc","","null","<div style=""display: flex; justify-content: center; align-items: center;"">
                    <img src=""images/causal/causal_series_10/causal_series_10_b.jpg"" style=""width: 300px; height: 300px;"" />
                  </div>","null","",""
"","","","","","html-keyboard-response","8","236746","0.0-6.0-2.0","ADBED8CA237E4688A03E6010D8E6CE08","ADBED8CA237E4688A03E6010D8E6CE08","5613f12b-c2da-4bc3-84a5-ead06872f6a7","54f8d589-66fc-4c65-830f-1dcc63bce8cc","{""participantId"":""ADBED8CA237E4688A03E6010D8E6CE08"",""assignmentId"":""5613f12b-c2da-4bc3-84a5-ead06872f6a7"",""projectId"":""54f8d589-66fc-4c65-830f-1dcc63bce8cc""}","https://test12345.live/?participantId=ADBED8CA237E4688A03E6010D8E6CE08&assignmentId=5613f12b-c2da-4bc3-84a5-ead06872f6a7&projectId=54f8d589-66fc-4c65-830f-1dcc63bce8cc","","null","<div style=""display: flex; justify-content: center; align-items: center;"">
                    <img src=""images/causal/causal_series_10/causal_series_10_c.jpg"" style=""width: 300px; height: 300px;"" />
                  </div>","null","",""
"","","","","","html-keyboard-response","9","239758","0.0-6.0-3.0","ADBED8CA237E4688A03E6010D8E6CE08","ADBED8CA237E4688A03E6010D8E6CE08","5613f12b-c2da-4bc3-84a5-ead06872f6a7","54f8d589-66fc-4c65-830f-1dcc63bce8cc","{""participantId"":""ADBED8CA237E4688A03E6010D8E6CE08"",""assignmentId"":""5613f12b-c2da-4bc3-84a5-ead06872f6a7"",""projectId"":""54f8d589-66fc-4c65-830f-1dcc63bce8cc""}","https://test12345.live/?participantId=ADBED8CA237E4688A03E6010D8E6CE08&assignmentId=5613f12b-c2da-4bc3-84a5-ead06872f6a7&projectId=54f8d589-66fc-4c65-830f-1dcc63bce8cc","","null","<div style=""display: flex; justify-content: center; align-items: center;"">
                    <img src=""images/causal/causal_series_10/causal_series_10_d.jpg"" style=""width: 300px; height: 300px;"" />
                  </div>","null","",""
"","","","","","html-button-response","10","243234","0.0-8.0","ADBED8CA237E4688A03E6010D8E6CE08","ADBED8CA237E4688A03E6010D8E6CE08","5613f12b-c2da-4bc3-84a5-ead06872f6a7","54f8d589-66fc-4c65-830f-1dcc63bce8cc","{""participantId"":""ADBED8CA237E4688A03E6010D8E6CE08"",""assignmentId"":""5613f12b-c2da-4bc3-84a5-ead06872f6a7"",""projectId"":""54f8d589-66fc-4c65-830f-1dcc63bce8cc""}","https://test12345.live/?participantId=ADBED8CA237E4688A03E6010D8E6CE08&assignmentId=5613f12b-c2da-4bc3-84a5-ead06872f6a7&projectId=54f8d589-66fc-4c65-830f-1dcc63bce8cc","","3475","Was there a person in the picture?","1","",""
"","","","","","survey-likert","11","249486","0.0-9.0","ADBED8CA237E4688A03E6010D8E6CE08","ADBED8CA237E4688A03E6010D8E6CE08","5613f12b-c2da-4bc3-84a5-ead06872f6a7","54f8d589-66fc-4c65-830f-1dcc63bce8cc","{""participantId"":""ADBED8CA237E4688A03E6010D8E6CE08"",""assignmentId"":""5613f12b-c2da-4bc3-84a5-ead06872f6a7"",""projectId"":""54f8d589-66fc-4c65-830f-1dcc63bce8cc""}","https://test12345.live/?participantId=ADBED8CA237E4688A03E6010D8E6CE08&assignmentId=5613f12b-c2da-4bc3-84a5-ead06872f6a7&projectId=54f8d589-66fc-4c65-830f-1dcc63bce8cc","","6249","","{""Q0"":2}","","[0]"
"","","","","","html-button-response","12","251812","0.0-10.0","ADBED8CA237E4688A03E6010D8E6CE08","ADBED8CA237E4688A03E6010D8E6CE08","5613f12b-c2da-4bc3-84a5-ead06872f6a7","54f8d589-66fc-4c65-830f-1dcc63bce8cc","{""participantId"":""ADBED8CA237E4688A03E6010D8E6CE08"",""assignmentId"":""5613f12b-c2da-4bc3-84a5-ead06872f6a7"",""projectId"":""54f8d589-66fc-4c65-830f-1dcc63bce8cc""}","https://test12345.live/?participantId=ADBED8CA237E4688A03E6010D8E6CE08&assignmentId=5613f12b-c2da-4bc3-84a5-ead06872f6a7&projectId=54f8d589-66fc-4c65-830f-1dcc63bce8cc","","2323","
    <div style=""display: flex; justify-content: center; align-items: center;"">
      <img src=""images/red_deck_2.png"" style=""width: 300px; height: 300px; margin-right: 10px;"" />
      <img src=""images/blue_deck_1.png"" style=""width: 300px; height: 300px;"" />
    </div>","0","0",""
"","","","","","html-keyboard-response","13","254816","0.0-11.0-0.0","ADBED8CA237E4688A03E6010D8E6CE08","ADBED8CA237E4688A03E6010D8E6CE08","5613f12b-c2da-4bc3-84a5-ead06872f6a7","54f8d589-66fc-4c65-830f-1dcc63bce8cc","{""participantId"":""ADBED8CA237E4688A03E6010D8E6CE08"",""assignmentId"":""5613f12b-c2da-4bc3-84a5-ead06872f6a7"",""projectId"":""54f8d589-66fc-4c65-830f-1dcc63bce8cc""}","https://test12345.live/?participantId=ADBED8CA237E4688A03E6010D8E6CE08&assignmentId=5613f12b-c2da-4bc3-84a5-ead06872f6a7&projectId=54f8d589-66fc-4c65-830f-1dcc63bce8cc","","null","<div style=""display: flex; justify-content: center; align-items: center;"">
                    <img src=""images/causal/causal_series_17/causal_series_17_a.jpg"" style=""width: 300px; height: 300px;"" />
                  </div>","null","",""
"","","","","","html-keyboard-response","14","257820","0.0-11.0-1.0","ADBED8CA237E4688A03E6010D8E6CE08","ADBED8CA237E4688A03E6010D8E6CE08","5613f12b-c2da-4bc3-84a5-ead06872f6a7","54f8d589-66fc-4c65-830f-1dcc63bce8cc","{""participantId"":""ADBED8CA237E4688A03E6010D8E6CE08"",""assignmentId"":""5613f12b-c2da-4bc3-84a5-ead06872f6a7"",""projectId"":""54f8d589-66fc-4c65-830f-1dcc63bce8cc""}","https://test12345.live/?participantId=ADBED8CA237E4688A03E6010D8E6CE08&assignmentId=5613f12b-c2da-4bc3-84a5-ead06872f6a7&projectId=54f8d589-66fc-4c65-830f-1dcc63bce8cc","","null","<div style=""display: flex; justify-content: center; align-items: center;"">
                    <img src=""images/causal/causal_series_17/causal_series_17_b.jpg"" style=""width: 300px; height: 300px;"" />
                  </div>","null","",""
"","","","","","html-keyboard-response","15","260822","0.0-11.0-2.0","ADBED8CA237E4688A03E6010D8E6CE08","ADBED8CA237E4688A03E6010D8E6CE08","5613f12b-c2da-4bc3-84a5-ead06872f6a7","54f8d589-66fc-4c65-830f-1dcc63bce8cc","{""participantId"":""ADBED8CA237E4688A03E6010D8E6CE08"",""assignmentId"":""5613f12b-c2da-4bc3-84a5-ead06872f6a7"",""projectId"":""54f8d589-66fc-4c65-830f-1dcc63bce8cc""}","https://test12345.live/?participantId=ADBED8CA237E4688A03E6010D8E6CE08&assignmentId=5613f12b-c2da-4bc3-84a5-ead06872f6a7&projectId=54f8d589-66fc-4c65-830f-1dcc63bce8cc","","null","<div style=""display: flex; justify-content: center; align-items: center;"">
                    <img src=""images/causal/causal_series_17/causal_series_17_c.jpg"" style=""width: 300px; height: 300px;"" />
                  </div>","null","",""
"","","","","","html-keyboard-response","16","263827","0.0-11.0-3.0","ADBED8CA237E4688A03E6010D8E6CE08","ADBED8CA237E4688A03E6010D8E6CE08","5613f12b-c2da-4bc3-84a5-ead06872f6a7","54f8d589-66fc-4c65-830f-1dcc63bce8cc","{""participantId"":""ADBED8CA237E4688A03E6010D8E6CE08"",""assignmentId"":""5613f12b-c2da-4bc3-84a5-ead06872f6a7"",""projectId"":""54f8d589-66fc-4c65-830f-1dcc63bce8cc""}","https://test12345.live/?participantId=ADBED8CA237E4688A03E6010D8E6CE08&assignmentId=5613f12b-c2da-4bc3-84a5-ead06872f6a7&projectId=54f8d589-66fc-4c65-830f-1dcc63bce8cc","","null","<div style=""display: flex; justify-content: center; align-items: center;"">
                    <img src=""images/causal/causal_series_17/causal_series_17_d.jpg"" style=""width: 300px; height: 300px;"" />
                  </div>","null","",""
"","","","","","html-button-response","17","270759","0.0-13.0","ADBED8CA237E4688A03E6010D8E6CE08","ADBED8CA237E4688A03E6010D8E6CE08","5613f12b-c2da-4bc3-84a5-ead06872f6a7","54f8d589-66fc-4c65-830f-1dcc63bce8cc","{""participantId"":""ADBED8CA237E4688A03E6010D8E6CE08"",""assignmentId"":""5613f12b-c2da-4bc3-84a5-ead06872f6a7"",""projectId"":""54f8d589-66fc-4c65-830f-1dcc63bce8cc""}","https://test12345.live/?participantId=ADBED8CA237E4688A03E6010D8E6CE08&assignmentId=5613f12b-c2da-4bc3-84a5-ead06872f6a7&projectId=54f8d589-66fc-4c65-830f-1dcc63bce8cc","","6930","Was there a person in the picture?","1","",""
"","","","","","survey-likert","18","278188","0.0-14.0","ADBED8CA237E4688A03E6010D8E6CE08","ADBED8CA237E4688A03E6010D8E6CE08","5613f12b-c2da-4bc3-84a5-ead06872f6a7","54f8d589-66fc-4c65-830f-1dcc63bce8cc","{""participantId"":""ADBED8CA237E4688A03E6010D8E6CE08"",""assignmentId"":""5613f12b-c2da-4bc3-84a5-ead06872f6a7"",""projectId"":""54f8d589-66fc-4c65-830f-1dcc63bce8cc""}","https://test12345.live/?participantId=ADBED8CA237E4688A03E6010D8E6CE08&assignmentId=5613f12b-c2da-4bc3-84a5-ead06872f6a7&projectId=54f8d589-66fc-4c65-830f-1dcc63bce8cc","","7427","","{""Q0"":1}","","[0]"
"","","","","","html-button-response","19","279814","0.0-15.0","ADBED8CA237E4688A03E6010D8E6CE08","ADBED8CA237E4688A03E6010D8E6CE08","5613f12b-c2da-4bc3-84a5-ead06872f6a7","54f8d589-66fc-4c65-830f-1dcc63bce8cc","{""participantId"":""ADBED8CA237E4688A03E6010D8E6CE08"",""assignmentId"":""5613f12b-c2da-4bc3-84a5-ead06872f6a7"",""projectId"":""54f8d589-66fc-4c65-830f-1dcc63bce8cc""}","https://test12345.live/?participantId=ADBED8CA237E4688A03E6010D8E6CE08&assignmentId=5613f12b-c2da-4bc3-84a5-ead06872f6a7&projectId=54f8d589-66fc-4c65-830f-1dcc63bce8cc","","1624","
    <div style=""display: flex; justify-content: center; align-items: center;"">
      <img src=""images/red_deck_2.png"" style=""width: 300px; height: 300px; margin-right: 10px;"" />
      <img src=""images/blue_deck_1.png"" style=""width: 300px; height: 300px;"" />
    </div>","1","1",""
"","","","","","html-keyboard-response","20","282815","0.0-17.0-0.0","ADBED8CA237E4688A03E6010D8E6CE08","ADBED8CA237E4688A03E6010D8E6CE08","5613f12b-c2da-4bc3-84a5-ead06872f6a7","54f8d589-66fc-4c65-830f-1dcc63bce8cc","{""participantId"":""ADBED8CA237E4688A03E6010D8E6CE08"",""assignmentId"":""5613f12b-c2da-4bc3-84a5-ead06872f6a7"",""projectId"":""54f8d589-66fc-4c65-830f-1dcc63bce8cc""}","https://test12345.live/?participantId=ADBED8CA237E4688A03E6010D8E6CE08&assignmentId=5613f12b-c2da-4bc3-84a5-ead06872f6a7&projectId=54f8d589-66fc-4c65-830f-1dcc63bce8cc","","null","<div style=""display: flex; justify-content: center; align-items: center;"">
                    <img src=""images/semantic/semantic_series_10/semantic_series_10_a.jpg"" style=""width: 300px; height: 300px;"" />
                  </div>","null","",""
"","","","","","html-keyboard-response","21","285829","0.0-17.0-1.0","ADBED8CA237E4688A03E6010D8E6CE08","ADBED8CA237E4688A03E6010D8E6CE08","5613f12b-c2da-4bc3-84a5-ead06872f6a7","54f8d589-66fc-4c65-830f-1dcc63bce8cc","{""participantId"":""ADBED8CA237E4688A03E6010D8E6CE08"",""assignmentId"":""5613f12b-c2da-4bc3-84a5-ead06872f6a7"",""projectId"":""54f8d589-66fc-4c65-830f-1dcc63bce8cc""}","https://test12345.live/?participantId=ADBED8CA237E4688A03E6010D8E6CE08&assignmentId=5613f12b-c2da-4bc3-84a5-ead06872f6a7&projectId=54f8d589-66fc-4c65-830f-1dcc63bce8cc","","null","<div style=""display: flex; justify-content: center; align-items: center;"">
                    <img src=""images/semantic/semantic_series_10/semantic_series_10_b.jpg"" style=""width: 300px; height: 300px;"" />
                  </div>","null","",""
"","","","","","html-keyboard-response","22","288838","0.0-17.0-2.0","ADBED8CA237E4688A03E6010D8E6CE08","ADBED8CA237E4688A03E6010D8E6CE08","5613f12b-c2da-4bc3-84a5-ead06872f6a7","54f8d589-66fc-4c65-830f-1dcc63bce8cc","{""participantId"":""ADBED8CA237E4688A03E6010D8E6CE08"",""assignmentId"":""5613f12b-c2da-4bc3-84a5-ead06872f6a7"",""projectId"":""54f8d589-66fc-4c65-830f-1dcc63bce8cc""}","https://test12345.live/?participantId=ADBED8CA237E4688A03E6010D8E6CE08&assignmentId=5613f12b-c2da-4bc3-84a5-ead06872f6a7&projectId=54f8d589-66fc-4c65-830f-1dcc63bce8cc","","null","<div style=""display: flex; justify-content: center; align-items: center;"">
                    <img src=""images/semantic/semantic_series_10/semantic_series_10_c.jpg"" style=""width: 300px; height: 300px;"" />
                  </div>","null","",""
"","","","","","html-keyboard-response","23","291839","0.0-17.0-3.0","ADBED8CA237E4688A03E6010D8E6CE08","ADBED8CA237E4688A03E6010D8E6CE08","5613f12b-c2da-4bc3-84a5-ead06872f6a7","54f8d589-66fc-4c65-830f-1dcc63bce8cc","{""participantId"":""ADBED8CA237E4688A03E6010D8E6CE08"",""assignmentId"":""5613f12b-c2da-4bc3-84a5-ead06872f6a7"",""projectId"":""54f8d589-66fc-4c65-830f-1dcc63bce8cc""}","https://test12345.live/?participantId=ADBED8CA237E4688A03E6010D8E6CE08&assignmentId=5613f12b-c2da-4bc3-84a5-ead06872f6a7&projectId=54f8d589-66fc-4c65-830f-1dcc63bce8cc","","null","<div style=""display: flex; justify-content: center; align-items: center;"">
                    <img src=""images/semantic/semantic_series_10/semantic_series_10_d.jpg"" style=""width: 300px; height: 300px;"" />
                  </div>","null","",""
"","","","","","html-button-response","24","293418","0.0-18.0","ADBED8CA237E4688A03E6010D8E6CE08","ADBED8CA237E4688A03E6010D8E6CE08","5613f12b-c2da-4bc3-84a5-ead06872f6a7","54f8d589-66fc-4c65-830f-1dcc63bce8cc","{""participantId"":""ADBED8CA237E4688A03E6010D8E6CE08"",""assignmentId"":""5613f12b-c2da-4bc3-84a5-ead06872f6a7"",""projectId"":""54f8d589-66fc-4c65-830f-1dcc63bce8cc""}","https://test12345.live/?participantId=ADBED8CA237E4688A03E6010D8E6CE08&assignmentId=5613f12b-c2da-4bc3-84a5-ead06872f6a7&projectId=54f8d589-66fc-4c65-830f-1dcc63bce8cc","","1578","Was there a person in the picture?","1","",""
"","","","","","survey-likert","25","296351","0.0-19.0","ADBED8CA237E4688A03E6010D8E6CE08","ADBED8CA237E4688A03E6010D8E6CE08","5613f12b-c2da-4bc3-84a5-ead06872f6a7","54f8d589-66fc-4c65-830f-1dcc63bce8cc","{""participantId"":""ADBED8CA237E4688A03E6010D8E6CE08"",""assignmentId"":""5613f12b-c2da-4bc3-84a5-ead06872f6a7"",""projectId"":""54f8d589-66fc-4c65-830f-1dcc63bce8cc""}","https://test12345.live/?participantId=ADBED8CA237E4688A03E6010D8E6CE08&assignmentId=5613f12b-c2da-4bc3-84a5-ead06872f6a7&projectId=54f8d589-66fc-4c65-830f-1dcc63bce8cc","","2931","","{""Q0"":2}","","[0]"
"","","","","","html-button-response","26","305818","0.0-20.0","ADBED8CA237E4688A03E6010D8E6CE08","ADBED8CA237E4688A03E6010D8E6CE08","5613f12b-c2da-4bc3-84a5-ead06872f6a7","54f8d589-66fc-4c65-830f-1dcc63bce8cc","{""participantId"":""ADBED8CA237E4688A03E6010D8E6CE08"",""assignmentId"":""5613f12b-c2da-4bc3-84a5-ead06872f6a7"",""projectId"":""54f8d589-66fc-4c65-830f-1dcc63bce8cc""}","https://test12345.live/?participantId=ADBED8CA237E4688A03E6010D8E6CE08&assignmentId=5613f12b-c2da-4bc3-84a5-ead06872f6a7&projectId=54f8d589-66fc-4c65-830f-1dcc63bce8cc","","9465","
    <div style=""display: flex; justify-content: center; align-items: center;"">
      <img src=""images/red_deck_2.png"" style=""width: 300px; height: 300px; margin-right: 10px;"" />
      <img src=""images/blue_deck_1.png"" style=""width: 300px; height: 300px;"" />
    </div>","1","1",""
"","","","","","html-keyboard-response","27","308832","0.0-22.0-0.0","ADBED8CA237E4688A03E6010D8E6CE08","ADBED8CA237E4688A03E6010D8E6CE08","5613f12b-c2da-4bc3-84a5-ead06872f6a7","54f8d589-66fc-4c65-830f-1dcc63bce8cc","{""participantId"":""ADBED8CA237E4688A03E6010D8E6CE08"",""assignmentId"":""5613f12b-c2da-4bc3-84a5-ead06872f6a7"",""projectId"":""54f8d589-66fc-4c65-830f-1dcc63bce8cc""}","https://test12345.live/?participantId=ADBED8CA237E4688A03E6010D8E6CE08&assignmentId=5613f12b-c2da-4bc3-84a5-ead06872f6a7&projectId=54f8d589-66fc-4c65-830f-1dcc63bce8cc","","null","<div style=""display: flex; justify-content: center; align-items: center;"">
                    <img src=""images/semantic/semantic_series_9/semantic_series_9_a.jpg"" style=""width: 300px; height: 300px;"" />
                  </div>","null","",""
"","","","","","html-keyboard-response","28","311846","0.0-22.0-1.0","ADBED8CA237E4688A03E6010D8E6CE08","ADBED8CA237E4688A03E6010D8E6CE08","5613f12b-c2da-4bc3-84a5-ead06872f6a7","54f8d589-66fc-4c65-830f-1dcc63bce8cc","{""participantId"":""ADBED8CA237E4688A03E6010D8E6CE08"",""assignmentId"":""5613f12b-c2da-4bc3-84a5-ead06872f6a7"",""projectId"":""54f8d589-66fc-4c65-830f-1dcc63bce8cc""}","https://test12345.live/?participantId=ADBED8CA237E4688A03E6010D8E6CE08&assignmentId=5613f12b-c2da-4bc3-84a5-ead06872f6a7&projectId=54f8d589-66fc-4c65-830f-1dcc63bce8cc","","null","<div style=""display: flex; justify-content: center; align-items: center;"">
                    <img src=""images/semantic/semantic_series_9/semantic_series_9_b.jpg"" style=""width: 300px; height: 300px;"" />
                  </div>","null","",""
"","","","","","html-keyboard-response","29","314851","0.0-22.0-2.0","ADBED8CA237E4688A03E6010D8E6CE08","ADBED8CA237E4688A03E6010D8E6CE08","5613f12b-c2da-4bc3-84a5-ead06872f6a7","54f8d589-66fc-4c65-830f-1dcc63bce8cc","{""participantId"":""ADBED8CA237E4688A03E6010D8E6CE08"",""assignmentId"":""5613f12b-c2da-4bc3-84a5-ead06872f6a7"",""projectId"":""54f8d589-66fc-4c65-830f-1dcc63bce8cc""}","https://test12345.live/?participantId=ADBED8CA237E4688A03E6010D8E6CE08&assignmentId=5613f12b-c2da-4bc3-84a5-ead06872f6a7&projectId=54f8d589-66fc-4c65-830f-1dcc63bce8cc","","null","<div style=""display: flex; justify-content: center; align-items: center;"">
                    <img src=""images/semantic/semantic_series_9/semantic_series_9_c.jpg"" style=""width: 300px; height: 300px;"" />
                  </div>","null","",""
"","","","","","html-keyboard-response","30","317861","0.0-22.0-3.0","ADBED8CA237E4688A03E6010D8E6CE08","ADBED8CA237E4688A03E6010D8E6CE08","5613f12b-c2da-4bc3-84a5-ead06872f6a7","54f8d589-66fc-4c65-830f-1dcc63bce8cc","{""participantId"":""ADBED8CA237E4688A03E6010D8E6CE08"",""assignmentId"":""5613f12b-c2da-4bc3-84a5-ead06872f6a7"",""projectId"":""54f8d589-66fc-4c65-830f-1dcc63bce8cc""}","https://test12345.live/?participantId=ADBED8CA237E4688A03E6010D8E6CE08&assignmentId=5613f12b-c2da-4bc3-84a5-ead06872f6a7&projectId=54f8d589-66fc-4c65-830f-1dcc63bce8cc","","null","<div style=""display: flex; justify-content: center; align-items: center;"">
                    <img src=""images/semantic/semantic_series_9/semantic_series_9_d.jpg"" style=""width: 300px; height: 300px;"" />
                  </div>","null","",""
"","","","","","html-button-response","31","319031","0.0-23.0","ADBED8CA237E4688A03E6010D8E6CE08","ADBED8CA237E4688A03E6010D8E6CE08","5613f12b-c2da-4bc3-84a5-ead06872f6a7","54f8d589-66fc-4c65-830f-1dcc63bce8cc","{""participantId"":""ADBED8CA237E4688A03E6010D8E6CE08"",""assignmentId"":""5613f12b-c2da-4bc3-84a5-ead06872f6a7"",""projectId"":""54f8d589-66fc-4c65-830f-1dcc63bce8cc""}","https://test12345.live/?participantId=ADBED8CA237E4688A03E6010D8E6CE08&assignmentId=5613f12b-c2da-4bc3-84a5-ead06872f6a7&projectId=54f8d589-66fc-4c65-830f-1dcc63bce8cc","","1169","Was there a person in the picture?","1","",""
"","","","","","survey-likert","32","323044","0.0-24.0","ADBED8CA237E4688A03E6010D8E6CE08","ADBED8CA237E4688A03E6010D8E6CE08","5613f12b-c2da-4bc3-84a5-ead06872f6a7","54f8d589-66fc-4c65-830f-1dcc63bce8cc","{""participantId"":""ADBED8CA237E4688A03E6010D8E6CE08"",""assignmentId"":""5613f12b-c2da-4bc3-84a5-ead06872f6a7"",""projectId"":""54f8d589-66fc-4c65-830f-1dcc63bce8cc""}","https://test12345.live/?participantId=ADBED8CA237E4688A03E6010D8E6CE08&assignmentId=5613f12b-c2da-4bc3-84a5-ead06872f6a7&projectId=54f8d589-66fc-4c65-830f-1dcc63bce8cc","","4012","","{""Q0"":2}","","[0]"
"","","","","","html-button-response","33","324429","0.0-25.0","ADBED8CA237E4688A03E6010D8E6CE08","ADBED8CA237E4688A03E6010D8E6CE08","5613f12b-c2da-4bc3-84a5-ead06872f6a7","54f8d589-66fc-4c65-830f-1dcc63bce8cc","{""participantId"":""ADBED8CA237E4688A03E6010D8E6CE08"",""assignmentId"":""5613f12b-c2da-4bc3-84a5-ead06872f6a7"",""projectId"":""54f8d589-66fc-4c65-830f-1dcc63bce8cc""}","https://test12345.live/?participantId=ADBED8CA237E4688A03E6010D8E6CE08&assignmentId=5613f12b-c2da-4bc3-84a5-ead06872f6a7&projectId=54f8d589-66fc-4c65-830f-1dcc63bce8cc","","1382","
    <div style=""display: flex; justify-content: center; align-items: center;"">
      <img src=""images/red_deck_2.png"" style=""width: 300px; height: 300px; margin-right: 10px;"" />
      <img src=""images/blue_deck_1.png"" style=""width: 300px; height: 300px;"" />
    </div>","0","0",""
"","","","","","html-keyboard-response","34","327434","0.0-26.0-0.0","ADBED8CA237E4688A03E6010D8E6CE08","ADBED8CA237E4688A03E6010D8E6CE08","5613f12b-c2da-4bc3-84a5-ead06872f6a7","54f8d589-66fc-4c65-830f-1dcc63bce8cc","{""participantId"":""ADBED8CA237E4688A03E6010D8E6CE08"",""assignmentId"":""5613f12b-c2da-4bc3-84a5-ead06872f6a7"",""projectId"":""54f8d589-66fc-4c65-830f-1dcc63bce8cc""}","https://test12345.live/?participantId=ADBED8CA237E4688A03E6010D8E6CE08&assignmentId=5613f12b-c2da-4bc3-84a5-ead06872f6a7&projectId=54f8d589-66fc-4c65-830f-1dcc63bce8cc","","null","<div style=""display: flex; justify-content: center; align-items: center;"">
                    <img src=""images/causal/causal_series_1/causal_series_1_a.jpg"" style=""width: 300px; height: 300px;"" />
                  </div>","null","",""
"","","","","","html-keyboard-response","35","330439","0.0-26.0-1.0","ADBED8CA237E4688A03E6010D8E6CE08","ADBED8CA237E4688A03E6010D8E6CE08","5613f12b-c2da-4bc3-84a5-ead06872f6a7","54f8d589-66fc-4c65-830f-1dcc63bce8cc","{""participantId"":""ADBED8CA237E4688A03E6010D8E6CE08"",""assignmentId"":""5613f12b-c2da-4bc3-84a5-ead06872f6a7"",""projectId"":""54f8d589-66fc-4c65-830f-1dcc63bce8cc""}","https://test12345.live/?participantId=ADBED8CA237E4688A03E6010D8E6CE08&assignmentId=5613f12b-c2da-4bc3-84a5-ead06872f6a7&projectId=54f8d589-66fc-4c65-830f-1dcc63bce8cc","","null","<div style=""display: flex; justify-content: center; align-items: center;"">
                    <img src=""images/causal/causal_series_1/causal_series_1_b.jpg"" style=""width: 300px; height: 300px;"" />
                  </div>","null","",""
"","","","","","html-keyboard-response","36","333453","0.0-26.0-2.0","ADBED8CA237E4688A03E6010D8E6CE08","ADBED8CA237E4688A03E6010D8E6CE08","5613f12b-c2da-4bc3-84a5-ead06872f6a7","54f8d589-66fc-4c65-830f-1dcc63bce8cc","{""participantId"":""ADBED8CA237E4688A03E6010D8E6CE08"",""assignmentId"":""5613f12b-c2da-4bc3-84a5-ead06872f6a7"",""projectId"":""54f8d589-66fc-4c65-830f-1dcc63bce8cc""}","https://test12345.live/?participantId=ADBED8CA237E4688A03E6010D8E6CE08&assignmentId=5613f12b-c2da-4bc3-84a5-ead06872f6a7&projectId=54f8d589-66fc-4c65-830f-1dcc63bce8cc","","null","<div style=""display: flex; justify-content: center; align-items: center;"">
                    <img src=""images/causal/causal_series_1/causal_series_1_c.jpg"" style=""width: 300px; height: 300px;"" />
                  </div>","null","",""
"","","","","","html-keyboard-response","37","336470","0.0-26.0-3.0","ADBED8CA237E4688A03E6010D8E6CE08","ADBED8CA237E4688A03E6010D8E6CE08","5613f12b-c2da-4bc3-84a5-ead06872f6a7","54f8d589-66fc-4c65-830f-1dcc63bce8cc","{""participantId"":""ADBED8CA237E4688A03E6010D8E6CE08"",""assignmentId"":""5613f12b-c2da-4bc3-84a5-ead06872f6a7"",""projectId"":""54f8d589-66fc-4c65-830f-1dcc63bce8cc""}","https://test12345.live/?participantId=ADBED8CA237E4688A03E6010D8E6CE08&assignmentId=5613f12b-c2da-4bc3-84a5-ead06872f6a7&projectId=54f8d589-66fc-4c65-830f-1dcc63bce8cc","","null","<div style=""display: flex; justify-content: center; align-items: center;"">
                    <img src=""images/causal/causal_series_1/causal_series_1_d.jpg"" style=""width: 300px; height: 300px;"" />
                  </div>","null","",""
"","","","","","html-button-response","38","337967","0.0-28.0","ADBED8CA237E4688A03E6010D8E6CE08","ADBED8CA237E4688A03E6010D8E6CE08","5613f12b-c2da-4bc3-84a5-ead06872f6a7","54f8d589-66fc-4c65-830f-1dcc63bce8cc","{""participantId"":""ADBED8CA237E4688A03E6010D8E6CE08"",""assignmentId"":""5613f12b-c2da-4bc3-84a5-ead06872f6a7"",""projectId"":""54f8d589-66fc-4c65-830f-1dcc63bce8cc""}","https://test12345.live/?participantId=ADBED8CA237E4688A03E6010D8E6CE08&assignmentId=5613f12b-c2da-4bc3-84a5-ead06872f6a7&projectId=54f8d589-66fc-4c65-830f-1dcc63bce8cc","","1496","Was there a person in the picture?","0","",""
"","","","","","survey-likert","39","340323","0.0-29.0","ADBED8CA237E4688A03E6010D8E6CE08","ADBED8CA237E4688A03E6010D8E6CE08","5613f12b-c2da-4bc3-84a5-ead06872f6a7","54f8d589-66fc-4c65-830f-1dcc63bce8cc","{""participantId"":""ADBED8CA237E4688A03E6010D8E6CE08"",""assignmentId"":""5613f12b-c2da-4bc3-84a5-ead06872f6a7"",""projectId"":""54f8d589-66fc-4c65-830f-1dcc63bce8cc""}","https://test12345.live/?participantId=ADBED8CA237E4688A03E6010D8E6CE08&assignmentId=5613f12b-c2da-4bc3-84a5-ead06872f6a7&projectId=54f8d589-66fc-4c65-830f-1dcc63bce8cc","","2354","","{""Q0"":3}","","[0]"
"","","","","","html-button-response","40","341622","0.0-30.0","ADBED8CA237E4688A03E6010D8E6CE08","ADBED8CA237E4688A03E6010D8E6CE08","5613f12b-c2da-4bc3-84a5-ead06872f6a7","54f8d589-66fc-4c65-830f-1dcc63bce8cc","{""participantId"":""ADBED8CA237E4688A03E6010D8E6CE08"",""assignmentId"":""5613f12b-c2da-4bc3-84a5-ead06872f6a7"",""projectId"":""54f8d589-66fc-4c65-830f-1dcc63bce8cc""}","https://test12345.live/?participantId=ADBED8CA237E4688A03E6010D8E6CE08&assignmentId=5613f12b-c2da-4bc3-84a5-ead06872f6a7&projectId=54f8d589-66fc-4c65-830f-1dcc63bce8cc","","1296","
    <div style=""display: flex; justify-content: center; align-items: center;"">
      <img src=""images/red_deck_2.png"" style=""width: 300px; height: 300px; margin-right: 10px;"" />
      <img src=""images/blue_deck_1.png"" style=""width: 300px; height: 300px;"" />
    </div>","0","0",""
"","","","","","html-keyboard-response","41","344636","0.0-31.0-0.0","ADBED8CA237E4688A03E6010D8E6CE08","ADBED8CA237E4688A03E6010D8E6CE08","5613f12b-c2da-4bc3-84a5-ead06872f6a7","54f8d589-66fc-4c65-830f-1dcc63bce8cc","{""participantId"":""ADBED8CA237E4688A03E6010D8E6CE08"",""assignmentId"":""5613f12b-c2da-4bc3-84a5-ead06872f6a7"",""projectId"":""54f8d589-66fc-4c65-830f-1dcc63bce8cc""}","https://test12345.live/?participantId=ADBED8CA237E4688A03E6010D8E6CE08&assignmentId=5613f12b-c2da-4bc3-84a5-ead06872f6a7&projectId=54f8d589-66fc-4c65-830f-1dcc63bce8cc","","null","<div style=""display: flex; justify-content: center; align-items: center;"">
                    <img src=""images/causal/causal_series_8/causal_series_8_a.jpg"" style=""width: 300px; height: 300px;"" />
                  </div>","null","",""
"","","","","","html-keyboard-response","42","347644","0.0-31.0-1.0","ADBED8CA237E4688A03E6010D8E6CE08","ADBED8CA237E4688A03E6010D8E6CE08","5613f12b-c2da-4bc3-84a5-ead06872f6a7","54f8d589-66fc-4c65-830f-1dcc63bce8cc","{""participantId"":""ADBED8CA237E4688A03E6010D8E6CE08"",""assignmentId"":""5613f12b-c2da-4bc3-84a5-ead06872f6a7"",""projectId"":""54f8d589-66fc-4c65-830f-1dcc63bce8cc""}","https://test12345.live/?participantId=ADBED8CA237E4688A03E6010D8E6CE08&assignmentId=5613f12b-c2da-4bc3-84a5-ead06872f6a7&projectId=54f8d589-66fc-4c65-830f-1dcc63bce8cc","","null","<div style=""display: flex; justify-content: center; align-items: center;"">
                    <img src=""images/causal/causal_series_8/causal_series_8_b.jpg"" style=""width: 300px; height: 300px;"" />
                  </div>","null","",""
"","","","","","html-keyboard-response","43","350659","0.0-31.0-2.0","ADBED8CA237E4688A03E6010D8E6CE08","ADBED8CA237E4688A03E6010D8E6CE08","5613f12b-c2da-4bc3-84a5-ead06872f6a7","54f8d589-66fc-4c65-830f-1dcc63bce8cc","{""participantId"":""ADBED8CA237E4688A03E6010D8E6CE08"",""assignmentId"":""5613f12b-c2da-4bc3-84a5-ead06872f6a7"",""projectId"":""54f8d589-66fc-4c65-830f-1dcc63bce8cc""}","https://test12345.live/?participantId=ADBED8CA237E4688A03E6010D8E6CE08&assignmentId=5613f12b-c2da-4bc3-84a5-ead06872f6a7&projectId=54f8d589-66fc-4c65-830f-1dcc63bce8cc","","null","<div style=""display: flex; justify-content: center; align-items: center;"">
                    <img src=""images/causal/causal_series_8/causal_series_8_c.jpg"" style=""width: 300px; height: 300px;"" />
                  </div>","null","",""
"","","","","","html-keyboard-response","44","353669","0.0-31.0-3.0","ADBED8CA237E4688A03E6010D8E6CE08","ADBED8CA237E4688A03E6010D8E6CE08","5613f12b-c2da-4bc3-84a5-ead06872f6a7","54f8d589-66fc-4c65-830f-1dcc63bce8cc","{""participantId"":""ADBED8CA237E4688A03E6010D8E6CE08"",""assignmentId"":""5613f12b-c2da-4bc3-84a5-ead06872f6a7"",""projectId"":""54f8d589-66fc-4c65-830f-1dcc63bce8cc""}","https://test12345.live/?participantId=ADBED8CA237E4688A03E6010D8E6CE08&assignmentId=5613f12b-c2da-4bc3-84a5-ead06872f6a7&projectId=54f8d589-66fc-4c65-830f-1dcc63bce8cc","","null","<div style=""display: flex; justify-content: center; align-items: center;"">
                    <img src=""images/causal/causal_series_8/causal_series_8_d.jpg"" style=""width: 300px; height: 300px;"" />
                  </div>","null","",""
"","","","","","html-button-response","45","356338","0.0-33.0","ADBED8CA237E4688A03E6010D8E6CE08","ADBED8CA237E4688A03E6010D8E6CE08","5613f12b-c2da-4bc3-84a5-ead06872f6a7","54f8d589-66fc-4c65-830f-1dcc63bce8cc","{""participantId"":""ADBED8CA237E4688A03E6010D8E6CE08"",""assignmentId"":""5613f12b-c2da-4bc3-84a5-ead06872f6a7"",""projectId"":""54f8d589-66fc-4c65-830f-1dcc63bce8cc""}","https://test12345.live/?participantId=ADBED8CA237E4688A03E6010D8E6CE08&assignmentId=5613f12b-c2da-4bc3-84a5-ead06872f6a7&projectId=54f8d589-66fc-4c65-830f-1dcc63bce8cc","","2668","Was there a person in the picture?","1","",""
"","","","","","survey-likert","46","359749","0.0-34.0","ADBED8CA237E4688A03E6010D8E6CE08","ADBED8CA237E4688A03E6010D8E6CE08","5613f12b-c2da-4bc3-84a5-ead06872f6a7","54f8d589-66fc-4c65-830f-1dcc63bce8cc","{""participantId"":""ADBED8CA237E4688A03E6010D8E6CE08"",""assignmentId"":""5613f12b-c2da-4bc3-84a5-ead06872f6a7"",""projectId"":""54f8d589-66fc-4c65-830f-1dcc63bce8cc""}","https://test12345.live/?participantId=ADBED8CA237E4688A03E6010D8E6CE08&assignmentId=5613f12b-c2da-4bc3-84a5-ead06872f6a7&projectId=54f8d589-66fc-4c65-830f-1dcc63bce8cc","","3410","","{""Q0"":3}","","[0]"
"","","","","","html-button-response","47","362357","0.0-35.0","ADBED8CA237E4688A03E6010D8E6CE08","ADBED8CA237E4688A03E6010D8E6CE08","5613f12b-c2da-4bc3-84a5-ead06872f6a7","54f8d589-66fc-4c65-830f-1dcc63bce8cc","{""participantId"":""ADBED8CA237E4688A03E6010D8E6CE08"",""assignmentId"":""5613f12b-c2da-4bc3-84a5-ead06872f6a7"",""projectId"":""54f8d589-66fc-4c65-830f-1dcc63bce8cc""}","https://test12345.live/?participantId=ADBED8CA237E4688A03E6010D8E6CE08&assignmentId=5613f12b-c2da-4bc3-84a5-ead06872f6a7&projectId=54f8d589-66fc-4c65-830f-1dcc63bce8cc","","2606","
    <div style=""display: flex; justify-content: center; align-items: center;"">
      <img src=""images/red_deck_2.png"" style=""width: 300px; height: 300px; margin-right: 10px;"" />
      <img src=""images/blue_deck_1.png"" style=""width: 300px; height: 300px;"" />
    </div>","1","1",""
"","","","","","html-keyboard-response","48","365368","0.0-37.0-0.0","ADBED8CA237E4688A03E6010D8E6CE08","ADBED8CA237E4688A03E6010D8E6CE08","5613f12b-c2da-4bc3-84a5-ead06872f6a7","54f8d589-66fc-4c65-830f-1dcc63bce8cc","{""participantId"":""ADBED8CA237E4688A03E6010D8E6CE08"",""assignmentId"":""5613f12b-c2da-4bc3-84a5-ead06872f6a7"",""projectId"":""54f8d589-66fc-4c65-830f-1dcc63bce8cc""}","https://test12345.live/?participantId=ADBED8CA237E4688A03E6010D8E6CE08&assignmentId=5613f12b-c2da-4bc3-84a5-ead06872f6a7&projectId=54f8d589-66fc-4c65-830f-1dcc63bce8cc","","null","<div style=""display: flex; justify-content: center; align-items: center;"">
                    <img src=""images/semantic/semantic_series_17/semantic_series_17_a.jpg"" style=""width: 300px; height: 300px;"" />
                  </div>","null","",""
"","","","","","html-keyboard-response","49","368373","0.0-37.0-1.0","ADBED8CA237E4688A03E6010D8E6CE08","ADBED8CA237E4688A03E6010D8E6CE08","5613f12b-c2da-4bc3-84a5-ead06872f6a7","54f8d589-66fc-4c65-830f-1dcc63bce8cc","{""participantId"":""ADBED8CA237E4688A03E6010D8E6CE08"",""assignmentId"":""5613f12b-c2da-4bc3-84a5-ead06872f6a7"",""projectId"":""54f8d589-66fc-4c65-830f-1dcc63bce8cc""}","https://test12345.live/?participantId=ADBED8CA237E4688A03E6010D8E6CE08&assignmentId=5613f12b-c2da-4bc3-84a5-ead06872f6a7&projectId=54f8d589-66fc-4c65-830f-1dcc63bce8cc","","null","<div style=""display: flex; justify-content: center; align-items: center;"">
                    <img src=""images/semantic/semantic_series_17/semantic_series_17_b.jpg"" style=""width: 300px; height: 300px;"" />
                  </div>","null","",""
"","","","","","html-keyboard-response","50","371376","0.0-37.0-2.0","ADBED8CA237E4688A03E6010D8E6CE08","ADBED8CA237E4688A03E6010D8E6CE08","5613f12b-c2da-4bc3-84a5-ead06872f6a7","54f8d589-66fc-4c65-830f-1dcc63bce8cc","{""participantId"":""ADBED8CA237E4688A03E6010D8E6CE08"",""assignmentId"":""5613f12b-c2da-4bc3-84a5-ead06872f6a7"",""projectId"":""54f8d589-66fc-4c65-830f-1dcc63bce8cc""}","https://test12345.live/?participantId=ADBED8CA237E4688A03E6010D8E6CE08&assignmentId=5613f12b-c2da-4bc3-84a5-ead06872f6a7&projectId=54f8d589-66fc-4c65-830f-1dcc63bce8cc","","null","<div style=""display: flex; justify-content: center; align-items: center;"">
                    <img src=""images/semantic/semantic_series_17/semantic_series_17_c.jpg"" style=""width: 300px; height: 300px;"" />
                  </div>","null","",""
"","","","","","html-keyboard-response","51","374378","0.0-37.0-3.0","ADBED8CA237E4688A03E6010D8E6CE08","ADBED8CA237E4688A03E6010D8E6CE08","5613f12b-c2da-4bc3-84a5-ead06872f6a7","54f8d589-66fc-4c65-830f-1dcc63bce8cc","{""participantId"":""ADBED8CA237E4688A03E6010D8E6CE08"",""assignmentId"":""5613f12b-c2da-4bc3-84a5-ead06872f6a7"",""projectId"":""54f8d589-66fc-4c65-830f-1dcc63bce8cc""}","https://test12345.live/?participantId=ADBED8CA237E4688A03E6010D8E6CE08&assignmentId=5613f12b-c2da-4bc3-84a5-ead06872f6a7&projectId=54f8d589-66fc-4c65-830f-1dcc63bce8cc","","null","<div style=""display: flex; justify-content: center; align-items: center;"">
                    <img src=""images/semantic/semantic_series_17/semantic_series_17_d.jpg"" style=""width: 300px; height: 300px;"" />
                  </div>","null","",""
"","","","","","html-button-response","52","376600","0.0-38.0","ADBED8CA237E4688A03E6010D8E6CE08","ADBED8CA237E4688A03E6010D8E6CE08","5613f12b-c2da-4bc3-84a5-ead06872f6a7","54f8d589-66fc-4c65-830f-1dcc63bce8cc","{""participantId"":""ADBED8CA237E4688A03E6010D8E6CE08"",""assignmentId"":""5613f12b-c2da-4bc3-84a5-ead06872f6a7"",""projectId"":""54f8d589-66fc-4c65-830f-1dcc63bce8cc""}","https://test12345.live/?participantId=ADBED8CA237E4688A03E6010D8E6CE08&assignmentId=5613f12b-c2da-4bc3-84a5-ead06872f6a7&projectId=54f8d589-66fc-4c65-830f-1dcc63bce8cc","","2222","Was there a person in the picture?","0","",""
"","","","","","survey-likert","53","379947","0.0-39.0","ADBED8CA237E4688A03E6010D8E6CE08","ADBED8CA237E4688A03E6010D8E6CE08","5613f12b-c2da-4bc3-84a5-ead06872f6a7","54f8d589-66fc-4c65-830f-1dcc63bce8cc","{""participantId"":""ADBED8CA237E4688A03E6010D8E6CE08"",""assignmentId"":""5613f12b-c2da-4bc3-84a5-ead06872f6a7"",""projectId"":""54f8d589-66fc-4c65-830f-1dcc63bce8cc""}","https://test12345.live/?participantId=ADBED8CA237E4688A03E6010D8E6CE08&assignmentId=5613f12b-c2da-4bc3-84a5-ead06872f6a7&projectId=54f8d589-66fc-4c65-830f-1dcc63bce8cc","","3346","","{""Q0"":3}","","[0]"
"","","","","","html-button-response","54","381932","0.0-40.0","ADBED8CA237E4688A03E6010D8E6CE08","ADBED8CA237E4688A03E6010D8E6CE08","5613f12b-c2da-4bc3-84a5-ead06872f6a7","54f8d589-66fc-4c65-830f-1dcc63bce8cc","{""participantId"":""ADBED8CA237E4688A03E6010D8E6CE08"",""assignmentId"":""5613f12b-c2da-4bc3-84a5-ead06872f6a7"",""projectId"":""54f8d589-66fc-4c65-830f-1dcc63bce8cc""}","https://test12345.live/?participantId=ADBED8CA237E4688A03E6010D8E6CE08&assignmentId=5613f12b-c2da-4bc3-84a5-ead06872f6a7&projectId=54f8d589-66fc-4c65-830f-1dcc63bce8cc","","1983","
    <div style=""display: flex; justify-content: center; align-items: center;"">
      <img src=""images/red_deck_2.png"" style=""width: 300px; height: 300px; margin-right: 10px;"" />
      <img src=""images/blue_deck_1.png"" style=""width: 300px; height: 300px;"" />
    </div>","0","0",""
"","","","","","html-keyboard-response","55","384937","0.0-41.0-0.0","ADBED8CA237E4688A03E6010D8E6CE08","ADBED8CA237E4688A03E6010D8E6CE08","5613f12b-c2da-4bc3-84a5-ead06872f6a7","54f8d589-66fc-4c65-830f-1dcc63bce8cc","{""participantId"":""ADBED8CA237E4688A03E6010D8E6CE08"",""assignmentId"":""5613f12b-c2da-4bc3-84a5-ead06872f6a7"",""projectId"":""54f8d589-66fc-4c65-830f-1dcc63bce8cc""}","https://test12345.live/?participantId=ADBED8CA237E4688A03E6010D8E6CE08&assignmentId=5613f12b-c2da-4bc3-84a5-ead06872f6a7&projectId=54f8d589-66fc-4c65-830f-1dcc63bce8cc","","null","<div style=""display: flex; justify-content: center; align-items: center;"">
                    <img src=""images/causal/causal_series_3/causal_series_3_a.jpg"" style=""width: 300px; height: 300px;"" />
                  </div>","null","",""
"","","","","","html-keyboard-response","56","387952","0.0-41.0-1.0","ADBED8CA237E4688A03E6010D8E6CE08","ADBED8CA237E4688A03E6010D8E6CE08","5613f12b-c2da-4bc3-84a5-ead06872f6a7","54f8d589-66fc-4c65-830f-1dcc63bce8cc","{""participantId"":""ADBED8CA237E4688A03E6010D8E6CE08"",""assignmentId"":""5613f12b-c2da-4bc3-84a5-ead06872f6a7"",""projectId"":""54f8d589-66fc-4c65-830f-1dcc63bce8cc""}","https://test12345.live/?participantId=ADBED8CA237E4688A03E6010D8E6CE08&assignmentId=5613f12b-c2da-4bc3-84a5-ead06872f6a7&projectId=54f8d589-66fc-4c65-830f-1dcc63bce8cc","","null","<div style=""display: flex; justify-content: center; align-items: center;"">
                    <img src=""images/causal/causal_series_3/causal_series_3_b.jpg"" style=""width: 300px; height: 300px;"" />
                  </div>","null","",""
"","","","","","html-keyboard-response","57","390953","0.0-41.0-2.0","ADBED8CA237E4688A03E6010D8E6CE08","ADBED8CA237E4688A03E6010D8E6CE08","5613f12b-c2da-4bc3-84a5-ead06872f6a7","54f8d589-66fc-4c65-830f-1dcc63bce8cc","{""participantId"":""ADBED8CA237E4688A03E6010D8E6CE08"",""assignmentId"":""5613f12b-c2da-4bc3-84a5-ead06872f6a7"",""projectId"":""54f8d589-66fc-4c65-830f-1dcc63bce8cc""}","https://test12345.live/?participantId=ADBED8CA237E4688A03E6010D8E6CE08&assignmentId=5613f12b-c2da-4bc3-84a5-ead06872f6a7&projectId=54f8d589-66fc-4c65-830f-1dcc63bce8cc","","null","<div style=""display: flex; justify-content: center; align-items: center;"">
                    <img src=""images/causal/causal_series_3/causal_series_3_c.jpg"" style=""width: 300px; height: 300px;"" />
                  </div>","null","",""
"","","","","","html-keyboard-response","58","393965","0.0-41.0-3.0","ADBED8CA237E4688A03E6010D8E6CE08","ADBED8CA237E4688A03E6010D8E6CE08","5613f12b-c2da-4bc3-84a5-ead06872f6a7","54f8d589-66fc-4c65-830f-1dcc63bce8cc","{""participantId"":""ADBED8CA237E4688A03E6010D8E6CE08"",""assignmentId"":""5613f12b-c2da-4bc3-84a5-ead06872f6a7"",""projectId"":""54f8d589-66fc-4c65-830f-1dcc63bce8cc""}","https://test12345.live/?participantId=ADBED8CA237E4688A03E6010D8E6CE08&assignmentId=5613f12b-c2da-4bc3-84a5-ead06872f6a7&projectId=54f8d589-66fc-4c65-830f-1dcc63bce8cc","","null","<div style=""display: flex; justify-content: center; align-items: center;"">
                    <img src=""images/causal/causal_series_3/causal_series_3_d.jpg"" style=""width: 300px; height: 300px;"" />
                  </div>","null","",""
"","","","","","html-button-response","59","395446","0.0-43.0","ADBED8CA237E4688A03E6010D8E6CE08","ADBED8CA237E4688A03E6010D8E6CE08","5613f12b-c2da-4bc3-84a5-ead06872f6a7","54f8d589-66fc-4c65-830f-1dcc63bce8cc","{""participantId"":""ADBED8CA237E4688A03E6010D8E6CE08"",""assignmentId"":""5613f12b-c2da-4bc3-84a5-ead06872f6a7"",""projectId"":""54f8d589-66fc-4c65-830f-1dcc63bce8cc""}","https://test12345.live/?participantId=ADBED8CA237E4688A03E6010D8E6CE08&assignmentId=5613f12b-c2da-4bc3-84a5-ead06872f6a7&projectId=54f8d589-66fc-4c65-830f-1dcc63bce8cc","","1479","Was there a person in the picture?","0","",""
"","","","","","survey-likert","60","398154","0.0-44.0","ADBED8CA237E4688A03E6010D8E6CE08","ADBED8CA237E4688A03E6010D8E6CE08","5613f12b-c2da-4bc3-84a5-ead06872f6a7","54f8d589-66fc-4c65-830f-1dcc63bce8cc","{""participantId"":""ADBED8CA237E4688A03E6010D8E6CE08"",""assignmentId"":""5613f12b-c2da-4bc3-84a5-ead06872f6a7"",""projectId"":""54f8d589-66fc-4c65-830f-1dcc63bce8cc""}","https://test12345.live/?participantId=ADBED8CA237E4688A03E6010D8E6CE08&assignmentId=5613f12b-c2da-4bc3-84a5-ead06872f6a7&projectId=54f8d589-66fc-4c65-830f-1dcc63bce8cc","","2707","","{""Q0"":3}","","[0]"
"","","","","","html-button-response","61","399676","0.0-45.0","ADBED8CA237E4688A03E6010D8E6CE08","ADBED8CA237E4688A03E6010D8E6CE08","5613f12b-c2da-4bc3-84a5-ead06872f6a7","54f8d589-66fc-4c65-830f-1dcc63bce8cc","{""participantId"":""ADBED8CA237E4688A03E6010D8E6CE08"",""assignmentId"":""5613f12b-c2da-4bc3-84a5-ead06872f6a7"",""projectId"":""54f8d589-66fc-4c65-830f-1dcc63bce8cc""}","https://test12345.live/?participantId=ADBED8CA237E4688A03E6010D8E6CE08&assignmentId=5613f12b-c2da-4bc3-84a5-ead06872f6a7&projectId=54f8d589-66fc-4c65-830f-1dcc63bce8cc","","1520","
    <div style=""display: flex; justify-content: center; align-items: center;"">
      <img src=""images/red_deck_2.png"" style=""width: 300px; height: 300px; margin-right: 10px;"" />
      <img src=""images/blue_deck_1.png"" style=""width: 300px; height: 300px;"" />
    </div>","1","1",""
"","","","","","html-keyboard-response","62","402689","0.0-47.0-0.0","ADBED8CA237E4688A03E6010D8E6CE08","ADBED8CA237E4688A03E6010D8E6CE08","5613f12b-c2da-4bc3-84a5-ead06872f6a7","54f8d589-66fc-4c65-830f-1dcc63bce8cc","{""participantId"":""ADBED8CA237E4688A03E6010D8E6CE08"",""assignmentId"":""5613f12b-c2da-4bc3-84a5-ead06872f6a7"",""projectId"":""54f8d589-66fc-4c65-830f-1dcc63bce8cc""}","https://test12345.live/?participantId=ADBED8CA237E4688A03E6010D8E6CE08&assignmentId=5613f12b-c2da-4bc3-84a5-ead06872f6a7&projectId=54f8d589-66fc-4c65-830f-1dcc63bce8cc","","null","<div style=""display: flex; justify-content: center; align-items: center;"">
                    <img src=""images/semantic/semantic_series_8/semantic_series_8_a.jpg"" style=""width: 300px; height: 300px;"" />
                  </div>","null","",""
"","","","","","html-keyboard-response","63","405692","0.0-47.0-1.0","ADBED8CA237E4688A03E6010D8E6CE08","ADBED8CA237E4688A03E6010D8E6CE08","5613f12b-c2da-4bc3-84a5-ead06872f6a7","54f8d589-66fc-4c65-830f-1dcc63bce8cc","{""participantId"":""ADBED8CA237E4688A03E6010D8E6CE08"",""assignmentId"":""5613f12b-c2da-4bc3-84a5-ead06872f6a7"",""projectId"":""54f8d589-66fc-4c65-830f-1dcc63bce8cc""}","https://test12345.live/?participantId=ADBED8CA237E4688A03E6010D8E6CE08&assignmentId=5613f12b-c2da-4bc3-84a5-ead06872f6a7&projectId=54f8d589-66fc-4c65-830f-1dcc63bce8cc","","null","<div style=""display: flex; justify-content: center; align-items: center;"">
                    <img src=""images/semantic/semantic_series_8/semantic_series_8_b.jpg"" style=""width: 300px; height: 300px;"" />
                  </div>","null","",""
"","","","","","html-keyboard-response","64","408702","0.0-47.0-2.0","ADBED8CA237E4688A03E6010D8E6CE08","ADBED8CA237E4688A03E6010D8E6CE08","5613f12b-c2da-4bc3-84a5-ead06872f6a7","54f8d589-66fc-4c65-830f-1dcc63bce8cc","{""participantId"":""ADBED8CA237E4688A03E6010D8E6CE08"",""assignmentId"":""5613f12b-c2da-4bc3-84a5-ead06872f6a7"",""projectId"":""54f8d589-66fc-4c65-830f-1dcc63bce8cc""}","https://test12345.live/?participantId=ADBED8CA237E4688A03E6010D8E6CE08&assignmentId=5613f12b-c2da-4bc3-84a5-ead06872f6a7&projectId=54f8d589-66fc-4c65-830f-1dcc63bce8cc","","null","<div style=""display: flex; justify-content: center; align-items: center;"">
                    <img src=""images/semantic/semantic_series_8/semantic_series_8_c.jpg"" style=""width: 300px; height: 300px;"" />
                  </div>","null","",""
"","","","","","html-keyboard-response","65","411715","0.0-47.0-3.0","ADBED8CA237E4688A03E6010D8E6CE08","ADBED8CA237E4688A03E6010D8E6CE08","5613f12b-c2da-4bc3-84a5-ead06872f6a7","54f8d589-66fc-4c65-830f-1dcc63bce8cc","{""participantId"":""ADBED8CA237E4688A03E6010D8E6CE08"",""assignmentId"":""5613f12b-c2da-4bc3-84a5-ead06872f6a7"",""projectId"":""54f8d589-66fc-4c65-830f-1dcc63bce8cc""}","https://test12345.live/?participantId=ADBED8CA237E4688A03E6010D8E6CE08&assignmentId=5613f12b-c2da-4bc3-84a5-ead06872f6a7&projectId=54f8d589-66fc-4c65-830f-1dcc63bce8cc","","null","<div style=""display: flex; justify-content: center; align-items: center;"">
                    <img src=""images/semantic/semantic_series_8/semantic_series_8_d.jpg"" style=""width: 300px; height: 300px;"" />
                  </div>","null","",""
"","","","","","html-button-response","66","413526","0.0-48.0","ADBED8CA237E4688A03E6010D8E6CE08","ADBED8CA237E4688A03E6010D8E6CE08","5613f12b-c2da-4bc3-84a5-ead06872f6a7","54f8d589-66fc-4c65-830f-1dcc63bce8cc","{""participantId"":""ADBED8CA237E4688A03E6010D8E6CE08"",""assignmentId"":""5613f12b-c2da-4bc3-84a5-ead06872f6a7"",""projectId"":""54f8d589-66fc-4c65-830f-1dcc63bce8cc""}","https://test12345.live/?participantId=ADBED8CA237E4688A03E6010D8E6CE08&assignmentId=5613f12b-c2da-4bc3-84a5-ead06872f6a7&projectId=54f8d589-66fc-4c65-830f-1dcc63bce8cc","","1809","Was there a person in the picture?","1","",""
"","","","","","survey-likert","67","418229","0.0-49.0","ADBED8CA237E4688A03E6010D8E6CE08","ADBED8CA237E4688A03E6010D8E6CE08","5613f12b-c2da-4bc3-84a5-ead06872f6a7","54f8d589-66fc-4c65-830f-1dcc63bce8cc","{""participantId"":""ADBED8CA237E4688A03E6010D8E6CE08"",""assignmentId"":""5613f12b-c2da-4bc3-84a5-ead06872f6a7"",""projectId"":""54f8d589-66fc-4c65-830f-1dcc63bce8cc""}","https://test12345.live/?participantId=ADBED8CA237E4688A03E6010D8E6CE08&assignmentId=5613f12b-c2da-4bc3-84a5-ead06872f6a7&projectId=54f8d589-66fc-4c65-830f-1dcc63bce8cc","","4702","","{""Q0"":2}","","[0]"
"","","","","","html-button-response","68","419618","0.0-50.0","ADBED8CA237E4688A03E6010D8E6CE08","ADBED8CA237E4688A03E6010D8E6CE08","5613f12b-c2da-4bc3-84a5-ead06872f6a7","54f8d589-66fc-4c65-830f-1dcc63bce8cc","{""participantId"":""ADBED8CA237E4688A03E6010D8E6CE08"",""assignmentId"":""5613f12b-c2da-4bc3-84a5-ead06872f6a7"",""projectId"":""54f8d589-66fc-4c65-830f-1dcc63bce8cc""}","https://test12345.live/?participantId=ADBED8CA237E4688A03E6010D8E6CE08&assignmentId=5613f12b-c2da-4bc3-84a5-ead06872f6a7&projectId=54f8d589-66fc-4c65-830f-1dcc63bce8cc","","1387","
    <div style=""display: flex; justify-content: center; align-items: center;"">
      <img src=""images/red_deck_2.png"" style=""width: 300px; height: 300px; margin-right: 10px;"" />
      <img src=""images/blue_deck_1.png"" style=""width: 300px; height: 300px;"" />
    </div>","0","0",""
"","","","","","html-keyboard-response","69","422626","0.0-51.0-0.0","ADBED8CA237E4688A03E6010D8E6CE08","ADBED8CA237E4688A03E6010D8E6CE08","5613f12b-c2da-4bc3-84a5-ead06872f6a7","54f8d589-66fc-4c65-830f-1dcc63bce8cc","{""participantId"":""ADBED8CA237E4688A03E6010D8E6CE08"",""assignmentId"":""5613f12b-c2da-4bc3-84a5-ead06872f6a7"",""projectId"":""54f8d589-66fc-4c65-830f-1dcc63bce8cc""}","https://test12345.live/?participantId=ADBED8CA237E4688A03E6010D8E6CE08&assignmentId=5613f12b-c2da-4bc3-84a5-ead06872f6a7&projectId=54f8d589-66fc-4c65-830f-1dcc63bce8cc","","null","<div style=""display: flex; justify-content: center; align-items: center;"">
                    <img src=""images/causal/causal_series_9/causal_series_9_a.jpg"" style=""width: 300px; height: 300px;"" />
                  </div>","null","",""
"","","","","","html-keyboard-response","70","425637","0.0-51.0-1.0","ADBED8CA237E4688A03E6010D8E6CE08","ADBED8CA237E4688A03E6010D8E6CE08","5613f12b-c2da-4bc3-84a5-ead06872f6a7","54f8d589-66fc-4c65-830f-1dcc63bce8cc","{""participantId"":""ADBED8CA237E4688A03E6010D8E6CE08"",""assignmentId"":""5613f12b-c2da-4bc3-84a5-ead06872f6a7"",""projectId"":""54f8d589-66fc-4c65-830f-1dcc63bce8cc""}","https://test12345.live/?participantId=ADBED8CA237E4688A03E6010D8E6CE08&assignmentId=5613f12b-c2da-4bc3-84a5-ead06872f6a7&projectId=54f8d589-66fc-4c65-830f-1dcc63bce8cc","","null","<div style=""display: flex; justify-content: center; align-items: center;"">
                    <img src=""images/causal/causal_series_9/causal_series_9_b.jpg"" style=""width: 300px; height: 300px;"" />
                  </div>","null","",""
"","","","","","html-keyboard-response","71","428646","0.0-51.0-2.0","ADBED8CA237E4688A03E6010D8E6CE08","ADBED8CA237E4688A03E6010D8E6CE08","5613f12b-c2da-4bc3-84a5-ead06872f6a7","54f8d589-66fc-4c65-830f-1dcc63bce8cc","{""participantId"":""ADBED8CA237E4688A03E6010D8E6CE08"",""assignmentId"":""5613f12b-c2da-4bc3-84a5-ead06872f6a7"",""projectId"":""54f8d589-66fc-4c65-830f-1dcc63bce8cc""}","https://test12345.live/?participantId=ADBED8CA237E4688A03E6010D8E6CE08&assignmentId=5613f12b-c2da-4bc3-84a5-ead06872f6a7&projectId=54f8d589-66fc-4c65-830f-1dcc63bce8cc","","null","<div style=""display: flex; justify-content: center; align-items: center;"">
                    <img src=""images/causal/causal_series_9/causal_series_9_c.jpg"" style=""width: 300px; height: 300px;"" />
                  </div>","null","",""
"","","","","","html-keyboard-response","72","431657","0.0-51.0-3.0","ADBED8CA237E4688A03E6010D8E6CE08","ADBED8CA237E4688A03E6010D8E6CE08","5613f12b-c2da-4bc3-84a5-ead06872f6a7","54f8d589-66fc-4c65-830f-1dcc63bce8cc","{""participantId"":""ADBED8CA237E4688A03E6010D8E6CE08"",""assignmentId"":""5613f12b-c2da-4bc3-84a5-ead06872f6a7"",""projectId"":""54f8d589-66fc-4c65-830f-1dcc63bce8cc""}","https://test12345.live/?participantId=ADBED8CA237E4688A03E6010D8E6CE08&assignmentId=5613f12b-c2da-4bc3-84a5-ead06872f6a7&projectId=54f8d589-66fc-4c65-830f-1dcc63bce8cc","","null","<div style=""display: flex; justify-content: center; align-items: center;"">
                    <img src=""images/causal/causal_series_9/causal_series_9_d.jpg"" style=""width: 300px; height: 300px;"" />
                  </div>","null","",""
"","","","","","html-button-response","73","433603","0.0-53.0","ADBED8CA237E4688A03E6010D8E6CE08","ADBED8CA237E4688A03E6010D8E6CE08","5613f12b-c2da-4bc3-84a5-ead06872f6a7","54f8d589-66fc-4c65-830f-1dcc63bce8cc","{""participantId"":""ADBED8CA237E4688A03E6010D8E6CE08"",""assignmentId"":""5613f12b-c2da-4bc3-84a5-ead06872f6a7"",""projectId"":""54f8d589-66fc-4c65-830f-1dcc63bce8cc""}","https://test12345.live/?participantId=ADBED8CA237E4688A03E6010D8E6CE08&assignmentId=5613f12b-c2da-4bc3-84a5-ead06872f6a7&projectId=54f8d589-66fc-4c65-830f-1dcc63bce8cc","","1944","Was there a person in the picture?","1","",""
"","","","","","survey-likert","74","436473","0.0-54.0","ADBED8CA237E4688A03E6010D8E6CE08","ADBED8CA237E4688A03E6010D8E6CE08","5613f12b-c2da-4bc3-84a5-ead06872f6a7","54f8d589-66fc-4c65-830f-1dcc63bce8cc","{""participantId"":""ADBED8CA237E4688A03E6010D8E6CE08"",""assignmentId"":""5613f12b-c2da-4bc3-84a5-ead06872f6a7"",""projectId"":""54f8d589-66fc-4c65-830f-1dcc63bce8cc""}","https://test12345.live/?participantId=ADBED8CA237E4688A03E6010D8E6CE08&assignmentId=5613f12b-c2da-4bc3-84a5-ead06872f6a7&projectId=54f8d589-66fc-4c65-830f-1dcc63bce8cc","","2868","","{""Q0"":2}","","[0]"
"","","","","","html-button-response","75","437733","0.0-55.0","ADBED8CA237E4688A03E6010D8E6CE08","ADBED8CA237E4688A03E6010D8E6CE08","5613f12b-c2da-4bc3-84a5-ead06872f6a7","54f8d589-66fc-4c65-830f-1dcc63bce8cc","{""participantId"":""ADBED8CA237E4688A03E6010D8E6CE08"",""assignmentId"":""5613f12b-c2da-4bc3-84a5-ead06872f6a7"",""projectId"":""54f8d589-66fc-4c65-830f-1dcc63bce8cc""}","https://test12345.live/?participantId=ADBED8CA237E4688A03E6010D8E6CE08&assignmentId=5613f12b-c2da-4bc3-84a5-ead06872f6a7&projectId=54f8d589-66fc-4c65-830f-1dcc63bce8cc","","1258","
    <div style=""display: flex; justify-content: center; align-items: center;"">
      <img src=""images/red_deck_2.png"" style=""width: 300px; height: 300px; margin-right: 10px;"" />
      <img src=""images/blue_deck_1.png"" style=""width: 300px; height: 300px;"" />
    </div>","0","0",""
"","","","","","html-keyboard-response","76","440747","0.0-56.0-0.0","ADBED8CA237E4688A03E6010D8E6CE08","ADBED8CA237E4688A03E6010D8E6CE08","5613f12b-c2da-4bc3-84a5-ead06872f6a7","54f8d589-66fc-4c65-830f-1dcc63bce8cc","{""participantId"":""ADBED8CA237E4688A03E6010D8E6CE08"",""assignmentId"":""5613f12b-c2da-4bc3-84a5-ead06872f6a7"",""projectId"":""54f8d589-66fc-4c65-830f-1dcc63bce8cc""}","https://test12345.live/?participantId=ADBED8CA237E4688A03E6010D8E6CE08&assignmentId=5613f12b-c2da-4bc3-84a5-ead06872f6a7&projectId=54f8d589-66fc-4c65-830f-1dcc63bce8cc","","null","<div style=""display: flex; justify-content: center; align-items: center;"">
                    <img src=""images/causal/causal_series_12/causal_series_12_a.jpg"" style=""width: 300px; height: 300px;"" />
                  </div>","null","",""
"","","","","","html-keyboard-response","77","443750","0.0-56.0-1.0","ADBED8CA237E4688A03E6010D8E6CE08","ADBED8CA237E4688A03E6010D8E6CE08","5613f12b-c2da-4bc3-84a5-ead06872f6a7","54f8d589-66fc-4c65-830f-1dcc63bce8cc","{""participantId"":""ADBED8CA237E4688A03E6010D8E6CE08"",""assignmentId"":""5613f12b-c2da-4bc3-84a5-ead06872f6a7"",""projectId"":""54f8d589-66fc-4c65-830f-1dcc63bce8cc""}","https://test12345.live/?participantId=ADBED8CA237E4688A03E6010D8E6CE08&assignmentId=5613f12b-c2da-4bc3-84a5-ead06872f6a7&projectId=54f8d589-66fc-4c65-830f-1dcc63bce8cc","","null","<div style=""display: flex; justify-content: center; align-items: center;"">
                    <img src=""images/causal/causal_series_12/causal_series_12_b.jpg"" style=""width: 300px; height: 300px;"" />
                  </div>","null","",""
"","","","","","html-keyboard-response","78","446757","0.0-56.0-2.0","ADBED8CA237E4688A03E6010D8E6CE08","ADBED8CA237E4688A03E6010D8E6CE08","5613f12b-c2da-4bc3-84a5-ead06872f6a7","54f8d589-66fc-4c65-830f-1dcc63bce8cc","{""participantId"":""ADBED8CA237E4688A03E6010D8E6CE08"",""assignmentId"":""5613f12b-c2da-4bc3-84a5-ead06872f6a7"",""projectId"":""54f8d589-66fc-4c65-830f-1dcc63bce8cc""}","https://test12345.live/?participantId=ADBED8CA237E4688A03E6010D8E6CE08&assignmentId=5613f12b-c2da-4bc3-84a5-ead06872f6a7&projectId=54f8d589-66fc-4c65-830f-1dcc63bce8cc","","null","<div style=""display: flex; justify-content: center; align-items: center;"">
                    <img src=""images/causal/causal_series_12/causal_series_12_c.jpg"" style=""width: 300px; height: 300px;"" />
                  </div>","null","",""
"","","","","","html-keyboard-response","79","449759","0.0-56.0-3.0","ADBED8CA237E4688A03E6010D8E6CE08","ADBED8CA237E4688A03E6010D8E6CE08","5613f12b-c2da-4bc3-84a5-ead06872f6a7","54f8d589-66fc-4c65-830f-1dcc63bce8cc","{""participantId"":""ADBED8CA237E4688A03E6010D8E6CE08"",""assignmentId"":""5613f12b-c2da-4bc3-84a5-ead06872f6a7"",""projectId"":""54f8d589-66fc-4c65-830f-1dcc63bce8cc""}","https://test12345.live/?participantId=ADBED8CA237E4688A03E6010D8E6CE08&assignmentId=5613f12b-c2da-4bc3-84a5-ead06872f6a7&projectId=54f8d589-66fc-4c65-830f-1dcc63bce8cc","","null","<div style=""display: flex; justify-content: center; align-items: center;"">
                    <img src=""images/causal/causal_series_12/causal_series_12_d.jpg"" style=""width: 300px; height: 300px;"" />
                  </div>","null","",""
"","","","","","html-button-response","80","451748","0.0-58.0","ADBED8CA237E4688A03E6010D8E6CE08","ADBED8CA237E4688A03E6010D8E6CE08","5613f12b-c2da-4bc3-84a5-ead06872f6a7","54f8d589-66fc-4c65-830f-1dcc63bce8cc","{""participantId"":""ADBED8CA237E4688A03E6010D8E6CE08"",""assignmentId"":""5613f12b-c2da-4bc3-84a5-ead06872f6a7"",""projectId"":""54f8d589-66fc-4c65-830f-1dcc63bce8cc""}","https://test12345.live/?participantId=ADBED8CA237E4688A03E6010D8E6CE08&assignmentId=5613f12b-c2da-4bc3-84a5-ead06872f6a7&projectId=54f8d589-66fc-4c65-830f-1dcc63bce8cc","","1988","Was there a person in the picture?","1","",""
"","","","","","survey-likert","81","454590","0.0-59.0","ADBED8CA237E4688A03E6010D8E6CE08","ADBED8CA237E4688A03E6010D8E6CE08","5613f12b-c2da-4bc3-84a5-ead06872f6a7","54f8d589-66fc-4c65-830f-1dcc63bce8cc","{""participantId"":""ADBED8CA237E4688A03E6010D8E6CE08"",""assignmentId"":""5613f12b-c2da-4bc3-84a5-ead06872f6a7"",""projectId"":""54f8d589-66fc-4c65-830f-1dcc63bce8cc""}","https://test12345.live/?participantId=ADBED8CA237E4688A03E6010D8E6CE08&assignmentId=5613f12b-c2da-4bc3-84a5-ead06872f6a7&projectId=54f8d589-66fc-4c65-830f-1dcc63bce8cc","","2840","","{""Q0"":2}","","[0]"
"","","","","","html-button-response","82","455984","0.0-60.0","ADBED8CA237E4688A03E6010D8E6CE08","ADBED8CA237E4688A03E6010D8E6CE08","5613f12b-c2da-4bc3-84a5-ead06872f6a7","54f8d589-66fc-4c65-830f-1dcc63bce8cc","{""participantId"":""ADBED8CA237E4688A03E6010D8E6CE08"",""assignmentId"":""5613f12b-c2da-4bc3-84a5-ead06872f6a7"",""projectId"":""54f8d589-66fc-4c65-830f-1dcc63bce8cc""}","https://test12345.live/?participantId=ADBED8CA237E4688A03E6010D8E6CE08&assignmentId=5613f12b-c2da-4bc3-84a5-ead06872f6a7&projectId=54f8d589-66fc-4c65-830f-1dcc63bce8cc","","1392","
    <div style=""display: flex; justify-content: center; align-items: center;"">
      <img src=""images/red_deck_2.png"" style=""width: 300px; height: 300px; margin-right: 10px;"" />
      <img src=""images/blue_deck_1.png"" style=""width: 300px; height: 300px;"" />
    </div>","0","0",""
"","","","","","html-keyboard-response","83","458986","0.0-61.0-0.0","ADBED8CA237E4688A03E6010D8E6CE08","ADBED8CA237E4688A03E6010D8E6CE08","5613f12b-c2da-4bc3-84a5-ead06872f6a7","54f8d589-66fc-4c65-830f-1dcc63bce8cc","{""participantId"":""ADBED8CA237E4688A03E6010D8E6CE08"",""assignmentId"":""5613f12b-c2da-4bc3-84a5-ead06872f6a7"",""projectId"":""54f8d589-66fc-4c65-830f-1dcc63bce8cc""}","https://test12345.live/?participantId=ADBED8CA237E4688A03E6010D8E6CE08&assignmentId=5613f12b-c2da-4bc3-84a5-ead06872f6a7&projectId=54f8d589-66fc-4c65-830f-1dcc63bce8cc","","null","<div style=""display: flex; justify-content: center; align-items: center;"">
                    <img src=""images/causal/causal_series_2/causal_series_2_a.jpg"" style=""width: 300px; height: 300px;"" />
                  </div>","null","",""
"","","","","","html-keyboard-response","84","461988","0.0-61.0-1.0","ADBED8CA237E4688A03E6010D8E6CE08","ADBED8CA237E4688A03E6010D8E6CE08","5613f12b-c2da-4bc3-84a5-ead06872f6a7","54f8d589-66fc-4c65-830f-1dcc63bce8cc","{""participantId"":""ADBED8CA237E4688A03E6010D8E6CE08"",""assignmentId"":""5613f12b-c2da-4bc3-84a5-ead06872f6a7"",""projectId"":""54f8d589-66fc-4c65-830f-1dcc63bce8cc""}","https://test12345.live/?participantId=ADBED8CA237E4688A03E6010D8E6CE08&assignmentId=5613f12b-c2da-4bc3-84a5-ead06872f6a7&projectId=54f8d589-66fc-4c65-830f-1dcc63bce8cc","","null","<div style=""display: flex; justify-content: center; align-items: center;"">
                    <img src=""images/causal/causal_series_2/causal_series_2_b.jpg"" style=""width: 300px; height: 300px;"" />
                  </div>","null","",""
"","","","","","html-keyboard-response","85","464996","0.0-61.0-2.0","ADBED8CA237E4688A03E6010D8E6CE08","ADBED8CA237E4688A03E6010D8E6CE08","5613f12b-c2da-4bc3-84a5-ead06872f6a7","54f8d589-66fc-4c65-830f-1dcc63bce8cc","{""participantId"":""ADBED8CA237E4688A03E6010D8E6CE08"",""assignmentId"":""5613f12b-c2da-4bc3-84a5-ead06872f6a7"",""projectId"":""54f8d589-66fc-4c65-830f-1dcc63bce8cc""}","https://test12345.live/?participantId=ADBED8CA237E4688A03E6010D8E6CE08&assignmentId=5613f12b-c2da-4bc3-84a5-ead06872f6a7&projectId=54f8d589-66fc-4c65-830f-1dcc63bce8cc","","null","<div style=""display: flex; justify-content: center; align-items: center;"">
                    <img src=""images/causal/causal_series_2/causal_series_2_c.jpg"" style=""width: 300px; height: 300px;"" />
                  </div>","null","",""
"","","","","","html-keyboard-response","86","467998","0.0-61.0-3.0","ADBED8CA237E4688A03E6010D8E6CE08","ADBED8CA237E4688A03E6010D8E6CE08","5613f12b-c2da-4bc3-84a5-ead06872f6a7","54f8d589-66fc-4c65-830f-1dcc63bce8cc","{""participantId"":""ADBED8CA237E4688A03E6010D8E6CE08"",""assignmentId"":""5613f12b-c2da-4bc3-84a5-ead06872f6a7"",""projectId"":""54f8d589-66fc-4c65-830f-1dcc63bce8cc""}","https://test12345.live/?participantId=ADBED8CA237E4688A03E6010D8E6CE08&assignmentId=5613f12b-c2da-4bc3-84a5-ead06872f6a7&projectId=54f8d589-66fc-4c65-830f-1dcc63bce8cc","","null","<div style=""display: flex; justify-content: center; align-items: center;"">
                    <img src=""images/causal/causal_series_2/causal_series_2_d.jpg"" style=""width: 300px; height: 300px;"" />
                  </div>","null","",""
"","","","","","html-button-response","87","472558","0.0-63.0","ADBED8CA237E4688A03E6010D8E6CE08","ADBED8CA237E4688A03E6010D8E6CE08","5613f12b-c2da-4bc3-84a5-ead06872f6a7","54f8d589-66fc-4c65-830f-1dcc63bce8cc","{""participantId"":""ADBED8CA237E4688A03E6010D8E6CE08"",""assignmentId"":""5613f12b-c2da-4bc3-84a5-ead06872f6a7"",""projectId"":""54f8d589-66fc-4c65-830f-1dcc63bce8cc""}","https://test12345.live/?participantId=ADBED8CA237E4688A03E6010D8E6CE08&assignmentId=5613f12b-c2da-4bc3-84a5-ead06872f6a7&projectId=54f8d589-66fc-4c65-830f-1dcc63bce8cc","","4559","Was there a person in the picture?","1","",""
"","","","","","survey-likert","88","475846","0.0-64.0","ADBED8CA237E4688A03E6010D8E6CE08","ADBED8CA237E4688A03E6010D8E6CE08","5613f12b-c2da-4bc3-84a5-ead06872f6a7","54f8d589-66fc-4c65-830f-1dcc63bce8cc","{""participantId"":""ADBED8CA237E4688A03E6010D8E6CE08"",""assignmentId"":""5613f12b-c2da-4bc3-84a5-ead06872f6a7"",""projectId"":""54f8d589-66fc-4c65-830f-1dcc63bce8cc""}","https://test12345.live/?participantId=ADBED8CA237E4688A03E6010D8E6CE08&assignmentId=5613f12b-c2da-4bc3-84a5-ead06872f6a7&projectId=54f8d589-66fc-4c65-830f-1dcc63bce8cc","","3287","","{""Q0"":2}","","[0]"
"","","","","","html-button-response","89","477220","0.0-65.0","ADBED8CA237E4688A03E6010D8E6CE08","ADBED8CA237E4688A03E6010D8E6CE08","5613f12b-c2da-4bc3-84a5-ead06872f6a7","54f8d589-66fc-4c65-830f-1dcc63bce8cc","{""participantId"":""ADBED8CA237E4688A03E6010D8E6CE08"",""assignmentId"":""5613f12b-c2da-4bc3-84a5-ead06872f6a7"",""projectId"":""54f8d589-66fc-4c65-830f-1dcc63bce8cc""}","https://test12345.live/?participantId=ADBED8CA237E4688A03E6010D8E6CE08&assignmentId=5613f12b-c2da-4bc3-84a5-ead06872f6a7&projectId=54f8d589-66fc-4c65-830f-1dcc63bce8cc","","1372","
    <div style=""display: flex; justify-content: center; align-items: center;"">
      <img src=""images/red_deck_2.png"" style=""width: 300px; height: 300px; margin-right: 10px;"" />
      <img src=""images/blue_deck_1.png"" style=""width: 300px; height: 300px;"" />
    </div>","0","0",""
"","","","","","html-keyboard-response","90","480229","0.0-66.0-0.0","ADBED8CA237E4688A03E6010D8E6CE08","ADBED8CA237E4688A03E6010D8E6CE08","5613f12b-c2da-4bc3-84a5-ead06872f6a7","54f8d589-66fc-4c65-830f-1dcc63bce8cc","{""participantId"":""ADBED8CA237E4688A03E6010D8E6CE08"",""assignmentId"":""5613f12b-c2da-4bc3-84a5-ead06872f6a7"",""projectId"":""54f8d589-66fc-4c65-830f-1dcc63bce8cc""}","https://test12345.live/?participantId=ADBED8CA237E4688A03E6010D8E6CE08&assignmentId=5613f12b-c2da-4bc3-84a5-ead06872f6a7&projectId=54f8d589-66fc-4c65-830f-1dcc63bce8cc","","null","<div style=""display: flex; justify-content: center; align-items: center;"">
                    <img src=""images/causal/causal_series_15/causal_series_15_a.jpg"" style=""width: 300px; height: 300px;"" />
                  </div>","null","",""
"","","","","","html-keyboard-response","91","483237","0.0-66.0-1.0","ADBED8CA237E4688A03E6010D8E6CE08","ADBED8CA237E4688A03E6010D8E6CE08","5613f12b-c2da-4bc3-84a5-ead06872f6a7","54f8d589-66fc-4c65-830f-1dcc63bce8cc","{""participantId"":""ADBED8CA237E4688A03E6010D8E6CE08"",""assignmentId"":""5613f12b-c2da-4bc3-84a5-ead06872f6a7"",""projectId"":""54f8d589-66fc-4c65-830f-1dcc63bce8cc""}","https://test12345.live/?participantId=ADBED8CA237E4688A03E6010D8E6CE08&assignmentId=5613f12b-c2da-4bc3-84a5-ead06872f6a7&projectId=54f8d589-66fc-4c65-830f-1dcc63bce8cc","","null","<div style=""display: flex; justify-content: center; align-items: center;"">
                    <img src=""images/causal/causal_series_15/causal_series_15_b.jpg"" style=""width: 300px; height: 300px;"" />
                  </div>","null","",""
"","","","","","html-keyboard-response","92","486238","0.0-66.0-2.0","ADBED8CA237E4688A03E6010D8E6CE08","ADBED8CA237E4688A03E6010D8E6CE08","5613f12b-c2da-4bc3-84a5-ead06872f6a7","54f8d589-66fc-4c65-830f-1dcc63bce8cc","{""participantId"":""ADBED8CA237E4688A03E6010D8E6CE08"",""assignmentId"":""5613f12b-c2da-4bc3-84a5-ead06872f6a7"",""projectId"":""54f8d589-66fc-4c65-830f-1dcc63bce8cc""}","https://test12345.live/?participantId=ADBED8CA237E4688A03E6010D8E6CE08&assignmentId=5613f12b-c2da-4bc3-84a5-ead06872f6a7&projectId=54f8d589-66fc-4c65-830f-1dcc63bce8cc","","null","<div style=""display: flex; justify-content: center; align-items: center;"">
                    <img src=""images/causal/causal_series_15/causal_series_15_c.jpg"" style=""width: 300px; height: 300px;"" />
                  </div>","null","",""
"","","","","","html-keyboard-response","93","489234","0.0-66.0-3.0","ADBED8CA237E4688A03E6010D8E6CE08","ADBED8CA237E4688A03E6010D8E6CE08","5613f12b-c2da-4bc3-84a5-ead06872f6a7","54f8d589-66fc-4c65-830f-1dcc63bce8cc","{""participantId"":""ADBED8CA237E4688A03E6010D8E6CE08"",""assignmentId"":""5613f12b-c2da-4bc3-84a5-ead06872f6a7"",""projectId"":""54f8d589-66fc-4c65-830f-1dcc63bce8cc""}","https://test12345.live/?participantId=ADBED8CA237E4688A03E6010D8E6CE08&assignmentId=5613f12b-c2da-4bc3-84a5-ead06872f6a7&projectId=54f8d589-66fc-4c65-830f-1dcc63bce8cc","","null","<div style=""display: flex; justify-content: center; align-items: center;"">
                    <img src=""images/causal/causal_series_15/causal_series_15_d.jpg"" style=""width: 300px; height: 300px;"" />
                  </div>","null","",""
"","","","","","html-button-response","94","491412","0.0-68.0","ADBED8CA237E4688A03E6010D8E6CE08","ADBED8CA237E4688A03E6010D8E6CE08","5613f12b-c2da-4bc3-84a5-ead06872f6a7","54f8d589-66fc-4c65-830f-1dcc63bce8cc","{""participantId"":""ADBED8CA237E4688A03E6010D8E6CE08"",""assignmentId"":""5613f12b-c2da-4bc3-84a5-ead06872f6a7"",""projectId"":""54f8d589-66fc-4c65-830f-1dcc63bce8cc""}","https://test12345.live/?participantId=ADBED8CA237E4688A03E6010D8E6CE08&assignmentId=5613f12b-c2da-4bc3-84a5-ead06872f6a7&projectId=54f8d589-66fc-4c65-830f-1dcc63bce8cc","","2177","Was there a person in the picture?","0","",""
"","","","","","survey-likert","95","493664","0.0-69.0","ADBED8CA237E4688A03E6010D8E6CE08","ADBED8CA237E4688A03E6010D8E6CE08","5613f12b-c2da-4bc3-84a5-ead06872f6a7","54f8d589-66fc-4c65-830f-1dcc63bce8cc","{""participantId"":""ADBED8CA237E4688A03E6010D8E6CE08"",""assignmentId"":""5613f12b-c2da-4bc3-84a5-ead06872f6a7"",""projectId"":""54f8d589-66fc-4c65-830f-1dcc63bce8cc""}","https://test12345.live/?participantId=ADBED8CA237E4688A03E6010D8E6CE08&assignmentId=5613f12b-c2da-4bc3-84a5-ead06872f6a7&projectId=54f8d589-66fc-4c65-830f-1dcc63bce8cc","","2250","","{""Q0"":2}","","[0]"
"","","","","","html-button-response","96","494901","0.0-70.0","ADBED8CA237E4688A03E6010D8E6CE08","ADBED8CA237E4688A03E6010D8E6CE08","5613f12b-c2da-4bc3-84a5-ead06872f6a7","54f8d589-66fc-4c65-830f-1dcc63bce8cc","{""participantId"":""ADBED8CA237E4688A03E6010D8E6CE08"",""assignmentId"":""5613f12b-c2da-4bc3-84a5-ead06872f6a7"",""projectId"":""54f8d589-66fc-4c65-830f-1dcc63bce8cc""}","https://test12345.live/?participantId=ADBED8CA237E4688A03E6010D8E6CE08&assignmentId=5613f12b-c2da-4bc3-84a5-ead06872f6a7&projectId=54f8d589-66fc-4c65-830f-1dcc63bce8cc","","1236","
    <div style=""display: flex; justify-content: center; align-items: center;"">
      <img src=""images/red_deck_2.png"" style=""width: 300px; height: 300px; margin-right: 10px;"" />
      <img src=""images/blue_deck_1.png"" style=""width: 300px; height: 300px;"" />
    </div>","0","0",""
"","","","","","html-keyboard-response","97","497903","0.0-71.0-0.0","ADBED8CA237E4688A03E6010D8E6CE08","ADBED8CA237E4688A03E6010D8E6CE08","5613f12b-c2da-4bc3-84a5-ead06872f6a7","54f8d589-66fc-4c65-830f-1dcc63bce8cc","{""participantId"":""ADBED8CA237E4688A03E6010D8E6CE08"",""assignmentId"":""5613f12b-c2da-4bc3-84a5-ead06872f6a7"",""projectId"":""54f8d589-66fc-4c65-830f-1dcc63bce8cc""}","https://test12345.live/?participantId=ADBED8CA237E4688A03E6010D8E6CE08&assignmentId=5613f12b-c2da-4bc3-84a5-ead06872f6a7&projectId=54f8d589-66fc-4c65-830f-1dcc63bce8cc","","null","<div style=""display: flex; justify-content: center; align-items: center;"">
                    <img src=""images/causal/causal_series_18/causal_series_18_a.jpg"" style=""width: 300px; height: 300px;"" />
                  </div>","null","",""
"","","","","","html-keyboard-response","98","500906","0.0-71.0-1.0","ADBED8CA237E4688A03E6010D8E6CE08","ADBED8CA237E4688A03E6010D8E6CE08","5613f12b-c2da-4bc3-84a5-ead06872f6a7","54f8d589-66fc-4c65-830f-1dcc63bce8cc","{""participantId"":""ADBED8CA237E4688A03E6010D8E6CE08"",""assignmentId"":""5613f12b-c2da-4bc3-84a5-ead06872f6a7"",""projectId"":""54f8d589-66fc-4c65-830f-1dcc63bce8cc""}","https://test12345.live/?participantId=ADBED8CA237E4688A03E6010D8E6CE08&assignmentId=5613f12b-c2da-4bc3-84a5-ead06872f6a7&projectId=54f8d589-66fc-4c65-830f-1dcc63bce8cc","","null","<div style=""display: flex; justify-content: center; align-items: center;"">
                    <img src=""images/causal/causal_series_18/causal_series_18_b.jpg"" style=""width: 300px; height: 300px;"" />
                  </div>","null","",""
"","","","","","html-keyboard-response","99","503909","0.0-71.0-2.0","ADBED8CA237E4688A03E6010D8E6CE08","ADBED8CA237E4688A03E6010D8E6CE08","5613f12b-c2da-4bc3-84a5-ead06872f6a7","54f8d589-66fc-4c65-830f-1dcc63bce8cc","{""participantId"":""ADBED8CA237E4688A03E6010D8E6CE08"",""assignmentId"":""5613f12b-c2da-4bc3-84a5-ead06872f6a7"",""projectId"":""54f8d589-66fc-4c65-830f-1dcc63bce8cc""}","https://test12345.live/?participantId=ADBED8CA237E4688A03E6010D8E6CE08&assignmentId=5613f12b-c2da-4bc3-84a5-ead06872f6a7&projectId=54f8d589-66fc-4c65-830f-1dcc63bce8cc","","null","<div style=""display: flex; justify-content: center; align-items: center;"">
                    <img src=""images/causal/causal_series_18/causal_series_18_c.jpg"" style=""width: 300px; height: 300px;"" />
                  </div>","null","",""
"","","","","","html-keyboard-response","100","506910","0.0-71.0-3.0","ADBED8CA237E4688A03E6010D8E6CE08","ADBED8CA237E4688A03E6010D8E6CE08","5613f12b-c2da-4bc3-84a5-ead06872f6a7","54f8d589-66fc-4c65-830f-1dcc63bce8cc","{""participantId"":""ADBED8CA237E4688A03E6010D8E6CE08"",""assignmentId"":""5613f12b-c2da-4bc3-84a5-ead06872f6a7"",""projectId"":""54f8d589-66fc-4c65-830f-1dcc63bce8cc""}","https://test12345.live/?participantId=ADBED8CA237E4688A03E6010D8E6CE08&assignmentId=5613f12b-c2da-4bc3-84a5-ead06872f6a7&projectId=54f8d589-66fc-4c65-830f-1dcc63bce8cc","","null","<div style=""display: flex; justify-content: center; align-items: center;"">
                    <img src=""images/causal/causal_series_18/causal_series_18_d.jpg"" style=""width: 300px; height: 300px;"" />
                  </div>","null","",""
"","","","","","html-button-response","101","508108","0.0-73.0","ADBED8CA237E4688A03E6010D8E6CE08","ADBED8CA237E4688A03E6010D8E6CE08","5613f12b-c2da-4bc3-84a5-ead06872f6a7","54f8d589-66fc-4c65-830f-1dcc63bce8cc","{""participantId"":""ADBED8CA237E4688A03E6010D8E6CE08"",""assignmentId"":""5613f12b-c2da-4bc3-84a5-ead06872f6a7"",""projectId"":""54f8d589-66fc-4c65-830f-1dcc63bce8cc""}","https://test12345.live/?participantId=ADBED8CA237E4688A03E6010D8E6CE08&assignmentId=5613f12b-c2da-4bc3-84a5-ead06872f6a7&projectId=54f8d589-66fc-4c65-830f-1dcc63bce8cc","","1195","Was there a person in the picture?","1","",""
"","","","","","survey-likert","102","510468","0.0-74.0","ADBED8CA237E4688A03E6010D8E6CE08","ADBED8CA237E4688A03E6010D8E6CE08","5613f12b-c2da-4bc3-84a5-ead06872f6a7","54f8d589-66fc-4c65-830f-1dcc63bce8cc","{""participantId"":""ADBED8CA237E4688A03E6010D8E6CE08"",""assignmentId"":""5613f12b-c2da-4bc3-84a5-ead06872f6a7"",""projectId"":""54f8d589-66fc-4c65-830f-1dcc63bce8cc""}","https://test12345.live/?participantId=ADBED8CA237E4688A03E6010D8E6CE08&assignmentId=5613f12b-c2da-4bc3-84a5-ead06872f6a7&projectId=54f8d589-66fc-4c65-830f-1dcc63bce8cc","","2357","","{""Q0"":2}","","[0]"
"","","","","","html-button-response","103","512639","0.0-75.0","ADBED8CA237E4688A03E6010D8E6CE08","ADBED8CA237E4688A03E6010D8E6CE08","5613f12b-c2da-4bc3-84a5-ead06872f6a7","54f8d589-66fc-4c65-830f-1dcc63bce8cc","{""participantId"":""ADBED8CA237E4688A03E6010D8E6CE08"",""assignmentId"":""5613f12b-c2da-4bc3-84a5-ead06872f6a7"",""projectId"":""54f8d589-66fc-4c65-830f-1dcc63bce8cc""}","https://test12345.live/?participantId=ADBED8CA237E4688A03E6010D8E6CE08&assignmentId=5613f12b-c2da-4bc3-84a5-ead06872f6a7&projectId=54f8d589-66fc-4c65-830f-1dcc63bce8cc","","2169","
    <div style=""display: flex; justify-content: center; align-items: center;"">
      <img src=""images/red_deck_2.png"" style=""width: 300px; height: 300px; margin-right: 10px;"" />
      <img src=""images/blue_deck_1.png"" style=""width: 300px; height: 300px;"" />
    </div>","1","1",""
"","","","","","html-keyboard-response","104","515648","0.0-77.0-0.0","ADBED8CA237E4688A03E6010D8E6CE08","ADBED8CA237E4688A03E6010D8E6CE08","5613f12b-c2da-4bc3-84a5-ead06872f6a7","54f8d589-66fc-4c65-830f-1dcc63bce8cc","{""participantId"":""ADBED8CA237E4688A03E6010D8E6CE08"",""assignmentId"":""5613f12b-c2da-4bc3-84a5-ead06872f6a7"",""projectId"":""54f8d589-66fc-4c65-830f-1dcc63bce8cc""}","https://test12345.live/?participantId=ADBED8CA237E4688A03E6010D8E6CE08&assignmentId=5613f12b-c2da-4bc3-84a5-ead06872f6a7&projectId=54f8d589-66fc-4c65-830f-1dcc63bce8cc","","null","<div style=""display: flex; justify-content: center; align-items: center;"">
                    <img src=""images/semantic/semantic_series_7/semantic_series_7_a.jpg"" style=""width: 300px; height: 300px;"" />
                  </div>","null","",""
"","","","","","html-keyboard-response","105","518652","0.0-77.0-1.0","ADBED8CA237E4688A03E6010D8E6CE08","ADBED8CA237E4688A03E6010D8E6CE08","5613f12b-c2da-4bc3-84a5-ead06872f6a7","54f8d589-66fc-4c65-830f-1dcc63bce8cc","{""participantId"":""ADBED8CA237E4688A03E6010D8E6CE08"",""assignmentId"":""5613f12b-c2da-4bc3-84a5-ead06872f6a7"",""projectId"":""54f8d589-66fc-4c65-830f-1dcc63bce8cc""}","https://test12345.live/?participantId=ADBED8CA237E4688A03E6010D8E6CE08&assignmentId=5613f12b-c2da-4bc3-84a5-ead06872f6a7&projectId=54f8d589-66fc-4c65-830f-1dcc63bce8cc","","null","<div style=""display: flex; justify-content: center; align-items: center;"">
                    <img src=""images/semantic/semantic_series_7/semantic_series_7_b.jpg"" style=""width: 300px; height: 300px;"" />
                  </div>","null","",""
"","","","","","html-keyboard-response","106","521663","0.0-77.0-2.0","ADBED8CA237E4688A03E6010D8E6CE08","ADBED8CA237E4688A03E6010D8E6CE08","5613f12b-c2da-4bc3-84a5-ead06872f6a7","54f8d589-66fc-4c65-830f-1dcc63bce8cc","{""participantId"":""ADBED8CA237E4688A03E6010D8E6CE08"",""assignmentId"":""5613f12b-c2da-4bc3-84a5-ead06872f6a7"",""projectId"":""54f8d589-66fc-4c65-830f-1dcc63bce8cc""}","https://test12345.live/?participantId=ADBED8CA237E4688A03E6010D8E6CE08&assignmentId=5613f12b-c2da-4bc3-84a5-ead06872f6a7&projectId=54f8d589-66fc-4c65-830f-1dcc63bce8cc","","null","<div style=""display: flex; justify-content: center; align-items: center;"">
                    <img src=""images/semantic/semantic_series_7/semantic_series_7_c.jpg"" style=""width: 300px; height: 300px;"" />
                  </div>","null","",""
"","","","","","html-keyboard-response","107","524675","0.0-77.0-3.0","ADBED8CA237E4688A03E6010D8E6CE08","ADBED8CA237E4688A03E6010D8E6CE08","5613f12b-c2da-4bc3-84a5-ead06872f6a7","54f8d589-66fc-4c65-830f-1dcc63bce8cc","{""participantId"":""ADBED8CA237E4688A03E6010D8E6CE08"",""assignmentId"":""5613f12b-c2da-4bc3-84a5-ead06872f6a7"",""projectId"":""54f8d589-66fc-4c65-830f-1dcc63bce8cc""}","https://test12345.live/?participantId=ADBED8CA237E4688A03E6010D8E6CE08&assignmentId=5613f12b-c2da-4bc3-84a5-ead06872f6a7&projectId=54f8d589-66fc-4c65-830f-1dcc63bce8cc","","null","<div style=""display: flex; justify-content: center; align-items: center;"">
                    <img src=""images/semantic/semantic_series_7/semantic_series_7_d.jpg"" style=""width: 300px; height: 300px;"" />
                  </div>","null","",""
"","","","","","html-button-response","108","526108","0.0-78.0","ADBED8CA237E4688A03E6010D8E6CE08","ADBED8CA237E4688A03E6010D8E6CE08","5613f12b-c2da-4bc3-84a5-ead06872f6a7","54f8d589-66fc-4c65-830f-1dcc63bce8cc","{""participantId"":""ADBED8CA237E4688A03E6010D8E6CE08"",""assignmentId"":""5613f12b-c2da-4bc3-84a5-ead06872f6a7"",""projectId"":""54f8d589-66fc-4c65-830f-1dcc63bce8cc""}","https://test12345.live/?participantId=ADBED8CA237E4688A03E6010D8E6CE08&assignmentId=5613f12b-c2da-4bc3-84a5-ead06872f6a7&projectId=54f8d589-66fc-4c65-830f-1dcc63bce8cc","","1431","Was there a person in the picture?","1","",""
"","","","","","survey-likert","109","531027","0.0-79.0","ADBED8CA237E4688A03E6010D8E6CE08","ADBED8CA237E4688A03E6010D8E6CE08","5613f12b-c2da-4bc3-84a5-ead06872f6a7","54f8d589-66fc-4c65-830f-1dcc63bce8cc","{""participantId"":""ADBED8CA237E4688A03E6010D8E6CE08"",""assignmentId"":""5613f12b-c2da-4bc3-84a5-ead06872f6a7"",""projectId"":""54f8d589-66fc-4c65-830f-1dcc63bce8cc""}","https://test12345.live/?participantId=ADBED8CA237E4688A03E6010D8E6CE08&assignmentId=5613f12b-c2da-4bc3-84a5-ead06872f6a7&projectId=54f8d589-66fc-4c65-830f-1dcc63bce8cc","","4918","","{""Q0"":1}","","[0]"
"","","","","","html-button-response","110","532493","0.0-80.0","ADBED8CA237E4688A03E6010D8E6CE08","ADBED8CA237E4688A03E6010D8E6CE08","5613f12b-c2da-4bc3-84a5-ead06872f6a7","54f8d589-66fc-4c65-830f-1dcc63bce8cc","{""participantId"":""ADBED8CA237E4688A03E6010D8E6CE08"",""assignmentId"":""5613f12b-c2da-4bc3-84a5-ead06872f6a7"",""projectId"":""54f8d589-66fc-4c65-830f-1dcc63bce8cc""}","https://test12345.live/?participantId=ADBED8CA237E4688A03E6010D8E6CE08&assignmentId=5613f12b-c2da-4bc3-84a5-ead06872f6a7&projectId=54f8d589-66fc-4c65-830f-1dcc63bce8cc","","1464","
    <div style=""display: flex; justify-content: center; align-items: center;"">
      <img src=""images/red_deck_2.png"" style=""width: 300px; height: 300px; margin-right: 10px;"" />
      <img src=""images/blue_deck_1.png"" style=""width: 300px; height: 300px;"" />
    </div>","1","1",""
"","","","","","html-keyboard-response","111","535504","0.0-82.0-0.0","ADBED8CA237E4688A03E6010D8E6CE08","ADBED8CA237E4688A03E6010D8E6CE08","5613f12b-c2da-4bc3-84a5-ead06872f6a7","54f8d589-66fc-4c65-830f-1dcc63bce8cc","{""participantId"":""ADBED8CA237E4688A03E6010D8E6CE08"",""assignmentId"":""5613f12b-c2da-4bc3-84a5-ead06872f6a7"",""projectId"":""54f8d589-66fc-4c65-830f-1dcc63bce8cc""}","https://test12345.live/?participantId=ADBED8CA237E4688A03E6010D8E6CE08&assignmentId=5613f12b-c2da-4bc3-84a5-ead06872f6a7&projectId=54f8d589-66fc-4c65-830f-1dcc63bce8cc","","null","<div style=""display: flex; justify-content: center; align-items: center;"">
                    <img src=""images/semantic/semantic_series_2/semantic_series_2_a.jpg"" style=""width: 300px; height: 300px;"" />
                  </div>","null","",""
"","","","","","html-keyboard-response","112","538511","0.0-82.0-1.0","ADBED8CA237E4688A03E6010D8E6CE08","ADBED8CA237E4688A03E6010D8E6CE08","5613f12b-c2da-4bc3-84a5-ead06872f6a7","54f8d589-66fc-4c65-830f-1dcc63bce8cc","{""participantId"":""ADBED8CA237E4688A03E6010D8E6CE08"",""assignmentId"":""5613f12b-c2da-4bc3-84a5-ead06872f6a7"",""projectId"":""54f8d589-66fc-4c65-830f-1dcc63bce8cc""}","https://test12345.live/?participantId=ADBED8CA237E4688A03E6010D8E6CE08&assignmentId=5613f12b-c2da-4bc3-84a5-ead06872f6a7&projectId=54f8d589-66fc-4c65-830f-1dcc63bce8cc","","null","<div style=""display: flex; justify-content: center; align-items: center;"">
                    <img src=""images/semantic/semantic_series_2/semantic_series_2_b.jpg"" style=""width: 300px; height: 300px;"" />
                  </div>","null","",""
"","","","","","html-keyboard-response","113","541516","0.0-82.0-2.0","ADBED8CA237E4688A03E6010D8E6CE08","ADBED8CA237E4688A03E6010D8E6CE08","5613f12b-c2da-4bc3-84a5-ead06872f6a7","54f8d589-66fc-4c65-830f-1dcc63bce8cc","{""participantId"":""ADBED8CA237E4688A03E6010D8E6CE08"",""assignmentId"":""5613f12b-c2da-4bc3-84a5-ead06872f6a7"",""projectId"":""54f8d589-66fc-4c65-830f-1dcc63bce8cc""}","https://test12345.live/?participantId=ADBED8CA237E4688A03E6010D8E6CE08&assignmentId=5613f12b-c2da-4bc3-84a5-ead06872f6a7&projectId=54f8d589-66fc-4c65-830f-1dcc63bce8cc","","null","<div style=""display: flex; justify-content: center; align-items: center;"">
                    <img src=""images/semantic/semantic_series_2/semantic_series_2_c.jpg"" style=""width: 300px; height: 300px;"" />
                  </div>","null","",""
"","","","","","html-keyboard-response","114","544518","0.0-82.0-3.0","ADBED8CA237E4688A03E6010D8E6CE08","ADBED8CA237E4688A03E6010D8E6CE08","5613f12b-c2da-4bc3-84a5-ead06872f6a7","54f8d589-66fc-4c65-830f-1dcc63bce8cc","{""participantId"":""ADBED8CA237E4688A03E6010D8E6CE08"",""assignmentId"":""5613f12b-c2da-4bc3-84a5-ead06872f6a7"",""projectId"":""54f8d589-66fc-4c65-830f-1dcc63bce8cc""}","https://test12345.live/?participantId=ADBED8CA237E4688A03E6010D8E6CE08&assignmentId=5613f12b-c2da-4bc3-84a5-ead06872f6a7&projectId=54f8d589-66fc-4c65-830f-1dcc63bce8cc","","null","<div style=""display: flex; justify-content: center; align-items: center;"">
                    <img src=""images/semantic/semantic_series_2/semantic_series_2_d.jpg"" style=""width: 300px; height: 300px;"" />
                  </div>","null","",""
"","","","","","html-button-response","115","547865","0.0-83.0","ADBED8CA237E4688A03E6010D8E6CE08","ADBED8CA237E4688A03E6010D8E6CE08","5613f12b-c2da-4bc3-84a5-ead06872f6a7","54f8d589-66fc-4c65-830f-1dcc63bce8cc","{""participantId"":""ADBED8CA237E4688A03E6010D8E6CE08"",""assignmentId"":""5613f12b-c2da-4bc3-84a5-ead06872f6a7"",""projectId"":""54f8d589-66fc-4c65-830f-1dcc63bce8cc""}","https://test12345.live/?participantId=ADBED8CA237E4688A03E6010D8E6CE08&assignmentId=5613f12b-c2da-4bc3-84a5-ead06872f6a7&projectId=54f8d589-66fc-4c65-830f-1dcc63bce8cc","","3345","Was there a person in the picture?","1","",""
"","","","","","survey-likert","116","554304","0.0-84.0","ADBED8CA237E4688A03E6010D8E6CE08","ADBED8CA237E4688A03E6010D8E6CE08","5613f12b-c2da-4bc3-84a5-ead06872f6a7","54f8d589-66fc-4c65-830f-1dcc63bce8cc","{""participantId"":""ADBED8CA237E4688A03E6010D8E6CE08"",""assignmentId"":""5613f12b-c2da-4bc3-84a5-ead06872f6a7"",""projectId"":""54f8d589-66fc-4c65-830f-1dcc63bce8cc""}","https://test12345.live/?participantId=ADBED8CA237E4688A03E6010D8E6CE08&assignmentId=5613f12b-c2da-4bc3-84a5-ead06872f6a7&projectId=54f8d589-66fc-4c65-830f-1dcc63bce8cc","","6424","","{""Q0"":1}","","[0]"
"","","","","","html-button-response","117","556482","0.0-85.0","ADBED8CA237E4688A03E6010D8E6CE08","ADBED8CA237E4688A03E6010D8E6CE08","5613f12b-c2da-4bc3-84a5-ead06872f6a7","54f8d589-66fc-4c65-830f-1dcc63bce8cc","{""participantId"":""ADBED8CA237E4688A03E6010D8E6CE08"",""assignmentId"":""5613f12b-c2da-4bc3-84a5-ead06872f6a7"",""projectId"":""54f8d589-66fc-4c65-830f-1dcc63bce8cc""}","https://test12345.live/?participantId=ADBED8CA237E4688A03E6010D8E6CE08&assignmentId=5613f12b-c2da-4bc3-84a5-ead06872f6a7&projectId=54f8d589-66fc-4c65-830f-1dcc63bce8cc","","2176","
    <div style=""display: flex; justify-content: center; align-items: center;"">
      <img src=""images/red_deck_2.png"" style=""width: 300px; height: 300px; margin-right: 10px;"" />
      <img src=""images/blue_deck_1.png"" style=""width: 300px; height: 300px;"" />
    </div>","1","1",""
"","","","","","html-keyboard-response","118","559485","0.0-87.0-0.0","ADBED8CA237E4688A03E6010D8E6CE08","ADBED8CA237E4688A03E6010D8E6CE08","5613f12b-c2da-4bc3-84a5-ead06872f6a7","54f8d589-66fc-4c65-830f-1dcc63bce8cc","{""participantId"":""ADBED8CA237E4688A03E6010D8E6CE08"",""assignmentId"":""5613f12b-c2da-4bc3-84a5-ead06872f6a7"",""projectId"":""54f8d589-66fc-4c65-830f-1dcc63bce8cc""}","https://test12345.live/?participantId=ADBED8CA237E4688A03E6010D8E6CE08&assignmentId=5613f12b-c2da-4bc3-84a5-ead06872f6a7&projectId=54f8d589-66fc-4c65-830f-1dcc63bce8cc","","null","<div style=""display: flex; justify-content: center; align-items: center;"">
                    <img src=""images/semantic/semantic_series_4/semantic_series_4_a.jpg"" style=""width: 300px; height: 300px;"" />
                  </div>","null","",""
"","","","","","html-keyboard-response","119","562491","0.0-87.0-1.0","ADBED8CA237E4688A03E6010D8E6CE08","ADBED8CA237E4688A03E6010D8E6CE08","5613f12b-c2da-4bc3-84a5-ead06872f6a7","54f8d589-66fc-4c65-830f-1dcc63bce8cc","{""participantId"":""ADBED8CA237E4688A03E6010D8E6CE08"",""assignmentId"":""5613f12b-c2da-4bc3-84a5-ead06872f6a7"",""projectId"":""54f8d589-66fc-4c65-830f-1dcc63bce8cc""}","https://test12345.live/?participantId=ADBED8CA237E4688A03E6010D8E6CE08&assignmentId=5613f12b-c2da-4bc3-84a5-ead06872f6a7&projectId=54f8d589-66fc-4c65-830f-1dcc63bce8cc","","null","<div style=""display: flex; justify-content: center; align-items: center;"">
                    <img src=""images/semantic/semantic_series_4/semantic_series_4_b.jpg"" style=""width: 300px; height: 300px;"" />
                  </div>","null","",""
"","","","","","html-keyboard-response","120","565493","0.0-87.0-2.0","ADBED8CA237E4688A03E6010D8E6CE08","ADBED8CA237E4688A03E6010D8E6CE08","5613f12b-c2da-4bc3-84a5-ead06872f6a7","54f8d589-66fc-4c65-830f-1dcc63bce8cc","{""participantId"":""ADBED8CA237E4688A03E6010D8E6CE08"",""assignmentId"":""5613f12b-c2da-4bc3-84a5-ead06872f6a7"",""projectId"":""54f8d589-66fc-4c65-830f-1dcc63bce8cc""}","https://test12345.live/?participantId=ADBED8CA237E4688A03E6010D8E6CE08&assignmentId=5613f12b-c2da-4bc3-84a5-ead06872f6a7&projectId=54f8d589-66fc-4c65-830f-1dcc63bce8cc","","null","<div style=""display: flex; justify-content: center; align-items: center;"">
                    <img src=""images/semantic/semantic_series_4/semantic_series_4_c.jpg"" style=""width: 300px; height: 300px;"" />
                  </div>","null","",""
"","","","","","html-keyboard-response","121","568503","0.0-87.0-3.0","ADBED8CA237E4688A03E6010D8E6CE08","ADBED8CA237E4688A03E6010D8E6CE08","5613f12b-c2da-4bc3-84a5-ead06872f6a7","54f8d589-66fc-4c65-830f-1dcc63bce8cc","{""participantId"":""ADBED8CA237E4688A03E6010D8E6CE08"",""assignmentId"":""5613f12b-c2da-4bc3-84a5-ead06872f6a7"",""projectId"":""54f8d589-66fc-4c65-830f-1dcc63bce8cc""}","https://test12345.live/?participantId=ADBED8CA237E4688A03E6010D8E6CE08&assignmentId=5613f12b-c2da-4bc3-84a5-ead06872f6a7&projectId=54f8d589-66fc-4c65-830f-1dcc63bce8cc","","null","<div style=""display: flex; justify-content: center; align-items: center;"">
                    <img src=""images/semantic/semantic_series_4/semantic_series_4_d.jpg"" style=""width: 300px; height: 300px;"" />
                  </div>","null","",""
"","","","","","html-button-response","122","570796","0.0-88.0","ADBED8CA237E4688A03E6010D8E6CE08","ADBED8CA237E4688A03E6010D8E6CE08","5613f12b-c2da-4bc3-84a5-ead06872f6a7","54f8d589-66fc-4c65-830f-1dcc63bce8cc","{""participantId"":""ADBED8CA237E4688A03E6010D8E6CE08"",""assignmentId"":""5613f12b-c2da-4bc3-84a5-ead06872f6a7"",""projectId"":""54f8d589-66fc-4c65-830f-1dcc63bce8cc""}","https://test12345.live/?participantId=ADBED8CA237E4688A03E6010D8E6CE08&assignmentId=5613f12b-c2da-4bc3-84a5-ead06872f6a7&projectId=54f8d589-66fc-4c65-830f-1dcc63bce8cc","","2292","Was there a person in the picture?","1","",""
"","","","","","survey-likert","123","587066","0.0-89.0","ADBED8CA237E4688A03E6010D8E6CE08","ADBED8CA237E4688A03E6010D8E6CE08","5613f12b-c2da-4bc3-84a5-ead06872f6a7","54f8d589-66fc-4c65-830f-1dcc63bce8cc","{""participantId"":""ADBED8CA237E4688A03E6010D8E6CE08"",""assignmentId"":""5613f12b-c2da-4bc3-84a5-ead06872f6a7"",""projectId"":""54f8d589-66fc-4c65-830f-1dcc63bce8cc""}","https://test12345.live/?participantId=ADBED8CA237E4688A03E6010D8E6CE08&assignmentId=5613f12b-c2da-4bc3-84a5-ead06872f6a7&projectId=54f8d589-66fc-4c65-830f-1dcc63bce8cc","","16269","","{""Q0"":2}","","[0]"
"","","","","","html-button-response","124","588244","0.0-90.0","ADBED8CA237E4688A03E6010D8E6CE08","ADBED8CA237E4688A03E6010D8E6CE08","5613f12b-c2da-4bc3-84a5-ead06872f6a7","54f8d589-66fc-4c65-830f-1dcc63bce8cc","{""participantId"":""ADBED8CA237E4688A03E6010D8E6CE08"",""assignmentId"":""5613f12b-c2da-4bc3-84a5-ead06872f6a7"",""projectId"":""54f8d589-66fc-4c65-830f-1dcc63bce8cc""}","https://test12345.live/?participantId=ADBED8CA237E4688A03E6010D8E6CE08&assignmentId=5613f12b-c2da-4bc3-84a5-ead06872f6a7&projectId=54f8d589-66fc-4c65-830f-1dcc63bce8cc","","1177","
    <div style=""display: flex; justify-content: center; align-items: center;"">
      <img src=""images/red_deck_2.png"" style=""width: 300px; height: 300px; margin-right: 10px;"" />
      <img src=""images/blue_deck_1.png"" style=""width: 300px; height: 300px;"" />
    </div>","0","0",""
"","","","","","html-keyboard-response","125","591254","0.0-91.0-0.0","ADBED8CA237E4688A03E6010D8E6CE08","ADBED8CA237E4688A03E6010D8E6CE08","5613f12b-c2da-4bc3-84a5-ead06872f6a7","54f8d589-66fc-4c65-830f-1dcc63bce8cc","{""participantId"":""ADBED8CA237E4688A03E6010D8E6CE08"",""assignmentId"":""5613f12b-c2da-4bc3-84a5-ead06872f6a7"",""projectId"":""54f8d589-66fc-4c65-830f-1dcc63bce8cc""}","https://test12345.live/?participantId=ADBED8CA237E4688A03E6010D8E6CE08&assignmentId=5613f12b-c2da-4bc3-84a5-ead06872f6a7&projectId=54f8d589-66fc-4c65-830f-1dcc63bce8cc","","null","<div style=""display: flex; justify-content: center; align-items: center;"">
                    <img src=""images/causal/causal_series_6/causal_series_6_a.jpg"" style=""width: 300px; height: 300px;"" />
                  </div>","null","",""
"","","","","","html-keyboard-response","126","594259","0.0-91.0-1.0","ADBED8CA237E4688A03E6010D8E6CE08","ADBED8CA237E4688A03E6010D8E6CE08","5613f12b-c2da-4bc3-84a5-ead06872f6a7","54f8d589-66fc-4c65-830f-1dcc63bce8cc","{""participantId"":""ADBED8CA237E4688A03E6010D8E6CE08"",""assignmentId"":""5613f12b-c2da-4bc3-84a5-ead06872f6a7"",""projectId"":""54f8d589-66fc-4c65-830f-1dcc63bce8cc""}","https://test12345.live/?participantId=ADBED8CA237E4688A03E6010D8E6CE08&assignmentId=5613f12b-c2da-4bc3-84a5-ead06872f6a7&projectId=54f8d589-66fc-4c65-830f-1dcc63bce8cc","","null","<div style=""display: flex; justify-content: center; align-items: center;"">
                    <img src=""images/causal/causal_series_6/causal_series_6_b.jpg"" style=""width: 300px; height: 300px;"" />
                  </div>","null","",""
"","","","","","html-keyboard-response","127","597261","0.0-91.0-2.0","ADBED8CA237E4688A03E6010D8E6CE08","ADBED8CA237E4688A03E6010D8E6CE08","5613f12b-c2da-4bc3-84a5-ead06872f6a7","54f8d589-66fc-4c65-830f-1dcc63bce8cc","{""participantId"":""ADBED8CA237E4688A03E6010D8E6CE08"",""assignmentId"":""5613f12b-c2da-4bc3-84a5-ead06872f6a7"",""projectId"":""54f8d589-66fc-4c65-830f-1dcc63bce8cc""}","https://test12345.live/?participantId=ADBED8CA237E4688A03E6010D8E6CE08&assignmentId=5613f12b-c2da-4bc3-84a5-ead06872f6a7&projectId=54f8d589-66fc-4c65-830f-1dcc63bce8cc","","null","<div style=""display: flex; justify-content: center; align-items: center;"">
                    <img src=""images/causal/causal_series_6/causal_series_6_c.jpg"" style=""width: 300px; height: 300px;"" />
                  </div>","null","",""
"","","","","","html-keyboard-response","128","600266","0.0-91.0-3.0","ADBED8CA237E4688A03E6010D8E6CE08","ADBED8CA237E4688A03E6010D8E6CE08","5613f12b-c2da-4bc3-84a5-ead06872f6a7","54f8d589-66fc-4c65-830f-1dcc63bce8cc","{""participantId"":""ADBED8CA237E4688A03E6010D8E6CE08"",""assignmentId"":""5613f12b-c2da-4bc3-84a5-ead06872f6a7"",""projectId"":""54f8d589-66fc-4c65-830f-1dcc63bce8cc""}","https://test12345.live/?participantId=ADBED8CA237E4688A03E6010D8E6CE08&assignmentId=5613f12b-c2da-4bc3-84a5-ead06872f6a7&projectId=54f8d589-66fc-4c65-830f-1dcc63bce8cc","","null","<div style=""display: flex; justify-content: center; align-items: center;"">
                    <img src=""images/causal/causal_series_6/causal_series_6_d.jpg"" style=""width: 300px; height: 300px;"" />
                  </div>","null","",""
"","","","","","html-button-response","129","603213","0.0-93.0","ADBED8CA237E4688A03E6010D8E6CE08","ADBED8CA237E4688A03E6010D8E6CE08","5613f12b-c2da-4bc3-84a5-ead06872f6a7","54f8d589-66fc-4c65-830f-1dcc63bce8cc","{""participantId"":""ADBED8CA237E4688A03E6010D8E6CE08"",""assignmentId"":""5613f12b-c2da-4bc3-84a5-ead06872f6a7"",""projectId"":""54f8d589-66fc-4c65-830f-1dcc63bce8cc""}","https://test12345.live/?participantId=ADBED8CA237E4688A03E6010D8E6CE08&assignmentId=5613f12b-c2da-4bc3-84a5-ead06872f6a7&projectId=54f8d589-66fc-4c65-830f-1dcc63bce8cc","","2945","Was there a person in the picture?","1","",""
"","","","","","survey-likert","130","605613","0.0-94.0","ADBED8CA237E4688A03E6010D8E6CE08","ADBED8CA237E4688A03E6010D8E6CE08","5613f12b-c2da-4bc3-84a5-ead06872f6a7","54f8d589-66fc-4c65-830f-1dcc63bce8cc","{""participantId"":""ADBED8CA237E4688A03E6010D8E6CE08"",""assignmentId"":""5613f12b-c2da-4bc3-84a5-ead06872f6a7"",""projectId"":""54f8d589-66fc-4c65-830f-1dcc63bce8cc""}","https://test12345.live/?participantId=ADBED8CA237E4688A03E6010D8E6CE08&assignmentId=5613f12b-c2da-4bc3-84a5-ead06872f6a7&projectId=54f8d589-66fc-4c65-830f-1dcc63bce8cc","","2398","","{""Q0"":2}","","[0]"
"","","","","","survey-text","131","713928","0.0-95.0","ADBED8CA237E4688A03E6010D8E6CE08","ADBED8CA237E4688A03E6010D8E6CE08","5613f12b-c2da-4bc3-84a5-ead06872f6a7","54f8d589-66fc-4c65-830f-1dcc63bce8cc","{""participantId"":""ADBED8CA237E4688A03E6010D8E6CE08"",""assignmentId"":""5613f12b-c2da-4bc3-84a5-ead06872f6a7"",""projectId"":""54f8d589-66fc-4c65-830f-1dcc63bce8cc""}","https://test12345.live/?participantId=ADBED8CA237E4688A03E6010D8E6CE08&assignmentId=5613f12b-c2da-4bc3-84a5-ead06872f6a7&projectId=54f8d589-66fc-4c65-830f-1dcc63bce8cc","","108310","","{""Q0"":""the red deck has mostly black and white images, while the blue deck shows various activities of a day in colors.""}","",""
