"success","timeout","failed_images","failed_audio","failed_video","trial_type","trial_index","time_elapsed","internal_node_id","subject","subject_id","study_id","session_id","urlvar","current_url","view_history","rt","stimulus","response","choice","question_order"
"true","false","[]","[]","[]","preload","0","382","0.0-0.0","71C58E3D6C7A465AA504C4575924E9CE","71C58E3D6C7A465AA504C4575924E9CE","ccc810b2-3a27-4ce6-a72a-f9c6a330b3ef","54f8d589-66fc-4c65-830f-1dcc63bce8cc","{""participantId"":""71C58E3D6C7A465AA504C4575924E9CE"",""assignmentId"":""ccc810b2-3a27-4ce6-a72a-f9c6a330b3ef"",""projectId"":""54f8d589-66fc-4c65-830f-1dcc63bce8cc""}","https://test12345.live/?participantId=71C58E3D6C7A465AA504C4575924E9CE&assignmentId=ccc810b2-3a27-4ce6-a72a-f9c6a330b3ef&projectId=54f8d589-66fc-4c65-830f-1dcc63bce8cc","","","","","",""
"","","","","","instructions","1","11987","0.0-1.0","71C58E3D6C7A465AA504C4575924E9CE","71C58E3D6C7A465AA504C4575924E9CE","ccc810b2-3a27-4ce6-a72a-f9c6a330b3ef","54f8d589-66fc-4c65-830f-1dcc63bce8cc","{""participantId"":""71C58E3D6C7A465AA504C4575924E9CE"",""assignmentId"":""ccc810b2-3a27-4ce6-a72a-f9c6a330b3ef"",""projectId"":""54f8d589-66fc-4c65-830f-1dcc63bce8cc""}","https://test12345.live/?participantId=71C58E3D6C7A465AA504C4575924E9CE&assignmentId=ccc810b2-3a27-4ce6-a72a-f9c6a330b3ef&projectId=54f8d589-66fc-4c65-830f-1dcc63bce8cc","[{""page_index"":0,""viewing_time"":11604}]","11605","","","",""
"","","","","","instructions","2","18196","0.0-2.0","71C58E3D6C7A465AA504C4575924E9CE","71C58E3D6C7A465AA504C4575924E9CE","ccc810b2-3a27-4ce6-a72a-f9c6a330b3ef","54f8d589-66fc-4c65-830f-1dcc63bce8cc","{""participantId"":""71C58E3D6C7A465AA504C4575924E9CE"",""assignmentId"":""ccc810b2-3a27-4ce6-a72a-f9c6a330b3ef"",""projectId"":""54f8d589-66fc-4c65-830f-1dcc63bce8cc""}","https://test12345.live/?participantId=71C58E3D6C7A465AA504C4575924E9CE&assignmentId=ccc810b2-3a27-4ce6-a72a-f9c6a330b3ef&projectId=54f8d589-66fc-4c65-830f-1dcc63bce8cc","[{""page_index"":0,""viewing_time"":6208}]","6208","","","",""
"true","","","","","fullscreen","3","858361","0.0-3.0","71C58E3D6C7A465AA504C4575924E9CE","71C58E3D6C7A465AA504C4575924E9CE","ccc810b2-3a27-4ce6-a72a-f9c6a330b3ef","54f8d589-66fc-4c65-830f-1dcc63bce8cc","{""participantId"":""71C58E3D6C7A465AA504C4575924E9CE"",""assignmentId"":""ccc810b2-3a27-4ce6-a72a-f9c6a330b3ef"",""projectId"":""54f8d589-66fc-4c65-830f-1dcc63bce8cc""}","https://test12345.live/?participantId=71C58E3D6C7A465AA504C4575924E9CE&assignmentId=ccc810b2-3a27-4ce6-a72a-f9c6a330b3ef&projectId=54f8d589-66fc-4c65-830f-1dcc63bce8cc","","814563","","","",""
"","","","","","instructions","4","860286","0.0-4.0","71C58E3D6C7A465AA504C4575924E9CE","71C58E3D6C7A465AA504C4575924E9CE","ccc810b2-3a27-4ce6-a72a-f9c6a330b3ef","54f8d589-66fc-4c65-830f-1dcc63bce8cc","{""participantId"":""71C58E3D6C7A465AA504C4575924E9CE"",""assignmentId"":""ccc810b2-3a27-4ce6-a72a-f9c6a330b3ef"",""projectId"":""54f8d589-66fc-4c65-830f-1dcc63bce8cc""}","https://test12345.live/?participantId=71C58E3D6C7A465AA504C4575924E9CE&assignmentId=ccc810b2-3a27-4ce6-a72a-f9c6a330b3ef&projectId=54f8d589-66fc-4c65-830f-1dcc63bce8cc","[{""page_index"":0,""viewing_time"":1924}]","1924","","","",""
"","","","","","html-button-response","5","863383","0.0-5.0","71C58E3D6C7A465AA504C4575924E9CE","71C58E3D6C7A465AA504C4575924E9CE","ccc810b2-3a27-4ce6-a72a-f9c6a330b3ef","54f8d589-66fc-4c65-830f-1dcc63bce8cc","{""participantId"":""71C58E3D6C7A465AA504C4575924E9CE"",""assignmentId"":""ccc810b2-3a27-4ce6-a72a-f9c6a330b3ef"",""projectId"":""54f8d589-66fc-4c65-830f-1dcc63bce8cc""}","https://test12345.live/?participantId=71C58E3D6C7A465AA504C4575924E9CE&assignmentId=ccc810b2-3a27-4ce6-a72a-f9c6a330b3ef&projectId=54f8d589-66fc-4c65-830f-1dcc63bce8cc","","3096","
    <div style=""display: flex; justify-content: center; align-items: center;"">
      <img src=""images/red_deck_2.png"" style=""width: 300px; height: 300px; margin-right: 10px;"" />
      <img src=""images/blue_deck_1.png"" style=""width: 300px; height: 300px;"" />
    </div>","1","1",""
"","","","","","html-keyboard-response","6","866386","0.0-7.0-0.0","71C58E3D6C7A465AA504C4575924E9CE","71C58E3D6C7A465AA504C4575924E9CE","ccc810b2-3a27-4ce6-a72a-f9c6a330b3ef","54f8d589-66fc-4c65-830f-1dcc63bce8cc","{""participantId"":""71C58E3D6C7A465AA504C4575924E9CE"",""assignmentId"":""ccc810b2-3a27-4ce6-a72a-f9c6a330b3ef"",""projectId"":""54f8d589-66fc-4c65-830f-1dcc63bce8cc""}","https://test12345.live/?participantId=71C58E3D6C7A465AA504C4575924E9CE&assignmentId=ccc810b2-3a27-4ce6-a72a-f9c6a330b3ef&projectId=54f8d589-66fc-4c65-830f-1dcc63bce8cc","","null","<div style=""display: flex; justify-content: center; align-items: center;"">
                    <img src=""images/semantic/semantic_series_6/semantic_series_6_a.jpg"" style=""width: 300px; height: 300px;"" />
                  </div>","null","",""
"","","","","","html-keyboard-response","7","869388","0.0-7.0-1.0","71C58E3D6C7A465AA504C4575924E9CE","71C58E3D6C7A465AA504C4575924E9CE","ccc810b2-3a27-4ce6-a72a-f9c6a330b3ef","54f8d589-66fc-4c65-830f-1dcc63bce8cc","{""participantId"":""71C58E3D6C7A465AA504C4575924E9CE"",""assignmentId"":""ccc810b2-3a27-4ce6-a72a-f9c6a330b3ef"",""projectId"":""54f8d589-66fc-4c65-830f-1dcc63bce8cc""}","https://test12345.live/?participantId=71C58E3D6C7A465AA504C4575924E9CE&assignmentId=ccc810b2-3a27-4ce6-a72a-f9c6a330b3ef&projectId=54f8d589-66fc-4c65-830f-1dcc63bce8cc","","null","<div style=""display: flex; justify-content: center; align-items: center;"">
                    <img src=""images/semantic/semantic_series_6/semantic_series_6_b.jpg"" style=""width: 300px; height: 300px;"" />
                  </div>","null","",""
"","","","","","html-keyboard-response","8","872391","0.0-7.0-2.0","71C58E3D6C7A465AA504C4575924E9CE","71C58E3D6C7A465AA504C4575924E9CE","ccc810b2-3a27-4ce6-a72a-f9c6a330b3ef","54f8d589-66fc-4c65-830f-1dcc63bce8cc","{""participantId"":""71C58E3D6C7A465AA504C4575924E9CE"",""assignmentId"":""ccc810b2-3a27-4ce6-a72a-f9c6a330b3ef"",""projectId"":""54f8d589-66fc-4c65-830f-1dcc63bce8cc""}","https://test12345.live/?participantId=71C58E3D6C7A465AA504C4575924E9CE&assignmentId=ccc810b2-3a27-4ce6-a72a-f9c6a330b3ef&projectId=54f8d589-66fc-4c65-830f-1dcc63bce8cc","","null","<div style=""display: flex; justify-content: center; align-items: center;"">
                    <img src=""images/semantic/semantic_series_6/semantic_series_6_c.jpg"" style=""width: 300px; height: 300px;"" />
                  </div>","null","",""
"","","","","","html-keyboard-response","9","875393","0.0-7.0-3.0","71C58E3D6C7A465AA504C4575924E9CE","71C58E3D6C7A465AA504C4575924E9CE","ccc810b2-3a27-4ce6-a72a-f9c6a330b3ef","54f8d589-66fc-4c65-830f-1dcc63bce8cc","{""participantId"":""71C58E3D6C7A465AA504C4575924E9CE"",""assignmentId"":""ccc810b2-3a27-4ce6-a72a-f9c6a330b3ef"",""projectId"":""54f8d589-66fc-4c65-830f-1dcc63bce8cc""}","https://test12345.live/?participantId=71C58E3D6C7A465AA504C4575924E9CE&assignmentId=ccc810b2-3a27-4ce6-a72a-f9c6a330b3ef&projectId=54f8d589-66fc-4c65-830f-1dcc63bce8cc","","null","<div style=""display: flex; justify-content: center; align-items: center;"">
                    <img src=""images/semantic/semantic_series_6/semantic_series_6_d.jpg"" style=""width: 300px; height: 300px;"" />
                  </div>","null","",""
"","","","","","html-button-response","10","877493","0.0-8.0","71C58E3D6C7A465AA504C4575924E9CE","71C58E3D6C7A465AA504C4575924E9CE","ccc810b2-3a27-4ce6-a72a-f9c6a330b3ef","54f8d589-66fc-4c65-830f-1dcc63bce8cc","{""participantId"":""71C58E3D6C7A465AA504C4575924E9CE"",""assignmentId"":""ccc810b2-3a27-4ce6-a72a-f9c6a330b3ef"",""projectId"":""54f8d589-66fc-4c65-830f-1dcc63bce8cc""}","https://test12345.live/?participantId=71C58E3D6C7A465AA504C4575924E9CE&assignmentId=ccc810b2-3a27-4ce6-a72a-f9c6a330b3ef&projectId=54f8d589-66fc-4c65-830f-1dcc63bce8cc","","2100","Was there a person in the picture?","1","",""
"","","","","","survey-likert","11","881573","0.0-9.0","71C58E3D6C7A465AA504C4575924E9CE","71C58E3D6C7A465AA504C4575924E9CE","ccc810b2-3a27-4ce6-a72a-f9c6a330b3ef","54f8d589-66fc-4c65-830f-1dcc63bce8cc","{""participantId"":""71C58E3D6C7A465AA504C4575924E9CE"",""assignmentId"":""ccc810b2-3a27-4ce6-a72a-f9c6a330b3ef"",""projectId"":""54f8d589-66fc-4c65-830f-1dcc63bce8cc""}","https://test12345.live/?participantId=71C58E3D6C7A465AA504C4575924E9CE&assignmentId=ccc810b2-3a27-4ce6-a72a-f9c6a330b3ef&projectId=54f8d589-66fc-4c65-830f-1dcc63bce8cc","","4077","","{""Q0"":3}","","[0]"
"","","","","","html-button-response","12","883323","0.0-10.0","71C58E3D6C7A465AA504C4575924E9CE","71C58E3D6C7A465AA504C4575924E9CE","ccc810b2-3a27-4ce6-a72a-f9c6a330b3ef","54f8d589-66fc-4c65-830f-1dcc63bce8cc","{""participantId"":""71C58E3D6C7A465AA504C4575924E9CE"",""assignmentId"":""ccc810b2-3a27-4ce6-a72a-f9c6a330b3ef"",""projectId"":""54f8d589-66fc-4c65-830f-1dcc63bce8cc""}","https://test12345.live/?participantId=71C58E3D6C7A465AA504C4575924E9CE&assignmentId=ccc810b2-3a27-4ce6-a72a-f9c6a330b3ef&projectId=54f8d589-66fc-4c65-830f-1dcc63bce8cc","","1748","
    <div style=""display: flex; justify-content: center; align-items: center;"">
      <img src=""images/red_deck_2.png"" style=""width: 300px; height: 300px; margin-right: 10px;"" />
      <img src=""images/blue_deck_1.png"" style=""width: 300px; height: 300px;"" />
    </div>","0","0",""
"","","","","","html-keyboard-response","13","886325","0.0-11.0-0.0","71C58E3D6C7A465AA504C4575924E9CE","71C58E3D6C7A465AA504C4575924E9CE","ccc810b2-3a27-4ce6-a72a-f9c6a330b3ef","54f8d589-66fc-4c65-830f-1dcc63bce8cc","{""participantId"":""71C58E3D6C7A465AA504C4575924E9CE"",""assignmentId"":""ccc810b2-3a27-4ce6-a72a-f9c6a330b3ef"",""projectId"":""54f8d589-66fc-4c65-830f-1dcc63bce8cc""}","https://test12345.live/?participantId=71C58E3D6C7A465AA504C4575924E9CE&assignmentId=ccc810b2-3a27-4ce6-a72a-f9c6a330b3ef&projectId=54f8d589-66fc-4c65-830f-1dcc63bce8cc","","null","<div style=""display: flex; justify-content: center; align-items: center;"">
                    <img src=""images/causal/causal_series_7/causal_series_7_a.jpg"" style=""width: 300px; height: 300px;"" />
                  </div>","null","",""
"","","","","","html-keyboard-response","14","889326","0.0-11.0-1.0","71C58E3D6C7A465AA504C4575924E9CE","71C58E3D6C7A465AA504C4575924E9CE","ccc810b2-3a27-4ce6-a72a-f9c6a330b3ef","54f8d589-66fc-4c65-830f-1dcc63bce8cc","{""participantId"":""71C58E3D6C7A465AA504C4575924E9CE"",""assignmentId"":""ccc810b2-3a27-4ce6-a72a-f9c6a330b3ef"",""projectId"":""54f8d589-66fc-4c65-830f-1dcc63bce8cc""}","https://test12345.live/?participantId=71C58E3D6C7A465AA504C4575924E9CE&assignmentId=ccc810b2-3a27-4ce6-a72a-f9c6a330b3ef&projectId=54f8d589-66fc-4c65-830f-1dcc63bce8cc","","null","<div style=""display: flex; justify-content: center; align-items: center;"">
                    <img src=""images/causal/causal_series_7/causal_series_7_b.jpg"" style=""width: 300px; height: 300px;"" />
                  </div>","null","",""
"","","","","","html-keyboard-response","15","892328","0.0-11.0-2.0","71C58E3D6C7A465AA504C4575924E9CE","71C58E3D6C7A465AA504C4575924E9CE","ccc810b2-3a27-4ce6-a72a-f9c6a330b3ef","54f8d589-66fc-4c65-830f-1dcc63bce8cc","{""participantId"":""71C58E3D6C7A465AA504C4575924E9CE"",""assignmentId"":""ccc810b2-3a27-4ce6-a72a-f9c6a330b3ef"",""projectId"":""54f8d589-66fc-4c65-830f-1dcc63bce8cc""}","https://test12345.live/?participantId=71C58E3D6C7A465AA504C4575924E9CE&assignmentId=ccc810b2-3a27-4ce6-a72a-f9c6a330b3ef&projectId=54f8d589-66fc-4c65-830f-1dcc63bce8cc","","null","<div style=""display: flex; justify-content: center; align-items: center;"">
                    <img src=""images/causal/causal_series_7/causal_series_7_c.jpg"" style=""width: 300px; height: 300px;"" />
                  </div>","null","",""
"","","","","","html-keyboard-response","16","895330","0.0-11.0-3.0","71C58E3D6C7A465AA504C4575924E9CE","71C58E3D6C7A465AA504C4575924E9CE","ccc810b2-3a27-4ce6-a72a-f9c6a330b3ef","54f8d589-66fc-4c65-830f-1dcc63bce8cc","{""participantId"":""71C58E3D6C7A465AA504C4575924E9CE"",""assignmentId"":""ccc810b2-3a27-4ce6-a72a-f9c6a330b3ef"",""projectId"":""54f8d589-66fc-4c65-830f-1dcc63bce8cc""}","https://test12345.live/?participantId=71C58E3D6C7A465AA504C4575924E9CE&assignmentId=ccc810b2-3a27-4ce6-a72a-f9c6a330b3ef&projectId=54f8d589-66fc-4c65-830f-1dcc63bce8cc","","null","<div style=""display: flex; justify-content: center; align-items: center;"">
                    <img src=""images/causal/causal_series_7/causal_series_7_d.jpg"" style=""width: 300px; height: 300px;"" />
                  </div>","null","",""
"","","","","","html-button-response","17","897443","0.0-13.0","71C58E3D6C7A465AA504C4575924E9CE","71C58E3D6C7A465AA504C4575924E9CE","ccc810b2-3a27-4ce6-a72a-f9c6a330b3ef","54f8d589-66fc-4c65-830f-1dcc63bce8cc","{""participantId"":""71C58E3D6C7A465AA504C4575924E9CE"",""assignmentId"":""ccc810b2-3a27-4ce6-a72a-f9c6a330b3ef"",""projectId"":""54f8d589-66fc-4c65-830f-1dcc63bce8cc""}","https://test12345.live/?participantId=71C58E3D6C7A465AA504C4575924E9CE&assignmentId=ccc810b2-3a27-4ce6-a72a-f9c6a330b3ef&projectId=54f8d589-66fc-4c65-830f-1dcc63bce8cc","","2112","Was there a person in the picture?","1","",""
"","","","","","survey-likert","18","899140","0.0-14.0","71C58E3D6C7A465AA504C4575924E9CE","71C58E3D6C7A465AA504C4575924E9CE","ccc810b2-3a27-4ce6-a72a-f9c6a330b3ef","54f8d589-66fc-4c65-830f-1dcc63bce8cc","{""participantId"":""71C58E3D6C7A465AA504C4575924E9CE"",""assignmentId"":""ccc810b2-3a27-4ce6-a72a-f9c6a330b3ef"",""projectId"":""54f8d589-66fc-4c65-830f-1dcc63bce8cc""}","https://test12345.live/?participantId=71C58E3D6C7A465AA504C4575924E9CE&assignmentId=ccc810b2-3a27-4ce6-a72a-f9c6a330b3ef&projectId=54f8d589-66fc-4c65-830f-1dcc63bce8cc","","1696","","{""Q0"":2}","","[0]"
"","","","","","html-button-response","19","902644","0.0-15.0","71C58E3D6C7A465AA504C4575924E9CE","71C58E3D6C7A465AA504C4575924E9CE","ccc810b2-3a27-4ce6-a72a-f9c6a330b3ef","54f8d589-66fc-4c65-830f-1dcc63bce8cc","{""participantId"":""71C58E3D6C7A465AA504C4575924E9CE"",""assignmentId"":""ccc810b2-3a27-4ce6-a72a-f9c6a330b3ef"",""projectId"":""54f8d589-66fc-4c65-830f-1dcc63bce8cc""}","https://test12345.live/?participantId=71C58E3D6C7A465AA504C4575924E9CE&assignmentId=ccc810b2-3a27-4ce6-a72a-f9c6a330b3ef&projectId=54f8d589-66fc-4c65-830f-1dcc63bce8cc","","3502","
    <div style=""display: flex; justify-content: center; align-items: center;"">
      <img src=""images/red_deck_2.png"" style=""width: 300px; height: 300px; margin-right: 10px;"" />
      <img src=""images/blue_deck_1.png"" style=""width: 300px; height: 300px;"" />
    </div>","1","1",""
"","","","","","html-keyboard-response","20","905645","0.0-17.0-0.0","71C58E3D6C7A465AA504C4575924E9CE","71C58E3D6C7A465AA504C4575924E9CE","ccc810b2-3a27-4ce6-a72a-f9c6a330b3ef","54f8d589-66fc-4c65-830f-1dcc63bce8cc","{""participantId"":""71C58E3D6C7A465AA504C4575924E9CE"",""assignmentId"":""ccc810b2-3a27-4ce6-a72a-f9c6a330b3ef"",""projectId"":""54f8d589-66fc-4c65-830f-1dcc63bce8cc""}","https://test12345.live/?participantId=71C58E3D6C7A465AA504C4575924E9CE&assignmentId=ccc810b2-3a27-4ce6-a72a-f9c6a330b3ef&projectId=54f8d589-66fc-4c65-830f-1dcc63bce8cc","","null","<div style=""display: flex; justify-content: center; align-items: center;"">
                    <img src=""images/semantic/semantic_series_10/semantic_series_10_a.jpg"" style=""width: 300px; height: 300px;"" />
                  </div>","null","",""
"","","","","","html-keyboard-response","21","908647","0.0-17.0-1.0","71C58E3D6C7A465AA504C4575924E9CE","71C58E3D6C7A465AA504C4575924E9CE","ccc810b2-3a27-4ce6-a72a-f9c6a330b3ef","54f8d589-66fc-4c65-830f-1dcc63bce8cc","{""participantId"":""71C58E3D6C7A465AA504C4575924E9CE"",""assignmentId"":""ccc810b2-3a27-4ce6-a72a-f9c6a330b3ef"",""projectId"":""54f8d589-66fc-4c65-830f-1dcc63bce8cc""}","https://test12345.live/?participantId=71C58E3D6C7A465AA504C4575924E9CE&assignmentId=ccc810b2-3a27-4ce6-a72a-f9c6a330b3ef&projectId=54f8d589-66fc-4c65-830f-1dcc63bce8cc","","null","<div style=""display: flex; justify-content: center; align-items: center;"">
                    <img src=""images/semantic/semantic_series_10/semantic_series_10_b.jpg"" style=""width: 300px; height: 300px;"" />
                  </div>","null","",""
"","","","","","html-keyboard-response","22","911650","0.0-17.0-2.0","71C58E3D6C7A465AA504C4575924E9CE","71C58E3D6C7A465AA504C4575924E9CE","ccc810b2-3a27-4ce6-a72a-f9c6a330b3ef","54f8d589-66fc-4c65-830f-1dcc63bce8cc","{""participantId"":""71C58E3D6C7A465AA504C4575924E9CE"",""assignmentId"":""ccc810b2-3a27-4ce6-a72a-f9c6a330b3ef"",""projectId"":""54f8d589-66fc-4c65-830f-1dcc63bce8cc""}","https://test12345.live/?participantId=71C58E3D6C7A465AA504C4575924E9CE&assignmentId=ccc810b2-3a27-4ce6-a72a-f9c6a330b3ef&projectId=54f8d589-66fc-4c65-830f-1dcc63bce8cc","","null","<div style=""display: flex; justify-content: center; align-items: center;"">
                    <img src=""images/semantic/semantic_series_10/semantic_series_10_c.jpg"" style=""width: 300px; height: 300px;"" />
                  </div>","null","",""
"","","","","","html-keyboard-response","23","914651","0.0-17.0-3.0","71C58E3D6C7A465AA504C4575924E9CE","71C58E3D6C7A465AA504C4575924E9CE","ccc810b2-3a27-4ce6-a72a-f9c6a330b3ef","54f8d589-66fc-4c65-830f-1dcc63bce8cc","{""participantId"":""71C58E3D6C7A465AA504C4575924E9CE"",""assignmentId"":""ccc810b2-3a27-4ce6-a72a-f9c6a330b3ef"",""projectId"":""54f8d589-66fc-4c65-830f-1dcc63bce8cc""}","https://test12345.live/?participantId=71C58E3D6C7A465AA504C4575924E9CE&assignmentId=ccc810b2-3a27-4ce6-a72a-f9c6a330b3ef&projectId=54f8d589-66fc-4c65-830f-1dcc63bce8cc","","null","<div style=""display: flex; justify-content: center; align-items: center;"">
                    <img src=""images/semantic/semantic_series_10/semantic_series_10_d.jpg"" style=""width: 300px; height: 300px;"" />
                  </div>","null","",""
"","","","","","html-button-response","24","917228","0.0-18.0","71C58E3D6C7A465AA504C4575924E9CE","71C58E3D6C7A465AA504C4575924E9CE","ccc810b2-3a27-4ce6-a72a-f9c6a330b3ef","54f8d589-66fc-4c65-830f-1dcc63bce8cc","{""participantId"":""71C58E3D6C7A465AA504C4575924E9CE"",""assignmentId"":""ccc810b2-3a27-4ce6-a72a-f9c6a330b3ef"",""projectId"":""54f8d589-66fc-4c65-830f-1dcc63bce8cc""}","https://test12345.live/?participantId=71C58E3D6C7A465AA504C4575924E9CE&assignmentId=ccc810b2-3a27-4ce6-a72a-f9c6a330b3ef&projectId=54f8d589-66fc-4c65-830f-1dcc63bce8cc","","2577","Was there a person in the picture?","1","",""
"","","","","","survey-likert","25","918727","0.0-19.0","71C58E3D6C7A465AA504C4575924E9CE","71C58E3D6C7A465AA504C4575924E9CE","ccc810b2-3a27-4ce6-a72a-f9c6a330b3ef","54f8d589-66fc-4c65-830f-1dcc63bce8cc","{""participantId"":""71C58E3D6C7A465AA504C4575924E9CE"",""assignmentId"":""ccc810b2-3a27-4ce6-a72a-f9c6a330b3ef"",""projectId"":""54f8d589-66fc-4c65-830f-1dcc63bce8cc""}","https://test12345.live/?participantId=71C58E3D6C7A465AA504C4575924E9CE&assignmentId=ccc810b2-3a27-4ce6-a72a-f9c6a330b3ef&projectId=54f8d589-66fc-4c65-830f-1dcc63bce8cc","","1498","","{""Q0"":2}","","[0]"
"","","","","","html-button-response","26","920093","0.0-20.0","71C58E3D6C7A465AA504C4575924E9CE","71C58E3D6C7A465AA504C4575924E9CE","ccc810b2-3a27-4ce6-a72a-f9c6a330b3ef","54f8d589-66fc-4c65-830f-1dcc63bce8cc","{""participantId"":""71C58E3D6C7A465AA504C4575924E9CE"",""assignmentId"":""ccc810b2-3a27-4ce6-a72a-f9c6a330b3ef"",""projectId"":""54f8d589-66fc-4c65-830f-1dcc63bce8cc""}","https://test12345.live/?participantId=71C58E3D6C7A465AA504C4575924E9CE&assignmentId=ccc810b2-3a27-4ce6-a72a-f9c6a330b3ef&projectId=54f8d589-66fc-4c65-830f-1dcc63bce8cc","","1365","
    <div style=""display: flex; justify-content: center; align-items: center;"">
      <img src=""images/red_deck_2.png"" style=""width: 300px; height: 300px; margin-right: 10px;"" />
      <img src=""images/blue_deck_1.png"" style=""width: 300px; height: 300px;"" />
    </div>","0","0",""
"","","","","","html-keyboard-response","27","923095","0.0-21.0-0.0","71C58E3D6C7A465AA504C4575924E9CE","71C58E3D6C7A465AA504C4575924E9CE","ccc810b2-3a27-4ce6-a72a-f9c6a330b3ef","54f8d589-66fc-4c65-830f-1dcc63bce8cc","{""participantId"":""71C58E3D6C7A465AA504C4575924E9CE"",""assignmentId"":""ccc810b2-3a27-4ce6-a72a-f9c6a330b3ef"",""projectId"":""54f8d589-66fc-4c65-830f-1dcc63bce8cc""}","https://test12345.live/?participantId=71C58E3D6C7A465AA504C4575924E9CE&assignmentId=ccc810b2-3a27-4ce6-a72a-f9c6a330b3ef&projectId=54f8d589-66fc-4c65-830f-1dcc63bce8cc","","null","<div style=""display: flex; justify-content: center; align-items: center;"">
                    <img src=""images/causal/causal_series_14/causal_series_14_a.jpg"" style=""width: 300px; height: 300px;"" />
                  </div>","null","",""
"","","","","","html-keyboard-response","28","926097","0.0-21.0-1.0","71C58E3D6C7A465AA504C4575924E9CE","71C58E3D6C7A465AA504C4575924E9CE","ccc810b2-3a27-4ce6-a72a-f9c6a330b3ef","54f8d589-66fc-4c65-830f-1dcc63bce8cc","{""participantId"":""71C58E3D6C7A465AA504C4575924E9CE"",""assignmentId"":""ccc810b2-3a27-4ce6-a72a-f9c6a330b3ef"",""projectId"":""54f8d589-66fc-4c65-830f-1dcc63bce8cc""}","https://test12345.live/?participantId=71C58E3D6C7A465AA504C4575924E9CE&assignmentId=ccc810b2-3a27-4ce6-a72a-f9c6a330b3ef&projectId=54f8d589-66fc-4c65-830f-1dcc63bce8cc","","null","<div style=""display: flex; justify-content: center; align-items: center;"">
                    <img src=""images/causal/causal_series_14/causal_series_14_b.jpg"" style=""width: 300px; height: 300px;"" />
                  </div>","null","",""
"","","","","","html-keyboard-response","29","929099","0.0-21.0-2.0","71C58E3D6C7A465AA504C4575924E9CE","71C58E3D6C7A465AA504C4575924E9CE","ccc810b2-3a27-4ce6-a72a-f9c6a330b3ef","54f8d589-66fc-4c65-830f-1dcc63bce8cc","{""participantId"":""71C58E3D6C7A465AA504C4575924E9CE"",""assignmentId"":""ccc810b2-3a27-4ce6-a72a-f9c6a330b3ef"",""projectId"":""54f8d589-66fc-4c65-830f-1dcc63bce8cc""}","https://test12345.live/?participantId=71C58E3D6C7A465AA504C4575924E9CE&assignmentId=ccc810b2-3a27-4ce6-a72a-f9c6a330b3ef&projectId=54f8d589-66fc-4c65-830f-1dcc63bce8cc","","null","<div style=""display: flex; justify-content: center; align-items: center;"">
                    <img src=""images/causal/causal_series_14/causal_series_14_c.jpg"" style=""width: 300px; height: 300px;"" />
                  </div>","null","",""
"","","","","","html-keyboard-response","30","932101","0.0-21.0-3.0","71C58E3D6C7A465AA504C4575924E9CE","71C58E3D6C7A465AA504C4575924E9CE","ccc810b2-3a27-4ce6-a72a-f9c6a330b3ef","54f8d589-66fc-4c65-830f-1dcc63bce8cc","{""participantId"":""71C58E3D6C7A465AA504C4575924E9CE"",""assignmentId"":""ccc810b2-3a27-4ce6-a72a-f9c6a330b3ef"",""projectId"":""54f8d589-66fc-4c65-830f-1dcc63bce8cc""}","https://test12345.live/?participantId=71C58E3D6C7A465AA504C4575924E9CE&assignmentId=ccc810b2-3a27-4ce6-a72a-f9c6a330b3ef&projectId=54f8d589-66fc-4c65-830f-1dcc63bce8cc","","null","<div style=""display: flex; justify-content: center; align-items: center;"">
                    <img src=""images/causal/causal_series_14/causal_series_14_d.jpg"" style=""width: 300px; height: 300px;"" />
                  </div>","null","",""
"","","","","","html-button-response","31","934224","0.0-23.0","71C58E3D6C7A465AA504C4575924E9CE","71C58E3D6C7A465AA504C4575924E9CE","ccc810b2-3a27-4ce6-a72a-f9c6a330b3ef","54f8d589-66fc-4c65-830f-1dcc63bce8cc","{""participantId"":""71C58E3D6C7A465AA504C4575924E9CE"",""assignmentId"":""ccc810b2-3a27-4ce6-a72a-f9c6a330b3ef"",""projectId"":""54f8d589-66fc-4c65-830f-1dcc63bce8cc""}","https://test12345.live/?participantId=71C58E3D6C7A465AA504C4575924E9CE&assignmentId=ccc810b2-3a27-4ce6-a72a-f9c6a330b3ef&projectId=54f8d589-66fc-4c65-830f-1dcc63bce8cc","","2123","Was there a person in the picture?","0","",""
"","","","","","survey-likert","32","935910","0.0-24.0","71C58E3D6C7A465AA504C4575924E9CE","71C58E3D6C7A465AA504C4575924E9CE","ccc810b2-3a27-4ce6-a72a-f9c6a330b3ef","54f8d589-66fc-4c65-830f-1dcc63bce8cc","{""participantId"":""71C58E3D6C7A465AA504C4575924E9CE"",""assignmentId"":""ccc810b2-3a27-4ce6-a72a-f9c6a330b3ef"",""projectId"":""54f8d589-66fc-4c65-830f-1dcc63bce8cc""}","https://test12345.live/?participantId=71C58E3D6C7A465AA504C4575924E9CE&assignmentId=ccc810b2-3a27-4ce6-a72a-f9c6a330b3ef&projectId=54f8d589-66fc-4c65-830f-1dcc63bce8cc","","1685","","{""Q0"":3}","","[0]"
"","","","","","html-button-response","33","936674","0.0-25.0","71C58E3D6C7A465AA504C4575924E9CE","71C58E3D6C7A465AA504C4575924E9CE","ccc810b2-3a27-4ce6-a72a-f9c6a330b3ef","54f8d589-66fc-4c65-830f-1dcc63bce8cc","{""participantId"":""71C58E3D6C7A465AA504C4575924E9CE"",""assignmentId"":""ccc810b2-3a27-4ce6-a72a-f9c6a330b3ef"",""projectId"":""54f8d589-66fc-4c65-830f-1dcc63bce8cc""}","https://test12345.live/?participantId=71C58E3D6C7A465AA504C4575924E9CE&assignmentId=ccc810b2-3a27-4ce6-a72a-f9c6a330b3ef&projectId=54f8d589-66fc-4c65-830f-1dcc63bce8cc","","763","
    <div style=""display: flex; justify-content: center; align-items: center;"">
      <img src=""images/red_deck_2.png"" style=""width: 300px; height: 300px; margin-right: 10px;"" />
      <img src=""images/blue_deck_1.png"" style=""width: 300px; height: 300px;"" />
    </div>","1","1",""
"","","","","","html-keyboard-response","34","939675","0.0-27.0-0.0","71C58E3D6C7A465AA504C4575924E9CE","71C58E3D6C7A465AA504C4575924E9CE","ccc810b2-3a27-4ce6-a72a-f9c6a330b3ef","54f8d589-66fc-4c65-830f-1dcc63bce8cc","{""participantId"":""71C58E3D6C7A465AA504C4575924E9CE"",""assignmentId"":""ccc810b2-3a27-4ce6-a72a-f9c6a330b3ef"",""projectId"":""54f8d589-66fc-4c65-830f-1dcc63bce8cc""}","https://test12345.live/?participantId=71C58E3D6C7A465AA504C4575924E9CE&assignmentId=ccc810b2-3a27-4ce6-a72a-f9c6a330b3ef&projectId=54f8d589-66fc-4c65-830f-1dcc63bce8cc","","null","<div style=""display: flex; justify-content: center; align-items: center;"">
                    <img src=""images/semantic/semantic_series_18/semantic_series_18_a.jpg"" style=""width: 300px; height: 300px;"" />
                  </div>","null","",""
"","","","","","html-keyboard-response","35","942677","0.0-27.0-1.0","71C58E3D6C7A465AA504C4575924E9CE","71C58E3D6C7A465AA504C4575924E9CE","ccc810b2-3a27-4ce6-a72a-f9c6a330b3ef","54f8d589-66fc-4c65-830f-1dcc63bce8cc","{""participantId"":""71C58E3D6C7A465AA504C4575924E9CE"",""assignmentId"":""ccc810b2-3a27-4ce6-a72a-f9c6a330b3ef"",""projectId"":""54f8d589-66fc-4c65-830f-1dcc63bce8cc""}","https://test12345.live/?participantId=71C58E3D6C7A465AA504C4575924E9CE&assignmentId=ccc810b2-3a27-4ce6-a72a-f9c6a330b3ef&projectId=54f8d589-66fc-4c65-830f-1dcc63bce8cc","","null","<div style=""display: flex; justify-content: center; align-items: center;"">
                    <img src=""images/semantic/semantic_series_18/semantic_series_18_b.jpg"" style=""width: 300px; height: 300px;"" />
                  </div>","null","",""
"","","","","","html-keyboard-response","36","945680","0.0-27.0-2.0","71C58E3D6C7A465AA504C4575924E9CE","71C58E3D6C7A465AA504C4575924E9CE","ccc810b2-3a27-4ce6-a72a-f9c6a330b3ef","54f8d589-66fc-4c65-830f-1dcc63bce8cc","{""participantId"":""71C58E3D6C7A465AA504C4575924E9CE"",""assignmentId"":""ccc810b2-3a27-4ce6-a72a-f9c6a330b3ef"",""projectId"":""54f8d589-66fc-4c65-830f-1dcc63bce8cc""}","https://test12345.live/?participantId=71C58E3D6C7A465AA504C4575924E9CE&assignmentId=ccc810b2-3a27-4ce6-a72a-f9c6a330b3ef&projectId=54f8d589-66fc-4c65-830f-1dcc63bce8cc","","null","<div style=""display: flex; justify-content: center; align-items: center;"">
                    <img src=""images/semantic/semantic_series_18/semantic_series_18_c.jpg"" style=""width: 300px; height: 300px;"" />
                  </div>","null","",""
"","","","","","html-keyboard-response","37","948682","0.0-27.0-3.0","71C58E3D6C7A465AA504C4575924E9CE","71C58E3D6C7A465AA504C4575924E9CE","ccc810b2-3a27-4ce6-a72a-f9c6a330b3ef","54f8d589-66fc-4c65-830f-1dcc63bce8cc","{""participantId"":""71C58E3D6C7A465AA504C4575924E9CE"",""assignmentId"":""ccc810b2-3a27-4ce6-a72a-f9c6a330b3ef"",""projectId"":""54f8d589-66fc-4c65-830f-1dcc63bce8cc""}","https://test12345.live/?participantId=71C58E3D6C7A465AA504C4575924E9CE&assignmentId=ccc810b2-3a27-4ce6-a72a-f9c6a330b3ef&projectId=54f8d589-66fc-4c65-830f-1dcc63bce8cc","","null","<div style=""display: flex; justify-content: center; align-items: center;"">
                    <img src=""images/semantic/semantic_series_18/semantic_series_18_d.jpg"" style=""width: 300px; height: 300px;"" />
                  </div>","null","",""
"","","","","","html-button-response","38","954089","0.0-28.0","71C58E3D6C7A465AA504C4575924E9CE","71C58E3D6C7A465AA504C4575924E9CE","ccc810b2-3a27-4ce6-a72a-f9c6a330b3ef","54f8d589-66fc-4c65-830f-1dcc63bce8cc","{""participantId"":""71C58E3D6C7A465AA504C4575924E9CE"",""assignmentId"":""ccc810b2-3a27-4ce6-a72a-f9c6a330b3ef"",""projectId"":""54f8d589-66fc-4c65-830f-1dcc63bce8cc""}","https://test12345.live/?participantId=71C58E3D6C7A465AA504C4575924E9CE&assignmentId=ccc810b2-3a27-4ce6-a72a-f9c6a330b3ef&projectId=54f8d589-66fc-4c65-830f-1dcc63bce8cc","","5406","Was there a person in the picture?","1","",""
"","","","","","survey-likert","39","962250","0.0-29.0","71C58E3D6C7A465AA504C4575924E9CE","71C58E3D6C7A465AA504C4575924E9CE","ccc810b2-3a27-4ce6-a72a-f9c6a330b3ef","54f8d589-66fc-4c65-830f-1dcc63bce8cc","{""participantId"":""71C58E3D6C7A465AA504C4575924E9CE"",""assignmentId"":""ccc810b2-3a27-4ce6-a72a-f9c6a330b3ef"",""projectId"":""54f8d589-66fc-4c65-830f-1dcc63bce8cc""}","https://test12345.live/?participantId=71C58E3D6C7A465AA504C4575924E9CE&assignmentId=ccc810b2-3a27-4ce6-a72a-f9c6a330b3ef&projectId=54f8d589-66fc-4c65-830f-1dcc63bce8cc","","8160","","{""Q0"":2}","","[0]"
"","","","","","html-button-response","40","970965","0.0-30.0","71C58E3D6C7A465AA504C4575924E9CE","71C58E3D6C7A465AA504C4575924E9CE","ccc810b2-3a27-4ce6-a72a-f9c6a330b3ef","54f8d589-66fc-4c65-830f-1dcc63bce8cc","{""participantId"":""71C58E3D6C7A465AA504C4575924E9CE"",""assignmentId"":""ccc810b2-3a27-4ce6-a72a-f9c6a330b3ef"",""projectId"":""54f8d589-66fc-4c65-830f-1dcc63bce8cc""}","https://test12345.live/?participantId=71C58E3D6C7A465AA504C4575924E9CE&assignmentId=ccc810b2-3a27-4ce6-a72a-f9c6a330b3ef&projectId=54f8d589-66fc-4c65-830f-1dcc63bce8cc","","8715","
    <div style=""display: flex; justify-content: center; align-items: center;"">
      <img src=""images/red_deck_2.png"" style=""width: 300px; height: 300px; margin-right: 10px;"" />
      <img src=""images/blue_deck_1.png"" style=""width: 300px; height: 300px;"" />
    </div>","1","1",""
"","","","","","html-keyboard-response","41","973968","0.0-32.0-0.0","71C58E3D6C7A465AA504C4575924E9CE","71C58E3D6C7A465AA504C4575924E9CE","ccc810b2-3a27-4ce6-a72a-f9c6a330b3ef","54f8d589-66fc-4c65-830f-1dcc63bce8cc","{""participantId"":""71C58E3D6C7A465AA504C4575924E9CE"",""assignmentId"":""ccc810b2-3a27-4ce6-a72a-f9c6a330b3ef"",""projectId"":""54f8d589-66fc-4c65-830f-1dcc63bce8cc""}","https://test12345.live/?participantId=71C58E3D6C7A465AA504C4575924E9CE&assignmentId=ccc810b2-3a27-4ce6-a72a-f9c6a330b3ef&projectId=54f8d589-66fc-4c65-830f-1dcc63bce8cc","","null","<div style=""display: flex; justify-content: center; align-items: center;"">
                    <img src=""images/semantic/semantic_series_4/semantic_series_4_a.jpg"" style=""width: 300px; height: 300px;"" />
                  </div>","null","",""
"","","","","","html-keyboard-response","42","976970","0.0-32.0-1.0","71C58E3D6C7A465AA504C4575924E9CE","71C58E3D6C7A465AA504C4575924E9CE","ccc810b2-3a27-4ce6-a72a-f9c6a330b3ef","54f8d589-66fc-4c65-830f-1dcc63bce8cc","{""participantId"":""71C58E3D6C7A465AA504C4575924E9CE"",""assignmentId"":""ccc810b2-3a27-4ce6-a72a-f9c6a330b3ef"",""projectId"":""54f8d589-66fc-4c65-830f-1dcc63bce8cc""}","https://test12345.live/?participantId=71C58E3D6C7A465AA504C4575924E9CE&assignmentId=ccc810b2-3a27-4ce6-a72a-f9c6a330b3ef&projectId=54f8d589-66fc-4c65-830f-1dcc63bce8cc","","null","<div style=""display: flex; justify-content: center; align-items: center;"">
                    <img src=""images/semantic/semantic_series_4/semantic_series_4_b.jpg"" style=""width: 300px; height: 300px;"" />
                  </div>","null","",""
"","","","","","html-keyboard-response","43","979972","0.0-32.0-2.0","71C58E3D6C7A465AA504C4575924E9CE","71C58E3D6C7A465AA504C4575924E9CE","ccc810b2-3a27-4ce6-a72a-f9c6a330b3ef","54f8d589-66fc-4c65-830f-1dcc63bce8cc","{""participantId"":""71C58E3D6C7A465AA504C4575924E9CE"",""assignmentId"":""ccc810b2-3a27-4ce6-a72a-f9c6a330b3ef"",""projectId"":""54f8d589-66fc-4c65-830f-1dcc63bce8cc""}","https://test12345.live/?participantId=71C58E3D6C7A465AA504C4575924E9CE&assignmentId=ccc810b2-3a27-4ce6-a72a-f9c6a330b3ef&projectId=54f8d589-66fc-4c65-830f-1dcc63bce8cc","","null","<div style=""display: flex; justify-content: center; align-items: center;"">
                    <img src=""images/semantic/semantic_series_4/semantic_series_4_c.jpg"" style=""width: 300px; height: 300px;"" />
                  </div>","null","",""
"","","","","","html-keyboard-response","44","982974","0.0-32.0-3.0","71C58E3D6C7A465AA504C4575924E9CE","71C58E3D6C7A465AA504C4575924E9CE","ccc810b2-3a27-4ce6-a72a-f9c6a330b3ef","54f8d589-66fc-4c65-830f-1dcc63bce8cc","{""participantId"":""71C58E3D6C7A465AA504C4575924E9CE"",""assignmentId"":""ccc810b2-3a27-4ce6-a72a-f9c6a330b3ef"",""projectId"":""54f8d589-66fc-4c65-830f-1dcc63bce8cc""}","https://test12345.live/?participantId=71C58E3D6C7A465AA504C4575924E9CE&assignmentId=ccc810b2-3a27-4ce6-a72a-f9c6a330b3ef&projectId=54f8d589-66fc-4c65-830f-1dcc63bce8cc","","null","<div style=""display: flex; justify-content: center; align-items: center;"">
                    <img src=""images/semantic/semantic_series_4/semantic_series_4_d.jpg"" style=""width: 300px; height: 300px;"" />
                  </div>","null","",""
"","","","","","html-button-response","45","984985","0.0-33.0","71C58E3D6C7A465AA504C4575924E9CE","71C58E3D6C7A465AA504C4575924E9CE","ccc810b2-3a27-4ce6-a72a-f9c6a330b3ef","54f8d589-66fc-4c65-830f-1dcc63bce8cc","{""participantId"":""71C58E3D6C7A465AA504C4575924E9CE"",""assignmentId"":""ccc810b2-3a27-4ce6-a72a-f9c6a330b3ef"",""projectId"":""54f8d589-66fc-4c65-830f-1dcc63bce8cc""}","https://test12345.live/?participantId=71C58E3D6C7A465AA504C4575924E9CE&assignmentId=ccc810b2-3a27-4ce6-a72a-f9c6a330b3ef&projectId=54f8d589-66fc-4c65-830f-1dcc63bce8cc","","2010","Was there a person in the picture?","1","",""
"","","","","","survey-likert","46","989277","0.0-34.0","71C58E3D6C7A465AA504C4575924E9CE","71C58E3D6C7A465AA504C4575924E9CE","ccc810b2-3a27-4ce6-a72a-f9c6a330b3ef","54f8d589-66fc-4c65-830f-1dcc63bce8cc","{""participantId"":""71C58E3D6C7A465AA504C4575924E9CE"",""assignmentId"":""ccc810b2-3a27-4ce6-a72a-f9c6a330b3ef"",""projectId"":""54f8d589-66fc-4c65-830f-1dcc63bce8cc""}","https://test12345.live/?participantId=71C58E3D6C7A465AA504C4575924E9CE&assignmentId=ccc810b2-3a27-4ce6-a72a-f9c6a330b3ef&projectId=54f8d589-66fc-4c65-830f-1dcc63bce8cc","","4291","","{""Q0"":2}","","[0]"
"","","","","","html-button-response","47","993212","0.0-35.0","71C58E3D6C7A465AA504C4575924E9CE","71C58E3D6C7A465AA504C4575924E9CE","ccc810b2-3a27-4ce6-a72a-f9c6a330b3ef","54f8d589-66fc-4c65-830f-1dcc63bce8cc","{""participantId"":""71C58E3D6C7A465AA504C4575924E9CE"",""assignmentId"":""ccc810b2-3a27-4ce6-a72a-f9c6a330b3ef"",""projectId"":""54f8d589-66fc-4c65-830f-1dcc63bce8cc""}","https://test12345.live/?participantId=71C58E3D6C7A465AA504C4575924E9CE&assignmentId=ccc810b2-3a27-4ce6-a72a-f9c6a330b3ef&projectId=54f8d589-66fc-4c65-830f-1dcc63bce8cc","","3935","
    <div style=""display: flex; justify-content: center; align-items: center;"">
      <img src=""images/red_deck_2.png"" style=""width: 300px; height: 300px; margin-right: 10px;"" />
      <img src=""images/blue_deck_1.png"" style=""width: 300px; height: 300px;"" />
    </div>","0","0",""
"","","","","","html-keyboard-response","48","996214","0.0-36.0-0.0","71C58E3D6C7A465AA504C4575924E9CE","71C58E3D6C7A465AA504C4575924E9CE","ccc810b2-3a27-4ce6-a72a-f9c6a330b3ef","54f8d589-66fc-4c65-830f-1dcc63bce8cc","{""participantId"":""71C58E3D6C7A465AA504C4575924E9CE"",""assignmentId"":""ccc810b2-3a27-4ce6-a72a-f9c6a330b3ef"",""projectId"":""54f8d589-66fc-4c65-830f-1dcc63bce8cc""}","https://test12345.live/?participantId=71C58E3D6C7A465AA504C4575924E9CE&assignmentId=ccc810b2-3a27-4ce6-a72a-f9c6a330b3ef&projectId=54f8d589-66fc-4c65-830f-1dcc63bce8cc","","null","<div style=""display: flex; justify-content: center; align-items: center;"">
                    <img src=""images/causal/causal_series_16/causal_series_16_a.jpg"" style=""width: 300px; height: 300px;"" />
                  </div>","null","",""
"","","","","","html-keyboard-response","49","999216","0.0-36.0-1.0","71C58E3D6C7A465AA504C4575924E9CE","71C58E3D6C7A465AA504C4575924E9CE","ccc810b2-3a27-4ce6-a72a-f9c6a330b3ef","54f8d589-66fc-4c65-830f-1dcc63bce8cc","{""participantId"":""71C58E3D6C7A465AA504C4575924E9CE"",""assignmentId"":""ccc810b2-3a27-4ce6-a72a-f9c6a330b3ef"",""projectId"":""54f8d589-66fc-4c65-830f-1dcc63bce8cc""}","https://test12345.live/?participantId=71C58E3D6C7A465AA504C4575924E9CE&assignmentId=ccc810b2-3a27-4ce6-a72a-f9c6a330b3ef&projectId=54f8d589-66fc-4c65-830f-1dcc63bce8cc","","null","<div style=""display: flex; justify-content: center; align-items: center;"">
                    <img src=""images/causal/causal_series_16/causal_series_16_b.jpg"" style=""width: 300px; height: 300px;"" />
                  </div>","null","",""
"","","","","","html-keyboard-response","50","1002218","0.0-36.0-2.0","71C58E3D6C7A465AA504C4575924E9CE","71C58E3D6C7A465AA504C4575924E9CE","ccc810b2-3a27-4ce6-a72a-f9c6a330b3ef","54f8d589-66fc-4c65-830f-1dcc63bce8cc","{""participantId"":""71C58E3D6C7A465AA504C4575924E9CE"",""assignmentId"":""ccc810b2-3a27-4ce6-a72a-f9c6a330b3ef"",""projectId"":""54f8d589-66fc-4c65-830f-1dcc63bce8cc""}","https://test12345.live/?participantId=71C58E3D6C7A465AA504C4575924E9CE&assignmentId=ccc810b2-3a27-4ce6-a72a-f9c6a330b3ef&projectId=54f8d589-66fc-4c65-830f-1dcc63bce8cc","","null","<div style=""display: flex; justify-content: center; align-items: center;"">
                    <img src=""images/causal/causal_series_16/causal_series_16_c.jpg"" style=""width: 300px; height: 300px;"" />
                  </div>","null","",""
"","","","","","html-keyboard-response","51","1005220","0.0-36.0-3.0","71C58E3D6C7A465AA504C4575924E9CE","71C58E3D6C7A465AA504C4575924E9CE","ccc810b2-3a27-4ce6-a72a-f9c6a330b3ef","54f8d589-66fc-4c65-830f-1dcc63bce8cc","{""participantId"":""71C58E3D6C7A465AA504C4575924E9CE"",""assignmentId"":""ccc810b2-3a27-4ce6-a72a-f9c6a330b3ef"",""projectId"":""54f8d589-66fc-4c65-830f-1dcc63bce8cc""}","https://test12345.live/?participantId=71C58E3D6C7A465AA504C4575924E9CE&assignmentId=ccc810b2-3a27-4ce6-a72a-f9c6a330b3ef&projectId=54f8d589-66fc-4c65-830f-1dcc63bce8cc","","null","<div style=""display: flex; justify-content: center; align-items: center;"">
                    <img src=""images/causal/causal_series_16/causal_series_16_d.jpg"" style=""width: 300px; height: 300px;"" />
                  </div>","null","",""
"","","","","","html-button-response","52","1006829","0.0-38.0","71C58E3D6C7A465AA504C4575924E9CE","71C58E3D6C7A465AA504C4575924E9CE","ccc810b2-3a27-4ce6-a72a-f9c6a330b3ef","54f8d589-66fc-4c65-830f-1dcc63bce8cc","{""participantId"":""71C58E3D6C7A465AA504C4575924E9CE"",""assignmentId"":""ccc810b2-3a27-4ce6-a72a-f9c6a330b3ef"",""projectId"":""54f8d589-66fc-4c65-830f-1dcc63bce8cc""}","https://test12345.live/?participantId=71C58E3D6C7A465AA504C4575924E9CE&assignmentId=ccc810b2-3a27-4ce6-a72a-f9c6a330b3ef&projectId=54f8d589-66fc-4c65-830f-1dcc63bce8cc","","1609","Was there a person in the picture?","1","",""
"","","","","","survey-likert","53","1013817","0.0-39.0","71C58E3D6C7A465AA504C4575924E9CE","71C58E3D6C7A465AA504C4575924E9CE","ccc810b2-3a27-4ce6-a72a-f9c6a330b3ef","54f8d589-66fc-4c65-830f-1dcc63bce8cc","{""participantId"":""71C58E3D6C7A465AA504C4575924E9CE"",""assignmentId"":""ccc810b2-3a27-4ce6-a72a-f9c6a330b3ef"",""projectId"":""54f8d589-66fc-4c65-830f-1dcc63bce8cc""}","https://test12345.live/?participantId=71C58E3D6C7A465AA504C4575924E9CE&assignmentId=ccc810b2-3a27-4ce6-a72a-f9c6a330b3ef&projectId=54f8d589-66fc-4c65-830f-1dcc63bce8cc","","6987","","{""Q0"":2}","","[0]"
"","","","","","html-button-response","54","1014658","0.0-40.0","71C58E3D6C7A465AA504C4575924E9CE","71C58E3D6C7A465AA504C4575924E9CE","ccc810b2-3a27-4ce6-a72a-f9c6a330b3ef","54f8d589-66fc-4c65-830f-1dcc63bce8cc","{""participantId"":""71C58E3D6C7A465AA504C4575924E9CE"",""assignmentId"":""ccc810b2-3a27-4ce6-a72a-f9c6a330b3ef"",""projectId"":""54f8d589-66fc-4c65-830f-1dcc63bce8cc""}","https://test12345.live/?participantId=71C58E3D6C7A465AA504C4575924E9CE&assignmentId=ccc810b2-3a27-4ce6-a72a-f9c6a330b3ef&projectId=54f8d589-66fc-4c65-830f-1dcc63bce8cc","","840","
    <div style=""display: flex; justify-content: center; align-items: center;"">
      <img src=""images/red_deck_2.png"" style=""width: 300px; height: 300px; margin-right: 10px;"" />
      <img src=""images/blue_deck_1.png"" style=""width: 300px; height: 300px;"" />
    </div>","0","0",""
"","","","","","html-keyboard-response","55","1017660","0.0-41.0-0.0","71C58E3D6C7A465AA504C4575924E9CE","71C58E3D6C7A465AA504C4575924E9CE","ccc810b2-3a27-4ce6-a72a-f9c6a330b3ef","54f8d589-66fc-4c65-830f-1dcc63bce8cc","{""participantId"":""71C58E3D6C7A465AA504C4575924E9CE"",""assignmentId"":""ccc810b2-3a27-4ce6-a72a-f9c6a330b3ef"",""projectId"":""54f8d589-66fc-4c65-830f-1dcc63bce8cc""}","https://test12345.live/?participantId=71C58E3D6C7A465AA504C4575924E9CE&assignmentId=ccc810b2-3a27-4ce6-a72a-f9c6a330b3ef&projectId=54f8d589-66fc-4c65-830f-1dcc63bce8cc","","null","<div style=""display: flex; justify-content: center; align-items: center;"">
                    <img src=""images/causal/causal_series_8/causal_series_8_a.jpg"" style=""width: 300px; height: 300px;"" />
                  </div>","null","",""
"","","","","","html-keyboard-response","56","1020663","0.0-41.0-1.0","71C58E3D6C7A465AA504C4575924E9CE","71C58E3D6C7A465AA504C4575924E9CE","ccc810b2-3a27-4ce6-a72a-f9c6a330b3ef","54f8d589-66fc-4c65-830f-1dcc63bce8cc","{""participantId"":""71C58E3D6C7A465AA504C4575924E9CE"",""assignmentId"":""ccc810b2-3a27-4ce6-a72a-f9c6a330b3ef"",""projectId"":""54f8d589-66fc-4c65-830f-1dcc63bce8cc""}","https://test12345.live/?participantId=71C58E3D6C7A465AA504C4575924E9CE&assignmentId=ccc810b2-3a27-4ce6-a72a-f9c6a330b3ef&projectId=54f8d589-66fc-4c65-830f-1dcc63bce8cc","","null","<div style=""display: flex; justify-content: center; align-items: center;"">
                    <img src=""images/causal/causal_series_8/causal_series_8_b.jpg"" style=""width: 300px; height: 300px;"" />
                  </div>","null","",""
"","","","","","html-keyboard-response","57","1023665","0.0-41.0-2.0","71C58E3D6C7A465AA504C4575924E9CE","71C58E3D6C7A465AA504C4575924E9CE","ccc810b2-3a27-4ce6-a72a-f9c6a330b3ef","54f8d589-66fc-4c65-830f-1dcc63bce8cc","{""participantId"":""71C58E3D6C7A465AA504C4575924E9CE"",""assignmentId"":""ccc810b2-3a27-4ce6-a72a-f9c6a330b3ef"",""projectId"":""54f8d589-66fc-4c65-830f-1dcc63bce8cc""}","https://test12345.live/?participantId=71C58E3D6C7A465AA504C4575924E9CE&assignmentId=ccc810b2-3a27-4ce6-a72a-f9c6a330b3ef&projectId=54f8d589-66fc-4c65-830f-1dcc63bce8cc","","null","<div style=""display: flex; justify-content: center; align-items: center;"">
                    <img src=""images/causal/causal_series_8/causal_series_8_c.jpg"" style=""width: 300px; height: 300px;"" />
                  </div>","null","",""
"","","","","","html-keyboard-response","58","1026667","0.0-41.0-3.0","71C58E3D6C7A465AA504C4575924E9CE","71C58E3D6C7A465AA504C4575924E9CE","ccc810b2-3a27-4ce6-a72a-f9c6a330b3ef","54f8d589-66fc-4c65-830f-1dcc63bce8cc","{""participantId"":""71C58E3D6C7A465AA504C4575924E9CE"",""assignmentId"":""ccc810b2-3a27-4ce6-a72a-f9c6a330b3ef"",""projectId"":""54f8d589-66fc-4c65-830f-1dcc63bce8cc""}","https://test12345.live/?participantId=71C58E3D6C7A465AA504C4575924E9CE&assignmentId=ccc810b2-3a27-4ce6-a72a-f9c6a330b3ef&projectId=54f8d589-66fc-4c65-830f-1dcc63bce8cc","","null","<div style=""display: flex; justify-content: center; align-items: center;"">
                    <img src=""images/causal/causal_series_8/causal_series_8_d.jpg"" style=""width: 300px; height: 300px;"" />
                  </div>","null","",""
"","","","","","html-button-response","59","1028286","0.0-43.0","71C58E3D6C7A465AA504C4575924E9CE","71C58E3D6C7A465AA504C4575924E9CE","ccc810b2-3a27-4ce6-a72a-f9c6a330b3ef","54f8d589-66fc-4c65-830f-1dcc63bce8cc","{""participantId"":""71C58E3D6C7A465AA504C4575924E9CE"",""assignmentId"":""ccc810b2-3a27-4ce6-a72a-f9c6a330b3ef"",""projectId"":""54f8d589-66fc-4c65-830f-1dcc63bce8cc""}","https://test12345.live/?participantId=71C58E3D6C7A465AA504C4575924E9CE&assignmentId=ccc810b2-3a27-4ce6-a72a-f9c6a330b3ef&projectId=54f8d589-66fc-4c65-830f-1dcc63bce8cc","","1618","Was there a person in the picture?","1","",""
"","","","","","survey-likert","60","1030244","0.0-44.0","71C58E3D6C7A465AA504C4575924E9CE","71C58E3D6C7A465AA504C4575924E9CE","ccc810b2-3a27-4ce6-a72a-f9c6a330b3ef","54f8d589-66fc-4c65-830f-1dcc63bce8cc","{""participantId"":""71C58E3D6C7A465AA504C4575924E9CE"",""assignmentId"":""ccc810b2-3a27-4ce6-a72a-f9c6a330b3ef"",""projectId"":""54f8d589-66fc-4c65-830f-1dcc63bce8cc""}","https://test12345.live/?participantId=71C58E3D6C7A465AA504C4575924E9CE&assignmentId=ccc810b2-3a27-4ce6-a72a-f9c6a330b3ef&projectId=54f8d589-66fc-4c65-830f-1dcc63bce8cc","","1957","","{""Q0"":1}","","[0]"
"","","","","","html-button-response","61","1032121","0.0-45.0","71C58E3D6C7A465AA504C4575924E9CE","71C58E3D6C7A465AA504C4575924E9CE","ccc810b2-3a27-4ce6-a72a-f9c6a330b3ef","54f8d589-66fc-4c65-830f-1dcc63bce8cc","{""participantId"":""71C58E3D6C7A465AA504C4575924E9CE"",""assignmentId"":""ccc810b2-3a27-4ce6-a72a-f9c6a330b3ef"",""projectId"":""54f8d589-66fc-4c65-830f-1dcc63bce8cc""}","https://test12345.live/?participantId=71C58E3D6C7A465AA504C4575924E9CE&assignmentId=ccc810b2-3a27-4ce6-a72a-f9c6a330b3ef&projectId=54f8d589-66fc-4c65-830f-1dcc63bce8cc","","1876","
    <div style=""display: flex; justify-content: center; align-items: center;"">
      <img src=""images/red_deck_2.png"" style=""width: 300px; height: 300px; margin-right: 10px;"" />
      <img src=""images/blue_deck_1.png"" style=""width: 300px; height: 300px;"" />
    </div>","0","0",""
"","","","","","html-keyboard-response","62","1035123","0.0-46.0-0.0","71C58E3D6C7A465AA504C4575924E9CE","71C58E3D6C7A465AA504C4575924E9CE","ccc810b2-3a27-4ce6-a72a-f9c6a330b3ef","54f8d589-66fc-4c65-830f-1dcc63bce8cc","{""participantId"":""71C58E3D6C7A465AA504C4575924E9CE"",""assignmentId"":""ccc810b2-3a27-4ce6-a72a-f9c6a330b3ef"",""projectId"":""54f8d589-66fc-4c65-830f-1dcc63bce8cc""}","https://test12345.live/?participantId=71C58E3D6C7A465AA504C4575924E9CE&assignmentId=ccc810b2-3a27-4ce6-a72a-f9c6a330b3ef&projectId=54f8d589-66fc-4c65-830f-1dcc63bce8cc","","null","<div style=""display: flex; justify-content: center; align-items: center;"">
                    <img src=""images/causal/causal_series_5/causal_series_5_a.jpg"" style=""width: 300px; height: 300px;"" />
                  </div>","null","",""
"","","","","","html-keyboard-response","63","1038125","0.0-46.0-1.0","71C58E3D6C7A465AA504C4575924E9CE","71C58E3D6C7A465AA504C4575924E9CE","ccc810b2-3a27-4ce6-a72a-f9c6a330b3ef","54f8d589-66fc-4c65-830f-1dcc63bce8cc","{""participantId"":""71C58E3D6C7A465AA504C4575924E9CE"",""assignmentId"":""ccc810b2-3a27-4ce6-a72a-f9c6a330b3ef"",""projectId"":""54f8d589-66fc-4c65-830f-1dcc63bce8cc""}","https://test12345.live/?participantId=71C58E3D6C7A465AA504C4575924E9CE&assignmentId=ccc810b2-3a27-4ce6-a72a-f9c6a330b3ef&projectId=54f8d589-66fc-4c65-830f-1dcc63bce8cc","","null","<div style=""display: flex; justify-content: center; align-items: center;"">
                    <img src=""images/causal/causal_series_5/causal_series_5_b.jpg"" style=""width: 300px; height: 300px;"" />
                  </div>","null","",""
"","","","","","html-keyboard-response","64","1041126","0.0-46.0-2.0","71C58E3D6C7A465AA504C4575924E9CE","71C58E3D6C7A465AA504C4575924E9CE","ccc810b2-3a27-4ce6-a72a-f9c6a330b3ef","54f8d589-66fc-4c65-830f-1dcc63bce8cc","{""participantId"":""71C58E3D6C7A465AA504C4575924E9CE"",""assignmentId"":""ccc810b2-3a27-4ce6-a72a-f9c6a330b3ef"",""projectId"":""54f8d589-66fc-4c65-830f-1dcc63bce8cc""}","https://test12345.live/?participantId=71C58E3D6C7A465AA504C4575924E9CE&assignmentId=ccc810b2-3a27-4ce6-a72a-f9c6a330b3ef&projectId=54f8d589-66fc-4c65-830f-1dcc63bce8cc","","null","<div style=""display: flex; justify-content: center; align-items: center;"">
                    <img src=""images/causal/causal_series_5/causal_series_5_c.jpg"" style=""width: 300px; height: 300px;"" />
                  </div>","null","",""
"","","","","","html-keyboard-response","65","1044129","0.0-46.0-3.0","71C58E3D6C7A465AA504C4575924E9CE","71C58E3D6C7A465AA504C4575924E9CE","ccc810b2-3a27-4ce6-a72a-f9c6a330b3ef","54f8d589-66fc-4c65-830f-1dcc63bce8cc","{""participantId"":""71C58E3D6C7A465AA504C4575924E9CE"",""assignmentId"":""ccc810b2-3a27-4ce6-a72a-f9c6a330b3ef"",""projectId"":""54f8d589-66fc-4c65-830f-1dcc63bce8cc""}","https://test12345.live/?participantId=71C58E3D6C7A465AA504C4575924E9CE&assignmentId=ccc810b2-3a27-4ce6-a72a-f9c6a330b3ef&projectId=54f8d589-66fc-4c65-830f-1dcc63bce8cc","","null","<div style=""display: flex; justify-content: center; align-items: center;"">
                    <img src=""images/causal/causal_series_5/causal_series_5_d.jpg"" style=""width: 300px; height: 300px;"" />
                  </div>","null","",""
"","","","","","html-button-response","66","1045399","0.0-48.0","71C58E3D6C7A465AA504C4575924E9CE","71C58E3D6C7A465AA504C4575924E9CE","ccc810b2-3a27-4ce6-a72a-f9c6a330b3ef","54f8d589-66fc-4c65-830f-1dcc63bce8cc","{""participantId"":""71C58E3D6C7A465AA504C4575924E9CE"",""assignmentId"":""ccc810b2-3a27-4ce6-a72a-f9c6a330b3ef"",""projectId"":""54f8d589-66fc-4c65-830f-1dcc63bce8cc""}","https://test12345.live/?participantId=71C58E3D6C7A465AA504C4575924E9CE&assignmentId=ccc810b2-3a27-4ce6-a72a-f9c6a330b3ef&projectId=54f8d589-66fc-4c65-830f-1dcc63bce8cc","","1269","Was there a person in the picture?","0","",""
"","","","","","survey-likert","67","1047457","0.0-49.0","71C58E3D6C7A465AA504C4575924E9CE","71C58E3D6C7A465AA504C4575924E9CE","ccc810b2-3a27-4ce6-a72a-f9c6a330b3ef","54f8d589-66fc-4c65-830f-1dcc63bce8cc","{""participantId"":""71C58E3D6C7A465AA504C4575924E9CE"",""assignmentId"":""ccc810b2-3a27-4ce6-a72a-f9c6a330b3ef"",""projectId"":""54f8d589-66fc-4c65-830f-1dcc63bce8cc""}","https://test12345.live/?participantId=71C58E3D6C7A465AA504C4575924E9CE&assignmentId=ccc810b2-3a27-4ce6-a72a-f9c6a330b3ef&projectId=54f8d589-66fc-4c65-830f-1dcc63bce8cc","","2057","","{""Q0"":1}","","[0]"
"","","","","","html-button-response","68","1049068","0.0-50.0","71C58E3D6C7A465AA504C4575924E9CE","71C58E3D6C7A465AA504C4575924E9CE","ccc810b2-3a27-4ce6-a72a-f9c6a330b3ef","54f8d589-66fc-4c65-830f-1dcc63bce8cc","{""participantId"":""71C58E3D6C7A465AA504C4575924E9CE"",""assignmentId"":""ccc810b2-3a27-4ce6-a72a-f9c6a330b3ef"",""projectId"":""54f8d589-66fc-4c65-830f-1dcc63bce8cc""}","https://test12345.live/?participantId=71C58E3D6C7A465AA504C4575924E9CE&assignmentId=ccc810b2-3a27-4ce6-a72a-f9c6a330b3ef&projectId=54f8d589-66fc-4c65-830f-1dcc63bce8cc","","1610","
    <div style=""display: flex; justify-content: center; align-items: center;"">
      <img src=""images/red_deck_2.png"" style=""width: 300px; height: 300px; margin-right: 10px;"" />
      <img src=""images/blue_deck_1.png"" style=""width: 300px; height: 300px;"" />
    </div>","1","1",""
"","","","","","html-keyboard-response","69","1052071","0.0-52.0-0.0","71C58E3D6C7A465AA504C4575924E9CE","71C58E3D6C7A465AA504C4575924E9CE","ccc810b2-3a27-4ce6-a72a-f9c6a330b3ef","54f8d589-66fc-4c65-830f-1dcc63bce8cc","{""participantId"":""71C58E3D6C7A465AA504C4575924E9CE"",""assignmentId"":""ccc810b2-3a27-4ce6-a72a-f9c6a330b3ef"",""projectId"":""54f8d589-66fc-4c65-830f-1dcc63bce8cc""}","https://test12345.live/?participantId=71C58E3D6C7A465AA504C4575924E9CE&assignmentId=ccc810b2-3a27-4ce6-a72a-f9c6a330b3ef&projectId=54f8d589-66fc-4c65-830f-1dcc63bce8cc","","null","<div style=""display: flex; justify-content: center; align-items: center;"">
                    <img src=""images/semantic/semantic_series_9/semantic_series_9_a.jpg"" style=""width: 300px; height: 300px;"" />
                  </div>","null","",""
"","","","","","html-keyboard-response","70","1055073","0.0-52.0-1.0","71C58E3D6C7A465AA504C4575924E9CE","71C58E3D6C7A465AA504C4575924E9CE","ccc810b2-3a27-4ce6-a72a-f9c6a330b3ef","54f8d589-66fc-4c65-830f-1dcc63bce8cc","{""participantId"":""71C58E3D6C7A465AA504C4575924E9CE"",""assignmentId"":""ccc810b2-3a27-4ce6-a72a-f9c6a330b3ef"",""projectId"":""54f8d589-66fc-4c65-830f-1dcc63bce8cc""}","https://test12345.live/?participantId=71C58E3D6C7A465AA504C4575924E9CE&assignmentId=ccc810b2-3a27-4ce6-a72a-f9c6a330b3ef&projectId=54f8d589-66fc-4c65-830f-1dcc63bce8cc","","null","<div style=""display: flex; justify-content: center; align-items: center;"">
                    <img src=""images/semantic/semantic_series_9/semantic_series_9_b.jpg"" style=""width: 300px; height: 300px;"" />
                  </div>","null","",""
"","","","","","html-keyboard-response","71","1058075","0.0-52.0-2.0","71C58E3D6C7A465AA504C4575924E9CE","71C58E3D6C7A465AA504C4575924E9CE","ccc810b2-3a27-4ce6-a72a-f9c6a330b3ef","54f8d589-66fc-4c65-830f-1dcc63bce8cc","{""participantId"":""71C58E3D6C7A465AA504C4575924E9CE"",""assignmentId"":""ccc810b2-3a27-4ce6-a72a-f9c6a330b3ef"",""projectId"":""54f8d589-66fc-4c65-830f-1dcc63bce8cc""}","https://test12345.live/?participantId=71C58E3D6C7A465AA504C4575924E9CE&assignmentId=ccc810b2-3a27-4ce6-a72a-f9c6a330b3ef&projectId=54f8d589-66fc-4c65-830f-1dcc63bce8cc","","null","<div style=""display: flex; justify-content: center; align-items: center;"">
                    <img src=""images/semantic/semantic_series_9/semantic_series_9_c.jpg"" style=""width: 300px; height: 300px;"" />
                  </div>","null","",""
"","","","","","html-keyboard-response","72","1061076","0.0-52.0-3.0","71C58E3D6C7A465AA504C4575924E9CE","71C58E3D6C7A465AA504C4575924E9CE","ccc810b2-3a27-4ce6-a72a-f9c6a330b3ef","54f8d589-66fc-4c65-830f-1dcc63bce8cc","{""participantId"":""71C58E3D6C7A465AA504C4575924E9CE"",""assignmentId"":""ccc810b2-3a27-4ce6-a72a-f9c6a330b3ef"",""projectId"":""54f8d589-66fc-4c65-830f-1dcc63bce8cc""}","https://test12345.live/?participantId=71C58E3D6C7A465AA504C4575924E9CE&assignmentId=ccc810b2-3a27-4ce6-a72a-f9c6a330b3ef&projectId=54f8d589-66fc-4c65-830f-1dcc63bce8cc","","null","<div style=""display: flex; justify-content: center; align-items: center;"">
                    <img src=""images/semantic/semantic_series_9/semantic_series_9_d.jpg"" style=""width: 300px; height: 300px;"" />
                  </div>","null","",""
"","","","","","html-button-response","73","1066560","0.0-53.0","71C58E3D6C7A465AA504C4575924E9CE","71C58E3D6C7A465AA504C4575924E9CE","ccc810b2-3a27-4ce6-a72a-f9c6a330b3ef","54f8d589-66fc-4c65-830f-1dcc63bce8cc","{""participantId"":""71C58E3D6C7A465AA504C4575924E9CE"",""assignmentId"":""ccc810b2-3a27-4ce6-a72a-f9c6a330b3ef"",""projectId"":""54f8d589-66fc-4c65-830f-1dcc63bce8cc""}","https://test12345.live/?participantId=71C58E3D6C7A465AA504C4575924E9CE&assignmentId=ccc810b2-3a27-4ce6-a72a-f9c6a330b3ef&projectId=54f8d589-66fc-4c65-830f-1dcc63bce8cc","","5484","Was there a person in the picture?","1","",""
"","","","","","survey-likert","74","1069263","0.0-54.0","71C58E3D6C7A465AA504C4575924E9CE","71C58E3D6C7A465AA504C4575924E9CE","ccc810b2-3a27-4ce6-a72a-f9c6a330b3ef","54f8d589-66fc-4c65-830f-1dcc63bce8cc","{""participantId"":""71C58E3D6C7A465AA504C4575924E9CE"",""assignmentId"":""ccc810b2-3a27-4ce6-a72a-f9c6a330b3ef"",""projectId"":""54f8d589-66fc-4c65-830f-1dcc63bce8cc""}","https://test12345.live/?participantId=71C58E3D6C7A465AA504C4575924E9CE&assignmentId=ccc810b2-3a27-4ce6-a72a-f9c6a330b3ef&projectId=54f8d589-66fc-4c65-830f-1dcc63bce8cc","","2702","","{""Q0"":1}","","[0]"
"","","","","","html-button-response","75","1070161","0.0-55.0","71C58E3D6C7A465AA504C4575924E9CE","71C58E3D6C7A465AA504C4575924E9CE","ccc810b2-3a27-4ce6-a72a-f9c6a330b3ef","54f8d589-66fc-4c65-830f-1dcc63bce8cc","{""participantId"":""71C58E3D6C7A465AA504C4575924E9CE"",""assignmentId"":""ccc810b2-3a27-4ce6-a72a-f9c6a330b3ef"",""projectId"":""54f8d589-66fc-4c65-830f-1dcc63bce8cc""}","https://test12345.live/?participantId=71C58E3D6C7A465AA504C4575924E9CE&assignmentId=ccc810b2-3a27-4ce6-a72a-f9c6a330b3ef&projectId=54f8d589-66fc-4c65-830f-1dcc63bce8cc","","896","
    <div style=""display: flex; justify-content: center; align-items: center;"">
      <img src=""images/red_deck_2.png"" style=""width: 300px; height: 300px; margin-right: 10px;"" />
      <img src=""images/blue_deck_1.png"" style=""width: 300px; height: 300px;"" />
    </div>","0","0",""
"","","","","","html-keyboard-response","76","1073164","0.0-56.0-0.0","71C58E3D6C7A465AA504C4575924E9CE","71C58E3D6C7A465AA504C4575924E9CE","ccc810b2-3a27-4ce6-a72a-f9c6a330b3ef","54f8d589-66fc-4c65-830f-1dcc63bce8cc","{""participantId"":""71C58E3D6C7A465AA504C4575924E9CE"",""assignmentId"":""ccc810b2-3a27-4ce6-a72a-f9c6a330b3ef"",""projectId"":""54f8d589-66fc-4c65-830f-1dcc63bce8cc""}","https://test12345.live/?participantId=71C58E3D6C7A465AA504C4575924E9CE&assignmentId=ccc810b2-3a27-4ce6-a72a-f9c6a330b3ef&projectId=54f8d589-66fc-4c65-830f-1dcc63bce8cc","","null","<div style=""display: flex; justify-content: center; align-items: center;"">
                    <img src=""images/causal/causal_series_2/causal_series_2_a.jpg"" style=""width: 300px; height: 300px;"" />
                  </div>","null","",""
"","","","","","html-keyboard-response","77","1076166","0.0-56.0-1.0","71C58E3D6C7A465AA504C4575924E9CE","71C58E3D6C7A465AA504C4575924E9CE","ccc810b2-3a27-4ce6-a72a-f9c6a330b3ef","54f8d589-66fc-4c65-830f-1dcc63bce8cc","{""participantId"":""71C58E3D6C7A465AA504C4575924E9CE"",""assignmentId"":""ccc810b2-3a27-4ce6-a72a-f9c6a330b3ef"",""projectId"":""54f8d589-66fc-4c65-830f-1dcc63bce8cc""}","https://test12345.live/?participantId=71C58E3D6C7A465AA504C4575924E9CE&assignmentId=ccc810b2-3a27-4ce6-a72a-f9c6a330b3ef&projectId=54f8d589-66fc-4c65-830f-1dcc63bce8cc","","null","<div style=""display: flex; justify-content: center; align-items: center;"">
                    <img src=""images/causal/causal_series_2/causal_series_2_b.jpg"" style=""width: 300px; height: 300px;"" />
                  </div>","null","",""
"","","","","","html-keyboard-response","78","1079168","0.0-56.0-2.0","71C58E3D6C7A465AA504C4575924E9CE","71C58E3D6C7A465AA504C4575924E9CE","ccc810b2-3a27-4ce6-a72a-f9c6a330b3ef","54f8d589-66fc-4c65-830f-1dcc63bce8cc","{""participantId"":""71C58E3D6C7A465AA504C4575924E9CE"",""assignmentId"":""ccc810b2-3a27-4ce6-a72a-f9c6a330b3ef"",""projectId"":""54f8d589-66fc-4c65-830f-1dcc63bce8cc""}","https://test12345.live/?participantId=71C58E3D6C7A465AA504C4575924E9CE&assignmentId=ccc810b2-3a27-4ce6-a72a-f9c6a330b3ef&projectId=54f8d589-66fc-4c65-830f-1dcc63bce8cc","","null","<div style=""display: flex; justify-content: center; align-items: center;"">
                    <img src=""images/causal/causal_series_2/causal_series_2_c.jpg"" style=""width: 300px; height: 300px;"" />
                  </div>","null","",""
"","","","","","html-keyboard-response","79","1082170","0.0-56.0-3.0","71C58E3D6C7A465AA504C4575924E9CE","71C58E3D6C7A465AA504C4575924E9CE","ccc810b2-3a27-4ce6-a72a-f9c6a330b3ef","54f8d589-66fc-4c65-830f-1dcc63bce8cc","{""participantId"":""71C58E3D6C7A465AA504C4575924E9CE"",""assignmentId"":""ccc810b2-3a27-4ce6-a72a-f9c6a330b3ef"",""projectId"":""54f8d589-66fc-4c65-830f-1dcc63bce8cc""}","https://test12345.live/?participantId=71C58E3D6C7A465AA504C4575924E9CE&assignmentId=ccc810b2-3a27-4ce6-a72a-f9c6a330b3ef&projectId=54f8d589-66fc-4c65-830f-1dcc63bce8cc","","null","<div style=""display: flex; justify-content: center; align-items: center;"">
                    <img src=""images/causal/causal_series_2/causal_series_2_d.jpg"" style=""width: 300px; height: 300px;"" />
                  </div>","null","",""
"","","","","","html-button-response","80","1086015","0.0-58.0","71C58E3D6C7A465AA504C4575924E9CE","71C58E3D6C7A465AA504C4575924E9CE","ccc810b2-3a27-4ce6-a72a-f9c6a330b3ef","54f8d589-66fc-4c65-830f-1dcc63bce8cc","{""participantId"":""71C58E3D6C7A465AA504C4575924E9CE"",""assignmentId"":""ccc810b2-3a27-4ce6-a72a-f9c6a330b3ef"",""projectId"":""54f8d589-66fc-4c65-830f-1dcc63bce8cc""}","https://test12345.live/?participantId=71C58E3D6C7A465AA504C4575924E9CE&assignmentId=ccc810b2-3a27-4ce6-a72a-f9c6a330b3ef&projectId=54f8d589-66fc-4c65-830f-1dcc63bce8cc","","3845","Was there a person in the picture?","0","",""
"","","","","","survey-likert","81","1088275","0.0-59.0","71C58E3D6C7A465AA504C4575924E9CE","71C58E3D6C7A465AA504C4575924E9CE","ccc810b2-3a27-4ce6-a72a-f9c6a330b3ef","54f8d589-66fc-4c65-830f-1dcc63bce8cc","{""participantId"":""71C58E3D6C7A465AA504C4575924E9CE"",""assignmentId"":""ccc810b2-3a27-4ce6-a72a-f9c6a330b3ef"",""projectId"":""54f8d589-66fc-4c65-830f-1dcc63bce8cc""}","https://test12345.live/?participantId=71C58E3D6C7A465AA504C4575924E9CE&assignmentId=ccc810b2-3a27-4ce6-a72a-f9c6a330b3ef&projectId=54f8d589-66fc-4c65-830f-1dcc63bce8cc","","2259","","{""Q0"":0}","","[0]"
"","","","","","html-button-response","82","1115522","0.0-60.0","71C58E3D6C7A465AA504C4575924E9CE","71C58E3D6C7A465AA504C4575924E9CE","ccc810b2-3a27-4ce6-a72a-f9c6a330b3ef","54f8d589-66fc-4c65-830f-1dcc63bce8cc","{""participantId"":""71C58E3D6C7A465AA504C4575924E9CE"",""assignmentId"":""ccc810b2-3a27-4ce6-a72a-f9c6a330b3ef"",""projectId"":""54f8d589-66fc-4c65-830f-1dcc63bce8cc""}","https://test12345.live/?participantId=71C58E3D6C7A465AA504C4575924E9CE&assignmentId=ccc810b2-3a27-4ce6-a72a-f9c6a330b3ef&projectId=54f8d589-66fc-4c65-830f-1dcc63bce8cc","","27246","
    <div style=""display: flex; justify-content: center; align-items: center;"">
      <img src=""images/red_deck_2.png"" style=""width: 300px; height: 300px; margin-right: 10px;"" />
      <img src=""images/blue_deck_1.png"" style=""width: 300px; height: 300px;"" />
    </div>","0","0",""
"","","","","","html-keyboard-response","83","1118524","0.0-61.0-0.0","71C58E3D6C7A465AA504C4575924E9CE","71C58E3D6C7A465AA504C4575924E9CE","ccc810b2-3a27-4ce6-a72a-f9c6a330b3ef","54f8d589-66fc-4c65-830f-1dcc63bce8cc","{""participantId"":""71C58E3D6C7A465AA504C4575924E9CE"",""assignmentId"":""ccc810b2-3a27-4ce6-a72a-f9c6a330b3ef"",""projectId"":""54f8d589-66fc-4c65-830f-1dcc63bce8cc""}","https://test12345.live/?participantId=71C58E3D6C7A465AA504C4575924E9CE&assignmentId=ccc810b2-3a27-4ce6-a72a-f9c6a330b3ef&projectId=54f8d589-66fc-4c65-830f-1dcc63bce8cc","","null","<div style=""display: flex; justify-content: center; align-items: center;"">
                    <img src=""images/causal/causal_series_10/causal_series_10_a.jpg"" style=""width: 300px; height: 300px;"" />
                  </div>","null","",""
"","","","","","html-keyboard-response","84","1121526","0.0-61.0-1.0","71C58E3D6C7A465AA504C4575924E9CE","71C58E3D6C7A465AA504C4575924E9CE","ccc810b2-3a27-4ce6-a72a-f9c6a330b3ef","54f8d589-66fc-4c65-830f-1dcc63bce8cc","{""participantId"":""71C58E3D6C7A465AA504C4575924E9CE"",""assignmentId"":""ccc810b2-3a27-4ce6-a72a-f9c6a330b3ef"",""projectId"":""54f8d589-66fc-4c65-830f-1dcc63bce8cc""}","https://test12345.live/?participantId=71C58E3D6C7A465AA504C4575924E9CE&assignmentId=ccc810b2-3a27-4ce6-a72a-f9c6a330b3ef&projectId=54f8d589-66fc-4c65-830f-1dcc63bce8cc","","null","<div style=""display: flex; justify-content: center; align-items: center;"">
                    <img src=""images/causal/causal_series_10/causal_series_10_b.jpg"" style=""width: 300px; height: 300px;"" />
                  </div>","null","",""
"","","","","","html-keyboard-response","85","1124528","0.0-61.0-2.0","71C58E3D6C7A465AA504C4575924E9CE","71C58E3D6C7A465AA504C4575924E9CE","ccc810b2-3a27-4ce6-a72a-f9c6a330b3ef","54f8d589-66fc-4c65-830f-1dcc63bce8cc","{""participantId"":""71C58E3D6C7A465AA504C4575924E9CE"",""assignmentId"":""ccc810b2-3a27-4ce6-a72a-f9c6a330b3ef"",""projectId"":""54f8d589-66fc-4c65-830f-1dcc63bce8cc""}","https://test12345.live/?participantId=71C58E3D6C7A465AA504C4575924E9CE&assignmentId=ccc810b2-3a27-4ce6-a72a-f9c6a330b3ef&projectId=54f8d589-66fc-4c65-830f-1dcc63bce8cc","","null","<div style=""display: flex; justify-content: center; align-items: center;"">
                    <img src=""images/causal/causal_series_10/causal_series_10_c.jpg"" style=""width: 300px; height: 300px;"" />
                  </div>","null","",""
"","","","","","html-keyboard-response","86","1127530","0.0-61.0-3.0","71C58E3D6C7A465AA504C4575924E9CE","71C58E3D6C7A465AA504C4575924E9CE","ccc810b2-3a27-4ce6-a72a-f9c6a330b3ef","54f8d589-66fc-4c65-830f-1dcc63bce8cc","{""participantId"":""71C58E3D6C7A465AA504C4575924E9CE"",""assignmentId"":""ccc810b2-3a27-4ce6-a72a-f9c6a330b3ef"",""projectId"":""54f8d589-66fc-4c65-830f-1dcc63bce8cc""}","https://test12345.live/?participantId=71C58E3D6C7A465AA504C4575924E9CE&assignmentId=ccc810b2-3a27-4ce6-a72a-f9c6a330b3ef&projectId=54f8d589-66fc-4c65-830f-1dcc63bce8cc","","null","<div style=""display: flex; justify-content: center; align-items: center;"">
                    <img src=""images/causal/causal_series_10/causal_series_10_d.jpg"" style=""width: 300px; height: 300px;"" />
                  </div>","null","",""
"","","","","","html-button-response","87","1130466","0.0-63.0","71C58E3D6C7A465AA504C4575924E9CE","71C58E3D6C7A465AA504C4575924E9CE","ccc810b2-3a27-4ce6-a72a-f9c6a330b3ef","54f8d589-66fc-4c65-830f-1dcc63bce8cc","{""participantId"":""71C58E3D6C7A465AA504C4575924E9CE"",""assignmentId"":""ccc810b2-3a27-4ce6-a72a-f9c6a330b3ef"",""projectId"":""54f8d589-66fc-4c65-830f-1dcc63bce8cc""}","https://test12345.live/?participantId=71C58E3D6C7A465AA504C4575924E9CE&assignmentId=ccc810b2-3a27-4ce6-a72a-f9c6a330b3ef&projectId=54f8d589-66fc-4c65-830f-1dcc63bce8cc","","2935","Was there a person in the picture?","1","",""
"","","","","","survey-likert","88","1134422","0.0-64.0","71C58E3D6C7A465AA504C4575924E9CE","71C58E3D6C7A465AA504C4575924E9CE","ccc810b2-3a27-4ce6-a72a-f9c6a330b3ef","54f8d589-66fc-4c65-830f-1dcc63bce8cc","{""participantId"":""71C58E3D6C7A465AA504C4575924E9CE"",""assignmentId"":""ccc810b2-3a27-4ce6-a72a-f9c6a330b3ef"",""projectId"":""54f8d589-66fc-4c65-830f-1dcc63bce8cc""}","https://test12345.live/?participantId=71C58E3D6C7A465AA504C4575924E9CE&assignmentId=ccc810b2-3a27-4ce6-a72a-f9c6a330b3ef&projectId=54f8d589-66fc-4c65-830f-1dcc63bce8cc","","3955","","{""Q0"":0}","","[0]"
"","","","","","html-button-response","89","1159363","0.0-65.0","71C58E3D6C7A465AA504C4575924E9CE","71C58E3D6C7A465AA504C4575924E9CE","ccc810b2-3a27-4ce6-a72a-f9c6a330b3ef","54f8d589-66fc-4c65-830f-1dcc63bce8cc","{""participantId"":""71C58E3D6C7A465AA504C4575924E9CE"",""assignmentId"":""ccc810b2-3a27-4ce6-a72a-f9c6a330b3ef"",""projectId"":""54f8d589-66fc-4c65-830f-1dcc63bce8cc""}","https://test12345.live/?participantId=71C58E3D6C7A465AA504C4575924E9CE&assignmentId=ccc810b2-3a27-4ce6-a72a-f9c6a330b3ef&projectId=54f8d589-66fc-4c65-830f-1dcc63bce8cc","","24940","
    <div style=""display: flex; justify-content: center; align-items: center;"">
      <img src=""images/red_deck_2.png"" style=""width: 300px; height: 300px; margin-right: 10px;"" />
      <img src=""images/blue_deck_1.png"" style=""width: 300px; height: 300px;"" />
    </div>","1","1",""
"","","","","","html-keyboard-response","90","1162365","0.0-67.0-0.0","71C58E3D6C7A465AA504C4575924E9CE","71C58E3D6C7A465AA504C4575924E9CE","ccc810b2-3a27-4ce6-a72a-f9c6a330b3ef","54f8d589-66fc-4c65-830f-1dcc63bce8cc","{""participantId"":""71C58E3D6C7A465AA504C4575924E9CE"",""assignmentId"":""ccc810b2-3a27-4ce6-a72a-f9c6a330b3ef"",""projectId"":""54f8d589-66fc-4c65-830f-1dcc63bce8cc""}","https://test12345.live/?participantId=71C58E3D6C7A465AA504C4575924E9CE&assignmentId=ccc810b2-3a27-4ce6-a72a-f9c6a330b3ef&projectId=54f8d589-66fc-4c65-830f-1dcc63bce8cc","","null","<div style=""display: flex; justify-content: center; align-items: center;"">
                    <img src=""images/semantic/semantic_series_17/semantic_series_17_a.jpg"" style=""width: 300px; height: 300px;"" />
                  </div>","null","",""
"","","","","","html-keyboard-response","91","1165367","0.0-67.0-1.0","71C58E3D6C7A465AA504C4575924E9CE","71C58E3D6C7A465AA504C4575924E9CE","ccc810b2-3a27-4ce6-a72a-f9c6a330b3ef","54f8d589-66fc-4c65-830f-1dcc63bce8cc","{""participantId"":""71C58E3D6C7A465AA504C4575924E9CE"",""assignmentId"":""ccc810b2-3a27-4ce6-a72a-f9c6a330b3ef"",""projectId"":""54f8d589-66fc-4c65-830f-1dcc63bce8cc""}","https://test12345.live/?participantId=71C58E3D6C7A465AA504C4575924E9CE&assignmentId=ccc810b2-3a27-4ce6-a72a-f9c6a330b3ef&projectId=54f8d589-66fc-4c65-830f-1dcc63bce8cc","","null","<div style=""display: flex; justify-content: center; align-items: center;"">
                    <img src=""images/semantic/semantic_series_17/semantic_series_17_b.jpg"" style=""width: 300px; height: 300px;"" />
                  </div>","null","",""
"","","","","","html-keyboard-response","92","1168368","0.0-67.0-2.0","71C58E3D6C7A465AA504C4575924E9CE","71C58E3D6C7A465AA504C4575924E9CE","ccc810b2-3a27-4ce6-a72a-f9c6a330b3ef","54f8d589-66fc-4c65-830f-1dcc63bce8cc","{""participantId"":""71C58E3D6C7A465AA504C4575924E9CE"",""assignmentId"":""ccc810b2-3a27-4ce6-a72a-f9c6a330b3ef"",""projectId"":""54f8d589-66fc-4c65-830f-1dcc63bce8cc""}","https://test12345.live/?participantId=71C58E3D6C7A465AA504C4575924E9CE&assignmentId=ccc810b2-3a27-4ce6-a72a-f9c6a330b3ef&projectId=54f8d589-66fc-4c65-830f-1dcc63bce8cc","","null","<div style=""display: flex; justify-content: center; align-items: center;"">
                    <img src=""images/semantic/semantic_series_17/semantic_series_17_c.jpg"" style=""width: 300px; height: 300px;"" />
                  </div>","null","",""
"","","","","","html-keyboard-response","93","1171370","0.0-67.0-3.0","71C58E3D6C7A465AA504C4575924E9CE","71C58E3D6C7A465AA504C4575924E9CE","ccc810b2-3a27-4ce6-a72a-f9c6a330b3ef","54f8d589-66fc-4c65-830f-1dcc63bce8cc","{""participantId"":""71C58E3D6C7A465AA504C4575924E9CE"",""assignmentId"":""ccc810b2-3a27-4ce6-a72a-f9c6a330b3ef"",""projectId"":""54f8d589-66fc-4c65-830f-1dcc63bce8cc""}","https://test12345.live/?participantId=71C58E3D6C7A465AA504C4575924E9CE&assignmentId=ccc810b2-3a27-4ce6-a72a-f9c6a330b3ef&projectId=54f8d589-66fc-4c65-830f-1dcc63bce8cc","","null","<div style=""display: flex; justify-content: center; align-items: center;"">
                    <img src=""images/semantic/semantic_series_17/semantic_series_17_d.jpg"" style=""width: 300px; height: 300px;"" />
                  </div>","null","",""
"","","","","","html-button-response","94","1172988","0.0-68.0","71C58E3D6C7A465AA504C4575924E9CE","71C58E3D6C7A465AA504C4575924E9CE","ccc810b2-3a27-4ce6-a72a-f9c6a330b3ef","54f8d589-66fc-4c65-830f-1dcc63bce8cc","{""participantId"":""71C58E3D6C7A465AA504C4575924E9CE"",""assignmentId"":""ccc810b2-3a27-4ce6-a72a-f9c6a330b3ef"",""projectId"":""54f8d589-66fc-4c65-830f-1dcc63bce8cc""}","https://test12345.live/?participantId=71C58E3D6C7A465AA504C4575924E9CE&assignmentId=ccc810b2-3a27-4ce6-a72a-f9c6a330b3ef&projectId=54f8d589-66fc-4c65-830f-1dcc63bce8cc","","1617","Was there a person in the picture?","0","",""
"","","","","","survey-likert","95","1175041","0.0-69.0","71C58E3D6C7A465AA504C4575924E9CE","71C58E3D6C7A465AA504C4575924E9CE","ccc810b2-3a27-4ce6-a72a-f9c6a330b3ef","54f8d589-66fc-4c65-830f-1dcc63bce8cc","{""participantId"":""71C58E3D6C7A465AA504C4575924E9CE"",""assignmentId"":""ccc810b2-3a27-4ce6-a72a-f9c6a330b3ef"",""projectId"":""54f8d589-66fc-4c65-830f-1dcc63bce8cc""}","https://test12345.live/?participantId=71C58E3D6C7A465AA504C4575924E9CE&assignmentId=ccc810b2-3a27-4ce6-a72a-f9c6a330b3ef&projectId=54f8d589-66fc-4c65-830f-1dcc63bce8cc","","2053","","{""Q0"":0}","","[0]"
"","","","","","html-button-response","96","1182067","0.0-70.0","71C58E3D6C7A465AA504C4575924E9CE","71C58E3D6C7A465AA504C4575924E9CE","ccc810b2-3a27-4ce6-a72a-f9c6a330b3ef","54f8d589-66fc-4c65-830f-1dcc63bce8cc","{""participantId"":""71C58E3D6C7A465AA504C4575924E9CE"",""assignmentId"":""ccc810b2-3a27-4ce6-a72a-f9c6a330b3ef"",""projectId"":""54f8d589-66fc-4c65-830f-1dcc63bce8cc""}","https://test12345.live/?participantId=71C58E3D6C7A465AA504C4575924E9CE&assignmentId=ccc810b2-3a27-4ce6-a72a-f9c6a330b3ef&projectId=54f8d589-66fc-4c65-830f-1dcc63bce8cc","","7025","
    <div style=""display: flex; justify-content: center; align-items: center;"">
      <img src=""images/red_deck_2.png"" style=""width: 300px; height: 300px; margin-right: 10px;"" />
      <img src=""images/blue_deck_1.png"" style=""width: 300px; height: 300px;"" />
    </div>","0","0",""
"","","","","","html-keyboard-response","97","1185068","0.0-71.0-0.0","71C58E3D6C7A465AA504C4575924E9CE","71C58E3D6C7A465AA504C4575924E9CE","ccc810b2-3a27-4ce6-a72a-f9c6a330b3ef","54f8d589-66fc-4c65-830f-1dcc63bce8cc","{""participantId"":""71C58E3D6C7A465AA504C4575924E9CE"",""assignmentId"":""ccc810b2-3a27-4ce6-a72a-f9c6a330b3ef"",""projectId"":""54f8d589-66fc-4c65-830f-1dcc63bce8cc""}","https://test12345.live/?participantId=71C58E3D6C7A465AA504C4575924E9CE&assignmentId=ccc810b2-3a27-4ce6-a72a-f9c6a330b3ef&projectId=54f8d589-66fc-4c65-830f-1dcc63bce8cc","","null","<div style=""display: flex; justify-content: center; align-items: center;"">
                    <img src=""images/causal/causal_series_13/causal_series_13_a.jpg"" style=""width: 300px; height: 300px;"" />
                  </div>","null","",""
"","","","","","html-keyboard-response","98","1188069","0.0-71.0-1.0","71C58E3D6C7A465AA504C4575924E9CE","71C58E3D6C7A465AA504C4575924E9CE","ccc810b2-3a27-4ce6-a72a-f9c6a330b3ef","54f8d589-66fc-4c65-830f-1dcc63bce8cc","{""participantId"":""71C58E3D6C7A465AA504C4575924E9CE"",""assignmentId"":""ccc810b2-3a27-4ce6-a72a-f9c6a330b3ef"",""projectId"":""54f8d589-66fc-4c65-830f-1dcc63bce8cc""}","https://test12345.live/?participantId=71C58E3D6C7A465AA504C4575924E9CE&assignmentId=ccc810b2-3a27-4ce6-a72a-f9c6a330b3ef&projectId=54f8d589-66fc-4c65-830f-1dcc63bce8cc","","null","<div style=""display: flex; justify-content: center; align-items: center;"">
                    <img src=""images/causal/causal_series_13/causal_series_13_b.jpg"" style=""width: 300px; height: 300px;"" />
                  </div>","null","",""
"","","","","","html-keyboard-response","99","1191071","0.0-71.0-2.0","71C58E3D6C7A465AA504C4575924E9CE","71C58E3D6C7A465AA504C4575924E9CE","ccc810b2-3a27-4ce6-a72a-f9c6a330b3ef","54f8d589-66fc-4c65-830f-1dcc63bce8cc","{""participantId"":""71C58E3D6C7A465AA504C4575924E9CE"",""assignmentId"":""ccc810b2-3a27-4ce6-a72a-f9c6a330b3ef"",""projectId"":""54f8d589-66fc-4c65-830f-1dcc63bce8cc""}","https://test12345.live/?participantId=71C58E3D6C7A465AA504C4575924E9CE&assignmentId=ccc810b2-3a27-4ce6-a72a-f9c6a330b3ef&projectId=54f8d589-66fc-4c65-830f-1dcc63bce8cc","","null","<div style=""display: flex; justify-content: center; align-items: center;"">
                    <img src=""images/causal/causal_series_13/causal_series_13_c.jpg"" style=""width: 300px; height: 300px;"" />
                  </div>","null","",""
"","","","","","html-keyboard-response","100","1194073","0.0-71.0-3.0","71C58E3D6C7A465AA504C4575924E9CE","71C58E3D6C7A465AA504C4575924E9CE","ccc810b2-3a27-4ce6-a72a-f9c6a330b3ef","54f8d589-66fc-4c65-830f-1dcc63bce8cc","{""participantId"":""71C58E3D6C7A465AA504C4575924E9CE"",""assignmentId"":""ccc810b2-3a27-4ce6-a72a-f9c6a330b3ef"",""projectId"":""54f8d589-66fc-4c65-830f-1dcc63bce8cc""}","https://test12345.live/?participantId=71C58E3D6C7A465AA504C4575924E9CE&assignmentId=ccc810b2-3a27-4ce6-a72a-f9c6a330b3ef&projectId=54f8d589-66fc-4c65-830f-1dcc63bce8cc","","null","<div style=""display: flex; justify-content: center; align-items: center;"">
                    <img src=""images/causal/causal_series_13/causal_series_13_d.jpg"" style=""width: 300px; height: 300px;"" />
                  </div>","null","",""
"","","","","","html-button-response","101","1205736","0.0-73.0","71C58E3D6C7A465AA504C4575924E9CE","71C58E3D6C7A465AA504C4575924E9CE","ccc810b2-3a27-4ce6-a72a-f9c6a330b3ef","54f8d589-66fc-4c65-830f-1dcc63bce8cc","{""participantId"":""71C58E3D6C7A465AA504C4575924E9CE"",""assignmentId"":""ccc810b2-3a27-4ce6-a72a-f9c6a330b3ef"",""projectId"":""54f8d589-66fc-4c65-830f-1dcc63bce8cc""}","https://test12345.live/?participantId=71C58E3D6C7A465AA504C4575924E9CE&assignmentId=ccc810b2-3a27-4ce6-a72a-f9c6a330b3ef&projectId=54f8d589-66fc-4c65-830f-1dcc63bce8cc","","11660","Was there a person in the picture?","0","",""
"","","","","","survey-likert","102","1207789","0.0-74.0","71C58E3D6C7A465AA504C4575924E9CE","71C58E3D6C7A465AA504C4575924E9CE","ccc810b2-3a27-4ce6-a72a-f9c6a330b3ef","54f8d589-66fc-4c65-830f-1dcc63bce8cc","{""participantId"":""71C58E3D6C7A465AA504C4575924E9CE"",""assignmentId"":""ccc810b2-3a27-4ce6-a72a-f9c6a330b3ef"",""projectId"":""54f8d589-66fc-4c65-830f-1dcc63bce8cc""}","https://test12345.live/?participantId=71C58E3D6C7A465AA504C4575924E9CE&assignmentId=ccc810b2-3a27-4ce6-a72a-f9c6a330b3ef&projectId=54f8d589-66fc-4c65-830f-1dcc63bce8cc","","2053","","{""Q0"":0}","","[0]"
"","","","","","html-button-response","103","1212950","0.0-75.0","71C58E3D6C7A465AA504C4575924E9CE","71C58E3D6C7A465AA504C4575924E9CE","ccc810b2-3a27-4ce6-a72a-f9c6a330b3ef","54f8d589-66fc-4c65-830f-1dcc63bce8cc","{""participantId"":""71C58E3D6C7A465AA504C4575924E9CE"",""assignmentId"":""ccc810b2-3a27-4ce6-a72a-f9c6a330b3ef"",""projectId"":""54f8d589-66fc-4c65-830f-1dcc63bce8cc""}","https://test12345.live/?participantId=71C58E3D6C7A465AA504C4575924E9CE&assignmentId=ccc810b2-3a27-4ce6-a72a-f9c6a330b3ef&projectId=54f8d589-66fc-4c65-830f-1dcc63bce8cc","","5161","
    <div style=""display: flex; justify-content: center; align-items: center;"">
      <img src=""images/red_deck_2.png"" style=""width: 300px; height: 300px; margin-right: 10px;"" />
      <img src=""images/blue_deck_1.png"" style=""width: 300px; height: 300px;"" />
    </div>","1","1",""
"","","","","","html-keyboard-response","104","1215954","0.0-77.0-0.0","71C58E3D6C7A465AA504C4575924E9CE","71C58E3D6C7A465AA504C4575924E9CE","ccc810b2-3a27-4ce6-a72a-f9c6a330b3ef","54f8d589-66fc-4c65-830f-1dcc63bce8cc","{""participantId"":""71C58E3D6C7A465AA504C4575924E9CE"",""assignmentId"":""ccc810b2-3a27-4ce6-a72a-f9c6a330b3ef"",""projectId"":""54f8d589-66fc-4c65-830f-1dcc63bce8cc""}","https://test12345.live/?participantId=71C58E3D6C7A465AA504C4575924E9CE&assignmentId=ccc810b2-3a27-4ce6-a72a-f9c6a330b3ef&projectId=54f8d589-66fc-4c65-830f-1dcc63bce8cc","","null","<div style=""display: flex; justify-content: center; align-items: center;"">
                    <img src=""images/semantic/semantic_series_14/semantic_series_14_a.jpg"" style=""width: 300px; height: 300px;"" />
                  </div>","null","",""
"","","","","","html-keyboard-response","105","1218956","0.0-77.0-1.0","71C58E3D6C7A465AA504C4575924E9CE","71C58E3D6C7A465AA504C4575924E9CE","ccc810b2-3a27-4ce6-a72a-f9c6a330b3ef","54f8d589-66fc-4c65-830f-1dcc63bce8cc","{""participantId"":""71C58E3D6C7A465AA504C4575924E9CE"",""assignmentId"":""ccc810b2-3a27-4ce6-a72a-f9c6a330b3ef"",""projectId"":""54f8d589-66fc-4c65-830f-1dcc63bce8cc""}","https://test12345.live/?participantId=71C58E3D6C7A465AA504C4575924E9CE&assignmentId=ccc810b2-3a27-4ce6-a72a-f9c6a330b3ef&projectId=54f8d589-66fc-4c65-830f-1dcc63bce8cc","","null","<div style=""display: flex; justify-content: center; align-items: center;"">
                    <img src=""images/semantic/semantic_series_14/semantic_series_14_b.jpg"" style=""width: 300px; height: 300px;"" />
                  </div>","null","",""
"","","","","","html-keyboard-response","106","1221957","0.0-77.0-2.0","71C58E3D6C7A465AA504C4575924E9CE","71C58E3D6C7A465AA504C4575924E9CE","ccc810b2-3a27-4ce6-a72a-f9c6a330b3ef","54f8d589-66fc-4c65-830f-1dcc63bce8cc","{""participantId"":""71C58E3D6C7A465AA504C4575924E9CE"",""assignmentId"":""ccc810b2-3a27-4ce6-a72a-f9c6a330b3ef"",""projectId"":""54f8d589-66fc-4c65-830f-1dcc63bce8cc""}","https://test12345.live/?participantId=71C58E3D6C7A465AA504C4575924E9CE&assignmentId=ccc810b2-3a27-4ce6-a72a-f9c6a330b3ef&projectId=54f8d589-66fc-4c65-830f-1dcc63bce8cc","","null","<div style=""display: flex; justify-content: center; align-items: center;"">
                    <img src=""images/semantic/semantic_series_14/semantic_series_14_c.jpg"" style=""width: 300px; height: 300px;"" />
                  </div>","null","",""
"","","","","","html-keyboard-response","107","1224959","0.0-77.0-3.0","71C58E3D6C7A465AA504C4575924E9CE","71C58E3D6C7A465AA504C4575924E9CE","ccc810b2-3a27-4ce6-a72a-f9c6a330b3ef","54f8d589-66fc-4c65-830f-1dcc63bce8cc","{""participantId"":""71C58E3D6C7A465AA504C4575924E9CE"",""assignmentId"":""ccc810b2-3a27-4ce6-a72a-f9c6a330b3ef"",""projectId"":""54f8d589-66fc-4c65-830f-1dcc63bce8cc""}","https://test12345.live/?participantId=71C58E3D6C7A465AA504C4575924E9CE&assignmentId=ccc810b2-3a27-4ce6-a72a-f9c6a330b3ef&projectId=54f8d589-66fc-4c65-830f-1dcc63bce8cc","","null","<div style=""display: flex; justify-content: center; align-items: center;"">
                    <img src=""images/semantic/semantic_series_14/semantic_series_14_d.jpg"" style=""width: 300px; height: 300px;"" />
                  </div>","null","",""
"","","","","","html-button-response","108","1227422","0.0-78.0","71C58E3D6C7A465AA504C4575924E9CE","71C58E3D6C7A465AA504C4575924E9CE","ccc810b2-3a27-4ce6-a72a-f9c6a330b3ef","54f8d589-66fc-4c65-830f-1dcc63bce8cc","{""participantId"":""71C58E3D6C7A465AA504C4575924E9CE"",""assignmentId"":""ccc810b2-3a27-4ce6-a72a-f9c6a330b3ef"",""projectId"":""54f8d589-66fc-4c65-830f-1dcc63bce8cc""}","https://test12345.live/?participantId=71C58E3D6C7A465AA504C4575924E9CE&assignmentId=ccc810b2-3a27-4ce6-a72a-f9c6a330b3ef&projectId=54f8d589-66fc-4c65-830f-1dcc63bce8cc","","2462","Was there a person in the picture?","0","",""
"","","","","","survey-likert","109","1230563","0.0-79.0","71C58E3D6C7A465AA504C4575924E9CE","71C58E3D6C7A465AA504C4575924E9CE","ccc810b2-3a27-4ce6-a72a-f9c6a330b3ef","54f8d589-66fc-4c65-830f-1dcc63bce8cc","{""participantId"":""71C58E3D6C7A465AA504C4575924E9CE"",""assignmentId"":""ccc810b2-3a27-4ce6-a72a-f9c6a330b3ef"",""projectId"":""54f8d589-66fc-4c65-830f-1dcc63bce8cc""}","https://test12345.live/?participantId=71C58E3D6C7A465AA504C4575924E9CE&assignmentId=ccc810b2-3a27-4ce6-a72a-f9c6a330b3ef&projectId=54f8d589-66fc-4c65-830f-1dcc63bce8cc","","3140","","{""Q0"":1}","","[0]"
"","","","","","html-button-response","110","1232341","0.0-80.0","71C58E3D6C7A465AA504C4575924E9CE","71C58E3D6C7A465AA504C4575924E9CE","ccc810b2-3a27-4ce6-a72a-f9c6a330b3ef","54f8d589-66fc-4c65-830f-1dcc63bce8cc","{""participantId"":""71C58E3D6C7A465AA504C4575924E9CE"",""assignmentId"":""ccc810b2-3a27-4ce6-a72a-f9c6a330b3ef"",""projectId"":""54f8d589-66fc-4c65-830f-1dcc63bce8cc""}","https://test12345.live/?participantId=71C58E3D6C7A465AA504C4575924E9CE&assignmentId=ccc810b2-3a27-4ce6-a72a-f9c6a330b3ef&projectId=54f8d589-66fc-4c65-830f-1dcc63bce8cc","","1777","
    <div style=""display: flex; justify-content: center; align-items: center;"">
      <img src=""images/red_deck_2.png"" style=""width: 300px; height: 300px; margin-right: 10px;"" />
      <img src=""images/blue_deck_1.png"" style=""width: 300px; height: 300px;"" />
    </div>","1","1",""
"","","","","","html-keyboard-response","111","1235344","0.0-82.0-0.0","71C58E3D6C7A465AA504C4575924E9CE","71C58E3D6C7A465AA504C4575924E9CE","ccc810b2-3a27-4ce6-a72a-f9c6a330b3ef","54f8d589-66fc-4c65-830f-1dcc63bce8cc","{""participantId"":""71C58E3D6C7A465AA504C4575924E9CE"",""assignmentId"":""ccc810b2-3a27-4ce6-a72a-f9c6a330b3ef"",""projectId"":""54f8d589-66fc-4c65-830f-1dcc63bce8cc""}","https://test12345.live/?participantId=71C58E3D6C7A465AA504C4575924E9CE&assignmentId=ccc810b2-3a27-4ce6-a72a-f9c6a330b3ef&projectId=54f8d589-66fc-4c65-830f-1dcc63bce8cc","","null","<div style=""display: flex; justify-content: center; align-items: center;"">
                    <img src=""images/semantic/semantic_series_3/semantic_series_3_a.jpg"" style=""width: 300px; height: 300px;"" />
                  </div>","null","",""
"","","","","","html-keyboard-response","112","1238345","0.0-82.0-1.0","71C58E3D6C7A465AA504C4575924E9CE","71C58E3D6C7A465AA504C4575924E9CE","ccc810b2-3a27-4ce6-a72a-f9c6a330b3ef","54f8d589-66fc-4c65-830f-1dcc63bce8cc","{""participantId"":""71C58E3D6C7A465AA504C4575924E9CE"",""assignmentId"":""ccc810b2-3a27-4ce6-a72a-f9c6a330b3ef"",""projectId"":""54f8d589-66fc-4c65-830f-1dcc63bce8cc""}","https://test12345.live/?participantId=71C58E3D6C7A465AA504C4575924E9CE&assignmentId=ccc810b2-3a27-4ce6-a72a-f9c6a330b3ef&projectId=54f8d589-66fc-4c65-830f-1dcc63bce8cc","","null","<div style=""display: flex; justify-content: center; align-items: center;"">
                    <img src=""images/semantic/semantic_series_3/semantic_series_3_b.jpg"" style=""width: 300px; height: 300px;"" />
                  </div>","null","",""
"","","","","","html-keyboard-response","113","1241348","0.0-82.0-2.0","71C58E3D6C7A465AA504C4575924E9CE","71C58E3D6C7A465AA504C4575924E9CE","ccc810b2-3a27-4ce6-a72a-f9c6a330b3ef","54f8d589-66fc-4c65-830f-1dcc63bce8cc","{""participantId"":""71C58E3D6C7A465AA504C4575924E9CE"",""assignmentId"":""ccc810b2-3a27-4ce6-a72a-f9c6a330b3ef"",""projectId"":""54f8d589-66fc-4c65-830f-1dcc63bce8cc""}","https://test12345.live/?participantId=71C58E3D6C7A465AA504C4575924E9CE&assignmentId=ccc810b2-3a27-4ce6-a72a-f9c6a330b3ef&projectId=54f8d589-66fc-4c65-830f-1dcc63bce8cc","","null","<div style=""display: flex; justify-content: center; align-items: center;"">
                    <img src=""images/semantic/semantic_series_3/semantic_series_3_c.jpg"" style=""width: 300px; height: 300px;"" />
                  </div>","null","",""
"","","","","","html-keyboard-response","114","1244350","0.0-82.0-3.0","71C58E3D6C7A465AA504C4575924E9CE","71C58E3D6C7A465AA504C4575924E9CE","ccc810b2-3a27-4ce6-a72a-f9c6a330b3ef","54f8d589-66fc-4c65-830f-1dcc63bce8cc","{""participantId"":""71C58E3D6C7A465AA504C4575924E9CE"",""assignmentId"":""ccc810b2-3a27-4ce6-a72a-f9c6a330b3ef"",""projectId"":""54f8d589-66fc-4c65-830f-1dcc63bce8cc""}","https://test12345.live/?participantId=71C58E3D6C7A465AA504C4575924E9CE&assignmentId=ccc810b2-3a27-4ce6-a72a-f9c6a330b3ef&projectId=54f8d589-66fc-4c65-830f-1dcc63bce8cc","","null","<div style=""display: flex; justify-content: center; align-items: center;"">
                    <img src=""images/semantic/semantic_series_3/semantic_series_3_d.jpg"" style=""width: 300px; height: 300px;"" />
                  </div>","null","",""
"","","","","","html-button-response","115","1253335","0.0-83.0","71C58E3D6C7A465AA504C4575924E9CE","71C58E3D6C7A465AA504C4575924E9CE","ccc810b2-3a27-4ce6-a72a-f9c6a330b3ef","54f8d589-66fc-4c65-830f-1dcc63bce8cc","{""participantId"":""71C58E3D6C7A465AA504C4575924E9CE"",""assignmentId"":""ccc810b2-3a27-4ce6-a72a-f9c6a330b3ef"",""projectId"":""54f8d589-66fc-4c65-830f-1dcc63bce8cc""}","https://test12345.live/?participantId=71C58E3D6C7A465AA504C4575924E9CE&assignmentId=ccc810b2-3a27-4ce6-a72a-f9c6a330b3ef&projectId=54f8d589-66fc-4c65-830f-1dcc63bce8cc","","8984","Was there a person in the picture?","0","",""
"","","","","","survey-likert","116","1257131","0.0-84.0","71C58E3D6C7A465AA504C4575924E9CE","71C58E3D6C7A465AA504C4575924E9CE","ccc810b2-3a27-4ce6-a72a-f9c6a330b3ef","54f8d589-66fc-4c65-830f-1dcc63bce8cc","{""participantId"":""71C58E3D6C7A465AA504C4575924E9CE"",""assignmentId"":""ccc810b2-3a27-4ce6-a72a-f9c6a330b3ef"",""projectId"":""54f8d589-66fc-4c65-830f-1dcc63bce8cc""}","https://test12345.live/?participantId=71C58E3D6C7A465AA504C4575924E9CE&assignmentId=ccc810b2-3a27-4ce6-a72a-f9c6a330b3ef&projectId=54f8d589-66fc-4c65-830f-1dcc63bce8cc","","3796","","{""Q0"":2}","","[0]"
"","","","","","html-button-response","117","1263349","0.0-85.0","71C58E3D6C7A465AA504C4575924E9CE","71C58E3D6C7A465AA504C4575924E9CE","ccc810b2-3a27-4ce6-a72a-f9c6a330b3ef","54f8d589-66fc-4c65-830f-1dcc63bce8cc","{""participantId"":""71C58E3D6C7A465AA504C4575924E9CE"",""assignmentId"":""ccc810b2-3a27-4ce6-a72a-f9c6a330b3ef"",""projectId"":""54f8d589-66fc-4c65-830f-1dcc63bce8cc""}","https://test12345.live/?participantId=71C58E3D6C7A465AA504C4575924E9CE&assignmentId=ccc810b2-3a27-4ce6-a72a-f9c6a330b3ef&projectId=54f8d589-66fc-4c65-830f-1dcc63bce8cc","","6217","
    <div style=""display: flex; justify-content: center; align-items: center;"">
      <img src=""images/red_deck_2.png"" style=""width: 300px; height: 300px; margin-right: 10px;"" />
      <img src=""images/blue_deck_1.png"" style=""width: 300px; height: 300px;"" />
    </div>","0","0",""
"","","","","","html-keyboard-response","118","1266351","0.0-86.0-0.0","71C58E3D6C7A465AA504C4575924E9CE","71C58E3D6C7A465AA504C4575924E9CE","ccc810b2-3a27-4ce6-a72a-f9c6a330b3ef","54f8d589-66fc-4c65-830f-1dcc63bce8cc","{""participantId"":""71C58E3D6C7A465AA504C4575924E9CE"",""assignmentId"":""ccc810b2-3a27-4ce6-a72a-f9c6a330b3ef"",""projectId"":""54f8d589-66fc-4c65-830f-1dcc63bce8cc""}","https://test12345.live/?participantId=71C58E3D6C7A465AA504C4575924E9CE&assignmentId=ccc810b2-3a27-4ce6-a72a-f9c6a330b3ef&projectId=54f8d589-66fc-4c65-830f-1dcc63bce8cc","","null","<div style=""display: flex; justify-content: center; align-items: center;"">
                    <img src=""images/causal/causal_series_18/causal_series_18_a.jpg"" style=""width: 300px; height: 300px;"" />
                  </div>","null","",""
"","","","","","html-keyboard-response","119","1269353","0.0-86.0-1.0","71C58E3D6C7A465AA504C4575924E9CE","71C58E3D6C7A465AA504C4575924E9CE","ccc810b2-3a27-4ce6-a72a-f9c6a330b3ef","54f8d589-66fc-4c65-830f-1dcc63bce8cc","{""participantId"":""71C58E3D6C7A465AA504C4575924E9CE"",""assignmentId"":""ccc810b2-3a27-4ce6-a72a-f9c6a330b3ef"",""projectId"":""54f8d589-66fc-4c65-830f-1dcc63bce8cc""}","https://test12345.live/?participantId=71C58E3D6C7A465AA504C4575924E9CE&assignmentId=ccc810b2-3a27-4ce6-a72a-f9c6a330b3ef&projectId=54f8d589-66fc-4c65-830f-1dcc63bce8cc","","null","<div style=""display: flex; justify-content: center; align-items: center;"">
                    <img src=""images/causal/causal_series_18/causal_series_18_b.jpg"" style=""width: 300px; height: 300px;"" />
                  </div>","null","",""
"","","","","","html-keyboard-response","120","1272355","0.0-86.0-2.0","71C58E3D6C7A465AA504C4575924E9CE","71C58E3D6C7A465AA504C4575924E9CE","ccc810b2-3a27-4ce6-a72a-f9c6a330b3ef","54f8d589-66fc-4c65-830f-1dcc63bce8cc","{""participantId"":""71C58E3D6C7A465AA504C4575924E9CE"",""assignmentId"":""ccc810b2-3a27-4ce6-a72a-f9c6a330b3ef"",""projectId"":""54f8d589-66fc-4c65-830f-1dcc63bce8cc""}","https://test12345.live/?participantId=71C58E3D6C7A465AA504C4575924E9CE&assignmentId=ccc810b2-3a27-4ce6-a72a-f9c6a330b3ef&projectId=54f8d589-66fc-4c65-830f-1dcc63bce8cc","","null","<div style=""display: flex; justify-content: center; align-items: center;"">
                    <img src=""images/causal/causal_series_18/causal_series_18_c.jpg"" style=""width: 300px; height: 300px;"" />
                  </div>","null","",""
"","","","","","html-keyboard-response","121","1275356","0.0-86.0-3.0","71C58E3D6C7A465AA504C4575924E9CE","71C58E3D6C7A465AA504C4575924E9CE","ccc810b2-3a27-4ce6-a72a-f9c6a330b3ef","54f8d589-66fc-4c65-830f-1dcc63bce8cc","{""participantId"":""71C58E3D6C7A465AA504C4575924E9CE"",""assignmentId"":""ccc810b2-3a27-4ce6-a72a-f9c6a330b3ef"",""projectId"":""54f8d589-66fc-4c65-830f-1dcc63bce8cc""}","https://test12345.live/?participantId=71C58E3D6C7A465AA504C4575924E9CE&assignmentId=ccc810b2-3a27-4ce6-a72a-f9c6a330b3ef&projectId=54f8d589-66fc-4c65-830f-1dcc63bce8cc","","null","<div style=""display: flex; justify-content: center; align-items: center;"">
                    <img src=""images/causal/causal_series_18/causal_series_18_d.jpg"" style=""width: 300px; height: 300px;"" />
                  </div>","null","",""
"","","","","","html-button-response","122","1277568","0.0-88.0","71C58E3D6C7A465AA504C4575924E9CE","71C58E3D6C7A465AA504C4575924E9CE","ccc810b2-3a27-4ce6-a72a-f9c6a330b3ef","54f8d589-66fc-4c65-830f-1dcc63bce8cc","{""participantId"":""71C58E3D6C7A465AA504C4575924E9CE"",""assignmentId"":""ccc810b2-3a27-4ce6-a72a-f9c6a330b3ef"",""projectId"":""54f8d589-66fc-4c65-830f-1dcc63bce8cc""}","https://test12345.live/?participantId=71C58E3D6C7A465AA504C4575924E9CE&assignmentId=ccc810b2-3a27-4ce6-a72a-f9c6a330b3ef&projectId=54f8d589-66fc-4c65-830f-1dcc63bce8cc","","2211","Was there a person in the picture?","1","",""
"","","","","","survey-likert","123","1279431","0.0-89.0","71C58E3D6C7A465AA504C4575924E9CE","71C58E3D6C7A465AA504C4575924E9CE","ccc810b2-3a27-4ce6-a72a-f9c6a330b3ef","54f8d589-66fc-4c65-830f-1dcc63bce8cc","{""participantId"":""71C58E3D6C7A465AA504C4575924E9CE"",""assignmentId"":""ccc810b2-3a27-4ce6-a72a-f9c6a330b3ef"",""projectId"":""54f8d589-66fc-4c65-830f-1dcc63bce8cc""}","https://test12345.live/?participantId=71C58E3D6C7A465AA504C4575924E9CE&assignmentId=ccc810b2-3a27-4ce6-a72a-f9c6a330b3ef&projectId=54f8d589-66fc-4c65-830f-1dcc63bce8cc","","1861","","{""Q0"":2}","","[0]"
"","","","","","html-button-response","124","1280957","0.0-90.0","71C58E3D6C7A465AA504C4575924E9CE","71C58E3D6C7A465AA504C4575924E9CE","ccc810b2-3a27-4ce6-a72a-f9c6a330b3ef","54f8d589-66fc-4c65-830f-1dcc63bce8cc","{""participantId"":""71C58E3D6C7A465AA504C4575924E9CE"",""assignmentId"":""ccc810b2-3a27-4ce6-a72a-f9c6a330b3ef"",""projectId"":""54f8d589-66fc-4c65-830f-1dcc63bce8cc""}","https://test12345.live/?participantId=71C58E3D6C7A465AA504C4575924E9CE&assignmentId=ccc810b2-3a27-4ce6-a72a-f9c6a330b3ef&projectId=54f8d589-66fc-4c65-830f-1dcc63bce8cc","","1526","
    <div style=""display: flex; justify-content: center; align-items: center;"">
      <img src=""images/red_deck_2.png"" style=""width: 300px; height: 300px; margin-right: 10px;"" />
      <img src=""images/blue_deck_1.png"" style=""width: 300px; height: 300px;"" />
    </div>","0","0",""
"","","","","","html-keyboard-response","125","1283959","0.0-91.0-0.0","71C58E3D6C7A465AA504C4575924E9CE","71C58E3D6C7A465AA504C4575924E9CE","ccc810b2-3a27-4ce6-a72a-f9c6a330b3ef","54f8d589-66fc-4c65-830f-1dcc63bce8cc","{""participantId"":""71C58E3D6C7A465AA504C4575924E9CE"",""assignmentId"":""ccc810b2-3a27-4ce6-a72a-f9c6a330b3ef"",""projectId"":""54f8d589-66fc-4c65-830f-1dcc63bce8cc""}","https://test12345.live/?participantId=71C58E3D6C7A465AA504C4575924E9CE&assignmentId=ccc810b2-3a27-4ce6-a72a-f9c6a330b3ef&projectId=54f8d589-66fc-4c65-830f-1dcc63bce8cc","","null","<div style=""display: flex; justify-content: center; align-items: center;"">
                    <img src=""images/causal/causal_series_9/causal_series_9_a.jpg"" style=""width: 300px; height: 300px;"" />
                  </div>","null","",""
"","","","","","html-keyboard-response","126","1286962","0.0-91.0-1.0","71C58E3D6C7A465AA504C4575924E9CE","71C58E3D6C7A465AA504C4575924E9CE","ccc810b2-3a27-4ce6-a72a-f9c6a330b3ef","54f8d589-66fc-4c65-830f-1dcc63bce8cc","{""participantId"":""71C58E3D6C7A465AA504C4575924E9CE"",""assignmentId"":""ccc810b2-3a27-4ce6-a72a-f9c6a330b3ef"",""projectId"":""54f8d589-66fc-4c65-830f-1dcc63bce8cc""}","https://test12345.live/?participantId=71C58E3D6C7A465AA504C4575924E9CE&assignmentId=ccc810b2-3a27-4ce6-a72a-f9c6a330b3ef&projectId=54f8d589-66fc-4c65-830f-1dcc63bce8cc","","null","<div style=""display: flex; justify-content: center; align-items: center;"">
                    <img src=""images/causal/causal_series_9/causal_series_9_b.jpg"" style=""width: 300px; height: 300px;"" />
                  </div>","null","",""
"","","","","","html-keyboard-response","127","1289964","0.0-91.0-2.0","71C58E3D6C7A465AA504C4575924E9CE","71C58E3D6C7A465AA504C4575924E9CE","ccc810b2-3a27-4ce6-a72a-f9c6a330b3ef","54f8d589-66fc-4c65-830f-1dcc63bce8cc","{""participantId"":""71C58E3D6C7A465AA504C4575924E9CE"",""assignmentId"":""ccc810b2-3a27-4ce6-a72a-f9c6a330b3ef"",""projectId"":""54f8d589-66fc-4c65-830f-1dcc63bce8cc""}","https://test12345.live/?participantId=71C58E3D6C7A465AA504C4575924E9CE&assignmentId=ccc810b2-3a27-4ce6-a72a-f9c6a330b3ef&projectId=54f8d589-66fc-4c65-830f-1dcc63bce8cc","","null","<div style=""display: flex; justify-content: center; align-items: center;"">
                    <img src=""images/causal/causal_series_9/causal_series_9_c.jpg"" style=""width: 300px; height: 300px;"" />
                  </div>","null","",""
"","","","","","html-keyboard-response","128","1292966","0.0-91.0-3.0","71C58E3D6C7A465AA504C4575924E9CE","71C58E3D6C7A465AA504C4575924E9CE","ccc810b2-3a27-4ce6-a72a-f9c6a330b3ef","54f8d589-66fc-4c65-830f-1dcc63bce8cc","{""participantId"":""71C58E3D6C7A465AA504C4575924E9CE"",""assignmentId"":""ccc810b2-3a27-4ce6-a72a-f9c6a330b3ef"",""projectId"":""54f8d589-66fc-4c65-830f-1dcc63bce8cc""}","https://test12345.live/?participantId=71C58E3D6C7A465AA504C4575924E9CE&assignmentId=ccc810b2-3a27-4ce6-a72a-f9c6a330b3ef&projectId=54f8d589-66fc-4c65-830f-1dcc63bce8cc","","null","<div style=""display: flex; justify-content: center; align-items: center;"">
                    <img src=""images/causal/causal_series_9/causal_series_9_d.jpg"" style=""width: 300px; height: 300px;"" />
                  </div>","null","",""
"","","","","","html-button-response","129","1303192","0.0-93.0","71C58E3D6C7A465AA504C4575924E9CE","71C58E3D6C7A465AA504C4575924E9CE","ccc810b2-3a27-4ce6-a72a-f9c6a330b3ef","54f8d589-66fc-4c65-830f-1dcc63bce8cc","{""participantId"":""71C58E3D6C7A465AA504C4575924E9CE"",""assignmentId"":""ccc810b2-3a27-4ce6-a72a-f9c6a330b3ef"",""projectId"":""54f8d589-66fc-4c65-830f-1dcc63bce8cc""}","https://test12345.live/?participantId=71C58E3D6C7A465AA504C4575924E9CE&assignmentId=ccc810b2-3a27-4ce6-a72a-f9c6a330b3ef&projectId=54f8d589-66fc-4c65-830f-1dcc63bce8cc","","10225","Was there a person in the picture?","1","",""
"","","","","","survey-likert","130","1304857","0.0-94.0","71C58E3D6C7A465AA504C4575924E9CE","71C58E3D6C7A465AA504C4575924E9CE","ccc810b2-3a27-4ce6-a72a-f9c6a330b3ef","54f8d589-66fc-4c65-830f-1dcc63bce8cc","{""participantId"":""71C58E3D6C7A465AA504C4575924E9CE"",""assignmentId"":""ccc810b2-3a27-4ce6-a72a-f9c6a330b3ef"",""projectId"":""54f8d589-66fc-4c65-830f-1dcc63bce8cc""}","https://test12345.live/?participantId=71C58E3D6C7A465AA504C4575924E9CE&assignmentId=ccc810b2-3a27-4ce6-a72a-f9c6a330b3ef&projectId=54f8d589-66fc-4c65-830f-1dcc63bce8cc","","1664","","{""Q0"":1}","","[0]"
"","","","","","survey-text","131","1343568","0.0-95.0","71C58E3D6C7A465AA504C4575924E9CE","71C58E3D6C7A465AA504C4575924E9CE","ccc810b2-3a27-4ce6-a72a-f9c6a330b3ef","54f8d589-66fc-4c65-830f-1dcc63bce8cc","{""participantId"":""71C58E3D6C7A465AA504C4575924E9CE"",""assignmentId"":""ccc810b2-3a27-4ce6-a72a-f9c6a330b3ef"",""projectId"":""54f8d589-66fc-4c65-830f-1dcc63bce8cc""}","https://test12345.live/?participantId=71C58E3D6C7A465AA504C4575924E9CE&assignmentId=ccc810b2-3a27-4ce6-a72a-f9c6a330b3ef&projectId=54f8d589-66fc-4c65-830f-1dcc63bce8cc","","38710","","{""Q0"":""one had more animated characters the other one more human-like characters. also one had more of a \""plot\""""}","",""
