"success","timeout","failed_images","failed_audio","failed_video","trial_type","trial_index","time_elapsed","internal_node_id","subject","subject_id","study_id","session_id","urlvar","current_url","view_history","rt","stimulus","response","choice","question_order"
"true","false","[]","[]","[]","preload","0","2415","0.0-0.0","B8F7ADC52A4745C4BBB2A5B5194085A1","B8F7ADC52A4745C4BBB2A5B5194085A1","68de2c52-9cd3-4795-abdc-6c2ca3228340","e622c465-ee29-4445-8260-1f3431e06587","{""participantId"":""B8F7ADC52A4745C4BBB2A5B5194085A1"",""assignmentId"":""68de2c52-9cd3-4795-abdc-6c2ca3228340"",""projectId"":""e622c465-ee29-4445-8260-1f3431e06587""}","https://test12345.live/?participantId=B8F7ADC52A4745C4BBB2A5B5194085A1&assignmentId=68de2c52-9cd3-4795-abdc-6c2ca3228340&projectId=e622c465-ee29-4445-8260-1f3431e06587","","","","","",""
"","","","","","instructions","1","27155","0.0-1.0","B8F7ADC52A4745C4BBB2A5B5194085A1","B8F7ADC52A4745C4BBB2A5B5194085A1","68de2c52-9cd3-4795-abdc-6c2ca3228340","e622c465-ee29-4445-8260-1f3431e06587","{""participantId"":""B8F7ADC52A4745C4BBB2A5B5194085A1"",""assignmentId"":""68de2c52-9cd3-4795-abdc-6c2ca3228340"",""projectId"":""e622c465-ee29-4445-8260-1f3431e06587""}","https://test12345.live/?participantId=B8F7ADC52A4745C4BBB2A5B5194085A1&assignmentId=68de2c52-9cd3-4795-abdc-6c2ca3228340&projectId=e622c465-ee29-4445-8260-1f3431e06587","[{""page_index"":0,""viewing_time"":24736}]","24738","","","",""
"","","","","","instructions","2","47968","0.0-2.0","B8F7ADC52A4745C4BBB2A5B5194085A1","B8F7ADC52A4745C4BBB2A5B5194085A1","68de2c52-9cd3-4795-abdc-6c2ca3228340","e622c465-ee29-4445-8260-1f3431e06587","{""participantId"":""B8F7ADC52A4745C4BBB2A5B5194085A1"",""assignmentId"":""68de2c52-9cd3-4795-abdc-6c2ca3228340"",""projectId"":""e622c465-ee29-4445-8260-1f3431e06587""}","https://test12345.live/?participantId=B8F7ADC52A4745C4BBB2A5B5194085A1&assignmentId=68de2c52-9cd3-4795-abdc-6c2ca3228340&projectId=e622c465-ee29-4445-8260-1f3431e06587","[{""page_index"":0,""viewing_time"":20810}]","20811","","","",""
"true","","","","","fullscreen","3","51716","0.0-3.0","B8F7ADC52A4745C4BBB2A5B5194085A1","B8F7ADC52A4745C4BBB2A5B5194085A1","68de2c52-9cd3-4795-abdc-6c2ca3228340","e622c465-ee29-4445-8260-1f3431e06587","{""participantId"":""B8F7ADC52A4745C4BBB2A5B5194085A1"",""assignmentId"":""68de2c52-9cd3-4795-abdc-6c2ca3228340"",""projectId"":""e622c465-ee29-4445-8260-1f3431e06587""}","https://test12345.live/?participantId=B8F7ADC52A4745C4BBB2A5B5194085A1&assignmentId=68de2c52-9cd3-4795-abdc-6c2ca3228340&projectId=e622c465-ee29-4445-8260-1f3431e06587","","2718","","","",""
"","","","","","instructions","4","59967","0.0-4.0","B8F7ADC52A4745C4BBB2A5B5194085A1","B8F7ADC52A4745C4BBB2A5B5194085A1","68de2c52-9cd3-4795-abdc-6c2ca3228340","e622c465-ee29-4445-8260-1f3431e06587","{""participantId"":""B8F7ADC52A4745C4BBB2A5B5194085A1"",""assignmentId"":""68de2c52-9cd3-4795-abdc-6c2ca3228340"",""projectId"":""e622c465-ee29-4445-8260-1f3431e06587""}","https://test12345.live/?participantId=B8F7ADC52A4745C4BBB2A5B5194085A1&assignmentId=68de2c52-9cd3-4795-abdc-6c2ca3228340&projectId=e622c465-ee29-4445-8260-1f3431e06587","[{""page_index"":0,""viewing_time"":8241}]","8244","","","",""
"","","","","","html-button-response","5","62740","0.0-5.0","B8F7ADC52A4745C4BBB2A5B5194085A1","B8F7ADC52A4745C4BBB2A5B5194085A1","68de2c52-9cd3-4795-abdc-6c2ca3228340","e622c465-ee29-4445-8260-1f3431e06587","{""participantId"":""B8F7ADC52A4745C4BBB2A5B5194085A1"",""assignmentId"":""68de2c52-9cd3-4795-abdc-6c2ca3228340"",""projectId"":""e622c465-ee29-4445-8260-1f3431e06587""}","https://test12345.live/?participantId=B8F7ADC52A4745C4BBB2A5B5194085A1&assignmentId=68de2c52-9cd3-4795-abdc-6c2ca3228340&projectId=e622c465-ee29-4445-8260-1f3431e06587","","2629","
    <div style=""display: flex; justify-content: center; align-items: center;"">
      <img src=""images/blue_deck_1.png"" style=""width: 300px; height: 300px; margin-right: 10px;"" />
      <img src=""images/red_deck_2.png"" style=""width: 300px; height: 300px;"" />
    </div>","1","1",""
"","","","","","html-keyboard-response","6","65745","0.0-7.0-0.0","B8F7ADC52A4745C4BBB2A5B5194085A1","B8F7ADC52A4745C4BBB2A5B5194085A1","68de2c52-9cd3-4795-abdc-6c2ca3228340","e622c465-ee29-4445-8260-1f3431e06587","{""participantId"":""B8F7ADC52A4745C4BBB2A5B5194085A1"",""assignmentId"":""68de2c52-9cd3-4795-abdc-6c2ca3228340"",""projectId"":""e622c465-ee29-4445-8260-1f3431e06587""}","https://test12345.live/?participantId=B8F7ADC52A4745C4BBB2A5B5194085A1&assignmentId=68de2c52-9cd3-4795-abdc-6c2ca3228340&projectId=e622c465-ee29-4445-8260-1f3431e06587","","null","<div style=""display: flex; justify-content: center; align-items: center;"">
                    <img src=""images/semantic/semantic_series_1/semantic_series_1_a.jpg"" style=""width: 300px; height: 300px;"" />
                  </div>","null","",""
"","","","","","html-keyboard-response","7","68749","0.0-7.0-1.0","B8F7ADC52A4745C4BBB2A5B5194085A1","B8F7ADC52A4745C4BBB2A5B5194085A1","68de2c52-9cd3-4795-abdc-6c2ca3228340","e622c465-ee29-4445-8260-1f3431e06587","{""participantId"":""B8F7ADC52A4745C4BBB2A5B5194085A1"",""assignmentId"":""68de2c52-9cd3-4795-abdc-6c2ca3228340"",""projectId"":""e622c465-ee29-4445-8260-1f3431e06587""}","https://test12345.live/?participantId=B8F7ADC52A4745C4BBB2A5B5194085A1&assignmentId=68de2c52-9cd3-4795-abdc-6c2ca3228340&projectId=e622c465-ee29-4445-8260-1f3431e06587","","null","<div style=""display: flex; justify-content: center; align-items: center;"">
                    <img src=""images/semantic/semantic_series_1/semantic_series_1_b.jpg"" style=""width: 300px; height: 300px;"" />
                  </div>","null","",""
"","","","","","html-keyboard-response","8","71754","0.0-7.0-2.0","B8F7ADC52A4745C4BBB2A5B5194085A1","B8F7ADC52A4745C4BBB2A5B5194085A1","68de2c52-9cd3-4795-abdc-6c2ca3228340","e622c465-ee29-4445-8260-1f3431e06587","{""participantId"":""B8F7ADC52A4745C4BBB2A5B5194085A1"",""assignmentId"":""68de2c52-9cd3-4795-abdc-6c2ca3228340"",""projectId"":""e622c465-ee29-4445-8260-1f3431e06587""}","https://test12345.live/?participantId=B8F7ADC52A4745C4BBB2A5B5194085A1&assignmentId=68de2c52-9cd3-4795-abdc-6c2ca3228340&projectId=e622c465-ee29-4445-8260-1f3431e06587","","null","<div style=""display: flex; justify-content: center; align-items: center;"">
                    <img src=""images/semantic/semantic_series_1/semantic_series_1_c.jpg"" style=""width: 300px; height: 300px;"" />
                  </div>","null","",""
"","","","","","html-keyboard-response","9","74760","0.0-7.0-3.0","B8F7ADC52A4745C4BBB2A5B5194085A1","B8F7ADC52A4745C4BBB2A5B5194085A1","68de2c52-9cd3-4795-abdc-6c2ca3228340","e622c465-ee29-4445-8260-1f3431e06587","{""participantId"":""B8F7ADC52A4745C4BBB2A5B5194085A1"",""assignmentId"":""68de2c52-9cd3-4795-abdc-6c2ca3228340"",""projectId"":""e622c465-ee29-4445-8260-1f3431e06587""}","https://test12345.live/?participantId=B8F7ADC52A4745C4BBB2A5B5194085A1&assignmentId=68de2c52-9cd3-4795-abdc-6c2ca3228340&projectId=e622c465-ee29-4445-8260-1f3431e06587","","null","<div style=""display: flex; justify-content: center; align-items: center;"">
                    <img src=""images/semantic/semantic_series_1/semantic_series_1_d.jpg"" style=""width: 300px; height: 300px;"" />
                  </div>","null","",""
"","","","","","html-button-response","10","77044","0.0-8.0","B8F7ADC52A4745C4BBB2A5B5194085A1","B8F7ADC52A4745C4BBB2A5B5194085A1","68de2c52-9cd3-4795-abdc-6c2ca3228340","e622c465-ee29-4445-8260-1f3431e06587","{""participantId"":""B8F7ADC52A4745C4BBB2A5B5194085A1"",""assignmentId"":""68de2c52-9cd3-4795-abdc-6c2ca3228340"",""projectId"":""e622c465-ee29-4445-8260-1f3431e06587""}","https://test12345.live/?participantId=B8F7ADC52A4745C4BBB2A5B5194085A1&assignmentId=68de2c52-9cd3-4795-abdc-6c2ca3228340&projectId=e622c465-ee29-4445-8260-1f3431e06587","","2272","Was there a person in the picture?","0","",""
"","","","","","survey-likert","11","79226","0.0-9.0","B8F7ADC52A4745C4BBB2A5B5194085A1","B8F7ADC52A4745C4BBB2A5B5194085A1","68de2c52-9cd3-4795-abdc-6c2ca3228340","e622c465-ee29-4445-8260-1f3431e06587","{""participantId"":""B8F7ADC52A4745C4BBB2A5B5194085A1"",""assignmentId"":""68de2c52-9cd3-4795-abdc-6c2ca3228340"",""projectId"":""e622c465-ee29-4445-8260-1f3431e06587""}","https://test12345.live/?participantId=B8F7ADC52A4745C4BBB2A5B5194085A1&assignmentId=68de2c52-9cd3-4795-abdc-6c2ca3228340&projectId=e622c465-ee29-4445-8260-1f3431e06587","","2135","","{""Q0"":0}","","[0]"
"","","","","","html-button-response","12","80544","0.0-10.0","B8F7ADC52A4745C4BBB2A5B5194085A1","B8F7ADC52A4745C4BBB2A5B5194085A1","68de2c52-9cd3-4795-abdc-6c2ca3228340","e622c465-ee29-4445-8260-1f3431e06587","{""participantId"":""B8F7ADC52A4745C4BBB2A5B5194085A1"",""assignmentId"":""68de2c52-9cd3-4795-abdc-6c2ca3228340"",""projectId"":""e622c465-ee29-4445-8260-1f3431e06587""}","https://test12345.live/?participantId=B8F7ADC52A4745C4BBB2A5B5194085A1&assignmentId=68de2c52-9cd3-4795-abdc-6c2ca3228340&projectId=e622c465-ee29-4445-8260-1f3431e06587","","1301","
    <div style=""display: flex; justify-content: center; align-items: center;"">
      <img src=""images/blue_deck_1.png"" style=""width: 300px; height: 300px; margin-right: 10px;"" />
      <img src=""images/red_deck_2.png"" style=""width: 300px; height: 300px;"" />
    </div>","0","0",""
"","","","","","html-keyboard-response","13","83550","0.0-11.0-0.0","B8F7ADC52A4745C4BBB2A5B5194085A1","B8F7ADC52A4745C4BBB2A5B5194085A1","68de2c52-9cd3-4795-abdc-6c2ca3228340","e622c465-ee29-4445-8260-1f3431e06587","{""participantId"":""B8F7ADC52A4745C4BBB2A5B5194085A1"",""assignmentId"":""68de2c52-9cd3-4795-abdc-6c2ca3228340"",""projectId"":""e622c465-ee29-4445-8260-1f3431e06587""}","https://test12345.live/?participantId=B8F7ADC52A4745C4BBB2A5B5194085A1&assignmentId=68de2c52-9cd3-4795-abdc-6c2ca3228340&projectId=e622c465-ee29-4445-8260-1f3431e06587","","null","<div style=""display: flex; justify-content: center; align-items: center;"">
                    <img src=""images/causal/causal_series_8/causal_series_8_a.jpg"" style=""width: 300px; height: 300px;"" />
                  </div>","null","",""
"","","","","","html-keyboard-response","14","86564","0.0-11.0-1.0","B8F7ADC52A4745C4BBB2A5B5194085A1","B8F7ADC52A4745C4BBB2A5B5194085A1","68de2c52-9cd3-4795-abdc-6c2ca3228340","e622c465-ee29-4445-8260-1f3431e06587","{""participantId"":""B8F7ADC52A4745C4BBB2A5B5194085A1"",""assignmentId"":""68de2c52-9cd3-4795-abdc-6c2ca3228340"",""projectId"":""e622c465-ee29-4445-8260-1f3431e06587""}","https://test12345.live/?participantId=B8F7ADC52A4745C4BBB2A5B5194085A1&assignmentId=68de2c52-9cd3-4795-abdc-6c2ca3228340&projectId=e622c465-ee29-4445-8260-1f3431e06587","","null","<div style=""display: flex; justify-content: center; align-items: center;"">
                    <img src=""images/causal/causal_series_8/causal_series_8_b.jpg"" style=""width: 300px; height: 300px;"" />
                  </div>","null","",""
"","","","","","html-keyboard-response","15","89571","0.0-11.0-2.0","B8F7ADC52A4745C4BBB2A5B5194085A1","B8F7ADC52A4745C4BBB2A5B5194085A1","68de2c52-9cd3-4795-abdc-6c2ca3228340","e622c465-ee29-4445-8260-1f3431e06587","{""participantId"":""B8F7ADC52A4745C4BBB2A5B5194085A1"",""assignmentId"":""68de2c52-9cd3-4795-abdc-6c2ca3228340"",""projectId"":""e622c465-ee29-4445-8260-1f3431e06587""}","https://test12345.live/?participantId=B8F7ADC52A4745C4BBB2A5B5194085A1&assignmentId=68de2c52-9cd3-4795-abdc-6c2ca3228340&projectId=e622c465-ee29-4445-8260-1f3431e06587","","null","<div style=""display: flex; justify-content: center; align-items: center;"">
                    <img src=""images/causal/causal_series_8/causal_series_8_c.jpg"" style=""width: 300px; height: 300px;"" />
                  </div>","null","",""
"","","","","","html-keyboard-response","16","92584","0.0-11.0-3.0","B8F7ADC52A4745C4BBB2A5B5194085A1","B8F7ADC52A4745C4BBB2A5B5194085A1","68de2c52-9cd3-4795-abdc-6c2ca3228340","e622c465-ee29-4445-8260-1f3431e06587","{""participantId"":""B8F7ADC52A4745C4BBB2A5B5194085A1"",""assignmentId"":""68de2c52-9cd3-4795-abdc-6c2ca3228340"",""projectId"":""e622c465-ee29-4445-8260-1f3431e06587""}","https://test12345.live/?participantId=B8F7ADC52A4745C4BBB2A5B5194085A1&assignmentId=68de2c52-9cd3-4795-abdc-6c2ca3228340&projectId=e622c465-ee29-4445-8260-1f3431e06587","","null","<div style=""display: flex; justify-content: center; align-items: center;"">
                    <img src=""images/causal/causal_series_8/causal_series_8_d.jpg"" style=""width: 300px; height: 300px;"" />
                  </div>","null","",""
"","","","","","html-button-response","17","93719","0.0-13.0","B8F7ADC52A4745C4BBB2A5B5194085A1","B8F7ADC52A4745C4BBB2A5B5194085A1","68de2c52-9cd3-4795-abdc-6c2ca3228340","e622c465-ee29-4445-8260-1f3431e06587","{""participantId"":""B8F7ADC52A4745C4BBB2A5B5194085A1"",""assignmentId"":""68de2c52-9cd3-4795-abdc-6c2ca3228340"",""projectId"":""e622c465-ee29-4445-8260-1f3431e06587""}","https://test12345.live/?participantId=B8F7ADC52A4745C4BBB2A5B5194085A1&assignmentId=68de2c52-9cd3-4795-abdc-6c2ca3228340&projectId=e622c465-ee29-4445-8260-1f3431e06587","","1127","Was there a person in the picture?","0","",""
"","","","","","survey-likert","18","95434","0.0-14.0","B8F7ADC52A4745C4BBB2A5B5194085A1","B8F7ADC52A4745C4BBB2A5B5194085A1","68de2c52-9cd3-4795-abdc-6c2ca3228340","e622c465-ee29-4445-8260-1f3431e06587","{""participantId"":""B8F7ADC52A4745C4BBB2A5B5194085A1"",""assignmentId"":""68de2c52-9cd3-4795-abdc-6c2ca3228340"",""projectId"":""e622c465-ee29-4445-8260-1f3431e06587""}","https://test12345.live/?participantId=B8F7ADC52A4745C4BBB2A5B5194085A1&assignmentId=68de2c52-9cd3-4795-abdc-6c2ca3228340&projectId=e622c465-ee29-4445-8260-1f3431e06587","","1711","","{""Q0"":2}","","[0]"
"","","","","","html-button-response","19","96982","0.0-15.0","B8F7ADC52A4745C4BBB2A5B5194085A1","B8F7ADC52A4745C4BBB2A5B5194085A1","68de2c52-9cd3-4795-abdc-6c2ca3228340","e622c465-ee29-4445-8260-1f3431e06587","{""participantId"":""B8F7ADC52A4745C4BBB2A5B5194085A1"",""assignmentId"":""68de2c52-9cd3-4795-abdc-6c2ca3228340"",""projectId"":""e622c465-ee29-4445-8260-1f3431e06587""}","https://test12345.live/?participantId=B8F7ADC52A4745C4BBB2A5B5194085A1&assignmentId=68de2c52-9cd3-4795-abdc-6c2ca3228340&projectId=e622c465-ee29-4445-8260-1f3431e06587","","1542","
    <div style=""display: flex; justify-content: center; align-items: center;"">
      <img src=""images/blue_deck_1.png"" style=""width: 300px; height: 300px; margin-right: 10px;"" />
      <img src=""images/red_deck_2.png"" style=""width: 300px; height: 300px;"" />
    </div>","1","1",""
"","","","","","html-keyboard-response","20","99987","0.0-17.0-0.0","B8F7ADC52A4745C4BBB2A5B5194085A1","B8F7ADC52A4745C4BBB2A5B5194085A1","68de2c52-9cd3-4795-abdc-6c2ca3228340","e622c465-ee29-4445-8260-1f3431e06587","{""participantId"":""B8F7ADC52A4745C4BBB2A5B5194085A1"",""assignmentId"":""68de2c52-9cd3-4795-abdc-6c2ca3228340"",""projectId"":""e622c465-ee29-4445-8260-1f3431e06587""}","https://test12345.live/?participantId=B8F7ADC52A4745C4BBB2A5B5194085A1&assignmentId=68de2c52-9cd3-4795-abdc-6c2ca3228340&projectId=e622c465-ee29-4445-8260-1f3431e06587","","null","<div style=""display: flex; justify-content: center; align-items: center;"">
                    <img src=""images/semantic/semantic_series_10/semantic_series_10_a.jpg"" style=""width: 300px; height: 300px;"" />
                  </div>","null","",""
"","","","","","html-keyboard-response","21","103000","0.0-17.0-1.0","B8F7ADC52A4745C4BBB2A5B5194085A1","B8F7ADC52A4745C4BBB2A5B5194085A1","68de2c52-9cd3-4795-abdc-6c2ca3228340","e622c465-ee29-4445-8260-1f3431e06587","{""participantId"":""B8F7ADC52A4745C4BBB2A5B5194085A1"",""assignmentId"":""68de2c52-9cd3-4795-abdc-6c2ca3228340"",""projectId"":""e622c465-ee29-4445-8260-1f3431e06587""}","https://test12345.live/?participantId=B8F7ADC52A4745C4BBB2A5B5194085A1&assignmentId=68de2c52-9cd3-4795-abdc-6c2ca3228340&projectId=e622c465-ee29-4445-8260-1f3431e06587","","null","<div style=""display: flex; justify-content: center; align-items: center;"">
                    <img src=""images/semantic/semantic_series_10/semantic_series_10_b.jpg"" style=""width: 300px; height: 300px;"" />
                  </div>","null","",""
"","","","","","html-keyboard-response","22","106008","0.0-17.0-2.0","B8F7ADC52A4745C4BBB2A5B5194085A1","B8F7ADC52A4745C4BBB2A5B5194085A1","68de2c52-9cd3-4795-abdc-6c2ca3228340","e622c465-ee29-4445-8260-1f3431e06587","{""participantId"":""B8F7ADC52A4745C4BBB2A5B5194085A1"",""assignmentId"":""68de2c52-9cd3-4795-abdc-6c2ca3228340"",""projectId"":""e622c465-ee29-4445-8260-1f3431e06587""}","https://test12345.live/?participantId=B8F7ADC52A4745C4BBB2A5B5194085A1&assignmentId=68de2c52-9cd3-4795-abdc-6c2ca3228340&projectId=e622c465-ee29-4445-8260-1f3431e06587","","null","<div style=""display: flex; justify-content: center; align-items: center;"">
                    <img src=""images/semantic/semantic_series_10/semantic_series_10_c.jpg"" style=""width: 300px; height: 300px;"" />
                  </div>","null","",""
"","","","","","html-keyboard-response","23","109016","0.0-17.0-3.0","B8F7ADC52A4745C4BBB2A5B5194085A1","B8F7ADC52A4745C4BBB2A5B5194085A1","68de2c52-9cd3-4795-abdc-6c2ca3228340","e622c465-ee29-4445-8260-1f3431e06587","{""participantId"":""B8F7ADC52A4745C4BBB2A5B5194085A1"",""assignmentId"":""68de2c52-9cd3-4795-abdc-6c2ca3228340"",""projectId"":""e622c465-ee29-4445-8260-1f3431e06587""}","https://test12345.live/?participantId=B8F7ADC52A4745C4BBB2A5B5194085A1&assignmentId=68de2c52-9cd3-4795-abdc-6c2ca3228340&projectId=e622c465-ee29-4445-8260-1f3431e06587","","null","<div style=""display: flex; justify-content: center; align-items: center;"">
                    <img src=""images/semantic/semantic_series_10/semantic_series_10_d.jpg"" style=""width: 300px; height: 300px;"" />
                  </div>","null","",""
"","","","","","html-button-response","24","109862","0.0-18.0","B8F7ADC52A4745C4BBB2A5B5194085A1","B8F7ADC52A4745C4BBB2A5B5194085A1","68de2c52-9cd3-4795-abdc-6c2ca3228340","e622c465-ee29-4445-8260-1f3431e06587","{""participantId"":""B8F7ADC52A4745C4BBB2A5B5194085A1"",""assignmentId"":""68de2c52-9cd3-4795-abdc-6c2ca3228340"",""projectId"":""e622c465-ee29-4445-8260-1f3431e06587""}","https://test12345.live/?participantId=B8F7ADC52A4745C4BBB2A5B5194085A1&assignmentId=68de2c52-9cd3-4795-abdc-6c2ca3228340&projectId=e622c465-ee29-4445-8260-1f3431e06587","","840","Was there a person in the picture?","1","",""
"","","","","","survey-likert","25","111337","0.0-19.0","B8F7ADC52A4745C4BBB2A5B5194085A1","B8F7ADC52A4745C4BBB2A5B5194085A1","68de2c52-9cd3-4795-abdc-6c2ca3228340","e622c465-ee29-4445-8260-1f3431e06587","{""participantId"":""B8F7ADC52A4745C4BBB2A5B5194085A1"",""assignmentId"":""68de2c52-9cd3-4795-abdc-6c2ca3228340"",""projectId"":""e622c465-ee29-4445-8260-1f3431e06587""}","https://test12345.live/?participantId=B8F7ADC52A4745C4BBB2A5B5194085A1&assignmentId=68de2c52-9cd3-4795-abdc-6c2ca3228340&projectId=e622c465-ee29-4445-8260-1f3431e06587","","1470","","{""Q0"":3}","","[0]"
"","","","","","html-button-response","26","112197","0.0-20.0","B8F7ADC52A4745C4BBB2A5B5194085A1","B8F7ADC52A4745C4BBB2A5B5194085A1","68de2c52-9cd3-4795-abdc-6c2ca3228340","e622c465-ee29-4445-8260-1f3431e06587","{""participantId"":""B8F7ADC52A4745C4BBB2A5B5194085A1"",""assignmentId"":""68de2c52-9cd3-4795-abdc-6c2ca3228340"",""projectId"":""e622c465-ee29-4445-8260-1f3431e06587""}","https://test12345.live/?participantId=B8F7ADC52A4745C4BBB2A5B5194085A1&assignmentId=68de2c52-9cd3-4795-abdc-6c2ca3228340&projectId=e622c465-ee29-4445-8260-1f3431e06587","","854","
    <div style=""display: flex; justify-content: center; align-items: center;"">
      <img src=""images/blue_deck_1.png"" style=""width: 300px; height: 300px; margin-right: 10px;"" />
      <img src=""images/red_deck_2.png"" style=""width: 300px; height: 300px;"" />
    </div>","0","0",""
"","","","","","html-keyboard-response","27","115205","0.0-21.0-0.0","B8F7ADC52A4745C4BBB2A5B5194085A1","B8F7ADC52A4745C4BBB2A5B5194085A1","68de2c52-9cd3-4795-abdc-6c2ca3228340","e622c465-ee29-4445-8260-1f3431e06587","{""participantId"":""B8F7ADC52A4745C4BBB2A5B5194085A1"",""assignmentId"":""68de2c52-9cd3-4795-abdc-6c2ca3228340"",""projectId"":""e622c465-ee29-4445-8260-1f3431e06587""}","https://test12345.live/?participantId=B8F7ADC52A4745C4BBB2A5B5194085A1&assignmentId=68de2c52-9cd3-4795-abdc-6c2ca3228340&projectId=e622c465-ee29-4445-8260-1f3431e06587","","null","<div style=""display: flex; justify-content: center; align-items: center;"">
                    <img src=""images/causal/causal_series_5/causal_series_5_a.jpg"" style=""width: 300px; height: 300px;"" />
                  </div>","null","",""
"","","","","","html-keyboard-response","28","118211","0.0-21.0-1.0","B8F7ADC52A4745C4BBB2A5B5194085A1","B8F7ADC52A4745C4BBB2A5B5194085A1","68de2c52-9cd3-4795-abdc-6c2ca3228340","e622c465-ee29-4445-8260-1f3431e06587","{""participantId"":""B8F7ADC52A4745C4BBB2A5B5194085A1"",""assignmentId"":""68de2c52-9cd3-4795-abdc-6c2ca3228340"",""projectId"":""e622c465-ee29-4445-8260-1f3431e06587""}","https://test12345.live/?participantId=B8F7ADC52A4745C4BBB2A5B5194085A1&assignmentId=68de2c52-9cd3-4795-abdc-6c2ca3228340&projectId=e622c465-ee29-4445-8260-1f3431e06587","","null","<div style=""display: flex; justify-content: center; align-items: center;"">
                    <img src=""images/causal/causal_series_5/causal_series_5_b.jpg"" style=""width: 300px; height: 300px;"" />
                  </div>","null","",""
"","","","","","html-keyboard-response","29","121214","0.0-21.0-2.0","B8F7ADC52A4745C4BBB2A5B5194085A1","B8F7ADC52A4745C4BBB2A5B5194085A1","68de2c52-9cd3-4795-abdc-6c2ca3228340","e622c465-ee29-4445-8260-1f3431e06587","{""participantId"":""B8F7ADC52A4745C4BBB2A5B5194085A1"",""assignmentId"":""68de2c52-9cd3-4795-abdc-6c2ca3228340"",""projectId"":""e622c465-ee29-4445-8260-1f3431e06587""}","https://test12345.live/?participantId=B8F7ADC52A4745C4BBB2A5B5194085A1&assignmentId=68de2c52-9cd3-4795-abdc-6c2ca3228340&projectId=e622c465-ee29-4445-8260-1f3431e06587","","null","<div style=""display: flex; justify-content: center; align-items: center;"">
                    <img src=""images/causal/causal_series_5/causal_series_5_c.jpg"" style=""width: 300px; height: 300px;"" />
                  </div>","null","",""
"","","","","","html-keyboard-response","30","124221","0.0-21.0-3.0","B8F7ADC52A4745C4BBB2A5B5194085A1","B8F7ADC52A4745C4BBB2A5B5194085A1","68de2c52-9cd3-4795-abdc-6c2ca3228340","e622c465-ee29-4445-8260-1f3431e06587","{""participantId"":""B8F7ADC52A4745C4BBB2A5B5194085A1"",""assignmentId"":""68de2c52-9cd3-4795-abdc-6c2ca3228340"",""projectId"":""e622c465-ee29-4445-8260-1f3431e06587""}","https://test12345.live/?participantId=B8F7ADC52A4745C4BBB2A5B5194085A1&assignmentId=68de2c52-9cd3-4795-abdc-6c2ca3228340&projectId=e622c465-ee29-4445-8260-1f3431e06587","","null","<div style=""display: flex; justify-content: center; align-items: center;"">
                    <img src=""images/causal/causal_series_5/causal_series_5_d.jpg"" style=""width: 300px; height: 300px;"" />
                  </div>","null","",""
"","","","","","html-button-response","31","128036","0.0-23.0","B8F7ADC52A4745C4BBB2A5B5194085A1","B8F7ADC52A4745C4BBB2A5B5194085A1","68de2c52-9cd3-4795-abdc-6c2ca3228340","e622c465-ee29-4445-8260-1f3431e06587","{""participantId"":""B8F7ADC52A4745C4BBB2A5B5194085A1"",""assignmentId"":""68de2c52-9cd3-4795-abdc-6c2ca3228340"",""projectId"":""e622c465-ee29-4445-8260-1f3431e06587""}","https://test12345.live/?participantId=B8F7ADC52A4745C4BBB2A5B5194085A1&assignmentId=68de2c52-9cd3-4795-abdc-6c2ca3228340&projectId=e622c465-ee29-4445-8260-1f3431e06587","","3808","Was there a person in the picture?","0","",""
"","","","","","survey-likert","32","130164","0.0-24.0","B8F7ADC52A4745C4BBB2A5B5194085A1","B8F7ADC52A4745C4BBB2A5B5194085A1","68de2c52-9cd3-4795-abdc-6c2ca3228340","e622c465-ee29-4445-8260-1f3431e06587","{""participantId"":""B8F7ADC52A4745C4BBB2A5B5194085A1"",""assignmentId"":""68de2c52-9cd3-4795-abdc-6c2ca3228340"",""projectId"":""e622c465-ee29-4445-8260-1f3431e06587""}","https://test12345.live/?participantId=B8F7ADC52A4745C4BBB2A5B5194085A1&assignmentId=68de2c52-9cd3-4795-abdc-6c2ca3228340&projectId=e622c465-ee29-4445-8260-1f3431e06587","","2126","","{""Q0"":2}","","[0]"
"","","","","","html-button-response","33","131164","0.0-25.0","B8F7ADC52A4745C4BBB2A5B5194085A1","B8F7ADC52A4745C4BBB2A5B5194085A1","68de2c52-9cd3-4795-abdc-6c2ca3228340","e622c465-ee29-4445-8260-1f3431e06587","{""participantId"":""B8F7ADC52A4745C4BBB2A5B5194085A1"",""assignmentId"":""68de2c52-9cd3-4795-abdc-6c2ca3228340"",""projectId"":""e622c465-ee29-4445-8260-1f3431e06587""}","https://test12345.live/?participantId=B8F7ADC52A4745C4BBB2A5B5194085A1&assignmentId=68de2c52-9cd3-4795-abdc-6c2ca3228340&projectId=e622c465-ee29-4445-8260-1f3431e06587","","994","
    <div style=""display: flex; justify-content: center; align-items: center;"">
      <img src=""images/blue_deck_1.png"" style=""width: 300px; height: 300px; margin-right: 10px;"" />
      <img src=""images/red_deck_2.png"" style=""width: 300px; height: 300px;"" />
    </div>","0","0",""
"","","","","","html-keyboard-response","34","134169","0.0-26.0-0.0","B8F7ADC52A4745C4BBB2A5B5194085A1","B8F7ADC52A4745C4BBB2A5B5194085A1","68de2c52-9cd3-4795-abdc-6c2ca3228340","e622c465-ee29-4445-8260-1f3431e06587","{""participantId"":""B8F7ADC52A4745C4BBB2A5B5194085A1"",""assignmentId"":""68de2c52-9cd3-4795-abdc-6c2ca3228340"",""projectId"":""e622c465-ee29-4445-8260-1f3431e06587""}","https://test12345.live/?participantId=B8F7ADC52A4745C4BBB2A5B5194085A1&assignmentId=68de2c52-9cd3-4795-abdc-6c2ca3228340&projectId=e622c465-ee29-4445-8260-1f3431e06587","","null","<div style=""display: flex; justify-content: center; align-items: center;"">
                    <img src=""images/causal/causal_series_4/causal_series_4_a.jpg"" style=""width: 300px; height: 300px;"" />
                  </div>","null","",""
"","","","","","html-keyboard-response","35","137177","0.0-26.0-1.0","B8F7ADC52A4745C4BBB2A5B5194085A1","B8F7ADC52A4745C4BBB2A5B5194085A1","68de2c52-9cd3-4795-abdc-6c2ca3228340","e622c465-ee29-4445-8260-1f3431e06587","{""participantId"":""B8F7ADC52A4745C4BBB2A5B5194085A1"",""assignmentId"":""68de2c52-9cd3-4795-abdc-6c2ca3228340"",""projectId"":""e622c465-ee29-4445-8260-1f3431e06587""}","https://test12345.live/?participantId=B8F7ADC52A4745C4BBB2A5B5194085A1&assignmentId=68de2c52-9cd3-4795-abdc-6c2ca3228340&projectId=e622c465-ee29-4445-8260-1f3431e06587","","null","<div style=""display: flex; justify-content: center; align-items: center;"">
                    <img src=""images/causal/causal_series_4/causal_series_4_b.jpg"" style=""width: 300px; height: 300px;"" />
                  </div>","null","",""
"","","","","","html-keyboard-response","36","140186","0.0-26.0-2.0","B8F7ADC52A4745C4BBB2A5B5194085A1","B8F7ADC52A4745C4BBB2A5B5194085A1","68de2c52-9cd3-4795-abdc-6c2ca3228340","e622c465-ee29-4445-8260-1f3431e06587","{""participantId"":""B8F7ADC52A4745C4BBB2A5B5194085A1"",""assignmentId"":""68de2c52-9cd3-4795-abdc-6c2ca3228340"",""projectId"":""e622c465-ee29-4445-8260-1f3431e06587""}","https://test12345.live/?participantId=B8F7ADC52A4745C4BBB2A5B5194085A1&assignmentId=68de2c52-9cd3-4795-abdc-6c2ca3228340&projectId=e622c465-ee29-4445-8260-1f3431e06587","","null","<div style=""display: flex; justify-content: center; align-items: center;"">
                    <img src=""images/causal/causal_series_4/causal_series_4_c.jpg"" style=""width: 300px; height: 300px;"" />
                  </div>","null","",""
"","","","","","html-keyboard-response","37","143192","0.0-26.0-3.0","B8F7ADC52A4745C4BBB2A5B5194085A1","B8F7ADC52A4745C4BBB2A5B5194085A1","68de2c52-9cd3-4795-abdc-6c2ca3228340","e622c465-ee29-4445-8260-1f3431e06587","{""participantId"":""B8F7ADC52A4745C4BBB2A5B5194085A1"",""assignmentId"":""68de2c52-9cd3-4795-abdc-6c2ca3228340"",""projectId"":""e622c465-ee29-4445-8260-1f3431e06587""}","https://test12345.live/?participantId=B8F7ADC52A4745C4BBB2A5B5194085A1&assignmentId=68de2c52-9cd3-4795-abdc-6c2ca3228340&projectId=e622c465-ee29-4445-8260-1f3431e06587","","null","<div style=""display: flex; justify-content: center; align-items: center;"">
                    <img src=""images/causal/causal_series_4/causal_series_4_d.jpg"" style=""width: 300px; height: 300px;"" />
                  </div>","null","",""
"","","","","","html-button-response","38","146066","0.0-28.0","B8F7ADC52A4745C4BBB2A5B5194085A1","B8F7ADC52A4745C4BBB2A5B5194085A1","68de2c52-9cd3-4795-abdc-6c2ca3228340","e622c465-ee29-4445-8260-1f3431e06587","{""participantId"":""B8F7ADC52A4745C4BBB2A5B5194085A1"",""assignmentId"":""68de2c52-9cd3-4795-abdc-6c2ca3228340"",""projectId"":""e622c465-ee29-4445-8260-1f3431e06587""}","https://test12345.live/?participantId=B8F7ADC52A4745C4BBB2A5B5194085A1&assignmentId=68de2c52-9cd3-4795-abdc-6c2ca3228340&projectId=e622c465-ee29-4445-8260-1f3431e06587","","2870","Was there a person in the picture?","1","",""
"","","","","","survey-likert","39","147740","0.0-29.0","B8F7ADC52A4745C4BBB2A5B5194085A1","B8F7ADC52A4745C4BBB2A5B5194085A1","68de2c52-9cd3-4795-abdc-6c2ca3228340","e622c465-ee29-4445-8260-1f3431e06587","{""participantId"":""B8F7ADC52A4745C4BBB2A5B5194085A1"",""assignmentId"":""68de2c52-9cd3-4795-abdc-6c2ca3228340"",""projectId"":""e622c465-ee29-4445-8260-1f3431e06587""}","https://test12345.live/?participantId=B8F7ADC52A4745C4BBB2A5B5194085A1&assignmentId=68de2c52-9cd3-4795-abdc-6c2ca3228340&projectId=e622c465-ee29-4445-8260-1f3431e06587","","1668","","{""Q0"":2}","","[0]"
"","","","","","html-button-response","40","148573","0.0-30.0","B8F7ADC52A4745C4BBB2A5B5194085A1","B8F7ADC52A4745C4BBB2A5B5194085A1","68de2c52-9cd3-4795-abdc-6c2ca3228340","e622c465-ee29-4445-8260-1f3431e06587","{""participantId"":""B8F7ADC52A4745C4BBB2A5B5194085A1"",""assignmentId"":""68de2c52-9cd3-4795-abdc-6c2ca3228340"",""projectId"":""e622c465-ee29-4445-8260-1f3431e06587""}","https://test12345.live/?participantId=B8F7ADC52A4745C4BBB2A5B5194085A1&assignmentId=68de2c52-9cd3-4795-abdc-6c2ca3228340&projectId=e622c465-ee29-4445-8260-1f3431e06587","","827","
    <div style=""display: flex; justify-content: center; align-items: center;"">
      <img src=""images/blue_deck_1.png"" style=""width: 300px; height: 300px; margin-right: 10px;"" />
      <img src=""images/red_deck_2.png"" style=""width: 300px; height: 300px;"" />
    </div>","0","0",""
"","","","","","html-keyboard-response","41","151578","0.0-31.0-0.0","B8F7ADC52A4745C4BBB2A5B5194085A1","B8F7ADC52A4745C4BBB2A5B5194085A1","68de2c52-9cd3-4795-abdc-6c2ca3228340","e622c465-ee29-4445-8260-1f3431e06587","{""participantId"":""B8F7ADC52A4745C4BBB2A5B5194085A1"",""assignmentId"":""68de2c52-9cd3-4795-abdc-6c2ca3228340"",""projectId"":""e622c465-ee29-4445-8260-1f3431e06587""}","https://test12345.live/?participantId=B8F7ADC52A4745C4BBB2A5B5194085A1&assignmentId=68de2c52-9cd3-4795-abdc-6c2ca3228340&projectId=e622c465-ee29-4445-8260-1f3431e06587","","null","<div style=""display: flex; justify-content: center; align-items: center;"">
                    <img src=""images/causal/causal_series_10/causal_series_10_a.jpg"" style=""width: 300px; height: 300px;"" />
                  </div>","null","",""
"","","","","","html-keyboard-response","42","154589","0.0-31.0-1.0","B8F7ADC52A4745C4BBB2A5B5194085A1","B8F7ADC52A4745C4BBB2A5B5194085A1","68de2c52-9cd3-4795-abdc-6c2ca3228340","e622c465-ee29-4445-8260-1f3431e06587","{""participantId"":""B8F7ADC52A4745C4BBB2A5B5194085A1"",""assignmentId"":""68de2c52-9cd3-4795-abdc-6c2ca3228340"",""projectId"":""e622c465-ee29-4445-8260-1f3431e06587""}","https://test12345.live/?participantId=B8F7ADC52A4745C4BBB2A5B5194085A1&assignmentId=68de2c52-9cd3-4795-abdc-6c2ca3228340&projectId=e622c465-ee29-4445-8260-1f3431e06587","","null","<div style=""display: flex; justify-content: center; align-items: center;"">
                    <img src=""images/causal/causal_series_10/causal_series_10_b.jpg"" style=""width: 300px; height: 300px;"" />
                  </div>","null","",""
"","","","","","html-keyboard-response","43","157597","0.0-31.0-2.0","B8F7ADC52A4745C4BBB2A5B5194085A1","B8F7ADC52A4745C4BBB2A5B5194085A1","68de2c52-9cd3-4795-abdc-6c2ca3228340","e622c465-ee29-4445-8260-1f3431e06587","{""participantId"":""B8F7ADC52A4745C4BBB2A5B5194085A1"",""assignmentId"":""68de2c52-9cd3-4795-abdc-6c2ca3228340"",""projectId"":""e622c465-ee29-4445-8260-1f3431e06587""}","https://test12345.live/?participantId=B8F7ADC52A4745C4BBB2A5B5194085A1&assignmentId=68de2c52-9cd3-4795-abdc-6c2ca3228340&projectId=e622c465-ee29-4445-8260-1f3431e06587","","null","<div style=""display: flex; justify-content: center; align-items: center;"">
                    <img src=""images/causal/causal_series_10/causal_series_10_c.jpg"" style=""width: 300px; height: 300px;"" />
                  </div>","null","",""
"","","","","","html-keyboard-response","44","160603","0.0-31.0-3.0","B8F7ADC52A4745C4BBB2A5B5194085A1","B8F7ADC52A4745C4BBB2A5B5194085A1","68de2c52-9cd3-4795-abdc-6c2ca3228340","e622c465-ee29-4445-8260-1f3431e06587","{""participantId"":""B8F7ADC52A4745C4BBB2A5B5194085A1"",""assignmentId"":""68de2c52-9cd3-4795-abdc-6c2ca3228340"",""projectId"":""e622c465-ee29-4445-8260-1f3431e06587""}","https://test12345.live/?participantId=B8F7ADC52A4745C4BBB2A5B5194085A1&assignmentId=68de2c52-9cd3-4795-abdc-6c2ca3228340&projectId=e622c465-ee29-4445-8260-1f3431e06587","","null","<div style=""display: flex; justify-content: center; align-items: center;"">
                    <img src=""images/causal/causal_series_10/causal_series_10_d.jpg"" style=""width: 300px; height: 300px;"" />
                  </div>","null","",""
"","","","","","html-button-response","45","163440","0.0-33.0","B8F7ADC52A4745C4BBB2A5B5194085A1","B8F7ADC52A4745C4BBB2A5B5194085A1","68de2c52-9cd3-4795-abdc-6c2ca3228340","e622c465-ee29-4445-8260-1f3431e06587","{""participantId"":""B8F7ADC52A4745C4BBB2A5B5194085A1"",""assignmentId"":""68de2c52-9cd3-4795-abdc-6c2ca3228340"",""projectId"":""e622c465-ee29-4445-8260-1f3431e06587""}","https://test12345.live/?participantId=B8F7ADC52A4745C4BBB2A5B5194085A1&assignmentId=68de2c52-9cd3-4795-abdc-6c2ca3228340&projectId=e622c465-ee29-4445-8260-1f3431e06587","","2827","Was there a person in the picture?","1","",""
"","","","","","survey-likert","46","165670","0.0-34.0","B8F7ADC52A4745C4BBB2A5B5194085A1","B8F7ADC52A4745C4BBB2A5B5194085A1","68de2c52-9cd3-4795-abdc-6c2ca3228340","e622c465-ee29-4445-8260-1f3431e06587","{""participantId"":""B8F7ADC52A4745C4BBB2A5B5194085A1"",""assignmentId"":""68de2c52-9cd3-4795-abdc-6c2ca3228340"",""projectId"":""e622c465-ee29-4445-8260-1f3431e06587""}","https://test12345.live/?participantId=B8F7ADC52A4745C4BBB2A5B5194085A1&assignmentId=68de2c52-9cd3-4795-abdc-6c2ca3228340&projectId=e622c465-ee29-4445-8260-1f3431e06587","","2226","","{""Q0"":2}","","[0]"
"","","","","","html-button-response","47","176605","0.0-35.0","B8F7ADC52A4745C4BBB2A5B5194085A1","B8F7ADC52A4745C4BBB2A5B5194085A1","68de2c52-9cd3-4795-abdc-6c2ca3228340","e622c465-ee29-4445-8260-1f3431e06587","{""participantId"":""B8F7ADC52A4745C4BBB2A5B5194085A1"",""assignmentId"":""68de2c52-9cd3-4795-abdc-6c2ca3228340"",""projectId"":""e622c465-ee29-4445-8260-1f3431e06587""}","https://test12345.live/?participantId=B8F7ADC52A4745C4BBB2A5B5194085A1&assignmentId=68de2c52-9cd3-4795-abdc-6c2ca3228340&projectId=e622c465-ee29-4445-8260-1f3431e06587","","10929","
    <div style=""display: flex; justify-content: center; align-items: center;"">
      <img src=""images/blue_deck_1.png"" style=""width: 300px; height: 300px; margin-right: 10px;"" />
      <img src=""images/red_deck_2.png"" style=""width: 300px; height: 300px;"" />
    </div>","1","1",""
"","","","","","html-keyboard-response","48","179609","0.0-37.0-0.0","B8F7ADC52A4745C4BBB2A5B5194085A1","B8F7ADC52A4745C4BBB2A5B5194085A1","68de2c52-9cd3-4795-abdc-6c2ca3228340","e622c465-ee29-4445-8260-1f3431e06587","{""participantId"":""B8F7ADC52A4745C4BBB2A5B5194085A1"",""assignmentId"":""68de2c52-9cd3-4795-abdc-6c2ca3228340"",""projectId"":""e622c465-ee29-4445-8260-1f3431e06587""}","https://test12345.live/?participantId=B8F7ADC52A4745C4BBB2A5B5194085A1&assignmentId=68de2c52-9cd3-4795-abdc-6c2ca3228340&projectId=e622c465-ee29-4445-8260-1f3431e06587","","null","<div style=""display: flex; justify-content: center; align-items: center;"">
                    <img src=""images/semantic/semantic_series_16/semantic_series_16_a.jpg"" style=""width: 300px; height: 300px;"" />
                  </div>","null","",""
"","","","","","html-keyboard-response","49","182615","0.0-37.0-1.0","B8F7ADC52A4745C4BBB2A5B5194085A1","B8F7ADC52A4745C4BBB2A5B5194085A1","68de2c52-9cd3-4795-abdc-6c2ca3228340","e622c465-ee29-4445-8260-1f3431e06587","{""participantId"":""B8F7ADC52A4745C4BBB2A5B5194085A1"",""assignmentId"":""68de2c52-9cd3-4795-abdc-6c2ca3228340"",""projectId"":""e622c465-ee29-4445-8260-1f3431e06587""}","https://test12345.live/?participantId=B8F7ADC52A4745C4BBB2A5B5194085A1&assignmentId=68de2c52-9cd3-4795-abdc-6c2ca3228340&projectId=e622c465-ee29-4445-8260-1f3431e06587","","null","<div style=""display: flex; justify-content: center; align-items: center;"">
                    <img src=""images/semantic/semantic_series_16/semantic_series_16_b.jpg"" style=""width: 300px; height: 300px;"" />
                  </div>","null","",""
"","","","","","html-keyboard-response","50","185626","0.0-37.0-2.0","B8F7ADC52A4745C4BBB2A5B5194085A1","B8F7ADC52A4745C4BBB2A5B5194085A1","68de2c52-9cd3-4795-abdc-6c2ca3228340","e622c465-ee29-4445-8260-1f3431e06587","{""participantId"":""B8F7ADC52A4745C4BBB2A5B5194085A1"",""assignmentId"":""68de2c52-9cd3-4795-abdc-6c2ca3228340"",""projectId"":""e622c465-ee29-4445-8260-1f3431e06587""}","https://test12345.live/?participantId=B8F7ADC52A4745C4BBB2A5B5194085A1&assignmentId=68de2c52-9cd3-4795-abdc-6c2ca3228340&projectId=e622c465-ee29-4445-8260-1f3431e06587","","null","<div style=""display: flex; justify-content: center; align-items: center;"">
                    <img src=""images/semantic/semantic_series_16/semantic_series_16_c.jpg"" style=""width: 300px; height: 300px;"" />
                  </div>","null","",""
"","","","","","html-keyboard-response","51","188631","0.0-37.0-3.0","B8F7ADC52A4745C4BBB2A5B5194085A1","B8F7ADC52A4745C4BBB2A5B5194085A1","68de2c52-9cd3-4795-abdc-6c2ca3228340","e622c465-ee29-4445-8260-1f3431e06587","{""participantId"":""B8F7ADC52A4745C4BBB2A5B5194085A1"",""assignmentId"":""68de2c52-9cd3-4795-abdc-6c2ca3228340"",""projectId"":""e622c465-ee29-4445-8260-1f3431e06587""}","https://test12345.live/?participantId=B8F7ADC52A4745C4BBB2A5B5194085A1&assignmentId=68de2c52-9cd3-4795-abdc-6c2ca3228340&projectId=e622c465-ee29-4445-8260-1f3431e06587","","null","<div style=""display: flex; justify-content: center; align-items: center;"">
                    <img src=""images/semantic/semantic_series_16/semantic_series_16_d.jpg"" style=""width: 300px; height: 300px;"" />
                  </div>","null","",""
"","","","","","html-button-response","52","189743","0.0-38.0","B8F7ADC52A4745C4BBB2A5B5194085A1","B8F7ADC52A4745C4BBB2A5B5194085A1","68de2c52-9cd3-4795-abdc-6c2ca3228340","e622c465-ee29-4445-8260-1f3431e06587","{""participantId"":""B8F7ADC52A4745C4BBB2A5B5194085A1"",""assignmentId"":""68de2c52-9cd3-4795-abdc-6c2ca3228340"",""projectId"":""e622c465-ee29-4445-8260-1f3431e06587""}","https://test12345.live/?participantId=B8F7ADC52A4745C4BBB2A5B5194085A1&assignmentId=68de2c52-9cd3-4795-abdc-6c2ca3228340&projectId=e622c465-ee29-4445-8260-1f3431e06587","","1108","Was there a person in the picture?","0","",""
"","","","","","survey-likert","53","191575","0.0-39.0","B8F7ADC52A4745C4BBB2A5B5194085A1","B8F7ADC52A4745C4BBB2A5B5194085A1","68de2c52-9cd3-4795-abdc-6c2ca3228340","e622c465-ee29-4445-8260-1f3431e06587","{""participantId"":""B8F7ADC52A4745C4BBB2A5B5194085A1"",""assignmentId"":""68de2c52-9cd3-4795-abdc-6c2ca3228340"",""projectId"":""e622c465-ee29-4445-8260-1f3431e06587""}","https://test12345.live/?participantId=B8F7ADC52A4745C4BBB2A5B5194085A1&assignmentId=68de2c52-9cd3-4795-abdc-6c2ca3228340&projectId=e622c465-ee29-4445-8260-1f3431e06587","","1828","","{""Q0"":0}","","[0]"
"","","","","","html-button-response","54","192332","0.0-40.0","B8F7ADC52A4745C4BBB2A5B5194085A1","B8F7ADC52A4745C4BBB2A5B5194085A1","68de2c52-9cd3-4795-abdc-6c2ca3228340","e622c465-ee29-4445-8260-1f3431e06587","{""participantId"":""B8F7ADC52A4745C4BBB2A5B5194085A1"",""assignmentId"":""68de2c52-9cd3-4795-abdc-6c2ca3228340"",""projectId"":""e622c465-ee29-4445-8260-1f3431e06587""}","https://test12345.live/?participantId=B8F7ADC52A4745C4BBB2A5B5194085A1&assignmentId=68de2c52-9cd3-4795-abdc-6c2ca3228340&projectId=e622c465-ee29-4445-8260-1f3431e06587","","751","
    <div style=""display: flex; justify-content: center; align-items: center;"">
      <img src=""images/blue_deck_1.png"" style=""width: 300px; height: 300px; margin-right: 10px;"" />
      <img src=""images/red_deck_2.png"" style=""width: 300px; height: 300px;"" />
    </div>","0","0",""
"","","","","","html-keyboard-response","55","195345","0.0-41.0-0.0","B8F7ADC52A4745C4BBB2A5B5194085A1","B8F7ADC52A4745C4BBB2A5B5194085A1","68de2c52-9cd3-4795-abdc-6c2ca3228340","e622c465-ee29-4445-8260-1f3431e06587","{""participantId"":""B8F7ADC52A4745C4BBB2A5B5194085A1"",""assignmentId"":""68de2c52-9cd3-4795-abdc-6c2ca3228340"",""projectId"":""e622c465-ee29-4445-8260-1f3431e06587""}","https://test12345.live/?participantId=B8F7ADC52A4745C4BBB2A5B5194085A1&assignmentId=68de2c52-9cd3-4795-abdc-6c2ca3228340&projectId=e622c465-ee29-4445-8260-1f3431e06587","","null","<div style=""display: flex; justify-content: center; align-items: center;"">
                    <img src=""images/causal/causal_series_6/causal_series_6_a.jpg"" style=""width: 300px; height: 300px;"" />
                  </div>","null","",""
"","","","","","html-keyboard-response","56","198353","0.0-41.0-1.0","B8F7ADC52A4745C4BBB2A5B5194085A1","B8F7ADC52A4745C4BBB2A5B5194085A1","68de2c52-9cd3-4795-abdc-6c2ca3228340","e622c465-ee29-4445-8260-1f3431e06587","{""participantId"":""B8F7ADC52A4745C4BBB2A5B5194085A1"",""assignmentId"":""68de2c52-9cd3-4795-abdc-6c2ca3228340"",""projectId"":""e622c465-ee29-4445-8260-1f3431e06587""}","https://test12345.live/?participantId=B8F7ADC52A4745C4BBB2A5B5194085A1&assignmentId=68de2c52-9cd3-4795-abdc-6c2ca3228340&projectId=e622c465-ee29-4445-8260-1f3431e06587","","null","<div style=""display: flex; justify-content: center; align-items: center;"">
                    <img src=""images/causal/causal_series_6/causal_series_6_b.jpg"" style=""width: 300px; height: 300px;"" />
                  </div>","null","",""
"","","","","","html-keyboard-response","57","201358","0.0-41.0-2.0","B8F7ADC52A4745C4BBB2A5B5194085A1","B8F7ADC52A4745C4BBB2A5B5194085A1","68de2c52-9cd3-4795-abdc-6c2ca3228340","e622c465-ee29-4445-8260-1f3431e06587","{""participantId"":""B8F7ADC52A4745C4BBB2A5B5194085A1"",""assignmentId"":""68de2c52-9cd3-4795-abdc-6c2ca3228340"",""projectId"":""e622c465-ee29-4445-8260-1f3431e06587""}","https://test12345.live/?participantId=B8F7ADC52A4745C4BBB2A5B5194085A1&assignmentId=68de2c52-9cd3-4795-abdc-6c2ca3228340&projectId=e622c465-ee29-4445-8260-1f3431e06587","","null","<div style=""display: flex; justify-content: center; align-items: center;"">
                    <img src=""images/causal/causal_series_6/causal_series_6_c.jpg"" style=""width: 300px; height: 300px;"" />
                  </div>","null","",""
"","","","","","html-keyboard-response","58","204364","0.0-41.0-3.0","B8F7ADC52A4745C4BBB2A5B5194085A1","B8F7ADC52A4745C4BBB2A5B5194085A1","68de2c52-9cd3-4795-abdc-6c2ca3228340","e622c465-ee29-4445-8260-1f3431e06587","{""participantId"":""B8F7ADC52A4745C4BBB2A5B5194085A1"",""assignmentId"":""68de2c52-9cd3-4795-abdc-6c2ca3228340"",""projectId"":""e622c465-ee29-4445-8260-1f3431e06587""}","https://test12345.live/?participantId=B8F7ADC52A4745C4BBB2A5B5194085A1&assignmentId=68de2c52-9cd3-4795-abdc-6c2ca3228340&projectId=e622c465-ee29-4445-8260-1f3431e06587","","null","<div style=""display: flex; justify-content: center; align-items: center;"">
                    <img src=""images/causal/causal_series_6/causal_series_6_d.jpg"" style=""width: 300px; height: 300px;"" />
                  </div>","null","",""
"","","","","","html-button-response","59","205223","0.0-43.0","B8F7ADC52A4745C4BBB2A5B5194085A1","B8F7ADC52A4745C4BBB2A5B5194085A1","68de2c52-9cd3-4795-abdc-6c2ca3228340","e622c465-ee29-4445-8260-1f3431e06587","{""participantId"":""B8F7ADC52A4745C4BBB2A5B5194085A1"",""assignmentId"":""68de2c52-9cd3-4795-abdc-6c2ca3228340"",""projectId"":""e622c465-ee29-4445-8260-1f3431e06587""}","https://test12345.live/?participantId=B8F7ADC52A4745C4BBB2A5B5194085A1&assignmentId=68de2c52-9cd3-4795-abdc-6c2ca3228340&projectId=e622c465-ee29-4445-8260-1f3431e06587","","851","Was there a person in the picture?","0","",""
"","","","","","survey-likert","60","206839","0.0-44.0","B8F7ADC52A4745C4BBB2A5B5194085A1","B8F7ADC52A4745C4BBB2A5B5194085A1","68de2c52-9cd3-4795-abdc-6c2ca3228340","e622c465-ee29-4445-8260-1f3431e06587","{""participantId"":""B8F7ADC52A4745C4BBB2A5B5194085A1"",""assignmentId"":""68de2c52-9cd3-4795-abdc-6c2ca3228340"",""projectId"":""e622c465-ee29-4445-8260-1f3431e06587""}","https://test12345.live/?participantId=B8F7ADC52A4745C4BBB2A5B5194085A1&assignmentId=68de2c52-9cd3-4795-abdc-6c2ca3228340&projectId=e622c465-ee29-4445-8260-1f3431e06587","","1612","","{""Q0"":3}","","[0]"
"","","","","","html-button-response","61","758328","0.0-45.0","B8F7ADC52A4745C4BBB2A5B5194085A1","B8F7ADC52A4745C4BBB2A5B5194085A1","68de2c52-9cd3-4795-abdc-6c2ca3228340","e622c465-ee29-4445-8260-1f3431e06587","{""participantId"":""B8F7ADC52A4745C4BBB2A5B5194085A1"",""assignmentId"":""68de2c52-9cd3-4795-abdc-6c2ca3228340"",""projectId"":""e622c465-ee29-4445-8260-1f3431e06587""}","https://test12345.live/?participantId=B8F7ADC52A4745C4BBB2A5B5194085A1&assignmentId=68de2c52-9cd3-4795-abdc-6c2ca3228340&projectId=e622c465-ee29-4445-8260-1f3431e06587","","81167","
    <div style=""display: flex; justify-content: center; align-items: center;"">
      <img src=""images/blue_deck_1.png"" style=""width: 300px; height: 300px; margin-right: 10px;"" />
      <img src=""images/red_deck_2.png"" style=""width: 300px; height: 300px;"" />
    </div>","1","1",""
"","","","","","html-keyboard-response","62","761336","0.0-47.0-0.0","B8F7ADC52A4745C4BBB2A5B5194085A1","B8F7ADC52A4745C4BBB2A5B5194085A1","68de2c52-9cd3-4795-abdc-6c2ca3228340","e622c465-ee29-4445-8260-1f3431e06587","{""participantId"":""B8F7ADC52A4745C4BBB2A5B5194085A1"",""assignmentId"":""68de2c52-9cd3-4795-abdc-6c2ca3228340"",""projectId"":""e622c465-ee29-4445-8260-1f3431e06587""}","https://test12345.live/?participantId=B8F7ADC52A4745C4BBB2A5B5194085A1&assignmentId=68de2c52-9cd3-4795-abdc-6c2ca3228340&projectId=e622c465-ee29-4445-8260-1f3431e06587","","null","<div style=""display: flex; justify-content: center; align-items: center;"">
                    <img src=""images/semantic/semantic_series_2/semantic_series_2_a.jpg"" style=""width: 300px; height: 300px;"" />
                  </div>","null","",""
"","","","","","html-keyboard-response","63","764340","0.0-47.0-1.0","B8F7ADC52A4745C4BBB2A5B5194085A1","B8F7ADC52A4745C4BBB2A5B5194085A1","68de2c52-9cd3-4795-abdc-6c2ca3228340","e622c465-ee29-4445-8260-1f3431e06587","{""participantId"":""B8F7ADC52A4745C4BBB2A5B5194085A1"",""assignmentId"":""68de2c52-9cd3-4795-abdc-6c2ca3228340"",""projectId"":""e622c465-ee29-4445-8260-1f3431e06587""}","https://test12345.live/?participantId=B8F7ADC52A4745C4BBB2A5B5194085A1&assignmentId=68de2c52-9cd3-4795-abdc-6c2ca3228340&projectId=e622c465-ee29-4445-8260-1f3431e06587","","null","<div style=""display: flex; justify-content: center; align-items: center;"">
                    <img src=""images/semantic/semantic_series_2/semantic_series_2_b.jpg"" style=""width: 300px; height: 300px;"" />
                  </div>","null","",""
"","","","","","html-keyboard-response","64","767770","0.0-47.0-2.0","B8F7ADC52A4745C4BBB2A5B5194085A1","B8F7ADC52A4745C4BBB2A5B5194085A1","68de2c52-9cd3-4795-abdc-6c2ca3228340","e622c465-ee29-4445-8260-1f3431e06587","{""participantId"":""B8F7ADC52A4745C4BBB2A5B5194085A1"",""assignmentId"":""68de2c52-9cd3-4795-abdc-6c2ca3228340"",""projectId"":""e622c465-ee29-4445-8260-1f3431e06587""}","https://test12345.live/?participantId=B8F7ADC52A4745C4BBB2A5B5194085A1&assignmentId=68de2c52-9cd3-4795-abdc-6c2ca3228340&projectId=e622c465-ee29-4445-8260-1f3431e06587","","null","<div style=""display: flex; justify-content: center; align-items: center;"">
                    <img src=""images/semantic/semantic_series_2/semantic_series_2_c.jpg"" style=""width: 300px; height: 300px;"" />
                  </div>","null","",""
"","","","","","html-keyboard-response","65","770774","0.0-47.0-3.0","B8F7ADC52A4745C4BBB2A5B5194085A1","B8F7ADC52A4745C4BBB2A5B5194085A1","68de2c52-9cd3-4795-abdc-6c2ca3228340","e622c465-ee29-4445-8260-1f3431e06587","{""participantId"":""B8F7ADC52A4745C4BBB2A5B5194085A1"",""assignmentId"":""68de2c52-9cd3-4795-abdc-6c2ca3228340"",""projectId"":""e622c465-ee29-4445-8260-1f3431e06587""}","https://test12345.live/?participantId=B8F7ADC52A4745C4BBB2A5B5194085A1&assignmentId=68de2c52-9cd3-4795-abdc-6c2ca3228340&projectId=e622c465-ee29-4445-8260-1f3431e06587","","null","<div style=""display: flex; justify-content: center; align-items: center;"">
                    <img src=""images/semantic/semantic_series_2/semantic_series_2_d.jpg"" style=""width: 300px; height: 300px;"" />
                  </div>","null","",""
"","","","","","html-button-response","66","772763","0.0-48.0","B8F7ADC52A4745C4BBB2A5B5194085A1","B8F7ADC52A4745C4BBB2A5B5194085A1","68de2c52-9cd3-4795-abdc-6c2ca3228340","e622c465-ee29-4445-8260-1f3431e06587","{""participantId"":""B8F7ADC52A4745C4BBB2A5B5194085A1"",""assignmentId"":""68de2c52-9cd3-4795-abdc-6c2ca3228340"",""projectId"":""e622c465-ee29-4445-8260-1f3431e06587""}","https://test12345.live/?participantId=B8F7ADC52A4745C4BBB2A5B5194085A1&assignmentId=68de2c52-9cd3-4795-abdc-6c2ca3228340&projectId=e622c465-ee29-4445-8260-1f3431e06587","","1986","Was there a person in the picture?","0","",""
"","","","","","survey-likert","67","774730","0.0-49.0","B8F7ADC52A4745C4BBB2A5B5194085A1","B8F7ADC52A4745C4BBB2A5B5194085A1","68de2c52-9cd3-4795-abdc-6c2ca3228340","e622c465-ee29-4445-8260-1f3431e06587","{""participantId"":""B8F7ADC52A4745C4BBB2A5B5194085A1"",""assignmentId"":""68de2c52-9cd3-4795-abdc-6c2ca3228340"",""projectId"":""e622c465-ee29-4445-8260-1f3431e06587""}","https://test12345.live/?participantId=B8F7ADC52A4745C4BBB2A5B5194085A1&assignmentId=68de2c52-9cd3-4795-abdc-6c2ca3228340&projectId=e622c465-ee29-4445-8260-1f3431e06587","","1954","","{""Q0"":1}","","[0]"
"","","","","","html-button-response","68","775769","0.0-50.0","B8F7ADC52A4745C4BBB2A5B5194085A1","B8F7ADC52A4745C4BBB2A5B5194085A1","68de2c52-9cd3-4795-abdc-6c2ca3228340","e622c465-ee29-4445-8260-1f3431e06587","{""participantId"":""B8F7ADC52A4745C4BBB2A5B5194085A1"",""assignmentId"":""68de2c52-9cd3-4795-abdc-6c2ca3228340"",""projectId"":""e622c465-ee29-4445-8260-1f3431e06587""}","https://test12345.live/?participantId=B8F7ADC52A4745C4BBB2A5B5194085A1&assignmentId=68de2c52-9cd3-4795-abdc-6c2ca3228340&projectId=e622c465-ee29-4445-8260-1f3431e06587","","1033","
    <div style=""display: flex; justify-content: center; align-items: center;"">
      <img src=""images/blue_deck_1.png"" style=""width: 300px; height: 300px; margin-right: 10px;"" />
      <img src=""images/red_deck_2.png"" style=""width: 300px; height: 300px;"" />
    </div>","0","0",""
"","","","","","html-keyboard-response","69","778772","0.0-51.0-0.0","B8F7ADC52A4745C4BBB2A5B5194085A1","B8F7ADC52A4745C4BBB2A5B5194085A1","68de2c52-9cd3-4795-abdc-6c2ca3228340","e622c465-ee29-4445-8260-1f3431e06587","{""participantId"":""B8F7ADC52A4745C4BBB2A5B5194085A1"",""assignmentId"":""68de2c52-9cd3-4795-abdc-6c2ca3228340"",""projectId"":""e622c465-ee29-4445-8260-1f3431e06587""}","https://test12345.live/?participantId=B8F7ADC52A4745C4BBB2A5B5194085A1&assignmentId=68de2c52-9cd3-4795-abdc-6c2ca3228340&projectId=e622c465-ee29-4445-8260-1f3431e06587","","null","<div style=""display: flex; justify-content: center; align-items: center;"">
                    <img src=""images/causal/causal_series_3/causal_series_3_a.jpg"" style=""width: 300px; height: 300px;"" />
                  </div>","null","",""
"","","","","","html-keyboard-response","70","781775","0.0-51.0-1.0","B8F7ADC52A4745C4BBB2A5B5194085A1","B8F7ADC52A4745C4BBB2A5B5194085A1","68de2c52-9cd3-4795-abdc-6c2ca3228340","e622c465-ee29-4445-8260-1f3431e06587","{""participantId"":""B8F7ADC52A4745C4BBB2A5B5194085A1"",""assignmentId"":""68de2c52-9cd3-4795-abdc-6c2ca3228340"",""projectId"":""e622c465-ee29-4445-8260-1f3431e06587""}","https://test12345.live/?participantId=B8F7ADC52A4745C4BBB2A5B5194085A1&assignmentId=68de2c52-9cd3-4795-abdc-6c2ca3228340&projectId=e622c465-ee29-4445-8260-1f3431e06587","","null","<div style=""display: flex; justify-content: center; align-items: center;"">
                    <img src=""images/causal/causal_series_3/causal_series_3_b.jpg"" style=""width: 300px; height: 300px;"" />
                  </div>","null","",""
"","","","","","html-keyboard-response","71","784777","0.0-51.0-2.0","B8F7ADC52A4745C4BBB2A5B5194085A1","B8F7ADC52A4745C4BBB2A5B5194085A1","68de2c52-9cd3-4795-abdc-6c2ca3228340","e622c465-ee29-4445-8260-1f3431e06587","{""participantId"":""B8F7ADC52A4745C4BBB2A5B5194085A1"",""assignmentId"":""68de2c52-9cd3-4795-abdc-6c2ca3228340"",""projectId"":""e622c465-ee29-4445-8260-1f3431e06587""}","https://test12345.live/?participantId=B8F7ADC52A4745C4BBB2A5B5194085A1&assignmentId=68de2c52-9cd3-4795-abdc-6c2ca3228340&projectId=e622c465-ee29-4445-8260-1f3431e06587","","null","<div style=""display: flex; justify-content: center; align-items: center;"">
                    <img src=""images/causal/causal_series_3/causal_series_3_c.jpg"" style=""width: 300px; height: 300px;"" />
                  </div>","null","",""
"","","","","","html-keyboard-response","72","787781","0.0-51.0-3.0","B8F7ADC52A4745C4BBB2A5B5194085A1","B8F7ADC52A4745C4BBB2A5B5194085A1","68de2c52-9cd3-4795-abdc-6c2ca3228340","e622c465-ee29-4445-8260-1f3431e06587","{""participantId"":""B8F7ADC52A4745C4BBB2A5B5194085A1"",""assignmentId"":""68de2c52-9cd3-4795-abdc-6c2ca3228340"",""projectId"":""e622c465-ee29-4445-8260-1f3431e06587""}","https://test12345.live/?participantId=B8F7ADC52A4745C4BBB2A5B5194085A1&assignmentId=68de2c52-9cd3-4795-abdc-6c2ca3228340&projectId=e622c465-ee29-4445-8260-1f3431e06587","","null","<div style=""display: flex; justify-content: center; align-items: center;"">
                    <img src=""images/causal/causal_series_3/causal_series_3_d.jpg"" style=""width: 300px; height: 300px;"" />
                  </div>","null","",""
"","","","","","html-button-response","73","789020","0.0-53.0","B8F7ADC52A4745C4BBB2A5B5194085A1","B8F7ADC52A4745C4BBB2A5B5194085A1","68de2c52-9cd3-4795-abdc-6c2ca3228340","e622c465-ee29-4445-8260-1f3431e06587","{""participantId"":""B8F7ADC52A4745C4BBB2A5B5194085A1"",""assignmentId"":""68de2c52-9cd3-4795-abdc-6c2ca3228340"",""projectId"":""e622c465-ee29-4445-8260-1f3431e06587""}","https://test12345.live/?participantId=B8F7ADC52A4745C4BBB2A5B5194085A1&assignmentId=68de2c52-9cd3-4795-abdc-6c2ca3228340&projectId=e622c465-ee29-4445-8260-1f3431e06587","","1233","Was there a person in the picture?","0","",""
"","","","","","survey-likert","74","790674","0.0-54.0","B8F7ADC52A4745C4BBB2A5B5194085A1","B8F7ADC52A4745C4BBB2A5B5194085A1","68de2c52-9cd3-4795-abdc-6c2ca3228340","e622c465-ee29-4445-8260-1f3431e06587","{""participantId"":""B8F7ADC52A4745C4BBB2A5B5194085A1"",""assignmentId"":""68de2c52-9cd3-4795-abdc-6c2ca3228340"",""projectId"":""e622c465-ee29-4445-8260-1f3431e06587""}","https://test12345.live/?participantId=B8F7ADC52A4745C4BBB2A5B5194085A1&assignmentId=68de2c52-9cd3-4795-abdc-6c2ca3228340&projectId=e622c465-ee29-4445-8260-1f3431e06587","","1649","","{""Q0"":1}","","[0]"
"","","","","","html-button-response","75","792088","0.0-55.0","B8F7ADC52A4745C4BBB2A5B5194085A1","B8F7ADC52A4745C4BBB2A5B5194085A1","68de2c52-9cd3-4795-abdc-6c2ca3228340","e622c465-ee29-4445-8260-1f3431e06587","{""participantId"":""B8F7ADC52A4745C4BBB2A5B5194085A1"",""assignmentId"":""68de2c52-9cd3-4795-abdc-6c2ca3228340"",""projectId"":""e622c465-ee29-4445-8260-1f3431e06587""}","https://test12345.live/?participantId=B8F7ADC52A4745C4BBB2A5B5194085A1&assignmentId=68de2c52-9cd3-4795-abdc-6c2ca3228340&projectId=e622c465-ee29-4445-8260-1f3431e06587","","1403","
    <div style=""display: flex; justify-content: center; align-items: center;"">
      <img src=""images/blue_deck_1.png"" style=""width: 300px; height: 300px; margin-right: 10px;"" />
      <img src=""images/red_deck_2.png"" style=""width: 300px; height: 300px;"" />
    </div>","0","0",""
"","","","","","html-keyboard-response","76","795095","0.0-56.0-0.0","B8F7ADC52A4745C4BBB2A5B5194085A1","B8F7ADC52A4745C4BBB2A5B5194085A1","68de2c52-9cd3-4795-abdc-6c2ca3228340","e622c465-ee29-4445-8260-1f3431e06587","{""participantId"":""B8F7ADC52A4745C4BBB2A5B5194085A1"",""assignmentId"":""68de2c52-9cd3-4795-abdc-6c2ca3228340"",""projectId"":""e622c465-ee29-4445-8260-1f3431e06587""}","https://test12345.live/?participantId=B8F7ADC52A4745C4BBB2A5B5194085A1&assignmentId=68de2c52-9cd3-4795-abdc-6c2ca3228340&projectId=e622c465-ee29-4445-8260-1f3431e06587","","null","<div style=""display: flex; justify-content: center; align-items: center;"">
                    <img src=""images/causal/causal_series_16/causal_series_16_a.jpg"" style=""width: 300px; height: 300px;"" />
                  </div>","null","",""
"","","","","","html-keyboard-response","77","798099","0.0-56.0-1.0","B8F7ADC52A4745C4BBB2A5B5194085A1","B8F7ADC52A4745C4BBB2A5B5194085A1","68de2c52-9cd3-4795-abdc-6c2ca3228340","e622c465-ee29-4445-8260-1f3431e06587","{""participantId"":""B8F7ADC52A4745C4BBB2A5B5194085A1"",""assignmentId"":""68de2c52-9cd3-4795-abdc-6c2ca3228340"",""projectId"":""e622c465-ee29-4445-8260-1f3431e06587""}","https://test12345.live/?participantId=B8F7ADC52A4745C4BBB2A5B5194085A1&assignmentId=68de2c52-9cd3-4795-abdc-6c2ca3228340&projectId=e622c465-ee29-4445-8260-1f3431e06587","","null","<div style=""display: flex; justify-content: center; align-items: center;"">
                    <img src=""images/causal/causal_series_16/causal_series_16_b.jpg"" style=""width: 300px; height: 300px;"" />
                  </div>","null","",""
"","","","","","html-keyboard-response","78","801103","0.0-56.0-2.0","B8F7ADC52A4745C4BBB2A5B5194085A1","B8F7ADC52A4745C4BBB2A5B5194085A1","68de2c52-9cd3-4795-abdc-6c2ca3228340","e622c465-ee29-4445-8260-1f3431e06587","{""participantId"":""B8F7ADC52A4745C4BBB2A5B5194085A1"",""assignmentId"":""68de2c52-9cd3-4795-abdc-6c2ca3228340"",""projectId"":""e622c465-ee29-4445-8260-1f3431e06587""}","https://test12345.live/?participantId=B8F7ADC52A4745C4BBB2A5B5194085A1&assignmentId=68de2c52-9cd3-4795-abdc-6c2ca3228340&projectId=e622c465-ee29-4445-8260-1f3431e06587","","null","<div style=""display: flex; justify-content: center; align-items: center;"">
                    <img src=""images/causal/causal_series_16/causal_series_16_c.jpg"" style=""width: 300px; height: 300px;"" />
                  </div>","null","",""
"","","","","","html-keyboard-response","79","804108","0.0-56.0-3.0","B8F7ADC52A4745C4BBB2A5B5194085A1","B8F7ADC52A4745C4BBB2A5B5194085A1","68de2c52-9cd3-4795-abdc-6c2ca3228340","e622c465-ee29-4445-8260-1f3431e06587","{""participantId"":""B8F7ADC52A4745C4BBB2A5B5194085A1"",""assignmentId"":""68de2c52-9cd3-4795-abdc-6c2ca3228340"",""projectId"":""e622c465-ee29-4445-8260-1f3431e06587""}","https://test12345.live/?participantId=B8F7ADC52A4745C4BBB2A5B5194085A1&assignmentId=68de2c52-9cd3-4795-abdc-6c2ca3228340&projectId=e622c465-ee29-4445-8260-1f3431e06587","","null","<div style=""display: flex; justify-content: center; align-items: center;"">
                    <img src=""images/causal/causal_series_16/causal_series_16_d.jpg"" style=""width: 300px; height: 300px;"" />
                  </div>","null","",""
"","","","","","html-button-response","80","805219","0.0-58.0","B8F7ADC52A4745C4BBB2A5B5194085A1","B8F7ADC52A4745C4BBB2A5B5194085A1","68de2c52-9cd3-4795-abdc-6c2ca3228340","e622c465-ee29-4445-8260-1f3431e06587","{""participantId"":""B8F7ADC52A4745C4BBB2A5B5194085A1"",""assignmentId"":""68de2c52-9cd3-4795-abdc-6c2ca3228340"",""projectId"":""e622c465-ee29-4445-8260-1f3431e06587""}","https://test12345.live/?participantId=B8F7ADC52A4745C4BBB2A5B5194085A1&assignmentId=68de2c52-9cd3-4795-abdc-6c2ca3228340&projectId=e622c465-ee29-4445-8260-1f3431e06587","","1103","Was there a person in the picture?","0","",""
"","","","","","survey-likert","81","807623","0.0-59.0","B8F7ADC52A4745C4BBB2A5B5194085A1","B8F7ADC52A4745C4BBB2A5B5194085A1","68de2c52-9cd3-4795-abdc-6c2ca3228340","e622c465-ee29-4445-8260-1f3431e06587","{""participantId"":""B8F7ADC52A4745C4BBB2A5B5194085A1"",""assignmentId"":""68de2c52-9cd3-4795-abdc-6c2ca3228340"",""projectId"":""e622c465-ee29-4445-8260-1f3431e06587""}","https://test12345.live/?participantId=B8F7ADC52A4745C4BBB2A5B5194085A1&assignmentId=68de2c52-9cd3-4795-abdc-6c2ca3228340&projectId=e622c465-ee29-4445-8260-1f3431e06587","","2394","","{""Q0"":0}","","[0]"
"","","","","","html-button-response","82","808706","0.0-60.0","B8F7ADC52A4745C4BBB2A5B5194085A1","B8F7ADC52A4745C4BBB2A5B5194085A1","68de2c52-9cd3-4795-abdc-6c2ca3228340","e622c465-ee29-4445-8260-1f3431e06587","{""participantId"":""B8F7ADC52A4745C4BBB2A5B5194085A1"",""assignmentId"":""68de2c52-9cd3-4795-abdc-6c2ca3228340"",""projectId"":""e622c465-ee29-4445-8260-1f3431e06587""}","https://test12345.live/?participantId=B8F7ADC52A4745C4BBB2A5B5194085A1&assignmentId=68de2c52-9cd3-4795-abdc-6c2ca3228340&projectId=e622c465-ee29-4445-8260-1f3431e06587","","1074","
    <div style=""display: flex; justify-content: center; align-items: center;"">
      <img src=""images/blue_deck_1.png"" style=""width: 300px; height: 300px; margin-right: 10px;"" />
      <img src=""images/red_deck_2.png"" style=""width: 300px; height: 300px;"" />
    </div>","0","0",""
"","","","","","html-keyboard-response","83","811715","0.0-61.0-0.0","B8F7ADC52A4745C4BBB2A5B5194085A1","B8F7ADC52A4745C4BBB2A5B5194085A1","68de2c52-9cd3-4795-abdc-6c2ca3228340","e622c465-ee29-4445-8260-1f3431e06587","{""participantId"":""B8F7ADC52A4745C4BBB2A5B5194085A1"",""assignmentId"":""68de2c52-9cd3-4795-abdc-6c2ca3228340"",""projectId"":""e622c465-ee29-4445-8260-1f3431e06587""}","https://test12345.live/?participantId=B8F7ADC52A4745C4BBB2A5B5194085A1&assignmentId=68de2c52-9cd3-4795-abdc-6c2ca3228340&projectId=e622c465-ee29-4445-8260-1f3431e06587","","null","<div style=""display: flex; justify-content: center; align-items: center;"">
                    <img src=""images/causal/causal_series_17/causal_series_17_a.jpg"" style=""width: 300px; height: 300px;"" />
                  </div>","null","",""
"","","","","","html-keyboard-response","84","814722","0.0-61.0-1.0","B8F7ADC52A4745C4BBB2A5B5194085A1","B8F7ADC52A4745C4BBB2A5B5194085A1","68de2c52-9cd3-4795-abdc-6c2ca3228340","e622c465-ee29-4445-8260-1f3431e06587","{""participantId"":""B8F7ADC52A4745C4BBB2A5B5194085A1"",""assignmentId"":""68de2c52-9cd3-4795-abdc-6c2ca3228340"",""projectId"":""e622c465-ee29-4445-8260-1f3431e06587""}","https://test12345.live/?participantId=B8F7ADC52A4745C4BBB2A5B5194085A1&assignmentId=68de2c52-9cd3-4795-abdc-6c2ca3228340&projectId=e622c465-ee29-4445-8260-1f3431e06587","","null","<div style=""display: flex; justify-content: center; align-items: center;"">
                    <img src=""images/causal/causal_series_17/causal_series_17_b.jpg"" style=""width: 300px; height: 300px;"" />
                  </div>","null","",""
"","","","","","html-keyboard-response","85","817730","0.0-61.0-2.0","B8F7ADC52A4745C4BBB2A5B5194085A1","B8F7ADC52A4745C4BBB2A5B5194085A1","68de2c52-9cd3-4795-abdc-6c2ca3228340","e622c465-ee29-4445-8260-1f3431e06587","{""participantId"":""B8F7ADC52A4745C4BBB2A5B5194085A1"",""assignmentId"":""68de2c52-9cd3-4795-abdc-6c2ca3228340"",""projectId"":""e622c465-ee29-4445-8260-1f3431e06587""}","https://test12345.live/?participantId=B8F7ADC52A4745C4BBB2A5B5194085A1&assignmentId=68de2c52-9cd3-4795-abdc-6c2ca3228340&projectId=e622c465-ee29-4445-8260-1f3431e06587","","null","<div style=""display: flex; justify-content: center; align-items: center;"">
                    <img src=""images/causal/causal_series_17/causal_series_17_c.jpg"" style=""width: 300px; height: 300px;"" />
                  </div>","null","",""
"","","","","","html-keyboard-response","86","820742","0.0-61.0-3.0","B8F7ADC52A4745C4BBB2A5B5194085A1","B8F7ADC52A4745C4BBB2A5B5194085A1","68de2c52-9cd3-4795-abdc-6c2ca3228340","e622c465-ee29-4445-8260-1f3431e06587","{""participantId"":""B8F7ADC52A4745C4BBB2A5B5194085A1"",""assignmentId"":""68de2c52-9cd3-4795-abdc-6c2ca3228340"",""projectId"":""e622c465-ee29-4445-8260-1f3431e06587""}","https://test12345.live/?participantId=B8F7ADC52A4745C4BBB2A5B5194085A1&assignmentId=68de2c52-9cd3-4795-abdc-6c2ca3228340&projectId=e622c465-ee29-4445-8260-1f3431e06587","","null","<div style=""display: flex; justify-content: center; align-items: center;"">
                    <img src=""images/causal/causal_series_17/causal_series_17_d.jpg"" style=""width: 300px; height: 300px;"" />
                  </div>","null","",""
"","","","","","html-button-response","87","822405","0.0-63.0","B8F7ADC52A4745C4BBB2A5B5194085A1","B8F7ADC52A4745C4BBB2A5B5194085A1","68de2c52-9cd3-4795-abdc-6c2ca3228340","e622c465-ee29-4445-8260-1f3431e06587","{""participantId"":""B8F7ADC52A4745C4BBB2A5B5194085A1"",""assignmentId"":""68de2c52-9cd3-4795-abdc-6c2ca3228340"",""projectId"":""e622c465-ee29-4445-8260-1f3431e06587""}","https://test12345.live/?participantId=B8F7ADC52A4745C4BBB2A5B5194085A1&assignmentId=68de2c52-9cd3-4795-abdc-6c2ca3228340&projectId=e622c465-ee29-4445-8260-1f3431e06587","","1652","Was there a person in the picture?","0","",""
"","","","","","survey-likert","88","824046","0.0-64.0","B8F7ADC52A4745C4BBB2A5B5194085A1","B8F7ADC52A4745C4BBB2A5B5194085A1","68de2c52-9cd3-4795-abdc-6c2ca3228340","e622c465-ee29-4445-8260-1f3431e06587","{""participantId"":""B8F7ADC52A4745C4BBB2A5B5194085A1"",""assignmentId"":""68de2c52-9cd3-4795-abdc-6c2ca3228340"",""projectId"":""e622c465-ee29-4445-8260-1f3431e06587""}","https://test12345.live/?participantId=B8F7ADC52A4745C4BBB2A5B5194085A1&assignmentId=68de2c52-9cd3-4795-abdc-6c2ca3228340&projectId=e622c465-ee29-4445-8260-1f3431e06587","","1634","","{""Q0"":0}","","[0]"
"","","","","","html-button-response","89","824928","0.0-65.0","B8F7ADC52A4745C4BBB2A5B5194085A1","B8F7ADC52A4745C4BBB2A5B5194085A1","68de2c52-9cd3-4795-abdc-6c2ca3228340","e622c465-ee29-4445-8260-1f3431e06587","{""participantId"":""B8F7ADC52A4745C4BBB2A5B5194085A1"",""assignmentId"":""68de2c52-9cd3-4795-abdc-6c2ca3228340"",""projectId"":""e622c465-ee29-4445-8260-1f3431e06587""}","https://test12345.live/?participantId=B8F7ADC52A4745C4BBB2A5B5194085A1&assignmentId=68de2c52-9cd3-4795-abdc-6c2ca3228340&projectId=e622c465-ee29-4445-8260-1f3431e06587","","873","
    <div style=""display: flex; justify-content: center; align-items: center;"">
      <img src=""images/blue_deck_1.png"" style=""width: 300px; height: 300px; margin-right: 10px;"" />
      <img src=""images/red_deck_2.png"" style=""width: 300px; height: 300px;"" />
    </div>","0","0",""
"","","","","","html-keyboard-response","90","827936","0.0-66.0-0.0","B8F7ADC52A4745C4BBB2A5B5194085A1","B8F7ADC52A4745C4BBB2A5B5194085A1","68de2c52-9cd3-4795-abdc-6c2ca3228340","e622c465-ee29-4445-8260-1f3431e06587","{""participantId"":""B8F7ADC52A4745C4BBB2A5B5194085A1"",""assignmentId"":""68de2c52-9cd3-4795-abdc-6c2ca3228340"",""projectId"":""e622c465-ee29-4445-8260-1f3431e06587""}","https://test12345.live/?participantId=B8F7ADC52A4745C4BBB2A5B5194085A1&assignmentId=68de2c52-9cd3-4795-abdc-6c2ca3228340&projectId=e622c465-ee29-4445-8260-1f3431e06587","","null","<div style=""display: flex; justify-content: center; align-items: center;"">
                    <img src=""images/causal/causal_series_2/causal_series_2_a.jpg"" style=""width: 300px; height: 300px;"" />
                  </div>","null","",""
"","","","","","html-keyboard-response","91","830942","0.0-66.0-1.0","B8F7ADC52A4745C4BBB2A5B5194085A1","B8F7ADC52A4745C4BBB2A5B5194085A1","68de2c52-9cd3-4795-abdc-6c2ca3228340","e622c465-ee29-4445-8260-1f3431e06587","{""participantId"":""B8F7ADC52A4745C4BBB2A5B5194085A1"",""assignmentId"":""68de2c52-9cd3-4795-abdc-6c2ca3228340"",""projectId"":""e622c465-ee29-4445-8260-1f3431e06587""}","https://test12345.live/?participantId=B8F7ADC52A4745C4BBB2A5B5194085A1&assignmentId=68de2c52-9cd3-4795-abdc-6c2ca3228340&projectId=e622c465-ee29-4445-8260-1f3431e06587","","null","<div style=""display: flex; justify-content: center; align-items: center;"">
                    <img src=""images/causal/causal_series_2/causal_series_2_b.jpg"" style=""width: 300px; height: 300px;"" />
                  </div>","null","",""
"","","","","","html-keyboard-response","92","833951","0.0-66.0-2.0","B8F7ADC52A4745C4BBB2A5B5194085A1","B8F7ADC52A4745C4BBB2A5B5194085A1","68de2c52-9cd3-4795-abdc-6c2ca3228340","e622c465-ee29-4445-8260-1f3431e06587","{""participantId"":""B8F7ADC52A4745C4BBB2A5B5194085A1"",""assignmentId"":""68de2c52-9cd3-4795-abdc-6c2ca3228340"",""projectId"":""e622c465-ee29-4445-8260-1f3431e06587""}","https://test12345.live/?participantId=B8F7ADC52A4745C4BBB2A5B5194085A1&assignmentId=68de2c52-9cd3-4795-abdc-6c2ca3228340&projectId=e622c465-ee29-4445-8260-1f3431e06587","","null","<div style=""display: flex; justify-content: center; align-items: center;"">
                    <img src=""images/causal/causal_series_2/causal_series_2_c.jpg"" style=""width: 300px; height: 300px;"" />
                  </div>","null","",""
"","","","","","html-keyboard-response","93","836960","0.0-66.0-3.0","B8F7ADC52A4745C4BBB2A5B5194085A1","B8F7ADC52A4745C4BBB2A5B5194085A1","68de2c52-9cd3-4795-abdc-6c2ca3228340","e622c465-ee29-4445-8260-1f3431e06587","{""participantId"":""B8F7ADC52A4745C4BBB2A5B5194085A1"",""assignmentId"":""68de2c52-9cd3-4795-abdc-6c2ca3228340"",""projectId"":""e622c465-ee29-4445-8260-1f3431e06587""}","https://test12345.live/?participantId=B8F7ADC52A4745C4BBB2A5B5194085A1&assignmentId=68de2c52-9cd3-4795-abdc-6c2ca3228340&projectId=e622c465-ee29-4445-8260-1f3431e06587","","null","<div style=""display: flex; justify-content: center; align-items: center;"">
                    <img src=""images/causal/causal_series_2/causal_series_2_d.jpg"" style=""width: 300px; height: 300px;"" />
                  </div>","null","",""
"","","","","","html-button-response","94","838257","0.0-68.0","B8F7ADC52A4745C4BBB2A5B5194085A1","B8F7ADC52A4745C4BBB2A5B5194085A1","68de2c52-9cd3-4795-abdc-6c2ca3228340","e622c465-ee29-4445-8260-1f3431e06587","{""participantId"":""B8F7ADC52A4745C4BBB2A5B5194085A1"",""assignmentId"":""68de2c52-9cd3-4795-abdc-6c2ca3228340"",""projectId"":""e622c465-ee29-4445-8260-1f3431e06587""}","https://test12345.live/?participantId=B8F7ADC52A4745C4BBB2A5B5194085A1&assignmentId=68de2c52-9cd3-4795-abdc-6c2ca3228340&projectId=e622c465-ee29-4445-8260-1f3431e06587","","1287","Was there a person in the picture?","0","",""
"","","","","","survey-likert","95","840045","0.0-69.0","B8F7ADC52A4745C4BBB2A5B5194085A1","B8F7ADC52A4745C4BBB2A5B5194085A1","68de2c52-9cd3-4795-abdc-6c2ca3228340","e622c465-ee29-4445-8260-1f3431e06587","{""participantId"":""B8F7ADC52A4745C4BBB2A5B5194085A1"",""assignmentId"":""68de2c52-9cd3-4795-abdc-6c2ca3228340"",""projectId"":""e622c465-ee29-4445-8260-1f3431e06587""}","https://test12345.live/?participantId=B8F7ADC52A4745C4BBB2A5B5194085A1&assignmentId=68de2c52-9cd3-4795-abdc-6c2ca3228340&projectId=e622c465-ee29-4445-8260-1f3431e06587","","1781","","{""Q0"":0}","","[0]"
"","","","","","html-button-response","96","841066","0.0-70.0","B8F7ADC52A4745C4BBB2A5B5194085A1","B8F7ADC52A4745C4BBB2A5B5194085A1","68de2c52-9cd3-4795-abdc-6c2ca3228340","e622c465-ee29-4445-8260-1f3431e06587","{""participantId"":""B8F7ADC52A4745C4BBB2A5B5194085A1"",""assignmentId"":""68de2c52-9cd3-4795-abdc-6c2ca3228340"",""projectId"":""e622c465-ee29-4445-8260-1f3431e06587""}","https://test12345.live/?participantId=B8F7ADC52A4745C4BBB2A5B5194085A1&assignmentId=68de2c52-9cd3-4795-abdc-6c2ca3228340&projectId=e622c465-ee29-4445-8260-1f3431e06587","","1009","
    <div style=""display: flex; justify-content: center; align-items: center;"">
      <img src=""images/blue_deck_1.png"" style=""width: 300px; height: 300px; margin-right: 10px;"" />
      <img src=""images/red_deck_2.png"" style=""width: 300px; height: 300px;"" />
    </div>","1","1",""
"","","","","","html-keyboard-response","97","844074","0.0-72.0-0.0","B8F7ADC52A4745C4BBB2A5B5194085A1","B8F7ADC52A4745C4BBB2A5B5194085A1","68de2c52-9cd3-4795-abdc-6c2ca3228340","e622c465-ee29-4445-8260-1f3431e06587","{""participantId"":""B8F7ADC52A4745C4BBB2A5B5194085A1"",""assignmentId"":""68de2c52-9cd3-4795-abdc-6c2ca3228340"",""projectId"":""e622c465-ee29-4445-8260-1f3431e06587""}","https://test12345.live/?participantId=B8F7ADC52A4745C4BBB2A5B5194085A1&assignmentId=68de2c52-9cd3-4795-abdc-6c2ca3228340&projectId=e622c465-ee29-4445-8260-1f3431e06587","","null","<div style=""display: flex; justify-content: center; align-items: center;"">
                    <img src=""images/semantic/semantic_series_14/semantic_series_14_a.jpg"" style=""width: 300px; height: 300px;"" />
                  </div>","null","",""
"","","","","","html-keyboard-response","98","847080","0.0-72.0-1.0","B8F7ADC52A4745C4BBB2A5B5194085A1","B8F7ADC52A4745C4BBB2A5B5194085A1","68de2c52-9cd3-4795-abdc-6c2ca3228340","e622c465-ee29-4445-8260-1f3431e06587","{""participantId"":""B8F7ADC52A4745C4BBB2A5B5194085A1"",""assignmentId"":""68de2c52-9cd3-4795-abdc-6c2ca3228340"",""projectId"":""e622c465-ee29-4445-8260-1f3431e06587""}","https://test12345.live/?participantId=B8F7ADC52A4745C4BBB2A5B5194085A1&assignmentId=68de2c52-9cd3-4795-abdc-6c2ca3228340&projectId=e622c465-ee29-4445-8260-1f3431e06587","","null","<div style=""display: flex; justify-content: center; align-items: center;"">
                    <img src=""images/semantic/semantic_series_14/semantic_series_14_b.jpg"" style=""width: 300px; height: 300px;"" />
                  </div>","null","",""
"","","","","","html-keyboard-response","99","850089","0.0-72.0-2.0","B8F7ADC52A4745C4BBB2A5B5194085A1","B8F7ADC52A4745C4BBB2A5B5194085A1","68de2c52-9cd3-4795-abdc-6c2ca3228340","e622c465-ee29-4445-8260-1f3431e06587","{""participantId"":""B8F7ADC52A4745C4BBB2A5B5194085A1"",""assignmentId"":""68de2c52-9cd3-4795-abdc-6c2ca3228340"",""projectId"":""e622c465-ee29-4445-8260-1f3431e06587""}","https://test12345.live/?participantId=B8F7ADC52A4745C4BBB2A5B5194085A1&assignmentId=68de2c52-9cd3-4795-abdc-6c2ca3228340&projectId=e622c465-ee29-4445-8260-1f3431e06587","","null","<div style=""display: flex; justify-content: center; align-items: center;"">
                    <img src=""images/semantic/semantic_series_14/semantic_series_14_c.jpg"" style=""width: 300px; height: 300px;"" />
                  </div>","null","",""
"","","","","","html-keyboard-response","100","853094","0.0-72.0-3.0","B8F7ADC52A4745C4BBB2A5B5194085A1","B8F7ADC52A4745C4BBB2A5B5194085A1","68de2c52-9cd3-4795-abdc-6c2ca3228340","e622c465-ee29-4445-8260-1f3431e06587","{""participantId"":""B8F7ADC52A4745C4BBB2A5B5194085A1"",""assignmentId"":""68de2c52-9cd3-4795-abdc-6c2ca3228340"",""projectId"":""e622c465-ee29-4445-8260-1f3431e06587""}","https://test12345.live/?participantId=B8F7ADC52A4745C4BBB2A5B5194085A1&assignmentId=68de2c52-9cd3-4795-abdc-6c2ca3228340&projectId=e622c465-ee29-4445-8260-1f3431e06587","","null","<div style=""display: flex; justify-content: center; align-items: center;"">
                    <img src=""images/semantic/semantic_series_14/semantic_series_14_d.jpg"" style=""width: 300px; height: 300px;"" />
                  </div>","null","",""
"","","","","","html-button-response","101","854326","0.0-73.0","B8F7ADC52A4745C4BBB2A5B5194085A1","B8F7ADC52A4745C4BBB2A5B5194085A1","68de2c52-9cd3-4795-abdc-6c2ca3228340","e622c465-ee29-4445-8260-1f3431e06587","{""participantId"":""B8F7ADC52A4745C4BBB2A5B5194085A1"",""assignmentId"":""68de2c52-9cd3-4795-abdc-6c2ca3228340"",""projectId"":""e622c465-ee29-4445-8260-1f3431e06587""}","https://test12345.live/?participantId=B8F7ADC52A4745C4BBB2A5B5194085A1&assignmentId=68de2c52-9cd3-4795-abdc-6c2ca3228340&projectId=e622c465-ee29-4445-8260-1f3431e06587","","1226","Was there a person in the picture?","0","",""
"","","","","","survey-likert","102","856072","0.0-74.0","B8F7ADC52A4745C4BBB2A5B5194085A1","B8F7ADC52A4745C4BBB2A5B5194085A1","68de2c52-9cd3-4795-abdc-6c2ca3228340","e622c465-ee29-4445-8260-1f3431e06587","{""participantId"":""B8F7ADC52A4745C4BBB2A5B5194085A1"",""assignmentId"":""68de2c52-9cd3-4795-abdc-6c2ca3228340"",""projectId"":""e622c465-ee29-4445-8260-1f3431e06587""}","https://test12345.live/?participantId=B8F7ADC52A4745C4BBB2A5B5194085A1&assignmentId=68de2c52-9cd3-4795-abdc-6c2ca3228340&projectId=e622c465-ee29-4445-8260-1f3431e06587","","1740","","{""Q0"":4}","","[0]"
"","","","","","html-button-response","103","857363","0.0-75.0","B8F7ADC52A4745C4BBB2A5B5194085A1","B8F7ADC52A4745C4BBB2A5B5194085A1","68de2c52-9cd3-4795-abdc-6c2ca3228340","e622c465-ee29-4445-8260-1f3431e06587","{""participantId"":""B8F7ADC52A4745C4BBB2A5B5194085A1"",""assignmentId"":""68de2c52-9cd3-4795-abdc-6c2ca3228340"",""projectId"":""e622c465-ee29-4445-8260-1f3431e06587""}","https://test12345.live/?participantId=B8F7ADC52A4745C4BBB2A5B5194085A1&assignmentId=68de2c52-9cd3-4795-abdc-6c2ca3228340&projectId=e622c465-ee29-4445-8260-1f3431e06587","","1282","
    <div style=""display: flex; justify-content: center; align-items: center;"">
      <img src=""images/blue_deck_1.png"" style=""width: 300px; height: 300px; margin-right: 10px;"" />
      <img src=""images/red_deck_2.png"" style=""width: 300px; height: 300px;"" />
    </div>","1","1",""
"","","","","","html-keyboard-response","104","860372","0.0-77.0-0.0","B8F7ADC52A4745C4BBB2A5B5194085A1","B8F7ADC52A4745C4BBB2A5B5194085A1","68de2c52-9cd3-4795-abdc-6c2ca3228340","e622c465-ee29-4445-8260-1f3431e06587","{""participantId"":""B8F7ADC52A4745C4BBB2A5B5194085A1"",""assignmentId"":""68de2c52-9cd3-4795-abdc-6c2ca3228340"",""projectId"":""e622c465-ee29-4445-8260-1f3431e06587""}","https://test12345.live/?participantId=B8F7ADC52A4745C4BBB2A5B5194085A1&assignmentId=68de2c52-9cd3-4795-abdc-6c2ca3228340&projectId=e622c465-ee29-4445-8260-1f3431e06587","","null","<div style=""display: flex; justify-content: center; align-items: center;"">
                    <img src=""images/semantic/semantic_series_3/semantic_series_3_a.jpg"" style=""width: 300px; height: 300px;"" />
                  </div>","null","",""
"","","","","","html-keyboard-response","105","863378","0.0-77.0-1.0","B8F7ADC52A4745C4BBB2A5B5194085A1","B8F7ADC52A4745C4BBB2A5B5194085A1","68de2c52-9cd3-4795-abdc-6c2ca3228340","e622c465-ee29-4445-8260-1f3431e06587","{""participantId"":""B8F7ADC52A4745C4BBB2A5B5194085A1"",""assignmentId"":""68de2c52-9cd3-4795-abdc-6c2ca3228340"",""projectId"":""e622c465-ee29-4445-8260-1f3431e06587""}","https://test12345.live/?participantId=B8F7ADC52A4745C4BBB2A5B5194085A1&assignmentId=68de2c52-9cd3-4795-abdc-6c2ca3228340&projectId=e622c465-ee29-4445-8260-1f3431e06587","","null","<div style=""display: flex; justify-content: center; align-items: center;"">
                    <img src=""images/semantic/semantic_series_3/semantic_series_3_b.jpg"" style=""width: 300px; height: 300px;"" />
                  </div>","null","",""
"","","","","","html-keyboard-response","106","866385","0.0-77.0-2.0","B8F7ADC52A4745C4BBB2A5B5194085A1","B8F7ADC52A4745C4BBB2A5B5194085A1","68de2c52-9cd3-4795-abdc-6c2ca3228340","e622c465-ee29-4445-8260-1f3431e06587","{""participantId"":""B8F7ADC52A4745C4BBB2A5B5194085A1"",""assignmentId"":""68de2c52-9cd3-4795-abdc-6c2ca3228340"",""projectId"":""e622c465-ee29-4445-8260-1f3431e06587""}","https://test12345.live/?participantId=B8F7ADC52A4745C4BBB2A5B5194085A1&assignmentId=68de2c52-9cd3-4795-abdc-6c2ca3228340&projectId=e622c465-ee29-4445-8260-1f3431e06587","","null","<div style=""display: flex; justify-content: center; align-items: center;"">
                    <img src=""images/semantic/semantic_series_3/semantic_series_3_c.jpg"" style=""width: 300px; height: 300px;"" />
                  </div>","null","",""
"","","","","","html-keyboard-response","107","869391","0.0-77.0-3.0","B8F7ADC52A4745C4BBB2A5B5194085A1","B8F7ADC52A4745C4BBB2A5B5194085A1","68de2c52-9cd3-4795-abdc-6c2ca3228340","e622c465-ee29-4445-8260-1f3431e06587","{""participantId"":""B8F7ADC52A4745C4BBB2A5B5194085A1"",""assignmentId"":""68de2c52-9cd3-4795-abdc-6c2ca3228340"",""projectId"":""e622c465-ee29-4445-8260-1f3431e06587""}","https://test12345.live/?participantId=B8F7ADC52A4745C4BBB2A5B5194085A1&assignmentId=68de2c52-9cd3-4795-abdc-6c2ca3228340&projectId=e622c465-ee29-4445-8260-1f3431e06587","","null","<div style=""display: flex; justify-content: center; align-items: center;"">
                    <img src=""images/semantic/semantic_series_3/semantic_series_3_d.jpg"" style=""width: 300px; height: 300px;"" />
                  </div>","null","",""
"","","","","","html-button-response","108","895798","0.0-78.0","B8F7ADC52A4745C4BBB2A5B5194085A1","B8F7ADC52A4745C4BBB2A5B5194085A1","68de2c52-9cd3-4795-abdc-6c2ca3228340","e622c465-ee29-4445-8260-1f3431e06587","{""participantId"":""B8F7ADC52A4745C4BBB2A5B5194085A1"",""assignmentId"":""68de2c52-9cd3-4795-abdc-6c2ca3228340"",""projectId"":""e622c465-ee29-4445-8260-1f3431e06587""}","https://test12345.live/?participantId=B8F7ADC52A4745C4BBB2A5B5194085A1&assignmentId=68de2c52-9cd3-4795-abdc-6c2ca3228340&projectId=e622c465-ee29-4445-8260-1f3431e06587","","26403","Was there a person in the picture?","0","",""
"","","","","","survey-likert","109","897550","0.0-79.0","B8F7ADC52A4745C4BBB2A5B5194085A1","B8F7ADC52A4745C4BBB2A5B5194085A1","68de2c52-9cd3-4795-abdc-6c2ca3228340","e622c465-ee29-4445-8260-1f3431e06587","{""participantId"":""B8F7ADC52A4745C4BBB2A5B5194085A1"",""assignmentId"":""68de2c52-9cd3-4795-abdc-6c2ca3228340"",""projectId"":""e622c465-ee29-4445-8260-1f3431e06587""}","https://test12345.live/?participantId=B8F7ADC52A4745C4BBB2A5B5194085A1&assignmentId=68de2c52-9cd3-4795-abdc-6c2ca3228340&projectId=e622c465-ee29-4445-8260-1f3431e06587","","1744","","{""Q0"":0}","","[0]"
"","","","","","html-button-response","110","898595","0.0-80.0","B8F7ADC52A4745C4BBB2A5B5194085A1","B8F7ADC52A4745C4BBB2A5B5194085A1","68de2c52-9cd3-4795-abdc-6c2ca3228340","e622c465-ee29-4445-8260-1f3431e06587","{""participantId"":""B8F7ADC52A4745C4BBB2A5B5194085A1"",""assignmentId"":""68de2c52-9cd3-4795-abdc-6c2ca3228340"",""projectId"":""e622c465-ee29-4445-8260-1f3431e06587""}","https://test12345.live/?participantId=B8F7ADC52A4745C4BBB2A5B5194085A1&assignmentId=68de2c52-9cd3-4795-abdc-6c2ca3228340&projectId=e622c465-ee29-4445-8260-1f3431e06587","","1037","
    <div style=""display: flex; justify-content: center; align-items: center;"">
      <img src=""images/blue_deck_1.png"" style=""width: 300px; height: 300px; margin-right: 10px;"" />
      <img src=""images/red_deck_2.png"" style=""width: 300px; height: 300px;"" />
    </div>","0","0",""
"","","","","","html-keyboard-response","111","901602","0.0-81.0-0.0","B8F7ADC52A4745C4BBB2A5B5194085A1","B8F7ADC52A4745C4BBB2A5B5194085A1","68de2c52-9cd3-4795-abdc-6c2ca3228340","e622c465-ee29-4445-8260-1f3431e06587","{""participantId"":""B8F7ADC52A4745C4BBB2A5B5194085A1"",""assignmentId"":""68de2c52-9cd3-4795-abdc-6c2ca3228340"",""projectId"":""e622c465-ee29-4445-8260-1f3431e06587""}","https://test12345.live/?participantId=B8F7ADC52A4745C4BBB2A5B5194085A1&assignmentId=68de2c52-9cd3-4795-abdc-6c2ca3228340&projectId=e622c465-ee29-4445-8260-1f3431e06587","","null","<div style=""display: flex; justify-content: center; align-items: center;"">
                    <img src=""images/causal/causal_series_18/causal_series_18_a.jpg"" style=""width: 300px; height: 300px;"" />
                  </div>","null","",""
"","","","","","html-keyboard-response","112","904606","0.0-81.0-1.0","B8F7ADC52A4745C4BBB2A5B5194085A1","B8F7ADC52A4745C4BBB2A5B5194085A1","68de2c52-9cd3-4795-abdc-6c2ca3228340","e622c465-ee29-4445-8260-1f3431e06587","{""participantId"":""B8F7ADC52A4745C4BBB2A5B5194085A1"",""assignmentId"":""68de2c52-9cd3-4795-abdc-6c2ca3228340"",""projectId"":""e622c465-ee29-4445-8260-1f3431e06587""}","https://test12345.live/?participantId=B8F7ADC52A4745C4BBB2A5B5194085A1&assignmentId=68de2c52-9cd3-4795-abdc-6c2ca3228340&projectId=e622c465-ee29-4445-8260-1f3431e06587","","null","<div style=""display: flex; justify-content: center; align-items: center;"">
                    <img src=""images/causal/causal_series_18/causal_series_18_b.jpg"" style=""width: 300px; height: 300px;"" />
                  </div>","null","",""
"","","","","","html-keyboard-response","113","907612","0.0-81.0-2.0","B8F7ADC52A4745C4BBB2A5B5194085A1","B8F7ADC52A4745C4BBB2A5B5194085A1","68de2c52-9cd3-4795-abdc-6c2ca3228340","e622c465-ee29-4445-8260-1f3431e06587","{""participantId"":""B8F7ADC52A4745C4BBB2A5B5194085A1"",""assignmentId"":""68de2c52-9cd3-4795-abdc-6c2ca3228340"",""projectId"":""e622c465-ee29-4445-8260-1f3431e06587""}","https://test12345.live/?participantId=B8F7ADC52A4745C4BBB2A5B5194085A1&assignmentId=68de2c52-9cd3-4795-abdc-6c2ca3228340&projectId=e622c465-ee29-4445-8260-1f3431e06587","","null","<div style=""display: flex; justify-content: center; align-items: center;"">
                    <img src=""images/causal/causal_series_18/causal_series_18_c.jpg"" style=""width: 300px; height: 300px;"" />
                  </div>","null","",""
"","","","","","html-keyboard-response","114","910615","0.0-81.0-3.0","B8F7ADC52A4745C4BBB2A5B5194085A1","B8F7ADC52A4745C4BBB2A5B5194085A1","68de2c52-9cd3-4795-abdc-6c2ca3228340","e622c465-ee29-4445-8260-1f3431e06587","{""participantId"":""B8F7ADC52A4745C4BBB2A5B5194085A1"",""assignmentId"":""68de2c52-9cd3-4795-abdc-6c2ca3228340"",""projectId"":""e622c465-ee29-4445-8260-1f3431e06587""}","https://test12345.live/?participantId=B8F7ADC52A4745C4BBB2A5B5194085A1&assignmentId=68de2c52-9cd3-4795-abdc-6c2ca3228340&projectId=e622c465-ee29-4445-8260-1f3431e06587","","null","<div style=""display: flex; justify-content: center; align-items: center;"">
                    <img src=""images/causal/causal_series_18/causal_series_18_d.jpg"" style=""width: 300px; height: 300px;"" />
                  </div>","null","",""
"","","","","","html-button-response","115","915320","0.0-83.0","B8F7ADC52A4745C4BBB2A5B5194085A1","B8F7ADC52A4745C4BBB2A5B5194085A1","68de2c52-9cd3-4795-abdc-6c2ca3228340","e622c465-ee29-4445-8260-1f3431e06587","{""participantId"":""B8F7ADC52A4745C4BBB2A5B5194085A1"",""assignmentId"":""68de2c52-9cd3-4795-abdc-6c2ca3228340"",""projectId"":""e622c465-ee29-4445-8260-1f3431e06587""}","https://test12345.live/?participantId=B8F7ADC52A4745C4BBB2A5B5194085A1&assignmentId=68de2c52-9cd3-4795-abdc-6c2ca3228340&projectId=e622c465-ee29-4445-8260-1f3431e06587","","4694","Was there a person in the picture?","1","",""
"","","","","","survey-likert","116","917466","0.0-84.0","B8F7ADC52A4745C4BBB2A5B5194085A1","B8F7ADC52A4745C4BBB2A5B5194085A1","68de2c52-9cd3-4795-abdc-6c2ca3228340","e622c465-ee29-4445-8260-1f3431e06587","{""participantId"":""B8F7ADC52A4745C4BBB2A5B5194085A1"",""assignmentId"":""68de2c52-9cd3-4795-abdc-6c2ca3228340"",""projectId"":""e622c465-ee29-4445-8260-1f3431e06587""}","https://test12345.live/?participantId=B8F7ADC52A4745C4BBB2A5B5194085A1&assignmentId=68de2c52-9cd3-4795-abdc-6c2ca3228340&projectId=e622c465-ee29-4445-8260-1f3431e06587","","2138","","{""Q0"":0}","","[0]"
"","","","","","html-button-response","117","918499","0.0-85.0","B8F7ADC52A4745C4BBB2A5B5194085A1","B8F7ADC52A4745C4BBB2A5B5194085A1","68de2c52-9cd3-4795-abdc-6c2ca3228340","e622c465-ee29-4445-8260-1f3431e06587","{""participantId"":""B8F7ADC52A4745C4BBB2A5B5194085A1"",""assignmentId"":""68de2c52-9cd3-4795-abdc-6c2ca3228340"",""projectId"":""e622c465-ee29-4445-8260-1f3431e06587""}","https://test12345.live/?participantId=B8F7ADC52A4745C4BBB2A5B5194085A1&assignmentId=68de2c52-9cd3-4795-abdc-6c2ca3228340&projectId=e622c465-ee29-4445-8260-1f3431e06587","","1021","
    <div style=""display: flex; justify-content: center; align-items: center;"">
      <img src=""images/blue_deck_1.png"" style=""width: 300px; height: 300px; margin-right: 10px;"" />
      <img src=""images/red_deck_2.png"" style=""width: 300px; height: 300px;"" />
    </div>","0","0",""
"","","","","","html-keyboard-response","118","921507","0.0-86.0-0.0","B8F7ADC52A4745C4BBB2A5B5194085A1","B8F7ADC52A4745C4BBB2A5B5194085A1","68de2c52-9cd3-4795-abdc-6c2ca3228340","e622c465-ee29-4445-8260-1f3431e06587","{""participantId"":""B8F7ADC52A4745C4BBB2A5B5194085A1"",""assignmentId"":""68de2c52-9cd3-4795-abdc-6c2ca3228340"",""projectId"":""e622c465-ee29-4445-8260-1f3431e06587""}","https://test12345.live/?participantId=B8F7ADC52A4745C4BBB2A5B5194085A1&assignmentId=68de2c52-9cd3-4795-abdc-6c2ca3228340&projectId=e622c465-ee29-4445-8260-1f3431e06587","","null","<div style=""display: flex; justify-content: center; align-items: center;"">
                    <img src=""images/causal/causal_series_1/causal_series_1_a.jpg"" style=""width: 300px; height: 300px;"" />
                  </div>","null","",""
"","","","","","html-keyboard-response","119","924513","0.0-86.0-1.0","B8F7ADC52A4745C4BBB2A5B5194085A1","B8F7ADC52A4745C4BBB2A5B5194085A1","68de2c52-9cd3-4795-abdc-6c2ca3228340","e622c465-ee29-4445-8260-1f3431e06587","{""participantId"":""B8F7ADC52A4745C4BBB2A5B5194085A1"",""assignmentId"":""68de2c52-9cd3-4795-abdc-6c2ca3228340"",""projectId"":""e622c465-ee29-4445-8260-1f3431e06587""}","https://test12345.live/?participantId=B8F7ADC52A4745C4BBB2A5B5194085A1&assignmentId=68de2c52-9cd3-4795-abdc-6c2ca3228340&projectId=e622c465-ee29-4445-8260-1f3431e06587","","null","<div style=""display: flex; justify-content: center; align-items: center;"">
                    <img src=""images/causal/causal_series_1/causal_series_1_b.jpg"" style=""width: 300px; height: 300px;"" />
                  </div>","null","",""
"","","","","","html-keyboard-response","120","927519","0.0-86.0-2.0","B8F7ADC52A4745C4BBB2A5B5194085A1","B8F7ADC52A4745C4BBB2A5B5194085A1","68de2c52-9cd3-4795-abdc-6c2ca3228340","e622c465-ee29-4445-8260-1f3431e06587","{""participantId"":""B8F7ADC52A4745C4BBB2A5B5194085A1"",""assignmentId"":""68de2c52-9cd3-4795-abdc-6c2ca3228340"",""projectId"":""e622c465-ee29-4445-8260-1f3431e06587""}","https://test12345.live/?participantId=B8F7ADC52A4745C4BBB2A5B5194085A1&assignmentId=68de2c52-9cd3-4795-abdc-6c2ca3228340&projectId=e622c465-ee29-4445-8260-1f3431e06587","","null","<div style=""display: flex; justify-content: center; align-items: center;"">
                    <img src=""images/causal/causal_series_1/causal_series_1_c.jpg"" style=""width: 300px; height: 300px;"" />
                  </div>","null","",""
"","","","","","html-keyboard-response","121","930528","0.0-86.0-3.0","B8F7ADC52A4745C4BBB2A5B5194085A1","B8F7ADC52A4745C4BBB2A5B5194085A1","68de2c52-9cd3-4795-abdc-6c2ca3228340","e622c465-ee29-4445-8260-1f3431e06587","{""participantId"":""B8F7ADC52A4745C4BBB2A5B5194085A1"",""assignmentId"":""68de2c52-9cd3-4795-abdc-6c2ca3228340"",""projectId"":""e622c465-ee29-4445-8260-1f3431e06587""}","https://test12345.live/?participantId=B8F7ADC52A4745C4BBB2A5B5194085A1&assignmentId=68de2c52-9cd3-4795-abdc-6c2ca3228340&projectId=e622c465-ee29-4445-8260-1f3431e06587","","null","<div style=""display: flex; justify-content: center; align-items: center;"">
                    <img src=""images/causal/causal_series_1/causal_series_1_d.jpg"" style=""width: 300px; height: 300px;"" />
                  </div>","null","",""
"","","","","","html-button-response","122","931410","0.0-88.0","B8F7ADC52A4745C4BBB2A5B5194085A1","B8F7ADC52A4745C4BBB2A5B5194085A1","68de2c52-9cd3-4795-abdc-6c2ca3228340","e622c465-ee29-4445-8260-1f3431e06587","{""participantId"":""B8F7ADC52A4745C4BBB2A5B5194085A1"",""assignmentId"":""68de2c52-9cd3-4795-abdc-6c2ca3228340"",""projectId"":""e622c465-ee29-4445-8260-1f3431e06587""}","https://test12345.live/?participantId=B8F7ADC52A4745C4BBB2A5B5194085A1&assignmentId=68de2c52-9cd3-4795-abdc-6c2ca3228340&projectId=e622c465-ee29-4445-8260-1f3431e06587","","873","Was there a person in the picture?","0","",""
"","","","","","survey-likert","123","932660","0.0-89.0","B8F7ADC52A4745C4BBB2A5B5194085A1","B8F7ADC52A4745C4BBB2A5B5194085A1","68de2c52-9cd3-4795-abdc-6c2ca3228340","e622c465-ee29-4445-8260-1f3431e06587","{""participantId"":""B8F7ADC52A4745C4BBB2A5B5194085A1"",""assignmentId"":""68de2c52-9cd3-4795-abdc-6c2ca3228340"",""projectId"":""e622c465-ee29-4445-8260-1f3431e06587""}","https://test12345.live/?participantId=B8F7ADC52A4745C4BBB2A5B5194085A1&assignmentId=68de2c52-9cd3-4795-abdc-6c2ca3228340&projectId=e622c465-ee29-4445-8260-1f3431e06587","","1244","","{""Q0"":0}","","[0]"
"","","","","","html-button-response","124","933552","0.0-90.0","B8F7ADC52A4745C4BBB2A5B5194085A1","B8F7ADC52A4745C4BBB2A5B5194085A1","68de2c52-9cd3-4795-abdc-6c2ca3228340","e622c465-ee29-4445-8260-1f3431e06587","{""participantId"":""B8F7ADC52A4745C4BBB2A5B5194085A1"",""assignmentId"":""68de2c52-9cd3-4795-abdc-6c2ca3228340"",""projectId"":""e622c465-ee29-4445-8260-1f3431e06587""}","https://test12345.live/?participantId=B8F7ADC52A4745C4BBB2A5B5194085A1&assignmentId=68de2c52-9cd3-4795-abdc-6c2ca3228340&projectId=e622c465-ee29-4445-8260-1f3431e06587","","882","
    <div style=""display: flex; justify-content: center; align-items: center;"">
      <img src=""images/blue_deck_1.png"" style=""width: 300px; height: 300px; margin-right: 10px;"" />
      <img src=""images/red_deck_2.png"" style=""width: 300px; height: 300px;"" />
    </div>","0","0",""
"","","","","","html-keyboard-response","125","936557","0.0-91.0-0.0","B8F7ADC52A4745C4BBB2A5B5194085A1","B8F7ADC52A4745C4BBB2A5B5194085A1","68de2c52-9cd3-4795-abdc-6c2ca3228340","e622c465-ee29-4445-8260-1f3431e06587","{""participantId"":""B8F7ADC52A4745C4BBB2A5B5194085A1"",""assignmentId"":""68de2c52-9cd3-4795-abdc-6c2ca3228340"",""projectId"":""e622c465-ee29-4445-8260-1f3431e06587""}","https://test12345.live/?participantId=B8F7ADC52A4745C4BBB2A5B5194085A1&assignmentId=68de2c52-9cd3-4795-abdc-6c2ca3228340&projectId=e622c465-ee29-4445-8260-1f3431e06587","","null","<div style=""display: flex; justify-content: center; align-items: center;"">
                    <img src=""images/causal/causal_series_7/causal_series_7_a.jpg"" style=""width: 300px; height: 300px;"" />
                  </div>","null","",""
"","","","","","html-keyboard-response","126","940291","0.0-91.0-1.0","B8F7ADC52A4745C4BBB2A5B5194085A1","B8F7ADC52A4745C4BBB2A5B5194085A1","68de2c52-9cd3-4795-abdc-6c2ca3228340","e622c465-ee29-4445-8260-1f3431e06587","{""participantId"":""B8F7ADC52A4745C4BBB2A5B5194085A1"",""assignmentId"":""68de2c52-9cd3-4795-abdc-6c2ca3228340"",""projectId"":""e622c465-ee29-4445-8260-1f3431e06587""}","https://test12345.live/?participantId=B8F7ADC52A4745C4BBB2A5B5194085A1&assignmentId=68de2c52-9cd3-4795-abdc-6c2ca3228340&projectId=e622c465-ee29-4445-8260-1f3431e06587","","null","<div style=""display: flex; justify-content: center; align-items: center;"">
                    <img src=""images/causal/causal_series_7/causal_series_7_b.jpg"" style=""width: 300px; height: 300px;"" />
                  </div>","null","",""
"","","","","","html-keyboard-response","127","943296","0.0-91.0-2.0","B8F7ADC52A4745C4BBB2A5B5194085A1","B8F7ADC52A4745C4BBB2A5B5194085A1","68de2c52-9cd3-4795-abdc-6c2ca3228340","e622c465-ee29-4445-8260-1f3431e06587","{""participantId"":""B8F7ADC52A4745C4BBB2A5B5194085A1"",""assignmentId"":""68de2c52-9cd3-4795-abdc-6c2ca3228340"",""projectId"":""e622c465-ee29-4445-8260-1f3431e06587""}","https://test12345.live/?participantId=B8F7ADC52A4745C4BBB2A5B5194085A1&assignmentId=68de2c52-9cd3-4795-abdc-6c2ca3228340&projectId=e622c465-ee29-4445-8260-1f3431e06587","","null","<div style=""display: flex; justify-content: center; align-items: center;"">
                    <img src=""images/causal/causal_series_7/causal_series_7_c.jpg"" style=""width: 300px; height: 300px;"" />
                  </div>","null","",""
"","","","","","html-keyboard-response","128","946299","0.0-91.0-3.0","B8F7ADC52A4745C4BBB2A5B5194085A1","B8F7ADC52A4745C4BBB2A5B5194085A1","68de2c52-9cd3-4795-abdc-6c2ca3228340","e622c465-ee29-4445-8260-1f3431e06587","{""participantId"":""B8F7ADC52A4745C4BBB2A5B5194085A1"",""assignmentId"":""68de2c52-9cd3-4795-abdc-6c2ca3228340"",""projectId"":""e622c465-ee29-4445-8260-1f3431e06587""}","https://test12345.live/?participantId=B8F7ADC52A4745C4BBB2A5B5194085A1&assignmentId=68de2c52-9cd3-4795-abdc-6c2ca3228340&projectId=e622c465-ee29-4445-8260-1f3431e06587","","null","<div style=""display: flex; justify-content: center; align-items: center;"">
                    <img src=""images/causal/causal_series_7/causal_series_7_d.jpg"" style=""width: 300px; height: 300px;"" />
                  </div>","null","",""
"","","","","","html-button-response","129","948277","0.0-93.0","B8F7ADC52A4745C4BBB2A5B5194085A1","B8F7ADC52A4745C4BBB2A5B5194085A1","68de2c52-9cd3-4795-abdc-6c2ca3228340","e622c465-ee29-4445-8260-1f3431e06587","{""participantId"":""B8F7ADC52A4745C4BBB2A5B5194085A1"",""assignmentId"":""68de2c52-9cd3-4795-abdc-6c2ca3228340"",""projectId"":""e622c465-ee29-4445-8260-1f3431e06587""}","https://test12345.live/?participantId=B8F7ADC52A4745C4BBB2A5B5194085A1&assignmentId=68de2c52-9cd3-4795-abdc-6c2ca3228340&projectId=e622c465-ee29-4445-8260-1f3431e06587","","1971","Was there a person in the picture?","1","",""
"","","","","","survey-likert","130","950397","0.0-94.0","B8F7ADC52A4745C4BBB2A5B5194085A1","B8F7ADC52A4745C4BBB2A5B5194085A1","68de2c52-9cd3-4795-abdc-6c2ca3228340","e622c465-ee29-4445-8260-1f3431e06587","{""participantId"":""B8F7ADC52A4745C4BBB2A5B5194085A1"",""assignmentId"":""68de2c52-9cd3-4795-abdc-6c2ca3228340"",""projectId"":""e622c465-ee29-4445-8260-1f3431e06587""}","https://test12345.live/?participantId=B8F7ADC52A4745C4BBB2A5B5194085A1&assignmentId=68de2c52-9cd3-4795-abdc-6c2ca3228340&projectId=e622c465-ee29-4445-8260-1f3431e06587","","2113","","{""Q0"":1}","","[0]"
"","","","","","survey-text","131","965760","0.0-95.0","B8F7ADC52A4745C4BBB2A5B5194085A1","B8F7ADC52A4745C4BBB2A5B5194085A1","68de2c52-9cd3-4795-abdc-6c2ca3228340","e622c465-ee29-4445-8260-1f3431e06587","{""participantId"":""B8F7ADC52A4745C4BBB2A5B5194085A1"",""assignmentId"":""68de2c52-9cd3-4795-abdc-6c2ca3228340"",""projectId"":""e622c465-ee29-4445-8260-1f3431e06587""}","https://test12345.live/?participantId=B8F7ADC52A4745C4BBB2A5B5194085A1&assignmentId=68de2c52-9cd3-4795-abdc-6c2ca3228340&projectId=e622c465-ee29-4445-8260-1f3431e06587","","15329","","{""Q0"":""Not really other than one was blue, one was red.""}","",""
