"success","timeout","failed_images","failed_audio","failed_video","trial_type","trial_index","time_elapsed","internal_node_id","subject","subject_id","study_id","session_id","urlvar","current_url","view_history","rt","stimulus","response","choice","question_order"
"true","false","[]","[]","[]","preload","0","632","0.0-0.0","7888A2429F784143A381F03582A8DC5E","7888A2429F784143A381F03582A8DC5E","238a271b-99c7-4d54-9e5d-20abf3ebe9b6","54f8d589-66fc-4c65-830f-1dcc63bce8cc","{""participantId"":""7888A2429F784143A381F03582A8DC5E"",""assignmentId"":""238a271b-99c7-4d54-9e5d-20abf3ebe9b6"",""projectId"":""54f8d589-66fc-4c65-830f-1dcc63bce8cc""}","https://test12345.live/?participantId=7888A2429F784143A381F03582A8DC5E&assignmentId=238a271b-99c7-4d54-9e5d-20abf3ebe9b6&projectId=54f8d589-66fc-4c65-830f-1dcc63bce8cc","","","","","",""
"","","","","","instructions","1","2711","0.0-1.0","7888A2429F784143A381F03582A8DC5E","7888A2429F784143A381F03582A8DC5E","238a271b-99c7-4d54-9e5d-20abf3ebe9b6","54f8d589-66fc-4c65-830f-1dcc63bce8cc","{""participantId"":""7888A2429F784143A381F03582A8DC5E"",""assignmentId"":""238a271b-99c7-4d54-9e5d-20abf3ebe9b6"",""projectId"":""54f8d589-66fc-4c65-830f-1dcc63bce8cc""}","https://test12345.live/?participantId=7888A2429F784143A381F03582A8DC5E&assignmentId=238a271b-99c7-4d54-9e5d-20abf3ebe9b6&projectId=54f8d589-66fc-4c65-830f-1dcc63bce8cc","[{""page_index"":0,""viewing_time"":2078}]","2078","","","",""
"","","","","","instructions","2","161889","0.0-2.0","7888A2429F784143A381F03582A8DC5E","7888A2429F784143A381F03582A8DC5E","238a271b-99c7-4d54-9e5d-20abf3ebe9b6","54f8d589-66fc-4c65-830f-1dcc63bce8cc","{""participantId"":""7888A2429F784143A381F03582A8DC5E"",""assignmentId"":""238a271b-99c7-4d54-9e5d-20abf3ebe9b6"",""projectId"":""54f8d589-66fc-4c65-830f-1dcc63bce8cc""}","https://test12345.live/?participantId=7888A2429F784143A381F03582A8DC5E&assignmentId=238a271b-99c7-4d54-9e5d-20abf3ebe9b6&projectId=54f8d589-66fc-4c65-830f-1dcc63bce8cc","[{""page_index"":0,""viewing_time"":159178}]","159178","","","",""
"true","","","","","fullscreen","3","164614","0.0-3.0","7888A2429F784143A381F03582A8DC5E","7888A2429F784143A381F03582A8DC5E","238a271b-99c7-4d54-9e5d-20abf3ebe9b6","54f8d589-66fc-4c65-830f-1dcc63bce8cc","{""participantId"":""7888A2429F784143A381F03582A8DC5E"",""assignmentId"":""238a271b-99c7-4d54-9e5d-20abf3ebe9b6"",""projectId"":""54f8d589-66fc-4c65-830f-1dcc63bce8cc""}","https://test12345.live/?participantId=7888A2429F784143A381F03582A8DC5E&assignmentId=238a271b-99c7-4d54-9e5d-20abf3ebe9b6&projectId=54f8d589-66fc-4c65-830f-1dcc63bce8cc","","1709","","","",""
"","","","","","instructions","4","215823","0.0-4.0","7888A2429F784143A381F03582A8DC5E","7888A2429F784143A381F03582A8DC5E","238a271b-99c7-4d54-9e5d-20abf3ebe9b6","54f8d589-66fc-4c65-830f-1dcc63bce8cc","{""participantId"":""7888A2429F784143A381F03582A8DC5E"",""assignmentId"":""238a271b-99c7-4d54-9e5d-20abf3ebe9b6"",""projectId"":""54f8d589-66fc-4c65-830f-1dcc63bce8cc""}","https://test12345.live/?participantId=7888A2429F784143A381F03582A8DC5E&assignmentId=238a271b-99c7-4d54-9e5d-20abf3ebe9b6&projectId=54f8d589-66fc-4c65-830f-1dcc63bce8cc","[{""page_index"":0,""viewing_time"":51210}]","51210","","","",""
"","","","","","html-button-response","5","220521","0.0-5.0","7888A2429F784143A381F03582A8DC5E","7888A2429F784143A381F03582A8DC5E","238a271b-99c7-4d54-9e5d-20abf3ebe9b6","54f8d589-66fc-4c65-830f-1dcc63bce8cc","{""participantId"":""7888A2429F784143A381F03582A8DC5E"",""assignmentId"":""238a271b-99c7-4d54-9e5d-20abf3ebe9b6"",""projectId"":""54f8d589-66fc-4c65-830f-1dcc63bce8cc""}","https://test12345.live/?participantId=7888A2429F784143A381F03582A8DC5E&assignmentId=238a271b-99c7-4d54-9e5d-20abf3ebe9b6&projectId=54f8d589-66fc-4c65-830f-1dcc63bce8cc","","4697","
    <div style=""display: flex; justify-content: center; align-items: center;"">
      <img src=""images/red_deck_2.png"" style=""width: 300px; height: 300px; margin-right: 10px;"" />
      <img src=""images/blue_deck_1.png"" style=""width: 300px; height: 300px;"" />
    </div>","0","0",""
"","","","","","html-keyboard-response","6","223527","0.0-6.0-0.0","7888A2429F784143A381F03582A8DC5E","7888A2429F784143A381F03582A8DC5E","238a271b-99c7-4d54-9e5d-20abf3ebe9b6","54f8d589-66fc-4c65-830f-1dcc63bce8cc","{""participantId"":""7888A2429F784143A381F03582A8DC5E"",""assignmentId"":""238a271b-99c7-4d54-9e5d-20abf3ebe9b6"",""projectId"":""54f8d589-66fc-4c65-830f-1dcc63bce8cc""}","https://test12345.live/?participantId=7888A2429F784143A381F03582A8DC5E&assignmentId=238a271b-99c7-4d54-9e5d-20abf3ebe9b6&projectId=54f8d589-66fc-4c65-830f-1dcc63bce8cc","","null","<div style=""display: flex; justify-content: center; align-items: center;"">
                    <img src=""images/causal/causal_series_8/causal_series_8_a.jpg"" style=""width: 300px; height: 300px;"" />
                  </div>","null","",""
"","","","","","html-keyboard-response","7","226534","0.0-6.0-1.0","7888A2429F784143A381F03582A8DC5E","7888A2429F784143A381F03582A8DC5E","238a271b-99c7-4d54-9e5d-20abf3ebe9b6","54f8d589-66fc-4c65-830f-1dcc63bce8cc","{""participantId"":""7888A2429F784143A381F03582A8DC5E"",""assignmentId"":""238a271b-99c7-4d54-9e5d-20abf3ebe9b6"",""projectId"":""54f8d589-66fc-4c65-830f-1dcc63bce8cc""}","https://test12345.live/?participantId=7888A2429F784143A381F03582A8DC5E&assignmentId=238a271b-99c7-4d54-9e5d-20abf3ebe9b6&projectId=54f8d589-66fc-4c65-830f-1dcc63bce8cc","","null","<div style=""display: flex; justify-content: center; align-items: center;"">
                    <img src=""images/causal/causal_series_8/causal_series_8_b.jpg"" style=""width: 300px; height: 300px;"" />
                  </div>","null","",""
"","","","","","html-keyboard-response","8","229535","0.0-6.0-2.0","7888A2429F784143A381F03582A8DC5E","7888A2429F784143A381F03582A8DC5E","238a271b-99c7-4d54-9e5d-20abf3ebe9b6","54f8d589-66fc-4c65-830f-1dcc63bce8cc","{""participantId"":""7888A2429F784143A381F03582A8DC5E"",""assignmentId"":""238a271b-99c7-4d54-9e5d-20abf3ebe9b6"",""projectId"":""54f8d589-66fc-4c65-830f-1dcc63bce8cc""}","https://test12345.live/?participantId=7888A2429F784143A381F03582A8DC5E&assignmentId=238a271b-99c7-4d54-9e5d-20abf3ebe9b6&projectId=54f8d589-66fc-4c65-830f-1dcc63bce8cc","","null","<div style=""display: flex; justify-content: center; align-items: center;"">
                    <img src=""images/causal/causal_series_8/causal_series_8_c.jpg"" style=""width: 300px; height: 300px;"" />
                  </div>","null","",""
"","","","","","html-keyboard-response","9","232537","0.0-6.0-3.0","7888A2429F784143A381F03582A8DC5E","7888A2429F784143A381F03582A8DC5E","238a271b-99c7-4d54-9e5d-20abf3ebe9b6","54f8d589-66fc-4c65-830f-1dcc63bce8cc","{""participantId"":""7888A2429F784143A381F03582A8DC5E"",""assignmentId"":""238a271b-99c7-4d54-9e5d-20abf3ebe9b6"",""projectId"":""54f8d589-66fc-4c65-830f-1dcc63bce8cc""}","https://test12345.live/?participantId=7888A2429F784143A381F03582A8DC5E&assignmentId=238a271b-99c7-4d54-9e5d-20abf3ebe9b6&projectId=54f8d589-66fc-4c65-830f-1dcc63bce8cc","","null","<div style=""display: flex; justify-content: center; align-items: center;"">
                    <img src=""images/causal/causal_series_8/causal_series_8_d.jpg"" style=""width: 300px; height: 300px;"" />
                  </div>","null","",""
"","","","","","html-button-response","10","234893","0.0-8.0","7888A2429F784143A381F03582A8DC5E","7888A2429F784143A381F03582A8DC5E","238a271b-99c7-4d54-9e5d-20abf3ebe9b6","54f8d589-66fc-4c65-830f-1dcc63bce8cc","{""participantId"":""7888A2429F784143A381F03582A8DC5E"",""assignmentId"":""238a271b-99c7-4d54-9e5d-20abf3ebe9b6"",""projectId"":""54f8d589-66fc-4c65-830f-1dcc63bce8cc""}","https://test12345.live/?participantId=7888A2429F784143A381F03582A8DC5E&assignmentId=238a271b-99c7-4d54-9e5d-20abf3ebe9b6&projectId=54f8d589-66fc-4c65-830f-1dcc63bce8cc","","2355","Was there a person in the picture?","0","",""
"","","","","","survey-likert","11","239087","0.0-9.0","7888A2429F784143A381F03582A8DC5E","7888A2429F784143A381F03582A8DC5E","238a271b-99c7-4d54-9e5d-20abf3ebe9b6","54f8d589-66fc-4c65-830f-1dcc63bce8cc","{""participantId"":""7888A2429F784143A381F03582A8DC5E"",""assignmentId"":""238a271b-99c7-4d54-9e5d-20abf3ebe9b6"",""projectId"":""54f8d589-66fc-4c65-830f-1dcc63bce8cc""}","https://test12345.live/?participantId=7888A2429F784143A381F03582A8DC5E&assignmentId=238a271b-99c7-4d54-9e5d-20abf3ebe9b6&projectId=54f8d589-66fc-4c65-830f-1dcc63bce8cc","","4192","","{""Q0"":2}","","[0]"
"","","","","","html-button-response","12","240121","0.0-10.0","7888A2429F784143A381F03582A8DC5E","7888A2429F784143A381F03582A8DC5E","238a271b-99c7-4d54-9e5d-20abf3ebe9b6","54f8d589-66fc-4c65-830f-1dcc63bce8cc","{""participantId"":""7888A2429F784143A381F03582A8DC5E"",""assignmentId"":""238a271b-99c7-4d54-9e5d-20abf3ebe9b6"",""projectId"":""54f8d589-66fc-4c65-830f-1dcc63bce8cc""}","https://test12345.live/?participantId=7888A2429F784143A381F03582A8DC5E&assignmentId=238a271b-99c7-4d54-9e5d-20abf3ebe9b6&projectId=54f8d589-66fc-4c65-830f-1dcc63bce8cc","","1033","
    <div style=""display: flex; justify-content: center; align-items: center;"">
      <img src=""images/red_deck_2.png"" style=""width: 300px; height: 300px; margin-right: 10px;"" />
      <img src=""images/blue_deck_1.png"" style=""width: 300px; height: 300px;"" />
    </div>","0","0",""
"","","","","","html-keyboard-response","13","243126","0.0-11.0-0.0","7888A2429F784143A381F03582A8DC5E","7888A2429F784143A381F03582A8DC5E","238a271b-99c7-4d54-9e5d-20abf3ebe9b6","54f8d589-66fc-4c65-830f-1dcc63bce8cc","{""participantId"":""7888A2429F784143A381F03582A8DC5E"",""assignmentId"":""238a271b-99c7-4d54-9e5d-20abf3ebe9b6"",""projectId"":""54f8d589-66fc-4c65-830f-1dcc63bce8cc""}","https://test12345.live/?participantId=7888A2429F784143A381F03582A8DC5E&assignmentId=238a271b-99c7-4d54-9e5d-20abf3ebe9b6&projectId=54f8d589-66fc-4c65-830f-1dcc63bce8cc","","null","<div style=""display: flex; justify-content: center; align-items: center;"">
                    <img src=""images/causal/causal_series_13/causal_series_13_a.jpg"" style=""width: 300px; height: 300px;"" />
                  </div>","null","",""
"","","","","","html-keyboard-response","14","246140","0.0-11.0-1.0","7888A2429F784143A381F03582A8DC5E","7888A2429F784143A381F03582A8DC5E","238a271b-99c7-4d54-9e5d-20abf3ebe9b6","54f8d589-66fc-4c65-830f-1dcc63bce8cc","{""participantId"":""7888A2429F784143A381F03582A8DC5E"",""assignmentId"":""238a271b-99c7-4d54-9e5d-20abf3ebe9b6"",""projectId"":""54f8d589-66fc-4c65-830f-1dcc63bce8cc""}","https://test12345.live/?participantId=7888A2429F784143A381F03582A8DC5E&assignmentId=238a271b-99c7-4d54-9e5d-20abf3ebe9b6&projectId=54f8d589-66fc-4c65-830f-1dcc63bce8cc","","null","<div style=""display: flex; justify-content: center; align-items: center;"">
                    <img src=""images/causal/causal_series_13/causal_series_13_b.jpg"" style=""width: 300px; height: 300px;"" />
                  </div>","null","",""
"","","","","","html-keyboard-response","15","249150","0.0-11.0-2.0","7888A2429F784143A381F03582A8DC5E","7888A2429F784143A381F03582A8DC5E","238a271b-99c7-4d54-9e5d-20abf3ebe9b6","54f8d589-66fc-4c65-830f-1dcc63bce8cc","{""participantId"":""7888A2429F784143A381F03582A8DC5E"",""assignmentId"":""238a271b-99c7-4d54-9e5d-20abf3ebe9b6"",""projectId"":""54f8d589-66fc-4c65-830f-1dcc63bce8cc""}","https://test12345.live/?participantId=7888A2429F784143A381F03582A8DC5E&assignmentId=238a271b-99c7-4d54-9e5d-20abf3ebe9b6&projectId=54f8d589-66fc-4c65-830f-1dcc63bce8cc","","null","<div style=""display: flex; justify-content: center; align-items: center;"">
                    <img src=""images/causal/causal_series_13/causal_series_13_c.jpg"" style=""width: 300px; height: 300px;"" />
                  </div>","null","",""
"","","","","","html-keyboard-response","16","252161","0.0-11.0-3.0","7888A2429F784143A381F03582A8DC5E","7888A2429F784143A381F03582A8DC5E","238a271b-99c7-4d54-9e5d-20abf3ebe9b6","54f8d589-66fc-4c65-830f-1dcc63bce8cc","{""participantId"":""7888A2429F784143A381F03582A8DC5E"",""assignmentId"":""238a271b-99c7-4d54-9e5d-20abf3ebe9b6"",""projectId"":""54f8d589-66fc-4c65-830f-1dcc63bce8cc""}","https://test12345.live/?participantId=7888A2429F784143A381F03582A8DC5E&assignmentId=238a271b-99c7-4d54-9e5d-20abf3ebe9b6&projectId=54f8d589-66fc-4c65-830f-1dcc63bce8cc","","null","<div style=""display: flex; justify-content: center; align-items: center;"">
                    <img src=""images/causal/causal_series_13/causal_series_13_d.jpg"" style=""width: 300px; height: 300px;"" />
                  </div>","null","",""
"","","","","","html-button-response","17","253987","0.0-13.0","7888A2429F784143A381F03582A8DC5E","7888A2429F784143A381F03582A8DC5E","238a271b-99c7-4d54-9e5d-20abf3ebe9b6","54f8d589-66fc-4c65-830f-1dcc63bce8cc","{""participantId"":""7888A2429F784143A381F03582A8DC5E"",""assignmentId"":""238a271b-99c7-4d54-9e5d-20abf3ebe9b6"",""projectId"":""54f8d589-66fc-4c65-830f-1dcc63bce8cc""}","https://test12345.live/?participantId=7888A2429F784143A381F03582A8DC5E&assignmentId=238a271b-99c7-4d54-9e5d-20abf3ebe9b6&projectId=54f8d589-66fc-4c65-830f-1dcc63bce8cc","","1826","Was there a person in the picture?","0","",""
"","","","","","survey-likert","18","255522","0.0-14.0","7888A2429F784143A381F03582A8DC5E","7888A2429F784143A381F03582A8DC5E","238a271b-99c7-4d54-9e5d-20abf3ebe9b6","54f8d589-66fc-4c65-830f-1dcc63bce8cc","{""participantId"":""7888A2429F784143A381F03582A8DC5E"",""assignmentId"":""238a271b-99c7-4d54-9e5d-20abf3ebe9b6"",""projectId"":""54f8d589-66fc-4c65-830f-1dcc63bce8cc""}","https://test12345.live/?participantId=7888A2429F784143A381F03582A8DC5E&assignmentId=238a271b-99c7-4d54-9e5d-20abf3ebe9b6&projectId=54f8d589-66fc-4c65-830f-1dcc63bce8cc","","1534","","{""Q0"":2}","","[0]"
"","","","","","html-button-response","19","257740","0.0-15.0","7888A2429F784143A381F03582A8DC5E","7888A2429F784143A381F03582A8DC5E","238a271b-99c7-4d54-9e5d-20abf3ebe9b6","54f8d589-66fc-4c65-830f-1dcc63bce8cc","{""participantId"":""7888A2429F784143A381F03582A8DC5E"",""assignmentId"":""238a271b-99c7-4d54-9e5d-20abf3ebe9b6"",""projectId"":""54f8d589-66fc-4c65-830f-1dcc63bce8cc""}","https://test12345.live/?participantId=7888A2429F784143A381F03582A8DC5E&assignmentId=238a271b-99c7-4d54-9e5d-20abf3ebe9b6&projectId=54f8d589-66fc-4c65-830f-1dcc63bce8cc","","2216","
    <div style=""display: flex; justify-content: center; align-items: center;"">
      <img src=""images/red_deck_2.png"" style=""width: 300px; height: 300px; margin-right: 10px;"" />
      <img src=""images/blue_deck_1.png"" style=""width: 300px; height: 300px;"" />
    </div>","1","1",""
"","","","","","html-keyboard-response","20","260746","0.0-17.0-0.0","7888A2429F784143A381F03582A8DC5E","7888A2429F784143A381F03582A8DC5E","238a271b-99c7-4d54-9e5d-20abf3ebe9b6","54f8d589-66fc-4c65-830f-1dcc63bce8cc","{""participantId"":""7888A2429F784143A381F03582A8DC5E"",""assignmentId"":""238a271b-99c7-4d54-9e5d-20abf3ebe9b6"",""projectId"":""54f8d589-66fc-4c65-830f-1dcc63bce8cc""}","https://test12345.live/?participantId=7888A2429F784143A381F03582A8DC5E&assignmentId=238a271b-99c7-4d54-9e5d-20abf3ebe9b6&projectId=54f8d589-66fc-4c65-830f-1dcc63bce8cc","","null","<div style=""display: flex; justify-content: center; align-items: center;"">
                    <img src=""images/semantic/semantic_series_2/semantic_series_2_a.jpg"" style=""width: 300px; height: 300px;"" />
                  </div>","null","",""
"","","","","","html-keyboard-response","21","263755","0.0-17.0-1.0","7888A2429F784143A381F03582A8DC5E","7888A2429F784143A381F03582A8DC5E","238a271b-99c7-4d54-9e5d-20abf3ebe9b6","54f8d589-66fc-4c65-830f-1dcc63bce8cc","{""participantId"":""7888A2429F784143A381F03582A8DC5E"",""assignmentId"":""238a271b-99c7-4d54-9e5d-20abf3ebe9b6"",""projectId"":""54f8d589-66fc-4c65-830f-1dcc63bce8cc""}","https://test12345.live/?participantId=7888A2429F784143A381F03582A8DC5E&assignmentId=238a271b-99c7-4d54-9e5d-20abf3ebe9b6&projectId=54f8d589-66fc-4c65-830f-1dcc63bce8cc","","null","<div style=""display: flex; justify-content: center; align-items: center;"">
                    <img src=""images/semantic/semantic_series_2/semantic_series_2_b.jpg"" style=""width: 300px; height: 300px;"" />
                  </div>","null","",""
"","","","","","html-keyboard-response","22","266757","0.0-17.0-2.0","7888A2429F784143A381F03582A8DC5E","7888A2429F784143A381F03582A8DC5E","238a271b-99c7-4d54-9e5d-20abf3ebe9b6","54f8d589-66fc-4c65-830f-1dcc63bce8cc","{""participantId"":""7888A2429F784143A381F03582A8DC5E"",""assignmentId"":""238a271b-99c7-4d54-9e5d-20abf3ebe9b6"",""projectId"":""54f8d589-66fc-4c65-830f-1dcc63bce8cc""}","https://test12345.live/?participantId=7888A2429F784143A381F03582A8DC5E&assignmentId=238a271b-99c7-4d54-9e5d-20abf3ebe9b6&projectId=54f8d589-66fc-4c65-830f-1dcc63bce8cc","","null","<div style=""display: flex; justify-content: center; align-items: center;"">
                    <img src=""images/semantic/semantic_series_2/semantic_series_2_c.jpg"" style=""width: 300px; height: 300px;"" />
                  </div>","null","",""
"","","","","","html-keyboard-response","23","269759","0.0-17.0-3.0","7888A2429F784143A381F03582A8DC5E","7888A2429F784143A381F03582A8DC5E","238a271b-99c7-4d54-9e5d-20abf3ebe9b6","54f8d589-66fc-4c65-830f-1dcc63bce8cc","{""participantId"":""7888A2429F784143A381F03582A8DC5E"",""assignmentId"":""238a271b-99c7-4d54-9e5d-20abf3ebe9b6"",""projectId"":""54f8d589-66fc-4c65-830f-1dcc63bce8cc""}","https://test12345.live/?participantId=7888A2429F784143A381F03582A8DC5E&assignmentId=238a271b-99c7-4d54-9e5d-20abf3ebe9b6&projectId=54f8d589-66fc-4c65-830f-1dcc63bce8cc","","null","<div style=""display: flex; justify-content: center; align-items: center;"">
                    <img src=""images/semantic/semantic_series_2/semantic_series_2_d.jpg"" style=""width: 300px; height: 300px;"" />
                  </div>","null","",""
"","","","","","html-button-response","24","271331","0.0-18.0","7888A2429F784143A381F03582A8DC5E","7888A2429F784143A381F03582A8DC5E","238a271b-99c7-4d54-9e5d-20abf3ebe9b6","54f8d589-66fc-4c65-830f-1dcc63bce8cc","{""participantId"":""7888A2429F784143A381F03582A8DC5E"",""assignmentId"":""238a271b-99c7-4d54-9e5d-20abf3ebe9b6"",""projectId"":""54f8d589-66fc-4c65-830f-1dcc63bce8cc""}","https://test12345.live/?participantId=7888A2429F784143A381F03582A8DC5E&assignmentId=238a271b-99c7-4d54-9e5d-20abf3ebe9b6&projectId=54f8d589-66fc-4c65-830f-1dcc63bce8cc","","1572","Was there a person in the picture?","0","",""
"","","","","","survey-likert","25","273778","0.0-19.0","7888A2429F784143A381F03582A8DC5E","7888A2429F784143A381F03582A8DC5E","238a271b-99c7-4d54-9e5d-20abf3ebe9b6","54f8d589-66fc-4c65-830f-1dcc63bce8cc","{""participantId"":""7888A2429F784143A381F03582A8DC5E"",""assignmentId"":""238a271b-99c7-4d54-9e5d-20abf3ebe9b6"",""projectId"":""54f8d589-66fc-4c65-830f-1dcc63bce8cc""}","https://test12345.live/?participantId=7888A2429F784143A381F03582A8DC5E&assignmentId=238a271b-99c7-4d54-9e5d-20abf3ebe9b6&projectId=54f8d589-66fc-4c65-830f-1dcc63bce8cc","","2446","","{""Q0"":2}","","[0]"
"","","","","","html-button-response","26","275352","0.0-20.0","7888A2429F784143A381F03582A8DC5E","7888A2429F784143A381F03582A8DC5E","238a271b-99c7-4d54-9e5d-20abf3ebe9b6","54f8d589-66fc-4c65-830f-1dcc63bce8cc","{""participantId"":""7888A2429F784143A381F03582A8DC5E"",""assignmentId"":""238a271b-99c7-4d54-9e5d-20abf3ebe9b6"",""projectId"":""54f8d589-66fc-4c65-830f-1dcc63bce8cc""}","https://test12345.live/?participantId=7888A2429F784143A381F03582A8DC5E&assignmentId=238a271b-99c7-4d54-9e5d-20abf3ebe9b6&projectId=54f8d589-66fc-4c65-830f-1dcc63bce8cc","","1573","
    <div style=""display: flex; justify-content: center; align-items: center;"">
      <img src=""images/red_deck_2.png"" style=""width: 300px; height: 300px; margin-right: 10px;"" />
      <img src=""images/blue_deck_1.png"" style=""width: 300px; height: 300px;"" />
    </div>","0","0",""
"","","","","","html-keyboard-response","27","278358","0.0-21.0-0.0","7888A2429F784143A381F03582A8DC5E","7888A2429F784143A381F03582A8DC5E","238a271b-99c7-4d54-9e5d-20abf3ebe9b6","54f8d589-66fc-4c65-830f-1dcc63bce8cc","{""participantId"":""7888A2429F784143A381F03582A8DC5E"",""assignmentId"":""238a271b-99c7-4d54-9e5d-20abf3ebe9b6"",""projectId"":""54f8d589-66fc-4c65-830f-1dcc63bce8cc""}","https://test12345.live/?participantId=7888A2429F784143A381F03582A8DC5E&assignmentId=238a271b-99c7-4d54-9e5d-20abf3ebe9b6&projectId=54f8d589-66fc-4c65-830f-1dcc63bce8cc","","null","<div style=""display: flex; justify-content: center; align-items: center;"">
                    <img src=""images/causal/causal_series_3/causal_series_3_a.jpg"" style=""width: 300px; height: 300px;"" />
                  </div>","null","",""
"","","","","","html-keyboard-response","28","281371","0.0-21.0-1.0","7888A2429F784143A381F03582A8DC5E","7888A2429F784143A381F03582A8DC5E","238a271b-99c7-4d54-9e5d-20abf3ebe9b6","54f8d589-66fc-4c65-830f-1dcc63bce8cc","{""participantId"":""7888A2429F784143A381F03582A8DC5E"",""assignmentId"":""238a271b-99c7-4d54-9e5d-20abf3ebe9b6"",""projectId"":""54f8d589-66fc-4c65-830f-1dcc63bce8cc""}","https://test12345.live/?participantId=7888A2429F784143A381F03582A8DC5E&assignmentId=238a271b-99c7-4d54-9e5d-20abf3ebe9b6&projectId=54f8d589-66fc-4c65-830f-1dcc63bce8cc","","null","<div style=""display: flex; justify-content: center; align-items: center;"">
                    <img src=""images/causal/causal_series_3/causal_series_3_b.jpg"" style=""width: 300px; height: 300px;"" />
                  </div>","null","",""
"","","","","","html-keyboard-response","29","284377","0.0-21.0-2.0","7888A2429F784143A381F03582A8DC5E","7888A2429F784143A381F03582A8DC5E","238a271b-99c7-4d54-9e5d-20abf3ebe9b6","54f8d589-66fc-4c65-830f-1dcc63bce8cc","{""participantId"":""7888A2429F784143A381F03582A8DC5E"",""assignmentId"":""238a271b-99c7-4d54-9e5d-20abf3ebe9b6"",""projectId"":""54f8d589-66fc-4c65-830f-1dcc63bce8cc""}","https://test12345.live/?participantId=7888A2429F784143A381F03582A8DC5E&assignmentId=238a271b-99c7-4d54-9e5d-20abf3ebe9b6&projectId=54f8d589-66fc-4c65-830f-1dcc63bce8cc","","null","<div style=""display: flex; justify-content: center; align-items: center;"">
                    <img src=""images/causal/causal_series_3/causal_series_3_c.jpg"" style=""width: 300px; height: 300px;"" />
                  </div>","null","",""
"","","","","","html-keyboard-response","30","287379","0.0-21.0-3.0","7888A2429F784143A381F03582A8DC5E","7888A2429F784143A381F03582A8DC5E","238a271b-99c7-4d54-9e5d-20abf3ebe9b6","54f8d589-66fc-4c65-830f-1dcc63bce8cc","{""participantId"":""7888A2429F784143A381F03582A8DC5E"",""assignmentId"":""238a271b-99c7-4d54-9e5d-20abf3ebe9b6"",""projectId"":""54f8d589-66fc-4c65-830f-1dcc63bce8cc""}","https://test12345.live/?participantId=7888A2429F784143A381F03582A8DC5E&assignmentId=238a271b-99c7-4d54-9e5d-20abf3ebe9b6&projectId=54f8d589-66fc-4c65-830f-1dcc63bce8cc","","null","<div style=""display: flex; justify-content: center; align-items: center;"">
                    <img src=""images/causal/causal_series_3/causal_series_3_d.jpg"" style=""width: 300px; height: 300px;"" />
                  </div>","null","",""
"","","","","","html-button-response","31","289149","0.0-23.0","7888A2429F784143A381F03582A8DC5E","7888A2429F784143A381F03582A8DC5E","238a271b-99c7-4d54-9e5d-20abf3ebe9b6","54f8d589-66fc-4c65-830f-1dcc63bce8cc","{""participantId"":""7888A2429F784143A381F03582A8DC5E"",""assignmentId"":""238a271b-99c7-4d54-9e5d-20abf3ebe9b6"",""projectId"":""54f8d589-66fc-4c65-830f-1dcc63bce8cc""}","https://test12345.live/?participantId=7888A2429F784143A381F03582A8DC5E&assignmentId=238a271b-99c7-4d54-9e5d-20abf3ebe9b6&projectId=54f8d589-66fc-4c65-830f-1dcc63bce8cc","","1770","Was there a person in the picture?","0","",""
"","","","","","survey-likert","32","302898","0.0-24.0","7888A2429F784143A381F03582A8DC5E","7888A2429F784143A381F03582A8DC5E","238a271b-99c7-4d54-9e5d-20abf3ebe9b6","54f8d589-66fc-4c65-830f-1dcc63bce8cc","{""participantId"":""7888A2429F784143A381F03582A8DC5E"",""assignmentId"":""238a271b-99c7-4d54-9e5d-20abf3ebe9b6"",""projectId"":""54f8d589-66fc-4c65-830f-1dcc63bce8cc""}","https://test12345.live/?participantId=7888A2429F784143A381F03582A8DC5E&assignmentId=238a271b-99c7-4d54-9e5d-20abf3ebe9b6&projectId=54f8d589-66fc-4c65-830f-1dcc63bce8cc","","13749","","{""Q0"":2}","","[0]"
"","","","","","html-button-response","33","304877","0.0-25.0","7888A2429F784143A381F03582A8DC5E","7888A2429F784143A381F03582A8DC5E","238a271b-99c7-4d54-9e5d-20abf3ebe9b6","54f8d589-66fc-4c65-830f-1dcc63bce8cc","{""participantId"":""7888A2429F784143A381F03582A8DC5E"",""assignmentId"":""238a271b-99c7-4d54-9e5d-20abf3ebe9b6"",""projectId"":""54f8d589-66fc-4c65-830f-1dcc63bce8cc""}","https://test12345.live/?participantId=7888A2429F784143A381F03582A8DC5E&assignmentId=238a271b-99c7-4d54-9e5d-20abf3ebe9b6&projectId=54f8d589-66fc-4c65-830f-1dcc63bce8cc","","1978","
    <div style=""display: flex; justify-content: center; align-items: center;"">
      <img src=""images/red_deck_2.png"" style=""width: 300px; height: 300px; margin-right: 10px;"" />
      <img src=""images/blue_deck_1.png"" style=""width: 300px; height: 300px;"" />
    </div>","0","0",""
"","","","","","html-keyboard-response","34","307879","0.0-26.0-0.0","7888A2429F784143A381F03582A8DC5E","7888A2429F784143A381F03582A8DC5E","238a271b-99c7-4d54-9e5d-20abf3ebe9b6","54f8d589-66fc-4c65-830f-1dcc63bce8cc","{""participantId"":""7888A2429F784143A381F03582A8DC5E"",""assignmentId"":""238a271b-99c7-4d54-9e5d-20abf3ebe9b6"",""projectId"":""54f8d589-66fc-4c65-830f-1dcc63bce8cc""}","https://test12345.live/?participantId=7888A2429F784143A381F03582A8DC5E&assignmentId=238a271b-99c7-4d54-9e5d-20abf3ebe9b6&projectId=54f8d589-66fc-4c65-830f-1dcc63bce8cc","","null","<div style=""display: flex; justify-content: center; align-items: center;"">
                    <img src=""images/causal/causal_series_17/causal_series_17_a.jpg"" style=""width: 300px; height: 300px;"" />
                  </div>","null","",""
"","","","","","html-keyboard-response","35","310893","0.0-26.0-1.0","7888A2429F784143A381F03582A8DC5E","7888A2429F784143A381F03582A8DC5E","238a271b-99c7-4d54-9e5d-20abf3ebe9b6","54f8d589-66fc-4c65-830f-1dcc63bce8cc","{""participantId"":""7888A2429F784143A381F03582A8DC5E"",""assignmentId"":""238a271b-99c7-4d54-9e5d-20abf3ebe9b6"",""projectId"":""54f8d589-66fc-4c65-830f-1dcc63bce8cc""}","https://test12345.live/?participantId=7888A2429F784143A381F03582A8DC5E&assignmentId=238a271b-99c7-4d54-9e5d-20abf3ebe9b6&projectId=54f8d589-66fc-4c65-830f-1dcc63bce8cc","","null","<div style=""display: flex; justify-content: center; align-items: center;"">
                    <img src=""images/causal/causal_series_17/causal_series_17_b.jpg"" style=""width: 300px; height: 300px;"" />
                  </div>","null","",""
"","","","","","html-keyboard-response","36","313898","0.0-26.0-2.0","7888A2429F784143A381F03582A8DC5E","7888A2429F784143A381F03582A8DC5E","238a271b-99c7-4d54-9e5d-20abf3ebe9b6","54f8d589-66fc-4c65-830f-1dcc63bce8cc","{""participantId"":""7888A2429F784143A381F03582A8DC5E"",""assignmentId"":""238a271b-99c7-4d54-9e5d-20abf3ebe9b6"",""projectId"":""54f8d589-66fc-4c65-830f-1dcc63bce8cc""}","https://test12345.live/?participantId=7888A2429F784143A381F03582A8DC5E&assignmentId=238a271b-99c7-4d54-9e5d-20abf3ebe9b6&projectId=54f8d589-66fc-4c65-830f-1dcc63bce8cc","","null","<div style=""display: flex; justify-content: center; align-items: center;"">
                    <img src=""images/causal/causal_series_17/causal_series_17_c.jpg"" style=""width: 300px; height: 300px;"" />
                  </div>","null","",""
"","","","","","html-keyboard-response","37","316899","0.0-26.0-3.0","7888A2429F784143A381F03582A8DC5E","7888A2429F784143A381F03582A8DC5E","238a271b-99c7-4d54-9e5d-20abf3ebe9b6","54f8d589-66fc-4c65-830f-1dcc63bce8cc","{""participantId"":""7888A2429F784143A381F03582A8DC5E"",""assignmentId"":""238a271b-99c7-4d54-9e5d-20abf3ebe9b6"",""projectId"":""54f8d589-66fc-4c65-830f-1dcc63bce8cc""}","https://test12345.live/?participantId=7888A2429F784143A381F03582A8DC5E&assignmentId=238a271b-99c7-4d54-9e5d-20abf3ebe9b6&projectId=54f8d589-66fc-4c65-830f-1dcc63bce8cc","","null","<div style=""display: flex; justify-content: center; align-items: center;"">
                    <img src=""images/causal/causal_series_17/causal_series_17_d.jpg"" style=""width: 300px; height: 300px;"" />
                  </div>","null","",""
"","","","","","html-button-response","38","318866","0.0-28.0","7888A2429F784143A381F03582A8DC5E","7888A2429F784143A381F03582A8DC5E","238a271b-99c7-4d54-9e5d-20abf3ebe9b6","54f8d589-66fc-4c65-830f-1dcc63bce8cc","{""participantId"":""7888A2429F784143A381F03582A8DC5E"",""assignmentId"":""238a271b-99c7-4d54-9e5d-20abf3ebe9b6"",""projectId"":""54f8d589-66fc-4c65-830f-1dcc63bce8cc""}","https://test12345.live/?participantId=7888A2429F784143A381F03582A8DC5E&assignmentId=238a271b-99c7-4d54-9e5d-20abf3ebe9b6&projectId=54f8d589-66fc-4c65-830f-1dcc63bce8cc","","1966","Was there a person in the picture?","0","",""
"","","","","","survey-likert","39","320264","0.0-29.0","7888A2429F784143A381F03582A8DC5E","7888A2429F784143A381F03582A8DC5E","238a271b-99c7-4d54-9e5d-20abf3ebe9b6","54f8d589-66fc-4c65-830f-1dcc63bce8cc","{""participantId"":""7888A2429F784143A381F03582A8DC5E"",""assignmentId"":""238a271b-99c7-4d54-9e5d-20abf3ebe9b6"",""projectId"":""54f8d589-66fc-4c65-830f-1dcc63bce8cc""}","https://test12345.live/?participantId=7888A2429F784143A381F03582A8DC5E&assignmentId=238a271b-99c7-4d54-9e5d-20abf3ebe9b6&projectId=54f8d589-66fc-4c65-830f-1dcc63bce8cc","","1398","","{""Q0"":2}","","[0]"
"","","","","","html-button-response","40","324635","0.0-30.0","7888A2429F784143A381F03582A8DC5E","7888A2429F784143A381F03582A8DC5E","238a271b-99c7-4d54-9e5d-20abf3ebe9b6","54f8d589-66fc-4c65-830f-1dcc63bce8cc","{""participantId"":""7888A2429F784143A381F03582A8DC5E"",""assignmentId"":""238a271b-99c7-4d54-9e5d-20abf3ebe9b6"",""projectId"":""54f8d589-66fc-4c65-830f-1dcc63bce8cc""}","https://test12345.live/?participantId=7888A2429F784143A381F03582A8DC5E&assignmentId=238a271b-99c7-4d54-9e5d-20abf3ebe9b6&projectId=54f8d589-66fc-4c65-830f-1dcc63bce8cc","","4370","
    <div style=""display: flex; justify-content: center; align-items: center;"">
      <img src=""images/red_deck_2.png"" style=""width: 300px; height: 300px; margin-right: 10px;"" />
      <img src=""images/blue_deck_1.png"" style=""width: 300px; height: 300px;"" />
    </div>","0","0",""
"","","","","","html-keyboard-response","41","327637","0.0-31.0-0.0","7888A2429F784143A381F03582A8DC5E","7888A2429F784143A381F03582A8DC5E","238a271b-99c7-4d54-9e5d-20abf3ebe9b6","54f8d589-66fc-4c65-830f-1dcc63bce8cc","{""participantId"":""7888A2429F784143A381F03582A8DC5E"",""assignmentId"":""238a271b-99c7-4d54-9e5d-20abf3ebe9b6"",""projectId"":""54f8d589-66fc-4c65-830f-1dcc63bce8cc""}","https://test12345.live/?participantId=7888A2429F784143A381F03582A8DC5E&assignmentId=238a271b-99c7-4d54-9e5d-20abf3ebe9b6&projectId=54f8d589-66fc-4c65-830f-1dcc63bce8cc","","null","<div style=""display: flex; justify-content: center; align-items: center;"">
                    <img src=""images/causal/causal_series_11/causal_series_11_a.jpg"" style=""width: 300px; height: 300px;"" />
                  </div>","null","",""
"","","","","","html-keyboard-response","42","330647","0.0-31.0-1.0","7888A2429F784143A381F03582A8DC5E","7888A2429F784143A381F03582A8DC5E","238a271b-99c7-4d54-9e5d-20abf3ebe9b6","54f8d589-66fc-4c65-830f-1dcc63bce8cc","{""participantId"":""7888A2429F784143A381F03582A8DC5E"",""assignmentId"":""238a271b-99c7-4d54-9e5d-20abf3ebe9b6"",""projectId"":""54f8d589-66fc-4c65-830f-1dcc63bce8cc""}","https://test12345.live/?participantId=7888A2429F784143A381F03582A8DC5E&assignmentId=238a271b-99c7-4d54-9e5d-20abf3ebe9b6&projectId=54f8d589-66fc-4c65-830f-1dcc63bce8cc","","null","<div style=""display: flex; justify-content: center; align-items: center;"">
                    <img src=""images/causal/causal_series_11/causal_series_11_b.jpg"" style=""width: 300px; height: 300px;"" />
                  </div>","null","",""
"","","","","","html-keyboard-response","43","333655","0.0-31.0-2.0","7888A2429F784143A381F03582A8DC5E","7888A2429F784143A381F03582A8DC5E","238a271b-99c7-4d54-9e5d-20abf3ebe9b6","54f8d589-66fc-4c65-830f-1dcc63bce8cc","{""participantId"":""7888A2429F784143A381F03582A8DC5E"",""assignmentId"":""238a271b-99c7-4d54-9e5d-20abf3ebe9b6"",""projectId"":""54f8d589-66fc-4c65-830f-1dcc63bce8cc""}","https://test12345.live/?participantId=7888A2429F784143A381F03582A8DC5E&assignmentId=238a271b-99c7-4d54-9e5d-20abf3ebe9b6&projectId=54f8d589-66fc-4c65-830f-1dcc63bce8cc","","null","<div style=""display: flex; justify-content: center; align-items: center;"">
                    <img src=""images/causal/causal_series_11/causal_series_11_c.jpg"" style=""width: 300px; height: 300px;"" />
                  </div>","null","",""
"","","","","","html-keyboard-response","44","336669","0.0-31.0-3.0","7888A2429F784143A381F03582A8DC5E","7888A2429F784143A381F03582A8DC5E","238a271b-99c7-4d54-9e5d-20abf3ebe9b6","54f8d589-66fc-4c65-830f-1dcc63bce8cc","{""participantId"":""7888A2429F784143A381F03582A8DC5E"",""assignmentId"":""238a271b-99c7-4d54-9e5d-20abf3ebe9b6"",""projectId"":""54f8d589-66fc-4c65-830f-1dcc63bce8cc""}","https://test12345.live/?participantId=7888A2429F784143A381F03582A8DC5E&assignmentId=238a271b-99c7-4d54-9e5d-20abf3ebe9b6&projectId=54f8d589-66fc-4c65-830f-1dcc63bce8cc","","null","<div style=""display: flex; justify-content: center; align-items: center;"">
                    <img src=""images/causal/causal_series_11/causal_series_11_d.jpg"" style=""width: 300px; height: 300px;"" />
                  </div>","null","",""
"","","","","","html-button-response","45","338961","0.0-33.0","7888A2429F784143A381F03582A8DC5E","7888A2429F784143A381F03582A8DC5E","238a271b-99c7-4d54-9e5d-20abf3ebe9b6","54f8d589-66fc-4c65-830f-1dcc63bce8cc","{""participantId"":""7888A2429F784143A381F03582A8DC5E"",""assignmentId"":""238a271b-99c7-4d54-9e5d-20abf3ebe9b6"",""projectId"":""54f8d589-66fc-4c65-830f-1dcc63bce8cc""}","https://test12345.live/?participantId=7888A2429F784143A381F03582A8DC5E&assignmentId=238a271b-99c7-4d54-9e5d-20abf3ebe9b6&projectId=54f8d589-66fc-4c65-830f-1dcc63bce8cc","","2292","Was there a person in the picture?","0","",""
"","","","","","survey-likert","46","350557","0.0-34.0","7888A2429F784143A381F03582A8DC5E","7888A2429F784143A381F03582A8DC5E","238a271b-99c7-4d54-9e5d-20abf3ebe9b6","54f8d589-66fc-4c65-830f-1dcc63bce8cc","{""participantId"":""7888A2429F784143A381F03582A8DC5E"",""assignmentId"":""238a271b-99c7-4d54-9e5d-20abf3ebe9b6"",""projectId"":""54f8d589-66fc-4c65-830f-1dcc63bce8cc""}","https://test12345.live/?participantId=7888A2429F784143A381F03582A8DC5E&assignmentId=238a271b-99c7-4d54-9e5d-20abf3ebe9b6&projectId=54f8d589-66fc-4c65-830f-1dcc63bce8cc","","11595","","{""Q0"":2}","","[0]"
"","","","","","html-button-response","47","351384","0.0-35.0","7888A2429F784143A381F03582A8DC5E","7888A2429F784143A381F03582A8DC5E","238a271b-99c7-4d54-9e5d-20abf3ebe9b6","54f8d589-66fc-4c65-830f-1dcc63bce8cc","{""participantId"":""7888A2429F784143A381F03582A8DC5E"",""assignmentId"":""238a271b-99c7-4d54-9e5d-20abf3ebe9b6"",""projectId"":""54f8d589-66fc-4c65-830f-1dcc63bce8cc""}","https://test12345.live/?participantId=7888A2429F784143A381F03582A8DC5E&assignmentId=238a271b-99c7-4d54-9e5d-20abf3ebe9b6&projectId=54f8d589-66fc-4c65-830f-1dcc63bce8cc","","826","
    <div style=""display: flex; justify-content: center; align-items: center;"">
      <img src=""images/red_deck_2.png"" style=""width: 300px; height: 300px; margin-right: 10px;"" />
      <img src=""images/blue_deck_1.png"" style=""width: 300px; height: 300px;"" />
    </div>","0","0",""
"","","","","","html-keyboard-response","48","354399","0.0-36.0-0.0","7888A2429F784143A381F03582A8DC5E","7888A2429F784143A381F03582A8DC5E","238a271b-99c7-4d54-9e5d-20abf3ebe9b6","54f8d589-66fc-4c65-830f-1dcc63bce8cc","{""participantId"":""7888A2429F784143A381F03582A8DC5E"",""assignmentId"":""238a271b-99c7-4d54-9e5d-20abf3ebe9b6"",""projectId"":""54f8d589-66fc-4c65-830f-1dcc63bce8cc""}","https://test12345.live/?participantId=7888A2429F784143A381F03582A8DC5E&assignmentId=238a271b-99c7-4d54-9e5d-20abf3ebe9b6&projectId=54f8d589-66fc-4c65-830f-1dcc63bce8cc","","null","<div style=""display: flex; justify-content: center; align-items: center;"">
                    <img src=""images/causal/causal_series_7/causal_series_7_a.jpg"" style=""width: 300px; height: 300px;"" />
                  </div>","null","",""
"","","","","","html-keyboard-response","49","357402","0.0-36.0-1.0","7888A2429F784143A381F03582A8DC5E","7888A2429F784143A381F03582A8DC5E","238a271b-99c7-4d54-9e5d-20abf3ebe9b6","54f8d589-66fc-4c65-830f-1dcc63bce8cc","{""participantId"":""7888A2429F784143A381F03582A8DC5E"",""assignmentId"":""238a271b-99c7-4d54-9e5d-20abf3ebe9b6"",""projectId"":""54f8d589-66fc-4c65-830f-1dcc63bce8cc""}","https://test12345.live/?participantId=7888A2429F784143A381F03582A8DC5E&assignmentId=238a271b-99c7-4d54-9e5d-20abf3ebe9b6&projectId=54f8d589-66fc-4c65-830f-1dcc63bce8cc","","null","<div style=""display: flex; justify-content: center; align-items: center;"">
                    <img src=""images/causal/causal_series_7/causal_series_7_b.jpg"" style=""width: 300px; height: 300px;"" />
                  </div>","null","",""
"","","","","","html-keyboard-response","50","360410","0.0-36.0-2.0","7888A2429F784143A381F03582A8DC5E","7888A2429F784143A381F03582A8DC5E","238a271b-99c7-4d54-9e5d-20abf3ebe9b6","54f8d589-66fc-4c65-830f-1dcc63bce8cc","{""participantId"":""7888A2429F784143A381F03582A8DC5E"",""assignmentId"":""238a271b-99c7-4d54-9e5d-20abf3ebe9b6"",""projectId"":""54f8d589-66fc-4c65-830f-1dcc63bce8cc""}","https://test12345.live/?participantId=7888A2429F784143A381F03582A8DC5E&assignmentId=238a271b-99c7-4d54-9e5d-20abf3ebe9b6&projectId=54f8d589-66fc-4c65-830f-1dcc63bce8cc","","null","<div style=""display: flex; justify-content: center; align-items: center;"">
                    <img src=""images/causal/causal_series_7/causal_series_7_c.jpg"" style=""width: 300px; height: 300px;"" />
                  </div>","null","",""
"","","","","","html-keyboard-response","51","363421","0.0-36.0-3.0","7888A2429F784143A381F03582A8DC5E","7888A2429F784143A381F03582A8DC5E","238a271b-99c7-4d54-9e5d-20abf3ebe9b6","54f8d589-66fc-4c65-830f-1dcc63bce8cc","{""participantId"":""7888A2429F784143A381F03582A8DC5E"",""assignmentId"":""238a271b-99c7-4d54-9e5d-20abf3ebe9b6"",""projectId"":""54f8d589-66fc-4c65-830f-1dcc63bce8cc""}","https://test12345.live/?participantId=7888A2429F784143A381F03582A8DC5E&assignmentId=238a271b-99c7-4d54-9e5d-20abf3ebe9b6&projectId=54f8d589-66fc-4c65-830f-1dcc63bce8cc","","null","<div style=""display: flex; justify-content: center; align-items: center;"">
                    <img src=""images/causal/causal_series_7/causal_series_7_d.jpg"" style=""width: 300px; height: 300px;"" />
                  </div>","null","",""
"","","","","","html-button-response","52","364889","0.0-38.0","7888A2429F784143A381F03582A8DC5E","7888A2429F784143A381F03582A8DC5E","238a271b-99c7-4d54-9e5d-20abf3ebe9b6","54f8d589-66fc-4c65-830f-1dcc63bce8cc","{""participantId"":""7888A2429F784143A381F03582A8DC5E"",""assignmentId"":""238a271b-99c7-4d54-9e5d-20abf3ebe9b6"",""projectId"":""54f8d589-66fc-4c65-830f-1dcc63bce8cc""}","https://test12345.live/?participantId=7888A2429F784143A381F03582A8DC5E&assignmentId=238a271b-99c7-4d54-9e5d-20abf3ebe9b6&projectId=54f8d589-66fc-4c65-830f-1dcc63bce8cc","","1467","Was there a person in the picture?","1","",""
"","","","","","survey-likert","53","366842","0.0-39.0","7888A2429F784143A381F03582A8DC5E","7888A2429F784143A381F03582A8DC5E","238a271b-99c7-4d54-9e5d-20abf3ebe9b6","54f8d589-66fc-4c65-830f-1dcc63bce8cc","{""participantId"":""7888A2429F784143A381F03582A8DC5E"",""assignmentId"":""238a271b-99c7-4d54-9e5d-20abf3ebe9b6"",""projectId"":""54f8d589-66fc-4c65-830f-1dcc63bce8cc""}","https://test12345.live/?participantId=7888A2429F784143A381F03582A8DC5E&assignmentId=238a271b-99c7-4d54-9e5d-20abf3ebe9b6&projectId=54f8d589-66fc-4c65-830f-1dcc63bce8cc","","1953","","{""Q0"":2}","","[0]"
"","","","","","html-button-response","54","368242","0.0-40.0","7888A2429F784143A381F03582A8DC5E","7888A2429F784143A381F03582A8DC5E","238a271b-99c7-4d54-9e5d-20abf3ebe9b6","54f8d589-66fc-4c65-830f-1dcc63bce8cc","{""participantId"":""7888A2429F784143A381F03582A8DC5E"",""assignmentId"":""238a271b-99c7-4d54-9e5d-20abf3ebe9b6"",""projectId"":""54f8d589-66fc-4c65-830f-1dcc63bce8cc""}","https://test12345.live/?participantId=7888A2429F784143A381F03582A8DC5E&assignmentId=238a271b-99c7-4d54-9e5d-20abf3ebe9b6&projectId=54f8d589-66fc-4c65-830f-1dcc63bce8cc","","1399","
    <div style=""display: flex; justify-content: center; align-items: center;"">
      <img src=""images/red_deck_2.png"" style=""width: 300px; height: 300px; margin-right: 10px;"" />
      <img src=""images/blue_deck_1.png"" style=""width: 300px; height: 300px;"" />
    </div>","0","0",""
"","","","","","html-keyboard-response","55","371242","0.0-41.0-0.0","7888A2429F784143A381F03582A8DC5E","7888A2429F784143A381F03582A8DC5E","238a271b-99c7-4d54-9e5d-20abf3ebe9b6","54f8d589-66fc-4c65-830f-1dcc63bce8cc","{""participantId"":""7888A2429F784143A381F03582A8DC5E"",""assignmentId"":""238a271b-99c7-4d54-9e5d-20abf3ebe9b6"",""projectId"":""54f8d589-66fc-4c65-830f-1dcc63bce8cc""}","https://test12345.live/?participantId=7888A2429F784143A381F03582A8DC5E&assignmentId=238a271b-99c7-4d54-9e5d-20abf3ebe9b6&projectId=54f8d589-66fc-4c65-830f-1dcc63bce8cc","","null","<div style=""display: flex; justify-content: center; align-items: center;"">
                    <img src=""images/causal/causal_series_12/causal_series_12_a.jpg"" style=""width: 300px; height: 300px;"" />
                  </div>","null","",""
"","","","","","html-keyboard-response","56","374255","0.0-41.0-1.0","7888A2429F784143A381F03582A8DC5E","7888A2429F784143A381F03582A8DC5E","238a271b-99c7-4d54-9e5d-20abf3ebe9b6","54f8d589-66fc-4c65-830f-1dcc63bce8cc","{""participantId"":""7888A2429F784143A381F03582A8DC5E"",""assignmentId"":""238a271b-99c7-4d54-9e5d-20abf3ebe9b6"",""projectId"":""54f8d589-66fc-4c65-830f-1dcc63bce8cc""}","https://test12345.live/?participantId=7888A2429F784143A381F03582A8DC5E&assignmentId=238a271b-99c7-4d54-9e5d-20abf3ebe9b6&projectId=54f8d589-66fc-4c65-830f-1dcc63bce8cc","","null","<div style=""display: flex; justify-content: center; align-items: center;"">
                    <img src=""images/causal/causal_series_12/causal_series_12_b.jpg"" style=""width: 300px; height: 300px;"" />
                  </div>","null","",""
"","","","","","html-keyboard-response","57","377267","0.0-41.0-2.0","7888A2429F784143A381F03582A8DC5E","7888A2429F784143A381F03582A8DC5E","238a271b-99c7-4d54-9e5d-20abf3ebe9b6","54f8d589-66fc-4c65-830f-1dcc63bce8cc","{""participantId"":""7888A2429F784143A381F03582A8DC5E"",""assignmentId"":""238a271b-99c7-4d54-9e5d-20abf3ebe9b6"",""projectId"":""54f8d589-66fc-4c65-830f-1dcc63bce8cc""}","https://test12345.live/?participantId=7888A2429F784143A381F03582A8DC5E&assignmentId=238a271b-99c7-4d54-9e5d-20abf3ebe9b6&projectId=54f8d589-66fc-4c65-830f-1dcc63bce8cc","","null","<div style=""display: flex; justify-content: center; align-items: center;"">
                    <img src=""images/causal/causal_series_12/causal_series_12_c.jpg"" style=""width: 300px; height: 300px;"" />
                  </div>","null","",""
"","","","","","html-keyboard-response","58","380270","0.0-41.0-3.0","7888A2429F784143A381F03582A8DC5E","7888A2429F784143A381F03582A8DC5E","238a271b-99c7-4d54-9e5d-20abf3ebe9b6","54f8d589-66fc-4c65-830f-1dcc63bce8cc","{""participantId"":""7888A2429F784143A381F03582A8DC5E"",""assignmentId"":""238a271b-99c7-4d54-9e5d-20abf3ebe9b6"",""projectId"":""54f8d589-66fc-4c65-830f-1dcc63bce8cc""}","https://test12345.live/?participantId=7888A2429F784143A381F03582A8DC5E&assignmentId=238a271b-99c7-4d54-9e5d-20abf3ebe9b6&projectId=54f8d589-66fc-4c65-830f-1dcc63bce8cc","","null","<div style=""display: flex; justify-content: center; align-items: center;"">
                    <img src=""images/causal/causal_series_12/causal_series_12_d.jpg"" style=""width: 300px; height: 300px;"" />
                  </div>","null","",""
"","","","","","html-button-response","59","381433","0.0-43.0","7888A2429F784143A381F03582A8DC5E","7888A2429F784143A381F03582A8DC5E","238a271b-99c7-4d54-9e5d-20abf3ebe9b6","54f8d589-66fc-4c65-830f-1dcc63bce8cc","{""participantId"":""7888A2429F784143A381F03582A8DC5E"",""assignmentId"":""238a271b-99c7-4d54-9e5d-20abf3ebe9b6"",""projectId"":""54f8d589-66fc-4c65-830f-1dcc63bce8cc""}","https://test12345.live/?participantId=7888A2429F784143A381F03582A8DC5E&assignmentId=238a271b-99c7-4d54-9e5d-20abf3ebe9b6&projectId=54f8d589-66fc-4c65-830f-1dcc63bce8cc","","1162","Was there a person in the picture?","1","",""
"","","","","","survey-likert","60","382853","0.0-44.0","7888A2429F784143A381F03582A8DC5E","7888A2429F784143A381F03582A8DC5E","238a271b-99c7-4d54-9e5d-20abf3ebe9b6","54f8d589-66fc-4c65-830f-1dcc63bce8cc","{""participantId"":""7888A2429F784143A381F03582A8DC5E"",""assignmentId"":""238a271b-99c7-4d54-9e5d-20abf3ebe9b6"",""projectId"":""54f8d589-66fc-4c65-830f-1dcc63bce8cc""}","https://test12345.live/?participantId=7888A2429F784143A381F03582A8DC5E&assignmentId=238a271b-99c7-4d54-9e5d-20abf3ebe9b6&projectId=54f8d589-66fc-4c65-830f-1dcc63bce8cc","","1420","","{""Q0"":2}","","[0]"
"","","","","","html-button-response","61","383580","0.0-45.0","7888A2429F784143A381F03582A8DC5E","7888A2429F784143A381F03582A8DC5E","238a271b-99c7-4d54-9e5d-20abf3ebe9b6","54f8d589-66fc-4c65-830f-1dcc63bce8cc","{""participantId"":""7888A2429F784143A381F03582A8DC5E"",""assignmentId"":""238a271b-99c7-4d54-9e5d-20abf3ebe9b6"",""projectId"":""54f8d589-66fc-4c65-830f-1dcc63bce8cc""}","https://test12345.live/?participantId=7888A2429F784143A381F03582A8DC5E&assignmentId=238a271b-99c7-4d54-9e5d-20abf3ebe9b6&projectId=54f8d589-66fc-4c65-830f-1dcc63bce8cc","","727","
    <div style=""display: flex; justify-content: center; align-items: center;"">
      <img src=""images/red_deck_2.png"" style=""width: 300px; height: 300px; margin-right: 10px;"" />
      <img src=""images/blue_deck_1.png"" style=""width: 300px; height: 300px;"" />
    </div>","0","0",""
"","","","","","html-keyboard-response","62","386586","0.0-46.0-0.0","7888A2429F784143A381F03582A8DC5E","7888A2429F784143A381F03582A8DC5E","238a271b-99c7-4d54-9e5d-20abf3ebe9b6","54f8d589-66fc-4c65-830f-1dcc63bce8cc","{""participantId"":""7888A2429F784143A381F03582A8DC5E"",""assignmentId"":""238a271b-99c7-4d54-9e5d-20abf3ebe9b6"",""projectId"":""54f8d589-66fc-4c65-830f-1dcc63bce8cc""}","https://test12345.live/?participantId=7888A2429F784143A381F03582A8DC5E&assignmentId=238a271b-99c7-4d54-9e5d-20abf3ebe9b6&projectId=54f8d589-66fc-4c65-830f-1dcc63bce8cc","","null","<div style=""display: flex; justify-content: center; align-items: center;"">
                    <img src=""images/causal/causal_series_2/causal_series_2_a.jpg"" style=""width: 300px; height: 300px;"" />
                  </div>","null","",""
"","","","","","html-keyboard-response","63","389598","0.0-46.0-1.0","7888A2429F784143A381F03582A8DC5E","7888A2429F784143A381F03582A8DC5E","238a271b-99c7-4d54-9e5d-20abf3ebe9b6","54f8d589-66fc-4c65-830f-1dcc63bce8cc","{""participantId"":""7888A2429F784143A381F03582A8DC5E"",""assignmentId"":""238a271b-99c7-4d54-9e5d-20abf3ebe9b6"",""projectId"":""54f8d589-66fc-4c65-830f-1dcc63bce8cc""}","https://test12345.live/?participantId=7888A2429F784143A381F03582A8DC5E&assignmentId=238a271b-99c7-4d54-9e5d-20abf3ebe9b6&projectId=54f8d589-66fc-4c65-830f-1dcc63bce8cc","","null","<div style=""display: flex; justify-content: center; align-items: center;"">
                    <img src=""images/causal/causal_series_2/causal_series_2_b.jpg"" style=""width: 300px; height: 300px;"" />
                  </div>","null","",""
"","","","","","html-keyboard-response","64","392607","0.0-46.0-2.0","7888A2429F784143A381F03582A8DC5E","7888A2429F784143A381F03582A8DC5E","238a271b-99c7-4d54-9e5d-20abf3ebe9b6","54f8d589-66fc-4c65-830f-1dcc63bce8cc","{""participantId"":""7888A2429F784143A381F03582A8DC5E"",""assignmentId"":""238a271b-99c7-4d54-9e5d-20abf3ebe9b6"",""projectId"":""54f8d589-66fc-4c65-830f-1dcc63bce8cc""}","https://test12345.live/?participantId=7888A2429F784143A381F03582A8DC5E&assignmentId=238a271b-99c7-4d54-9e5d-20abf3ebe9b6&projectId=54f8d589-66fc-4c65-830f-1dcc63bce8cc","","null","<div style=""display: flex; justify-content: center; align-items: center;"">
                    <img src=""images/causal/causal_series_2/causal_series_2_c.jpg"" style=""width: 300px; height: 300px;"" />
                  </div>","null","",""
"","","","","","html-keyboard-response","65","395621","0.0-46.0-3.0","7888A2429F784143A381F03582A8DC5E","7888A2429F784143A381F03582A8DC5E","238a271b-99c7-4d54-9e5d-20abf3ebe9b6","54f8d589-66fc-4c65-830f-1dcc63bce8cc","{""participantId"":""7888A2429F784143A381F03582A8DC5E"",""assignmentId"":""238a271b-99c7-4d54-9e5d-20abf3ebe9b6"",""projectId"":""54f8d589-66fc-4c65-830f-1dcc63bce8cc""}","https://test12345.live/?participantId=7888A2429F784143A381F03582A8DC5E&assignmentId=238a271b-99c7-4d54-9e5d-20abf3ebe9b6&projectId=54f8d589-66fc-4c65-830f-1dcc63bce8cc","","null","<div style=""display: flex; justify-content: center; align-items: center;"">
                    <img src=""images/causal/causal_series_2/causal_series_2_d.jpg"" style=""width: 300px; height: 300px;"" />
                  </div>","null","",""
"","","","","","html-button-response","66","396543","0.0-48.0","7888A2429F784143A381F03582A8DC5E","7888A2429F784143A381F03582A8DC5E","238a271b-99c7-4d54-9e5d-20abf3ebe9b6","54f8d589-66fc-4c65-830f-1dcc63bce8cc","{""participantId"":""7888A2429F784143A381F03582A8DC5E"",""assignmentId"":""238a271b-99c7-4d54-9e5d-20abf3ebe9b6"",""projectId"":""54f8d589-66fc-4c65-830f-1dcc63bce8cc""}","https://test12345.live/?participantId=7888A2429F784143A381F03582A8DC5E&assignmentId=238a271b-99c7-4d54-9e5d-20abf3ebe9b6&projectId=54f8d589-66fc-4c65-830f-1dcc63bce8cc","","922","Was there a person in the picture?","0","",""
"","","","","","survey-likert","67","398070","0.0-49.0","7888A2429F784143A381F03582A8DC5E","7888A2429F784143A381F03582A8DC5E","238a271b-99c7-4d54-9e5d-20abf3ebe9b6","54f8d589-66fc-4c65-830f-1dcc63bce8cc","{""participantId"":""7888A2429F784143A381F03582A8DC5E"",""assignmentId"":""238a271b-99c7-4d54-9e5d-20abf3ebe9b6"",""projectId"":""54f8d589-66fc-4c65-830f-1dcc63bce8cc""}","https://test12345.live/?participantId=7888A2429F784143A381F03582A8DC5E&assignmentId=238a271b-99c7-4d54-9e5d-20abf3ebe9b6&projectId=54f8d589-66fc-4c65-830f-1dcc63bce8cc","","1527","","{""Q0"":2}","","[0]"
"","","","","","html-button-response","68","398773","0.0-50.0","7888A2429F784143A381F03582A8DC5E","7888A2429F784143A381F03582A8DC5E","238a271b-99c7-4d54-9e5d-20abf3ebe9b6","54f8d589-66fc-4c65-830f-1dcc63bce8cc","{""participantId"":""7888A2429F784143A381F03582A8DC5E"",""assignmentId"":""238a271b-99c7-4d54-9e5d-20abf3ebe9b6"",""projectId"":""54f8d589-66fc-4c65-830f-1dcc63bce8cc""}","https://test12345.live/?participantId=7888A2429F784143A381F03582A8DC5E&assignmentId=238a271b-99c7-4d54-9e5d-20abf3ebe9b6&projectId=54f8d589-66fc-4c65-830f-1dcc63bce8cc","","703","
    <div style=""display: flex; justify-content: center; align-items: center;"">
      <img src=""images/red_deck_2.png"" style=""width: 300px; height: 300px; margin-right: 10px;"" />
      <img src=""images/blue_deck_1.png"" style=""width: 300px; height: 300px;"" />
    </div>","0","0",""
"","","","","","html-keyboard-response","69","401782","0.0-51.0-0.0","7888A2429F784143A381F03582A8DC5E","7888A2429F784143A381F03582A8DC5E","238a271b-99c7-4d54-9e5d-20abf3ebe9b6","54f8d589-66fc-4c65-830f-1dcc63bce8cc","{""participantId"":""7888A2429F784143A381F03582A8DC5E"",""assignmentId"":""238a271b-99c7-4d54-9e5d-20abf3ebe9b6"",""projectId"":""54f8d589-66fc-4c65-830f-1dcc63bce8cc""}","https://test12345.live/?participantId=7888A2429F784143A381F03582A8DC5E&assignmentId=238a271b-99c7-4d54-9e5d-20abf3ebe9b6&projectId=54f8d589-66fc-4c65-830f-1dcc63bce8cc","","null","<div style=""display: flex; justify-content: center; align-items: center;"">
                    <img src=""images/causal/causal_series_1/causal_series_1_a.jpg"" style=""width: 300px; height: 300px;"" />
                  </div>","null","",""
"","","","","","html-keyboard-response","70","404794","0.0-51.0-1.0","7888A2429F784143A381F03582A8DC5E","7888A2429F784143A381F03582A8DC5E","238a271b-99c7-4d54-9e5d-20abf3ebe9b6","54f8d589-66fc-4c65-830f-1dcc63bce8cc","{""participantId"":""7888A2429F784143A381F03582A8DC5E"",""assignmentId"":""238a271b-99c7-4d54-9e5d-20abf3ebe9b6"",""projectId"":""54f8d589-66fc-4c65-830f-1dcc63bce8cc""}","https://test12345.live/?participantId=7888A2429F784143A381F03582A8DC5E&assignmentId=238a271b-99c7-4d54-9e5d-20abf3ebe9b6&projectId=54f8d589-66fc-4c65-830f-1dcc63bce8cc","","null","<div style=""display: flex; justify-content: center; align-items: center;"">
                    <img src=""images/causal/causal_series_1/causal_series_1_b.jpg"" style=""width: 300px; height: 300px;"" />
                  </div>","null","",""
"","","","","","html-keyboard-response","71","407803","0.0-51.0-2.0","7888A2429F784143A381F03582A8DC5E","7888A2429F784143A381F03582A8DC5E","238a271b-99c7-4d54-9e5d-20abf3ebe9b6","54f8d589-66fc-4c65-830f-1dcc63bce8cc","{""participantId"":""7888A2429F784143A381F03582A8DC5E"",""assignmentId"":""238a271b-99c7-4d54-9e5d-20abf3ebe9b6"",""projectId"":""54f8d589-66fc-4c65-830f-1dcc63bce8cc""}","https://test12345.live/?participantId=7888A2429F784143A381F03582A8DC5E&assignmentId=238a271b-99c7-4d54-9e5d-20abf3ebe9b6&projectId=54f8d589-66fc-4c65-830f-1dcc63bce8cc","","null","<div style=""display: flex; justify-content: center; align-items: center;"">
                    <img src=""images/causal/causal_series_1/causal_series_1_c.jpg"" style=""width: 300px; height: 300px;"" />
                  </div>","null","",""
"","","","","","html-keyboard-response","72","410811","0.0-51.0-3.0","7888A2429F784143A381F03582A8DC5E","7888A2429F784143A381F03582A8DC5E","238a271b-99c7-4d54-9e5d-20abf3ebe9b6","54f8d589-66fc-4c65-830f-1dcc63bce8cc","{""participantId"":""7888A2429F784143A381F03582A8DC5E"",""assignmentId"":""238a271b-99c7-4d54-9e5d-20abf3ebe9b6"",""projectId"":""54f8d589-66fc-4c65-830f-1dcc63bce8cc""}","https://test12345.live/?participantId=7888A2429F784143A381F03582A8DC5E&assignmentId=238a271b-99c7-4d54-9e5d-20abf3ebe9b6&projectId=54f8d589-66fc-4c65-830f-1dcc63bce8cc","","null","<div style=""display: flex; justify-content: center; align-items: center;"">
                    <img src=""images/causal/causal_series_1/causal_series_1_d.jpg"" style=""width: 300px; height: 300px;"" />
                  </div>","null","",""
"","","","","","html-button-response","73","412573","0.0-53.0","7888A2429F784143A381F03582A8DC5E","7888A2429F784143A381F03582A8DC5E","238a271b-99c7-4d54-9e5d-20abf3ebe9b6","54f8d589-66fc-4c65-830f-1dcc63bce8cc","{""participantId"":""7888A2429F784143A381F03582A8DC5E"",""assignmentId"":""238a271b-99c7-4d54-9e5d-20abf3ebe9b6"",""projectId"":""54f8d589-66fc-4c65-830f-1dcc63bce8cc""}","https://test12345.live/?participantId=7888A2429F784143A381F03582A8DC5E&assignmentId=238a271b-99c7-4d54-9e5d-20abf3ebe9b6&projectId=54f8d589-66fc-4c65-830f-1dcc63bce8cc","","1762","Was there a person in the picture?","0","",""
"","","","","","survey-likert","74","414069","0.0-54.0","7888A2429F784143A381F03582A8DC5E","7888A2429F784143A381F03582A8DC5E","238a271b-99c7-4d54-9e5d-20abf3ebe9b6","54f8d589-66fc-4c65-830f-1dcc63bce8cc","{""participantId"":""7888A2429F784143A381F03582A8DC5E"",""assignmentId"":""238a271b-99c7-4d54-9e5d-20abf3ebe9b6"",""projectId"":""54f8d589-66fc-4c65-830f-1dcc63bce8cc""}","https://test12345.live/?participantId=7888A2429F784143A381F03582A8DC5E&assignmentId=238a271b-99c7-4d54-9e5d-20abf3ebe9b6&projectId=54f8d589-66fc-4c65-830f-1dcc63bce8cc","","1496","","{""Q0"":2}","","[0]"
"","","","","","html-button-response","75","415065","0.0-55.0","7888A2429F784143A381F03582A8DC5E","7888A2429F784143A381F03582A8DC5E","238a271b-99c7-4d54-9e5d-20abf3ebe9b6","54f8d589-66fc-4c65-830f-1dcc63bce8cc","{""participantId"":""7888A2429F784143A381F03582A8DC5E"",""assignmentId"":""238a271b-99c7-4d54-9e5d-20abf3ebe9b6"",""projectId"":""54f8d589-66fc-4c65-830f-1dcc63bce8cc""}","https://test12345.live/?participantId=7888A2429F784143A381F03582A8DC5E&assignmentId=238a271b-99c7-4d54-9e5d-20abf3ebe9b6&projectId=54f8d589-66fc-4c65-830f-1dcc63bce8cc","","995","
    <div style=""display: flex; justify-content: center; align-items: center;"">
      <img src=""images/red_deck_2.png"" style=""width: 300px; height: 300px; margin-right: 10px;"" />
      <img src=""images/blue_deck_1.png"" style=""width: 300px; height: 300px;"" />
    </div>","0","0",""
"","","","","","html-keyboard-response","76","418076","0.0-56.0-0.0","7888A2429F784143A381F03582A8DC5E","7888A2429F784143A381F03582A8DC5E","238a271b-99c7-4d54-9e5d-20abf3ebe9b6","54f8d589-66fc-4c65-830f-1dcc63bce8cc","{""participantId"":""7888A2429F784143A381F03582A8DC5E"",""assignmentId"":""238a271b-99c7-4d54-9e5d-20abf3ebe9b6"",""projectId"":""54f8d589-66fc-4c65-830f-1dcc63bce8cc""}","https://test12345.live/?participantId=7888A2429F784143A381F03582A8DC5E&assignmentId=238a271b-99c7-4d54-9e5d-20abf3ebe9b6&projectId=54f8d589-66fc-4c65-830f-1dcc63bce8cc","","null","<div style=""display: flex; justify-content: center; align-items: center;"">
                    <img src=""images/causal/causal_series_4/causal_series_4_a.jpg"" style=""width: 300px; height: 300px;"" />
                  </div>","null","",""
"","","","","","html-keyboard-response","77","421081","0.0-56.0-1.0","7888A2429F784143A381F03582A8DC5E","7888A2429F784143A381F03582A8DC5E","238a271b-99c7-4d54-9e5d-20abf3ebe9b6","54f8d589-66fc-4c65-830f-1dcc63bce8cc","{""participantId"":""7888A2429F784143A381F03582A8DC5E"",""assignmentId"":""238a271b-99c7-4d54-9e5d-20abf3ebe9b6"",""projectId"":""54f8d589-66fc-4c65-830f-1dcc63bce8cc""}","https://test12345.live/?participantId=7888A2429F784143A381F03582A8DC5E&assignmentId=238a271b-99c7-4d54-9e5d-20abf3ebe9b6&projectId=54f8d589-66fc-4c65-830f-1dcc63bce8cc","","null","<div style=""display: flex; justify-content: center; align-items: center;"">
                    <img src=""images/causal/causal_series_4/causal_series_4_b.jpg"" style=""width: 300px; height: 300px;"" />
                  </div>","null","",""
"","","","","","html-keyboard-response","78","424092","0.0-56.0-2.0","7888A2429F784143A381F03582A8DC5E","7888A2429F784143A381F03582A8DC5E","238a271b-99c7-4d54-9e5d-20abf3ebe9b6","54f8d589-66fc-4c65-830f-1dcc63bce8cc","{""participantId"":""7888A2429F784143A381F03582A8DC5E"",""assignmentId"":""238a271b-99c7-4d54-9e5d-20abf3ebe9b6"",""projectId"":""54f8d589-66fc-4c65-830f-1dcc63bce8cc""}","https://test12345.live/?participantId=7888A2429F784143A381F03582A8DC5E&assignmentId=238a271b-99c7-4d54-9e5d-20abf3ebe9b6&projectId=54f8d589-66fc-4c65-830f-1dcc63bce8cc","","null","<div style=""display: flex; justify-content: center; align-items: center;"">
                    <img src=""images/causal/causal_series_4/causal_series_4_c.jpg"" style=""width: 300px; height: 300px;"" />
                  </div>","null","",""
"","","","","","html-keyboard-response","79","427104","0.0-56.0-3.0","7888A2429F784143A381F03582A8DC5E","7888A2429F784143A381F03582A8DC5E","238a271b-99c7-4d54-9e5d-20abf3ebe9b6","54f8d589-66fc-4c65-830f-1dcc63bce8cc","{""participantId"":""7888A2429F784143A381F03582A8DC5E"",""assignmentId"":""238a271b-99c7-4d54-9e5d-20abf3ebe9b6"",""projectId"":""54f8d589-66fc-4c65-830f-1dcc63bce8cc""}","https://test12345.live/?participantId=7888A2429F784143A381F03582A8DC5E&assignmentId=238a271b-99c7-4d54-9e5d-20abf3ebe9b6&projectId=54f8d589-66fc-4c65-830f-1dcc63bce8cc","","null","<div style=""display: flex; justify-content: center; align-items: center;"">
                    <img src=""images/causal/causal_series_4/causal_series_4_d.jpg"" style=""width: 300px; height: 300px;"" />
                  </div>","null","",""
"","","","","","html-button-response","80","430244","0.0-58.0","7888A2429F784143A381F03582A8DC5E","7888A2429F784143A381F03582A8DC5E","238a271b-99c7-4d54-9e5d-20abf3ebe9b6","54f8d589-66fc-4c65-830f-1dcc63bce8cc","{""participantId"":""7888A2429F784143A381F03582A8DC5E"",""assignmentId"":""238a271b-99c7-4d54-9e5d-20abf3ebe9b6"",""projectId"":""54f8d589-66fc-4c65-830f-1dcc63bce8cc""}","https://test12345.live/?participantId=7888A2429F784143A381F03582A8DC5E&assignmentId=238a271b-99c7-4d54-9e5d-20abf3ebe9b6&projectId=54f8d589-66fc-4c65-830f-1dcc63bce8cc","","3140","Was there a person in the picture?","1","",""
"","","","","","survey-likert","81","434368","0.0-59.0","7888A2429F784143A381F03582A8DC5E","7888A2429F784143A381F03582A8DC5E","238a271b-99c7-4d54-9e5d-20abf3ebe9b6","54f8d589-66fc-4c65-830f-1dcc63bce8cc","{""participantId"":""7888A2429F784143A381F03582A8DC5E"",""assignmentId"":""238a271b-99c7-4d54-9e5d-20abf3ebe9b6"",""projectId"":""54f8d589-66fc-4c65-830f-1dcc63bce8cc""}","https://test12345.live/?participantId=7888A2429F784143A381F03582A8DC5E&assignmentId=238a271b-99c7-4d54-9e5d-20abf3ebe9b6&projectId=54f8d589-66fc-4c65-830f-1dcc63bce8cc","","4124","","{""Q0"":2}","","[0]"
"","","","","","html-button-response","82","435155","0.0-60.0","7888A2429F784143A381F03582A8DC5E","7888A2429F784143A381F03582A8DC5E","238a271b-99c7-4d54-9e5d-20abf3ebe9b6","54f8d589-66fc-4c65-830f-1dcc63bce8cc","{""participantId"":""7888A2429F784143A381F03582A8DC5E"",""assignmentId"":""238a271b-99c7-4d54-9e5d-20abf3ebe9b6"",""projectId"":""54f8d589-66fc-4c65-830f-1dcc63bce8cc""}","https://test12345.live/?participantId=7888A2429F784143A381F03582A8DC5E&assignmentId=238a271b-99c7-4d54-9e5d-20abf3ebe9b6&projectId=54f8d589-66fc-4c65-830f-1dcc63bce8cc","","786","
    <div style=""display: flex; justify-content: center; align-items: center;"">
      <img src=""images/red_deck_2.png"" style=""width: 300px; height: 300px; margin-right: 10px;"" />
      <img src=""images/blue_deck_1.png"" style=""width: 300px; height: 300px;"" />
    </div>","0","0",""
"","","","","","html-keyboard-response","83","438161","0.0-61.0-0.0","7888A2429F784143A381F03582A8DC5E","7888A2429F784143A381F03582A8DC5E","238a271b-99c7-4d54-9e5d-20abf3ebe9b6","54f8d589-66fc-4c65-830f-1dcc63bce8cc","{""participantId"":""7888A2429F784143A381F03582A8DC5E"",""assignmentId"":""238a271b-99c7-4d54-9e5d-20abf3ebe9b6"",""projectId"":""54f8d589-66fc-4c65-830f-1dcc63bce8cc""}","https://test12345.live/?participantId=7888A2429F784143A381F03582A8DC5E&assignmentId=238a271b-99c7-4d54-9e5d-20abf3ebe9b6&projectId=54f8d589-66fc-4c65-830f-1dcc63bce8cc","","null","<div style=""display: flex; justify-content: center; align-items: center;"">
                    <img src=""images/causal/causal_series_16/causal_series_16_a.jpg"" style=""width: 300px; height: 300px;"" />
                  </div>","null","",""
"","","","","","html-keyboard-response","84","441165","0.0-61.0-1.0","7888A2429F784143A381F03582A8DC5E","7888A2429F784143A381F03582A8DC5E","238a271b-99c7-4d54-9e5d-20abf3ebe9b6","54f8d589-66fc-4c65-830f-1dcc63bce8cc","{""participantId"":""7888A2429F784143A381F03582A8DC5E"",""assignmentId"":""238a271b-99c7-4d54-9e5d-20abf3ebe9b6"",""projectId"":""54f8d589-66fc-4c65-830f-1dcc63bce8cc""}","https://test12345.live/?participantId=7888A2429F784143A381F03582A8DC5E&assignmentId=238a271b-99c7-4d54-9e5d-20abf3ebe9b6&projectId=54f8d589-66fc-4c65-830f-1dcc63bce8cc","","null","<div style=""display: flex; justify-content: center; align-items: center;"">
                    <img src=""images/causal/causal_series_16/causal_series_16_b.jpg"" style=""width: 300px; height: 300px;"" />
                  </div>","null","",""
"","","","","","html-keyboard-response","85","444180","0.0-61.0-2.0","7888A2429F784143A381F03582A8DC5E","7888A2429F784143A381F03582A8DC5E","238a271b-99c7-4d54-9e5d-20abf3ebe9b6","54f8d589-66fc-4c65-830f-1dcc63bce8cc","{""participantId"":""7888A2429F784143A381F03582A8DC5E"",""assignmentId"":""238a271b-99c7-4d54-9e5d-20abf3ebe9b6"",""projectId"":""54f8d589-66fc-4c65-830f-1dcc63bce8cc""}","https://test12345.live/?participantId=7888A2429F784143A381F03582A8DC5E&assignmentId=238a271b-99c7-4d54-9e5d-20abf3ebe9b6&projectId=54f8d589-66fc-4c65-830f-1dcc63bce8cc","","null","<div style=""display: flex; justify-content: center; align-items: center;"">
                    <img src=""images/causal/causal_series_16/causal_series_16_c.jpg"" style=""width: 300px; height: 300px;"" />
                  </div>","null","",""
"","","","","","html-keyboard-response","86","447182","0.0-61.0-3.0","7888A2429F784143A381F03582A8DC5E","7888A2429F784143A381F03582A8DC5E","238a271b-99c7-4d54-9e5d-20abf3ebe9b6","54f8d589-66fc-4c65-830f-1dcc63bce8cc","{""participantId"":""7888A2429F784143A381F03582A8DC5E"",""assignmentId"":""238a271b-99c7-4d54-9e5d-20abf3ebe9b6"",""projectId"":""54f8d589-66fc-4c65-830f-1dcc63bce8cc""}","https://test12345.live/?participantId=7888A2429F784143A381F03582A8DC5E&assignmentId=238a271b-99c7-4d54-9e5d-20abf3ebe9b6&projectId=54f8d589-66fc-4c65-830f-1dcc63bce8cc","","null","<div style=""display: flex; justify-content: center; align-items: center;"">
                    <img src=""images/causal/causal_series_16/causal_series_16_d.jpg"" style=""width: 300px; height: 300px;"" />
                  </div>","null","",""
"","","","","","html-button-response","87","448205","0.0-63.0","7888A2429F784143A381F03582A8DC5E","7888A2429F784143A381F03582A8DC5E","238a271b-99c7-4d54-9e5d-20abf3ebe9b6","54f8d589-66fc-4c65-830f-1dcc63bce8cc","{""participantId"":""7888A2429F784143A381F03582A8DC5E"",""assignmentId"":""238a271b-99c7-4d54-9e5d-20abf3ebe9b6"",""projectId"":""54f8d589-66fc-4c65-830f-1dcc63bce8cc""}","https://test12345.live/?participantId=7888A2429F784143A381F03582A8DC5E&assignmentId=238a271b-99c7-4d54-9e5d-20abf3ebe9b6&projectId=54f8d589-66fc-4c65-830f-1dcc63bce8cc","","1023","Was there a person in the picture?","0","",""
"","","","","","survey-likert","88","449400","0.0-64.0","7888A2429F784143A381F03582A8DC5E","7888A2429F784143A381F03582A8DC5E","238a271b-99c7-4d54-9e5d-20abf3ebe9b6","54f8d589-66fc-4c65-830f-1dcc63bce8cc","{""participantId"":""7888A2429F784143A381F03582A8DC5E"",""assignmentId"":""238a271b-99c7-4d54-9e5d-20abf3ebe9b6"",""projectId"":""54f8d589-66fc-4c65-830f-1dcc63bce8cc""}","https://test12345.live/?participantId=7888A2429F784143A381F03582A8DC5E&assignmentId=238a271b-99c7-4d54-9e5d-20abf3ebe9b6&projectId=54f8d589-66fc-4c65-830f-1dcc63bce8cc","","1194","","{""Q0"":2}","","[0]"
"","","","","","html-button-response","89","452276","0.0-65.0","7888A2429F784143A381F03582A8DC5E","7888A2429F784143A381F03582A8DC5E","238a271b-99c7-4d54-9e5d-20abf3ebe9b6","54f8d589-66fc-4c65-830f-1dcc63bce8cc","{""participantId"":""7888A2429F784143A381F03582A8DC5E"",""assignmentId"":""238a271b-99c7-4d54-9e5d-20abf3ebe9b6"",""projectId"":""54f8d589-66fc-4c65-830f-1dcc63bce8cc""}","https://test12345.live/?participantId=7888A2429F784143A381F03582A8DC5E&assignmentId=238a271b-99c7-4d54-9e5d-20abf3ebe9b6&projectId=54f8d589-66fc-4c65-830f-1dcc63bce8cc","","2876","
    <div style=""display: flex; justify-content: center; align-items: center;"">
      <img src=""images/red_deck_2.png"" style=""width: 300px; height: 300px; margin-right: 10px;"" />
      <img src=""images/blue_deck_1.png"" style=""width: 300px; height: 300px;"" />
    </div>","0","0",""
"","","","","","html-keyboard-response","90","455281","0.0-66.0-0.0","7888A2429F784143A381F03582A8DC5E","7888A2429F784143A381F03582A8DC5E","238a271b-99c7-4d54-9e5d-20abf3ebe9b6","54f8d589-66fc-4c65-830f-1dcc63bce8cc","{""participantId"":""7888A2429F784143A381F03582A8DC5E"",""assignmentId"":""238a271b-99c7-4d54-9e5d-20abf3ebe9b6"",""projectId"":""54f8d589-66fc-4c65-830f-1dcc63bce8cc""}","https://test12345.live/?participantId=7888A2429F784143A381F03582A8DC5E&assignmentId=238a271b-99c7-4d54-9e5d-20abf3ebe9b6&projectId=54f8d589-66fc-4c65-830f-1dcc63bce8cc","","null","<div style=""display: flex; justify-content: center; align-items: center;"">
                    <img src=""images/causal/causal_series_15/causal_series_15_a.jpg"" style=""width: 300px; height: 300px;"" />
                  </div>","null","",""
"","","","","","html-keyboard-response","91","458286","0.0-66.0-1.0","7888A2429F784143A381F03582A8DC5E","7888A2429F784143A381F03582A8DC5E","238a271b-99c7-4d54-9e5d-20abf3ebe9b6","54f8d589-66fc-4c65-830f-1dcc63bce8cc","{""participantId"":""7888A2429F784143A381F03582A8DC5E"",""assignmentId"":""238a271b-99c7-4d54-9e5d-20abf3ebe9b6"",""projectId"":""54f8d589-66fc-4c65-830f-1dcc63bce8cc""}","https://test12345.live/?participantId=7888A2429F784143A381F03582A8DC5E&assignmentId=238a271b-99c7-4d54-9e5d-20abf3ebe9b6&projectId=54f8d589-66fc-4c65-830f-1dcc63bce8cc","","null","<div style=""display: flex; justify-content: center; align-items: center;"">
                    <img src=""images/causal/causal_series_15/causal_series_15_b.jpg"" style=""width: 300px; height: 300px;"" />
                  </div>","null","",""
"","","","","","html-keyboard-response","92","461291","0.0-66.0-2.0","7888A2429F784143A381F03582A8DC5E","7888A2429F784143A381F03582A8DC5E","238a271b-99c7-4d54-9e5d-20abf3ebe9b6","54f8d589-66fc-4c65-830f-1dcc63bce8cc","{""participantId"":""7888A2429F784143A381F03582A8DC5E"",""assignmentId"":""238a271b-99c7-4d54-9e5d-20abf3ebe9b6"",""projectId"":""54f8d589-66fc-4c65-830f-1dcc63bce8cc""}","https://test12345.live/?participantId=7888A2429F784143A381F03582A8DC5E&assignmentId=238a271b-99c7-4d54-9e5d-20abf3ebe9b6&projectId=54f8d589-66fc-4c65-830f-1dcc63bce8cc","","null","<div style=""display: flex; justify-content: center; align-items: center;"">
                    <img src=""images/causal/causal_series_15/causal_series_15_c.jpg"" style=""width: 300px; height: 300px;"" />
                  </div>","null","",""
"","","","","","html-keyboard-response","93","464304","0.0-66.0-3.0","7888A2429F784143A381F03582A8DC5E","7888A2429F784143A381F03582A8DC5E","238a271b-99c7-4d54-9e5d-20abf3ebe9b6","54f8d589-66fc-4c65-830f-1dcc63bce8cc","{""participantId"":""7888A2429F784143A381F03582A8DC5E"",""assignmentId"":""238a271b-99c7-4d54-9e5d-20abf3ebe9b6"",""projectId"":""54f8d589-66fc-4c65-830f-1dcc63bce8cc""}","https://test12345.live/?participantId=7888A2429F784143A381F03582A8DC5E&assignmentId=238a271b-99c7-4d54-9e5d-20abf3ebe9b6&projectId=54f8d589-66fc-4c65-830f-1dcc63bce8cc","","null","<div style=""display: flex; justify-content: center; align-items: center;"">
                    <img src=""images/causal/causal_series_15/causal_series_15_d.jpg"" style=""width: 300px; height: 300px;"" />
                  </div>","null","",""
"","","","","","html-button-response","94","465673","0.0-68.0","7888A2429F784143A381F03582A8DC5E","7888A2429F784143A381F03582A8DC5E","238a271b-99c7-4d54-9e5d-20abf3ebe9b6","54f8d589-66fc-4c65-830f-1dcc63bce8cc","{""participantId"":""7888A2429F784143A381F03582A8DC5E"",""assignmentId"":""238a271b-99c7-4d54-9e5d-20abf3ebe9b6"",""projectId"":""54f8d589-66fc-4c65-830f-1dcc63bce8cc""}","https://test12345.live/?participantId=7888A2429F784143A381F03582A8DC5E&assignmentId=238a271b-99c7-4d54-9e5d-20abf3ebe9b6&projectId=54f8d589-66fc-4c65-830f-1dcc63bce8cc","","1368","Was there a person in the picture?","0","",""
"","","","","","survey-likert","95","467139","0.0-69.0","7888A2429F784143A381F03582A8DC5E","7888A2429F784143A381F03582A8DC5E","238a271b-99c7-4d54-9e5d-20abf3ebe9b6","54f8d589-66fc-4c65-830f-1dcc63bce8cc","{""participantId"":""7888A2429F784143A381F03582A8DC5E"",""assignmentId"":""238a271b-99c7-4d54-9e5d-20abf3ebe9b6"",""projectId"":""54f8d589-66fc-4c65-830f-1dcc63bce8cc""}","https://test12345.live/?participantId=7888A2429F784143A381F03582A8DC5E&assignmentId=238a271b-99c7-4d54-9e5d-20abf3ebe9b6&projectId=54f8d589-66fc-4c65-830f-1dcc63bce8cc","","1466","","{""Q0"":2}","","[0]"
"","","","","","html-button-response","96","467939","0.0-70.0","7888A2429F784143A381F03582A8DC5E","7888A2429F784143A381F03582A8DC5E","238a271b-99c7-4d54-9e5d-20abf3ebe9b6","54f8d589-66fc-4c65-830f-1dcc63bce8cc","{""participantId"":""7888A2429F784143A381F03582A8DC5E"",""assignmentId"":""238a271b-99c7-4d54-9e5d-20abf3ebe9b6"",""projectId"":""54f8d589-66fc-4c65-830f-1dcc63bce8cc""}","https://test12345.live/?participantId=7888A2429F784143A381F03582A8DC5E&assignmentId=238a271b-99c7-4d54-9e5d-20abf3ebe9b6&projectId=54f8d589-66fc-4c65-830f-1dcc63bce8cc","","799","
    <div style=""display: flex; justify-content: center; align-items: center;"">
      <img src=""images/red_deck_2.png"" style=""width: 300px; height: 300px; margin-right: 10px;"" />
      <img src=""images/blue_deck_1.png"" style=""width: 300px; height: 300px;"" />
    </div>","0","0",""
"","","","","","html-keyboard-response","97","470950","0.0-71.0-0.0","7888A2429F784143A381F03582A8DC5E","7888A2429F784143A381F03582A8DC5E","238a271b-99c7-4d54-9e5d-20abf3ebe9b6","54f8d589-66fc-4c65-830f-1dcc63bce8cc","{""participantId"":""7888A2429F784143A381F03582A8DC5E"",""assignmentId"":""238a271b-99c7-4d54-9e5d-20abf3ebe9b6"",""projectId"":""54f8d589-66fc-4c65-830f-1dcc63bce8cc""}","https://test12345.live/?participantId=7888A2429F784143A381F03582A8DC5E&assignmentId=238a271b-99c7-4d54-9e5d-20abf3ebe9b6&projectId=54f8d589-66fc-4c65-830f-1dcc63bce8cc","","null","<div style=""display: flex; justify-content: center; align-items: center;"">
                    <img src=""images/causal/causal_series_10/causal_series_10_a.jpg"" style=""width: 300px; height: 300px;"" />
                  </div>","null","",""
"","","","","","html-keyboard-response","98","473962","0.0-71.0-1.0","7888A2429F784143A381F03582A8DC5E","7888A2429F784143A381F03582A8DC5E","238a271b-99c7-4d54-9e5d-20abf3ebe9b6","54f8d589-66fc-4c65-830f-1dcc63bce8cc","{""participantId"":""7888A2429F784143A381F03582A8DC5E"",""assignmentId"":""238a271b-99c7-4d54-9e5d-20abf3ebe9b6"",""projectId"":""54f8d589-66fc-4c65-830f-1dcc63bce8cc""}","https://test12345.live/?participantId=7888A2429F784143A381F03582A8DC5E&assignmentId=238a271b-99c7-4d54-9e5d-20abf3ebe9b6&projectId=54f8d589-66fc-4c65-830f-1dcc63bce8cc","","null","<div style=""display: flex; justify-content: center; align-items: center;"">
                    <img src=""images/causal/causal_series_10/causal_series_10_b.jpg"" style=""width: 300px; height: 300px;"" />
                  </div>","null","",""
"","","","","","html-keyboard-response","99","476975","0.0-71.0-2.0","7888A2429F784143A381F03582A8DC5E","7888A2429F784143A381F03582A8DC5E","238a271b-99c7-4d54-9e5d-20abf3ebe9b6","54f8d589-66fc-4c65-830f-1dcc63bce8cc","{""participantId"":""7888A2429F784143A381F03582A8DC5E"",""assignmentId"":""238a271b-99c7-4d54-9e5d-20abf3ebe9b6"",""projectId"":""54f8d589-66fc-4c65-830f-1dcc63bce8cc""}","https://test12345.live/?participantId=7888A2429F784143A381F03582A8DC5E&assignmentId=238a271b-99c7-4d54-9e5d-20abf3ebe9b6&projectId=54f8d589-66fc-4c65-830f-1dcc63bce8cc","","null","<div style=""display: flex; justify-content: center; align-items: center;"">
                    <img src=""images/causal/causal_series_10/causal_series_10_c.jpg"" style=""width: 300px; height: 300px;"" />
                  </div>","null","",""
"","","","","","html-keyboard-response","100","479988","0.0-71.0-3.0","7888A2429F784143A381F03582A8DC5E","7888A2429F784143A381F03582A8DC5E","238a271b-99c7-4d54-9e5d-20abf3ebe9b6","54f8d589-66fc-4c65-830f-1dcc63bce8cc","{""participantId"":""7888A2429F784143A381F03582A8DC5E"",""assignmentId"":""238a271b-99c7-4d54-9e5d-20abf3ebe9b6"",""projectId"":""54f8d589-66fc-4c65-830f-1dcc63bce8cc""}","https://test12345.live/?participantId=7888A2429F784143A381F03582A8DC5E&assignmentId=238a271b-99c7-4d54-9e5d-20abf3ebe9b6&projectId=54f8d589-66fc-4c65-830f-1dcc63bce8cc","","null","<div style=""display: flex; justify-content: center; align-items: center;"">
                    <img src=""images/causal/causal_series_10/causal_series_10_d.jpg"" style=""width: 300px; height: 300px;"" />
                  </div>","null","",""
"","","","","","html-button-response","101","480725","0.0-73.0","7888A2429F784143A381F03582A8DC5E","7888A2429F784143A381F03582A8DC5E","238a271b-99c7-4d54-9e5d-20abf3ebe9b6","54f8d589-66fc-4c65-830f-1dcc63bce8cc","{""participantId"":""7888A2429F784143A381F03582A8DC5E"",""assignmentId"":""238a271b-99c7-4d54-9e5d-20abf3ebe9b6"",""projectId"":""54f8d589-66fc-4c65-830f-1dcc63bce8cc""}","https://test12345.live/?participantId=7888A2429F784143A381F03582A8DC5E&assignmentId=238a271b-99c7-4d54-9e5d-20abf3ebe9b6&projectId=54f8d589-66fc-4c65-830f-1dcc63bce8cc","","737","Was there a person in the picture?","1","",""
"","","","","","survey-likert","102","481961","0.0-74.0","7888A2429F784143A381F03582A8DC5E","7888A2429F784143A381F03582A8DC5E","238a271b-99c7-4d54-9e5d-20abf3ebe9b6","54f8d589-66fc-4c65-830f-1dcc63bce8cc","{""participantId"":""7888A2429F784143A381F03582A8DC5E"",""assignmentId"":""238a271b-99c7-4d54-9e5d-20abf3ebe9b6"",""projectId"":""54f8d589-66fc-4c65-830f-1dcc63bce8cc""}","https://test12345.live/?participantId=7888A2429F784143A381F03582A8DC5E&assignmentId=238a271b-99c7-4d54-9e5d-20abf3ebe9b6&projectId=54f8d589-66fc-4c65-830f-1dcc63bce8cc","","1235","","{""Q0"":2}","","[0]"
"","","","","","html-button-response","103","482667","0.0-75.0","7888A2429F784143A381F03582A8DC5E","7888A2429F784143A381F03582A8DC5E","238a271b-99c7-4d54-9e5d-20abf3ebe9b6","54f8d589-66fc-4c65-830f-1dcc63bce8cc","{""participantId"":""7888A2429F784143A381F03582A8DC5E"",""assignmentId"":""238a271b-99c7-4d54-9e5d-20abf3ebe9b6"",""projectId"":""54f8d589-66fc-4c65-830f-1dcc63bce8cc""}","https://test12345.live/?participantId=7888A2429F784143A381F03582A8DC5E&assignmentId=238a271b-99c7-4d54-9e5d-20abf3ebe9b6&projectId=54f8d589-66fc-4c65-830f-1dcc63bce8cc","","706","
    <div style=""display: flex; justify-content: center; align-items: center;"">
      <img src=""images/red_deck_2.png"" style=""width: 300px; height: 300px; margin-right: 10px;"" />
      <img src=""images/blue_deck_1.png"" style=""width: 300px; height: 300px;"" />
    </div>","0","0",""
"","","","","","html-keyboard-response","104","485680","0.0-76.0-0.0","7888A2429F784143A381F03582A8DC5E","7888A2429F784143A381F03582A8DC5E","238a271b-99c7-4d54-9e5d-20abf3ebe9b6","54f8d589-66fc-4c65-830f-1dcc63bce8cc","{""participantId"":""7888A2429F784143A381F03582A8DC5E"",""assignmentId"":""238a271b-99c7-4d54-9e5d-20abf3ebe9b6"",""projectId"":""54f8d589-66fc-4c65-830f-1dcc63bce8cc""}","https://test12345.live/?participantId=7888A2429F784143A381F03582A8DC5E&assignmentId=238a271b-99c7-4d54-9e5d-20abf3ebe9b6&projectId=54f8d589-66fc-4c65-830f-1dcc63bce8cc","","null","<div style=""display: flex; justify-content: center; align-items: center;"">
                    <img src=""images/causal/causal_series_6/causal_series_6_a.jpg"" style=""width: 300px; height: 300px;"" />
                  </div>","null","",""
"","","","","","html-keyboard-response","105","488695","0.0-76.0-1.0","7888A2429F784143A381F03582A8DC5E","7888A2429F784143A381F03582A8DC5E","238a271b-99c7-4d54-9e5d-20abf3ebe9b6","54f8d589-66fc-4c65-830f-1dcc63bce8cc","{""participantId"":""7888A2429F784143A381F03582A8DC5E"",""assignmentId"":""238a271b-99c7-4d54-9e5d-20abf3ebe9b6"",""projectId"":""54f8d589-66fc-4c65-830f-1dcc63bce8cc""}","https://test12345.live/?participantId=7888A2429F784143A381F03582A8DC5E&assignmentId=238a271b-99c7-4d54-9e5d-20abf3ebe9b6&projectId=54f8d589-66fc-4c65-830f-1dcc63bce8cc","","null","<div style=""display: flex; justify-content: center; align-items: center;"">
                    <img src=""images/causal/causal_series_6/causal_series_6_b.jpg"" style=""width: 300px; height: 300px;"" />
                  </div>","null","",""
"","","","","","html-keyboard-response","106","491705","0.0-76.0-2.0","7888A2429F784143A381F03582A8DC5E","7888A2429F784143A381F03582A8DC5E","238a271b-99c7-4d54-9e5d-20abf3ebe9b6","54f8d589-66fc-4c65-830f-1dcc63bce8cc","{""participantId"":""7888A2429F784143A381F03582A8DC5E"",""assignmentId"":""238a271b-99c7-4d54-9e5d-20abf3ebe9b6"",""projectId"":""54f8d589-66fc-4c65-830f-1dcc63bce8cc""}","https://test12345.live/?participantId=7888A2429F784143A381F03582A8DC5E&assignmentId=238a271b-99c7-4d54-9e5d-20abf3ebe9b6&projectId=54f8d589-66fc-4c65-830f-1dcc63bce8cc","","null","<div style=""display: flex; justify-content: center; align-items: center;"">
                    <img src=""images/causal/causal_series_6/causal_series_6_c.jpg"" style=""width: 300px; height: 300px;"" />
                  </div>","null","",""
"","","","","","html-keyboard-response","107","494709","0.0-76.0-3.0","7888A2429F784143A381F03582A8DC5E","7888A2429F784143A381F03582A8DC5E","238a271b-99c7-4d54-9e5d-20abf3ebe9b6","54f8d589-66fc-4c65-830f-1dcc63bce8cc","{""participantId"":""7888A2429F784143A381F03582A8DC5E"",""assignmentId"":""238a271b-99c7-4d54-9e5d-20abf3ebe9b6"",""projectId"":""54f8d589-66fc-4c65-830f-1dcc63bce8cc""}","https://test12345.live/?participantId=7888A2429F784143A381F03582A8DC5E&assignmentId=238a271b-99c7-4d54-9e5d-20abf3ebe9b6&projectId=54f8d589-66fc-4c65-830f-1dcc63bce8cc","","null","<div style=""display: flex; justify-content: center; align-items: center;"">
                    <img src=""images/causal/causal_series_6/causal_series_6_d.jpg"" style=""width: 300px; height: 300px;"" />
                  </div>","null","",""
"","","","","","html-button-response","108","496310","0.0-78.0","7888A2429F784143A381F03582A8DC5E","7888A2429F784143A381F03582A8DC5E","238a271b-99c7-4d54-9e5d-20abf3ebe9b6","54f8d589-66fc-4c65-830f-1dcc63bce8cc","{""participantId"":""7888A2429F784143A381F03582A8DC5E"",""assignmentId"":""238a271b-99c7-4d54-9e5d-20abf3ebe9b6"",""projectId"":""54f8d589-66fc-4c65-830f-1dcc63bce8cc""}","https://test12345.live/?participantId=7888A2429F784143A381F03582A8DC5E&assignmentId=238a271b-99c7-4d54-9e5d-20abf3ebe9b6&projectId=54f8d589-66fc-4c65-830f-1dcc63bce8cc","","1601","Was there a person in the picture?","1","",""
"","","","","","survey-likert","109","498031","0.0-79.0","7888A2429F784143A381F03582A8DC5E","7888A2429F784143A381F03582A8DC5E","238a271b-99c7-4d54-9e5d-20abf3ebe9b6","54f8d589-66fc-4c65-830f-1dcc63bce8cc","{""participantId"":""7888A2429F784143A381F03582A8DC5E"",""assignmentId"":""238a271b-99c7-4d54-9e5d-20abf3ebe9b6"",""projectId"":""54f8d589-66fc-4c65-830f-1dcc63bce8cc""}","https://test12345.live/?participantId=7888A2429F784143A381F03582A8DC5E&assignmentId=238a271b-99c7-4d54-9e5d-20abf3ebe9b6&projectId=54f8d589-66fc-4c65-830f-1dcc63bce8cc","","1720","","{""Q0"":2}","","[0]"
"","","","","","html-button-response","110","498799","0.0-80.0","7888A2429F784143A381F03582A8DC5E","7888A2429F784143A381F03582A8DC5E","238a271b-99c7-4d54-9e5d-20abf3ebe9b6","54f8d589-66fc-4c65-830f-1dcc63bce8cc","{""participantId"":""7888A2429F784143A381F03582A8DC5E"",""assignmentId"":""238a271b-99c7-4d54-9e5d-20abf3ebe9b6"",""projectId"":""54f8d589-66fc-4c65-830f-1dcc63bce8cc""}","https://test12345.live/?participantId=7888A2429F784143A381F03582A8DC5E&assignmentId=238a271b-99c7-4d54-9e5d-20abf3ebe9b6&projectId=54f8d589-66fc-4c65-830f-1dcc63bce8cc","","768","
    <div style=""display: flex; justify-content: center; align-items: center;"">
      <img src=""images/red_deck_2.png"" style=""width: 300px; height: 300px; margin-right: 10px;"" />
      <img src=""images/blue_deck_1.png"" style=""width: 300px; height: 300px;"" />
    </div>","0","0",""
"","","","","","html-keyboard-response","111","501802","0.0-81.0-0.0","7888A2429F784143A381F03582A8DC5E","7888A2429F784143A381F03582A8DC5E","238a271b-99c7-4d54-9e5d-20abf3ebe9b6","54f8d589-66fc-4c65-830f-1dcc63bce8cc","{""participantId"":""7888A2429F784143A381F03582A8DC5E"",""assignmentId"":""238a271b-99c7-4d54-9e5d-20abf3ebe9b6"",""projectId"":""54f8d589-66fc-4c65-830f-1dcc63bce8cc""}","https://test12345.live/?participantId=7888A2429F784143A381F03582A8DC5E&assignmentId=238a271b-99c7-4d54-9e5d-20abf3ebe9b6&projectId=54f8d589-66fc-4c65-830f-1dcc63bce8cc","","null","<div style=""display: flex; justify-content: center; align-items: center;"">
                    <img src=""images/causal/causal_series_5/causal_series_5_a.jpg"" style=""width: 300px; height: 300px;"" />
                  </div>","null","",""
"","","","","","html-keyboard-response","112","504803","0.0-81.0-1.0","7888A2429F784143A381F03582A8DC5E","7888A2429F784143A381F03582A8DC5E","238a271b-99c7-4d54-9e5d-20abf3ebe9b6","54f8d589-66fc-4c65-830f-1dcc63bce8cc","{""participantId"":""7888A2429F784143A381F03582A8DC5E"",""assignmentId"":""238a271b-99c7-4d54-9e5d-20abf3ebe9b6"",""projectId"":""54f8d589-66fc-4c65-830f-1dcc63bce8cc""}","https://test12345.live/?participantId=7888A2429F784143A381F03582A8DC5E&assignmentId=238a271b-99c7-4d54-9e5d-20abf3ebe9b6&projectId=54f8d589-66fc-4c65-830f-1dcc63bce8cc","","null","<div style=""display: flex; justify-content: center; align-items: center;"">
                    <img src=""images/causal/causal_series_5/causal_series_5_b.jpg"" style=""width: 300px; height: 300px;"" />
                  </div>","null","",""
"","","","","","html-keyboard-response","113","507805","0.0-81.0-2.0","7888A2429F784143A381F03582A8DC5E","7888A2429F784143A381F03582A8DC5E","238a271b-99c7-4d54-9e5d-20abf3ebe9b6","54f8d589-66fc-4c65-830f-1dcc63bce8cc","{""participantId"":""7888A2429F784143A381F03582A8DC5E"",""assignmentId"":""238a271b-99c7-4d54-9e5d-20abf3ebe9b6"",""projectId"":""54f8d589-66fc-4c65-830f-1dcc63bce8cc""}","https://test12345.live/?participantId=7888A2429F784143A381F03582A8DC5E&assignmentId=238a271b-99c7-4d54-9e5d-20abf3ebe9b6&projectId=54f8d589-66fc-4c65-830f-1dcc63bce8cc","","null","<div style=""display: flex; justify-content: center; align-items: center;"">
                    <img src=""images/causal/causal_series_5/causal_series_5_c.jpg"" style=""width: 300px; height: 300px;"" />
                  </div>","null","",""
"","","","","","html-keyboard-response","114","510811","0.0-81.0-3.0","7888A2429F784143A381F03582A8DC5E","7888A2429F784143A381F03582A8DC5E","238a271b-99c7-4d54-9e5d-20abf3ebe9b6","54f8d589-66fc-4c65-830f-1dcc63bce8cc","{""participantId"":""7888A2429F784143A381F03582A8DC5E"",""assignmentId"":""238a271b-99c7-4d54-9e5d-20abf3ebe9b6"",""projectId"":""54f8d589-66fc-4c65-830f-1dcc63bce8cc""}","https://test12345.live/?participantId=7888A2429F784143A381F03582A8DC5E&assignmentId=238a271b-99c7-4d54-9e5d-20abf3ebe9b6&projectId=54f8d589-66fc-4c65-830f-1dcc63bce8cc","","null","<div style=""display: flex; justify-content: center; align-items: center;"">
                    <img src=""images/causal/causal_series_5/causal_series_5_d.jpg"" style=""width: 300px; height: 300px;"" />
                  </div>","null","",""
"","","","","","html-button-response","115","512523","0.0-83.0","7888A2429F784143A381F03582A8DC5E","7888A2429F784143A381F03582A8DC5E","238a271b-99c7-4d54-9e5d-20abf3ebe9b6","54f8d589-66fc-4c65-830f-1dcc63bce8cc","{""participantId"":""7888A2429F784143A381F03582A8DC5E"",""assignmentId"":""238a271b-99c7-4d54-9e5d-20abf3ebe9b6"",""projectId"":""54f8d589-66fc-4c65-830f-1dcc63bce8cc""}","https://test12345.live/?participantId=7888A2429F784143A381F03582A8DC5E&assignmentId=238a271b-99c7-4d54-9e5d-20abf3ebe9b6&projectId=54f8d589-66fc-4c65-830f-1dcc63bce8cc","","1712","Was there a person in the picture?","0","",""
"","","","","","survey-likert","116","513986","0.0-84.0","7888A2429F784143A381F03582A8DC5E","7888A2429F784143A381F03582A8DC5E","238a271b-99c7-4d54-9e5d-20abf3ebe9b6","54f8d589-66fc-4c65-830f-1dcc63bce8cc","{""participantId"":""7888A2429F784143A381F03582A8DC5E"",""assignmentId"":""238a271b-99c7-4d54-9e5d-20abf3ebe9b6"",""projectId"":""54f8d589-66fc-4c65-830f-1dcc63bce8cc""}","https://test12345.live/?participantId=7888A2429F784143A381F03582A8DC5E&assignmentId=238a271b-99c7-4d54-9e5d-20abf3ebe9b6&projectId=54f8d589-66fc-4c65-830f-1dcc63bce8cc","","1463","","{""Q0"":2}","","[0]"
"","","","","","html-button-response","117","515044","0.0-85.0","7888A2429F784143A381F03582A8DC5E","7888A2429F784143A381F03582A8DC5E","238a271b-99c7-4d54-9e5d-20abf3ebe9b6","54f8d589-66fc-4c65-830f-1dcc63bce8cc","{""participantId"":""7888A2429F784143A381F03582A8DC5E"",""assignmentId"":""238a271b-99c7-4d54-9e5d-20abf3ebe9b6"",""projectId"":""54f8d589-66fc-4c65-830f-1dcc63bce8cc""}","https://test12345.live/?participantId=7888A2429F784143A381F03582A8DC5E&assignmentId=238a271b-99c7-4d54-9e5d-20abf3ebe9b6&projectId=54f8d589-66fc-4c65-830f-1dcc63bce8cc","","1057","
    <div style=""display: flex; justify-content: center; align-items: center;"">
      <img src=""images/red_deck_2.png"" style=""width: 300px; height: 300px; margin-right: 10px;"" />
      <img src=""images/blue_deck_1.png"" style=""width: 300px; height: 300px;"" />
    </div>","0","0",""
"","","","","","html-keyboard-response","118","518050","0.0-86.0-0.0","7888A2429F784143A381F03582A8DC5E","7888A2429F784143A381F03582A8DC5E","238a271b-99c7-4d54-9e5d-20abf3ebe9b6","54f8d589-66fc-4c65-830f-1dcc63bce8cc","{""participantId"":""7888A2429F784143A381F03582A8DC5E"",""assignmentId"":""238a271b-99c7-4d54-9e5d-20abf3ebe9b6"",""projectId"":""54f8d589-66fc-4c65-830f-1dcc63bce8cc""}","https://test12345.live/?participantId=7888A2429F784143A381F03582A8DC5E&assignmentId=238a271b-99c7-4d54-9e5d-20abf3ebe9b6&projectId=54f8d589-66fc-4c65-830f-1dcc63bce8cc","","null","<div style=""display: flex; justify-content: center; align-items: center;"">
                    <img src=""images/causal/causal_series_14/causal_series_14_a.jpg"" style=""width: 300px; height: 300px;"" />
                  </div>","null","",""
"","","","","","html-keyboard-response","119","521055","0.0-86.0-1.0","7888A2429F784143A381F03582A8DC5E","7888A2429F784143A381F03582A8DC5E","238a271b-99c7-4d54-9e5d-20abf3ebe9b6","54f8d589-66fc-4c65-830f-1dcc63bce8cc","{""participantId"":""7888A2429F784143A381F03582A8DC5E"",""assignmentId"":""238a271b-99c7-4d54-9e5d-20abf3ebe9b6"",""projectId"":""54f8d589-66fc-4c65-830f-1dcc63bce8cc""}","https://test12345.live/?participantId=7888A2429F784143A381F03582A8DC5E&assignmentId=238a271b-99c7-4d54-9e5d-20abf3ebe9b6&projectId=54f8d589-66fc-4c65-830f-1dcc63bce8cc","","null","<div style=""display: flex; justify-content: center; align-items: center;"">
                    <img src=""images/causal/causal_series_14/causal_series_14_b.jpg"" style=""width: 300px; height: 300px;"" />
                  </div>","null","",""
"","","","","","html-keyboard-response","120","524067","0.0-86.0-2.0","7888A2429F784143A381F03582A8DC5E","7888A2429F784143A381F03582A8DC5E","238a271b-99c7-4d54-9e5d-20abf3ebe9b6","54f8d589-66fc-4c65-830f-1dcc63bce8cc","{""participantId"":""7888A2429F784143A381F03582A8DC5E"",""assignmentId"":""238a271b-99c7-4d54-9e5d-20abf3ebe9b6"",""projectId"":""54f8d589-66fc-4c65-830f-1dcc63bce8cc""}","https://test12345.live/?participantId=7888A2429F784143A381F03582A8DC5E&assignmentId=238a271b-99c7-4d54-9e5d-20abf3ebe9b6&projectId=54f8d589-66fc-4c65-830f-1dcc63bce8cc","","null","<div style=""display: flex; justify-content: center; align-items: center;"">
                    <img src=""images/causal/causal_series_14/causal_series_14_c.jpg"" style=""width: 300px; height: 300px;"" />
                  </div>","null","",""
"","","","","","html-keyboard-response","121","527076","0.0-86.0-3.0","7888A2429F784143A381F03582A8DC5E","7888A2429F784143A381F03582A8DC5E","238a271b-99c7-4d54-9e5d-20abf3ebe9b6","54f8d589-66fc-4c65-830f-1dcc63bce8cc","{""participantId"":""7888A2429F784143A381F03582A8DC5E"",""assignmentId"":""238a271b-99c7-4d54-9e5d-20abf3ebe9b6"",""projectId"":""54f8d589-66fc-4c65-830f-1dcc63bce8cc""}","https://test12345.live/?participantId=7888A2429F784143A381F03582A8DC5E&assignmentId=238a271b-99c7-4d54-9e5d-20abf3ebe9b6&projectId=54f8d589-66fc-4c65-830f-1dcc63bce8cc","","null","<div style=""display: flex; justify-content: center; align-items: center;"">
                    <img src=""images/causal/causal_series_14/causal_series_14_d.jpg"" style=""width: 300px; height: 300px;"" />
                  </div>","null","",""
"","","","","","html-button-response","122","528318","0.0-88.0","7888A2429F784143A381F03582A8DC5E","7888A2429F784143A381F03582A8DC5E","238a271b-99c7-4d54-9e5d-20abf3ebe9b6","54f8d589-66fc-4c65-830f-1dcc63bce8cc","{""participantId"":""7888A2429F784143A381F03582A8DC5E"",""assignmentId"":""238a271b-99c7-4d54-9e5d-20abf3ebe9b6"",""projectId"":""54f8d589-66fc-4c65-830f-1dcc63bce8cc""}","https://test12345.live/?participantId=7888A2429F784143A381F03582A8DC5E&assignmentId=238a271b-99c7-4d54-9e5d-20abf3ebe9b6&projectId=54f8d589-66fc-4c65-830f-1dcc63bce8cc","","1241","Was there a person in the picture?","0","",""
"","","","","","survey-likert","123","533991","0.0-89.0","7888A2429F784143A381F03582A8DC5E","7888A2429F784143A381F03582A8DC5E","238a271b-99c7-4d54-9e5d-20abf3ebe9b6","54f8d589-66fc-4c65-830f-1dcc63bce8cc","{""participantId"":""7888A2429F784143A381F03582A8DC5E"",""assignmentId"":""238a271b-99c7-4d54-9e5d-20abf3ebe9b6"",""projectId"":""54f8d589-66fc-4c65-830f-1dcc63bce8cc""}","https://test12345.live/?participantId=7888A2429F784143A381F03582A8DC5E&assignmentId=238a271b-99c7-4d54-9e5d-20abf3ebe9b6&projectId=54f8d589-66fc-4c65-830f-1dcc63bce8cc","","5673","","{""Q0"":2}","","[0]"
"","","","","","html-button-response","124","534969","0.0-90.0","7888A2429F784143A381F03582A8DC5E","7888A2429F784143A381F03582A8DC5E","238a271b-99c7-4d54-9e5d-20abf3ebe9b6","54f8d589-66fc-4c65-830f-1dcc63bce8cc","{""participantId"":""7888A2429F784143A381F03582A8DC5E"",""assignmentId"":""238a271b-99c7-4d54-9e5d-20abf3ebe9b6"",""projectId"":""54f8d589-66fc-4c65-830f-1dcc63bce8cc""}","https://test12345.live/?participantId=7888A2429F784143A381F03582A8DC5E&assignmentId=238a271b-99c7-4d54-9e5d-20abf3ebe9b6&projectId=54f8d589-66fc-4c65-830f-1dcc63bce8cc","","977","
    <div style=""display: flex; justify-content: center; align-items: center;"">
      <img src=""images/red_deck_2.png"" style=""width: 300px; height: 300px; margin-right: 10px;"" />
      <img src=""images/blue_deck_1.png"" style=""width: 300px; height: 300px;"" />
    </div>","0","0",""
"","","","","","html-keyboard-response","125","537977","0.0-91.0-0.0","7888A2429F784143A381F03582A8DC5E","7888A2429F784143A381F03582A8DC5E","238a271b-99c7-4d54-9e5d-20abf3ebe9b6","54f8d589-66fc-4c65-830f-1dcc63bce8cc","{""participantId"":""7888A2429F784143A381F03582A8DC5E"",""assignmentId"":""238a271b-99c7-4d54-9e5d-20abf3ebe9b6"",""projectId"":""54f8d589-66fc-4c65-830f-1dcc63bce8cc""}","https://test12345.live/?participantId=7888A2429F784143A381F03582A8DC5E&assignmentId=238a271b-99c7-4d54-9e5d-20abf3ebe9b6&projectId=54f8d589-66fc-4c65-830f-1dcc63bce8cc","","null","<div style=""display: flex; justify-content: center; align-items: center;"">
                    <img src=""images/causal/causal_series_18/causal_series_18_a.jpg"" style=""width: 300px; height: 300px;"" />
                  </div>","null","",""
"","","","","","html-keyboard-response","126","540987","0.0-91.0-1.0","7888A2429F784143A381F03582A8DC5E","7888A2429F784143A381F03582A8DC5E","238a271b-99c7-4d54-9e5d-20abf3ebe9b6","54f8d589-66fc-4c65-830f-1dcc63bce8cc","{""participantId"":""7888A2429F784143A381F03582A8DC5E"",""assignmentId"":""238a271b-99c7-4d54-9e5d-20abf3ebe9b6"",""projectId"":""54f8d589-66fc-4c65-830f-1dcc63bce8cc""}","https://test12345.live/?participantId=7888A2429F784143A381F03582A8DC5E&assignmentId=238a271b-99c7-4d54-9e5d-20abf3ebe9b6&projectId=54f8d589-66fc-4c65-830f-1dcc63bce8cc","","null","<div style=""display: flex; justify-content: center; align-items: center;"">
                    <img src=""images/causal/causal_series_18/causal_series_18_b.jpg"" style=""width: 300px; height: 300px;"" />
                  </div>","null","",""
"","","","","","html-keyboard-response","127","543993","0.0-91.0-2.0","7888A2429F784143A381F03582A8DC5E","7888A2429F784143A381F03582A8DC5E","238a271b-99c7-4d54-9e5d-20abf3ebe9b6","54f8d589-66fc-4c65-830f-1dcc63bce8cc","{""participantId"":""7888A2429F784143A381F03582A8DC5E"",""assignmentId"":""238a271b-99c7-4d54-9e5d-20abf3ebe9b6"",""projectId"":""54f8d589-66fc-4c65-830f-1dcc63bce8cc""}","https://test12345.live/?participantId=7888A2429F784143A381F03582A8DC5E&assignmentId=238a271b-99c7-4d54-9e5d-20abf3ebe9b6&projectId=54f8d589-66fc-4c65-830f-1dcc63bce8cc","","null","<div style=""display: flex; justify-content: center; align-items: center;"">
                    <img src=""images/causal/causal_series_18/causal_series_18_c.jpg"" style=""width: 300px; height: 300px;"" />
                  </div>","null","",""
"","","","","","html-keyboard-response","128","546997","0.0-91.0-3.0","7888A2429F784143A381F03582A8DC5E","7888A2429F784143A381F03582A8DC5E","238a271b-99c7-4d54-9e5d-20abf3ebe9b6","54f8d589-66fc-4c65-830f-1dcc63bce8cc","{""participantId"":""7888A2429F784143A381F03582A8DC5E"",""assignmentId"":""238a271b-99c7-4d54-9e5d-20abf3ebe9b6"",""projectId"":""54f8d589-66fc-4c65-830f-1dcc63bce8cc""}","https://test12345.live/?participantId=7888A2429F784143A381F03582A8DC5E&assignmentId=238a271b-99c7-4d54-9e5d-20abf3ebe9b6&projectId=54f8d589-66fc-4c65-830f-1dcc63bce8cc","","null","<div style=""display: flex; justify-content: center; align-items: center;"">
                    <img src=""images/causal/causal_series_18/causal_series_18_d.jpg"" style=""width: 300px; height: 300px;"" />
                  </div>","null","",""
"","","","","","html-button-response","129","548303","0.0-93.0","7888A2429F784143A381F03582A8DC5E","7888A2429F784143A381F03582A8DC5E","238a271b-99c7-4d54-9e5d-20abf3ebe9b6","54f8d589-66fc-4c65-830f-1dcc63bce8cc","{""participantId"":""7888A2429F784143A381F03582A8DC5E"",""assignmentId"":""238a271b-99c7-4d54-9e5d-20abf3ebe9b6"",""projectId"":""54f8d589-66fc-4c65-830f-1dcc63bce8cc""}","https://test12345.live/?participantId=7888A2429F784143A381F03582A8DC5E&assignmentId=238a271b-99c7-4d54-9e5d-20abf3ebe9b6&projectId=54f8d589-66fc-4c65-830f-1dcc63bce8cc","","1305","Was there a person in the picture?","1","",""
"","","","","","survey-likert","130","549865","0.0-94.0","7888A2429F784143A381F03582A8DC5E","7888A2429F784143A381F03582A8DC5E","238a271b-99c7-4d54-9e5d-20abf3ebe9b6","54f8d589-66fc-4c65-830f-1dcc63bce8cc","{""participantId"":""7888A2429F784143A381F03582A8DC5E"",""assignmentId"":""238a271b-99c7-4d54-9e5d-20abf3ebe9b6"",""projectId"":""54f8d589-66fc-4c65-830f-1dcc63bce8cc""}","https://test12345.live/?participantId=7888A2429F784143A381F03582A8DC5E&assignmentId=238a271b-99c7-4d54-9e5d-20abf3ebe9b6&projectId=54f8d589-66fc-4c65-830f-1dcc63bce8cc","","1562","","{""Q0"":2}","","[0]"
"","","","","","survey-text","131","561536","0.0-95.0","7888A2429F784143A381F03582A8DC5E","7888A2429F784143A381F03582A8DC5E","238a271b-99c7-4d54-9e5d-20abf3ebe9b6","54f8d589-66fc-4c65-830f-1dcc63bce8cc","{""participantId"":""7888A2429F784143A381F03582A8DC5E"",""assignmentId"":""238a271b-99c7-4d54-9e5d-20abf3ebe9b6"",""projectId"":""54f8d589-66fc-4c65-830f-1dcc63bce8cc""}","https://test12345.live/?participantId=7888A2429F784143A381F03582A8DC5E&assignmentId=238a271b-99c7-4d54-9e5d-20abf3ebe9b6&projectId=54f8d589-66fc-4c65-830f-1dcc63bce8cc","","11669","","{""Q0"":""No I cannot. ""}","",""
