"success","timeout","failed_images","failed_audio","failed_video","trial_type","trial_index","time_elapsed","internal_node_id","subject","subject_id","study_id","session_id","urlvar","current_url","view_history","rt","stimulus","response","choice","question_order"
"true","false","[]","[]","[]","preload","0","7072","0.0-0.0","480624F7D2124687AD60694DFA6D7702","480624F7D2124687AD60694DFA6D7702","24c9360a-a420-434c-b5a9-d02b5549a719","e622c465-ee29-4445-8260-1f3431e06587","{""participantId"":""480624F7D2124687AD60694DFA6D7702"",""assignmentId"":""24c9360a-a420-434c-b5a9-d02b5549a719"",""projectId"":""e622c465-ee29-4445-8260-1f3431e06587""}","https://test12345.live/?participantId=480624F7D2124687AD60694DFA6D7702&assignmentId=24c9360a-a420-434c-b5a9-d02b5549a719&projectId=e622c465-ee29-4445-8260-1f3431e06587","","","","","",""
"","","","","","instructions","1","14849","0.0-1.0","480624F7D2124687AD60694DFA6D7702","480624F7D2124687AD60694DFA6D7702","24c9360a-a420-434c-b5a9-d02b5549a719","e622c465-ee29-4445-8260-1f3431e06587","{""participantId"":""480624F7D2124687AD60694DFA6D7702"",""assignmentId"":""24c9360a-a420-434c-b5a9-d02b5549a719"",""projectId"":""e622c465-ee29-4445-8260-1f3431e06587""}","https://test12345.live/?participantId=480624F7D2124687AD60694DFA6D7702&assignmentId=24c9360a-a420-434c-b5a9-d02b5549a719&projectId=e622c465-ee29-4445-8260-1f3431e06587","[{""page_index"":0,""viewing_time"":7775}]","7776","","","",""
"","","","","","instructions","2","28290","0.0-2.0","480624F7D2124687AD60694DFA6D7702","480624F7D2124687AD60694DFA6D7702","24c9360a-a420-434c-b5a9-d02b5549a719","e622c465-ee29-4445-8260-1f3431e06587","{""participantId"":""480624F7D2124687AD60694DFA6D7702"",""assignmentId"":""24c9360a-a420-434c-b5a9-d02b5549a719"",""projectId"":""e622c465-ee29-4445-8260-1f3431e06587""}","https://test12345.live/?participantId=480624F7D2124687AD60694DFA6D7702&assignmentId=24c9360a-a420-434c-b5a9-d02b5549a719&projectId=e622c465-ee29-4445-8260-1f3431e06587","[{""page_index"":0,""viewing_time"":13438}]","13440","","","",""
"true","","","","","fullscreen","3","31006","0.0-3.0","480624F7D2124687AD60694DFA6D7702","480624F7D2124687AD60694DFA6D7702","24c9360a-a420-434c-b5a9-d02b5549a719","e622c465-ee29-4445-8260-1f3431e06587","{""participantId"":""480624F7D2124687AD60694DFA6D7702"",""assignmentId"":""24c9360a-a420-434c-b5a9-d02b5549a719"",""projectId"":""e622c465-ee29-4445-8260-1f3431e06587""}","https://test12345.live/?participantId=480624F7D2124687AD60694DFA6D7702&assignmentId=24c9360a-a420-434c-b5a9-d02b5549a719&projectId=e622c465-ee29-4445-8260-1f3431e06587","","1694","","","",""
"","","","","","instructions","4","42122","0.0-4.0","480624F7D2124687AD60694DFA6D7702","480624F7D2124687AD60694DFA6D7702","24c9360a-a420-434c-b5a9-d02b5549a719","e622c465-ee29-4445-8260-1f3431e06587","{""participantId"":""480624F7D2124687AD60694DFA6D7702"",""assignmentId"":""24c9360a-a420-434c-b5a9-d02b5549a719"",""projectId"":""e622c465-ee29-4445-8260-1f3431e06587""}","https://test12345.live/?participantId=480624F7D2124687AD60694DFA6D7702&assignmentId=24c9360a-a420-434c-b5a9-d02b5549a719&projectId=e622c465-ee29-4445-8260-1f3431e06587","[{""page_index"":0,""viewing_time"":11114}]","11115","","","",""
"","","","","","html-button-response","5","47641","0.0-5.0","480624F7D2124687AD60694DFA6D7702","480624F7D2124687AD60694DFA6D7702","24c9360a-a420-434c-b5a9-d02b5549a719","e622c465-ee29-4445-8260-1f3431e06587","{""participantId"":""480624F7D2124687AD60694DFA6D7702"",""assignmentId"":""24c9360a-a420-434c-b5a9-d02b5549a719"",""projectId"":""e622c465-ee29-4445-8260-1f3431e06587""}","https://test12345.live/?participantId=480624F7D2124687AD60694DFA6D7702&assignmentId=24c9360a-a420-434c-b5a9-d02b5549a719&projectId=e622c465-ee29-4445-8260-1f3431e06587","","5513","
    <div style=""display: flex; justify-content: center; align-items: center;"">
      <img src=""images/blue_deck_1.png"" style=""width: 300px; height: 300px; margin-right: 10px;"" />
      <img src=""images/red_deck_2.png"" style=""width: 300px; height: 300px;"" />
    </div>","1","1",""
"","","","","","html-keyboard-response","6","50646","0.0-7.0-0.0","480624F7D2124687AD60694DFA6D7702","480624F7D2124687AD60694DFA6D7702","24c9360a-a420-434c-b5a9-d02b5549a719","e622c465-ee29-4445-8260-1f3431e06587","{""participantId"":""480624F7D2124687AD60694DFA6D7702"",""assignmentId"":""24c9360a-a420-434c-b5a9-d02b5549a719"",""projectId"":""e622c465-ee29-4445-8260-1f3431e06587""}","https://test12345.live/?participantId=480624F7D2124687AD60694DFA6D7702&assignmentId=24c9360a-a420-434c-b5a9-d02b5549a719&projectId=e622c465-ee29-4445-8260-1f3431e06587","","null","<div style=""display: flex; justify-content: center; align-items: center;"">
                    <img src=""images/semantic/semantic_series_13/semantic_series_13_a.jpg"" style=""width: 300px; height: 300px;"" />
                  </div>","null","",""
"","","","","","html-keyboard-response","7","53655","0.0-7.0-1.0","480624F7D2124687AD60694DFA6D7702","480624F7D2124687AD60694DFA6D7702","24c9360a-a420-434c-b5a9-d02b5549a719","e622c465-ee29-4445-8260-1f3431e06587","{""participantId"":""480624F7D2124687AD60694DFA6D7702"",""assignmentId"":""24c9360a-a420-434c-b5a9-d02b5549a719"",""projectId"":""e622c465-ee29-4445-8260-1f3431e06587""}","https://test12345.live/?participantId=480624F7D2124687AD60694DFA6D7702&assignmentId=24c9360a-a420-434c-b5a9-d02b5549a719&projectId=e622c465-ee29-4445-8260-1f3431e06587","","null","<div style=""display: flex; justify-content: center; align-items: center;"">
                    <img src=""images/semantic/semantic_series_13/semantic_series_13_b.jpg"" style=""width: 300px; height: 300px;"" />
                  </div>","null","",""
"","","","","","html-keyboard-response","8","56662","0.0-7.0-2.0","480624F7D2124687AD60694DFA6D7702","480624F7D2124687AD60694DFA6D7702","24c9360a-a420-434c-b5a9-d02b5549a719","e622c465-ee29-4445-8260-1f3431e06587","{""participantId"":""480624F7D2124687AD60694DFA6D7702"",""assignmentId"":""24c9360a-a420-434c-b5a9-d02b5549a719"",""projectId"":""e622c465-ee29-4445-8260-1f3431e06587""}","https://test12345.live/?participantId=480624F7D2124687AD60694DFA6D7702&assignmentId=24c9360a-a420-434c-b5a9-d02b5549a719&projectId=e622c465-ee29-4445-8260-1f3431e06587","","null","<div style=""display: flex; justify-content: center; align-items: center;"">
                    <img src=""images/semantic/semantic_series_13/semantic_series_13_c.jpg"" style=""width: 300px; height: 300px;"" />
                  </div>","null","",""
"","","","","","html-keyboard-response","9","59675","0.0-7.0-3.0","480624F7D2124687AD60694DFA6D7702","480624F7D2124687AD60694DFA6D7702","24c9360a-a420-434c-b5a9-d02b5549a719","e622c465-ee29-4445-8260-1f3431e06587","{""participantId"":""480624F7D2124687AD60694DFA6D7702"",""assignmentId"":""24c9360a-a420-434c-b5a9-d02b5549a719"",""projectId"":""e622c465-ee29-4445-8260-1f3431e06587""}","https://test12345.live/?participantId=480624F7D2124687AD60694DFA6D7702&assignmentId=24c9360a-a420-434c-b5a9-d02b5549a719&projectId=e622c465-ee29-4445-8260-1f3431e06587","","null","<div style=""display: flex; justify-content: center; align-items: center;"">
                    <img src=""images/semantic/semantic_series_13/semantic_series_13_d.jpg"" style=""width: 300px; height: 300px;"" />
                  </div>","null","",""
"","","","","","html-button-response","10","63958","0.0-8.0","480624F7D2124687AD60694DFA6D7702","480624F7D2124687AD60694DFA6D7702","24c9360a-a420-434c-b5a9-d02b5549a719","e622c465-ee29-4445-8260-1f3431e06587","{""participantId"":""480624F7D2124687AD60694DFA6D7702"",""assignmentId"":""24c9360a-a420-434c-b5a9-d02b5549a719"",""projectId"":""e622c465-ee29-4445-8260-1f3431e06587""}","https://test12345.live/?participantId=480624F7D2124687AD60694DFA6D7702&assignmentId=24c9360a-a420-434c-b5a9-d02b5549a719&projectId=e622c465-ee29-4445-8260-1f3431e06587","","4281","Was there a person in the picture?","0","",""
"","","","","","survey-likert","11","67901","0.0-9.0","480624F7D2124687AD60694DFA6D7702","480624F7D2124687AD60694DFA6D7702","24c9360a-a420-434c-b5a9-d02b5549a719","e622c465-ee29-4445-8260-1f3431e06587","{""participantId"":""480624F7D2124687AD60694DFA6D7702"",""assignmentId"":""24c9360a-a420-434c-b5a9-d02b5549a719"",""projectId"":""e622c465-ee29-4445-8260-1f3431e06587""}","https://test12345.live/?participantId=480624F7D2124687AD60694DFA6D7702&assignmentId=24c9360a-a420-434c-b5a9-d02b5549a719&projectId=e622c465-ee29-4445-8260-1f3431e06587","","3936","","{""Q0"":2}","","[0]"
"","","","","","html-button-response","12","70414","0.0-10.0","480624F7D2124687AD60694DFA6D7702","480624F7D2124687AD60694DFA6D7702","24c9360a-a420-434c-b5a9-d02b5549a719","e622c465-ee29-4445-8260-1f3431e06587","{""participantId"":""480624F7D2124687AD60694DFA6D7702"",""assignmentId"":""24c9360a-a420-434c-b5a9-d02b5549a719"",""projectId"":""e622c465-ee29-4445-8260-1f3431e06587""}","https://test12345.live/?participantId=480624F7D2124687AD60694DFA6D7702&assignmentId=24c9360a-a420-434c-b5a9-d02b5549a719&projectId=e622c465-ee29-4445-8260-1f3431e06587","","2505","
    <div style=""display: flex; justify-content: center; align-items: center;"">
      <img src=""images/blue_deck_1.png"" style=""width: 300px; height: 300px; margin-right: 10px;"" />
      <img src=""images/red_deck_2.png"" style=""width: 300px; height: 300px;"" />
    </div>","1","1",""
"","","","","","html-keyboard-response","13","73425","0.0-12.0-0.0","480624F7D2124687AD60694DFA6D7702","480624F7D2124687AD60694DFA6D7702","24c9360a-a420-434c-b5a9-d02b5549a719","e622c465-ee29-4445-8260-1f3431e06587","{""participantId"":""480624F7D2124687AD60694DFA6D7702"",""assignmentId"":""24c9360a-a420-434c-b5a9-d02b5549a719"",""projectId"":""e622c465-ee29-4445-8260-1f3431e06587""}","https://test12345.live/?participantId=480624F7D2124687AD60694DFA6D7702&assignmentId=24c9360a-a420-434c-b5a9-d02b5549a719&projectId=e622c465-ee29-4445-8260-1f3431e06587","","null","<div style=""display: flex; justify-content: center; align-items: center;"">
                    <img src=""images/semantic/semantic_series_16/semantic_series_16_a.jpg"" style=""width: 300px; height: 300px;"" />
                  </div>","null","",""
"","","","","","html-keyboard-response","14","76435","0.0-12.0-1.0","480624F7D2124687AD60694DFA6D7702","480624F7D2124687AD60694DFA6D7702","24c9360a-a420-434c-b5a9-d02b5549a719","e622c465-ee29-4445-8260-1f3431e06587","{""participantId"":""480624F7D2124687AD60694DFA6D7702"",""assignmentId"":""24c9360a-a420-434c-b5a9-d02b5549a719"",""projectId"":""e622c465-ee29-4445-8260-1f3431e06587""}","https://test12345.live/?participantId=480624F7D2124687AD60694DFA6D7702&assignmentId=24c9360a-a420-434c-b5a9-d02b5549a719&projectId=e622c465-ee29-4445-8260-1f3431e06587","","null","<div style=""display: flex; justify-content: center; align-items: center;"">
                    <img src=""images/semantic/semantic_series_16/semantic_series_16_b.jpg"" style=""width: 300px; height: 300px;"" />
                  </div>","null","",""
"","","","","","html-keyboard-response","15","79441","0.0-12.0-2.0","480624F7D2124687AD60694DFA6D7702","480624F7D2124687AD60694DFA6D7702","24c9360a-a420-434c-b5a9-d02b5549a719","e622c465-ee29-4445-8260-1f3431e06587","{""participantId"":""480624F7D2124687AD60694DFA6D7702"",""assignmentId"":""24c9360a-a420-434c-b5a9-d02b5549a719"",""projectId"":""e622c465-ee29-4445-8260-1f3431e06587""}","https://test12345.live/?participantId=480624F7D2124687AD60694DFA6D7702&assignmentId=24c9360a-a420-434c-b5a9-d02b5549a719&projectId=e622c465-ee29-4445-8260-1f3431e06587","","null","<div style=""display: flex; justify-content: center; align-items: center;"">
                    <img src=""images/semantic/semantic_series_16/semantic_series_16_c.jpg"" style=""width: 300px; height: 300px;"" />
                  </div>","null","",""
"","","","","","html-keyboard-response","16","82446","0.0-12.0-3.0","480624F7D2124687AD60694DFA6D7702","480624F7D2124687AD60694DFA6D7702","24c9360a-a420-434c-b5a9-d02b5549a719","e622c465-ee29-4445-8260-1f3431e06587","{""participantId"":""480624F7D2124687AD60694DFA6D7702"",""assignmentId"":""24c9360a-a420-434c-b5a9-d02b5549a719"",""projectId"":""e622c465-ee29-4445-8260-1f3431e06587""}","https://test12345.live/?participantId=480624F7D2124687AD60694DFA6D7702&assignmentId=24c9360a-a420-434c-b5a9-d02b5549a719&projectId=e622c465-ee29-4445-8260-1f3431e06587","","null","<div style=""display: flex; justify-content: center; align-items: center;"">
                    <img src=""images/semantic/semantic_series_16/semantic_series_16_d.jpg"" style=""width: 300px; height: 300px;"" />
                  </div>","null","",""
"","","","","","html-button-response","17","85374","0.0-13.0","480624F7D2124687AD60694DFA6D7702","480624F7D2124687AD60694DFA6D7702","24c9360a-a420-434c-b5a9-d02b5549a719","e622c465-ee29-4445-8260-1f3431e06587","{""participantId"":""480624F7D2124687AD60694DFA6D7702"",""assignmentId"":""24c9360a-a420-434c-b5a9-d02b5549a719"",""projectId"":""e622c465-ee29-4445-8260-1f3431e06587""}","https://test12345.live/?participantId=480624F7D2124687AD60694DFA6D7702&assignmentId=24c9360a-a420-434c-b5a9-d02b5549a719&projectId=e622c465-ee29-4445-8260-1f3431e06587","","2926","Was there a person in the picture?","0","",""
"","","","","","survey-likert","18","88299","0.0-14.0","480624F7D2124687AD60694DFA6D7702","480624F7D2124687AD60694DFA6D7702","24c9360a-a420-434c-b5a9-d02b5549a719","e622c465-ee29-4445-8260-1f3431e06587","{""participantId"":""480624F7D2124687AD60694DFA6D7702"",""assignmentId"":""24c9360a-a420-434c-b5a9-d02b5549a719"",""projectId"":""e622c465-ee29-4445-8260-1f3431e06587""}","https://test12345.live/?participantId=480624F7D2124687AD60694DFA6D7702&assignmentId=24c9360a-a420-434c-b5a9-d02b5549a719&projectId=e622c465-ee29-4445-8260-1f3431e06587","","2921","","{""Q0"":2}","","[0]"
"","","","","","html-button-response","19","92999","0.0-15.0","480624F7D2124687AD60694DFA6D7702","480624F7D2124687AD60694DFA6D7702","24c9360a-a420-434c-b5a9-d02b5549a719","e622c465-ee29-4445-8260-1f3431e06587","{""participantId"":""480624F7D2124687AD60694DFA6D7702"",""assignmentId"":""24c9360a-a420-434c-b5a9-d02b5549a719"",""projectId"":""e622c465-ee29-4445-8260-1f3431e06587""}","https://test12345.live/?participantId=480624F7D2124687AD60694DFA6D7702&assignmentId=24c9360a-a420-434c-b5a9-d02b5549a719&projectId=e622c465-ee29-4445-8260-1f3431e06587","","4694","
    <div style=""display: flex; justify-content: center; align-items: center;"">
      <img src=""images/blue_deck_1.png"" style=""width: 300px; height: 300px; margin-right: 10px;"" />
      <img src=""images/red_deck_2.png"" style=""width: 300px; height: 300px;"" />
    </div>","1","1",""
"","","","","","html-keyboard-response","20","96006","0.0-17.0-0.0","480624F7D2124687AD60694DFA6D7702","480624F7D2124687AD60694DFA6D7702","24c9360a-a420-434c-b5a9-d02b5549a719","e622c465-ee29-4445-8260-1f3431e06587","{""participantId"":""480624F7D2124687AD60694DFA6D7702"",""assignmentId"":""24c9360a-a420-434c-b5a9-d02b5549a719"",""projectId"":""e622c465-ee29-4445-8260-1f3431e06587""}","https://test12345.live/?participantId=480624F7D2124687AD60694DFA6D7702&assignmentId=24c9360a-a420-434c-b5a9-d02b5549a719&projectId=e622c465-ee29-4445-8260-1f3431e06587","","null","<div style=""display: flex; justify-content: center; align-items: center;"">
                    <img src=""images/semantic/semantic_series_18/semantic_series_18_a.jpg"" style=""width: 300px; height: 300px;"" />
                  </div>","null","",""
"","","","","","html-keyboard-response","21","99009","0.0-17.0-1.0","480624F7D2124687AD60694DFA6D7702","480624F7D2124687AD60694DFA6D7702","24c9360a-a420-434c-b5a9-d02b5549a719","e622c465-ee29-4445-8260-1f3431e06587","{""participantId"":""480624F7D2124687AD60694DFA6D7702"",""assignmentId"":""24c9360a-a420-434c-b5a9-d02b5549a719"",""projectId"":""e622c465-ee29-4445-8260-1f3431e06587""}","https://test12345.live/?participantId=480624F7D2124687AD60694DFA6D7702&assignmentId=24c9360a-a420-434c-b5a9-d02b5549a719&projectId=e622c465-ee29-4445-8260-1f3431e06587","","null","<div style=""display: flex; justify-content: center; align-items: center;"">
                    <img src=""images/semantic/semantic_series_18/semantic_series_18_b.jpg"" style=""width: 300px; height: 300px;"" />
                  </div>","null","",""
"","","","","","html-keyboard-response","22","102024","0.0-17.0-2.0","480624F7D2124687AD60694DFA6D7702","480624F7D2124687AD60694DFA6D7702","24c9360a-a420-434c-b5a9-d02b5549a719","e622c465-ee29-4445-8260-1f3431e06587","{""participantId"":""480624F7D2124687AD60694DFA6D7702"",""assignmentId"":""24c9360a-a420-434c-b5a9-d02b5549a719"",""projectId"":""e622c465-ee29-4445-8260-1f3431e06587""}","https://test12345.live/?participantId=480624F7D2124687AD60694DFA6D7702&assignmentId=24c9360a-a420-434c-b5a9-d02b5549a719&projectId=e622c465-ee29-4445-8260-1f3431e06587","","null","<div style=""display: flex; justify-content: center; align-items: center;"">
                    <img src=""images/semantic/semantic_series_18/semantic_series_18_c.jpg"" style=""width: 300px; height: 300px;"" />
                  </div>","null","",""
"","","","","","html-keyboard-response","23","105042","0.0-17.0-3.0","480624F7D2124687AD60694DFA6D7702","480624F7D2124687AD60694DFA6D7702","24c9360a-a420-434c-b5a9-d02b5549a719","e622c465-ee29-4445-8260-1f3431e06587","{""participantId"":""480624F7D2124687AD60694DFA6D7702"",""assignmentId"":""24c9360a-a420-434c-b5a9-d02b5549a719"",""projectId"":""e622c465-ee29-4445-8260-1f3431e06587""}","https://test12345.live/?participantId=480624F7D2124687AD60694DFA6D7702&assignmentId=24c9360a-a420-434c-b5a9-d02b5549a719&projectId=e622c465-ee29-4445-8260-1f3431e06587","","null","<div style=""display: flex; justify-content: center; align-items: center;"">
                    <img src=""images/semantic/semantic_series_18/semantic_series_18_d.jpg"" style=""width: 300px; height: 300px;"" />
                  </div>","null","",""
"","","","","","html-button-response","24","107004","0.0-18.0","480624F7D2124687AD60694DFA6D7702","480624F7D2124687AD60694DFA6D7702","24c9360a-a420-434c-b5a9-d02b5549a719","e622c465-ee29-4445-8260-1f3431e06587","{""participantId"":""480624F7D2124687AD60694DFA6D7702"",""assignmentId"":""24c9360a-a420-434c-b5a9-d02b5549a719"",""projectId"":""e622c465-ee29-4445-8260-1f3431e06587""}","https://test12345.live/?participantId=480624F7D2124687AD60694DFA6D7702&assignmentId=24c9360a-a420-434c-b5a9-d02b5549a719&projectId=e622c465-ee29-4445-8260-1f3431e06587","","1959","Was there a person in the picture?","1","",""
"","","","","","survey-likert","25","108872","0.0-19.0","480624F7D2124687AD60694DFA6D7702","480624F7D2124687AD60694DFA6D7702","24c9360a-a420-434c-b5a9-d02b5549a719","e622c465-ee29-4445-8260-1f3431e06587","{""participantId"":""480624F7D2124687AD60694DFA6D7702"",""assignmentId"":""24c9360a-a420-434c-b5a9-d02b5549a719"",""projectId"":""e622c465-ee29-4445-8260-1f3431e06587""}","https://test12345.live/?participantId=480624F7D2124687AD60694DFA6D7702&assignmentId=24c9360a-a420-434c-b5a9-d02b5549a719&projectId=e622c465-ee29-4445-8260-1f3431e06587","","1863","","{""Q0"":2}","","[0]"
"","","","","","html-button-response","26","110081","0.0-20.0","480624F7D2124687AD60694DFA6D7702","480624F7D2124687AD60694DFA6D7702","24c9360a-a420-434c-b5a9-d02b5549a719","e622c465-ee29-4445-8260-1f3431e06587","{""participantId"":""480624F7D2124687AD60694DFA6D7702"",""assignmentId"":""24c9360a-a420-434c-b5a9-d02b5549a719"",""projectId"":""e622c465-ee29-4445-8260-1f3431e06587""}","https://test12345.live/?participantId=480624F7D2124687AD60694DFA6D7702&assignmentId=24c9360a-a420-434c-b5a9-d02b5549a719&projectId=e622c465-ee29-4445-8260-1f3431e06587","","1205","
    <div style=""display: flex; justify-content: center; align-items: center;"">
      <img src=""images/blue_deck_1.png"" style=""width: 300px; height: 300px; margin-right: 10px;"" />
      <img src=""images/red_deck_2.png"" style=""width: 300px; height: 300px;"" />
    </div>","1","1",""
"","","","","","html-keyboard-response","27","113098","0.0-22.0-0.0","480624F7D2124687AD60694DFA6D7702","480624F7D2124687AD60694DFA6D7702","24c9360a-a420-434c-b5a9-d02b5549a719","e622c465-ee29-4445-8260-1f3431e06587","{""participantId"":""480624F7D2124687AD60694DFA6D7702"",""assignmentId"":""24c9360a-a420-434c-b5a9-d02b5549a719"",""projectId"":""e622c465-ee29-4445-8260-1f3431e06587""}","https://test12345.live/?participantId=480624F7D2124687AD60694DFA6D7702&assignmentId=24c9360a-a420-434c-b5a9-d02b5549a719&projectId=e622c465-ee29-4445-8260-1f3431e06587","","null","<div style=""display: flex; justify-content: center; align-items: center;"">
                    <img src=""images/semantic/semantic_series_17/semantic_series_17_a.jpg"" style=""width: 300px; height: 300px;"" />
                  </div>","null","",""
"","","","","","html-keyboard-response","28","116109","0.0-22.0-1.0","480624F7D2124687AD60694DFA6D7702","480624F7D2124687AD60694DFA6D7702","24c9360a-a420-434c-b5a9-d02b5549a719","e622c465-ee29-4445-8260-1f3431e06587","{""participantId"":""480624F7D2124687AD60694DFA6D7702"",""assignmentId"":""24c9360a-a420-434c-b5a9-d02b5549a719"",""projectId"":""e622c465-ee29-4445-8260-1f3431e06587""}","https://test12345.live/?participantId=480624F7D2124687AD60694DFA6D7702&assignmentId=24c9360a-a420-434c-b5a9-d02b5549a719&projectId=e622c465-ee29-4445-8260-1f3431e06587","","null","<div style=""display: flex; justify-content: center; align-items: center;"">
                    <img src=""images/semantic/semantic_series_17/semantic_series_17_b.jpg"" style=""width: 300px; height: 300px;"" />
                  </div>","null","",""
"","","","","","html-keyboard-response","29","119116","0.0-22.0-2.0","480624F7D2124687AD60694DFA6D7702","480624F7D2124687AD60694DFA6D7702","24c9360a-a420-434c-b5a9-d02b5549a719","e622c465-ee29-4445-8260-1f3431e06587","{""participantId"":""480624F7D2124687AD60694DFA6D7702"",""assignmentId"":""24c9360a-a420-434c-b5a9-d02b5549a719"",""projectId"":""e622c465-ee29-4445-8260-1f3431e06587""}","https://test12345.live/?participantId=480624F7D2124687AD60694DFA6D7702&assignmentId=24c9360a-a420-434c-b5a9-d02b5549a719&projectId=e622c465-ee29-4445-8260-1f3431e06587","","null","<div style=""display: flex; justify-content: center; align-items: center;"">
                    <img src=""images/semantic/semantic_series_17/semantic_series_17_c.jpg"" style=""width: 300px; height: 300px;"" />
                  </div>","null","",""
"","","","","","html-keyboard-response","30","122125","0.0-22.0-3.0","480624F7D2124687AD60694DFA6D7702","480624F7D2124687AD60694DFA6D7702","24c9360a-a420-434c-b5a9-d02b5549a719","e622c465-ee29-4445-8260-1f3431e06587","{""participantId"":""480624F7D2124687AD60694DFA6D7702"",""assignmentId"":""24c9360a-a420-434c-b5a9-d02b5549a719"",""projectId"":""e622c465-ee29-4445-8260-1f3431e06587""}","https://test12345.live/?participantId=480624F7D2124687AD60694DFA6D7702&assignmentId=24c9360a-a420-434c-b5a9-d02b5549a719&projectId=e622c465-ee29-4445-8260-1f3431e06587","","null","<div style=""display: flex; justify-content: center; align-items: center;"">
                    <img src=""images/semantic/semantic_series_17/semantic_series_17_d.jpg"" style=""width: 300px; height: 300px;"" />
                  </div>","null","",""
"","","","","","html-button-response","31","125084","0.0-23.0","480624F7D2124687AD60694DFA6D7702","480624F7D2124687AD60694DFA6D7702","24c9360a-a420-434c-b5a9-d02b5549a719","e622c465-ee29-4445-8260-1f3431e06587","{""participantId"":""480624F7D2124687AD60694DFA6D7702"",""assignmentId"":""24c9360a-a420-434c-b5a9-d02b5549a719"",""projectId"":""e622c465-ee29-4445-8260-1f3431e06587""}","https://test12345.live/?participantId=480624F7D2124687AD60694DFA6D7702&assignmentId=24c9360a-a420-434c-b5a9-d02b5549a719&projectId=e622c465-ee29-4445-8260-1f3431e06587","","2957","Was there a person in the picture?","0","",""
"","","","","","survey-likert","32","127862","0.0-24.0","480624F7D2124687AD60694DFA6D7702","480624F7D2124687AD60694DFA6D7702","24c9360a-a420-434c-b5a9-d02b5549a719","e622c465-ee29-4445-8260-1f3431e06587","{""participantId"":""480624F7D2124687AD60694DFA6D7702"",""assignmentId"":""24c9360a-a420-434c-b5a9-d02b5549a719"",""projectId"":""e622c465-ee29-4445-8260-1f3431e06587""}","https://test12345.live/?participantId=480624F7D2124687AD60694DFA6D7702&assignmentId=24c9360a-a420-434c-b5a9-d02b5549a719&projectId=e622c465-ee29-4445-8260-1f3431e06587","","2775","","{""Q0"":1}","","[0]"
"","","","","","html-button-response","33","130114","0.0-25.0","480624F7D2124687AD60694DFA6D7702","480624F7D2124687AD60694DFA6D7702","24c9360a-a420-434c-b5a9-d02b5549a719","e622c465-ee29-4445-8260-1f3431e06587","{""participantId"":""480624F7D2124687AD60694DFA6D7702"",""assignmentId"":""24c9360a-a420-434c-b5a9-d02b5549a719"",""projectId"":""e622c465-ee29-4445-8260-1f3431e06587""}","https://test12345.live/?participantId=480624F7D2124687AD60694DFA6D7702&assignmentId=24c9360a-a420-434c-b5a9-d02b5549a719&projectId=e622c465-ee29-4445-8260-1f3431e06587","","2246","
    <div style=""display: flex; justify-content: center; align-items: center;"">
      <img src=""images/blue_deck_1.png"" style=""width: 300px; height: 300px; margin-right: 10px;"" />
      <img src=""images/red_deck_2.png"" style=""width: 300px; height: 300px;"" />
    </div>","1","1",""
"","","","","","html-keyboard-response","34","133127","0.0-27.0-0.0","480624F7D2124687AD60694DFA6D7702","480624F7D2124687AD60694DFA6D7702","24c9360a-a420-434c-b5a9-d02b5549a719","e622c465-ee29-4445-8260-1f3431e06587","{""participantId"":""480624F7D2124687AD60694DFA6D7702"",""assignmentId"":""24c9360a-a420-434c-b5a9-d02b5549a719"",""projectId"":""e622c465-ee29-4445-8260-1f3431e06587""}","https://test12345.live/?participantId=480624F7D2124687AD60694DFA6D7702&assignmentId=24c9360a-a420-434c-b5a9-d02b5549a719&projectId=e622c465-ee29-4445-8260-1f3431e06587","","null","<div style=""display: flex; justify-content: center; align-items: center;"">
                    <img src=""images/semantic/semantic_series_6/semantic_series_6_a.jpg"" style=""width: 300px; height: 300px;"" />
                  </div>","null","",""
"","","","","","html-keyboard-response","35","136141","0.0-27.0-1.0","480624F7D2124687AD60694DFA6D7702","480624F7D2124687AD60694DFA6D7702","24c9360a-a420-434c-b5a9-d02b5549a719","e622c465-ee29-4445-8260-1f3431e06587","{""participantId"":""480624F7D2124687AD60694DFA6D7702"",""assignmentId"":""24c9360a-a420-434c-b5a9-d02b5549a719"",""projectId"":""e622c465-ee29-4445-8260-1f3431e06587""}","https://test12345.live/?participantId=480624F7D2124687AD60694DFA6D7702&assignmentId=24c9360a-a420-434c-b5a9-d02b5549a719&projectId=e622c465-ee29-4445-8260-1f3431e06587","","null","<div style=""display: flex; justify-content: center; align-items: center;"">
                    <img src=""images/semantic/semantic_series_6/semantic_series_6_b.jpg"" style=""width: 300px; height: 300px;"" />
                  </div>","null","",""
"","","","","","html-keyboard-response","36","139157","0.0-27.0-2.0","480624F7D2124687AD60694DFA6D7702","480624F7D2124687AD60694DFA6D7702","24c9360a-a420-434c-b5a9-d02b5549a719","e622c465-ee29-4445-8260-1f3431e06587","{""participantId"":""480624F7D2124687AD60694DFA6D7702"",""assignmentId"":""24c9360a-a420-434c-b5a9-d02b5549a719"",""projectId"":""e622c465-ee29-4445-8260-1f3431e06587""}","https://test12345.live/?participantId=480624F7D2124687AD60694DFA6D7702&assignmentId=24c9360a-a420-434c-b5a9-d02b5549a719&projectId=e622c465-ee29-4445-8260-1f3431e06587","","null","<div style=""display: flex; justify-content: center; align-items: center;"">
                    <img src=""images/semantic/semantic_series_6/semantic_series_6_c.jpg"" style=""width: 300px; height: 300px;"" />
                  </div>","null","",""
"","","","","","html-keyboard-response","37","142173","0.0-27.0-3.0","480624F7D2124687AD60694DFA6D7702","480624F7D2124687AD60694DFA6D7702","24c9360a-a420-434c-b5a9-d02b5549a719","e622c465-ee29-4445-8260-1f3431e06587","{""participantId"":""480624F7D2124687AD60694DFA6D7702"",""assignmentId"":""24c9360a-a420-434c-b5a9-d02b5549a719"",""projectId"":""e622c465-ee29-4445-8260-1f3431e06587""}","https://test12345.live/?participantId=480624F7D2124687AD60694DFA6D7702&assignmentId=24c9360a-a420-434c-b5a9-d02b5549a719&projectId=e622c465-ee29-4445-8260-1f3431e06587","","null","<div style=""display: flex; justify-content: center; align-items: center;"">
                    <img src=""images/semantic/semantic_series_6/semantic_series_6_d.jpg"" style=""width: 300px; height: 300px;"" />
                  </div>","null","",""
"","","","","","html-button-response","38","144272","0.0-28.0","480624F7D2124687AD60694DFA6D7702","480624F7D2124687AD60694DFA6D7702","24c9360a-a420-434c-b5a9-d02b5549a719","e622c465-ee29-4445-8260-1f3431e06587","{""participantId"":""480624F7D2124687AD60694DFA6D7702"",""assignmentId"":""24c9360a-a420-434c-b5a9-d02b5549a719"",""projectId"":""e622c465-ee29-4445-8260-1f3431e06587""}","https://test12345.live/?participantId=480624F7D2124687AD60694DFA6D7702&assignmentId=24c9360a-a420-434c-b5a9-d02b5549a719&projectId=e622c465-ee29-4445-8260-1f3431e06587","","2096","Was there a person in the picture?","1","",""
"","","","","","survey-likert","39","147946","0.0-29.0","480624F7D2124687AD60694DFA6D7702","480624F7D2124687AD60694DFA6D7702","24c9360a-a420-434c-b5a9-d02b5549a719","e622c465-ee29-4445-8260-1f3431e06587","{""participantId"":""480624F7D2124687AD60694DFA6D7702"",""assignmentId"":""24c9360a-a420-434c-b5a9-d02b5549a719"",""projectId"":""e622c465-ee29-4445-8260-1f3431e06587""}","https://test12345.live/?participantId=480624F7D2124687AD60694DFA6D7702&assignmentId=24c9360a-a420-434c-b5a9-d02b5549a719&projectId=e622c465-ee29-4445-8260-1f3431e06587","","3670","","{""Q0"":1}","","[0]"
"","","","","","html-button-response","40","148979","0.0-30.0","480624F7D2124687AD60694DFA6D7702","480624F7D2124687AD60694DFA6D7702","24c9360a-a420-434c-b5a9-d02b5549a719","e622c465-ee29-4445-8260-1f3431e06587","{""participantId"":""480624F7D2124687AD60694DFA6D7702"",""assignmentId"":""24c9360a-a420-434c-b5a9-d02b5549a719"",""projectId"":""e622c465-ee29-4445-8260-1f3431e06587""}","https://test12345.live/?participantId=480624F7D2124687AD60694DFA6D7702&assignmentId=24c9360a-a420-434c-b5a9-d02b5549a719&projectId=e622c465-ee29-4445-8260-1f3431e06587","","1027","
    <div style=""display: flex; justify-content: center; align-items: center;"">
      <img src=""images/blue_deck_1.png"" style=""width: 300px; height: 300px; margin-right: 10px;"" />
      <img src=""images/red_deck_2.png"" style=""width: 300px; height: 300px;"" />
    </div>","1","1",""
"","","","","","html-keyboard-response","41","151988","0.0-32.0-0.0","480624F7D2124687AD60694DFA6D7702","480624F7D2124687AD60694DFA6D7702","24c9360a-a420-434c-b5a9-d02b5549a719","e622c465-ee29-4445-8260-1f3431e06587","{""participantId"":""480624F7D2124687AD60694DFA6D7702"",""assignmentId"":""24c9360a-a420-434c-b5a9-d02b5549a719"",""projectId"":""e622c465-ee29-4445-8260-1f3431e06587""}","https://test12345.live/?participantId=480624F7D2124687AD60694DFA6D7702&assignmentId=24c9360a-a420-434c-b5a9-d02b5549a719&projectId=e622c465-ee29-4445-8260-1f3431e06587","","null","<div style=""display: flex; justify-content: center; align-items: center;"">
                    <img src=""images/semantic/semantic_series_5/semantic_series_5_a.jpg"" style=""width: 300px; height: 300px;"" />
                  </div>","null","",""
"","","","","","html-keyboard-response","42","154991","0.0-32.0-1.0","480624F7D2124687AD60694DFA6D7702","480624F7D2124687AD60694DFA6D7702","24c9360a-a420-434c-b5a9-d02b5549a719","e622c465-ee29-4445-8260-1f3431e06587","{""participantId"":""480624F7D2124687AD60694DFA6D7702"",""assignmentId"":""24c9360a-a420-434c-b5a9-d02b5549a719"",""projectId"":""e622c465-ee29-4445-8260-1f3431e06587""}","https://test12345.live/?participantId=480624F7D2124687AD60694DFA6D7702&assignmentId=24c9360a-a420-434c-b5a9-d02b5549a719&projectId=e622c465-ee29-4445-8260-1f3431e06587","","null","<div style=""display: flex; justify-content: center; align-items: center;"">
                    <img src=""images/semantic/semantic_series_5/semantic_series_5_b.jpg"" style=""width: 300px; height: 300px;"" />
                  </div>","null","",""
"","","","","","html-keyboard-response","43","158007","0.0-32.0-2.0","480624F7D2124687AD60694DFA6D7702","480624F7D2124687AD60694DFA6D7702","24c9360a-a420-434c-b5a9-d02b5549a719","e622c465-ee29-4445-8260-1f3431e06587","{""participantId"":""480624F7D2124687AD60694DFA6D7702"",""assignmentId"":""24c9360a-a420-434c-b5a9-d02b5549a719"",""projectId"":""e622c465-ee29-4445-8260-1f3431e06587""}","https://test12345.live/?participantId=480624F7D2124687AD60694DFA6D7702&assignmentId=24c9360a-a420-434c-b5a9-d02b5549a719&projectId=e622c465-ee29-4445-8260-1f3431e06587","","null","<div style=""display: flex; justify-content: center; align-items: center;"">
                    <img src=""images/semantic/semantic_series_5/semantic_series_5_c.jpg"" style=""width: 300px; height: 300px;"" />
                  </div>","null","",""
"","","","","","html-keyboard-response","44","161022","0.0-32.0-3.0","480624F7D2124687AD60694DFA6D7702","480624F7D2124687AD60694DFA6D7702","24c9360a-a420-434c-b5a9-d02b5549a719","e622c465-ee29-4445-8260-1f3431e06587","{""participantId"":""480624F7D2124687AD60694DFA6D7702"",""assignmentId"":""24c9360a-a420-434c-b5a9-d02b5549a719"",""projectId"":""e622c465-ee29-4445-8260-1f3431e06587""}","https://test12345.live/?participantId=480624F7D2124687AD60694DFA6D7702&assignmentId=24c9360a-a420-434c-b5a9-d02b5549a719&projectId=e622c465-ee29-4445-8260-1f3431e06587","","null","<div style=""display: flex; justify-content: center; align-items: center;"">
                    <img src=""images/semantic/semantic_series_5/semantic_series_5_d.jpg"" style=""width: 300px; height: 300px;"" />
                  </div>","null","",""
"","","","","","html-button-response","45","163283","0.0-33.0","480624F7D2124687AD60694DFA6D7702","480624F7D2124687AD60694DFA6D7702","24c9360a-a420-434c-b5a9-d02b5549a719","e622c465-ee29-4445-8260-1f3431e06587","{""participantId"":""480624F7D2124687AD60694DFA6D7702"",""assignmentId"":""24c9360a-a420-434c-b5a9-d02b5549a719"",""projectId"":""e622c465-ee29-4445-8260-1f3431e06587""}","https://test12345.live/?participantId=480624F7D2124687AD60694DFA6D7702&assignmentId=24c9360a-a420-434c-b5a9-d02b5549a719&projectId=e622c465-ee29-4445-8260-1f3431e06587","","2258","Was there a person in the picture?","0","",""
"","","","","","survey-likert","46","165266","0.0-34.0","480624F7D2124687AD60694DFA6D7702","480624F7D2124687AD60694DFA6D7702","24c9360a-a420-434c-b5a9-d02b5549a719","e622c465-ee29-4445-8260-1f3431e06587","{""participantId"":""480624F7D2124687AD60694DFA6D7702"",""assignmentId"":""24c9360a-a420-434c-b5a9-d02b5549a719"",""projectId"":""e622c465-ee29-4445-8260-1f3431e06587""}","https://test12345.live/?participantId=480624F7D2124687AD60694DFA6D7702&assignmentId=24c9360a-a420-434c-b5a9-d02b5549a719&projectId=e622c465-ee29-4445-8260-1f3431e06587","","1977","","{""Q0"":2}","","[0]"
"","","","","","html-button-response","47","166445","0.0-35.0","480624F7D2124687AD60694DFA6D7702","480624F7D2124687AD60694DFA6D7702","24c9360a-a420-434c-b5a9-d02b5549a719","e622c465-ee29-4445-8260-1f3431e06587","{""participantId"":""480624F7D2124687AD60694DFA6D7702"",""assignmentId"":""24c9360a-a420-434c-b5a9-d02b5549a719"",""projectId"":""e622c465-ee29-4445-8260-1f3431e06587""}","https://test12345.live/?participantId=480624F7D2124687AD60694DFA6D7702&assignmentId=24c9360a-a420-434c-b5a9-d02b5549a719&projectId=e622c465-ee29-4445-8260-1f3431e06587","","1175","
    <div style=""display: flex; justify-content: center; align-items: center;"">
      <img src=""images/blue_deck_1.png"" style=""width: 300px; height: 300px; margin-right: 10px;"" />
      <img src=""images/red_deck_2.png"" style=""width: 300px; height: 300px;"" />
    </div>","1","1",""
"","","","","","html-keyboard-response","48","169458","0.0-37.0-0.0","480624F7D2124687AD60694DFA6D7702","480624F7D2124687AD60694DFA6D7702","24c9360a-a420-434c-b5a9-d02b5549a719","e622c465-ee29-4445-8260-1f3431e06587","{""participantId"":""480624F7D2124687AD60694DFA6D7702"",""assignmentId"":""24c9360a-a420-434c-b5a9-d02b5549a719"",""projectId"":""e622c465-ee29-4445-8260-1f3431e06587""}","https://test12345.live/?participantId=480624F7D2124687AD60694DFA6D7702&assignmentId=24c9360a-a420-434c-b5a9-d02b5549a719&projectId=e622c465-ee29-4445-8260-1f3431e06587","","null","<div style=""display: flex; justify-content: center; align-items: center;"">
                    <img src=""images/semantic/semantic_series_1/semantic_series_1_a.jpg"" style=""width: 300px; height: 300px;"" />
                  </div>","null","",""
"","","","","","html-keyboard-response","49","172474","0.0-37.0-1.0","480624F7D2124687AD60694DFA6D7702","480624F7D2124687AD60694DFA6D7702","24c9360a-a420-434c-b5a9-d02b5549a719","e622c465-ee29-4445-8260-1f3431e06587","{""participantId"":""480624F7D2124687AD60694DFA6D7702"",""assignmentId"":""24c9360a-a420-434c-b5a9-d02b5549a719"",""projectId"":""e622c465-ee29-4445-8260-1f3431e06587""}","https://test12345.live/?participantId=480624F7D2124687AD60694DFA6D7702&assignmentId=24c9360a-a420-434c-b5a9-d02b5549a719&projectId=e622c465-ee29-4445-8260-1f3431e06587","","null","<div style=""display: flex; justify-content: center; align-items: center;"">
                    <img src=""images/semantic/semantic_series_1/semantic_series_1_b.jpg"" style=""width: 300px; height: 300px;"" />
                  </div>","null","",""
"","","","","","html-keyboard-response","50","175480","0.0-37.0-2.0","480624F7D2124687AD60694DFA6D7702","480624F7D2124687AD60694DFA6D7702","24c9360a-a420-434c-b5a9-d02b5549a719","e622c465-ee29-4445-8260-1f3431e06587","{""participantId"":""480624F7D2124687AD60694DFA6D7702"",""assignmentId"":""24c9360a-a420-434c-b5a9-d02b5549a719"",""projectId"":""e622c465-ee29-4445-8260-1f3431e06587""}","https://test12345.live/?participantId=480624F7D2124687AD60694DFA6D7702&assignmentId=24c9360a-a420-434c-b5a9-d02b5549a719&projectId=e622c465-ee29-4445-8260-1f3431e06587","","null","<div style=""display: flex; justify-content: center; align-items: center;"">
                    <img src=""images/semantic/semantic_series_1/semantic_series_1_c.jpg"" style=""width: 300px; height: 300px;"" />
                  </div>","null","",""
"","","","","","html-keyboard-response","51","178494","0.0-37.0-3.0","480624F7D2124687AD60694DFA6D7702","480624F7D2124687AD60694DFA6D7702","24c9360a-a420-434c-b5a9-d02b5549a719","e622c465-ee29-4445-8260-1f3431e06587","{""participantId"":""480624F7D2124687AD60694DFA6D7702"",""assignmentId"":""24c9360a-a420-434c-b5a9-d02b5549a719"",""projectId"":""e622c465-ee29-4445-8260-1f3431e06587""}","https://test12345.live/?participantId=480624F7D2124687AD60694DFA6D7702&assignmentId=24c9360a-a420-434c-b5a9-d02b5549a719&projectId=e622c465-ee29-4445-8260-1f3431e06587","","null","<div style=""display: flex; justify-content: center; align-items: center;"">
                    <img src=""images/semantic/semantic_series_1/semantic_series_1_d.jpg"" style=""width: 300px; height: 300px;"" />
                  </div>","null","",""
"","","","","","html-button-response","52","181096","0.0-38.0","480624F7D2124687AD60694DFA6D7702","480624F7D2124687AD60694DFA6D7702","24c9360a-a420-434c-b5a9-d02b5549a719","e622c465-ee29-4445-8260-1f3431e06587","{""participantId"":""480624F7D2124687AD60694DFA6D7702"",""assignmentId"":""24c9360a-a420-434c-b5a9-d02b5549a719"",""projectId"":""e622c465-ee29-4445-8260-1f3431e06587""}","https://test12345.live/?participantId=480624F7D2124687AD60694DFA6D7702&assignmentId=24c9360a-a420-434c-b5a9-d02b5549a719&projectId=e622c465-ee29-4445-8260-1f3431e06587","","2609","Was there a person in the picture?","0","",""
"","","","","","survey-likert","53","183471","0.0-39.0","480624F7D2124687AD60694DFA6D7702","480624F7D2124687AD60694DFA6D7702","24c9360a-a420-434c-b5a9-d02b5549a719","e622c465-ee29-4445-8260-1f3431e06587","{""participantId"":""480624F7D2124687AD60694DFA6D7702"",""assignmentId"":""24c9360a-a420-434c-b5a9-d02b5549a719"",""projectId"":""e622c465-ee29-4445-8260-1f3431e06587""}","https://test12345.live/?participantId=480624F7D2124687AD60694DFA6D7702&assignmentId=24c9360a-a420-434c-b5a9-d02b5549a719&projectId=e622c465-ee29-4445-8260-1f3431e06587","","2369","","{""Q0"":1}","","[0]"
"","","","","","html-button-response","54","184506","0.0-40.0","480624F7D2124687AD60694DFA6D7702","480624F7D2124687AD60694DFA6D7702","24c9360a-a420-434c-b5a9-d02b5549a719","e622c465-ee29-4445-8260-1f3431e06587","{""participantId"":""480624F7D2124687AD60694DFA6D7702"",""assignmentId"":""24c9360a-a420-434c-b5a9-d02b5549a719"",""projectId"":""e622c465-ee29-4445-8260-1f3431e06587""}","https://test12345.live/?participantId=480624F7D2124687AD60694DFA6D7702&assignmentId=24c9360a-a420-434c-b5a9-d02b5549a719&projectId=e622c465-ee29-4445-8260-1f3431e06587","","1027","
    <div style=""display: flex; justify-content: center; align-items: center;"">
      <img src=""images/blue_deck_1.png"" style=""width: 300px; height: 300px; margin-right: 10px;"" />
      <img src=""images/red_deck_2.png"" style=""width: 300px; height: 300px;"" />
    </div>","0","0",""
"","","","","","html-keyboard-response","55","187510","0.0-41.0-0.0","480624F7D2124687AD60694DFA6D7702","480624F7D2124687AD60694DFA6D7702","24c9360a-a420-434c-b5a9-d02b5549a719","e622c465-ee29-4445-8260-1f3431e06587","{""participantId"":""480624F7D2124687AD60694DFA6D7702"",""assignmentId"":""24c9360a-a420-434c-b5a9-d02b5549a719"",""projectId"":""e622c465-ee29-4445-8260-1f3431e06587""}","https://test12345.live/?participantId=480624F7D2124687AD60694DFA6D7702&assignmentId=24c9360a-a420-434c-b5a9-d02b5549a719&projectId=e622c465-ee29-4445-8260-1f3431e06587","","null","<div style=""display: flex; justify-content: center; align-items: center;"">
                    <img src=""images/causal/causal_series_18/causal_series_18_a.jpg"" style=""width: 300px; height: 300px;"" />
                  </div>","null","",""
"","","","","","html-keyboard-response","56","190512","0.0-41.0-1.0","480624F7D2124687AD60694DFA6D7702","480624F7D2124687AD60694DFA6D7702","24c9360a-a420-434c-b5a9-d02b5549a719","e622c465-ee29-4445-8260-1f3431e06587","{""participantId"":""480624F7D2124687AD60694DFA6D7702"",""assignmentId"":""24c9360a-a420-434c-b5a9-d02b5549a719"",""projectId"":""e622c465-ee29-4445-8260-1f3431e06587""}","https://test12345.live/?participantId=480624F7D2124687AD60694DFA6D7702&assignmentId=24c9360a-a420-434c-b5a9-d02b5549a719&projectId=e622c465-ee29-4445-8260-1f3431e06587","","null","<div style=""display: flex; justify-content: center; align-items: center;"">
                    <img src=""images/causal/causal_series_18/causal_series_18_b.jpg"" style=""width: 300px; height: 300px;"" />
                  </div>","null","",""
"","","","","","html-keyboard-response","57","193526","0.0-41.0-2.0","480624F7D2124687AD60694DFA6D7702","480624F7D2124687AD60694DFA6D7702","24c9360a-a420-434c-b5a9-d02b5549a719","e622c465-ee29-4445-8260-1f3431e06587","{""participantId"":""480624F7D2124687AD60694DFA6D7702"",""assignmentId"":""24c9360a-a420-434c-b5a9-d02b5549a719"",""projectId"":""e622c465-ee29-4445-8260-1f3431e06587""}","https://test12345.live/?participantId=480624F7D2124687AD60694DFA6D7702&assignmentId=24c9360a-a420-434c-b5a9-d02b5549a719&projectId=e622c465-ee29-4445-8260-1f3431e06587","","null","<div style=""display: flex; justify-content: center; align-items: center;"">
                    <img src=""images/causal/causal_series_18/causal_series_18_c.jpg"" style=""width: 300px; height: 300px;"" />
                  </div>","null","",""
"","","","","","html-keyboard-response","58","196541","0.0-41.0-3.0","480624F7D2124687AD60694DFA6D7702","480624F7D2124687AD60694DFA6D7702","24c9360a-a420-434c-b5a9-d02b5549a719","e622c465-ee29-4445-8260-1f3431e06587","{""participantId"":""480624F7D2124687AD60694DFA6D7702"",""assignmentId"":""24c9360a-a420-434c-b5a9-d02b5549a719"",""projectId"":""e622c465-ee29-4445-8260-1f3431e06587""}","https://test12345.live/?participantId=480624F7D2124687AD60694DFA6D7702&assignmentId=24c9360a-a420-434c-b5a9-d02b5549a719&projectId=e622c465-ee29-4445-8260-1f3431e06587","","null","<div style=""display: flex; justify-content: center; align-items: center;"">
                    <img src=""images/causal/causal_series_18/causal_series_18_d.jpg"" style=""width: 300px; height: 300px;"" />
                  </div>","null","",""
"","","","","","html-button-response","59","197962","0.0-43.0","480624F7D2124687AD60694DFA6D7702","480624F7D2124687AD60694DFA6D7702","24c9360a-a420-434c-b5a9-d02b5549a719","e622c465-ee29-4445-8260-1f3431e06587","{""participantId"":""480624F7D2124687AD60694DFA6D7702"",""assignmentId"":""24c9360a-a420-434c-b5a9-d02b5549a719"",""projectId"":""e622c465-ee29-4445-8260-1f3431e06587""}","https://test12345.live/?participantId=480624F7D2124687AD60694DFA6D7702&assignmentId=24c9360a-a420-434c-b5a9-d02b5549a719&projectId=e622c465-ee29-4445-8260-1f3431e06587","","1418","Was there a person in the picture?","1","",""
"","","","","","survey-likert","60","200421","0.0-44.0","480624F7D2124687AD60694DFA6D7702","480624F7D2124687AD60694DFA6D7702","24c9360a-a420-434c-b5a9-d02b5549a719","e622c465-ee29-4445-8260-1f3431e06587","{""participantId"":""480624F7D2124687AD60694DFA6D7702"",""assignmentId"":""24c9360a-a420-434c-b5a9-d02b5549a719"",""projectId"":""e622c465-ee29-4445-8260-1f3431e06587""}","https://test12345.live/?participantId=480624F7D2124687AD60694DFA6D7702&assignmentId=24c9360a-a420-434c-b5a9-d02b5549a719&projectId=e622c465-ee29-4445-8260-1f3431e06587","","2455","","{""Q0"":2}","","[0]"
"","","","","","html-button-response","61","201464","0.0-45.0","480624F7D2124687AD60694DFA6D7702","480624F7D2124687AD60694DFA6D7702","24c9360a-a420-434c-b5a9-d02b5549a719","e622c465-ee29-4445-8260-1f3431e06587","{""participantId"":""480624F7D2124687AD60694DFA6D7702"",""assignmentId"":""24c9360a-a420-434c-b5a9-d02b5549a719"",""projectId"":""e622c465-ee29-4445-8260-1f3431e06587""}","https://test12345.live/?participantId=480624F7D2124687AD60694DFA6D7702&assignmentId=24c9360a-a420-434c-b5a9-d02b5549a719&projectId=e622c465-ee29-4445-8260-1f3431e06587","","1038","
    <div style=""display: flex; justify-content: center; align-items: center;"">
      <img src=""images/blue_deck_1.png"" style=""width: 300px; height: 300px; margin-right: 10px;"" />
      <img src=""images/red_deck_2.png"" style=""width: 300px; height: 300px;"" />
    </div>","1","1",""
"","","","","","html-keyboard-response","62","204479","0.0-47.0-0.0","480624F7D2124687AD60694DFA6D7702","480624F7D2124687AD60694DFA6D7702","24c9360a-a420-434c-b5a9-d02b5549a719","e622c465-ee29-4445-8260-1f3431e06587","{""participantId"":""480624F7D2124687AD60694DFA6D7702"",""assignmentId"":""24c9360a-a420-434c-b5a9-d02b5549a719"",""projectId"":""e622c465-ee29-4445-8260-1f3431e06587""}","https://test12345.live/?participantId=480624F7D2124687AD60694DFA6D7702&assignmentId=24c9360a-a420-434c-b5a9-d02b5549a719&projectId=e622c465-ee29-4445-8260-1f3431e06587","","null","<div style=""display: flex; justify-content: center; align-items: center;"">
                    <img src=""images/semantic/semantic_series_12/semantic_series_12_a.jpg"" style=""width: 300px; height: 300px;"" />
                  </div>","null","",""
"","","","","","html-keyboard-response","63","207490","0.0-47.0-1.0","480624F7D2124687AD60694DFA6D7702","480624F7D2124687AD60694DFA6D7702","24c9360a-a420-434c-b5a9-d02b5549a719","e622c465-ee29-4445-8260-1f3431e06587","{""participantId"":""480624F7D2124687AD60694DFA6D7702"",""assignmentId"":""24c9360a-a420-434c-b5a9-d02b5549a719"",""projectId"":""e622c465-ee29-4445-8260-1f3431e06587""}","https://test12345.live/?participantId=480624F7D2124687AD60694DFA6D7702&assignmentId=24c9360a-a420-434c-b5a9-d02b5549a719&projectId=e622c465-ee29-4445-8260-1f3431e06587","","null","<div style=""display: flex; justify-content: center; align-items: center;"">
                    <img src=""images/semantic/semantic_series_12/semantic_series_12_b.jpg"" style=""width: 300px; height: 300px;"" />
                  </div>","null","",""
"","","","","","html-keyboard-response","64","210502","0.0-47.0-2.0","480624F7D2124687AD60694DFA6D7702","480624F7D2124687AD60694DFA6D7702","24c9360a-a420-434c-b5a9-d02b5549a719","e622c465-ee29-4445-8260-1f3431e06587","{""participantId"":""480624F7D2124687AD60694DFA6D7702"",""assignmentId"":""24c9360a-a420-434c-b5a9-d02b5549a719"",""projectId"":""e622c465-ee29-4445-8260-1f3431e06587""}","https://test12345.live/?participantId=480624F7D2124687AD60694DFA6D7702&assignmentId=24c9360a-a420-434c-b5a9-d02b5549a719&projectId=e622c465-ee29-4445-8260-1f3431e06587","","null","<div style=""display: flex; justify-content: center; align-items: center;"">
                    <img src=""images/semantic/semantic_series_12/semantic_series_12_c.jpg"" style=""width: 300px; height: 300px;"" />
                  </div>","null","",""
"","","","","","html-keyboard-response","65","213512","0.0-47.0-3.0","480624F7D2124687AD60694DFA6D7702","480624F7D2124687AD60694DFA6D7702","24c9360a-a420-434c-b5a9-d02b5549a719","e622c465-ee29-4445-8260-1f3431e06587","{""participantId"":""480624F7D2124687AD60694DFA6D7702"",""assignmentId"":""24c9360a-a420-434c-b5a9-d02b5549a719"",""projectId"":""e622c465-ee29-4445-8260-1f3431e06587""}","https://test12345.live/?participantId=480624F7D2124687AD60694DFA6D7702&assignmentId=24c9360a-a420-434c-b5a9-d02b5549a719&projectId=e622c465-ee29-4445-8260-1f3431e06587","","null","<div style=""display: flex; justify-content: center; align-items: center;"">
                    <img src=""images/semantic/semantic_series_12/semantic_series_12_d.jpg"" style=""width: 300px; height: 300px;"" />
                  </div>","null","",""
"","","","","","html-button-response","66","215477","0.0-48.0","480624F7D2124687AD60694DFA6D7702","480624F7D2124687AD60694DFA6D7702","24c9360a-a420-434c-b5a9-d02b5549a719","e622c465-ee29-4445-8260-1f3431e06587","{""participantId"":""480624F7D2124687AD60694DFA6D7702"",""assignmentId"":""24c9360a-a420-434c-b5a9-d02b5549a719"",""projectId"":""e622c465-ee29-4445-8260-1f3431e06587""}","https://test12345.live/?participantId=480624F7D2124687AD60694DFA6D7702&assignmentId=24c9360a-a420-434c-b5a9-d02b5549a719&projectId=e622c465-ee29-4445-8260-1f3431e06587","","1964","Was there a person in the picture?","1","",""
"","","","","","survey-likert","67","218388","0.0-49.0","480624F7D2124687AD60694DFA6D7702","480624F7D2124687AD60694DFA6D7702","24c9360a-a420-434c-b5a9-d02b5549a719","e622c465-ee29-4445-8260-1f3431e06587","{""participantId"":""480624F7D2124687AD60694DFA6D7702"",""assignmentId"":""24c9360a-a420-434c-b5a9-d02b5549a719"",""projectId"":""e622c465-ee29-4445-8260-1f3431e06587""}","https://test12345.live/?participantId=480624F7D2124687AD60694DFA6D7702&assignmentId=24c9360a-a420-434c-b5a9-d02b5549a719&projectId=e622c465-ee29-4445-8260-1f3431e06587","","2907","","{""Q0"":1}","","[0]"
"","","","","","html-button-response","68","219388","0.0-50.0","480624F7D2124687AD60694DFA6D7702","480624F7D2124687AD60694DFA6D7702","24c9360a-a420-434c-b5a9-d02b5549a719","e622c465-ee29-4445-8260-1f3431e06587","{""participantId"":""480624F7D2124687AD60694DFA6D7702"",""assignmentId"":""24c9360a-a420-434c-b5a9-d02b5549a719"",""projectId"":""e622c465-ee29-4445-8260-1f3431e06587""}","https://test12345.live/?participantId=480624F7D2124687AD60694DFA6D7702&assignmentId=24c9360a-a420-434c-b5a9-d02b5549a719&projectId=e622c465-ee29-4445-8260-1f3431e06587","","995","
    <div style=""display: flex; justify-content: center; align-items: center;"">
      <img src=""images/blue_deck_1.png"" style=""width: 300px; height: 300px; margin-right: 10px;"" />
      <img src=""images/red_deck_2.png"" style=""width: 300px; height: 300px;"" />
    </div>","1","1",""
"","","","","","html-keyboard-response","69","222399","0.0-52.0-0.0","480624F7D2124687AD60694DFA6D7702","480624F7D2124687AD60694DFA6D7702","24c9360a-a420-434c-b5a9-d02b5549a719","e622c465-ee29-4445-8260-1f3431e06587","{""participantId"":""480624F7D2124687AD60694DFA6D7702"",""assignmentId"":""24c9360a-a420-434c-b5a9-d02b5549a719"",""projectId"":""e622c465-ee29-4445-8260-1f3431e06587""}","https://test12345.live/?participantId=480624F7D2124687AD60694DFA6D7702&assignmentId=24c9360a-a420-434c-b5a9-d02b5549a719&projectId=e622c465-ee29-4445-8260-1f3431e06587","","null","<div style=""display: flex; justify-content: center; align-items: center;"">
                    <img src=""images/semantic/semantic_series_4/semantic_series_4_a.jpg"" style=""width: 300px; height: 300px;"" />
                  </div>","null","",""
"","","","","","html-keyboard-response","70","225414","0.0-52.0-1.0","480624F7D2124687AD60694DFA6D7702","480624F7D2124687AD60694DFA6D7702","24c9360a-a420-434c-b5a9-d02b5549a719","e622c465-ee29-4445-8260-1f3431e06587","{""participantId"":""480624F7D2124687AD60694DFA6D7702"",""assignmentId"":""24c9360a-a420-434c-b5a9-d02b5549a719"",""projectId"":""e622c465-ee29-4445-8260-1f3431e06587""}","https://test12345.live/?participantId=480624F7D2124687AD60694DFA6D7702&assignmentId=24c9360a-a420-434c-b5a9-d02b5549a719&projectId=e622c465-ee29-4445-8260-1f3431e06587","","null","<div style=""display: flex; justify-content: center; align-items: center;"">
                    <img src=""images/semantic/semantic_series_4/semantic_series_4_b.jpg"" style=""width: 300px; height: 300px;"" />
                  </div>","null","",""
"","","","","","html-keyboard-response","71","228430","0.0-52.0-2.0","480624F7D2124687AD60694DFA6D7702","480624F7D2124687AD60694DFA6D7702","24c9360a-a420-434c-b5a9-d02b5549a719","e622c465-ee29-4445-8260-1f3431e06587","{""participantId"":""480624F7D2124687AD60694DFA6D7702"",""assignmentId"":""24c9360a-a420-434c-b5a9-d02b5549a719"",""projectId"":""e622c465-ee29-4445-8260-1f3431e06587""}","https://test12345.live/?participantId=480624F7D2124687AD60694DFA6D7702&assignmentId=24c9360a-a420-434c-b5a9-d02b5549a719&projectId=e622c465-ee29-4445-8260-1f3431e06587","","null","<div style=""display: flex; justify-content: center; align-items: center;"">
                    <img src=""images/semantic/semantic_series_4/semantic_series_4_c.jpg"" style=""width: 300px; height: 300px;"" />
                  </div>","null","",""
"","","","","","html-keyboard-response","72","231442","0.0-52.0-3.0","480624F7D2124687AD60694DFA6D7702","480624F7D2124687AD60694DFA6D7702","24c9360a-a420-434c-b5a9-d02b5549a719","e622c465-ee29-4445-8260-1f3431e06587","{""participantId"":""480624F7D2124687AD60694DFA6D7702"",""assignmentId"":""24c9360a-a420-434c-b5a9-d02b5549a719"",""projectId"":""e622c465-ee29-4445-8260-1f3431e06587""}","https://test12345.live/?participantId=480624F7D2124687AD60694DFA6D7702&assignmentId=24c9360a-a420-434c-b5a9-d02b5549a719&projectId=e622c465-ee29-4445-8260-1f3431e06587","","null","<div style=""display: flex; justify-content: center; align-items: center;"">
                    <img src=""images/semantic/semantic_series_4/semantic_series_4_d.jpg"" style=""width: 300px; height: 300px;"" />
                  </div>","null","",""
"","","","","","html-button-response","73","232363","0.0-53.0","480624F7D2124687AD60694DFA6D7702","480624F7D2124687AD60694DFA6D7702","24c9360a-a420-434c-b5a9-d02b5549a719","e622c465-ee29-4445-8260-1f3431e06587","{""participantId"":""480624F7D2124687AD60694DFA6D7702"",""assignmentId"":""24c9360a-a420-434c-b5a9-d02b5549a719"",""projectId"":""e622c465-ee29-4445-8260-1f3431e06587""}","https://test12345.live/?participantId=480624F7D2124687AD60694DFA6D7702&assignmentId=24c9360a-a420-434c-b5a9-d02b5549a719&projectId=e622c465-ee29-4445-8260-1f3431e06587","","919","Was there a person in the picture?","1","",""
"","","","","","survey-likert","74","238087","0.0-54.0","480624F7D2124687AD60694DFA6D7702","480624F7D2124687AD60694DFA6D7702","24c9360a-a420-434c-b5a9-d02b5549a719","e622c465-ee29-4445-8260-1f3431e06587","{""participantId"":""480624F7D2124687AD60694DFA6D7702"",""assignmentId"":""24c9360a-a420-434c-b5a9-d02b5549a719"",""projectId"":""e622c465-ee29-4445-8260-1f3431e06587""}","https://test12345.live/?participantId=480624F7D2124687AD60694DFA6D7702&assignmentId=24c9360a-a420-434c-b5a9-d02b5549a719&projectId=e622c465-ee29-4445-8260-1f3431e06587","","5719","","{""Q0"":2}","","[0]"
"","","","","","html-button-response","75","239198","0.0-55.0","480624F7D2124687AD60694DFA6D7702","480624F7D2124687AD60694DFA6D7702","24c9360a-a420-434c-b5a9-d02b5549a719","e622c465-ee29-4445-8260-1f3431e06587","{""participantId"":""480624F7D2124687AD60694DFA6D7702"",""assignmentId"":""24c9360a-a420-434c-b5a9-d02b5549a719"",""projectId"":""e622c465-ee29-4445-8260-1f3431e06587""}","https://test12345.live/?participantId=480624F7D2124687AD60694DFA6D7702&assignmentId=24c9360a-a420-434c-b5a9-d02b5549a719&projectId=e622c465-ee29-4445-8260-1f3431e06587","","1106","
    <div style=""display: flex; justify-content: center; align-items: center;"">
      <img src=""images/blue_deck_1.png"" style=""width: 300px; height: 300px; margin-right: 10px;"" />
      <img src=""images/red_deck_2.png"" style=""width: 300px; height: 300px;"" />
    </div>","1","1",""
"","","","","","html-keyboard-response","76","242220","0.0-57.0-0.0","480624F7D2124687AD60694DFA6D7702","480624F7D2124687AD60694DFA6D7702","24c9360a-a420-434c-b5a9-d02b5549a719","e622c465-ee29-4445-8260-1f3431e06587","{""participantId"":""480624F7D2124687AD60694DFA6D7702"",""assignmentId"":""24c9360a-a420-434c-b5a9-d02b5549a719"",""projectId"":""e622c465-ee29-4445-8260-1f3431e06587""}","https://test12345.live/?participantId=480624F7D2124687AD60694DFA6D7702&assignmentId=24c9360a-a420-434c-b5a9-d02b5549a719&projectId=e622c465-ee29-4445-8260-1f3431e06587","","null","<div style=""display: flex; justify-content: center; align-items: center;"">
                    <img src=""images/semantic/semantic_series_10/semantic_series_10_a.jpg"" style=""width: 300px; height: 300px;"" />
                  </div>","null","",""
"","","","","","html-keyboard-response","77","245234","0.0-57.0-1.0","480624F7D2124687AD60694DFA6D7702","480624F7D2124687AD60694DFA6D7702","24c9360a-a420-434c-b5a9-d02b5549a719","e622c465-ee29-4445-8260-1f3431e06587","{""participantId"":""480624F7D2124687AD60694DFA6D7702"",""assignmentId"":""24c9360a-a420-434c-b5a9-d02b5549a719"",""projectId"":""e622c465-ee29-4445-8260-1f3431e06587""}","https://test12345.live/?participantId=480624F7D2124687AD60694DFA6D7702&assignmentId=24c9360a-a420-434c-b5a9-d02b5549a719&projectId=e622c465-ee29-4445-8260-1f3431e06587","","null","<div style=""display: flex; justify-content: center; align-items: center;"">
                    <img src=""images/semantic/semantic_series_10/semantic_series_10_b.jpg"" style=""width: 300px; height: 300px;"" />
                  </div>","null","",""
"","","","","","html-keyboard-response","78","248246","0.0-57.0-2.0","480624F7D2124687AD60694DFA6D7702","480624F7D2124687AD60694DFA6D7702","24c9360a-a420-434c-b5a9-d02b5549a719","e622c465-ee29-4445-8260-1f3431e06587","{""participantId"":""480624F7D2124687AD60694DFA6D7702"",""assignmentId"":""24c9360a-a420-434c-b5a9-d02b5549a719"",""projectId"":""e622c465-ee29-4445-8260-1f3431e06587""}","https://test12345.live/?participantId=480624F7D2124687AD60694DFA6D7702&assignmentId=24c9360a-a420-434c-b5a9-d02b5549a719&projectId=e622c465-ee29-4445-8260-1f3431e06587","","null","<div style=""display: flex; justify-content: center; align-items: center;"">
                    <img src=""images/semantic/semantic_series_10/semantic_series_10_c.jpg"" style=""width: 300px; height: 300px;"" />
                  </div>","null","",""
"","","","","","html-keyboard-response","79","251255","0.0-57.0-3.0","480624F7D2124687AD60694DFA6D7702","480624F7D2124687AD60694DFA6D7702","24c9360a-a420-434c-b5a9-d02b5549a719","e622c465-ee29-4445-8260-1f3431e06587","{""participantId"":""480624F7D2124687AD60694DFA6D7702"",""assignmentId"":""24c9360a-a420-434c-b5a9-d02b5549a719"",""projectId"":""e622c465-ee29-4445-8260-1f3431e06587""}","https://test12345.live/?participantId=480624F7D2124687AD60694DFA6D7702&assignmentId=24c9360a-a420-434c-b5a9-d02b5549a719&projectId=e622c465-ee29-4445-8260-1f3431e06587","","null","<div style=""display: flex; justify-content: center; align-items: center;"">
                    <img src=""images/semantic/semantic_series_10/semantic_series_10_d.jpg"" style=""width: 300px; height: 300px;"" />
                  </div>","null","",""
"","","","","","html-button-response","80","253431","0.0-58.0","480624F7D2124687AD60694DFA6D7702","480624F7D2124687AD60694DFA6D7702","24c9360a-a420-434c-b5a9-d02b5549a719","e622c465-ee29-4445-8260-1f3431e06587","{""participantId"":""480624F7D2124687AD60694DFA6D7702"",""assignmentId"":""24c9360a-a420-434c-b5a9-d02b5549a719"",""projectId"":""e622c465-ee29-4445-8260-1f3431e06587""}","https://test12345.live/?participantId=480624F7D2124687AD60694DFA6D7702&assignmentId=24c9360a-a420-434c-b5a9-d02b5549a719&projectId=e622c465-ee29-4445-8260-1f3431e06587","","2173","Was there a person in the picture?","1","",""
"","","","","","survey-likert","81","255720","0.0-59.0","480624F7D2124687AD60694DFA6D7702","480624F7D2124687AD60694DFA6D7702","24c9360a-a420-434c-b5a9-d02b5549a719","e622c465-ee29-4445-8260-1f3431e06587","{""participantId"":""480624F7D2124687AD60694DFA6D7702"",""assignmentId"":""24c9360a-a420-434c-b5a9-d02b5549a719"",""projectId"":""e622c465-ee29-4445-8260-1f3431e06587""}","https://test12345.live/?participantId=480624F7D2124687AD60694DFA6D7702&assignmentId=24c9360a-a420-434c-b5a9-d02b5549a719&projectId=e622c465-ee29-4445-8260-1f3431e06587","","2284","","{""Q0"":1}","","[0]"
"","","","","","html-button-response","82","256851","0.0-60.0","480624F7D2124687AD60694DFA6D7702","480624F7D2124687AD60694DFA6D7702","24c9360a-a420-434c-b5a9-d02b5549a719","e622c465-ee29-4445-8260-1f3431e06587","{""participantId"":""480624F7D2124687AD60694DFA6D7702"",""assignmentId"":""24c9360a-a420-434c-b5a9-d02b5549a719"",""projectId"":""e622c465-ee29-4445-8260-1f3431e06587""}","https://test12345.live/?participantId=480624F7D2124687AD60694DFA6D7702&assignmentId=24c9360a-a420-434c-b5a9-d02b5549a719&projectId=e622c465-ee29-4445-8260-1f3431e06587","","1127","
    <div style=""display: flex; justify-content: center; align-items: center;"">
      <img src=""images/blue_deck_1.png"" style=""width: 300px; height: 300px; margin-right: 10px;"" />
      <img src=""images/red_deck_2.png"" style=""width: 300px; height: 300px;"" />
    </div>","1","1",""
"","","","","","html-keyboard-response","83","259857","0.0-62.0-0.0","480624F7D2124687AD60694DFA6D7702","480624F7D2124687AD60694DFA6D7702","24c9360a-a420-434c-b5a9-d02b5549a719","e622c465-ee29-4445-8260-1f3431e06587","{""participantId"":""480624F7D2124687AD60694DFA6D7702"",""assignmentId"":""24c9360a-a420-434c-b5a9-d02b5549a719"",""projectId"":""e622c465-ee29-4445-8260-1f3431e06587""}","https://test12345.live/?participantId=480624F7D2124687AD60694DFA6D7702&assignmentId=24c9360a-a420-434c-b5a9-d02b5549a719&projectId=e622c465-ee29-4445-8260-1f3431e06587","","null","<div style=""display: flex; justify-content: center; align-items: center;"">
                    <img src=""images/semantic/semantic_series_8/semantic_series_8_a.jpg"" style=""width: 300px; height: 300px;"" />
                  </div>","null","",""
"","","","","","html-keyboard-response","84","262860","0.0-62.0-1.0","480624F7D2124687AD60694DFA6D7702","480624F7D2124687AD60694DFA6D7702","24c9360a-a420-434c-b5a9-d02b5549a719","e622c465-ee29-4445-8260-1f3431e06587","{""participantId"":""480624F7D2124687AD60694DFA6D7702"",""assignmentId"":""24c9360a-a420-434c-b5a9-d02b5549a719"",""projectId"":""e622c465-ee29-4445-8260-1f3431e06587""}","https://test12345.live/?participantId=480624F7D2124687AD60694DFA6D7702&assignmentId=24c9360a-a420-434c-b5a9-d02b5549a719&projectId=e622c465-ee29-4445-8260-1f3431e06587","","null","<div style=""display: flex; justify-content: center; align-items: center;"">
                    <img src=""images/semantic/semantic_series_8/semantic_series_8_b.jpg"" style=""width: 300px; height: 300px;"" />
                  </div>","null","",""
"","","","","","html-keyboard-response","85","265875","0.0-62.0-2.0","480624F7D2124687AD60694DFA6D7702","480624F7D2124687AD60694DFA6D7702","24c9360a-a420-434c-b5a9-d02b5549a719","e622c465-ee29-4445-8260-1f3431e06587","{""participantId"":""480624F7D2124687AD60694DFA6D7702"",""assignmentId"":""24c9360a-a420-434c-b5a9-d02b5549a719"",""projectId"":""e622c465-ee29-4445-8260-1f3431e06587""}","https://test12345.live/?participantId=480624F7D2124687AD60694DFA6D7702&assignmentId=24c9360a-a420-434c-b5a9-d02b5549a719&projectId=e622c465-ee29-4445-8260-1f3431e06587","","null","<div style=""display: flex; justify-content: center; align-items: center;"">
                    <img src=""images/semantic/semantic_series_8/semantic_series_8_c.jpg"" style=""width: 300px; height: 300px;"" />
                  </div>","null","",""
"","","","","","html-keyboard-response","86","268885","0.0-62.0-3.0","480624F7D2124687AD60694DFA6D7702","480624F7D2124687AD60694DFA6D7702","24c9360a-a420-434c-b5a9-d02b5549a719","e622c465-ee29-4445-8260-1f3431e06587","{""participantId"":""480624F7D2124687AD60694DFA6D7702"",""assignmentId"":""24c9360a-a420-434c-b5a9-d02b5549a719"",""projectId"":""e622c465-ee29-4445-8260-1f3431e06587""}","https://test12345.live/?participantId=480624F7D2124687AD60694DFA6D7702&assignmentId=24c9360a-a420-434c-b5a9-d02b5549a719&projectId=e622c465-ee29-4445-8260-1f3431e06587","","null","<div style=""display: flex; justify-content: center; align-items: center;"">
                    <img src=""images/semantic/semantic_series_8/semantic_series_8_d.jpg"" style=""width: 300px; height: 300px;"" />
                  </div>","null","",""
"","","","","","html-button-response","87","271058","0.0-63.0","480624F7D2124687AD60694DFA6D7702","480624F7D2124687AD60694DFA6D7702","24c9360a-a420-434c-b5a9-d02b5549a719","e622c465-ee29-4445-8260-1f3431e06587","{""participantId"":""480624F7D2124687AD60694DFA6D7702"",""assignmentId"":""24c9360a-a420-434c-b5a9-d02b5549a719"",""projectId"":""e622c465-ee29-4445-8260-1f3431e06587""}","https://test12345.live/?participantId=480624F7D2124687AD60694DFA6D7702&assignmentId=24c9360a-a420-434c-b5a9-d02b5549a719&projectId=e622c465-ee29-4445-8260-1f3431e06587","","2170","Was there a person in the picture?","1","",""
"","","","","","survey-likert","88","272842","0.0-64.0","480624F7D2124687AD60694DFA6D7702","480624F7D2124687AD60694DFA6D7702","24c9360a-a420-434c-b5a9-d02b5549a719","e622c465-ee29-4445-8260-1f3431e06587","{""participantId"":""480624F7D2124687AD60694DFA6D7702"",""assignmentId"":""24c9360a-a420-434c-b5a9-d02b5549a719"",""projectId"":""e622c465-ee29-4445-8260-1f3431e06587""}","https://test12345.live/?participantId=480624F7D2124687AD60694DFA6D7702&assignmentId=24c9360a-a420-434c-b5a9-d02b5549a719&projectId=e622c465-ee29-4445-8260-1f3431e06587","","1781","","{""Q0"":1}","","[0]"
"","","","","","html-button-response","89","274457","0.0-65.0","480624F7D2124687AD60694DFA6D7702","480624F7D2124687AD60694DFA6D7702","24c9360a-a420-434c-b5a9-d02b5549a719","e622c465-ee29-4445-8260-1f3431e06587","{""participantId"":""480624F7D2124687AD60694DFA6D7702"",""assignmentId"":""24c9360a-a420-434c-b5a9-d02b5549a719"",""projectId"":""e622c465-ee29-4445-8260-1f3431e06587""}","https://test12345.live/?participantId=480624F7D2124687AD60694DFA6D7702&assignmentId=24c9360a-a420-434c-b5a9-d02b5549a719&projectId=e622c465-ee29-4445-8260-1f3431e06587","","1608","
    <div style=""display: flex; justify-content: center; align-items: center;"">
      <img src=""images/blue_deck_1.png"" style=""width: 300px; height: 300px; margin-right: 10px;"" />
      <img src=""images/red_deck_2.png"" style=""width: 300px; height: 300px;"" />
    </div>","1","1",""
"","","","","","html-keyboard-response","90","277470","0.0-67.0-0.0","480624F7D2124687AD60694DFA6D7702","480624F7D2124687AD60694DFA6D7702","24c9360a-a420-434c-b5a9-d02b5549a719","e622c465-ee29-4445-8260-1f3431e06587","{""participantId"":""480624F7D2124687AD60694DFA6D7702"",""assignmentId"":""24c9360a-a420-434c-b5a9-d02b5549a719"",""projectId"":""e622c465-ee29-4445-8260-1f3431e06587""}","https://test12345.live/?participantId=480624F7D2124687AD60694DFA6D7702&assignmentId=24c9360a-a420-434c-b5a9-d02b5549a719&projectId=e622c465-ee29-4445-8260-1f3431e06587","","null","<div style=""display: flex; justify-content: center; align-items: center;"">
                    <img src=""images/semantic/semantic_series_9/semantic_series_9_a.jpg"" style=""width: 300px; height: 300px;"" />
                  </div>","null","",""
"","","","","","html-keyboard-response","91","280474","0.0-67.0-1.0","480624F7D2124687AD60694DFA6D7702","480624F7D2124687AD60694DFA6D7702","24c9360a-a420-434c-b5a9-d02b5549a719","e622c465-ee29-4445-8260-1f3431e06587","{""participantId"":""480624F7D2124687AD60694DFA6D7702"",""assignmentId"":""24c9360a-a420-434c-b5a9-d02b5549a719"",""projectId"":""e622c465-ee29-4445-8260-1f3431e06587""}","https://test12345.live/?participantId=480624F7D2124687AD60694DFA6D7702&assignmentId=24c9360a-a420-434c-b5a9-d02b5549a719&projectId=e622c465-ee29-4445-8260-1f3431e06587","","null","<div style=""display: flex; justify-content: center; align-items: center;"">
                    <img src=""images/semantic/semantic_series_9/semantic_series_9_b.jpg"" style=""width: 300px; height: 300px;"" />
                  </div>","null","",""
"","","","","","html-keyboard-response","92","283476","0.0-67.0-2.0","480624F7D2124687AD60694DFA6D7702","480624F7D2124687AD60694DFA6D7702","24c9360a-a420-434c-b5a9-d02b5549a719","e622c465-ee29-4445-8260-1f3431e06587","{""participantId"":""480624F7D2124687AD60694DFA6D7702"",""assignmentId"":""24c9360a-a420-434c-b5a9-d02b5549a719"",""projectId"":""e622c465-ee29-4445-8260-1f3431e06587""}","https://test12345.live/?participantId=480624F7D2124687AD60694DFA6D7702&assignmentId=24c9360a-a420-434c-b5a9-d02b5549a719&projectId=e622c465-ee29-4445-8260-1f3431e06587","","null","<div style=""display: flex; justify-content: center; align-items: center;"">
                    <img src=""images/semantic/semantic_series_9/semantic_series_9_c.jpg"" style=""width: 300px; height: 300px;"" />
                  </div>","null","",""
"","","","","","html-keyboard-response","93","286479","0.0-67.0-3.0","480624F7D2124687AD60694DFA6D7702","480624F7D2124687AD60694DFA6D7702","24c9360a-a420-434c-b5a9-d02b5549a719","e622c465-ee29-4445-8260-1f3431e06587","{""participantId"":""480624F7D2124687AD60694DFA6D7702"",""assignmentId"":""24c9360a-a420-434c-b5a9-d02b5549a719"",""projectId"":""e622c465-ee29-4445-8260-1f3431e06587""}","https://test12345.live/?participantId=480624F7D2124687AD60694DFA6D7702&assignmentId=24c9360a-a420-434c-b5a9-d02b5549a719&projectId=e622c465-ee29-4445-8260-1f3431e06587","","null","<div style=""display: flex; justify-content: center; align-items: center;"">
                    <img src=""images/semantic/semantic_series_9/semantic_series_9_d.jpg"" style=""width: 300px; height: 300px;"" />
                  </div>","null","",""
"","","","","","html-button-response","94","287599","0.0-68.0","480624F7D2124687AD60694DFA6D7702","480624F7D2124687AD60694DFA6D7702","24c9360a-a420-434c-b5a9-d02b5549a719","e622c465-ee29-4445-8260-1f3431e06587","{""participantId"":""480624F7D2124687AD60694DFA6D7702"",""assignmentId"":""24c9360a-a420-434c-b5a9-d02b5549a719"",""projectId"":""e622c465-ee29-4445-8260-1f3431e06587""}","https://test12345.live/?participantId=480624F7D2124687AD60694DFA6D7702&assignmentId=24c9360a-a420-434c-b5a9-d02b5549a719&projectId=e622c465-ee29-4445-8260-1f3431e06587","","1118","Was there a person in the picture?","1","",""
"","","","","","survey-likert","95","289322","0.0-69.0","480624F7D2124687AD60694DFA6D7702","480624F7D2124687AD60694DFA6D7702","24c9360a-a420-434c-b5a9-d02b5549a719","e622c465-ee29-4445-8260-1f3431e06587","{""participantId"":""480624F7D2124687AD60694DFA6D7702"",""assignmentId"":""24c9360a-a420-434c-b5a9-d02b5549a719"",""projectId"":""e622c465-ee29-4445-8260-1f3431e06587""}","https://test12345.live/?participantId=480624F7D2124687AD60694DFA6D7702&assignmentId=24c9360a-a420-434c-b5a9-d02b5549a719&projectId=e622c465-ee29-4445-8260-1f3431e06587","","1719","","{""Q0"":3}","","[0]"
"","","","","","html-button-response","96","290279","0.0-70.0","480624F7D2124687AD60694DFA6D7702","480624F7D2124687AD60694DFA6D7702","24c9360a-a420-434c-b5a9-d02b5549a719","e622c465-ee29-4445-8260-1f3431e06587","{""participantId"":""480624F7D2124687AD60694DFA6D7702"",""assignmentId"":""24c9360a-a420-434c-b5a9-d02b5549a719"",""projectId"":""e622c465-ee29-4445-8260-1f3431e06587""}","https://test12345.live/?participantId=480624F7D2124687AD60694DFA6D7702&assignmentId=24c9360a-a420-434c-b5a9-d02b5549a719&projectId=e622c465-ee29-4445-8260-1f3431e06587","","951","
    <div style=""display: flex; justify-content: center; align-items: center;"">
      <img src=""images/blue_deck_1.png"" style=""width: 300px; height: 300px; margin-right: 10px;"" />
      <img src=""images/red_deck_2.png"" style=""width: 300px; height: 300px;"" />
    </div>","1","1",""
"","","","","","html-keyboard-response","97","293283","0.0-72.0-0.0","480624F7D2124687AD60694DFA6D7702","480624F7D2124687AD60694DFA6D7702","24c9360a-a420-434c-b5a9-d02b5549a719","e622c465-ee29-4445-8260-1f3431e06587","{""participantId"":""480624F7D2124687AD60694DFA6D7702"",""assignmentId"":""24c9360a-a420-434c-b5a9-d02b5549a719"",""projectId"":""e622c465-ee29-4445-8260-1f3431e06587""}","https://test12345.live/?participantId=480624F7D2124687AD60694DFA6D7702&assignmentId=24c9360a-a420-434c-b5a9-d02b5549a719&projectId=e622c465-ee29-4445-8260-1f3431e06587","","null","<div style=""display: flex; justify-content: center; align-items: center;"">
                    <img src=""images/semantic/semantic_series_15/semantic_series_15_a.jpg"" style=""width: 300px; height: 300px;"" />
                  </div>","null","",""
"","","","","","html-keyboard-response","98","296294","0.0-72.0-1.0","480624F7D2124687AD60694DFA6D7702","480624F7D2124687AD60694DFA6D7702","24c9360a-a420-434c-b5a9-d02b5549a719","e622c465-ee29-4445-8260-1f3431e06587","{""participantId"":""480624F7D2124687AD60694DFA6D7702"",""assignmentId"":""24c9360a-a420-434c-b5a9-d02b5549a719"",""projectId"":""e622c465-ee29-4445-8260-1f3431e06587""}","https://test12345.live/?participantId=480624F7D2124687AD60694DFA6D7702&assignmentId=24c9360a-a420-434c-b5a9-d02b5549a719&projectId=e622c465-ee29-4445-8260-1f3431e06587","","null","<div style=""display: flex; justify-content: center; align-items: center;"">
                    <img src=""images/semantic/semantic_series_15/semantic_series_15_b.jpg"" style=""width: 300px; height: 300px;"" />
                  </div>","null","",""
"","","","","","html-keyboard-response","99","299306","0.0-72.0-2.0","480624F7D2124687AD60694DFA6D7702","480624F7D2124687AD60694DFA6D7702","24c9360a-a420-434c-b5a9-d02b5549a719","e622c465-ee29-4445-8260-1f3431e06587","{""participantId"":""480624F7D2124687AD60694DFA6D7702"",""assignmentId"":""24c9360a-a420-434c-b5a9-d02b5549a719"",""projectId"":""e622c465-ee29-4445-8260-1f3431e06587""}","https://test12345.live/?participantId=480624F7D2124687AD60694DFA6D7702&assignmentId=24c9360a-a420-434c-b5a9-d02b5549a719&projectId=e622c465-ee29-4445-8260-1f3431e06587","","null","<div style=""display: flex; justify-content: center; align-items: center;"">
                    <img src=""images/semantic/semantic_series_15/semantic_series_15_c.jpg"" style=""width: 300px; height: 300px;"" />
                  </div>","null","",""
"","","","","","html-keyboard-response","100","302316","0.0-72.0-3.0","480624F7D2124687AD60694DFA6D7702","480624F7D2124687AD60694DFA6D7702","24c9360a-a420-434c-b5a9-d02b5549a719","e622c465-ee29-4445-8260-1f3431e06587","{""participantId"":""480624F7D2124687AD60694DFA6D7702"",""assignmentId"":""24c9360a-a420-434c-b5a9-d02b5549a719"",""projectId"":""e622c465-ee29-4445-8260-1f3431e06587""}","https://test12345.live/?participantId=480624F7D2124687AD60694DFA6D7702&assignmentId=24c9360a-a420-434c-b5a9-d02b5549a719&projectId=e622c465-ee29-4445-8260-1f3431e06587","","null","<div style=""display: flex; justify-content: center; align-items: center;"">
                    <img src=""images/semantic/semantic_series_15/semantic_series_15_d.jpg"" style=""width: 300px; height: 300px;"" />
                  </div>","null","",""
"","","","","","html-button-response","101","304746","0.0-73.0","480624F7D2124687AD60694DFA6D7702","480624F7D2124687AD60694DFA6D7702","24c9360a-a420-434c-b5a9-d02b5549a719","e622c465-ee29-4445-8260-1f3431e06587","{""participantId"":""480624F7D2124687AD60694DFA6D7702"",""assignmentId"":""24c9360a-a420-434c-b5a9-d02b5549a719"",""projectId"":""e622c465-ee29-4445-8260-1f3431e06587""}","https://test12345.live/?participantId=480624F7D2124687AD60694DFA6D7702&assignmentId=24c9360a-a420-434c-b5a9-d02b5549a719&projectId=e622c465-ee29-4445-8260-1f3431e06587","","2425","Was there a person in the picture?","1","",""
"","","","","","survey-likert","102","308530","0.0-74.0","480624F7D2124687AD60694DFA6D7702","480624F7D2124687AD60694DFA6D7702","24c9360a-a420-434c-b5a9-d02b5549a719","e622c465-ee29-4445-8260-1f3431e06587","{""participantId"":""480624F7D2124687AD60694DFA6D7702"",""assignmentId"":""24c9360a-a420-434c-b5a9-d02b5549a719"",""projectId"":""e622c465-ee29-4445-8260-1f3431e06587""}","https://test12345.live/?participantId=480624F7D2124687AD60694DFA6D7702&assignmentId=24c9360a-a420-434c-b5a9-d02b5549a719&projectId=e622c465-ee29-4445-8260-1f3431e06587","","3779","","{""Q0"":1}","","[0]"
"","","","","","html-button-response","103","309677","0.0-75.0","480624F7D2124687AD60694DFA6D7702","480624F7D2124687AD60694DFA6D7702","24c9360a-a420-434c-b5a9-d02b5549a719","e622c465-ee29-4445-8260-1f3431e06587","{""participantId"":""480624F7D2124687AD60694DFA6D7702"",""assignmentId"":""24c9360a-a420-434c-b5a9-d02b5549a719"",""projectId"":""e622c465-ee29-4445-8260-1f3431e06587""}","https://test12345.live/?participantId=480624F7D2124687AD60694DFA6D7702&assignmentId=24c9360a-a420-434c-b5a9-d02b5549a719&projectId=e622c465-ee29-4445-8260-1f3431e06587","","1142","
    <div style=""display: flex; justify-content: center; align-items: center;"">
      <img src=""images/blue_deck_1.png"" style=""width: 300px; height: 300px; margin-right: 10px;"" />
      <img src=""images/red_deck_2.png"" style=""width: 300px; height: 300px;"" />
    </div>","1","1",""
"","","","","","html-keyboard-response","104","312688","0.0-77.0-0.0","480624F7D2124687AD60694DFA6D7702","480624F7D2124687AD60694DFA6D7702","24c9360a-a420-434c-b5a9-d02b5549a719","e622c465-ee29-4445-8260-1f3431e06587","{""participantId"":""480624F7D2124687AD60694DFA6D7702"",""assignmentId"":""24c9360a-a420-434c-b5a9-d02b5549a719"",""projectId"":""e622c465-ee29-4445-8260-1f3431e06587""}","https://test12345.live/?participantId=480624F7D2124687AD60694DFA6D7702&assignmentId=24c9360a-a420-434c-b5a9-d02b5549a719&projectId=e622c465-ee29-4445-8260-1f3431e06587","","null","<div style=""display: flex; justify-content: center; align-items: center;"">
                    <img src=""images/semantic/semantic_series_3/semantic_series_3_a.jpg"" style=""width: 300px; height: 300px;"" />
                  </div>","null","",""
"","","","","","html-keyboard-response","105","315694","0.0-77.0-1.0","480624F7D2124687AD60694DFA6D7702","480624F7D2124687AD60694DFA6D7702","24c9360a-a420-434c-b5a9-d02b5549a719","e622c465-ee29-4445-8260-1f3431e06587","{""participantId"":""480624F7D2124687AD60694DFA6D7702"",""assignmentId"":""24c9360a-a420-434c-b5a9-d02b5549a719"",""projectId"":""e622c465-ee29-4445-8260-1f3431e06587""}","https://test12345.live/?participantId=480624F7D2124687AD60694DFA6D7702&assignmentId=24c9360a-a420-434c-b5a9-d02b5549a719&projectId=e622c465-ee29-4445-8260-1f3431e06587","","null","<div style=""display: flex; justify-content: center; align-items: center;"">
                    <img src=""images/semantic/semantic_series_3/semantic_series_3_b.jpg"" style=""width: 300px; height: 300px;"" />
                  </div>","null","",""
"","","","","","html-keyboard-response","106","318699","0.0-77.0-2.0","480624F7D2124687AD60694DFA6D7702","480624F7D2124687AD60694DFA6D7702","24c9360a-a420-434c-b5a9-d02b5549a719","e622c465-ee29-4445-8260-1f3431e06587","{""participantId"":""480624F7D2124687AD60694DFA6D7702"",""assignmentId"":""24c9360a-a420-434c-b5a9-d02b5549a719"",""projectId"":""e622c465-ee29-4445-8260-1f3431e06587""}","https://test12345.live/?participantId=480624F7D2124687AD60694DFA6D7702&assignmentId=24c9360a-a420-434c-b5a9-d02b5549a719&projectId=e622c465-ee29-4445-8260-1f3431e06587","","null","<div style=""display: flex; justify-content: center; align-items: center;"">
                    <img src=""images/semantic/semantic_series_3/semantic_series_3_c.jpg"" style=""width: 300px; height: 300px;"" />
                  </div>","null","",""
"","","","","","html-keyboard-response","107","321701","0.0-77.0-3.0","480624F7D2124687AD60694DFA6D7702","480624F7D2124687AD60694DFA6D7702","24c9360a-a420-434c-b5a9-d02b5549a719","e622c465-ee29-4445-8260-1f3431e06587","{""participantId"":""480624F7D2124687AD60694DFA6D7702"",""assignmentId"":""24c9360a-a420-434c-b5a9-d02b5549a719"",""projectId"":""e622c465-ee29-4445-8260-1f3431e06587""}","https://test12345.live/?participantId=480624F7D2124687AD60694DFA6D7702&assignmentId=24c9360a-a420-434c-b5a9-d02b5549a719&projectId=e622c465-ee29-4445-8260-1f3431e06587","","null","<div style=""display: flex; justify-content: center; align-items: center;"">
                    <img src=""images/semantic/semantic_series_3/semantic_series_3_d.jpg"" style=""width: 300px; height: 300px;"" />
                  </div>","null","",""
"","","","","","html-button-response","108","324030","0.0-78.0","480624F7D2124687AD60694DFA6D7702","480624F7D2124687AD60694DFA6D7702","24c9360a-a420-434c-b5a9-d02b5549a719","e622c465-ee29-4445-8260-1f3431e06587","{""participantId"":""480624F7D2124687AD60694DFA6D7702"",""assignmentId"":""24c9360a-a420-434c-b5a9-d02b5549a719"",""projectId"":""e622c465-ee29-4445-8260-1f3431e06587""}","https://test12345.live/?participantId=480624F7D2124687AD60694DFA6D7702&assignmentId=24c9360a-a420-434c-b5a9-d02b5549a719&projectId=e622c465-ee29-4445-8260-1f3431e06587","","2327","Was there a person in the picture?","0","",""
"","","","","","survey-likert","109","327081","0.0-79.0","480624F7D2124687AD60694DFA6D7702","480624F7D2124687AD60694DFA6D7702","24c9360a-a420-434c-b5a9-d02b5549a719","e622c465-ee29-4445-8260-1f3431e06587","{""participantId"":""480624F7D2124687AD60694DFA6D7702"",""assignmentId"":""24c9360a-a420-434c-b5a9-d02b5549a719"",""projectId"":""e622c465-ee29-4445-8260-1f3431e06587""}","https://test12345.live/?participantId=480624F7D2124687AD60694DFA6D7702&assignmentId=24c9360a-a420-434c-b5a9-d02b5549a719&projectId=e622c465-ee29-4445-8260-1f3431e06587","","3047","","{""Q0"":1}","","[0]"
"","","","","","html-button-response","110","338662","0.0-80.0","480624F7D2124687AD60694DFA6D7702","480624F7D2124687AD60694DFA6D7702","24c9360a-a420-434c-b5a9-d02b5549a719","e622c465-ee29-4445-8260-1f3431e06587","{""participantId"":""480624F7D2124687AD60694DFA6D7702"",""assignmentId"":""24c9360a-a420-434c-b5a9-d02b5549a719"",""projectId"":""e622c465-ee29-4445-8260-1f3431e06587""}","https://test12345.live/?participantId=480624F7D2124687AD60694DFA6D7702&assignmentId=24c9360a-a420-434c-b5a9-d02b5549a719&projectId=e622c465-ee29-4445-8260-1f3431e06587","","11576","
    <div style=""display: flex; justify-content: center; align-items: center;"">
      <img src=""images/blue_deck_1.png"" style=""width: 300px; height: 300px; margin-right: 10px;"" />
      <img src=""images/red_deck_2.png"" style=""width: 300px; height: 300px;"" />
    </div>","1","1",""
"","","","","","html-keyboard-response","111","341678","0.0-82.0-0.0","480624F7D2124687AD60694DFA6D7702","480624F7D2124687AD60694DFA6D7702","24c9360a-a420-434c-b5a9-d02b5549a719","e622c465-ee29-4445-8260-1f3431e06587","{""participantId"":""480624F7D2124687AD60694DFA6D7702"",""assignmentId"":""24c9360a-a420-434c-b5a9-d02b5549a719"",""projectId"":""e622c465-ee29-4445-8260-1f3431e06587""}","https://test12345.live/?participantId=480624F7D2124687AD60694DFA6D7702&assignmentId=24c9360a-a420-434c-b5a9-d02b5549a719&projectId=e622c465-ee29-4445-8260-1f3431e06587","","null","<div style=""display: flex; justify-content: center; align-items: center;"">
                    <img src=""images/semantic/semantic_series_11/semantic_series_11_a.jpg"" style=""width: 300px; height: 300px;"" />
                  </div>","null","",""
"","","","","","html-keyboard-response","112","344688","0.0-82.0-1.0","480624F7D2124687AD60694DFA6D7702","480624F7D2124687AD60694DFA6D7702","24c9360a-a420-434c-b5a9-d02b5549a719","e622c465-ee29-4445-8260-1f3431e06587","{""participantId"":""480624F7D2124687AD60694DFA6D7702"",""assignmentId"":""24c9360a-a420-434c-b5a9-d02b5549a719"",""projectId"":""e622c465-ee29-4445-8260-1f3431e06587""}","https://test12345.live/?participantId=480624F7D2124687AD60694DFA6D7702&assignmentId=24c9360a-a420-434c-b5a9-d02b5549a719&projectId=e622c465-ee29-4445-8260-1f3431e06587","","null","<div style=""display: flex; justify-content: center; align-items: center;"">
                    <img src=""images/semantic/semantic_series_11/semantic_series_11_b.jpg"" style=""width: 300px; height: 300px;"" />
                  </div>","null","",""
"","","","","","html-keyboard-response","113","347697","0.0-82.0-2.0","480624F7D2124687AD60694DFA6D7702","480624F7D2124687AD60694DFA6D7702","24c9360a-a420-434c-b5a9-d02b5549a719","e622c465-ee29-4445-8260-1f3431e06587","{""participantId"":""480624F7D2124687AD60694DFA6D7702"",""assignmentId"":""24c9360a-a420-434c-b5a9-d02b5549a719"",""projectId"":""e622c465-ee29-4445-8260-1f3431e06587""}","https://test12345.live/?participantId=480624F7D2124687AD60694DFA6D7702&assignmentId=24c9360a-a420-434c-b5a9-d02b5549a719&projectId=e622c465-ee29-4445-8260-1f3431e06587","","null","<div style=""display: flex; justify-content: center; align-items: center;"">
                    <img src=""images/semantic/semantic_series_11/semantic_series_11_c.jpg"" style=""width: 300px; height: 300px;"" />
                  </div>","null","",""
"","","","","","html-keyboard-response","114","350701","0.0-82.0-3.0","480624F7D2124687AD60694DFA6D7702","480624F7D2124687AD60694DFA6D7702","24c9360a-a420-434c-b5a9-d02b5549a719","e622c465-ee29-4445-8260-1f3431e06587","{""participantId"":""480624F7D2124687AD60694DFA6D7702"",""assignmentId"":""24c9360a-a420-434c-b5a9-d02b5549a719"",""projectId"":""e622c465-ee29-4445-8260-1f3431e06587""}","https://test12345.live/?participantId=480624F7D2124687AD60694DFA6D7702&assignmentId=24c9360a-a420-434c-b5a9-d02b5549a719&projectId=e622c465-ee29-4445-8260-1f3431e06587","","null","<div style=""display: flex; justify-content: center; align-items: center;"">
                    <img src=""images/semantic/semantic_series_11/semantic_series_11_d.jpg"" style=""width: 300px; height: 300px;"" />
                  </div>","null","",""
"","","","","","html-button-response","115","352730","0.0-83.0","480624F7D2124687AD60694DFA6D7702","480624F7D2124687AD60694DFA6D7702","24c9360a-a420-434c-b5a9-d02b5549a719","e622c465-ee29-4445-8260-1f3431e06587","{""participantId"":""480624F7D2124687AD60694DFA6D7702"",""assignmentId"":""24c9360a-a420-434c-b5a9-d02b5549a719"",""projectId"":""e622c465-ee29-4445-8260-1f3431e06587""}","https://test12345.live/?participantId=480624F7D2124687AD60694DFA6D7702&assignmentId=24c9360a-a420-434c-b5a9-d02b5549a719&projectId=e622c465-ee29-4445-8260-1f3431e06587","","2027","Was there a person in the picture?","0","",""
"","","","","","survey-likert","116","354669","0.0-84.0","480624F7D2124687AD60694DFA6D7702","480624F7D2124687AD60694DFA6D7702","24c9360a-a420-434c-b5a9-d02b5549a719","e622c465-ee29-4445-8260-1f3431e06587","{""participantId"":""480624F7D2124687AD60694DFA6D7702"",""assignmentId"":""24c9360a-a420-434c-b5a9-d02b5549a719"",""projectId"":""e622c465-ee29-4445-8260-1f3431e06587""}","https://test12345.live/?participantId=480624F7D2124687AD60694DFA6D7702&assignmentId=24c9360a-a420-434c-b5a9-d02b5549a719&projectId=e622c465-ee29-4445-8260-1f3431e06587","","1936","","{""Q0"":2}","","[0]"
"","","","","","html-button-response","117","355689","0.0-85.0","480624F7D2124687AD60694DFA6D7702","480624F7D2124687AD60694DFA6D7702","24c9360a-a420-434c-b5a9-d02b5549a719","e622c465-ee29-4445-8260-1f3431e06587","{""participantId"":""480624F7D2124687AD60694DFA6D7702"",""assignmentId"":""24c9360a-a420-434c-b5a9-d02b5549a719"",""projectId"":""e622c465-ee29-4445-8260-1f3431e06587""}","https://test12345.live/?participantId=480624F7D2124687AD60694DFA6D7702&assignmentId=24c9360a-a420-434c-b5a9-d02b5549a719&projectId=e622c465-ee29-4445-8260-1f3431e06587","","1015","
    <div style=""display: flex; justify-content: center; align-items: center;"">
      <img src=""images/blue_deck_1.png"" style=""width: 300px; height: 300px; margin-right: 10px;"" />
      <img src=""images/red_deck_2.png"" style=""width: 300px; height: 300px;"" />
    </div>","1","1",""
"","","","","","html-keyboard-response","118","358695","0.0-87.0-0.0","480624F7D2124687AD60694DFA6D7702","480624F7D2124687AD60694DFA6D7702","24c9360a-a420-434c-b5a9-d02b5549a719","e622c465-ee29-4445-8260-1f3431e06587","{""participantId"":""480624F7D2124687AD60694DFA6D7702"",""assignmentId"":""24c9360a-a420-434c-b5a9-d02b5549a719"",""projectId"":""e622c465-ee29-4445-8260-1f3431e06587""}","https://test12345.live/?participantId=480624F7D2124687AD60694DFA6D7702&assignmentId=24c9360a-a420-434c-b5a9-d02b5549a719&projectId=e622c465-ee29-4445-8260-1f3431e06587","","null","<div style=""display: flex; justify-content: center; align-items: center;"">
                    <img src=""images/semantic/semantic_series_14/semantic_series_14_a.jpg"" style=""width: 300px; height: 300px;"" />
                  </div>","null","",""
"","","","","","html-keyboard-response","119","361709","0.0-87.0-1.0","480624F7D2124687AD60694DFA6D7702","480624F7D2124687AD60694DFA6D7702","24c9360a-a420-434c-b5a9-d02b5549a719","e622c465-ee29-4445-8260-1f3431e06587","{""participantId"":""480624F7D2124687AD60694DFA6D7702"",""assignmentId"":""24c9360a-a420-434c-b5a9-d02b5549a719"",""projectId"":""e622c465-ee29-4445-8260-1f3431e06587""}","https://test12345.live/?participantId=480624F7D2124687AD60694DFA6D7702&assignmentId=24c9360a-a420-434c-b5a9-d02b5549a719&projectId=e622c465-ee29-4445-8260-1f3431e06587","","null","<div style=""display: flex; justify-content: center; align-items: center;"">
                    <img src=""images/semantic/semantic_series_14/semantic_series_14_b.jpg"" style=""width: 300px; height: 300px;"" />
                  </div>","null","",""
"","","","","","html-keyboard-response","120","364712","0.0-87.0-2.0","480624F7D2124687AD60694DFA6D7702","480624F7D2124687AD60694DFA6D7702","24c9360a-a420-434c-b5a9-d02b5549a719","e622c465-ee29-4445-8260-1f3431e06587","{""participantId"":""480624F7D2124687AD60694DFA6D7702"",""assignmentId"":""24c9360a-a420-434c-b5a9-d02b5549a719"",""projectId"":""e622c465-ee29-4445-8260-1f3431e06587""}","https://test12345.live/?participantId=480624F7D2124687AD60694DFA6D7702&assignmentId=24c9360a-a420-434c-b5a9-d02b5549a719&projectId=e622c465-ee29-4445-8260-1f3431e06587","","null","<div style=""display: flex; justify-content: center; align-items: center;"">
                    <img src=""images/semantic/semantic_series_14/semantic_series_14_c.jpg"" style=""width: 300px; height: 300px;"" />
                  </div>","null","",""
"","","","","","html-keyboard-response","121","367727","0.0-87.0-3.0","480624F7D2124687AD60694DFA6D7702","480624F7D2124687AD60694DFA6D7702","24c9360a-a420-434c-b5a9-d02b5549a719","e622c465-ee29-4445-8260-1f3431e06587","{""participantId"":""480624F7D2124687AD60694DFA6D7702"",""assignmentId"":""24c9360a-a420-434c-b5a9-d02b5549a719"",""projectId"":""e622c465-ee29-4445-8260-1f3431e06587""}","https://test12345.live/?participantId=480624F7D2124687AD60694DFA6D7702&assignmentId=24c9360a-a420-434c-b5a9-d02b5549a719&projectId=e622c465-ee29-4445-8260-1f3431e06587","","null","<div style=""display: flex; justify-content: center; align-items: center;"">
                    <img src=""images/semantic/semantic_series_14/semantic_series_14_d.jpg"" style=""width: 300px; height: 300px;"" />
                  </div>","null","",""
"","","","","","html-button-response","122","368895","0.0-88.0","480624F7D2124687AD60694DFA6D7702","480624F7D2124687AD60694DFA6D7702","24c9360a-a420-434c-b5a9-d02b5549a719","e622c465-ee29-4445-8260-1f3431e06587","{""participantId"":""480624F7D2124687AD60694DFA6D7702"",""assignmentId"":""24c9360a-a420-434c-b5a9-d02b5549a719"",""projectId"":""e622c465-ee29-4445-8260-1f3431e06587""}","https://test12345.live/?participantId=480624F7D2124687AD60694DFA6D7702&assignmentId=24c9360a-a420-434c-b5a9-d02b5549a719&projectId=e622c465-ee29-4445-8260-1f3431e06587","","1166","Was there a person in the picture?","0","",""
"","","","","","survey-likert","123","371060","0.0-89.0","480624F7D2124687AD60694DFA6D7702","480624F7D2124687AD60694DFA6D7702","24c9360a-a420-434c-b5a9-d02b5549a719","e622c465-ee29-4445-8260-1f3431e06587","{""participantId"":""480624F7D2124687AD60694DFA6D7702"",""assignmentId"":""24c9360a-a420-434c-b5a9-d02b5549a719"",""projectId"":""e622c465-ee29-4445-8260-1f3431e06587""}","https://test12345.live/?participantId=480624F7D2124687AD60694DFA6D7702&assignmentId=24c9360a-a420-434c-b5a9-d02b5549a719&projectId=e622c465-ee29-4445-8260-1f3431e06587","","2161","","{""Q0"":2}","","[0]"
"","","","","","html-button-response","124","372232","0.0-90.0","480624F7D2124687AD60694DFA6D7702","480624F7D2124687AD60694DFA6D7702","24c9360a-a420-434c-b5a9-d02b5549a719","e622c465-ee29-4445-8260-1f3431e06587","{""participantId"":""480624F7D2124687AD60694DFA6D7702"",""assignmentId"":""24c9360a-a420-434c-b5a9-d02b5549a719"",""projectId"":""e622c465-ee29-4445-8260-1f3431e06587""}","https://test12345.live/?participantId=480624F7D2124687AD60694DFA6D7702&assignmentId=24c9360a-a420-434c-b5a9-d02b5549a719&projectId=e622c465-ee29-4445-8260-1f3431e06587","","1167","
    <div style=""display: flex; justify-content: center; align-items: center;"">
      <img src=""images/blue_deck_1.png"" style=""width: 300px; height: 300px; margin-right: 10px;"" />
      <img src=""images/red_deck_2.png"" style=""width: 300px; height: 300px;"" />
    </div>","1","1",""
"","","","","","html-keyboard-response","125","375238","0.0-92.0-0.0","480624F7D2124687AD60694DFA6D7702","480624F7D2124687AD60694DFA6D7702","24c9360a-a420-434c-b5a9-d02b5549a719","e622c465-ee29-4445-8260-1f3431e06587","{""participantId"":""480624F7D2124687AD60694DFA6D7702"",""assignmentId"":""24c9360a-a420-434c-b5a9-d02b5549a719"",""projectId"":""e622c465-ee29-4445-8260-1f3431e06587""}","https://test12345.live/?participantId=480624F7D2124687AD60694DFA6D7702&assignmentId=24c9360a-a420-434c-b5a9-d02b5549a719&projectId=e622c465-ee29-4445-8260-1f3431e06587","","null","<div style=""display: flex; justify-content: center; align-items: center;"">
                    <img src=""images/semantic/semantic_series_7/semantic_series_7_a.jpg"" style=""width: 300px; height: 300px;"" />
                  </div>","null","",""
"","","","","","html-keyboard-response","126","378248","0.0-92.0-1.0","480624F7D2124687AD60694DFA6D7702","480624F7D2124687AD60694DFA6D7702","24c9360a-a420-434c-b5a9-d02b5549a719","e622c465-ee29-4445-8260-1f3431e06587","{""participantId"":""480624F7D2124687AD60694DFA6D7702"",""assignmentId"":""24c9360a-a420-434c-b5a9-d02b5549a719"",""projectId"":""e622c465-ee29-4445-8260-1f3431e06587""}","https://test12345.live/?participantId=480624F7D2124687AD60694DFA6D7702&assignmentId=24c9360a-a420-434c-b5a9-d02b5549a719&projectId=e622c465-ee29-4445-8260-1f3431e06587","","null","<div style=""display: flex; justify-content: center; align-items: center;"">
                    <img src=""images/semantic/semantic_series_7/semantic_series_7_b.jpg"" style=""width: 300px; height: 300px;"" />
                  </div>","null","",""
"","","","","","html-keyboard-response","127","381262","0.0-92.0-2.0","480624F7D2124687AD60694DFA6D7702","480624F7D2124687AD60694DFA6D7702","24c9360a-a420-434c-b5a9-d02b5549a719","e622c465-ee29-4445-8260-1f3431e06587","{""participantId"":""480624F7D2124687AD60694DFA6D7702"",""assignmentId"":""24c9360a-a420-434c-b5a9-d02b5549a719"",""projectId"":""e622c465-ee29-4445-8260-1f3431e06587""}","https://test12345.live/?participantId=480624F7D2124687AD60694DFA6D7702&assignmentId=24c9360a-a420-434c-b5a9-d02b5549a719&projectId=e622c465-ee29-4445-8260-1f3431e06587","","null","<div style=""display: flex; justify-content: center; align-items: center;"">
                    <img src=""images/semantic/semantic_series_7/semantic_series_7_c.jpg"" style=""width: 300px; height: 300px;"" />
                  </div>","null","",""
"","","","","","html-keyboard-response","128","384266","0.0-92.0-3.0","480624F7D2124687AD60694DFA6D7702","480624F7D2124687AD60694DFA6D7702","24c9360a-a420-434c-b5a9-d02b5549a719","e622c465-ee29-4445-8260-1f3431e06587","{""participantId"":""480624F7D2124687AD60694DFA6D7702"",""assignmentId"":""24c9360a-a420-434c-b5a9-d02b5549a719"",""projectId"":""e622c465-ee29-4445-8260-1f3431e06587""}","https://test12345.live/?participantId=480624F7D2124687AD60694DFA6D7702&assignmentId=24c9360a-a420-434c-b5a9-d02b5549a719&projectId=e622c465-ee29-4445-8260-1f3431e06587","","null","<div style=""display: flex; justify-content: center; align-items: center;"">
                    <img src=""images/semantic/semantic_series_7/semantic_series_7_d.jpg"" style=""width: 300px; height: 300px;"" />
                  </div>","null","",""
"","","","","","html-button-response","129","385555","0.0-93.0","480624F7D2124687AD60694DFA6D7702","480624F7D2124687AD60694DFA6D7702","24c9360a-a420-434c-b5a9-d02b5549a719","e622c465-ee29-4445-8260-1f3431e06587","{""participantId"":""480624F7D2124687AD60694DFA6D7702"",""assignmentId"":""24c9360a-a420-434c-b5a9-d02b5549a719"",""projectId"":""e622c465-ee29-4445-8260-1f3431e06587""}","https://test12345.live/?participantId=480624F7D2124687AD60694DFA6D7702&assignmentId=24c9360a-a420-434c-b5a9-d02b5549a719&projectId=e622c465-ee29-4445-8260-1f3431e06587","","1288","Was there a person in the picture?","1","",""
"","","","","","survey-likert","130","387285","0.0-94.0","480624F7D2124687AD60694DFA6D7702","480624F7D2124687AD60694DFA6D7702","24c9360a-a420-434c-b5a9-d02b5549a719","e622c465-ee29-4445-8260-1f3431e06587","{""participantId"":""480624F7D2124687AD60694DFA6D7702"",""assignmentId"":""24c9360a-a420-434c-b5a9-d02b5549a719"",""projectId"":""e622c465-ee29-4445-8260-1f3431e06587""}","https://test12345.live/?participantId=480624F7D2124687AD60694DFA6D7702&assignmentId=24c9360a-a420-434c-b5a9-d02b5549a719&projectId=e622c465-ee29-4445-8260-1f3431e06587","","1722","","{""Q0"":2}","","[0]"
"","","","","","survey-text","131","408298","0.0-95.0","480624F7D2124687AD60694DFA6D7702","480624F7D2124687AD60694DFA6D7702","24c9360a-a420-434c-b5a9-d02b5549a719","e622c465-ee29-4445-8260-1f3431e06587","{""participantId"":""480624F7D2124687AD60694DFA6D7702"",""assignmentId"":""24c9360a-a420-434c-b5a9-d02b5549a719"",""projectId"":""e622c465-ee29-4445-8260-1f3431e06587""}","https://test12345.live/?participantId=480624F7D2124687AD60694DFA6D7702&assignmentId=24c9360a-a420-434c-b5a9-d02b5549a719&projectId=e622c465-ee29-4445-8260-1f3431e06587","","20993","","{""Q0"":""I believe deck 2 may have been entirely AI created.""}","",""
