"success","timeout","failed_images","failed_audio","failed_video","trial_type","trial_index","time_elapsed","internal_node_id","subject","subject_id","study_id","session_id","urlvar","current_url","view_history","rt","stimulus","response","choice","question_order"
"true","false","[]","[]","[]","preload","0","5720","0.0-0.0","8D9CB9BE66E5474F950FB9ECFF19DF30","8D9CB9BE66E5474F950FB9ECFF19DF30","4050e3d5-59d2-450c-a665-877d16167317","54f8d589-66fc-4c65-830f-1dcc63bce8cc","{""participantId"":""8D9CB9BE66E5474F950FB9ECFF19DF30"",""assignmentId"":""4050e3d5-59d2-450c-a665-877d16167317"",""projectId"":""54f8d589-66fc-4c65-830f-1dcc63bce8cc""}","https://test12345.live/?participantId=8D9CB9BE66E5474F950FB9ECFF19DF30&assignmentId=4050e3d5-59d2-450c-a665-877d16167317&projectId=54f8d589-66fc-4c65-830f-1dcc63bce8cc","","","","","",""
"","","","","","instructions","1","12368","0.0-1.0","8D9CB9BE66E5474F950FB9ECFF19DF30","8D9CB9BE66E5474F950FB9ECFF19DF30","4050e3d5-59d2-450c-a665-877d16167317","54f8d589-66fc-4c65-830f-1dcc63bce8cc","{""participantId"":""8D9CB9BE66E5474F950FB9ECFF19DF30"",""assignmentId"":""4050e3d5-59d2-450c-a665-877d16167317"",""projectId"":""54f8d589-66fc-4c65-830f-1dcc63bce8cc""}","https://test12345.live/?participantId=8D9CB9BE66E5474F950FB9ECFF19DF30&assignmentId=4050e3d5-59d2-450c-a665-877d16167317&projectId=54f8d589-66fc-4c65-830f-1dcc63bce8cc","[{""page_index"":0,""viewing_time"":6647}]","6647","","","",""
"","","","","","instructions","2","170732","0.0-2.0","8D9CB9BE66E5474F950FB9ECFF19DF30","8D9CB9BE66E5474F950FB9ECFF19DF30","4050e3d5-59d2-450c-a665-877d16167317","54f8d589-66fc-4c65-830f-1dcc63bce8cc","{""participantId"":""8D9CB9BE66E5474F950FB9ECFF19DF30"",""assignmentId"":""4050e3d5-59d2-450c-a665-877d16167317"",""projectId"":""54f8d589-66fc-4c65-830f-1dcc63bce8cc""}","https://test12345.live/?participantId=8D9CB9BE66E5474F950FB9ECFF19DF30&assignmentId=4050e3d5-59d2-450c-a665-877d16167317&projectId=54f8d589-66fc-4c65-830f-1dcc63bce8cc","[{""page_index"":0,""viewing_time"":158351}]","158351","","","",""
"true","","","","","fullscreen","3","174894","0.0-3.0","8D9CB9BE66E5474F950FB9ECFF19DF30","8D9CB9BE66E5474F950FB9ECFF19DF30","4050e3d5-59d2-450c-a665-877d16167317","54f8d589-66fc-4c65-830f-1dcc63bce8cc","{""participantId"":""8D9CB9BE66E5474F950FB9ECFF19DF30"",""assignmentId"":""4050e3d5-59d2-450c-a665-877d16167317"",""projectId"":""54f8d589-66fc-4c65-830f-1dcc63bce8cc""}","https://test12345.live/?participantId=8D9CB9BE66E5474F950FB9ECFF19DF30&assignmentId=4050e3d5-59d2-450c-a665-877d16167317&projectId=54f8d589-66fc-4c65-830f-1dcc63bce8cc","","3159","","","",""
"","","","","","instructions","4","185731","0.0-4.0","8D9CB9BE66E5474F950FB9ECFF19DF30","8D9CB9BE66E5474F950FB9ECFF19DF30","4050e3d5-59d2-450c-a665-877d16167317","54f8d589-66fc-4c65-830f-1dcc63bce8cc","{""participantId"":""8D9CB9BE66E5474F950FB9ECFF19DF30"",""assignmentId"":""4050e3d5-59d2-450c-a665-877d16167317"",""projectId"":""54f8d589-66fc-4c65-830f-1dcc63bce8cc""}","https://test12345.live/?participantId=8D9CB9BE66E5474F950FB9ECFF19DF30&assignmentId=4050e3d5-59d2-450c-a665-877d16167317&projectId=54f8d589-66fc-4c65-830f-1dcc63bce8cc","[{""page_index"":0,""viewing_time"":10836}]","10836","","","",""
"","","","","","html-button-response","5","194232","0.0-5.0","8D9CB9BE66E5474F950FB9ECFF19DF30","8D9CB9BE66E5474F950FB9ECFF19DF30","4050e3d5-59d2-450c-a665-877d16167317","54f8d589-66fc-4c65-830f-1dcc63bce8cc","{""participantId"":""8D9CB9BE66E5474F950FB9ECFF19DF30"",""assignmentId"":""4050e3d5-59d2-450c-a665-877d16167317"",""projectId"":""54f8d589-66fc-4c65-830f-1dcc63bce8cc""}","https://test12345.live/?participantId=8D9CB9BE66E5474F950FB9ECFF19DF30&assignmentId=4050e3d5-59d2-450c-a665-877d16167317&projectId=54f8d589-66fc-4c65-830f-1dcc63bce8cc","","8495","
    <div style=""display: flex; justify-content: center; align-items: center;"">
      <img src=""images/red_deck_2.png"" style=""width: 300px; height: 300px; margin-right: 10px;"" />
      <img src=""images/blue_deck_1.png"" style=""width: 300px; height: 300px;"" />
    </div>","1","1",""
"","","","","","html-keyboard-response","6","197233","0.0-7.0-0.0","8D9CB9BE66E5474F950FB9ECFF19DF30","8D9CB9BE66E5474F950FB9ECFF19DF30","4050e3d5-59d2-450c-a665-877d16167317","54f8d589-66fc-4c65-830f-1dcc63bce8cc","{""participantId"":""8D9CB9BE66E5474F950FB9ECFF19DF30"",""assignmentId"":""4050e3d5-59d2-450c-a665-877d16167317"",""projectId"":""54f8d589-66fc-4c65-830f-1dcc63bce8cc""}","https://test12345.live/?participantId=8D9CB9BE66E5474F950FB9ECFF19DF30&assignmentId=4050e3d5-59d2-450c-a665-877d16167317&projectId=54f8d589-66fc-4c65-830f-1dcc63bce8cc","","null","<div style=""display: flex; justify-content: center; align-items: center;"">
                    <img src=""images/semantic/semantic_series_12/semantic_series_12_a.jpg"" style=""width: 300px; height: 300px;"" />
                  </div>","null","",""
"","","","","","html-keyboard-response","7","200234","0.0-7.0-1.0","8D9CB9BE66E5474F950FB9ECFF19DF30","8D9CB9BE66E5474F950FB9ECFF19DF30","4050e3d5-59d2-450c-a665-877d16167317","54f8d589-66fc-4c65-830f-1dcc63bce8cc","{""participantId"":""8D9CB9BE66E5474F950FB9ECFF19DF30"",""assignmentId"":""4050e3d5-59d2-450c-a665-877d16167317"",""projectId"":""54f8d589-66fc-4c65-830f-1dcc63bce8cc""}","https://test12345.live/?participantId=8D9CB9BE66E5474F950FB9ECFF19DF30&assignmentId=4050e3d5-59d2-450c-a665-877d16167317&projectId=54f8d589-66fc-4c65-830f-1dcc63bce8cc","","null","<div style=""display: flex; justify-content: center; align-items: center;"">
                    <img src=""images/semantic/semantic_series_12/semantic_series_12_b.jpg"" style=""width: 300px; height: 300px;"" />
                  </div>","null","",""
"","","","","","html-keyboard-response","8","203235","0.0-7.0-2.0","8D9CB9BE66E5474F950FB9ECFF19DF30","8D9CB9BE66E5474F950FB9ECFF19DF30","4050e3d5-59d2-450c-a665-877d16167317","54f8d589-66fc-4c65-830f-1dcc63bce8cc","{""participantId"":""8D9CB9BE66E5474F950FB9ECFF19DF30"",""assignmentId"":""4050e3d5-59d2-450c-a665-877d16167317"",""projectId"":""54f8d589-66fc-4c65-830f-1dcc63bce8cc""}","https://test12345.live/?participantId=8D9CB9BE66E5474F950FB9ECFF19DF30&assignmentId=4050e3d5-59d2-450c-a665-877d16167317&projectId=54f8d589-66fc-4c65-830f-1dcc63bce8cc","","null","<div style=""display: flex; justify-content: center; align-items: center;"">
                    <img src=""images/semantic/semantic_series_12/semantic_series_12_c.jpg"" style=""width: 300px; height: 300px;"" />
                  </div>","null","",""
"","","","","","html-keyboard-response","9","206236","0.0-7.0-3.0","8D9CB9BE66E5474F950FB9ECFF19DF30","8D9CB9BE66E5474F950FB9ECFF19DF30","4050e3d5-59d2-450c-a665-877d16167317","54f8d589-66fc-4c65-830f-1dcc63bce8cc","{""participantId"":""8D9CB9BE66E5474F950FB9ECFF19DF30"",""assignmentId"":""4050e3d5-59d2-450c-a665-877d16167317"",""projectId"":""54f8d589-66fc-4c65-830f-1dcc63bce8cc""}","https://test12345.live/?participantId=8D9CB9BE66E5474F950FB9ECFF19DF30&assignmentId=4050e3d5-59d2-450c-a665-877d16167317&projectId=54f8d589-66fc-4c65-830f-1dcc63bce8cc","","null","<div style=""display: flex; justify-content: center; align-items: center;"">
                    <img src=""images/semantic/semantic_series_12/semantic_series_12_d.jpg"" style=""width: 300px; height: 300px;"" />
                  </div>","null","",""
"","","","","","html-button-response","10","212238","0.0-8.0","8D9CB9BE66E5474F950FB9ECFF19DF30","8D9CB9BE66E5474F950FB9ECFF19DF30","4050e3d5-59d2-450c-a665-877d16167317","54f8d589-66fc-4c65-830f-1dcc63bce8cc","{""participantId"":""8D9CB9BE66E5474F950FB9ECFF19DF30"",""assignmentId"":""4050e3d5-59d2-450c-a665-877d16167317"",""projectId"":""54f8d589-66fc-4c65-830f-1dcc63bce8cc""}","https://test12345.live/?participantId=8D9CB9BE66E5474F950FB9ECFF19DF30&assignmentId=4050e3d5-59d2-450c-a665-877d16167317&projectId=54f8d589-66fc-4c65-830f-1dcc63bce8cc","","6001","Was there a person in the picture?","1","",""
"","","","","","survey-likert","11","222928","0.0-9.0","8D9CB9BE66E5474F950FB9ECFF19DF30","8D9CB9BE66E5474F950FB9ECFF19DF30","4050e3d5-59d2-450c-a665-877d16167317","54f8d589-66fc-4c65-830f-1dcc63bce8cc","{""participantId"":""8D9CB9BE66E5474F950FB9ECFF19DF30"",""assignmentId"":""4050e3d5-59d2-450c-a665-877d16167317"",""projectId"":""54f8d589-66fc-4c65-830f-1dcc63bce8cc""}","https://test12345.live/?participantId=8D9CB9BE66E5474F950FB9ECFF19DF30&assignmentId=4050e3d5-59d2-450c-a665-877d16167317&projectId=54f8d589-66fc-4c65-830f-1dcc63bce8cc","","10687","","{""Q0"":3}","","[0]"
"","","","","","html-button-response","12","225573","0.0-10.0","8D9CB9BE66E5474F950FB9ECFF19DF30","8D9CB9BE66E5474F950FB9ECFF19DF30","4050e3d5-59d2-450c-a665-877d16167317","54f8d589-66fc-4c65-830f-1dcc63bce8cc","{""participantId"":""8D9CB9BE66E5474F950FB9ECFF19DF30"",""assignmentId"":""4050e3d5-59d2-450c-a665-877d16167317"",""projectId"":""54f8d589-66fc-4c65-830f-1dcc63bce8cc""}","https://test12345.live/?participantId=8D9CB9BE66E5474F950FB9ECFF19DF30&assignmentId=4050e3d5-59d2-450c-a665-877d16167317&projectId=54f8d589-66fc-4c65-830f-1dcc63bce8cc","","2645","
    <div style=""display: flex; justify-content: center; align-items: center;"">
      <img src=""images/red_deck_2.png"" style=""width: 300px; height: 300px; margin-right: 10px;"" />
      <img src=""images/blue_deck_1.png"" style=""width: 300px; height: 300px;"" />
    </div>","0","0",""
"","","","","","html-keyboard-response","13","228575","0.0-11.0-0.0","8D9CB9BE66E5474F950FB9ECFF19DF30","8D9CB9BE66E5474F950FB9ECFF19DF30","4050e3d5-59d2-450c-a665-877d16167317","54f8d589-66fc-4c65-830f-1dcc63bce8cc","{""participantId"":""8D9CB9BE66E5474F950FB9ECFF19DF30"",""assignmentId"":""4050e3d5-59d2-450c-a665-877d16167317"",""projectId"":""54f8d589-66fc-4c65-830f-1dcc63bce8cc""}","https://test12345.live/?participantId=8D9CB9BE66E5474F950FB9ECFF19DF30&assignmentId=4050e3d5-59d2-450c-a665-877d16167317&projectId=54f8d589-66fc-4c65-830f-1dcc63bce8cc","","null","<div style=""display: flex; justify-content: center; align-items: center;"">
                    <img src=""images/causal/causal_series_11/causal_series_11_a.jpg"" style=""width: 300px; height: 300px;"" />
                  </div>","null","",""
"","","","","","html-keyboard-response","14","231575","0.0-11.0-1.0","8D9CB9BE66E5474F950FB9ECFF19DF30","8D9CB9BE66E5474F950FB9ECFF19DF30","4050e3d5-59d2-450c-a665-877d16167317","54f8d589-66fc-4c65-830f-1dcc63bce8cc","{""participantId"":""8D9CB9BE66E5474F950FB9ECFF19DF30"",""assignmentId"":""4050e3d5-59d2-450c-a665-877d16167317"",""projectId"":""54f8d589-66fc-4c65-830f-1dcc63bce8cc""}","https://test12345.live/?participantId=8D9CB9BE66E5474F950FB9ECFF19DF30&assignmentId=4050e3d5-59d2-450c-a665-877d16167317&projectId=54f8d589-66fc-4c65-830f-1dcc63bce8cc","","null","<div style=""display: flex; justify-content: center; align-items: center;"">
                    <img src=""images/causal/causal_series_11/causal_series_11_b.jpg"" style=""width: 300px; height: 300px;"" />
                  </div>","null","",""
"","","","","","html-keyboard-response","15","234577","0.0-11.0-2.0","8D9CB9BE66E5474F950FB9ECFF19DF30","8D9CB9BE66E5474F950FB9ECFF19DF30","4050e3d5-59d2-450c-a665-877d16167317","54f8d589-66fc-4c65-830f-1dcc63bce8cc","{""participantId"":""8D9CB9BE66E5474F950FB9ECFF19DF30"",""assignmentId"":""4050e3d5-59d2-450c-a665-877d16167317"",""projectId"":""54f8d589-66fc-4c65-830f-1dcc63bce8cc""}","https://test12345.live/?participantId=8D9CB9BE66E5474F950FB9ECFF19DF30&assignmentId=4050e3d5-59d2-450c-a665-877d16167317&projectId=54f8d589-66fc-4c65-830f-1dcc63bce8cc","","null","<div style=""display: flex; justify-content: center; align-items: center;"">
                    <img src=""images/causal/causal_series_11/causal_series_11_c.jpg"" style=""width: 300px; height: 300px;"" />
                  </div>","null","",""
"","","","","","html-keyboard-response","16","237578","0.0-11.0-3.0","8D9CB9BE66E5474F950FB9ECFF19DF30","8D9CB9BE66E5474F950FB9ECFF19DF30","4050e3d5-59d2-450c-a665-877d16167317","54f8d589-66fc-4c65-830f-1dcc63bce8cc","{""participantId"":""8D9CB9BE66E5474F950FB9ECFF19DF30"",""assignmentId"":""4050e3d5-59d2-450c-a665-877d16167317"",""projectId"":""54f8d589-66fc-4c65-830f-1dcc63bce8cc""}","https://test12345.live/?participantId=8D9CB9BE66E5474F950FB9ECFF19DF30&assignmentId=4050e3d5-59d2-450c-a665-877d16167317&projectId=54f8d589-66fc-4c65-830f-1dcc63bce8cc","","null","<div style=""display: flex; justify-content: center; align-items: center;"">
                    <img src=""images/causal/causal_series_11/causal_series_11_d.jpg"" style=""width: 300px; height: 300px;"" />
                  </div>","null","",""
"","","","","","html-button-response","17","239517","0.0-13.0","8D9CB9BE66E5474F950FB9ECFF19DF30","8D9CB9BE66E5474F950FB9ECFF19DF30","4050e3d5-59d2-450c-a665-877d16167317","54f8d589-66fc-4c65-830f-1dcc63bce8cc","{""participantId"":""8D9CB9BE66E5474F950FB9ECFF19DF30"",""assignmentId"":""4050e3d5-59d2-450c-a665-877d16167317"",""projectId"":""54f8d589-66fc-4c65-830f-1dcc63bce8cc""}","https://test12345.live/?participantId=8D9CB9BE66E5474F950FB9ECFF19DF30&assignmentId=4050e3d5-59d2-450c-a665-877d16167317&projectId=54f8d589-66fc-4c65-830f-1dcc63bce8cc","","1938","Was there a person in the picture?","0","",""
"","","","","","survey-likert","18","246189","0.0-14.0","8D9CB9BE66E5474F950FB9ECFF19DF30","8D9CB9BE66E5474F950FB9ECFF19DF30","4050e3d5-59d2-450c-a665-877d16167317","54f8d589-66fc-4c65-830f-1dcc63bce8cc","{""participantId"":""8D9CB9BE66E5474F950FB9ECFF19DF30"",""assignmentId"":""4050e3d5-59d2-450c-a665-877d16167317"",""projectId"":""54f8d589-66fc-4c65-830f-1dcc63bce8cc""}","https://test12345.live/?participantId=8D9CB9BE66E5474F950FB9ECFF19DF30&assignmentId=4050e3d5-59d2-450c-a665-877d16167317&projectId=54f8d589-66fc-4c65-830f-1dcc63bce8cc","","6671","","{""Q0"":2}","","[0]"
"","","","","","html-button-response","19","248213","0.0-15.0","8D9CB9BE66E5474F950FB9ECFF19DF30","8D9CB9BE66E5474F950FB9ECFF19DF30","4050e3d5-59d2-450c-a665-877d16167317","54f8d589-66fc-4c65-830f-1dcc63bce8cc","{""participantId"":""8D9CB9BE66E5474F950FB9ECFF19DF30"",""assignmentId"":""4050e3d5-59d2-450c-a665-877d16167317"",""projectId"":""54f8d589-66fc-4c65-830f-1dcc63bce8cc""}","https://test12345.live/?participantId=8D9CB9BE66E5474F950FB9ECFF19DF30&assignmentId=4050e3d5-59d2-450c-a665-877d16167317&projectId=54f8d589-66fc-4c65-830f-1dcc63bce8cc","","2023","
    <div style=""display: flex; justify-content: center; align-items: center;"">
      <img src=""images/red_deck_2.png"" style=""width: 300px; height: 300px; margin-right: 10px;"" />
      <img src=""images/blue_deck_1.png"" style=""width: 300px; height: 300px;"" />
    </div>","1","1",""
"","","","","","html-keyboard-response","20","251220","0.0-17.0-0.0","8D9CB9BE66E5474F950FB9ECFF19DF30","8D9CB9BE66E5474F950FB9ECFF19DF30","4050e3d5-59d2-450c-a665-877d16167317","54f8d589-66fc-4c65-830f-1dcc63bce8cc","{""participantId"":""8D9CB9BE66E5474F950FB9ECFF19DF30"",""assignmentId"":""4050e3d5-59d2-450c-a665-877d16167317"",""projectId"":""54f8d589-66fc-4c65-830f-1dcc63bce8cc""}","https://test12345.live/?participantId=8D9CB9BE66E5474F950FB9ECFF19DF30&assignmentId=4050e3d5-59d2-450c-a665-877d16167317&projectId=54f8d589-66fc-4c65-830f-1dcc63bce8cc","","null","<div style=""display: flex; justify-content: center; align-items: center;"">
                    <img src=""images/semantic/semantic_series_11/semantic_series_11_a.jpg"" style=""width: 300px; height: 300px;"" />
                  </div>","null","",""
"","","","","","html-keyboard-response","21","254221","0.0-17.0-1.0","8D9CB9BE66E5474F950FB9ECFF19DF30","8D9CB9BE66E5474F950FB9ECFF19DF30","4050e3d5-59d2-450c-a665-877d16167317","54f8d589-66fc-4c65-830f-1dcc63bce8cc","{""participantId"":""8D9CB9BE66E5474F950FB9ECFF19DF30"",""assignmentId"":""4050e3d5-59d2-450c-a665-877d16167317"",""projectId"":""54f8d589-66fc-4c65-830f-1dcc63bce8cc""}","https://test12345.live/?participantId=8D9CB9BE66E5474F950FB9ECFF19DF30&assignmentId=4050e3d5-59d2-450c-a665-877d16167317&projectId=54f8d589-66fc-4c65-830f-1dcc63bce8cc","","null","<div style=""display: flex; justify-content: center; align-items: center;"">
                    <img src=""images/semantic/semantic_series_11/semantic_series_11_b.jpg"" style=""width: 300px; height: 300px;"" />
                  </div>","null","",""
"","","","","","html-keyboard-response","22","257222","0.0-17.0-2.0","8D9CB9BE66E5474F950FB9ECFF19DF30","8D9CB9BE66E5474F950FB9ECFF19DF30","4050e3d5-59d2-450c-a665-877d16167317","54f8d589-66fc-4c65-830f-1dcc63bce8cc","{""participantId"":""8D9CB9BE66E5474F950FB9ECFF19DF30"",""assignmentId"":""4050e3d5-59d2-450c-a665-877d16167317"",""projectId"":""54f8d589-66fc-4c65-830f-1dcc63bce8cc""}","https://test12345.live/?participantId=8D9CB9BE66E5474F950FB9ECFF19DF30&assignmentId=4050e3d5-59d2-450c-a665-877d16167317&projectId=54f8d589-66fc-4c65-830f-1dcc63bce8cc","","null","<div style=""display: flex; justify-content: center; align-items: center;"">
                    <img src=""images/semantic/semantic_series_11/semantic_series_11_c.jpg"" style=""width: 300px; height: 300px;"" />
                  </div>","null","",""
"","","","","","html-keyboard-response","23","260223","0.0-17.0-3.0","8D9CB9BE66E5474F950FB9ECFF19DF30","8D9CB9BE66E5474F950FB9ECFF19DF30","4050e3d5-59d2-450c-a665-877d16167317","54f8d589-66fc-4c65-830f-1dcc63bce8cc","{""participantId"":""8D9CB9BE66E5474F950FB9ECFF19DF30"",""assignmentId"":""4050e3d5-59d2-450c-a665-877d16167317"",""projectId"":""54f8d589-66fc-4c65-830f-1dcc63bce8cc""}","https://test12345.live/?participantId=8D9CB9BE66E5474F950FB9ECFF19DF30&assignmentId=4050e3d5-59d2-450c-a665-877d16167317&projectId=54f8d589-66fc-4c65-830f-1dcc63bce8cc","","null","<div style=""display: flex; justify-content: center; align-items: center;"">
                    <img src=""images/semantic/semantic_series_11/semantic_series_11_d.jpg"" style=""width: 300px; height: 300px;"" />
                  </div>","null","",""
"","","","","","html-button-response","24","261345","0.0-18.0","8D9CB9BE66E5474F950FB9ECFF19DF30","8D9CB9BE66E5474F950FB9ECFF19DF30","4050e3d5-59d2-450c-a665-877d16167317","54f8d589-66fc-4c65-830f-1dcc63bce8cc","{""participantId"":""8D9CB9BE66E5474F950FB9ECFF19DF30"",""assignmentId"":""4050e3d5-59d2-450c-a665-877d16167317"",""projectId"":""54f8d589-66fc-4c65-830f-1dcc63bce8cc""}","https://test12345.live/?participantId=8D9CB9BE66E5474F950FB9ECFF19DF30&assignmentId=4050e3d5-59d2-450c-a665-877d16167317&projectId=54f8d589-66fc-4c65-830f-1dcc63bce8cc","","1122","Was there a person in the picture?","0","",""
"","","","","","survey-likert","25","267098","0.0-19.0","8D9CB9BE66E5474F950FB9ECFF19DF30","8D9CB9BE66E5474F950FB9ECFF19DF30","4050e3d5-59d2-450c-a665-877d16167317","54f8d589-66fc-4c65-830f-1dcc63bce8cc","{""participantId"":""8D9CB9BE66E5474F950FB9ECFF19DF30"",""assignmentId"":""4050e3d5-59d2-450c-a665-877d16167317"",""projectId"":""54f8d589-66fc-4c65-830f-1dcc63bce8cc""}","https://test12345.live/?participantId=8D9CB9BE66E5474F950FB9ECFF19DF30&assignmentId=4050e3d5-59d2-450c-a665-877d16167317&projectId=54f8d589-66fc-4c65-830f-1dcc63bce8cc","","5751","","{""Q0"":1}","","[0]"
"","","","","","html-button-response","26","269273","0.0-20.0","8D9CB9BE66E5474F950FB9ECFF19DF30","8D9CB9BE66E5474F950FB9ECFF19DF30","4050e3d5-59d2-450c-a665-877d16167317","54f8d589-66fc-4c65-830f-1dcc63bce8cc","{""participantId"":""8D9CB9BE66E5474F950FB9ECFF19DF30"",""assignmentId"":""4050e3d5-59d2-450c-a665-877d16167317"",""projectId"":""54f8d589-66fc-4c65-830f-1dcc63bce8cc""}","https://test12345.live/?participantId=8D9CB9BE66E5474F950FB9ECFF19DF30&assignmentId=4050e3d5-59d2-450c-a665-877d16167317&projectId=54f8d589-66fc-4c65-830f-1dcc63bce8cc","","2174","
    <div style=""display: flex; justify-content: center; align-items: center;"">
      <img src=""images/red_deck_2.png"" style=""width: 300px; height: 300px; margin-right: 10px;"" />
      <img src=""images/blue_deck_1.png"" style=""width: 300px; height: 300px;"" />
    </div>","1","1",""
"","","","","","html-keyboard-response","27","272275","0.0-22.0-0.0","8D9CB9BE66E5474F950FB9ECFF19DF30","8D9CB9BE66E5474F950FB9ECFF19DF30","4050e3d5-59d2-450c-a665-877d16167317","54f8d589-66fc-4c65-830f-1dcc63bce8cc","{""participantId"":""8D9CB9BE66E5474F950FB9ECFF19DF30"",""assignmentId"":""4050e3d5-59d2-450c-a665-877d16167317"",""projectId"":""54f8d589-66fc-4c65-830f-1dcc63bce8cc""}","https://test12345.live/?participantId=8D9CB9BE66E5474F950FB9ECFF19DF30&assignmentId=4050e3d5-59d2-450c-a665-877d16167317&projectId=54f8d589-66fc-4c65-830f-1dcc63bce8cc","","null","<div style=""display: flex; justify-content: center; align-items: center;"">
                    <img src=""images/semantic/semantic_series_4/semantic_series_4_a.jpg"" style=""width: 300px; height: 300px;"" />
                  </div>","null","",""
"","","","","","html-keyboard-response","28","275276","0.0-22.0-1.0","8D9CB9BE66E5474F950FB9ECFF19DF30","8D9CB9BE66E5474F950FB9ECFF19DF30","4050e3d5-59d2-450c-a665-877d16167317","54f8d589-66fc-4c65-830f-1dcc63bce8cc","{""participantId"":""8D9CB9BE66E5474F950FB9ECFF19DF30"",""assignmentId"":""4050e3d5-59d2-450c-a665-877d16167317"",""projectId"":""54f8d589-66fc-4c65-830f-1dcc63bce8cc""}","https://test12345.live/?participantId=8D9CB9BE66E5474F950FB9ECFF19DF30&assignmentId=4050e3d5-59d2-450c-a665-877d16167317&projectId=54f8d589-66fc-4c65-830f-1dcc63bce8cc","","null","<div style=""display: flex; justify-content: center; align-items: center;"">
                    <img src=""images/semantic/semantic_series_4/semantic_series_4_b.jpg"" style=""width: 300px; height: 300px;"" />
                  </div>","null","",""
"","","","","","html-keyboard-response","29","278277","0.0-22.0-2.0","8D9CB9BE66E5474F950FB9ECFF19DF30","8D9CB9BE66E5474F950FB9ECFF19DF30","4050e3d5-59d2-450c-a665-877d16167317","54f8d589-66fc-4c65-830f-1dcc63bce8cc","{""participantId"":""8D9CB9BE66E5474F950FB9ECFF19DF30"",""assignmentId"":""4050e3d5-59d2-450c-a665-877d16167317"",""projectId"":""54f8d589-66fc-4c65-830f-1dcc63bce8cc""}","https://test12345.live/?participantId=8D9CB9BE66E5474F950FB9ECFF19DF30&assignmentId=4050e3d5-59d2-450c-a665-877d16167317&projectId=54f8d589-66fc-4c65-830f-1dcc63bce8cc","","null","<div style=""display: flex; justify-content: center; align-items: center;"">
                    <img src=""images/semantic/semantic_series_4/semantic_series_4_c.jpg"" style=""width: 300px; height: 300px;"" />
                  </div>","null","",""
"","","","","","html-keyboard-response","30","281278","0.0-22.0-3.0","8D9CB9BE66E5474F950FB9ECFF19DF30","8D9CB9BE66E5474F950FB9ECFF19DF30","4050e3d5-59d2-450c-a665-877d16167317","54f8d589-66fc-4c65-830f-1dcc63bce8cc","{""participantId"":""8D9CB9BE66E5474F950FB9ECFF19DF30"",""assignmentId"":""4050e3d5-59d2-450c-a665-877d16167317"",""projectId"":""54f8d589-66fc-4c65-830f-1dcc63bce8cc""}","https://test12345.live/?participantId=8D9CB9BE66E5474F950FB9ECFF19DF30&assignmentId=4050e3d5-59d2-450c-a665-877d16167317&projectId=54f8d589-66fc-4c65-830f-1dcc63bce8cc","","null","<div style=""display: flex; justify-content: center; align-items: center;"">
                    <img src=""images/semantic/semantic_series_4/semantic_series_4_d.jpg"" style=""width: 300px; height: 300px;"" />
                  </div>","null","",""
"","","","","","html-button-response","31","283033","0.0-23.0","8D9CB9BE66E5474F950FB9ECFF19DF30","8D9CB9BE66E5474F950FB9ECFF19DF30","4050e3d5-59d2-450c-a665-877d16167317","54f8d589-66fc-4c65-830f-1dcc63bce8cc","{""participantId"":""8D9CB9BE66E5474F950FB9ECFF19DF30"",""assignmentId"":""4050e3d5-59d2-450c-a665-877d16167317"",""projectId"":""54f8d589-66fc-4c65-830f-1dcc63bce8cc""}","https://test12345.live/?participantId=8D9CB9BE66E5474F950FB9ECFF19DF30&assignmentId=4050e3d5-59d2-450c-a665-877d16167317&projectId=54f8d589-66fc-4c65-830f-1dcc63bce8cc","","1754","Was there a person in the picture?","1","",""
"","","","","","survey-likert","32","286888","0.0-24.0","8D9CB9BE66E5474F950FB9ECFF19DF30","8D9CB9BE66E5474F950FB9ECFF19DF30","4050e3d5-59d2-450c-a665-877d16167317","54f8d589-66fc-4c65-830f-1dcc63bce8cc","{""participantId"":""8D9CB9BE66E5474F950FB9ECFF19DF30"",""assignmentId"":""4050e3d5-59d2-450c-a665-877d16167317"",""projectId"":""54f8d589-66fc-4c65-830f-1dcc63bce8cc""}","https://test12345.live/?participantId=8D9CB9BE66E5474F950FB9ECFF19DF30&assignmentId=4050e3d5-59d2-450c-a665-877d16167317&projectId=54f8d589-66fc-4c65-830f-1dcc63bce8cc","","3855","","{""Q0"":3}","","[0]"
"","","","","","html-button-response","33","288224","0.0-25.0","8D9CB9BE66E5474F950FB9ECFF19DF30","8D9CB9BE66E5474F950FB9ECFF19DF30","4050e3d5-59d2-450c-a665-877d16167317","54f8d589-66fc-4c65-830f-1dcc63bce8cc","{""participantId"":""8D9CB9BE66E5474F950FB9ECFF19DF30"",""assignmentId"":""4050e3d5-59d2-450c-a665-877d16167317"",""projectId"":""54f8d589-66fc-4c65-830f-1dcc63bce8cc""}","https://test12345.live/?participantId=8D9CB9BE66E5474F950FB9ECFF19DF30&assignmentId=4050e3d5-59d2-450c-a665-877d16167317&projectId=54f8d589-66fc-4c65-830f-1dcc63bce8cc","","1334","
    <div style=""display: flex; justify-content: center; align-items: center;"">
      <img src=""images/red_deck_2.png"" style=""width: 300px; height: 300px; margin-right: 10px;"" />
      <img src=""images/blue_deck_1.png"" style=""width: 300px; height: 300px;"" />
    </div>","1","1",""
"","","","","","html-keyboard-response","34","291225","0.0-27.0-0.0","8D9CB9BE66E5474F950FB9ECFF19DF30","8D9CB9BE66E5474F950FB9ECFF19DF30","4050e3d5-59d2-450c-a665-877d16167317","54f8d589-66fc-4c65-830f-1dcc63bce8cc","{""participantId"":""8D9CB9BE66E5474F950FB9ECFF19DF30"",""assignmentId"":""4050e3d5-59d2-450c-a665-877d16167317"",""projectId"":""54f8d589-66fc-4c65-830f-1dcc63bce8cc""}","https://test12345.live/?participantId=8D9CB9BE66E5474F950FB9ECFF19DF30&assignmentId=4050e3d5-59d2-450c-a665-877d16167317&projectId=54f8d589-66fc-4c65-830f-1dcc63bce8cc","","null","<div style=""display: flex; justify-content: center; align-items: center;"">
                    <img src=""images/semantic/semantic_series_13/semantic_series_13_a.jpg"" style=""width: 300px; height: 300px;"" />
                  </div>","null","",""
"","","","","","html-keyboard-response","35","294226","0.0-27.0-1.0","8D9CB9BE66E5474F950FB9ECFF19DF30","8D9CB9BE66E5474F950FB9ECFF19DF30","4050e3d5-59d2-450c-a665-877d16167317","54f8d589-66fc-4c65-830f-1dcc63bce8cc","{""participantId"":""8D9CB9BE66E5474F950FB9ECFF19DF30"",""assignmentId"":""4050e3d5-59d2-450c-a665-877d16167317"",""projectId"":""54f8d589-66fc-4c65-830f-1dcc63bce8cc""}","https://test12345.live/?participantId=8D9CB9BE66E5474F950FB9ECFF19DF30&assignmentId=4050e3d5-59d2-450c-a665-877d16167317&projectId=54f8d589-66fc-4c65-830f-1dcc63bce8cc","","null","<div style=""display: flex; justify-content: center; align-items: center;"">
                    <img src=""images/semantic/semantic_series_13/semantic_series_13_b.jpg"" style=""width: 300px; height: 300px;"" />
                  </div>","null","",""
"","","","","","html-keyboard-response","36","297227","0.0-27.0-2.0","8D9CB9BE66E5474F950FB9ECFF19DF30","8D9CB9BE66E5474F950FB9ECFF19DF30","4050e3d5-59d2-450c-a665-877d16167317","54f8d589-66fc-4c65-830f-1dcc63bce8cc","{""participantId"":""8D9CB9BE66E5474F950FB9ECFF19DF30"",""assignmentId"":""4050e3d5-59d2-450c-a665-877d16167317"",""projectId"":""54f8d589-66fc-4c65-830f-1dcc63bce8cc""}","https://test12345.live/?participantId=8D9CB9BE66E5474F950FB9ECFF19DF30&assignmentId=4050e3d5-59d2-450c-a665-877d16167317&projectId=54f8d589-66fc-4c65-830f-1dcc63bce8cc","","null","<div style=""display: flex; justify-content: center; align-items: center;"">
                    <img src=""images/semantic/semantic_series_13/semantic_series_13_c.jpg"" style=""width: 300px; height: 300px;"" />
                  </div>","null","",""
"","","","","","html-keyboard-response","37","300228","0.0-27.0-3.0","8D9CB9BE66E5474F950FB9ECFF19DF30","8D9CB9BE66E5474F950FB9ECFF19DF30","4050e3d5-59d2-450c-a665-877d16167317","54f8d589-66fc-4c65-830f-1dcc63bce8cc","{""participantId"":""8D9CB9BE66E5474F950FB9ECFF19DF30"",""assignmentId"":""4050e3d5-59d2-450c-a665-877d16167317"",""projectId"":""54f8d589-66fc-4c65-830f-1dcc63bce8cc""}","https://test12345.live/?participantId=8D9CB9BE66E5474F950FB9ECFF19DF30&assignmentId=4050e3d5-59d2-450c-a665-877d16167317&projectId=54f8d589-66fc-4c65-830f-1dcc63bce8cc","","null","<div style=""display: flex; justify-content: center; align-items: center;"">
                    <img src=""images/semantic/semantic_series_13/semantic_series_13_d.jpg"" style=""width: 300px; height: 300px;"" />
                  </div>","null","",""
"","","","","","html-button-response","38","302735","0.0-28.0","8D9CB9BE66E5474F950FB9ECFF19DF30","8D9CB9BE66E5474F950FB9ECFF19DF30","4050e3d5-59d2-450c-a665-877d16167317","54f8d589-66fc-4c65-830f-1dcc63bce8cc","{""participantId"":""8D9CB9BE66E5474F950FB9ECFF19DF30"",""assignmentId"":""4050e3d5-59d2-450c-a665-877d16167317"",""projectId"":""54f8d589-66fc-4c65-830f-1dcc63bce8cc""}","https://test12345.live/?participantId=8D9CB9BE66E5474F950FB9ECFF19DF30&assignmentId=4050e3d5-59d2-450c-a665-877d16167317&projectId=54f8d589-66fc-4c65-830f-1dcc63bce8cc","","2507","Was there a person in the picture?","0","",""
"","","","","","survey-likert","39","305055","0.0-29.0","8D9CB9BE66E5474F950FB9ECFF19DF30","8D9CB9BE66E5474F950FB9ECFF19DF30","4050e3d5-59d2-450c-a665-877d16167317","54f8d589-66fc-4c65-830f-1dcc63bce8cc","{""participantId"":""8D9CB9BE66E5474F950FB9ECFF19DF30"",""assignmentId"":""4050e3d5-59d2-450c-a665-877d16167317"",""projectId"":""54f8d589-66fc-4c65-830f-1dcc63bce8cc""}","https://test12345.live/?participantId=8D9CB9BE66E5474F950FB9ECFF19DF30&assignmentId=4050e3d5-59d2-450c-a665-877d16167317&projectId=54f8d589-66fc-4c65-830f-1dcc63bce8cc","","2319","","{""Q0"":2}","","[0]"
"","","","","","html-button-response","40","306223","0.0-30.0","8D9CB9BE66E5474F950FB9ECFF19DF30","8D9CB9BE66E5474F950FB9ECFF19DF30","4050e3d5-59d2-450c-a665-877d16167317","54f8d589-66fc-4c65-830f-1dcc63bce8cc","{""participantId"":""8D9CB9BE66E5474F950FB9ECFF19DF30"",""assignmentId"":""4050e3d5-59d2-450c-a665-877d16167317"",""projectId"":""54f8d589-66fc-4c65-830f-1dcc63bce8cc""}","https://test12345.live/?participantId=8D9CB9BE66E5474F950FB9ECFF19DF30&assignmentId=4050e3d5-59d2-450c-a665-877d16167317&projectId=54f8d589-66fc-4c65-830f-1dcc63bce8cc","","1166","
    <div style=""display: flex; justify-content: center; align-items: center;"">
      <img src=""images/red_deck_2.png"" style=""width: 300px; height: 300px; margin-right: 10px;"" />
      <img src=""images/blue_deck_1.png"" style=""width: 300px; height: 300px;"" />
    </div>","0","0",""
"","","","","","html-keyboard-response","41","309224","0.0-31.0-0.0","8D9CB9BE66E5474F950FB9ECFF19DF30","8D9CB9BE66E5474F950FB9ECFF19DF30","4050e3d5-59d2-450c-a665-877d16167317","54f8d589-66fc-4c65-830f-1dcc63bce8cc","{""participantId"":""8D9CB9BE66E5474F950FB9ECFF19DF30"",""assignmentId"":""4050e3d5-59d2-450c-a665-877d16167317"",""projectId"":""54f8d589-66fc-4c65-830f-1dcc63bce8cc""}","https://test12345.live/?participantId=8D9CB9BE66E5474F950FB9ECFF19DF30&assignmentId=4050e3d5-59d2-450c-a665-877d16167317&projectId=54f8d589-66fc-4c65-830f-1dcc63bce8cc","","null","<div style=""display: flex; justify-content: center; align-items: center;"">
                    <img src=""images/causal/causal_series_8/causal_series_8_a.jpg"" style=""width: 300px; height: 300px;"" />
                  </div>","null","",""
"","","","","","html-keyboard-response","42","312231","0.0-31.0-1.0","8D9CB9BE66E5474F950FB9ECFF19DF30","8D9CB9BE66E5474F950FB9ECFF19DF30","4050e3d5-59d2-450c-a665-877d16167317","54f8d589-66fc-4c65-830f-1dcc63bce8cc","{""participantId"":""8D9CB9BE66E5474F950FB9ECFF19DF30"",""assignmentId"":""4050e3d5-59d2-450c-a665-877d16167317"",""projectId"":""54f8d589-66fc-4c65-830f-1dcc63bce8cc""}","https://test12345.live/?participantId=8D9CB9BE66E5474F950FB9ECFF19DF30&assignmentId=4050e3d5-59d2-450c-a665-877d16167317&projectId=54f8d589-66fc-4c65-830f-1dcc63bce8cc","","null","<div style=""display: flex; justify-content: center; align-items: center;"">
                    <img src=""images/causal/causal_series_8/causal_series_8_b.jpg"" style=""width: 300px; height: 300px;"" />
                  </div>","null","",""
"","","","","","html-keyboard-response","43","315232","0.0-31.0-2.0","8D9CB9BE66E5474F950FB9ECFF19DF30","8D9CB9BE66E5474F950FB9ECFF19DF30","4050e3d5-59d2-450c-a665-877d16167317","54f8d589-66fc-4c65-830f-1dcc63bce8cc","{""participantId"":""8D9CB9BE66E5474F950FB9ECFF19DF30"",""assignmentId"":""4050e3d5-59d2-450c-a665-877d16167317"",""projectId"":""54f8d589-66fc-4c65-830f-1dcc63bce8cc""}","https://test12345.live/?participantId=8D9CB9BE66E5474F950FB9ECFF19DF30&assignmentId=4050e3d5-59d2-450c-a665-877d16167317&projectId=54f8d589-66fc-4c65-830f-1dcc63bce8cc","","null","<div style=""display: flex; justify-content: center; align-items: center;"">
                    <img src=""images/causal/causal_series_8/causal_series_8_c.jpg"" style=""width: 300px; height: 300px;"" />
                  </div>","null","",""
"","","","","","html-keyboard-response","44","318233","0.0-31.0-3.0","8D9CB9BE66E5474F950FB9ECFF19DF30","8D9CB9BE66E5474F950FB9ECFF19DF30","4050e3d5-59d2-450c-a665-877d16167317","54f8d589-66fc-4c65-830f-1dcc63bce8cc","{""participantId"":""8D9CB9BE66E5474F950FB9ECFF19DF30"",""assignmentId"":""4050e3d5-59d2-450c-a665-877d16167317"",""projectId"":""54f8d589-66fc-4c65-830f-1dcc63bce8cc""}","https://test12345.live/?participantId=8D9CB9BE66E5474F950FB9ECFF19DF30&assignmentId=4050e3d5-59d2-450c-a665-877d16167317&projectId=54f8d589-66fc-4c65-830f-1dcc63bce8cc","","null","<div style=""display: flex; justify-content: center; align-items: center;"">
                    <img src=""images/causal/causal_series_8/causal_series_8_d.jpg"" style=""width: 300px; height: 300px;"" />
                  </div>","null","",""
"","","","","","html-button-response","45","319684","0.0-33.0","8D9CB9BE66E5474F950FB9ECFF19DF30","8D9CB9BE66E5474F950FB9ECFF19DF30","4050e3d5-59d2-450c-a665-877d16167317","54f8d589-66fc-4c65-830f-1dcc63bce8cc","{""participantId"":""8D9CB9BE66E5474F950FB9ECFF19DF30"",""assignmentId"":""4050e3d5-59d2-450c-a665-877d16167317"",""projectId"":""54f8d589-66fc-4c65-830f-1dcc63bce8cc""}","https://test12345.live/?participantId=8D9CB9BE66E5474F950FB9ECFF19DF30&assignmentId=4050e3d5-59d2-450c-a665-877d16167317&projectId=54f8d589-66fc-4c65-830f-1dcc63bce8cc","","1450","Was there a person in the picture?","1","",""
"","","","","","survey-likert","46","323900","0.0-34.0","8D9CB9BE66E5474F950FB9ECFF19DF30","8D9CB9BE66E5474F950FB9ECFF19DF30","4050e3d5-59d2-450c-a665-877d16167317","54f8d589-66fc-4c65-830f-1dcc63bce8cc","{""participantId"":""8D9CB9BE66E5474F950FB9ECFF19DF30"",""assignmentId"":""4050e3d5-59d2-450c-a665-877d16167317"",""projectId"":""54f8d589-66fc-4c65-830f-1dcc63bce8cc""}","https://test12345.live/?participantId=8D9CB9BE66E5474F950FB9ECFF19DF30&assignmentId=4050e3d5-59d2-450c-a665-877d16167317&projectId=54f8d589-66fc-4c65-830f-1dcc63bce8cc","","4215","","{""Q0"":2}","","[0]"
"","","","","","html-button-response","47","325668","0.0-35.0","8D9CB9BE66E5474F950FB9ECFF19DF30","8D9CB9BE66E5474F950FB9ECFF19DF30","4050e3d5-59d2-450c-a665-877d16167317","54f8d589-66fc-4c65-830f-1dcc63bce8cc","{""participantId"":""8D9CB9BE66E5474F950FB9ECFF19DF30"",""assignmentId"":""4050e3d5-59d2-450c-a665-877d16167317"",""projectId"":""54f8d589-66fc-4c65-830f-1dcc63bce8cc""}","https://test12345.live/?participantId=8D9CB9BE66E5474F950FB9ECFF19DF30&assignmentId=4050e3d5-59d2-450c-a665-877d16167317&projectId=54f8d589-66fc-4c65-830f-1dcc63bce8cc","","1766","
    <div style=""display: flex; justify-content: center; align-items: center;"">
      <img src=""images/red_deck_2.png"" style=""width: 300px; height: 300px; margin-right: 10px;"" />
      <img src=""images/blue_deck_1.png"" style=""width: 300px; height: 300px;"" />
    </div>","0","0",""
"","","","","","html-keyboard-response","48","328669","0.0-36.0-0.0","8D9CB9BE66E5474F950FB9ECFF19DF30","8D9CB9BE66E5474F950FB9ECFF19DF30","4050e3d5-59d2-450c-a665-877d16167317","54f8d589-66fc-4c65-830f-1dcc63bce8cc","{""participantId"":""8D9CB9BE66E5474F950FB9ECFF19DF30"",""assignmentId"":""4050e3d5-59d2-450c-a665-877d16167317"",""projectId"":""54f8d589-66fc-4c65-830f-1dcc63bce8cc""}","https://test12345.live/?participantId=8D9CB9BE66E5474F950FB9ECFF19DF30&assignmentId=4050e3d5-59d2-450c-a665-877d16167317&projectId=54f8d589-66fc-4c65-830f-1dcc63bce8cc","","null","<div style=""display: flex; justify-content: center; align-items: center;"">
                    <img src=""images/causal/causal_series_14/causal_series_14_a.jpg"" style=""width: 300px; height: 300px;"" />
                  </div>","null","",""
"","","","","","html-keyboard-response","49","331670","0.0-36.0-1.0","8D9CB9BE66E5474F950FB9ECFF19DF30","8D9CB9BE66E5474F950FB9ECFF19DF30","4050e3d5-59d2-450c-a665-877d16167317","54f8d589-66fc-4c65-830f-1dcc63bce8cc","{""participantId"":""8D9CB9BE66E5474F950FB9ECFF19DF30"",""assignmentId"":""4050e3d5-59d2-450c-a665-877d16167317"",""projectId"":""54f8d589-66fc-4c65-830f-1dcc63bce8cc""}","https://test12345.live/?participantId=8D9CB9BE66E5474F950FB9ECFF19DF30&assignmentId=4050e3d5-59d2-450c-a665-877d16167317&projectId=54f8d589-66fc-4c65-830f-1dcc63bce8cc","","null","<div style=""display: flex; justify-content: center; align-items: center;"">
                    <img src=""images/causal/causal_series_14/causal_series_14_b.jpg"" style=""width: 300px; height: 300px;"" />
                  </div>","null","",""
"","","","","","html-keyboard-response","50","334671","0.0-36.0-2.0","8D9CB9BE66E5474F950FB9ECFF19DF30","8D9CB9BE66E5474F950FB9ECFF19DF30","4050e3d5-59d2-450c-a665-877d16167317","54f8d589-66fc-4c65-830f-1dcc63bce8cc","{""participantId"":""8D9CB9BE66E5474F950FB9ECFF19DF30"",""assignmentId"":""4050e3d5-59d2-450c-a665-877d16167317"",""projectId"":""54f8d589-66fc-4c65-830f-1dcc63bce8cc""}","https://test12345.live/?participantId=8D9CB9BE66E5474F950FB9ECFF19DF30&assignmentId=4050e3d5-59d2-450c-a665-877d16167317&projectId=54f8d589-66fc-4c65-830f-1dcc63bce8cc","","null","<div style=""display: flex; justify-content: center; align-items: center;"">
                    <img src=""images/causal/causal_series_14/causal_series_14_c.jpg"" style=""width: 300px; height: 300px;"" />
                  </div>","null","",""
"","","","","","html-keyboard-response","51","337672","0.0-36.0-3.0","8D9CB9BE66E5474F950FB9ECFF19DF30","8D9CB9BE66E5474F950FB9ECFF19DF30","4050e3d5-59d2-450c-a665-877d16167317","54f8d589-66fc-4c65-830f-1dcc63bce8cc","{""participantId"":""8D9CB9BE66E5474F950FB9ECFF19DF30"",""assignmentId"":""4050e3d5-59d2-450c-a665-877d16167317"",""projectId"":""54f8d589-66fc-4c65-830f-1dcc63bce8cc""}","https://test12345.live/?participantId=8D9CB9BE66E5474F950FB9ECFF19DF30&assignmentId=4050e3d5-59d2-450c-a665-877d16167317&projectId=54f8d589-66fc-4c65-830f-1dcc63bce8cc","","null","<div style=""display: flex; justify-content: center; align-items: center;"">
                    <img src=""images/causal/causal_series_14/causal_series_14_d.jpg"" style=""width: 300px; height: 300px;"" />
                  </div>","null","",""
"","","","","","html-button-response","52","339467","0.0-38.0","8D9CB9BE66E5474F950FB9ECFF19DF30","8D9CB9BE66E5474F950FB9ECFF19DF30","4050e3d5-59d2-450c-a665-877d16167317","54f8d589-66fc-4c65-830f-1dcc63bce8cc","{""participantId"":""8D9CB9BE66E5474F950FB9ECFF19DF30"",""assignmentId"":""4050e3d5-59d2-450c-a665-877d16167317"",""projectId"":""54f8d589-66fc-4c65-830f-1dcc63bce8cc""}","https://test12345.live/?participantId=8D9CB9BE66E5474F950FB9ECFF19DF30&assignmentId=4050e3d5-59d2-450c-a665-877d16167317&projectId=54f8d589-66fc-4c65-830f-1dcc63bce8cc","","1794","Was there a person in the picture?","0","",""
"","","","","","survey-likert","53","341531","0.0-39.0","8D9CB9BE66E5474F950FB9ECFF19DF30","8D9CB9BE66E5474F950FB9ECFF19DF30","4050e3d5-59d2-450c-a665-877d16167317","54f8d589-66fc-4c65-830f-1dcc63bce8cc","{""participantId"":""8D9CB9BE66E5474F950FB9ECFF19DF30"",""assignmentId"":""4050e3d5-59d2-450c-a665-877d16167317"",""projectId"":""54f8d589-66fc-4c65-830f-1dcc63bce8cc""}","https://test12345.live/?participantId=8D9CB9BE66E5474F950FB9ECFF19DF30&assignmentId=4050e3d5-59d2-450c-a665-877d16167317&projectId=54f8d589-66fc-4c65-830f-1dcc63bce8cc","","2064","","{""Q0"":3}","","[0]"
"","","","","","html-button-response","54","342587","0.0-40.0","8D9CB9BE66E5474F950FB9ECFF19DF30","8D9CB9BE66E5474F950FB9ECFF19DF30","4050e3d5-59d2-450c-a665-877d16167317","54f8d589-66fc-4c65-830f-1dcc63bce8cc","{""participantId"":""8D9CB9BE66E5474F950FB9ECFF19DF30"",""assignmentId"":""4050e3d5-59d2-450c-a665-877d16167317"",""projectId"":""54f8d589-66fc-4c65-830f-1dcc63bce8cc""}","https://test12345.live/?participantId=8D9CB9BE66E5474F950FB9ECFF19DF30&assignmentId=4050e3d5-59d2-450c-a665-877d16167317&projectId=54f8d589-66fc-4c65-830f-1dcc63bce8cc","","1054","
    <div style=""display: flex; justify-content: center; align-items: center;"">
      <img src=""images/red_deck_2.png"" style=""width: 300px; height: 300px; margin-right: 10px;"" />
      <img src=""images/blue_deck_1.png"" style=""width: 300px; height: 300px;"" />
    </div>","1","1",""
"","","","","","html-keyboard-response","55","345588","0.0-42.0-0.0","8D9CB9BE66E5474F950FB9ECFF19DF30","8D9CB9BE66E5474F950FB9ECFF19DF30","4050e3d5-59d2-450c-a665-877d16167317","54f8d589-66fc-4c65-830f-1dcc63bce8cc","{""participantId"":""8D9CB9BE66E5474F950FB9ECFF19DF30"",""assignmentId"":""4050e3d5-59d2-450c-a665-877d16167317"",""projectId"":""54f8d589-66fc-4c65-830f-1dcc63bce8cc""}","https://test12345.live/?participantId=8D9CB9BE66E5474F950FB9ECFF19DF30&assignmentId=4050e3d5-59d2-450c-a665-877d16167317&projectId=54f8d589-66fc-4c65-830f-1dcc63bce8cc","","null","<div style=""display: flex; justify-content: center; align-items: center;"">
                    <img src=""images/semantic/semantic_series_1/semantic_series_1_a.jpg"" style=""width: 300px; height: 300px;"" />
                  </div>","null","",""
"","","","","","html-keyboard-response","56","348589","0.0-42.0-1.0","8D9CB9BE66E5474F950FB9ECFF19DF30","8D9CB9BE66E5474F950FB9ECFF19DF30","4050e3d5-59d2-450c-a665-877d16167317","54f8d589-66fc-4c65-830f-1dcc63bce8cc","{""participantId"":""8D9CB9BE66E5474F950FB9ECFF19DF30"",""assignmentId"":""4050e3d5-59d2-450c-a665-877d16167317"",""projectId"":""54f8d589-66fc-4c65-830f-1dcc63bce8cc""}","https://test12345.live/?participantId=8D9CB9BE66E5474F950FB9ECFF19DF30&assignmentId=4050e3d5-59d2-450c-a665-877d16167317&projectId=54f8d589-66fc-4c65-830f-1dcc63bce8cc","","null","<div style=""display: flex; justify-content: center; align-items: center;"">
                    <img src=""images/semantic/semantic_series_1/semantic_series_1_b.jpg"" style=""width: 300px; height: 300px;"" />
                  </div>","null","",""
"","","","","","html-keyboard-response","57","351590","0.0-42.0-2.0","8D9CB9BE66E5474F950FB9ECFF19DF30","8D9CB9BE66E5474F950FB9ECFF19DF30","4050e3d5-59d2-450c-a665-877d16167317","54f8d589-66fc-4c65-830f-1dcc63bce8cc","{""participantId"":""8D9CB9BE66E5474F950FB9ECFF19DF30"",""assignmentId"":""4050e3d5-59d2-450c-a665-877d16167317"",""projectId"":""54f8d589-66fc-4c65-830f-1dcc63bce8cc""}","https://test12345.live/?participantId=8D9CB9BE66E5474F950FB9ECFF19DF30&assignmentId=4050e3d5-59d2-450c-a665-877d16167317&projectId=54f8d589-66fc-4c65-830f-1dcc63bce8cc","","null","<div style=""display: flex; justify-content: center; align-items: center;"">
                    <img src=""images/semantic/semantic_series_1/semantic_series_1_c.jpg"" style=""width: 300px; height: 300px;"" />
                  </div>","null","",""
"","","","","","html-keyboard-response","58","354591","0.0-42.0-3.0","8D9CB9BE66E5474F950FB9ECFF19DF30","8D9CB9BE66E5474F950FB9ECFF19DF30","4050e3d5-59d2-450c-a665-877d16167317","54f8d589-66fc-4c65-830f-1dcc63bce8cc","{""participantId"":""8D9CB9BE66E5474F950FB9ECFF19DF30"",""assignmentId"":""4050e3d5-59d2-450c-a665-877d16167317"",""projectId"":""54f8d589-66fc-4c65-830f-1dcc63bce8cc""}","https://test12345.live/?participantId=8D9CB9BE66E5474F950FB9ECFF19DF30&assignmentId=4050e3d5-59d2-450c-a665-877d16167317&projectId=54f8d589-66fc-4c65-830f-1dcc63bce8cc","","null","<div style=""display: flex; justify-content: center; align-items: center;"">
                    <img src=""images/semantic/semantic_series_1/semantic_series_1_d.jpg"" style=""width: 300px; height: 300px;"" />
                  </div>","null","",""
"","","","","","html-button-response","59","356282","0.0-43.0","8D9CB9BE66E5474F950FB9ECFF19DF30","8D9CB9BE66E5474F950FB9ECFF19DF30","4050e3d5-59d2-450c-a665-877d16167317","54f8d589-66fc-4c65-830f-1dcc63bce8cc","{""participantId"":""8D9CB9BE66E5474F950FB9ECFF19DF30"",""assignmentId"":""4050e3d5-59d2-450c-a665-877d16167317"",""projectId"":""54f8d589-66fc-4c65-830f-1dcc63bce8cc""}","https://test12345.live/?participantId=8D9CB9BE66E5474F950FB9ECFF19DF30&assignmentId=4050e3d5-59d2-450c-a665-877d16167317&projectId=54f8d589-66fc-4c65-830f-1dcc63bce8cc","","1690","Was there a person in the picture?","0","",""
"","","","","","survey-likert","60","358026","0.0-44.0","8D9CB9BE66E5474F950FB9ECFF19DF30","8D9CB9BE66E5474F950FB9ECFF19DF30","4050e3d5-59d2-450c-a665-877d16167317","54f8d589-66fc-4c65-830f-1dcc63bce8cc","{""participantId"":""8D9CB9BE66E5474F950FB9ECFF19DF30"",""assignmentId"":""4050e3d5-59d2-450c-a665-877d16167317"",""projectId"":""54f8d589-66fc-4c65-830f-1dcc63bce8cc""}","https://test12345.live/?participantId=8D9CB9BE66E5474F950FB9ECFF19DF30&assignmentId=4050e3d5-59d2-450c-a665-877d16167317&projectId=54f8d589-66fc-4c65-830f-1dcc63bce8cc","","1743","","{""Q0"":2}","","[0]"
"","","","","","html-button-response","61","359370","0.0-45.0","8D9CB9BE66E5474F950FB9ECFF19DF30","8D9CB9BE66E5474F950FB9ECFF19DF30","4050e3d5-59d2-450c-a665-877d16167317","54f8d589-66fc-4c65-830f-1dcc63bce8cc","{""participantId"":""8D9CB9BE66E5474F950FB9ECFF19DF30"",""assignmentId"":""4050e3d5-59d2-450c-a665-877d16167317"",""projectId"":""54f8d589-66fc-4c65-830f-1dcc63bce8cc""}","https://test12345.live/?participantId=8D9CB9BE66E5474F950FB9ECFF19DF30&assignmentId=4050e3d5-59d2-450c-a665-877d16167317&projectId=54f8d589-66fc-4c65-830f-1dcc63bce8cc","","1343","
    <div style=""display: flex; justify-content: center; align-items: center;"">
      <img src=""images/red_deck_2.png"" style=""width: 300px; height: 300px; margin-right: 10px;"" />
      <img src=""images/blue_deck_1.png"" style=""width: 300px; height: 300px;"" />
    </div>","0","0",""
"","","","","","html-keyboard-response","62","362371","0.0-46.0-0.0","8D9CB9BE66E5474F950FB9ECFF19DF30","8D9CB9BE66E5474F950FB9ECFF19DF30","4050e3d5-59d2-450c-a665-877d16167317","54f8d589-66fc-4c65-830f-1dcc63bce8cc","{""participantId"":""8D9CB9BE66E5474F950FB9ECFF19DF30"",""assignmentId"":""4050e3d5-59d2-450c-a665-877d16167317"",""projectId"":""54f8d589-66fc-4c65-830f-1dcc63bce8cc""}","https://test12345.live/?participantId=8D9CB9BE66E5474F950FB9ECFF19DF30&assignmentId=4050e3d5-59d2-450c-a665-877d16167317&projectId=54f8d589-66fc-4c65-830f-1dcc63bce8cc","","null","<div style=""display: flex; justify-content: center; align-items: center;"">
                    <img src=""images/causal/causal_series_10/causal_series_10_a.jpg"" style=""width: 300px; height: 300px;"" />
                  </div>","null","",""
"","","","","","html-keyboard-response","63","365372","0.0-46.0-1.0","8D9CB9BE66E5474F950FB9ECFF19DF30","8D9CB9BE66E5474F950FB9ECFF19DF30","4050e3d5-59d2-450c-a665-877d16167317","54f8d589-66fc-4c65-830f-1dcc63bce8cc","{""participantId"":""8D9CB9BE66E5474F950FB9ECFF19DF30"",""assignmentId"":""4050e3d5-59d2-450c-a665-877d16167317"",""projectId"":""54f8d589-66fc-4c65-830f-1dcc63bce8cc""}","https://test12345.live/?participantId=8D9CB9BE66E5474F950FB9ECFF19DF30&assignmentId=4050e3d5-59d2-450c-a665-877d16167317&projectId=54f8d589-66fc-4c65-830f-1dcc63bce8cc","","null","<div style=""display: flex; justify-content: center; align-items: center;"">
                    <img src=""images/causal/causal_series_10/causal_series_10_b.jpg"" style=""width: 300px; height: 300px;"" />
                  </div>","null","",""
"","","","","","html-keyboard-response","64","368373","0.0-46.0-2.0","8D9CB9BE66E5474F950FB9ECFF19DF30","8D9CB9BE66E5474F950FB9ECFF19DF30","4050e3d5-59d2-450c-a665-877d16167317","54f8d589-66fc-4c65-830f-1dcc63bce8cc","{""participantId"":""8D9CB9BE66E5474F950FB9ECFF19DF30"",""assignmentId"":""4050e3d5-59d2-450c-a665-877d16167317"",""projectId"":""54f8d589-66fc-4c65-830f-1dcc63bce8cc""}","https://test12345.live/?participantId=8D9CB9BE66E5474F950FB9ECFF19DF30&assignmentId=4050e3d5-59d2-450c-a665-877d16167317&projectId=54f8d589-66fc-4c65-830f-1dcc63bce8cc","","null","<div style=""display: flex; justify-content: center; align-items: center;"">
                    <img src=""images/causal/causal_series_10/causal_series_10_c.jpg"" style=""width: 300px; height: 300px;"" />
                  </div>","null","",""
"","","","","","html-keyboard-response","65","371374","0.0-46.0-3.0","8D9CB9BE66E5474F950FB9ECFF19DF30","8D9CB9BE66E5474F950FB9ECFF19DF30","4050e3d5-59d2-450c-a665-877d16167317","54f8d589-66fc-4c65-830f-1dcc63bce8cc","{""participantId"":""8D9CB9BE66E5474F950FB9ECFF19DF30"",""assignmentId"":""4050e3d5-59d2-450c-a665-877d16167317"",""projectId"":""54f8d589-66fc-4c65-830f-1dcc63bce8cc""}","https://test12345.live/?participantId=8D9CB9BE66E5474F950FB9ECFF19DF30&assignmentId=4050e3d5-59d2-450c-a665-877d16167317&projectId=54f8d589-66fc-4c65-830f-1dcc63bce8cc","","null","<div style=""display: flex; justify-content: center; align-items: center;"">
                    <img src=""images/causal/causal_series_10/causal_series_10_d.jpg"" style=""width: 300px; height: 300px;"" />
                  </div>","null","",""
"","","","","","html-button-response","66","373302","0.0-48.0","8D9CB9BE66E5474F950FB9ECFF19DF30","8D9CB9BE66E5474F950FB9ECFF19DF30","4050e3d5-59d2-450c-a665-877d16167317","54f8d589-66fc-4c65-830f-1dcc63bce8cc","{""participantId"":""8D9CB9BE66E5474F950FB9ECFF19DF30"",""assignmentId"":""4050e3d5-59d2-450c-a665-877d16167317"",""projectId"":""54f8d589-66fc-4c65-830f-1dcc63bce8cc""}","https://test12345.live/?participantId=8D9CB9BE66E5474F950FB9ECFF19DF30&assignmentId=4050e3d5-59d2-450c-a665-877d16167317&projectId=54f8d589-66fc-4c65-830f-1dcc63bce8cc","","1922","Was there a person in the picture?","1","",""
"","","","","","survey-likert","67","378390","0.0-49.0","8D9CB9BE66E5474F950FB9ECFF19DF30","8D9CB9BE66E5474F950FB9ECFF19DF30","4050e3d5-59d2-450c-a665-877d16167317","54f8d589-66fc-4c65-830f-1dcc63bce8cc","{""participantId"":""8D9CB9BE66E5474F950FB9ECFF19DF30"",""assignmentId"":""4050e3d5-59d2-450c-a665-877d16167317"",""projectId"":""54f8d589-66fc-4c65-830f-1dcc63bce8cc""}","https://test12345.live/?participantId=8D9CB9BE66E5474F950FB9ECFF19DF30&assignmentId=4050e3d5-59d2-450c-a665-877d16167317&projectId=54f8d589-66fc-4c65-830f-1dcc63bce8cc","","5087","","{""Q0"":2}","","[0]"
"","","","","","html-button-response","68","409061","0.0-50.0","8D9CB9BE66E5474F950FB9ECFF19DF30","8D9CB9BE66E5474F950FB9ECFF19DF30","4050e3d5-59d2-450c-a665-877d16167317","54f8d589-66fc-4c65-830f-1dcc63bce8cc","{""participantId"":""8D9CB9BE66E5474F950FB9ECFF19DF30"",""assignmentId"":""4050e3d5-59d2-450c-a665-877d16167317"",""projectId"":""54f8d589-66fc-4c65-830f-1dcc63bce8cc""}","https://test12345.live/?participantId=8D9CB9BE66E5474F950FB9ECFF19DF30&assignmentId=4050e3d5-59d2-450c-a665-877d16167317&projectId=54f8d589-66fc-4c65-830f-1dcc63bce8cc","","30669","
    <div style=""display: flex; justify-content: center; align-items: center;"">
      <img src=""images/red_deck_2.png"" style=""width: 300px; height: 300px; margin-right: 10px;"" />
      <img src=""images/blue_deck_1.png"" style=""width: 300px; height: 300px;"" />
    </div>","1","1",""
"","","","","","html-keyboard-response","69","412062","0.0-52.0-0.0","8D9CB9BE66E5474F950FB9ECFF19DF30","8D9CB9BE66E5474F950FB9ECFF19DF30","4050e3d5-59d2-450c-a665-877d16167317","54f8d589-66fc-4c65-830f-1dcc63bce8cc","{""participantId"":""8D9CB9BE66E5474F950FB9ECFF19DF30"",""assignmentId"":""4050e3d5-59d2-450c-a665-877d16167317"",""projectId"":""54f8d589-66fc-4c65-830f-1dcc63bce8cc""}","https://test12345.live/?participantId=8D9CB9BE66E5474F950FB9ECFF19DF30&assignmentId=4050e3d5-59d2-450c-a665-877d16167317&projectId=54f8d589-66fc-4c65-830f-1dcc63bce8cc","","null","<div style=""display: flex; justify-content: center; align-items: center;"">
                    <img src=""images/semantic/semantic_series_17/semantic_series_17_a.jpg"" style=""width: 300px; height: 300px;"" />
                  </div>","null","",""
"","","","","","html-keyboard-response","70","415063","0.0-52.0-1.0","8D9CB9BE66E5474F950FB9ECFF19DF30","8D9CB9BE66E5474F950FB9ECFF19DF30","4050e3d5-59d2-450c-a665-877d16167317","54f8d589-66fc-4c65-830f-1dcc63bce8cc","{""participantId"":""8D9CB9BE66E5474F950FB9ECFF19DF30"",""assignmentId"":""4050e3d5-59d2-450c-a665-877d16167317"",""projectId"":""54f8d589-66fc-4c65-830f-1dcc63bce8cc""}","https://test12345.live/?participantId=8D9CB9BE66E5474F950FB9ECFF19DF30&assignmentId=4050e3d5-59d2-450c-a665-877d16167317&projectId=54f8d589-66fc-4c65-830f-1dcc63bce8cc","","null","<div style=""display: flex; justify-content: center; align-items: center;"">
                    <img src=""images/semantic/semantic_series_17/semantic_series_17_b.jpg"" style=""width: 300px; height: 300px;"" />
                  </div>","null","",""
"","","","","","html-keyboard-response","71","418064","0.0-52.0-2.0","8D9CB9BE66E5474F950FB9ECFF19DF30","8D9CB9BE66E5474F950FB9ECFF19DF30","4050e3d5-59d2-450c-a665-877d16167317","54f8d589-66fc-4c65-830f-1dcc63bce8cc","{""participantId"":""8D9CB9BE66E5474F950FB9ECFF19DF30"",""assignmentId"":""4050e3d5-59d2-450c-a665-877d16167317"",""projectId"":""54f8d589-66fc-4c65-830f-1dcc63bce8cc""}","https://test12345.live/?participantId=8D9CB9BE66E5474F950FB9ECFF19DF30&assignmentId=4050e3d5-59d2-450c-a665-877d16167317&projectId=54f8d589-66fc-4c65-830f-1dcc63bce8cc","","null","<div style=""display: flex; justify-content: center; align-items: center;"">
                    <img src=""images/semantic/semantic_series_17/semantic_series_17_c.jpg"" style=""width: 300px; height: 300px;"" />
                  </div>","null","",""
"","","","","","html-keyboard-response","72","421065","0.0-52.0-3.0","8D9CB9BE66E5474F950FB9ECFF19DF30","8D9CB9BE66E5474F950FB9ECFF19DF30","4050e3d5-59d2-450c-a665-877d16167317","54f8d589-66fc-4c65-830f-1dcc63bce8cc","{""participantId"":""8D9CB9BE66E5474F950FB9ECFF19DF30"",""assignmentId"":""4050e3d5-59d2-450c-a665-877d16167317"",""projectId"":""54f8d589-66fc-4c65-830f-1dcc63bce8cc""}","https://test12345.live/?participantId=8D9CB9BE66E5474F950FB9ECFF19DF30&assignmentId=4050e3d5-59d2-450c-a665-877d16167317&projectId=54f8d589-66fc-4c65-830f-1dcc63bce8cc","","null","<div style=""display: flex; justify-content: center; align-items: center;"">
                    <img src=""images/semantic/semantic_series_17/semantic_series_17_d.jpg"" style=""width: 300px; height: 300px;"" />
                  </div>","null","",""
"","","","","","html-button-response","73","423563","0.0-53.0","8D9CB9BE66E5474F950FB9ECFF19DF30","8D9CB9BE66E5474F950FB9ECFF19DF30","4050e3d5-59d2-450c-a665-877d16167317","54f8d589-66fc-4c65-830f-1dcc63bce8cc","{""participantId"":""8D9CB9BE66E5474F950FB9ECFF19DF30"",""assignmentId"":""4050e3d5-59d2-450c-a665-877d16167317"",""projectId"":""54f8d589-66fc-4c65-830f-1dcc63bce8cc""}","https://test12345.live/?participantId=8D9CB9BE66E5474F950FB9ECFF19DF30&assignmentId=4050e3d5-59d2-450c-a665-877d16167317&projectId=54f8d589-66fc-4c65-830f-1dcc63bce8cc","","2498","Was there a person in the picture?","0","",""
"","","","","","survey-likert","74","427956","0.0-54.0","8D9CB9BE66E5474F950FB9ECFF19DF30","8D9CB9BE66E5474F950FB9ECFF19DF30","4050e3d5-59d2-450c-a665-877d16167317","54f8d589-66fc-4c65-830f-1dcc63bce8cc","{""participantId"":""8D9CB9BE66E5474F950FB9ECFF19DF30"",""assignmentId"":""4050e3d5-59d2-450c-a665-877d16167317"",""projectId"":""54f8d589-66fc-4c65-830f-1dcc63bce8cc""}","https://test12345.live/?participantId=8D9CB9BE66E5474F950FB9ECFF19DF30&assignmentId=4050e3d5-59d2-450c-a665-877d16167317&projectId=54f8d589-66fc-4c65-830f-1dcc63bce8cc","","4391","","{""Q0"":3}","","[0]"
"","","","","","html-button-response","75","429043","0.0-55.0","8D9CB9BE66E5474F950FB9ECFF19DF30","8D9CB9BE66E5474F950FB9ECFF19DF30","4050e3d5-59d2-450c-a665-877d16167317","54f8d589-66fc-4c65-830f-1dcc63bce8cc","{""participantId"":""8D9CB9BE66E5474F950FB9ECFF19DF30"",""assignmentId"":""4050e3d5-59d2-450c-a665-877d16167317"",""projectId"":""54f8d589-66fc-4c65-830f-1dcc63bce8cc""}","https://test12345.live/?participantId=8D9CB9BE66E5474F950FB9ECFF19DF30&assignmentId=4050e3d5-59d2-450c-a665-877d16167317&projectId=54f8d589-66fc-4c65-830f-1dcc63bce8cc","","1086","
    <div style=""display: flex; justify-content: center; align-items: center;"">
      <img src=""images/red_deck_2.png"" style=""width: 300px; height: 300px; margin-right: 10px;"" />
      <img src=""images/blue_deck_1.png"" style=""width: 300px; height: 300px;"" />
    </div>","0","0",""
"","","","","","html-keyboard-response","76","432045","0.0-56.0-0.0","8D9CB9BE66E5474F950FB9ECFF19DF30","8D9CB9BE66E5474F950FB9ECFF19DF30","4050e3d5-59d2-450c-a665-877d16167317","54f8d589-66fc-4c65-830f-1dcc63bce8cc","{""participantId"":""8D9CB9BE66E5474F950FB9ECFF19DF30"",""assignmentId"":""4050e3d5-59d2-450c-a665-877d16167317"",""projectId"":""54f8d589-66fc-4c65-830f-1dcc63bce8cc""}","https://test12345.live/?participantId=8D9CB9BE66E5474F950FB9ECFF19DF30&assignmentId=4050e3d5-59d2-450c-a665-877d16167317&projectId=54f8d589-66fc-4c65-830f-1dcc63bce8cc","","null","<div style=""display: flex; justify-content: center; align-items: center;"">
                    <img src=""images/causal/causal_series_1/causal_series_1_a.jpg"" style=""width: 300px; height: 300px;"" />
                  </div>","null","",""
"","","","","","html-keyboard-response","77","435052","0.0-56.0-1.0","8D9CB9BE66E5474F950FB9ECFF19DF30","8D9CB9BE66E5474F950FB9ECFF19DF30","4050e3d5-59d2-450c-a665-877d16167317","54f8d589-66fc-4c65-830f-1dcc63bce8cc","{""participantId"":""8D9CB9BE66E5474F950FB9ECFF19DF30"",""assignmentId"":""4050e3d5-59d2-450c-a665-877d16167317"",""projectId"":""54f8d589-66fc-4c65-830f-1dcc63bce8cc""}","https://test12345.live/?participantId=8D9CB9BE66E5474F950FB9ECFF19DF30&assignmentId=4050e3d5-59d2-450c-a665-877d16167317&projectId=54f8d589-66fc-4c65-830f-1dcc63bce8cc","","null","<div style=""display: flex; justify-content: center; align-items: center;"">
                    <img src=""images/causal/causal_series_1/causal_series_1_b.jpg"" style=""width: 300px; height: 300px;"" />
                  </div>","null","",""
"","","","","","html-keyboard-response","78","438053","0.0-56.0-2.0","8D9CB9BE66E5474F950FB9ECFF19DF30","8D9CB9BE66E5474F950FB9ECFF19DF30","4050e3d5-59d2-450c-a665-877d16167317","54f8d589-66fc-4c65-830f-1dcc63bce8cc","{""participantId"":""8D9CB9BE66E5474F950FB9ECFF19DF30"",""assignmentId"":""4050e3d5-59d2-450c-a665-877d16167317"",""projectId"":""54f8d589-66fc-4c65-830f-1dcc63bce8cc""}","https://test12345.live/?participantId=8D9CB9BE66E5474F950FB9ECFF19DF30&assignmentId=4050e3d5-59d2-450c-a665-877d16167317&projectId=54f8d589-66fc-4c65-830f-1dcc63bce8cc","","null","<div style=""display: flex; justify-content: center; align-items: center;"">
                    <img src=""images/causal/causal_series_1/causal_series_1_c.jpg"" style=""width: 300px; height: 300px;"" />
                  </div>","null","",""
"","","","","","html-keyboard-response","79","441054","0.0-56.0-3.0","8D9CB9BE66E5474F950FB9ECFF19DF30","8D9CB9BE66E5474F950FB9ECFF19DF30","4050e3d5-59d2-450c-a665-877d16167317","54f8d589-66fc-4c65-830f-1dcc63bce8cc","{""participantId"":""8D9CB9BE66E5474F950FB9ECFF19DF30"",""assignmentId"":""4050e3d5-59d2-450c-a665-877d16167317"",""projectId"":""54f8d589-66fc-4c65-830f-1dcc63bce8cc""}","https://test12345.live/?participantId=8D9CB9BE66E5474F950FB9ECFF19DF30&assignmentId=4050e3d5-59d2-450c-a665-877d16167317&projectId=54f8d589-66fc-4c65-830f-1dcc63bce8cc","","null","<div style=""display: flex; justify-content: center; align-items: center;"">
                    <img src=""images/causal/causal_series_1/causal_series_1_d.jpg"" style=""width: 300px; height: 300px;"" />
                  </div>","null","",""
"","","","","","html-button-response","80","444808","0.0-58.0","8D9CB9BE66E5474F950FB9ECFF19DF30","8D9CB9BE66E5474F950FB9ECFF19DF30","4050e3d5-59d2-450c-a665-877d16167317","54f8d589-66fc-4c65-830f-1dcc63bce8cc","{""participantId"":""8D9CB9BE66E5474F950FB9ECFF19DF30"",""assignmentId"":""4050e3d5-59d2-450c-a665-877d16167317"",""projectId"":""54f8d589-66fc-4c65-830f-1dcc63bce8cc""}","https://test12345.live/?participantId=8D9CB9BE66E5474F950FB9ECFF19DF30&assignmentId=4050e3d5-59d2-450c-a665-877d16167317&projectId=54f8d589-66fc-4c65-830f-1dcc63bce8cc","","3753","Was there a person in the picture?","0","",""
"","","","","","survey-likert","81","447696","0.0-59.0","8D9CB9BE66E5474F950FB9ECFF19DF30","8D9CB9BE66E5474F950FB9ECFF19DF30","4050e3d5-59d2-450c-a665-877d16167317","54f8d589-66fc-4c65-830f-1dcc63bce8cc","{""participantId"":""8D9CB9BE66E5474F950FB9ECFF19DF30"",""assignmentId"":""4050e3d5-59d2-450c-a665-877d16167317"",""projectId"":""54f8d589-66fc-4c65-830f-1dcc63bce8cc""}","https://test12345.live/?participantId=8D9CB9BE66E5474F950FB9ECFF19DF30&assignmentId=4050e3d5-59d2-450c-a665-877d16167317&projectId=54f8d589-66fc-4c65-830f-1dcc63bce8cc","","2887","","{""Q0"":2}","","[0]"
"","","","","","html-button-response","82","448528","0.0-60.0","8D9CB9BE66E5474F950FB9ECFF19DF30","8D9CB9BE66E5474F950FB9ECFF19DF30","4050e3d5-59d2-450c-a665-877d16167317","54f8d589-66fc-4c65-830f-1dcc63bce8cc","{""participantId"":""8D9CB9BE66E5474F950FB9ECFF19DF30"",""assignmentId"":""4050e3d5-59d2-450c-a665-877d16167317"",""projectId"":""54f8d589-66fc-4c65-830f-1dcc63bce8cc""}","https://test12345.live/?participantId=8D9CB9BE66E5474F950FB9ECFF19DF30&assignmentId=4050e3d5-59d2-450c-a665-877d16167317&projectId=54f8d589-66fc-4c65-830f-1dcc63bce8cc","","830","
    <div style=""display: flex; justify-content: center; align-items: center;"">
      <img src=""images/red_deck_2.png"" style=""width: 300px; height: 300px; margin-right: 10px;"" />
      <img src=""images/blue_deck_1.png"" style=""width: 300px; height: 300px;"" />
    </div>","1","1",""
"","","","","","html-keyboard-response","83","451529","0.0-62.0-0.0","8D9CB9BE66E5474F950FB9ECFF19DF30","8D9CB9BE66E5474F950FB9ECFF19DF30","4050e3d5-59d2-450c-a665-877d16167317","54f8d589-66fc-4c65-830f-1dcc63bce8cc","{""participantId"":""8D9CB9BE66E5474F950FB9ECFF19DF30"",""assignmentId"":""4050e3d5-59d2-450c-a665-877d16167317"",""projectId"":""54f8d589-66fc-4c65-830f-1dcc63bce8cc""}","https://test12345.live/?participantId=8D9CB9BE66E5474F950FB9ECFF19DF30&assignmentId=4050e3d5-59d2-450c-a665-877d16167317&projectId=54f8d589-66fc-4c65-830f-1dcc63bce8cc","","null","<div style=""display: flex; justify-content: center; align-items: center;"">
                    <img src=""images/semantic/semantic_series_8/semantic_series_8_a.jpg"" style=""width: 300px; height: 300px;"" />
                  </div>","null","",""
"","","","","","html-keyboard-response","84","454530","0.0-62.0-1.0","8D9CB9BE66E5474F950FB9ECFF19DF30","8D9CB9BE66E5474F950FB9ECFF19DF30","4050e3d5-59d2-450c-a665-877d16167317","54f8d589-66fc-4c65-830f-1dcc63bce8cc","{""participantId"":""8D9CB9BE66E5474F950FB9ECFF19DF30"",""assignmentId"":""4050e3d5-59d2-450c-a665-877d16167317"",""projectId"":""54f8d589-66fc-4c65-830f-1dcc63bce8cc""}","https://test12345.live/?participantId=8D9CB9BE66E5474F950FB9ECFF19DF30&assignmentId=4050e3d5-59d2-450c-a665-877d16167317&projectId=54f8d589-66fc-4c65-830f-1dcc63bce8cc","","null","<div style=""display: flex; justify-content: center; align-items: center;"">
                    <img src=""images/semantic/semantic_series_8/semantic_series_8_b.jpg"" style=""width: 300px; height: 300px;"" />
                  </div>","null","",""
"","","","","","html-keyboard-response","85","457531","0.0-62.0-2.0","8D9CB9BE66E5474F950FB9ECFF19DF30","8D9CB9BE66E5474F950FB9ECFF19DF30","4050e3d5-59d2-450c-a665-877d16167317","54f8d589-66fc-4c65-830f-1dcc63bce8cc","{""participantId"":""8D9CB9BE66E5474F950FB9ECFF19DF30"",""assignmentId"":""4050e3d5-59d2-450c-a665-877d16167317"",""projectId"":""54f8d589-66fc-4c65-830f-1dcc63bce8cc""}","https://test12345.live/?participantId=8D9CB9BE66E5474F950FB9ECFF19DF30&assignmentId=4050e3d5-59d2-450c-a665-877d16167317&projectId=54f8d589-66fc-4c65-830f-1dcc63bce8cc","","null","<div style=""display: flex; justify-content: center; align-items: center;"">
                    <img src=""images/semantic/semantic_series_8/semantic_series_8_c.jpg"" style=""width: 300px; height: 300px;"" />
                  </div>","null","",""
"","","","","","html-keyboard-response","86","460532","0.0-62.0-3.0","8D9CB9BE66E5474F950FB9ECFF19DF30","8D9CB9BE66E5474F950FB9ECFF19DF30","4050e3d5-59d2-450c-a665-877d16167317","54f8d589-66fc-4c65-830f-1dcc63bce8cc","{""participantId"":""8D9CB9BE66E5474F950FB9ECFF19DF30"",""assignmentId"":""4050e3d5-59d2-450c-a665-877d16167317"",""projectId"":""54f8d589-66fc-4c65-830f-1dcc63bce8cc""}","https://test12345.live/?participantId=8D9CB9BE66E5474F950FB9ECFF19DF30&assignmentId=4050e3d5-59d2-450c-a665-877d16167317&projectId=54f8d589-66fc-4c65-830f-1dcc63bce8cc","","null","<div style=""display: flex; justify-content: center; align-items: center;"">
                    <img src=""images/semantic/semantic_series_8/semantic_series_8_d.jpg"" style=""width: 300px; height: 300px;"" />
                  </div>","null","",""
"","","","","","html-button-response","87","461823","0.0-63.0","8D9CB9BE66E5474F950FB9ECFF19DF30","8D9CB9BE66E5474F950FB9ECFF19DF30","4050e3d5-59d2-450c-a665-877d16167317","54f8d589-66fc-4c65-830f-1dcc63bce8cc","{""participantId"":""8D9CB9BE66E5474F950FB9ECFF19DF30"",""assignmentId"":""4050e3d5-59d2-450c-a665-877d16167317"",""projectId"":""54f8d589-66fc-4c65-830f-1dcc63bce8cc""}","https://test12345.live/?participantId=8D9CB9BE66E5474F950FB9ECFF19DF30&assignmentId=4050e3d5-59d2-450c-a665-877d16167317&projectId=54f8d589-66fc-4c65-830f-1dcc63bce8cc","","1290","Was there a person in the picture?","1","",""
"","","","","","survey-likert","88","464543","0.0-64.0","8D9CB9BE66E5474F950FB9ECFF19DF30","8D9CB9BE66E5474F950FB9ECFF19DF30","4050e3d5-59d2-450c-a665-877d16167317","54f8d589-66fc-4c65-830f-1dcc63bce8cc","{""participantId"":""8D9CB9BE66E5474F950FB9ECFF19DF30"",""assignmentId"":""4050e3d5-59d2-450c-a665-877d16167317"",""projectId"":""54f8d589-66fc-4c65-830f-1dcc63bce8cc""}","https://test12345.live/?participantId=8D9CB9BE66E5474F950FB9ECFF19DF30&assignmentId=4050e3d5-59d2-450c-a665-877d16167317&projectId=54f8d589-66fc-4c65-830f-1dcc63bce8cc","","2719","","{""Q0"":2}","","[0]"
"","","","","","html-button-response","89","465311","0.0-65.0","8D9CB9BE66E5474F950FB9ECFF19DF30","8D9CB9BE66E5474F950FB9ECFF19DF30","4050e3d5-59d2-450c-a665-877d16167317","54f8d589-66fc-4c65-830f-1dcc63bce8cc","{""participantId"":""8D9CB9BE66E5474F950FB9ECFF19DF30"",""assignmentId"":""4050e3d5-59d2-450c-a665-877d16167317"",""projectId"":""54f8d589-66fc-4c65-830f-1dcc63bce8cc""}","https://test12345.live/?participantId=8D9CB9BE66E5474F950FB9ECFF19DF30&assignmentId=4050e3d5-59d2-450c-a665-877d16167317&projectId=54f8d589-66fc-4c65-830f-1dcc63bce8cc","","766","
    <div style=""display: flex; justify-content: center; align-items: center;"">
      <img src=""images/red_deck_2.png"" style=""width: 300px; height: 300px; margin-right: 10px;"" />
      <img src=""images/blue_deck_1.png"" style=""width: 300px; height: 300px;"" />
    </div>","0","0",""
"","","","","","html-keyboard-response","90","468312","0.0-66.0-0.0","8D9CB9BE66E5474F950FB9ECFF19DF30","8D9CB9BE66E5474F950FB9ECFF19DF30","4050e3d5-59d2-450c-a665-877d16167317","54f8d589-66fc-4c65-830f-1dcc63bce8cc","{""participantId"":""8D9CB9BE66E5474F950FB9ECFF19DF30"",""assignmentId"":""4050e3d5-59d2-450c-a665-877d16167317"",""projectId"":""54f8d589-66fc-4c65-830f-1dcc63bce8cc""}","https://test12345.live/?participantId=8D9CB9BE66E5474F950FB9ECFF19DF30&assignmentId=4050e3d5-59d2-450c-a665-877d16167317&projectId=54f8d589-66fc-4c65-830f-1dcc63bce8cc","","null","<div style=""display: flex; justify-content: center; align-items: center;"">
                    <img src=""images/causal/causal_series_15/causal_series_15_a.jpg"" style=""width: 300px; height: 300px;"" />
                  </div>","null","",""
"","","","","","html-keyboard-response","91","471313","0.0-66.0-1.0","8D9CB9BE66E5474F950FB9ECFF19DF30","8D9CB9BE66E5474F950FB9ECFF19DF30","4050e3d5-59d2-450c-a665-877d16167317","54f8d589-66fc-4c65-830f-1dcc63bce8cc","{""participantId"":""8D9CB9BE66E5474F950FB9ECFF19DF30"",""assignmentId"":""4050e3d5-59d2-450c-a665-877d16167317"",""projectId"":""54f8d589-66fc-4c65-830f-1dcc63bce8cc""}","https://test12345.live/?participantId=8D9CB9BE66E5474F950FB9ECFF19DF30&assignmentId=4050e3d5-59d2-450c-a665-877d16167317&projectId=54f8d589-66fc-4c65-830f-1dcc63bce8cc","","null","<div style=""display: flex; justify-content: center; align-items: center;"">
                    <img src=""images/causal/causal_series_15/causal_series_15_b.jpg"" style=""width: 300px; height: 300px;"" />
                  </div>","null","",""
"","","","","","html-keyboard-response","92","474315","0.0-66.0-2.0","8D9CB9BE66E5474F950FB9ECFF19DF30","8D9CB9BE66E5474F950FB9ECFF19DF30","4050e3d5-59d2-450c-a665-877d16167317","54f8d589-66fc-4c65-830f-1dcc63bce8cc","{""participantId"":""8D9CB9BE66E5474F950FB9ECFF19DF30"",""assignmentId"":""4050e3d5-59d2-450c-a665-877d16167317"",""projectId"":""54f8d589-66fc-4c65-830f-1dcc63bce8cc""}","https://test12345.live/?participantId=8D9CB9BE66E5474F950FB9ECFF19DF30&assignmentId=4050e3d5-59d2-450c-a665-877d16167317&projectId=54f8d589-66fc-4c65-830f-1dcc63bce8cc","","null","<div style=""display: flex; justify-content: center; align-items: center;"">
                    <img src=""images/causal/causal_series_15/causal_series_15_c.jpg"" style=""width: 300px; height: 300px;"" />
                  </div>","null","",""
"","","","","","html-keyboard-response","93","477316","0.0-66.0-3.0","8D9CB9BE66E5474F950FB9ECFF19DF30","8D9CB9BE66E5474F950FB9ECFF19DF30","4050e3d5-59d2-450c-a665-877d16167317","54f8d589-66fc-4c65-830f-1dcc63bce8cc","{""participantId"":""8D9CB9BE66E5474F950FB9ECFF19DF30"",""assignmentId"":""4050e3d5-59d2-450c-a665-877d16167317"",""projectId"":""54f8d589-66fc-4c65-830f-1dcc63bce8cc""}","https://test12345.live/?participantId=8D9CB9BE66E5474F950FB9ECFF19DF30&assignmentId=4050e3d5-59d2-450c-a665-877d16167317&projectId=54f8d589-66fc-4c65-830f-1dcc63bce8cc","","null","<div style=""display: flex; justify-content: center; align-items: center;"">
                    <img src=""images/causal/causal_series_15/causal_series_15_d.jpg"" style=""width: 300px; height: 300px;"" />
                  </div>","null","",""
"","","","","","html-button-response","94","479454","0.0-68.0","8D9CB9BE66E5474F950FB9ECFF19DF30","8D9CB9BE66E5474F950FB9ECFF19DF30","4050e3d5-59d2-450c-a665-877d16167317","54f8d589-66fc-4c65-830f-1dcc63bce8cc","{""participantId"":""8D9CB9BE66E5474F950FB9ECFF19DF30"",""assignmentId"":""4050e3d5-59d2-450c-a665-877d16167317"",""projectId"":""54f8d589-66fc-4c65-830f-1dcc63bce8cc""}","https://test12345.live/?participantId=8D9CB9BE66E5474F950FB9ECFF19DF30&assignmentId=4050e3d5-59d2-450c-a665-877d16167317&projectId=54f8d589-66fc-4c65-830f-1dcc63bce8cc","","2138","Was there a person in the picture?","0","",""
"","","","","","survey-likert","95","482350","0.0-69.0","8D9CB9BE66E5474F950FB9ECFF19DF30","8D9CB9BE66E5474F950FB9ECFF19DF30","4050e3d5-59d2-450c-a665-877d16167317","54f8d589-66fc-4c65-830f-1dcc63bce8cc","{""participantId"":""8D9CB9BE66E5474F950FB9ECFF19DF30"",""assignmentId"":""4050e3d5-59d2-450c-a665-877d16167317"",""projectId"":""54f8d589-66fc-4c65-830f-1dcc63bce8cc""}","https://test12345.live/?participantId=8D9CB9BE66E5474F950FB9ECFF19DF30&assignmentId=4050e3d5-59d2-450c-a665-877d16167317&projectId=54f8d589-66fc-4c65-830f-1dcc63bce8cc","","2895","","{""Q0"":3}","","[0]"
"","","","","","html-button-response","96","483158","0.0-70.0","8D9CB9BE66E5474F950FB9ECFF19DF30","8D9CB9BE66E5474F950FB9ECFF19DF30","4050e3d5-59d2-450c-a665-877d16167317","54f8d589-66fc-4c65-830f-1dcc63bce8cc","{""participantId"":""8D9CB9BE66E5474F950FB9ECFF19DF30"",""assignmentId"":""4050e3d5-59d2-450c-a665-877d16167317"",""projectId"":""54f8d589-66fc-4c65-830f-1dcc63bce8cc""}","https://test12345.live/?participantId=8D9CB9BE66E5474F950FB9ECFF19DF30&assignmentId=4050e3d5-59d2-450c-a665-877d16167317&projectId=54f8d589-66fc-4c65-830f-1dcc63bce8cc","","807","
    <div style=""display: flex; justify-content: center; align-items: center;"">
      <img src=""images/red_deck_2.png"" style=""width: 300px; height: 300px; margin-right: 10px;"" />
      <img src=""images/blue_deck_1.png"" style=""width: 300px; height: 300px;"" />
    </div>","1","1",""
"","","","","","html-keyboard-response","97","486160","0.0-72.0-0.0","8D9CB9BE66E5474F950FB9ECFF19DF30","8D9CB9BE66E5474F950FB9ECFF19DF30","4050e3d5-59d2-450c-a665-877d16167317","54f8d589-66fc-4c65-830f-1dcc63bce8cc","{""participantId"":""8D9CB9BE66E5474F950FB9ECFF19DF30"",""assignmentId"":""4050e3d5-59d2-450c-a665-877d16167317"",""projectId"":""54f8d589-66fc-4c65-830f-1dcc63bce8cc""}","https://test12345.live/?participantId=8D9CB9BE66E5474F950FB9ECFF19DF30&assignmentId=4050e3d5-59d2-450c-a665-877d16167317&projectId=54f8d589-66fc-4c65-830f-1dcc63bce8cc","","null","<div style=""display: flex; justify-content: center; align-items: center;"">
                    <img src=""images/semantic/semantic_series_14/semantic_series_14_a.jpg"" style=""width: 300px; height: 300px;"" />
                  </div>","null","",""
"","","","","","html-keyboard-response","98","489161","0.0-72.0-1.0","8D9CB9BE66E5474F950FB9ECFF19DF30","8D9CB9BE66E5474F950FB9ECFF19DF30","4050e3d5-59d2-450c-a665-877d16167317","54f8d589-66fc-4c65-830f-1dcc63bce8cc","{""participantId"":""8D9CB9BE66E5474F950FB9ECFF19DF30"",""assignmentId"":""4050e3d5-59d2-450c-a665-877d16167317"",""projectId"":""54f8d589-66fc-4c65-830f-1dcc63bce8cc""}","https://test12345.live/?participantId=8D9CB9BE66E5474F950FB9ECFF19DF30&assignmentId=4050e3d5-59d2-450c-a665-877d16167317&projectId=54f8d589-66fc-4c65-830f-1dcc63bce8cc","","null","<div style=""display: flex; justify-content: center; align-items: center;"">
                    <img src=""images/semantic/semantic_series_14/semantic_series_14_b.jpg"" style=""width: 300px; height: 300px;"" />
                  </div>","null","",""
"","","","","","html-keyboard-response","99","492162","0.0-72.0-2.0","8D9CB9BE66E5474F950FB9ECFF19DF30","8D9CB9BE66E5474F950FB9ECFF19DF30","4050e3d5-59d2-450c-a665-877d16167317","54f8d589-66fc-4c65-830f-1dcc63bce8cc","{""participantId"":""8D9CB9BE66E5474F950FB9ECFF19DF30"",""assignmentId"":""4050e3d5-59d2-450c-a665-877d16167317"",""projectId"":""54f8d589-66fc-4c65-830f-1dcc63bce8cc""}","https://test12345.live/?participantId=8D9CB9BE66E5474F950FB9ECFF19DF30&assignmentId=4050e3d5-59d2-450c-a665-877d16167317&projectId=54f8d589-66fc-4c65-830f-1dcc63bce8cc","","null","<div style=""display: flex; justify-content: center; align-items: center;"">
                    <img src=""images/semantic/semantic_series_14/semantic_series_14_c.jpg"" style=""width: 300px; height: 300px;"" />
                  </div>","null","",""
"","","","","","html-keyboard-response","100","495168","0.0-72.0-3.0","8D9CB9BE66E5474F950FB9ECFF19DF30","8D9CB9BE66E5474F950FB9ECFF19DF30","4050e3d5-59d2-450c-a665-877d16167317","54f8d589-66fc-4c65-830f-1dcc63bce8cc","{""participantId"":""8D9CB9BE66E5474F950FB9ECFF19DF30"",""assignmentId"":""4050e3d5-59d2-450c-a665-877d16167317"",""projectId"":""54f8d589-66fc-4c65-830f-1dcc63bce8cc""}","https://test12345.live/?participantId=8D9CB9BE66E5474F950FB9ECFF19DF30&assignmentId=4050e3d5-59d2-450c-a665-877d16167317&projectId=54f8d589-66fc-4c65-830f-1dcc63bce8cc","","null","<div style=""display: flex; justify-content: center; align-items: center;"">
                    <img src=""images/semantic/semantic_series_14/semantic_series_14_d.jpg"" style=""width: 300px; height: 300px;"" />
                  </div>","null","",""
"","","","","","html-button-response","101","496419","0.0-73.0","8D9CB9BE66E5474F950FB9ECFF19DF30","8D9CB9BE66E5474F950FB9ECFF19DF30","4050e3d5-59d2-450c-a665-877d16167317","54f8d589-66fc-4c65-830f-1dcc63bce8cc","{""participantId"":""8D9CB9BE66E5474F950FB9ECFF19DF30"",""assignmentId"":""4050e3d5-59d2-450c-a665-877d16167317"",""projectId"":""54f8d589-66fc-4c65-830f-1dcc63bce8cc""}","https://test12345.live/?participantId=8D9CB9BE66E5474F950FB9ECFF19DF30&assignmentId=4050e3d5-59d2-450c-a665-877d16167317&projectId=54f8d589-66fc-4c65-830f-1dcc63bce8cc","","1250","Was there a person in the picture?","0","",""
"","","","","","survey-likert","102","499195","0.0-74.0","8D9CB9BE66E5474F950FB9ECFF19DF30","8D9CB9BE66E5474F950FB9ECFF19DF30","4050e3d5-59d2-450c-a665-877d16167317","54f8d589-66fc-4c65-830f-1dcc63bce8cc","{""participantId"":""8D9CB9BE66E5474F950FB9ECFF19DF30"",""assignmentId"":""4050e3d5-59d2-450c-a665-877d16167317"",""projectId"":""54f8d589-66fc-4c65-830f-1dcc63bce8cc""}","https://test12345.live/?participantId=8D9CB9BE66E5474F950FB9ECFF19DF30&assignmentId=4050e3d5-59d2-450c-a665-877d16167317&projectId=54f8d589-66fc-4c65-830f-1dcc63bce8cc","","2775","","{""Q0"":3}","","[0]"
"","","","","","html-button-response","103","500323","0.0-75.0","8D9CB9BE66E5474F950FB9ECFF19DF30","8D9CB9BE66E5474F950FB9ECFF19DF30","4050e3d5-59d2-450c-a665-877d16167317","54f8d589-66fc-4c65-830f-1dcc63bce8cc","{""participantId"":""8D9CB9BE66E5474F950FB9ECFF19DF30"",""assignmentId"":""4050e3d5-59d2-450c-a665-877d16167317"",""projectId"":""54f8d589-66fc-4c65-830f-1dcc63bce8cc""}","https://test12345.live/?participantId=8D9CB9BE66E5474F950FB9ECFF19DF30&assignmentId=4050e3d5-59d2-450c-a665-877d16167317&projectId=54f8d589-66fc-4c65-830f-1dcc63bce8cc","","1127","
    <div style=""display: flex; justify-content: center; align-items: center;"">
      <img src=""images/red_deck_2.png"" style=""width: 300px; height: 300px; margin-right: 10px;"" />
      <img src=""images/blue_deck_1.png"" style=""width: 300px; height: 300px;"" />
    </div>","1","1",""
"","","","","","html-keyboard-response","104","503324","0.0-77.0-0.0","8D9CB9BE66E5474F950FB9ECFF19DF30","8D9CB9BE66E5474F950FB9ECFF19DF30","4050e3d5-59d2-450c-a665-877d16167317","54f8d589-66fc-4c65-830f-1dcc63bce8cc","{""participantId"":""8D9CB9BE66E5474F950FB9ECFF19DF30"",""assignmentId"":""4050e3d5-59d2-450c-a665-877d16167317"",""projectId"":""54f8d589-66fc-4c65-830f-1dcc63bce8cc""}","https://test12345.live/?participantId=8D9CB9BE66E5474F950FB9ECFF19DF30&assignmentId=4050e3d5-59d2-450c-a665-877d16167317&projectId=54f8d589-66fc-4c65-830f-1dcc63bce8cc","","null","<div style=""display: flex; justify-content: center; align-items: center;"">
                    <img src=""images/semantic/semantic_series_10/semantic_series_10_a.jpg"" style=""width: 300px; height: 300px;"" />
                  </div>","null","",""
"","","","","","html-keyboard-response","105","506325","0.0-77.0-1.0","8D9CB9BE66E5474F950FB9ECFF19DF30","8D9CB9BE66E5474F950FB9ECFF19DF30","4050e3d5-59d2-450c-a665-877d16167317","54f8d589-66fc-4c65-830f-1dcc63bce8cc","{""participantId"":""8D9CB9BE66E5474F950FB9ECFF19DF30"",""assignmentId"":""4050e3d5-59d2-450c-a665-877d16167317"",""projectId"":""54f8d589-66fc-4c65-830f-1dcc63bce8cc""}","https://test12345.live/?participantId=8D9CB9BE66E5474F950FB9ECFF19DF30&assignmentId=4050e3d5-59d2-450c-a665-877d16167317&projectId=54f8d589-66fc-4c65-830f-1dcc63bce8cc","","null","<div style=""display: flex; justify-content: center; align-items: center;"">
                    <img src=""images/semantic/semantic_series_10/semantic_series_10_b.jpg"" style=""width: 300px; height: 300px;"" />
                  </div>","null","",""
"","","","","","html-keyboard-response","106","509326","0.0-77.0-2.0","8D9CB9BE66E5474F950FB9ECFF19DF30","8D9CB9BE66E5474F950FB9ECFF19DF30","4050e3d5-59d2-450c-a665-877d16167317","54f8d589-66fc-4c65-830f-1dcc63bce8cc","{""participantId"":""8D9CB9BE66E5474F950FB9ECFF19DF30"",""assignmentId"":""4050e3d5-59d2-450c-a665-877d16167317"",""projectId"":""54f8d589-66fc-4c65-830f-1dcc63bce8cc""}","https://test12345.live/?participantId=8D9CB9BE66E5474F950FB9ECFF19DF30&assignmentId=4050e3d5-59d2-450c-a665-877d16167317&projectId=54f8d589-66fc-4c65-830f-1dcc63bce8cc","","null","<div style=""display: flex; justify-content: center; align-items: center;"">
                    <img src=""images/semantic/semantic_series_10/semantic_series_10_c.jpg"" style=""width: 300px; height: 300px;"" />
                  </div>","null","",""
"","","","","","html-keyboard-response","107","512327","0.0-77.0-3.0","8D9CB9BE66E5474F950FB9ECFF19DF30","8D9CB9BE66E5474F950FB9ECFF19DF30","4050e3d5-59d2-450c-a665-877d16167317","54f8d589-66fc-4c65-830f-1dcc63bce8cc","{""participantId"":""8D9CB9BE66E5474F950FB9ECFF19DF30"",""assignmentId"":""4050e3d5-59d2-450c-a665-877d16167317"",""projectId"":""54f8d589-66fc-4c65-830f-1dcc63bce8cc""}","https://test12345.live/?participantId=8D9CB9BE66E5474F950FB9ECFF19DF30&assignmentId=4050e3d5-59d2-450c-a665-877d16167317&projectId=54f8d589-66fc-4c65-830f-1dcc63bce8cc","","null","<div style=""display: flex; justify-content: center; align-items: center;"">
                    <img src=""images/semantic/semantic_series_10/semantic_series_10_d.jpg"" style=""width: 300px; height: 300px;"" />
                  </div>","null","",""
"","","","","","html-button-response","108","513274","0.0-78.0","8D9CB9BE66E5474F950FB9ECFF19DF30","8D9CB9BE66E5474F950FB9ECFF19DF30","4050e3d5-59d2-450c-a665-877d16167317","54f8d589-66fc-4c65-830f-1dcc63bce8cc","{""participantId"":""8D9CB9BE66E5474F950FB9ECFF19DF30"",""assignmentId"":""4050e3d5-59d2-450c-a665-877d16167317"",""projectId"":""54f8d589-66fc-4c65-830f-1dcc63bce8cc""}","https://test12345.live/?participantId=8D9CB9BE66E5474F950FB9ECFF19DF30&assignmentId=4050e3d5-59d2-450c-a665-877d16167317&projectId=54f8d589-66fc-4c65-830f-1dcc63bce8cc","","946","Was there a person in the picture?","1","",""
"","","","","","survey-likert","109","514730","0.0-79.0","8D9CB9BE66E5474F950FB9ECFF19DF30","8D9CB9BE66E5474F950FB9ECFF19DF30","4050e3d5-59d2-450c-a665-877d16167317","54f8d589-66fc-4c65-830f-1dcc63bce8cc","{""participantId"":""8D9CB9BE66E5474F950FB9ECFF19DF30"",""assignmentId"":""4050e3d5-59d2-450c-a665-877d16167317"",""projectId"":""54f8d589-66fc-4c65-830f-1dcc63bce8cc""}","https://test12345.live/?participantId=8D9CB9BE66E5474F950FB9ECFF19DF30&assignmentId=4050e3d5-59d2-450c-a665-877d16167317&projectId=54f8d589-66fc-4c65-830f-1dcc63bce8cc","","1455","","{""Q0"":2}","","[0]"
"","","","","","html-button-response","110","515586","0.0-80.0","8D9CB9BE66E5474F950FB9ECFF19DF30","8D9CB9BE66E5474F950FB9ECFF19DF30","4050e3d5-59d2-450c-a665-877d16167317","54f8d589-66fc-4c65-830f-1dcc63bce8cc","{""participantId"":""8D9CB9BE66E5474F950FB9ECFF19DF30"",""assignmentId"":""4050e3d5-59d2-450c-a665-877d16167317"",""projectId"":""54f8d589-66fc-4c65-830f-1dcc63bce8cc""}","https://test12345.live/?participantId=8D9CB9BE66E5474F950FB9ECFF19DF30&assignmentId=4050e3d5-59d2-450c-a665-877d16167317&projectId=54f8d589-66fc-4c65-830f-1dcc63bce8cc","","854","
    <div style=""display: flex; justify-content: center; align-items: center;"">
      <img src=""images/red_deck_2.png"" style=""width: 300px; height: 300px; margin-right: 10px;"" />
      <img src=""images/blue_deck_1.png"" style=""width: 300px; height: 300px;"" />
    </div>","0","0",""
"","","","","","html-keyboard-response","111","518587","0.0-81.0-0.0","8D9CB9BE66E5474F950FB9ECFF19DF30","8D9CB9BE66E5474F950FB9ECFF19DF30","4050e3d5-59d2-450c-a665-877d16167317","54f8d589-66fc-4c65-830f-1dcc63bce8cc","{""participantId"":""8D9CB9BE66E5474F950FB9ECFF19DF30"",""assignmentId"":""4050e3d5-59d2-450c-a665-877d16167317"",""projectId"":""54f8d589-66fc-4c65-830f-1dcc63bce8cc""}","https://test12345.live/?participantId=8D9CB9BE66E5474F950FB9ECFF19DF30&assignmentId=4050e3d5-59d2-450c-a665-877d16167317&projectId=54f8d589-66fc-4c65-830f-1dcc63bce8cc","","null","<div style=""display: flex; justify-content: center; align-items: center;"">
                    <img src=""images/causal/causal_series_13/causal_series_13_a.jpg"" style=""width: 300px; height: 300px;"" />
                  </div>","null","",""
"","","","","","html-keyboard-response","112","521588","0.0-81.0-1.0","8D9CB9BE66E5474F950FB9ECFF19DF30","8D9CB9BE66E5474F950FB9ECFF19DF30","4050e3d5-59d2-450c-a665-877d16167317","54f8d589-66fc-4c65-830f-1dcc63bce8cc","{""participantId"":""8D9CB9BE66E5474F950FB9ECFF19DF30"",""assignmentId"":""4050e3d5-59d2-450c-a665-877d16167317"",""projectId"":""54f8d589-66fc-4c65-830f-1dcc63bce8cc""}","https://test12345.live/?participantId=8D9CB9BE66E5474F950FB9ECFF19DF30&assignmentId=4050e3d5-59d2-450c-a665-877d16167317&projectId=54f8d589-66fc-4c65-830f-1dcc63bce8cc","","null","<div style=""display: flex; justify-content: center; align-items: center;"">
                    <img src=""images/causal/causal_series_13/causal_series_13_b.jpg"" style=""width: 300px; height: 300px;"" />
                  </div>","null","",""
"","","","","","html-keyboard-response","113","524589","0.0-81.0-2.0","8D9CB9BE66E5474F950FB9ECFF19DF30","8D9CB9BE66E5474F950FB9ECFF19DF30","4050e3d5-59d2-450c-a665-877d16167317","54f8d589-66fc-4c65-830f-1dcc63bce8cc","{""participantId"":""8D9CB9BE66E5474F950FB9ECFF19DF30"",""assignmentId"":""4050e3d5-59d2-450c-a665-877d16167317"",""projectId"":""54f8d589-66fc-4c65-830f-1dcc63bce8cc""}","https://test12345.live/?participantId=8D9CB9BE66E5474F950FB9ECFF19DF30&assignmentId=4050e3d5-59d2-450c-a665-877d16167317&projectId=54f8d589-66fc-4c65-830f-1dcc63bce8cc","","null","<div style=""display: flex; justify-content: center; align-items: center;"">
                    <img src=""images/causal/causal_series_13/causal_series_13_c.jpg"" style=""width: 300px; height: 300px;"" />
                  </div>","null","",""
"","","","","","html-keyboard-response","114","527590","0.0-81.0-3.0","8D9CB9BE66E5474F950FB9ECFF19DF30","8D9CB9BE66E5474F950FB9ECFF19DF30","4050e3d5-59d2-450c-a665-877d16167317","54f8d589-66fc-4c65-830f-1dcc63bce8cc","{""participantId"":""8D9CB9BE66E5474F950FB9ECFF19DF30"",""assignmentId"":""4050e3d5-59d2-450c-a665-877d16167317"",""projectId"":""54f8d589-66fc-4c65-830f-1dcc63bce8cc""}","https://test12345.live/?participantId=8D9CB9BE66E5474F950FB9ECFF19DF30&assignmentId=4050e3d5-59d2-450c-a665-877d16167317&projectId=54f8d589-66fc-4c65-830f-1dcc63bce8cc","","null","<div style=""display: flex; justify-content: center; align-items: center;"">
                    <img src=""images/causal/causal_series_13/causal_series_13_d.jpg"" style=""width: 300px; height: 300px;"" />
                  </div>","null","",""
"","","","","","html-button-response","115","528913","0.0-83.0","8D9CB9BE66E5474F950FB9ECFF19DF30","8D9CB9BE66E5474F950FB9ECFF19DF30","4050e3d5-59d2-450c-a665-877d16167317","54f8d589-66fc-4c65-830f-1dcc63bce8cc","{""participantId"":""8D9CB9BE66E5474F950FB9ECFF19DF30"",""assignmentId"":""4050e3d5-59d2-450c-a665-877d16167317"",""projectId"":""54f8d589-66fc-4c65-830f-1dcc63bce8cc""}","https://test12345.live/?participantId=8D9CB9BE66E5474F950FB9ECFF19DF30&assignmentId=4050e3d5-59d2-450c-a665-877d16167317&projectId=54f8d589-66fc-4c65-830f-1dcc63bce8cc","","1322","Was there a person in the picture?","0","",""
"","","","","","survey-likert","116","531633","0.0-84.0","8D9CB9BE66E5474F950FB9ECFF19DF30","8D9CB9BE66E5474F950FB9ECFF19DF30","4050e3d5-59d2-450c-a665-877d16167317","54f8d589-66fc-4c65-830f-1dcc63bce8cc","{""participantId"":""8D9CB9BE66E5474F950FB9ECFF19DF30"",""assignmentId"":""4050e3d5-59d2-450c-a665-877d16167317"",""projectId"":""54f8d589-66fc-4c65-830f-1dcc63bce8cc""}","https://test12345.live/?participantId=8D9CB9BE66E5474F950FB9ECFF19DF30&assignmentId=4050e3d5-59d2-450c-a665-877d16167317&projectId=54f8d589-66fc-4c65-830f-1dcc63bce8cc","","2719","","{""Q0"":3}","","[0]"
"","","","","","html-button-response","117","532577","0.0-85.0","8D9CB9BE66E5474F950FB9ECFF19DF30","8D9CB9BE66E5474F950FB9ECFF19DF30","4050e3d5-59d2-450c-a665-877d16167317","54f8d589-66fc-4c65-830f-1dcc63bce8cc","{""participantId"":""8D9CB9BE66E5474F950FB9ECFF19DF30"",""assignmentId"":""4050e3d5-59d2-450c-a665-877d16167317"",""projectId"":""54f8d589-66fc-4c65-830f-1dcc63bce8cc""}","https://test12345.live/?participantId=8D9CB9BE66E5474F950FB9ECFF19DF30&assignmentId=4050e3d5-59d2-450c-a665-877d16167317&projectId=54f8d589-66fc-4c65-830f-1dcc63bce8cc","","943","
    <div style=""display: flex; justify-content: center; align-items: center;"">
      <img src=""images/red_deck_2.png"" style=""width: 300px; height: 300px; margin-right: 10px;"" />
      <img src=""images/blue_deck_1.png"" style=""width: 300px; height: 300px;"" />
    </div>","0","0",""
"","","","","","html-keyboard-response","118","535578","0.0-86.0-0.0","8D9CB9BE66E5474F950FB9ECFF19DF30","8D9CB9BE66E5474F950FB9ECFF19DF30","4050e3d5-59d2-450c-a665-877d16167317","54f8d589-66fc-4c65-830f-1dcc63bce8cc","{""participantId"":""8D9CB9BE66E5474F950FB9ECFF19DF30"",""assignmentId"":""4050e3d5-59d2-450c-a665-877d16167317"",""projectId"":""54f8d589-66fc-4c65-830f-1dcc63bce8cc""}","https://test12345.live/?participantId=8D9CB9BE66E5474F950FB9ECFF19DF30&assignmentId=4050e3d5-59d2-450c-a665-877d16167317&projectId=54f8d589-66fc-4c65-830f-1dcc63bce8cc","","null","<div style=""display: flex; justify-content: center; align-items: center;"">
                    <img src=""images/causal/causal_series_4/causal_series_4_a.jpg"" style=""width: 300px; height: 300px;"" />
                  </div>","null","",""
"","","","","","html-keyboard-response","119","538579","0.0-86.0-1.0","8D9CB9BE66E5474F950FB9ECFF19DF30","8D9CB9BE66E5474F950FB9ECFF19DF30","4050e3d5-59d2-450c-a665-877d16167317","54f8d589-66fc-4c65-830f-1dcc63bce8cc","{""participantId"":""8D9CB9BE66E5474F950FB9ECFF19DF30"",""assignmentId"":""4050e3d5-59d2-450c-a665-877d16167317"",""projectId"":""54f8d589-66fc-4c65-830f-1dcc63bce8cc""}","https://test12345.live/?participantId=8D9CB9BE66E5474F950FB9ECFF19DF30&assignmentId=4050e3d5-59d2-450c-a665-877d16167317&projectId=54f8d589-66fc-4c65-830f-1dcc63bce8cc","","null","<div style=""display: flex; justify-content: center; align-items: center;"">
                    <img src=""images/causal/causal_series_4/causal_series_4_b.jpg"" style=""width: 300px; height: 300px;"" />
                  </div>","null","",""
"","","","","","html-keyboard-response","120","541581","0.0-86.0-2.0","8D9CB9BE66E5474F950FB9ECFF19DF30","8D9CB9BE66E5474F950FB9ECFF19DF30","4050e3d5-59d2-450c-a665-877d16167317","54f8d589-66fc-4c65-830f-1dcc63bce8cc","{""participantId"":""8D9CB9BE66E5474F950FB9ECFF19DF30"",""assignmentId"":""4050e3d5-59d2-450c-a665-877d16167317"",""projectId"":""54f8d589-66fc-4c65-830f-1dcc63bce8cc""}","https://test12345.live/?participantId=8D9CB9BE66E5474F950FB9ECFF19DF30&assignmentId=4050e3d5-59d2-450c-a665-877d16167317&projectId=54f8d589-66fc-4c65-830f-1dcc63bce8cc","","null","<div style=""display: flex; justify-content: center; align-items: center;"">
                    <img src=""images/causal/causal_series_4/causal_series_4_c.jpg"" style=""width: 300px; height: 300px;"" />
                  </div>","null","",""
"","","","","","html-keyboard-response","121","544582","0.0-86.0-3.0","8D9CB9BE66E5474F950FB9ECFF19DF30","8D9CB9BE66E5474F950FB9ECFF19DF30","4050e3d5-59d2-450c-a665-877d16167317","54f8d589-66fc-4c65-830f-1dcc63bce8cc","{""participantId"":""8D9CB9BE66E5474F950FB9ECFF19DF30"",""assignmentId"":""4050e3d5-59d2-450c-a665-877d16167317"",""projectId"":""54f8d589-66fc-4c65-830f-1dcc63bce8cc""}","https://test12345.live/?participantId=8D9CB9BE66E5474F950FB9ECFF19DF30&assignmentId=4050e3d5-59d2-450c-a665-877d16167317&projectId=54f8d589-66fc-4c65-830f-1dcc63bce8cc","","null","<div style=""display: flex; justify-content: center; align-items: center;"">
                    <img src=""images/causal/causal_series_4/causal_series_4_d.jpg"" style=""width: 300px; height: 300px;"" />
                  </div>","null","",""
"","","","","","html-button-response","122","547072","0.0-88.0","8D9CB9BE66E5474F950FB9ECFF19DF30","8D9CB9BE66E5474F950FB9ECFF19DF30","4050e3d5-59d2-450c-a665-877d16167317","54f8d589-66fc-4c65-830f-1dcc63bce8cc","{""participantId"":""8D9CB9BE66E5474F950FB9ECFF19DF30"",""assignmentId"":""4050e3d5-59d2-450c-a665-877d16167317"",""projectId"":""54f8d589-66fc-4c65-830f-1dcc63bce8cc""}","https://test12345.live/?participantId=8D9CB9BE66E5474F950FB9ECFF19DF30&assignmentId=4050e3d5-59d2-450c-a665-877d16167317&projectId=54f8d589-66fc-4c65-830f-1dcc63bce8cc","","2490","Was there a person in the picture?","1","",""
"","","","","","survey-likert","123","550992","0.0-89.0","8D9CB9BE66E5474F950FB9ECFF19DF30","8D9CB9BE66E5474F950FB9ECFF19DF30","4050e3d5-59d2-450c-a665-877d16167317","54f8d589-66fc-4c65-830f-1dcc63bce8cc","{""participantId"":""8D9CB9BE66E5474F950FB9ECFF19DF30"",""assignmentId"":""4050e3d5-59d2-450c-a665-877d16167317"",""projectId"":""54f8d589-66fc-4c65-830f-1dcc63bce8cc""}","https://test12345.live/?participantId=8D9CB9BE66E5474F950FB9ECFF19DF30&assignmentId=4050e3d5-59d2-450c-a665-877d16167317&projectId=54f8d589-66fc-4c65-830f-1dcc63bce8cc","","3919","","{""Q0"":1}","","[0]"
"","","","","","html-button-response","124","551888","0.0-90.0","8D9CB9BE66E5474F950FB9ECFF19DF30","8D9CB9BE66E5474F950FB9ECFF19DF30","4050e3d5-59d2-450c-a665-877d16167317","54f8d589-66fc-4c65-830f-1dcc63bce8cc","{""participantId"":""8D9CB9BE66E5474F950FB9ECFF19DF30"",""assignmentId"":""4050e3d5-59d2-450c-a665-877d16167317"",""projectId"":""54f8d589-66fc-4c65-830f-1dcc63bce8cc""}","https://test12345.live/?participantId=8D9CB9BE66E5474F950FB9ECFF19DF30&assignmentId=4050e3d5-59d2-450c-a665-877d16167317&projectId=54f8d589-66fc-4c65-830f-1dcc63bce8cc","","894","
    <div style=""display: flex; justify-content: center; align-items: center;"">
      <img src=""images/red_deck_2.png"" style=""width: 300px; height: 300px; margin-right: 10px;"" />
      <img src=""images/blue_deck_1.png"" style=""width: 300px; height: 300px;"" />
    </div>","1","1",""
"","","","","","html-keyboard-response","125","554889","0.0-92.0-0.0","8D9CB9BE66E5474F950FB9ECFF19DF30","8D9CB9BE66E5474F950FB9ECFF19DF30","4050e3d5-59d2-450c-a665-877d16167317","54f8d589-66fc-4c65-830f-1dcc63bce8cc","{""participantId"":""8D9CB9BE66E5474F950FB9ECFF19DF30"",""assignmentId"":""4050e3d5-59d2-450c-a665-877d16167317"",""projectId"":""54f8d589-66fc-4c65-830f-1dcc63bce8cc""}","https://test12345.live/?participantId=8D9CB9BE66E5474F950FB9ECFF19DF30&assignmentId=4050e3d5-59d2-450c-a665-877d16167317&projectId=54f8d589-66fc-4c65-830f-1dcc63bce8cc","","null","<div style=""display: flex; justify-content: center; align-items: center;"">
                    <img src=""images/semantic/semantic_series_16/semantic_series_16_a.jpg"" style=""width: 300px; height: 300px;"" />
                  </div>","null","",""
"","","","","","html-keyboard-response","126","557895","0.0-92.0-1.0","8D9CB9BE66E5474F950FB9ECFF19DF30","8D9CB9BE66E5474F950FB9ECFF19DF30","4050e3d5-59d2-450c-a665-877d16167317","54f8d589-66fc-4c65-830f-1dcc63bce8cc","{""participantId"":""8D9CB9BE66E5474F950FB9ECFF19DF30"",""assignmentId"":""4050e3d5-59d2-450c-a665-877d16167317"",""projectId"":""54f8d589-66fc-4c65-830f-1dcc63bce8cc""}","https://test12345.live/?participantId=8D9CB9BE66E5474F950FB9ECFF19DF30&assignmentId=4050e3d5-59d2-450c-a665-877d16167317&projectId=54f8d589-66fc-4c65-830f-1dcc63bce8cc","","null","<div style=""display: flex; justify-content: center; align-items: center;"">
                    <img src=""images/semantic/semantic_series_16/semantic_series_16_b.jpg"" style=""width: 300px; height: 300px;"" />
                  </div>","null","",""
"","","","","","html-keyboard-response","127","560896","0.0-92.0-2.0","8D9CB9BE66E5474F950FB9ECFF19DF30","8D9CB9BE66E5474F950FB9ECFF19DF30","4050e3d5-59d2-450c-a665-877d16167317","54f8d589-66fc-4c65-830f-1dcc63bce8cc","{""participantId"":""8D9CB9BE66E5474F950FB9ECFF19DF30"",""assignmentId"":""4050e3d5-59d2-450c-a665-877d16167317"",""projectId"":""54f8d589-66fc-4c65-830f-1dcc63bce8cc""}","https://test12345.live/?participantId=8D9CB9BE66E5474F950FB9ECFF19DF30&assignmentId=4050e3d5-59d2-450c-a665-877d16167317&projectId=54f8d589-66fc-4c65-830f-1dcc63bce8cc","","null","<div style=""display: flex; justify-content: center; align-items: center;"">
                    <img src=""images/semantic/semantic_series_16/semantic_series_16_c.jpg"" style=""width: 300px; height: 300px;"" />
                  </div>","null","",""
"","","","","","html-keyboard-response","128","563897","0.0-92.0-3.0","8D9CB9BE66E5474F950FB9ECFF19DF30","8D9CB9BE66E5474F950FB9ECFF19DF30","4050e3d5-59d2-450c-a665-877d16167317","54f8d589-66fc-4c65-830f-1dcc63bce8cc","{""participantId"":""8D9CB9BE66E5474F950FB9ECFF19DF30"",""assignmentId"":""4050e3d5-59d2-450c-a665-877d16167317"",""projectId"":""54f8d589-66fc-4c65-830f-1dcc63bce8cc""}","https://test12345.live/?participantId=8D9CB9BE66E5474F950FB9ECFF19DF30&assignmentId=4050e3d5-59d2-450c-a665-877d16167317&projectId=54f8d589-66fc-4c65-830f-1dcc63bce8cc","","null","<div style=""display: flex; justify-content: center; align-items: center;"">
                    <img src=""images/semantic/semantic_series_16/semantic_series_16_d.jpg"" style=""width: 300px; height: 300px;"" />
                  </div>","null","",""
"","","","","","html-button-response","129","565253","0.0-93.0","8D9CB9BE66E5474F950FB9ECFF19DF30","8D9CB9BE66E5474F950FB9ECFF19DF30","4050e3d5-59d2-450c-a665-877d16167317","54f8d589-66fc-4c65-830f-1dcc63bce8cc","{""participantId"":""8D9CB9BE66E5474F950FB9ECFF19DF30"",""assignmentId"":""4050e3d5-59d2-450c-a665-877d16167317"",""projectId"":""54f8d589-66fc-4c65-830f-1dcc63bce8cc""}","https://test12345.live/?participantId=8D9CB9BE66E5474F950FB9ECFF19DF30&assignmentId=4050e3d5-59d2-450c-a665-877d16167317&projectId=54f8d589-66fc-4c65-830f-1dcc63bce8cc","","1355","Was there a person in the picture?","0","",""
"","","","","","survey-likert","130","567437","0.0-94.0","8D9CB9BE66E5474F950FB9ECFF19DF30","8D9CB9BE66E5474F950FB9ECFF19DF30","4050e3d5-59d2-450c-a665-877d16167317","54f8d589-66fc-4c65-830f-1dcc63bce8cc","{""participantId"":""8D9CB9BE66E5474F950FB9ECFF19DF30"",""assignmentId"":""4050e3d5-59d2-450c-a665-877d16167317"",""projectId"":""54f8d589-66fc-4c65-830f-1dcc63bce8cc""}","https://test12345.live/?participantId=8D9CB9BE66E5474F950FB9ECFF19DF30&assignmentId=4050e3d5-59d2-450c-a665-877d16167317&projectId=54f8d589-66fc-4c65-830f-1dcc63bce8cc","","2184","","{""Q0"":1}","","[0]"
"","","","","","survey-text","131","705841","0.0-95.0","8D9CB9BE66E5474F950FB9ECFF19DF30","8D9CB9BE66E5474F950FB9ECFF19DF30","4050e3d5-59d2-450c-a665-877d16167317","54f8d589-66fc-4c65-830f-1dcc63bce8cc","{""participantId"":""8D9CB9BE66E5474F950FB9ECFF19DF30"",""assignmentId"":""4050e3d5-59d2-450c-a665-877d16167317"",""projectId"":""54f8d589-66fc-4c65-830f-1dcc63bce8cc""}","https://test12345.live/?participantId=8D9CB9BE66E5474F950FB9ECFF19DF30&assignmentId=4050e3d5-59d2-450c-a665-877d16167317&projectId=54f8d589-66fc-4c65-830f-1dcc63bce8cc","","138390","","{""Q0"":""One deck of cards was cartoon based and often contained animal characters, while the other featured people in an artistic 3D rendered style (possibly AI generated images).""}","",""
