"success","timeout","failed_images","failed_audio","failed_video","trial_type","trial_index","time_elapsed","internal_node_id","subject","subject_id","study_id","session_id","urlvar","current_url","view_history","rt","stimulus","response","choice","question_order"
"true","false","[]","[]","[]","preload","0","4793","0.0-0.0","9CD275406AC94665A77A7F728086CC65","9CD275406AC94665A77A7F728086CC65","9bc66511-3bc4-49e0-9ef4-ad5fb3a73f7c","bea99957-1862-4ad8-9558-57b91e42ce64","{""participantId"":""9CD275406AC94665A77A7F728086CC65"",""assignmentId"":""9bc66511-3bc4-49e0-9ef4-ad5fb3a73f7c"",""projectId"":""bea99957-1862-4ad8-9558-57b91e42ce64""}","https://test12345.live/?participantId=9CD275406AC94665A77A7F728086CC65&assignmentId=9bc66511-3bc4-49e0-9ef4-ad5fb3a73f7c&projectId=bea99957-1862-4ad8-9558-57b91e42ce64","","","","","",""
"","","","","","instructions","1","219153","0.0-1.0","9CD275406AC94665A77A7F728086CC65","9CD275406AC94665A77A7F728086CC65","9bc66511-3bc4-49e0-9ef4-ad5fb3a73f7c","bea99957-1862-4ad8-9558-57b91e42ce64","{""participantId"":""9CD275406AC94665A77A7F728086CC65"",""assignmentId"":""9bc66511-3bc4-49e0-9ef4-ad5fb3a73f7c"",""projectId"":""bea99957-1862-4ad8-9558-57b91e42ce64""}","https://test12345.live/?participantId=9CD275406AC94665A77A7F728086CC65&assignmentId=9bc66511-3bc4-49e0-9ef4-ad5fb3a73f7c&projectId=bea99957-1862-4ad8-9558-57b91e42ce64","[{""page_index"":0,""viewing_time"":214358}]","214358","","","",""
"","","","","","instructions","2","227363","0.0-2.0","9CD275406AC94665A77A7F728086CC65","9CD275406AC94665A77A7F728086CC65","9bc66511-3bc4-49e0-9ef4-ad5fb3a73f7c","bea99957-1862-4ad8-9558-57b91e42ce64","{""participantId"":""9CD275406AC94665A77A7F728086CC65"",""assignmentId"":""9bc66511-3bc4-49e0-9ef4-ad5fb3a73f7c"",""projectId"":""bea99957-1862-4ad8-9558-57b91e42ce64""}","https://test12345.live/?participantId=9CD275406AC94665A77A7F728086CC65&assignmentId=9bc66511-3bc4-49e0-9ef4-ad5fb3a73f7c&projectId=bea99957-1862-4ad8-9558-57b91e42ce64","[{""page_index"":0,""viewing_time"":8209}]","8209","","","",""
"true","","","","","fullscreen","3","331060","0.0-3.0","9CD275406AC94665A77A7F728086CC65","9CD275406AC94665A77A7F728086CC65","9bc66511-3bc4-49e0-9ef4-ad5fb3a73f7c","bea99957-1862-4ad8-9558-57b91e42ce64","{""participantId"":""9CD275406AC94665A77A7F728086CC65"",""assignmentId"":""9bc66511-3bc4-49e0-9ef4-ad5fb3a73f7c"",""projectId"":""bea99957-1862-4ad8-9558-57b91e42ce64""}","https://test12345.live/?participantId=9CD275406AC94665A77A7F728086CC65&assignmentId=9bc66511-3bc4-49e0-9ef4-ad5fb3a73f7c&projectId=bea99957-1862-4ad8-9558-57b91e42ce64","","102690","","","",""
"","","","","","instructions","4","374752","0.0-4.0","9CD275406AC94665A77A7F728086CC65","9CD275406AC94665A77A7F728086CC65","9bc66511-3bc4-49e0-9ef4-ad5fb3a73f7c","bea99957-1862-4ad8-9558-57b91e42ce64","{""participantId"":""9CD275406AC94665A77A7F728086CC65"",""assignmentId"":""9bc66511-3bc4-49e0-9ef4-ad5fb3a73f7c"",""projectId"":""bea99957-1862-4ad8-9558-57b91e42ce64""}","https://test12345.live/?participantId=9CD275406AC94665A77A7F728086CC65&assignmentId=9bc66511-3bc4-49e0-9ef4-ad5fb3a73f7c&projectId=bea99957-1862-4ad8-9558-57b91e42ce64","[{""page_index"":0,""viewing_time"":43691}]","43691","","","",""
"","","","","","html-button-response","5","380502","0.0-5.0","9CD275406AC94665A77A7F728086CC65","9CD275406AC94665A77A7F728086CC65","9bc66511-3bc4-49e0-9ef4-ad5fb3a73f7c","bea99957-1862-4ad8-9558-57b91e42ce64","{""participantId"":""9CD275406AC94665A77A7F728086CC65"",""assignmentId"":""9bc66511-3bc4-49e0-9ef4-ad5fb3a73f7c"",""projectId"":""bea99957-1862-4ad8-9558-57b91e42ce64""}","https://test12345.live/?participantId=9CD275406AC94665A77A7F728086CC65&assignmentId=9bc66511-3bc4-49e0-9ef4-ad5fb3a73f7c&projectId=bea99957-1862-4ad8-9558-57b91e42ce64","","5748","
    <div style=""display: flex; justify-content: center; align-items: center;"">
      <img src=""images/red_deck_2.png"" style=""width: 300px; height: 300px; margin-right: 10px;"" />
      <img src=""images/blue_deck_1.png"" style=""width: 300px; height: 300px;"" />
    </div>","1","1",""
"","","","","","html-keyboard-response","6","383517","0.0-6.0-0.0","9CD275406AC94665A77A7F728086CC65","9CD275406AC94665A77A7F728086CC65","9bc66511-3bc4-49e0-9ef4-ad5fb3a73f7c","bea99957-1862-4ad8-9558-57b91e42ce64","{""participantId"":""9CD275406AC94665A77A7F728086CC65"",""assignmentId"":""9bc66511-3bc4-49e0-9ef4-ad5fb3a73f7c"",""projectId"":""bea99957-1862-4ad8-9558-57b91e42ce64""}","https://test12345.live/?participantId=9CD275406AC94665A77A7F728086CC65&assignmentId=9bc66511-3bc4-49e0-9ef4-ad5fb3a73f7c&projectId=bea99957-1862-4ad8-9558-57b91e42ce64","","null","<div style=""display: flex; justify-content: center; align-items: center;"">
                    <img src=""images/causal/causal_series_4/causal_series_4_a.jpg"" style=""width: 300px; height: 300px;"" />
                  </div>","null","",""
"","","","","","html-keyboard-response","7","386525","0.0-6.0-1.0","9CD275406AC94665A77A7F728086CC65","9CD275406AC94665A77A7F728086CC65","9bc66511-3bc4-49e0-9ef4-ad5fb3a73f7c","bea99957-1862-4ad8-9558-57b91e42ce64","{""participantId"":""9CD275406AC94665A77A7F728086CC65"",""assignmentId"":""9bc66511-3bc4-49e0-9ef4-ad5fb3a73f7c"",""projectId"":""bea99957-1862-4ad8-9558-57b91e42ce64""}","https://test12345.live/?participantId=9CD275406AC94665A77A7F728086CC65&assignmentId=9bc66511-3bc4-49e0-9ef4-ad5fb3a73f7c&projectId=bea99957-1862-4ad8-9558-57b91e42ce64","","null","<div style=""display: flex; justify-content: center; align-items: center;"">
                    <img src=""images/causal/causal_series_4/causal_series_4_b.jpg"" style=""width: 300px; height: 300px;"" />
                  </div>","null","",""
"","","","","","html-keyboard-response","8","389531","0.0-6.0-2.0","9CD275406AC94665A77A7F728086CC65","9CD275406AC94665A77A7F728086CC65","9bc66511-3bc4-49e0-9ef4-ad5fb3a73f7c","bea99957-1862-4ad8-9558-57b91e42ce64","{""participantId"":""9CD275406AC94665A77A7F728086CC65"",""assignmentId"":""9bc66511-3bc4-49e0-9ef4-ad5fb3a73f7c"",""projectId"":""bea99957-1862-4ad8-9558-57b91e42ce64""}","https://test12345.live/?participantId=9CD275406AC94665A77A7F728086CC65&assignmentId=9bc66511-3bc4-49e0-9ef4-ad5fb3a73f7c&projectId=bea99957-1862-4ad8-9558-57b91e42ce64","","null","<div style=""display: flex; justify-content: center; align-items: center;"">
                    <img src=""images/causal/causal_series_4/causal_series_4_c.jpg"" style=""width: 300px; height: 300px;"" />
                  </div>","null","",""
"","","","","","html-keyboard-response","9","392547","0.0-6.0-3.0","9CD275406AC94665A77A7F728086CC65","9CD275406AC94665A77A7F728086CC65","9bc66511-3bc4-49e0-9ef4-ad5fb3a73f7c","bea99957-1862-4ad8-9558-57b91e42ce64","{""participantId"":""9CD275406AC94665A77A7F728086CC65"",""assignmentId"":""9bc66511-3bc4-49e0-9ef4-ad5fb3a73f7c"",""projectId"":""bea99957-1862-4ad8-9558-57b91e42ce64""}","https://test12345.live/?participantId=9CD275406AC94665A77A7F728086CC65&assignmentId=9bc66511-3bc4-49e0-9ef4-ad5fb3a73f7c&projectId=bea99957-1862-4ad8-9558-57b91e42ce64","","null","<div style=""display: flex; justify-content: center; align-items: center;"">
                    <img src=""images/causal/causal_series_4/causal_series_4_d.jpg"" style=""width: 300px; height: 300px;"" />
                  </div>","null","",""
"","","","","","html-button-response","10","395381","0.0-8.0","9CD275406AC94665A77A7F728086CC65","9CD275406AC94665A77A7F728086CC65","9bc66511-3bc4-49e0-9ef4-ad5fb3a73f7c","bea99957-1862-4ad8-9558-57b91e42ce64","{""participantId"":""9CD275406AC94665A77A7F728086CC65"",""assignmentId"":""9bc66511-3bc4-49e0-9ef4-ad5fb3a73f7c"",""projectId"":""bea99957-1862-4ad8-9558-57b91e42ce64""}","https://test12345.live/?participantId=9CD275406AC94665A77A7F728086CC65&assignmentId=9bc66511-3bc4-49e0-9ef4-ad5fb3a73f7c&projectId=bea99957-1862-4ad8-9558-57b91e42ce64","","2833","Was there a person in the picture?","1","",""
"","","","","","survey-likert","11","398761","0.0-9.0","9CD275406AC94665A77A7F728086CC65","9CD275406AC94665A77A7F728086CC65","9bc66511-3bc4-49e0-9ef4-ad5fb3a73f7c","bea99957-1862-4ad8-9558-57b91e42ce64","{""participantId"":""9CD275406AC94665A77A7F728086CC65"",""assignmentId"":""9bc66511-3bc4-49e0-9ef4-ad5fb3a73f7c"",""projectId"":""bea99957-1862-4ad8-9558-57b91e42ce64""}","https://test12345.live/?participantId=9CD275406AC94665A77A7F728086CC65&assignmentId=9bc66511-3bc4-49e0-9ef4-ad5fb3a73f7c&projectId=bea99957-1862-4ad8-9558-57b91e42ce64","","3377","","{""Q0"":2}","","[0]"
"","","","","","html-button-response","12","401212","0.0-10.0","9CD275406AC94665A77A7F728086CC65","9CD275406AC94665A77A7F728086CC65","9bc66511-3bc4-49e0-9ef4-ad5fb3a73f7c","bea99957-1862-4ad8-9558-57b91e42ce64","{""participantId"":""9CD275406AC94665A77A7F728086CC65"",""assignmentId"":""9bc66511-3bc4-49e0-9ef4-ad5fb3a73f7c"",""projectId"":""bea99957-1862-4ad8-9558-57b91e42ce64""}","https://test12345.live/?participantId=9CD275406AC94665A77A7F728086CC65&assignmentId=9bc66511-3bc4-49e0-9ef4-ad5fb3a73f7c&projectId=bea99957-1862-4ad8-9558-57b91e42ce64","","2450","
    <div style=""display: flex; justify-content: center; align-items: center;"">
      <img src=""images/red_deck_2.png"" style=""width: 300px; height: 300px; margin-right: 10px;"" />
      <img src=""images/blue_deck_1.png"" style=""width: 300px; height: 300px;"" />
    </div>","0","0",""
"","","","","","html-keyboard-response","13","404221","0.0-12.0-0.0","9CD275406AC94665A77A7F728086CC65","9CD275406AC94665A77A7F728086CC65","9bc66511-3bc4-49e0-9ef4-ad5fb3a73f7c","bea99957-1862-4ad8-9558-57b91e42ce64","{""participantId"":""9CD275406AC94665A77A7F728086CC65"",""assignmentId"":""9bc66511-3bc4-49e0-9ef4-ad5fb3a73f7c"",""projectId"":""bea99957-1862-4ad8-9558-57b91e42ce64""}","https://test12345.live/?participantId=9CD275406AC94665A77A7F728086CC65&assignmentId=9bc66511-3bc4-49e0-9ef4-ad5fb3a73f7c&projectId=bea99957-1862-4ad8-9558-57b91e42ce64","","null","<div style=""display: flex; justify-content: center; align-items: center;"">
                    <img src=""images/semantic/semantic_series_7/semantic_series_7_a.jpg"" style=""width: 300px; height: 300px;"" />
                  </div>","null","",""
"","","","","","html-keyboard-response","14","407226","0.0-12.0-1.0","9CD275406AC94665A77A7F728086CC65","9CD275406AC94665A77A7F728086CC65","9bc66511-3bc4-49e0-9ef4-ad5fb3a73f7c","bea99957-1862-4ad8-9558-57b91e42ce64","{""participantId"":""9CD275406AC94665A77A7F728086CC65"",""assignmentId"":""9bc66511-3bc4-49e0-9ef4-ad5fb3a73f7c"",""projectId"":""bea99957-1862-4ad8-9558-57b91e42ce64""}","https://test12345.live/?participantId=9CD275406AC94665A77A7F728086CC65&assignmentId=9bc66511-3bc4-49e0-9ef4-ad5fb3a73f7c&projectId=bea99957-1862-4ad8-9558-57b91e42ce64","","null","<div style=""display: flex; justify-content: center; align-items: center;"">
                    <img src=""images/semantic/semantic_series_7/semantic_series_7_b.jpg"" style=""width: 300px; height: 300px;"" />
                  </div>","null","",""
"","","","","","html-keyboard-response","15","410229","0.0-12.0-2.0","9CD275406AC94665A77A7F728086CC65","9CD275406AC94665A77A7F728086CC65","9bc66511-3bc4-49e0-9ef4-ad5fb3a73f7c","bea99957-1862-4ad8-9558-57b91e42ce64","{""participantId"":""9CD275406AC94665A77A7F728086CC65"",""assignmentId"":""9bc66511-3bc4-49e0-9ef4-ad5fb3a73f7c"",""projectId"":""bea99957-1862-4ad8-9558-57b91e42ce64""}","https://test12345.live/?participantId=9CD275406AC94665A77A7F728086CC65&assignmentId=9bc66511-3bc4-49e0-9ef4-ad5fb3a73f7c&projectId=bea99957-1862-4ad8-9558-57b91e42ce64","","null","<div style=""display: flex; justify-content: center; align-items: center;"">
                    <img src=""images/semantic/semantic_series_7/semantic_series_7_c.jpg"" style=""width: 300px; height: 300px;"" />
                  </div>","null","",""
"","","","","","html-keyboard-response","16","413236","0.0-12.0-3.0","9CD275406AC94665A77A7F728086CC65","9CD275406AC94665A77A7F728086CC65","9bc66511-3bc4-49e0-9ef4-ad5fb3a73f7c","bea99957-1862-4ad8-9558-57b91e42ce64","{""participantId"":""9CD275406AC94665A77A7F728086CC65"",""assignmentId"":""9bc66511-3bc4-49e0-9ef4-ad5fb3a73f7c"",""projectId"":""bea99957-1862-4ad8-9558-57b91e42ce64""}","https://test12345.live/?participantId=9CD275406AC94665A77A7F728086CC65&assignmentId=9bc66511-3bc4-49e0-9ef4-ad5fb3a73f7c&projectId=bea99957-1862-4ad8-9558-57b91e42ce64","","null","<div style=""display: flex; justify-content: center; align-items: center;"">
                    <img src=""images/semantic/semantic_series_7/semantic_series_7_d.jpg"" style=""width: 300px; height: 300px;"" />
                  </div>","null","",""
"","","","","","html-button-response","17","414472","0.0-13.0","9CD275406AC94665A77A7F728086CC65","9CD275406AC94665A77A7F728086CC65","9bc66511-3bc4-49e0-9ef4-ad5fb3a73f7c","bea99957-1862-4ad8-9558-57b91e42ce64","{""participantId"":""9CD275406AC94665A77A7F728086CC65"",""assignmentId"":""9bc66511-3bc4-49e0-9ef4-ad5fb3a73f7c"",""projectId"":""bea99957-1862-4ad8-9558-57b91e42ce64""}","https://test12345.live/?participantId=9CD275406AC94665A77A7F728086CC65&assignmentId=9bc66511-3bc4-49e0-9ef4-ad5fb3a73f7c&projectId=bea99957-1862-4ad8-9558-57b91e42ce64","","1234","Was there a person in the picture?","1","",""
"","","","","","survey-likert","18","416389","0.0-14.0","9CD275406AC94665A77A7F728086CC65","9CD275406AC94665A77A7F728086CC65","9bc66511-3bc4-49e0-9ef4-ad5fb3a73f7c","bea99957-1862-4ad8-9558-57b91e42ce64","{""participantId"":""9CD275406AC94665A77A7F728086CC65"",""assignmentId"":""9bc66511-3bc4-49e0-9ef4-ad5fb3a73f7c"",""projectId"":""bea99957-1862-4ad8-9558-57b91e42ce64""}","https://test12345.live/?participantId=9CD275406AC94665A77A7F728086CC65&assignmentId=9bc66511-3bc4-49e0-9ef4-ad5fb3a73f7c&projectId=bea99957-1862-4ad8-9558-57b91e42ce64","","1916","","{""Q0"":2}","","[0]"
"","","","","","html-button-response","19","417500","0.0-15.0","9CD275406AC94665A77A7F728086CC65","9CD275406AC94665A77A7F728086CC65","9bc66511-3bc4-49e0-9ef4-ad5fb3a73f7c","bea99957-1862-4ad8-9558-57b91e42ce64","{""participantId"":""9CD275406AC94665A77A7F728086CC65"",""assignmentId"":""9bc66511-3bc4-49e0-9ef4-ad5fb3a73f7c"",""projectId"":""bea99957-1862-4ad8-9558-57b91e42ce64""}","https://test12345.live/?participantId=9CD275406AC94665A77A7F728086CC65&assignmentId=9bc66511-3bc4-49e0-9ef4-ad5fb3a73f7c&projectId=bea99957-1862-4ad8-9558-57b91e42ce64","","1110","
    <div style=""display: flex; justify-content: center; align-items: center;"">
      <img src=""images/red_deck_2.png"" style=""width: 300px; height: 300px; margin-right: 10px;"" />
      <img src=""images/blue_deck_1.png"" style=""width: 300px; height: 300px;"" />
    </div>","0","0",""
"","","","","","html-keyboard-response","20","420512","0.0-17.0-0.0","9CD275406AC94665A77A7F728086CC65","9CD275406AC94665A77A7F728086CC65","9bc66511-3bc4-49e0-9ef4-ad5fb3a73f7c","bea99957-1862-4ad8-9558-57b91e42ce64","{""participantId"":""9CD275406AC94665A77A7F728086CC65"",""assignmentId"":""9bc66511-3bc4-49e0-9ef4-ad5fb3a73f7c"",""projectId"":""bea99957-1862-4ad8-9558-57b91e42ce64""}","https://test12345.live/?participantId=9CD275406AC94665A77A7F728086CC65&assignmentId=9bc66511-3bc4-49e0-9ef4-ad5fb3a73f7c&projectId=bea99957-1862-4ad8-9558-57b91e42ce64","","null","<div style=""display: flex; justify-content: center; align-items: center;"">
                    <img src=""images/semantic/semantic_series_12/semantic_series_12_a.jpg"" style=""width: 300px; height: 300px;"" />
                  </div>","null","",""
"","","","","","html-keyboard-response","21","423529","0.0-17.0-1.0","9CD275406AC94665A77A7F728086CC65","9CD275406AC94665A77A7F728086CC65","9bc66511-3bc4-49e0-9ef4-ad5fb3a73f7c","bea99957-1862-4ad8-9558-57b91e42ce64","{""participantId"":""9CD275406AC94665A77A7F728086CC65"",""assignmentId"":""9bc66511-3bc4-49e0-9ef4-ad5fb3a73f7c"",""projectId"":""bea99957-1862-4ad8-9558-57b91e42ce64""}","https://test12345.live/?participantId=9CD275406AC94665A77A7F728086CC65&assignmentId=9bc66511-3bc4-49e0-9ef4-ad5fb3a73f7c&projectId=bea99957-1862-4ad8-9558-57b91e42ce64","","null","<div style=""display: flex; justify-content: center; align-items: center;"">
                    <img src=""images/semantic/semantic_series_12/semantic_series_12_b.jpg"" style=""width: 300px; height: 300px;"" />
                  </div>","null","",""
"","","","","","html-keyboard-response","22","426534","0.0-17.0-2.0","9CD275406AC94665A77A7F728086CC65","9CD275406AC94665A77A7F728086CC65","9bc66511-3bc4-49e0-9ef4-ad5fb3a73f7c","bea99957-1862-4ad8-9558-57b91e42ce64","{""participantId"":""9CD275406AC94665A77A7F728086CC65"",""assignmentId"":""9bc66511-3bc4-49e0-9ef4-ad5fb3a73f7c"",""projectId"":""bea99957-1862-4ad8-9558-57b91e42ce64""}","https://test12345.live/?participantId=9CD275406AC94665A77A7F728086CC65&assignmentId=9bc66511-3bc4-49e0-9ef4-ad5fb3a73f7c&projectId=bea99957-1862-4ad8-9558-57b91e42ce64","","null","<div style=""display: flex; justify-content: center; align-items: center;"">
                    <img src=""images/semantic/semantic_series_12/semantic_series_12_c.jpg"" style=""width: 300px; height: 300px;"" />
                  </div>","null","",""
"","","","","","html-keyboard-response","23","429536","0.0-17.0-3.0","9CD275406AC94665A77A7F728086CC65","9CD275406AC94665A77A7F728086CC65","9bc66511-3bc4-49e0-9ef4-ad5fb3a73f7c","bea99957-1862-4ad8-9558-57b91e42ce64","{""participantId"":""9CD275406AC94665A77A7F728086CC65"",""assignmentId"":""9bc66511-3bc4-49e0-9ef4-ad5fb3a73f7c"",""projectId"":""bea99957-1862-4ad8-9558-57b91e42ce64""}","https://test12345.live/?participantId=9CD275406AC94665A77A7F728086CC65&assignmentId=9bc66511-3bc4-49e0-9ef4-ad5fb3a73f7c&projectId=bea99957-1862-4ad8-9558-57b91e42ce64","","null","<div style=""display: flex; justify-content: center; align-items: center;"">
                    <img src=""images/semantic/semantic_series_12/semantic_series_12_d.jpg"" style=""width: 300px; height: 300px;"" />
                  </div>","null","",""
"","","","","","html-button-response","24","430713","0.0-18.0","9CD275406AC94665A77A7F728086CC65","9CD275406AC94665A77A7F728086CC65","9bc66511-3bc4-49e0-9ef4-ad5fb3a73f7c","bea99957-1862-4ad8-9558-57b91e42ce64","{""participantId"":""9CD275406AC94665A77A7F728086CC65"",""assignmentId"":""9bc66511-3bc4-49e0-9ef4-ad5fb3a73f7c"",""projectId"":""bea99957-1862-4ad8-9558-57b91e42ce64""}","https://test12345.live/?participantId=9CD275406AC94665A77A7F728086CC65&assignmentId=9bc66511-3bc4-49e0-9ef4-ad5fb3a73f7c&projectId=bea99957-1862-4ad8-9558-57b91e42ce64","","1176","Was there a person in the picture?","0","",""
"","","","","","survey-likert","25","433001","0.0-19.0","9CD275406AC94665A77A7F728086CC65","9CD275406AC94665A77A7F728086CC65","9bc66511-3bc4-49e0-9ef4-ad5fb3a73f7c","bea99957-1862-4ad8-9558-57b91e42ce64","{""participantId"":""9CD275406AC94665A77A7F728086CC65"",""assignmentId"":""9bc66511-3bc4-49e0-9ef4-ad5fb3a73f7c"",""projectId"":""bea99957-1862-4ad8-9558-57b91e42ce64""}","https://test12345.live/?participantId=9CD275406AC94665A77A7F728086CC65&assignmentId=9bc66511-3bc4-49e0-9ef4-ad5fb3a73f7c&projectId=bea99957-1862-4ad8-9558-57b91e42ce64","","2287","","{""Q0"":3}","","[0]"
"","","","","","html-button-response","26","434489","0.0-20.0","9CD275406AC94665A77A7F728086CC65","9CD275406AC94665A77A7F728086CC65","9bc66511-3bc4-49e0-9ef4-ad5fb3a73f7c","bea99957-1862-4ad8-9558-57b91e42ce64","{""participantId"":""9CD275406AC94665A77A7F728086CC65"",""assignmentId"":""9bc66511-3bc4-49e0-9ef4-ad5fb3a73f7c"",""projectId"":""bea99957-1862-4ad8-9558-57b91e42ce64""}","https://test12345.live/?participantId=9CD275406AC94665A77A7F728086CC65&assignmentId=9bc66511-3bc4-49e0-9ef4-ad5fb3a73f7c&projectId=bea99957-1862-4ad8-9558-57b91e42ce64","","1487","
    <div style=""display: flex; justify-content: center; align-items: center;"">
      <img src=""images/red_deck_2.png"" style=""width: 300px; height: 300px; margin-right: 10px;"" />
      <img src=""images/blue_deck_1.png"" style=""width: 300px; height: 300px;"" />
    </div>","0","0",""
"","","","","","html-keyboard-response","27","437494","0.0-22.0-0.0","9CD275406AC94665A77A7F728086CC65","9CD275406AC94665A77A7F728086CC65","9bc66511-3bc4-49e0-9ef4-ad5fb3a73f7c","bea99957-1862-4ad8-9558-57b91e42ce64","{""participantId"":""9CD275406AC94665A77A7F728086CC65"",""assignmentId"":""9bc66511-3bc4-49e0-9ef4-ad5fb3a73f7c"",""projectId"":""bea99957-1862-4ad8-9558-57b91e42ce64""}","https://test12345.live/?participantId=9CD275406AC94665A77A7F728086CC65&assignmentId=9bc66511-3bc4-49e0-9ef4-ad5fb3a73f7c&projectId=bea99957-1862-4ad8-9558-57b91e42ce64","","null","<div style=""display: flex; justify-content: center; align-items: center;"">
                    <img src=""images/semantic/semantic_series_3/semantic_series_3_a.jpg"" style=""width: 300px; height: 300px;"" />
                  </div>","null","",""
"","","","","","html-keyboard-response","28","440497","0.0-22.0-1.0","9CD275406AC94665A77A7F728086CC65","9CD275406AC94665A77A7F728086CC65","9bc66511-3bc4-49e0-9ef4-ad5fb3a73f7c","bea99957-1862-4ad8-9558-57b91e42ce64","{""participantId"":""9CD275406AC94665A77A7F728086CC65"",""assignmentId"":""9bc66511-3bc4-49e0-9ef4-ad5fb3a73f7c"",""projectId"":""bea99957-1862-4ad8-9558-57b91e42ce64""}","https://test12345.live/?participantId=9CD275406AC94665A77A7F728086CC65&assignmentId=9bc66511-3bc4-49e0-9ef4-ad5fb3a73f7c&projectId=bea99957-1862-4ad8-9558-57b91e42ce64","","null","<div style=""display: flex; justify-content: center; align-items: center;"">
                    <img src=""images/semantic/semantic_series_3/semantic_series_3_b.jpg"" style=""width: 300px; height: 300px;"" />
                  </div>","null","",""
"","","","","","html-keyboard-response","29","443499","0.0-22.0-2.0","9CD275406AC94665A77A7F728086CC65","9CD275406AC94665A77A7F728086CC65","9bc66511-3bc4-49e0-9ef4-ad5fb3a73f7c","bea99957-1862-4ad8-9558-57b91e42ce64","{""participantId"":""9CD275406AC94665A77A7F728086CC65"",""assignmentId"":""9bc66511-3bc4-49e0-9ef4-ad5fb3a73f7c"",""projectId"":""bea99957-1862-4ad8-9558-57b91e42ce64""}","https://test12345.live/?participantId=9CD275406AC94665A77A7F728086CC65&assignmentId=9bc66511-3bc4-49e0-9ef4-ad5fb3a73f7c&projectId=bea99957-1862-4ad8-9558-57b91e42ce64","","null","<div style=""display: flex; justify-content: center; align-items: center;"">
                    <img src=""images/semantic/semantic_series_3/semantic_series_3_c.jpg"" style=""width: 300px; height: 300px;"" />
                  </div>","null","",""
"","","","","","html-keyboard-response","30","446508","0.0-22.0-3.0","9CD275406AC94665A77A7F728086CC65","9CD275406AC94665A77A7F728086CC65","9bc66511-3bc4-49e0-9ef4-ad5fb3a73f7c","bea99957-1862-4ad8-9558-57b91e42ce64","{""participantId"":""9CD275406AC94665A77A7F728086CC65"",""assignmentId"":""9bc66511-3bc4-49e0-9ef4-ad5fb3a73f7c"",""projectId"":""bea99957-1862-4ad8-9558-57b91e42ce64""}","https://test12345.live/?participantId=9CD275406AC94665A77A7F728086CC65&assignmentId=9bc66511-3bc4-49e0-9ef4-ad5fb3a73f7c&projectId=bea99957-1862-4ad8-9558-57b91e42ce64","","null","<div style=""display: flex; justify-content: center; align-items: center;"">
                    <img src=""images/semantic/semantic_series_3/semantic_series_3_d.jpg"" style=""width: 300px; height: 300px;"" />
                  </div>","null","",""
"","","","","","html-button-response","31","447807","0.0-23.0","9CD275406AC94665A77A7F728086CC65","9CD275406AC94665A77A7F728086CC65","9bc66511-3bc4-49e0-9ef4-ad5fb3a73f7c","bea99957-1862-4ad8-9558-57b91e42ce64","{""participantId"":""9CD275406AC94665A77A7F728086CC65"",""assignmentId"":""9bc66511-3bc4-49e0-9ef4-ad5fb3a73f7c"",""projectId"":""bea99957-1862-4ad8-9558-57b91e42ce64""}","https://test12345.live/?participantId=9CD275406AC94665A77A7F728086CC65&assignmentId=9bc66511-3bc4-49e0-9ef4-ad5fb3a73f7c&projectId=bea99957-1862-4ad8-9558-57b91e42ce64","","1297","Was there a person in the picture?","0","",""
"","","","","","survey-likert","32","451258","0.0-24.0","9CD275406AC94665A77A7F728086CC65","9CD275406AC94665A77A7F728086CC65","9bc66511-3bc4-49e0-9ef4-ad5fb3a73f7c","bea99957-1862-4ad8-9558-57b91e42ce64","{""participantId"":""9CD275406AC94665A77A7F728086CC65"",""assignmentId"":""9bc66511-3bc4-49e0-9ef4-ad5fb3a73f7c"",""projectId"":""bea99957-1862-4ad8-9558-57b91e42ce64""}","https://test12345.live/?participantId=9CD275406AC94665A77A7F728086CC65&assignmentId=9bc66511-3bc4-49e0-9ef4-ad5fb3a73f7c&projectId=bea99957-1862-4ad8-9558-57b91e42ce64","","3449","","{""Q0"":2}","","[0]"
"","","","","","html-button-response","33","453399","0.0-25.0","9CD275406AC94665A77A7F728086CC65","9CD275406AC94665A77A7F728086CC65","9bc66511-3bc4-49e0-9ef4-ad5fb3a73f7c","bea99957-1862-4ad8-9558-57b91e42ce64","{""participantId"":""9CD275406AC94665A77A7F728086CC65"",""assignmentId"":""9bc66511-3bc4-49e0-9ef4-ad5fb3a73f7c"",""projectId"":""bea99957-1862-4ad8-9558-57b91e42ce64""}","https://test12345.live/?participantId=9CD275406AC94665A77A7F728086CC65&assignmentId=9bc66511-3bc4-49e0-9ef4-ad5fb3a73f7c&projectId=bea99957-1862-4ad8-9558-57b91e42ce64","","2139","
    <div style=""display: flex; justify-content: center; align-items: center;"">
      <img src=""images/red_deck_2.png"" style=""width: 300px; height: 300px; margin-right: 10px;"" />
      <img src=""images/blue_deck_1.png"" style=""width: 300px; height: 300px;"" />
    </div>","0","0",""
"","","","","","html-keyboard-response","34","456403","0.0-27.0-0.0","9CD275406AC94665A77A7F728086CC65","9CD275406AC94665A77A7F728086CC65","9bc66511-3bc4-49e0-9ef4-ad5fb3a73f7c","bea99957-1862-4ad8-9558-57b91e42ce64","{""participantId"":""9CD275406AC94665A77A7F728086CC65"",""assignmentId"":""9bc66511-3bc4-49e0-9ef4-ad5fb3a73f7c"",""projectId"":""bea99957-1862-4ad8-9558-57b91e42ce64""}","https://test12345.live/?participantId=9CD275406AC94665A77A7F728086CC65&assignmentId=9bc66511-3bc4-49e0-9ef4-ad5fb3a73f7c&projectId=bea99957-1862-4ad8-9558-57b91e42ce64","","null","<div style=""display: flex; justify-content: center; align-items: center;"">
                    <img src=""images/semantic/semantic_series_11/semantic_series_11_a.jpg"" style=""width: 300px; height: 300px;"" />
                  </div>","null","",""
"","","","","","html-keyboard-response","35","459406","0.0-27.0-1.0","9CD275406AC94665A77A7F728086CC65","9CD275406AC94665A77A7F728086CC65","9bc66511-3bc4-49e0-9ef4-ad5fb3a73f7c","bea99957-1862-4ad8-9558-57b91e42ce64","{""participantId"":""9CD275406AC94665A77A7F728086CC65"",""assignmentId"":""9bc66511-3bc4-49e0-9ef4-ad5fb3a73f7c"",""projectId"":""bea99957-1862-4ad8-9558-57b91e42ce64""}","https://test12345.live/?participantId=9CD275406AC94665A77A7F728086CC65&assignmentId=9bc66511-3bc4-49e0-9ef4-ad5fb3a73f7c&projectId=bea99957-1862-4ad8-9558-57b91e42ce64","","null","<div style=""display: flex; justify-content: center; align-items: center;"">
                    <img src=""images/semantic/semantic_series_11/semantic_series_11_b.jpg"" style=""width: 300px; height: 300px;"" />
                  </div>","null","",""
"","","","","","html-keyboard-response","36","462418","0.0-27.0-2.0","9CD275406AC94665A77A7F728086CC65","9CD275406AC94665A77A7F728086CC65","9bc66511-3bc4-49e0-9ef4-ad5fb3a73f7c","bea99957-1862-4ad8-9558-57b91e42ce64","{""participantId"":""9CD275406AC94665A77A7F728086CC65"",""assignmentId"":""9bc66511-3bc4-49e0-9ef4-ad5fb3a73f7c"",""projectId"":""bea99957-1862-4ad8-9558-57b91e42ce64""}","https://test12345.live/?participantId=9CD275406AC94665A77A7F728086CC65&assignmentId=9bc66511-3bc4-49e0-9ef4-ad5fb3a73f7c&projectId=bea99957-1862-4ad8-9558-57b91e42ce64","","null","<div style=""display: flex; justify-content: center; align-items: center;"">
                    <img src=""images/semantic/semantic_series_11/semantic_series_11_c.jpg"" style=""width: 300px; height: 300px;"" />
                  </div>","null","",""
"","","","","","html-keyboard-response","37","465418","0.0-27.0-3.0","9CD275406AC94665A77A7F728086CC65","9CD275406AC94665A77A7F728086CC65","9bc66511-3bc4-49e0-9ef4-ad5fb3a73f7c","bea99957-1862-4ad8-9558-57b91e42ce64","{""participantId"":""9CD275406AC94665A77A7F728086CC65"",""assignmentId"":""9bc66511-3bc4-49e0-9ef4-ad5fb3a73f7c"",""projectId"":""bea99957-1862-4ad8-9558-57b91e42ce64""}","https://test12345.live/?participantId=9CD275406AC94665A77A7F728086CC65&assignmentId=9bc66511-3bc4-49e0-9ef4-ad5fb3a73f7c&projectId=bea99957-1862-4ad8-9558-57b91e42ce64","","null","<div style=""display: flex; justify-content: center; align-items: center;"">
                    <img src=""images/semantic/semantic_series_11/semantic_series_11_d.jpg"" style=""width: 300px; height: 300px;"" />
                  </div>","null","",""
"","","","","","html-button-response","38","466603","0.0-28.0","9CD275406AC94665A77A7F728086CC65","9CD275406AC94665A77A7F728086CC65","9bc66511-3bc4-49e0-9ef4-ad5fb3a73f7c","bea99957-1862-4ad8-9558-57b91e42ce64","{""participantId"":""9CD275406AC94665A77A7F728086CC65"",""assignmentId"":""9bc66511-3bc4-49e0-9ef4-ad5fb3a73f7c"",""projectId"":""bea99957-1862-4ad8-9558-57b91e42ce64""}","https://test12345.live/?participantId=9CD275406AC94665A77A7F728086CC65&assignmentId=9bc66511-3bc4-49e0-9ef4-ad5fb3a73f7c&projectId=bea99957-1862-4ad8-9558-57b91e42ce64","","1183","Was there a person in the picture?","0","",""
"","","","","","survey-likert","39","469742","0.0-29.0","9CD275406AC94665A77A7F728086CC65","9CD275406AC94665A77A7F728086CC65","9bc66511-3bc4-49e0-9ef4-ad5fb3a73f7c","bea99957-1862-4ad8-9558-57b91e42ce64","{""participantId"":""9CD275406AC94665A77A7F728086CC65"",""assignmentId"":""9bc66511-3bc4-49e0-9ef4-ad5fb3a73f7c"",""projectId"":""bea99957-1862-4ad8-9558-57b91e42ce64""}","https://test12345.live/?participantId=9CD275406AC94665A77A7F728086CC65&assignmentId=9bc66511-3bc4-49e0-9ef4-ad5fb3a73f7c&projectId=bea99957-1862-4ad8-9558-57b91e42ce64","","3138","","{""Q0"":1}","","[0]"
"","","","","","html-button-response","40","472184","0.0-30.0","9CD275406AC94665A77A7F728086CC65","9CD275406AC94665A77A7F728086CC65","9bc66511-3bc4-49e0-9ef4-ad5fb3a73f7c","bea99957-1862-4ad8-9558-57b91e42ce64","{""participantId"":""9CD275406AC94665A77A7F728086CC65"",""assignmentId"":""9bc66511-3bc4-49e0-9ef4-ad5fb3a73f7c"",""projectId"":""bea99957-1862-4ad8-9558-57b91e42ce64""}","https://test12345.live/?participantId=9CD275406AC94665A77A7F728086CC65&assignmentId=9bc66511-3bc4-49e0-9ef4-ad5fb3a73f7c&projectId=bea99957-1862-4ad8-9558-57b91e42ce64","","2441","
    <div style=""display: flex; justify-content: center; align-items: center;"">
      <img src=""images/red_deck_2.png"" style=""width: 300px; height: 300px; margin-right: 10px;"" />
      <img src=""images/blue_deck_1.png"" style=""width: 300px; height: 300px;"" />
    </div>","0","0",""
"","","","","","html-keyboard-response","41","475187","0.0-32.0-0.0","9CD275406AC94665A77A7F728086CC65","9CD275406AC94665A77A7F728086CC65","9bc66511-3bc4-49e0-9ef4-ad5fb3a73f7c","bea99957-1862-4ad8-9558-57b91e42ce64","{""participantId"":""9CD275406AC94665A77A7F728086CC65"",""assignmentId"":""9bc66511-3bc4-49e0-9ef4-ad5fb3a73f7c"",""projectId"":""bea99957-1862-4ad8-9558-57b91e42ce64""}","https://test12345.live/?participantId=9CD275406AC94665A77A7F728086CC65&assignmentId=9bc66511-3bc4-49e0-9ef4-ad5fb3a73f7c&projectId=bea99957-1862-4ad8-9558-57b91e42ce64","","null","<div style=""display: flex; justify-content: center; align-items: center;"">
                    <img src=""images/semantic/semantic_series_8/semantic_series_8_a.jpg"" style=""width: 300px; height: 300px;"" />
                  </div>","null","",""
"","","","","","html-keyboard-response","42","478201","0.0-32.0-1.0","9CD275406AC94665A77A7F728086CC65","9CD275406AC94665A77A7F728086CC65","9bc66511-3bc4-49e0-9ef4-ad5fb3a73f7c","bea99957-1862-4ad8-9558-57b91e42ce64","{""participantId"":""9CD275406AC94665A77A7F728086CC65"",""assignmentId"":""9bc66511-3bc4-49e0-9ef4-ad5fb3a73f7c"",""projectId"":""bea99957-1862-4ad8-9558-57b91e42ce64""}","https://test12345.live/?participantId=9CD275406AC94665A77A7F728086CC65&assignmentId=9bc66511-3bc4-49e0-9ef4-ad5fb3a73f7c&projectId=bea99957-1862-4ad8-9558-57b91e42ce64","","null","<div style=""display: flex; justify-content: center; align-items: center;"">
                    <img src=""images/semantic/semantic_series_8/semantic_series_8_b.jpg"" style=""width: 300px; height: 300px;"" />
                  </div>","null","",""
"","","","","","html-keyboard-response","43","481215","0.0-32.0-2.0","9CD275406AC94665A77A7F728086CC65","9CD275406AC94665A77A7F728086CC65","9bc66511-3bc4-49e0-9ef4-ad5fb3a73f7c","bea99957-1862-4ad8-9558-57b91e42ce64","{""participantId"":""9CD275406AC94665A77A7F728086CC65"",""assignmentId"":""9bc66511-3bc4-49e0-9ef4-ad5fb3a73f7c"",""projectId"":""bea99957-1862-4ad8-9558-57b91e42ce64""}","https://test12345.live/?participantId=9CD275406AC94665A77A7F728086CC65&assignmentId=9bc66511-3bc4-49e0-9ef4-ad5fb3a73f7c&projectId=bea99957-1862-4ad8-9558-57b91e42ce64","","null","<div style=""display: flex; justify-content: center; align-items: center;"">
                    <img src=""images/semantic/semantic_series_8/semantic_series_8_c.jpg"" style=""width: 300px; height: 300px;"" />
                  </div>","null","",""
"","","","","","html-keyboard-response","44","484225","0.0-32.0-3.0","9CD275406AC94665A77A7F728086CC65","9CD275406AC94665A77A7F728086CC65","9bc66511-3bc4-49e0-9ef4-ad5fb3a73f7c","bea99957-1862-4ad8-9558-57b91e42ce64","{""participantId"":""9CD275406AC94665A77A7F728086CC65"",""assignmentId"":""9bc66511-3bc4-49e0-9ef4-ad5fb3a73f7c"",""projectId"":""bea99957-1862-4ad8-9558-57b91e42ce64""}","https://test12345.live/?participantId=9CD275406AC94665A77A7F728086CC65&assignmentId=9bc66511-3bc4-49e0-9ef4-ad5fb3a73f7c&projectId=bea99957-1862-4ad8-9558-57b91e42ce64","","null","<div style=""display: flex; justify-content: center; align-items: center;"">
                    <img src=""images/semantic/semantic_series_8/semantic_series_8_d.jpg"" style=""width: 300px; height: 300px;"" />
                  </div>","null","",""
"","","","","","html-button-response","45","485461","0.0-33.0","9CD275406AC94665A77A7F728086CC65","9CD275406AC94665A77A7F728086CC65","9bc66511-3bc4-49e0-9ef4-ad5fb3a73f7c","bea99957-1862-4ad8-9558-57b91e42ce64","{""participantId"":""9CD275406AC94665A77A7F728086CC65"",""assignmentId"":""9bc66511-3bc4-49e0-9ef4-ad5fb3a73f7c"",""projectId"":""bea99957-1862-4ad8-9558-57b91e42ce64""}","https://test12345.live/?participantId=9CD275406AC94665A77A7F728086CC65&assignmentId=9bc66511-3bc4-49e0-9ef4-ad5fb3a73f7c&projectId=bea99957-1862-4ad8-9558-57b91e42ce64","","1234","Was there a person in the picture?","1","",""
"","","","","","survey-likert","46","488385","0.0-34.0","9CD275406AC94665A77A7F728086CC65","9CD275406AC94665A77A7F728086CC65","9bc66511-3bc4-49e0-9ef4-ad5fb3a73f7c","bea99957-1862-4ad8-9558-57b91e42ce64","{""participantId"":""9CD275406AC94665A77A7F728086CC65"",""assignmentId"":""9bc66511-3bc4-49e0-9ef4-ad5fb3a73f7c"",""projectId"":""bea99957-1862-4ad8-9558-57b91e42ce64""}","https://test12345.live/?participantId=9CD275406AC94665A77A7F728086CC65&assignmentId=9bc66511-3bc4-49e0-9ef4-ad5fb3a73f7c&projectId=bea99957-1862-4ad8-9558-57b91e42ce64","","2923","","{""Q0"":2}","","[0]"
"","","","","","html-button-response","47","490931","0.0-35.0","9CD275406AC94665A77A7F728086CC65","9CD275406AC94665A77A7F728086CC65","9bc66511-3bc4-49e0-9ef4-ad5fb3a73f7c","bea99957-1862-4ad8-9558-57b91e42ce64","{""participantId"":""9CD275406AC94665A77A7F728086CC65"",""assignmentId"":""9bc66511-3bc4-49e0-9ef4-ad5fb3a73f7c"",""projectId"":""bea99957-1862-4ad8-9558-57b91e42ce64""}","https://test12345.live/?participantId=9CD275406AC94665A77A7F728086CC65&assignmentId=9bc66511-3bc4-49e0-9ef4-ad5fb3a73f7c&projectId=bea99957-1862-4ad8-9558-57b91e42ce64","","2544","
    <div style=""display: flex; justify-content: center; align-items: center;"">
      <img src=""images/red_deck_2.png"" style=""width: 300px; height: 300px; margin-right: 10px;"" />
      <img src=""images/blue_deck_1.png"" style=""width: 300px; height: 300px;"" />
    </div>","1","1",""
"","","","","","html-keyboard-response","48","493937","0.0-36.0-0.0","9CD275406AC94665A77A7F728086CC65","9CD275406AC94665A77A7F728086CC65","9bc66511-3bc4-49e0-9ef4-ad5fb3a73f7c","bea99957-1862-4ad8-9558-57b91e42ce64","{""participantId"":""9CD275406AC94665A77A7F728086CC65"",""assignmentId"":""9bc66511-3bc4-49e0-9ef4-ad5fb3a73f7c"",""projectId"":""bea99957-1862-4ad8-9558-57b91e42ce64""}","https://test12345.live/?participantId=9CD275406AC94665A77A7F728086CC65&assignmentId=9bc66511-3bc4-49e0-9ef4-ad5fb3a73f7c&projectId=bea99957-1862-4ad8-9558-57b91e42ce64","","null","<div style=""display: flex; justify-content: center; align-items: center;"">
                    <img src=""images/causal/causal_series_12/causal_series_12_a.jpg"" style=""width: 300px; height: 300px;"" />
                  </div>","null","",""
"","","","","","html-keyboard-response","49","496943","0.0-36.0-1.0","9CD275406AC94665A77A7F728086CC65","9CD275406AC94665A77A7F728086CC65","9bc66511-3bc4-49e0-9ef4-ad5fb3a73f7c","bea99957-1862-4ad8-9558-57b91e42ce64","{""participantId"":""9CD275406AC94665A77A7F728086CC65"",""assignmentId"":""9bc66511-3bc4-49e0-9ef4-ad5fb3a73f7c"",""projectId"":""bea99957-1862-4ad8-9558-57b91e42ce64""}","https://test12345.live/?participantId=9CD275406AC94665A77A7F728086CC65&assignmentId=9bc66511-3bc4-49e0-9ef4-ad5fb3a73f7c&projectId=bea99957-1862-4ad8-9558-57b91e42ce64","","null","<div style=""display: flex; justify-content: center; align-items: center;"">
                    <img src=""images/causal/causal_series_12/causal_series_12_b.jpg"" style=""width: 300px; height: 300px;"" />
                  </div>","null","",""
"","","","","","html-keyboard-response","50","499954","0.0-36.0-2.0","9CD275406AC94665A77A7F728086CC65","9CD275406AC94665A77A7F728086CC65","9bc66511-3bc4-49e0-9ef4-ad5fb3a73f7c","bea99957-1862-4ad8-9558-57b91e42ce64","{""participantId"":""9CD275406AC94665A77A7F728086CC65"",""assignmentId"":""9bc66511-3bc4-49e0-9ef4-ad5fb3a73f7c"",""projectId"":""bea99957-1862-4ad8-9558-57b91e42ce64""}","https://test12345.live/?participantId=9CD275406AC94665A77A7F728086CC65&assignmentId=9bc66511-3bc4-49e0-9ef4-ad5fb3a73f7c&projectId=bea99957-1862-4ad8-9558-57b91e42ce64","","null","<div style=""display: flex; justify-content: center; align-items: center;"">
                    <img src=""images/causal/causal_series_12/causal_series_12_c.jpg"" style=""width: 300px; height: 300px;"" />
                  </div>","null","",""
"","","","","","html-keyboard-response","51","502966","0.0-36.0-3.0","9CD275406AC94665A77A7F728086CC65","9CD275406AC94665A77A7F728086CC65","9bc66511-3bc4-49e0-9ef4-ad5fb3a73f7c","bea99957-1862-4ad8-9558-57b91e42ce64","{""participantId"":""9CD275406AC94665A77A7F728086CC65"",""assignmentId"":""9bc66511-3bc4-49e0-9ef4-ad5fb3a73f7c"",""projectId"":""bea99957-1862-4ad8-9558-57b91e42ce64""}","https://test12345.live/?participantId=9CD275406AC94665A77A7F728086CC65&assignmentId=9bc66511-3bc4-49e0-9ef4-ad5fb3a73f7c&projectId=bea99957-1862-4ad8-9558-57b91e42ce64","","null","<div style=""display: flex; justify-content: center; align-items: center;"">
                    <img src=""images/causal/causal_series_12/causal_series_12_d.jpg"" style=""width: 300px; height: 300px;"" />
                  </div>","null","",""
"","","","","","html-button-response","52","504680","0.0-38.0","9CD275406AC94665A77A7F728086CC65","9CD275406AC94665A77A7F728086CC65","9bc66511-3bc4-49e0-9ef4-ad5fb3a73f7c","bea99957-1862-4ad8-9558-57b91e42ce64","{""participantId"":""9CD275406AC94665A77A7F728086CC65"",""assignmentId"":""9bc66511-3bc4-49e0-9ef4-ad5fb3a73f7c"",""projectId"":""bea99957-1862-4ad8-9558-57b91e42ce64""}","https://test12345.live/?participantId=9CD275406AC94665A77A7F728086CC65&assignmentId=9bc66511-3bc4-49e0-9ef4-ad5fb3a73f7c&projectId=bea99957-1862-4ad8-9558-57b91e42ce64","","1712","Was there a person in the picture?","1","",""
"","","","","","survey-likert","53","507208","0.0-39.0","9CD275406AC94665A77A7F728086CC65","9CD275406AC94665A77A7F728086CC65","9bc66511-3bc4-49e0-9ef4-ad5fb3a73f7c","bea99957-1862-4ad8-9558-57b91e42ce64","{""participantId"":""9CD275406AC94665A77A7F728086CC65"",""assignmentId"":""9bc66511-3bc4-49e0-9ef4-ad5fb3a73f7c"",""projectId"":""bea99957-1862-4ad8-9558-57b91e42ce64""}","https://test12345.live/?participantId=9CD275406AC94665A77A7F728086CC65&assignmentId=9bc66511-3bc4-49e0-9ef4-ad5fb3a73f7c&projectId=bea99957-1862-4ad8-9558-57b91e42ce64","","2527","","{""Q0"":1}","","[0]"
"","","","","","html-button-response","54","508218","0.0-40.0","9CD275406AC94665A77A7F728086CC65","9CD275406AC94665A77A7F728086CC65","9bc66511-3bc4-49e0-9ef4-ad5fb3a73f7c","bea99957-1862-4ad8-9558-57b91e42ce64","{""participantId"":""9CD275406AC94665A77A7F728086CC65"",""assignmentId"":""9bc66511-3bc4-49e0-9ef4-ad5fb3a73f7c"",""projectId"":""bea99957-1862-4ad8-9558-57b91e42ce64""}","https://test12345.live/?participantId=9CD275406AC94665A77A7F728086CC65&assignmentId=9bc66511-3bc4-49e0-9ef4-ad5fb3a73f7c&projectId=bea99957-1862-4ad8-9558-57b91e42ce64","","1009","
    <div style=""display: flex; justify-content: center; align-items: center;"">
      <img src=""images/red_deck_2.png"" style=""width: 300px; height: 300px; margin-right: 10px;"" />
      <img src=""images/blue_deck_1.png"" style=""width: 300px; height: 300px;"" />
    </div>","1","1",""
"","","","","","html-keyboard-response","55","511232","0.0-41.0-0.0","9CD275406AC94665A77A7F728086CC65","9CD275406AC94665A77A7F728086CC65","9bc66511-3bc4-49e0-9ef4-ad5fb3a73f7c","bea99957-1862-4ad8-9558-57b91e42ce64","{""participantId"":""9CD275406AC94665A77A7F728086CC65"",""assignmentId"":""9bc66511-3bc4-49e0-9ef4-ad5fb3a73f7c"",""projectId"":""bea99957-1862-4ad8-9558-57b91e42ce64""}","https://test12345.live/?participantId=9CD275406AC94665A77A7F728086CC65&assignmentId=9bc66511-3bc4-49e0-9ef4-ad5fb3a73f7c&projectId=bea99957-1862-4ad8-9558-57b91e42ce64","","null","<div style=""display: flex; justify-content: center; align-items: center;"">
                    <img src=""images/causal/causal_series_10/causal_series_10_a.jpg"" style=""width: 300px; height: 300px;"" />
                  </div>","null","",""
"","","","","","html-keyboard-response","56","514239","0.0-41.0-1.0","9CD275406AC94665A77A7F728086CC65","9CD275406AC94665A77A7F728086CC65","9bc66511-3bc4-49e0-9ef4-ad5fb3a73f7c","bea99957-1862-4ad8-9558-57b91e42ce64","{""participantId"":""9CD275406AC94665A77A7F728086CC65"",""assignmentId"":""9bc66511-3bc4-49e0-9ef4-ad5fb3a73f7c"",""projectId"":""bea99957-1862-4ad8-9558-57b91e42ce64""}","https://test12345.live/?participantId=9CD275406AC94665A77A7F728086CC65&assignmentId=9bc66511-3bc4-49e0-9ef4-ad5fb3a73f7c&projectId=bea99957-1862-4ad8-9558-57b91e42ce64","","null","<div style=""display: flex; justify-content: center; align-items: center;"">
                    <img src=""images/causal/causal_series_10/causal_series_10_b.jpg"" style=""width: 300px; height: 300px;"" />
                  </div>","null","",""
"","","","","","html-keyboard-response","57","517255","0.0-41.0-2.0","9CD275406AC94665A77A7F728086CC65","9CD275406AC94665A77A7F728086CC65","9bc66511-3bc4-49e0-9ef4-ad5fb3a73f7c","bea99957-1862-4ad8-9558-57b91e42ce64","{""participantId"":""9CD275406AC94665A77A7F728086CC65"",""assignmentId"":""9bc66511-3bc4-49e0-9ef4-ad5fb3a73f7c"",""projectId"":""bea99957-1862-4ad8-9558-57b91e42ce64""}","https://test12345.live/?participantId=9CD275406AC94665A77A7F728086CC65&assignmentId=9bc66511-3bc4-49e0-9ef4-ad5fb3a73f7c&projectId=bea99957-1862-4ad8-9558-57b91e42ce64","","null","<div style=""display: flex; justify-content: center; align-items: center;"">
                    <img src=""images/causal/causal_series_10/causal_series_10_c.jpg"" style=""width: 300px; height: 300px;"" />
                  </div>","null","",""
"","","","","","html-keyboard-response","58","520265","0.0-41.0-3.0","9CD275406AC94665A77A7F728086CC65","9CD275406AC94665A77A7F728086CC65","9bc66511-3bc4-49e0-9ef4-ad5fb3a73f7c","bea99957-1862-4ad8-9558-57b91e42ce64","{""participantId"":""9CD275406AC94665A77A7F728086CC65"",""assignmentId"":""9bc66511-3bc4-49e0-9ef4-ad5fb3a73f7c"",""projectId"":""bea99957-1862-4ad8-9558-57b91e42ce64""}","https://test12345.live/?participantId=9CD275406AC94665A77A7F728086CC65&assignmentId=9bc66511-3bc4-49e0-9ef4-ad5fb3a73f7c&projectId=bea99957-1862-4ad8-9558-57b91e42ce64","","null","<div style=""display: flex; justify-content: center; align-items: center;"">
                    <img src=""images/causal/causal_series_10/causal_series_10_d.jpg"" style=""width: 300px; height: 300px;"" />
                  </div>","null","",""
"","","","","","html-button-response","59","522025","0.0-43.0","9CD275406AC94665A77A7F728086CC65","9CD275406AC94665A77A7F728086CC65","9bc66511-3bc4-49e0-9ef4-ad5fb3a73f7c","bea99957-1862-4ad8-9558-57b91e42ce64","{""participantId"":""9CD275406AC94665A77A7F728086CC65"",""assignmentId"":""9bc66511-3bc4-49e0-9ef4-ad5fb3a73f7c"",""projectId"":""bea99957-1862-4ad8-9558-57b91e42ce64""}","https://test12345.live/?participantId=9CD275406AC94665A77A7F728086CC65&assignmentId=9bc66511-3bc4-49e0-9ef4-ad5fb3a73f7c&projectId=bea99957-1862-4ad8-9558-57b91e42ce64","","1759","Was there a person in the picture?","1","",""
"","","","","","survey-likert","60","524883","0.0-44.0","9CD275406AC94665A77A7F728086CC65","9CD275406AC94665A77A7F728086CC65","9bc66511-3bc4-49e0-9ef4-ad5fb3a73f7c","bea99957-1862-4ad8-9558-57b91e42ce64","{""participantId"":""9CD275406AC94665A77A7F728086CC65"",""assignmentId"":""9bc66511-3bc4-49e0-9ef4-ad5fb3a73f7c"",""projectId"":""bea99957-1862-4ad8-9558-57b91e42ce64""}","https://test12345.live/?participantId=9CD275406AC94665A77A7F728086CC65&assignmentId=9bc66511-3bc4-49e0-9ef4-ad5fb3a73f7c&projectId=bea99957-1862-4ad8-9558-57b91e42ce64","","2857","","{""Q0"":2}","","[0]"
"","","","","","html-button-response","61","526813","0.0-45.0","9CD275406AC94665A77A7F728086CC65","9CD275406AC94665A77A7F728086CC65","9bc66511-3bc4-49e0-9ef4-ad5fb3a73f7c","bea99957-1862-4ad8-9558-57b91e42ce64","{""participantId"":""9CD275406AC94665A77A7F728086CC65"",""assignmentId"":""9bc66511-3bc4-49e0-9ef4-ad5fb3a73f7c"",""projectId"":""bea99957-1862-4ad8-9558-57b91e42ce64""}","https://test12345.live/?participantId=9CD275406AC94665A77A7F728086CC65&assignmentId=9bc66511-3bc4-49e0-9ef4-ad5fb3a73f7c&projectId=bea99957-1862-4ad8-9558-57b91e42ce64","","1929","
    <div style=""display: flex; justify-content: center; align-items: center;"">
      <img src=""images/red_deck_2.png"" style=""width: 300px; height: 300px; margin-right: 10px;"" />
      <img src=""images/blue_deck_1.png"" style=""width: 300px; height: 300px;"" />
    </div>","1","1",""
"","","","","","html-keyboard-response","62","529819","0.0-46.0-0.0","9CD275406AC94665A77A7F728086CC65","9CD275406AC94665A77A7F728086CC65","9bc66511-3bc4-49e0-9ef4-ad5fb3a73f7c","bea99957-1862-4ad8-9558-57b91e42ce64","{""participantId"":""9CD275406AC94665A77A7F728086CC65"",""assignmentId"":""9bc66511-3bc4-49e0-9ef4-ad5fb3a73f7c"",""projectId"":""bea99957-1862-4ad8-9558-57b91e42ce64""}","https://test12345.live/?participantId=9CD275406AC94665A77A7F728086CC65&assignmentId=9bc66511-3bc4-49e0-9ef4-ad5fb3a73f7c&projectId=bea99957-1862-4ad8-9558-57b91e42ce64","","null","<div style=""display: flex; justify-content: center; align-items: center;"">
                    <img src=""images/causal/causal_series_17/causal_series_17_a.jpg"" style=""width: 300px; height: 300px;"" />
                  </div>","null","",""
"","","","","","html-keyboard-response","63","532824","0.0-46.0-1.0","9CD275406AC94665A77A7F728086CC65","9CD275406AC94665A77A7F728086CC65","9bc66511-3bc4-49e0-9ef4-ad5fb3a73f7c","bea99957-1862-4ad8-9558-57b91e42ce64","{""participantId"":""9CD275406AC94665A77A7F728086CC65"",""assignmentId"":""9bc66511-3bc4-49e0-9ef4-ad5fb3a73f7c"",""projectId"":""bea99957-1862-4ad8-9558-57b91e42ce64""}","https://test12345.live/?participantId=9CD275406AC94665A77A7F728086CC65&assignmentId=9bc66511-3bc4-49e0-9ef4-ad5fb3a73f7c&projectId=bea99957-1862-4ad8-9558-57b91e42ce64","","null","<div style=""display: flex; justify-content: center; align-items: center;"">
                    <img src=""images/causal/causal_series_17/causal_series_17_b.jpg"" style=""width: 300px; height: 300px;"" />
                  </div>","null","",""
"","","","","","html-keyboard-response","64","535826","0.0-46.0-2.0","9CD275406AC94665A77A7F728086CC65","9CD275406AC94665A77A7F728086CC65","9bc66511-3bc4-49e0-9ef4-ad5fb3a73f7c","bea99957-1862-4ad8-9558-57b91e42ce64","{""participantId"":""9CD275406AC94665A77A7F728086CC65"",""assignmentId"":""9bc66511-3bc4-49e0-9ef4-ad5fb3a73f7c"",""projectId"":""bea99957-1862-4ad8-9558-57b91e42ce64""}","https://test12345.live/?participantId=9CD275406AC94665A77A7F728086CC65&assignmentId=9bc66511-3bc4-49e0-9ef4-ad5fb3a73f7c&projectId=bea99957-1862-4ad8-9558-57b91e42ce64","","null","<div style=""display: flex; justify-content: center; align-items: center;"">
                    <img src=""images/causal/causal_series_17/causal_series_17_c.jpg"" style=""width: 300px; height: 300px;"" />
                  </div>","null","",""
"","","","","","html-keyboard-response","65","538840","0.0-46.0-3.0","9CD275406AC94665A77A7F728086CC65","9CD275406AC94665A77A7F728086CC65","9bc66511-3bc4-49e0-9ef4-ad5fb3a73f7c","bea99957-1862-4ad8-9558-57b91e42ce64","{""participantId"":""9CD275406AC94665A77A7F728086CC65"",""assignmentId"":""9bc66511-3bc4-49e0-9ef4-ad5fb3a73f7c"",""projectId"":""bea99957-1862-4ad8-9558-57b91e42ce64""}","https://test12345.live/?participantId=9CD275406AC94665A77A7F728086CC65&assignmentId=9bc66511-3bc4-49e0-9ef4-ad5fb3a73f7c&projectId=bea99957-1862-4ad8-9558-57b91e42ce64","","null","<div style=""display: flex; justify-content: center; align-items: center;"">
                    <img src=""images/causal/causal_series_17/causal_series_17_d.jpg"" style=""width: 300px; height: 300px;"" />
                  </div>","null","",""
"","","","","","html-button-response","66","545289","0.0-48.0","9CD275406AC94665A77A7F728086CC65","9CD275406AC94665A77A7F728086CC65","9bc66511-3bc4-49e0-9ef4-ad5fb3a73f7c","bea99957-1862-4ad8-9558-57b91e42ce64","{""participantId"":""9CD275406AC94665A77A7F728086CC65"",""assignmentId"":""9bc66511-3bc4-49e0-9ef4-ad5fb3a73f7c"",""projectId"":""bea99957-1862-4ad8-9558-57b91e42ce64""}","https://test12345.live/?participantId=9CD275406AC94665A77A7F728086CC65&assignmentId=9bc66511-3bc4-49e0-9ef4-ad5fb3a73f7c&projectId=bea99957-1862-4ad8-9558-57b91e42ce64","","6447","Was there a person in the picture?","1","",""
"","","","","","survey-likert","67","547706","0.0-49.0","9CD275406AC94665A77A7F728086CC65","9CD275406AC94665A77A7F728086CC65","9bc66511-3bc4-49e0-9ef4-ad5fb3a73f7c","bea99957-1862-4ad8-9558-57b91e42ce64","{""participantId"":""9CD275406AC94665A77A7F728086CC65"",""assignmentId"":""9bc66511-3bc4-49e0-9ef4-ad5fb3a73f7c"",""projectId"":""bea99957-1862-4ad8-9558-57b91e42ce64""}","https://test12345.live/?participantId=9CD275406AC94665A77A7F728086CC65&assignmentId=9bc66511-3bc4-49e0-9ef4-ad5fb3a73f7c&projectId=bea99957-1862-4ad8-9558-57b91e42ce64","","2417","","{""Q0"":2}","","[0]"
"","","","","","html-button-response","68","549114","0.0-50.0","9CD275406AC94665A77A7F728086CC65","9CD275406AC94665A77A7F728086CC65","9bc66511-3bc4-49e0-9ef4-ad5fb3a73f7c","bea99957-1862-4ad8-9558-57b91e42ce64","{""participantId"":""9CD275406AC94665A77A7F728086CC65"",""assignmentId"":""9bc66511-3bc4-49e0-9ef4-ad5fb3a73f7c"",""projectId"":""bea99957-1862-4ad8-9558-57b91e42ce64""}","https://test12345.live/?participantId=9CD275406AC94665A77A7F728086CC65&assignmentId=9bc66511-3bc4-49e0-9ef4-ad5fb3a73f7c&projectId=bea99957-1862-4ad8-9558-57b91e42ce64","","1407","
    <div style=""display: flex; justify-content: center; align-items: center;"">
      <img src=""images/red_deck_2.png"" style=""width: 300px; height: 300px; margin-right: 10px;"" />
      <img src=""images/blue_deck_1.png"" style=""width: 300px; height: 300px;"" />
    </div>","0","0",""
"","","","","","html-keyboard-response","69","552116","0.0-52.0-0.0","9CD275406AC94665A77A7F728086CC65","9CD275406AC94665A77A7F728086CC65","9bc66511-3bc4-49e0-9ef4-ad5fb3a73f7c","bea99957-1862-4ad8-9558-57b91e42ce64","{""participantId"":""9CD275406AC94665A77A7F728086CC65"",""assignmentId"":""9bc66511-3bc4-49e0-9ef4-ad5fb3a73f7c"",""projectId"":""bea99957-1862-4ad8-9558-57b91e42ce64""}","https://test12345.live/?participantId=9CD275406AC94665A77A7F728086CC65&assignmentId=9bc66511-3bc4-49e0-9ef4-ad5fb3a73f7c&projectId=bea99957-1862-4ad8-9558-57b91e42ce64","","null","<div style=""display: flex; justify-content: center; align-items: center;"">
                    <img src=""images/semantic/semantic_series_15/semantic_series_15_a.jpg"" style=""width: 300px; height: 300px;"" />
                  </div>","null","",""
"","","","","","html-keyboard-response","70","555123","0.0-52.0-1.0","9CD275406AC94665A77A7F728086CC65","9CD275406AC94665A77A7F728086CC65","9bc66511-3bc4-49e0-9ef4-ad5fb3a73f7c","bea99957-1862-4ad8-9558-57b91e42ce64","{""participantId"":""9CD275406AC94665A77A7F728086CC65"",""assignmentId"":""9bc66511-3bc4-49e0-9ef4-ad5fb3a73f7c"",""projectId"":""bea99957-1862-4ad8-9558-57b91e42ce64""}","https://test12345.live/?participantId=9CD275406AC94665A77A7F728086CC65&assignmentId=9bc66511-3bc4-49e0-9ef4-ad5fb3a73f7c&projectId=bea99957-1862-4ad8-9558-57b91e42ce64","","null","<div style=""display: flex; justify-content: center; align-items: center;"">
                    <img src=""images/semantic/semantic_series_15/semantic_series_15_b.jpg"" style=""width: 300px; height: 300px;"" />
                  </div>","null","",""
"","","","","","html-keyboard-response","71","558126","0.0-52.0-2.0","9CD275406AC94665A77A7F728086CC65","9CD275406AC94665A77A7F728086CC65","9bc66511-3bc4-49e0-9ef4-ad5fb3a73f7c","bea99957-1862-4ad8-9558-57b91e42ce64","{""participantId"":""9CD275406AC94665A77A7F728086CC65"",""assignmentId"":""9bc66511-3bc4-49e0-9ef4-ad5fb3a73f7c"",""projectId"":""bea99957-1862-4ad8-9558-57b91e42ce64""}","https://test12345.live/?participantId=9CD275406AC94665A77A7F728086CC65&assignmentId=9bc66511-3bc4-49e0-9ef4-ad5fb3a73f7c&projectId=bea99957-1862-4ad8-9558-57b91e42ce64","","null","<div style=""display: flex; justify-content: center; align-items: center;"">
                    <img src=""images/semantic/semantic_series_15/semantic_series_15_c.jpg"" style=""width: 300px; height: 300px;"" />
                  </div>","null","",""
"","","","","","html-keyboard-response","72","561142","0.0-52.0-3.0","9CD275406AC94665A77A7F728086CC65","9CD275406AC94665A77A7F728086CC65","9bc66511-3bc4-49e0-9ef4-ad5fb3a73f7c","bea99957-1862-4ad8-9558-57b91e42ce64","{""participantId"":""9CD275406AC94665A77A7F728086CC65"",""assignmentId"":""9bc66511-3bc4-49e0-9ef4-ad5fb3a73f7c"",""projectId"":""bea99957-1862-4ad8-9558-57b91e42ce64""}","https://test12345.live/?participantId=9CD275406AC94665A77A7F728086CC65&assignmentId=9bc66511-3bc4-49e0-9ef4-ad5fb3a73f7c&projectId=bea99957-1862-4ad8-9558-57b91e42ce64","","null","<div style=""display: flex; justify-content: center; align-items: center;"">
                    <img src=""images/semantic/semantic_series_15/semantic_series_15_d.jpg"" style=""width: 300px; height: 300px;"" />
                  </div>","null","",""
"","","","","","html-button-response","73","562751","0.0-53.0","9CD275406AC94665A77A7F728086CC65","9CD275406AC94665A77A7F728086CC65","9bc66511-3bc4-49e0-9ef4-ad5fb3a73f7c","bea99957-1862-4ad8-9558-57b91e42ce64","{""participantId"":""9CD275406AC94665A77A7F728086CC65"",""assignmentId"":""9bc66511-3bc4-49e0-9ef4-ad5fb3a73f7c"",""projectId"":""bea99957-1862-4ad8-9558-57b91e42ce64""}","https://test12345.live/?participantId=9CD275406AC94665A77A7F728086CC65&assignmentId=9bc66511-3bc4-49e0-9ef4-ad5fb3a73f7c&projectId=bea99957-1862-4ad8-9558-57b91e42ce64","","1608","Was there a person in the picture?","1","",""
"","","","","","survey-likert","74","565583","0.0-54.0","9CD275406AC94665A77A7F728086CC65","9CD275406AC94665A77A7F728086CC65","9bc66511-3bc4-49e0-9ef4-ad5fb3a73f7c","bea99957-1862-4ad8-9558-57b91e42ce64","{""participantId"":""9CD275406AC94665A77A7F728086CC65"",""assignmentId"":""9bc66511-3bc4-49e0-9ef4-ad5fb3a73f7c"",""projectId"":""bea99957-1862-4ad8-9558-57b91e42ce64""}","https://test12345.live/?participantId=9CD275406AC94665A77A7F728086CC65&assignmentId=9bc66511-3bc4-49e0-9ef4-ad5fb3a73f7c&projectId=bea99957-1862-4ad8-9558-57b91e42ce64","","2831","","{""Q0"":4}","","[0]"
"","","","","","html-button-response","75","566561","0.0-55.0","9CD275406AC94665A77A7F728086CC65","9CD275406AC94665A77A7F728086CC65","9bc66511-3bc4-49e0-9ef4-ad5fb3a73f7c","bea99957-1862-4ad8-9558-57b91e42ce64","{""participantId"":""9CD275406AC94665A77A7F728086CC65"",""assignmentId"":""9bc66511-3bc4-49e0-9ef4-ad5fb3a73f7c"",""projectId"":""bea99957-1862-4ad8-9558-57b91e42ce64""}","https://test12345.live/?participantId=9CD275406AC94665A77A7F728086CC65&assignmentId=9bc66511-3bc4-49e0-9ef4-ad5fb3a73f7c&projectId=bea99957-1862-4ad8-9558-57b91e42ce64","","977","
    <div style=""display: flex; justify-content: center; align-items: center;"">
      <img src=""images/red_deck_2.png"" style=""width: 300px; height: 300px; margin-right: 10px;"" />
      <img src=""images/blue_deck_1.png"" style=""width: 300px; height: 300px;"" />
    </div>","1","1",""
"","","","","","html-keyboard-response","76","569566","0.0-56.0-0.0","9CD275406AC94665A77A7F728086CC65","9CD275406AC94665A77A7F728086CC65","9bc66511-3bc4-49e0-9ef4-ad5fb3a73f7c","bea99957-1862-4ad8-9558-57b91e42ce64","{""participantId"":""9CD275406AC94665A77A7F728086CC65"",""assignmentId"":""9bc66511-3bc4-49e0-9ef4-ad5fb3a73f7c"",""projectId"":""bea99957-1862-4ad8-9558-57b91e42ce64""}","https://test12345.live/?participantId=9CD275406AC94665A77A7F728086CC65&assignmentId=9bc66511-3bc4-49e0-9ef4-ad5fb3a73f7c&projectId=bea99957-1862-4ad8-9558-57b91e42ce64","","null","<div style=""display: flex; justify-content: center; align-items: center;"">
                    <img src=""images/causal/causal_series_8/causal_series_8_a.jpg"" style=""width: 300px; height: 300px;"" />
                  </div>","null","",""
"","","","","","html-keyboard-response","77","572578","0.0-56.0-1.0","9CD275406AC94665A77A7F728086CC65","9CD275406AC94665A77A7F728086CC65","9bc66511-3bc4-49e0-9ef4-ad5fb3a73f7c","bea99957-1862-4ad8-9558-57b91e42ce64","{""participantId"":""9CD275406AC94665A77A7F728086CC65"",""assignmentId"":""9bc66511-3bc4-49e0-9ef4-ad5fb3a73f7c"",""projectId"":""bea99957-1862-4ad8-9558-57b91e42ce64""}","https://test12345.live/?participantId=9CD275406AC94665A77A7F728086CC65&assignmentId=9bc66511-3bc4-49e0-9ef4-ad5fb3a73f7c&projectId=bea99957-1862-4ad8-9558-57b91e42ce64","","null","<div style=""display: flex; justify-content: center; align-items: center;"">
                    <img src=""images/causal/causal_series_8/causal_series_8_b.jpg"" style=""width: 300px; height: 300px;"" />
                  </div>","null","",""
"","","","","","html-keyboard-response","78","575585","0.0-56.0-2.0","9CD275406AC94665A77A7F728086CC65","9CD275406AC94665A77A7F728086CC65","9bc66511-3bc4-49e0-9ef4-ad5fb3a73f7c","bea99957-1862-4ad8-9558-57b91e42ce64","{""participantId"":""9CD275406AC94665A77A7F728086CC65"",""assignmentId"":""9bc66511-3bc4-49e0-9ef4-ad5fb3a73f7c"",""projectId"":""bea99957-1862-4ad8-9558-57b91e42ce64""}","https://test12345.live/?participantId=9CD275406AC94665A77A7F728086CC65&assignmentId=9bc66511-3bc4-49e0-9ef4-ad5fb3a73f7c&projectId=bea99957-1862-4ad8-9558-57b91e42ce64","","null","<div style=""display: flex; justify-content: center; align-items: center;"">
                    <img src=""images/causal/causal_series_8/causal_series_8_c.jpg"" style=""width: 300px; height: 300px;"" />
                  </div>","null","",""
"","","","","","html-keyboard-response","79","578598","0.0-56.0-3.0","9CD275406AC94665A77A7F728086CC65","9CD275406AC94665A77A7F728086CC65","9bc66511-3bc4-49e0-9ef4-ad5fb3a73f7c","bea99957-1862-4ad8-9558-57b91e42ce64","{""participantId"":""9CD275406AC94665A77A7F728086CC65"",""assignmentId"":""9bc66511-3bc4-49e0-9ef4-ad5fb3a73f7c"",""projectId"":""bea99957-1862-4ad8-9558-57b91e42ce64""}","https://test12345.live/?participantId=9CD275406AC94665A77A7F728086CC65&assignmentId=9bc66511-3bc4-49e0-9ef4-ad5fb3a73f7c&projectId=bea99957-1862-4ad8-9558-57b91e42ce64","","null","<div style=""display: flex; justify-content: center; align-items: center;"">
                    <img src=""images/causal/causal_series_8/causal_series_8_d.jpg"" style=""width: 300px; height: 300px;"" />
                  </div>","null","",""
"","","","","","html-button-response","80","580047","0.0-58.0","9CD275406AC94665A77A7F728086CC65","9CD275406AC94665A77A7F728086CC65","9bc66511-3bc4-49e0-9ef4-ad5fb3a73f7c","bea99957-1862-4ad8-9558-57b91e42ce64","{""participantId"":""9CD275406AC94665A77A7F728086CC65"",""assignmentId"":""9bc66511-3bc4-49e0-9ef4-ad5fb3a73f7c"",""projectId"":""bea99957-1862-4ad8-9558-57b91e42ce64""}","https://test12345.live/?participantId=9CD275406AC94665A77A7F728086CC65&assignmentId=9bc66511-3bc4-49e0-9ef4-ad5fb3a73f7c&projectId=bea99957-1862-4ad8-9558-57b91e42ce64","","1446","Was there a person in the picture?","1","",""
"","","","","","survey-likert","81","582320","0.0-59.0","9CD275406AC94665A77A7F728086CC65","9CD275406AC94665A77A7F728086CC65","9bc66511-3bc4-49e0-9ef4-ad5fb3a73f7c","bea99957-1862-4ad8-9558-57b91e42ce64","{""participantId"":""9CD275406AC94665A77A7F728086CC65"",""assignmentId"":""9bc66511-3bc4-49e0-9ef4-ad5fb3a73f7c"",""projectId"":""bea99957-1862-4ad8-9558-57b91e42ce64""}","https://test12345.live/?participantId=9CD275406AC94665A77A7F728086CC65&assignmentId=9bc66511-3bc4-49e0-9ef4-ad5fb3a73f7c&projectId=bea99957-1862-4ad8-9558-57b91e42ce64","","2272","","{""Q0"":2}","","[0]"
"","","","","","html-button-response","82","583574","0.0-60.0","9CD275406AC94665A77A7F728086CC65","9CD275406AC94665A77A7F728086CC65","9bc66511-3bc4-49e0-9ef4-ad5fb3a73f7c","bea99957-1862-4ad8-9558-57b91e42ce64","{""participantId"":""9CD275406AC94665A77A7F728086CC65"",""assignmentId"":""9bc66511-3bc4-49e0-9ef4-ad5fb3a73f7c"",""projectId"":""bea99957-1862-4ad8-9558-57b91e42ce64""}","https://test12345.live/?participantId=9CD275406AC94665A77A7F728086CC65&assignmentId=9bc66511-3bc4-49e0-9ef4-ad5fb3a73f7c&projectId=bea99957-1862-4ad8-9558-57b91e42ce64","","1253","
    <div style=""display: flex; justify-content: center; align-items: center;"">
      <img src=""images/red_deck_2.png"" style=""width: 300px; height: 300px; margin-right: 10px;"" />
      <img src=""images/blue_deck_1.png"" style=""width: 300px; height: 300px;"" />
    </div>","0","0",""
"","","","","","html-keyboard-response","83","586584","0.0-62.0-0.0","9CD275406AC94665A77A7F728086CC65","9CD275406AC94665A77A7F728086CC65","9bc66511-3bc4-49e0-9ef4-ad5fb3a73f7c","bea99957-1862-4ad8-9558-57b91e42ce64","{""participantId"":""9CD275406AC94665A77A7F728086CC65"",""assignmentId"":""9bc66511-3bc4-49e0-9ef4-ad5fb3a73f7c"",""projectId"":""bea99957-1862-4ad8-9558-57b91e42ce64""}","https://test12345.live/?participantId=9CD275406AC94665A77A7F728086CC65&assignmentId=9bc66511-3bc4-49e0-9ef4-ad5fb3a73f7c&projectId=bea99957-1862-4ad8-9558-57b91e42ce64","","null","<div style=""display: flex; justify-content: center; align-items: center;"">
                    <img src=""images/semantic/semantic_series_9/semantic_series_9_a.jpg"" style=""width: 300px; height: 300px;"" />
                  </div>","null","",""
"","","","","","html-keyboard-response","84","589595","0.0-62.0-1.0","9CD275406AC94665A77A7F728086CC65","9CD275406AC94665A77A7F728086CC65","9bc66511-3bc4-49e0-9ef4-ad5fb3a73f7c","bea99957-1862-4ad8-9558-57b91e42ce64","{""participantId"":""9CD275406AC94665A77A7F728086CC65"",""assignmentId"":""9bc66511-3bc4-49e0-9ef4-ad5fb3a73f7c"",""projectId"":""bea99957-1862-4ad8-9558-57b91e42ce64""}","https://test12345.live/?participantId=9CD275406AC94665A77A7F728086CC65&assignmentId=9bc66511-3bc4-49e0-9ef4-ad5fb3a73f7c&projectId=bea99957-1862-4ad8-9558-57b91e42ce64","","null","<div style=""display: flex; justify-content: center; align-items: center;"">
                    <img src=""images/semantic/semantic_series_9/semantic_series_9_b.jpg"" style=""width: 300px; height: 300px;"" />
                  </div>","null","",""
"","","","","","html-keyboard-response","85","592604","0.0-62.0-2.0","9CD275406AC94665A77A7F728086CC65","9CD275406AC94665A77A7F728086CC65","9bc66511-3bc4-49e0-9ef4-ad5fb3a73f7c","bea99957-1862-4ad8-9558-57b91e42ce64","{""participantId"":""9CD275406AC94665A77A7F728086CC65"",""assignmentId"":""9bc66511-3bc4-49e0-9ef4-ad5fb3a73f7c"",""projectId"":""bea99957-1862-4ad8-9558-57b91e42ce64""}","https://test12345.live/?participantId=9CD275406AC94665A77A7F728086CC65&assignmentId=9bc66511-3bc4-49e0-9ef4-ad5fb3a73f7c&projectId=bea99957-1862-4ad8-9558-57b91e42ce64","","null","<div style=""display: flex; justify-content: center; align-items: center;"">
                    <img src=""images/semantic/semantic_series_9/semantic_series_9_c.jpg"" style=""width: 300px; height: 300px;"" />
                  </div>","null","",""
"","","","","","html-keyboard-response","86","595622","0.0-62.0-3.0","9CD275406AC94665A77A7F728086CC65","9CD275406AC94665A77A7F728086CC65","9bc66511-3bc4-49e0-9ef4-ad5fb3a73f7c","bea99957-1862-4ad8-9558-57b91e42ce64","{""participantId"":""9CD275406AC94665A77A7F728086CC65"",""assignmentId"":""9bc66511-3bc4-49e0-9ef4-ad5fb3a73f7c"",""projectId"":""bea99957-1862-4ad8-9558-57b91e42ce64""}","https://test12345.live/?participantId=9CD275406AC94665A77A7F728086CC65&assignmentId=9bc66511-3bc4-49e0-9ef4-ad5fb3a73f7c&projectId=bea99957-1862-4ad8-9558-57b91e42ce64","","null","<div style=""display: flex; justify-content: center; align-items: center;"">
                    <img src=""images/semantic/semantic_series_9/semantic_series_9_d.jpg"" style=""width: 300px; height: 300px;"" />
                  </div>","null","",""
"","","","","","html-button-response","87","596852","0.0-63.0","9CD275406AC94665A77A7F728086CC65","9CD275406AC94665A77A7F728086CC65","9bc66511-3bc4-49e0-9ef4-ad5fb3a73f7c","bea99957-1862-4ad8-9558-57b91e42ce64","{""participantId"":""9CD275406AC94665A77A7F728086CC65"",""assignmentId"":""9bc66511-3bc4-49e0-9ef4-ad5fb3a73f7c"",""projectId"":""bea99957-1862-4ad8-9558-57b91e42ce64""}","https://test12345.live/?participantId=9CD275406AC94665A77A7F728086CC65&assignmentId=9bc66511-3bc4-49e0-9ef4-ad5fb3a73f7c&projectId=bea99957-1862-4ad8-9558-57b91e42ce64","","1229","Was there a person in the picture?","1","",""
"","","","","","survey-likert","88","599370","0.0-64.0","9CD275406AC94665A77A7F728086CC65","9CD275406AC94665A77A7F728086CC65","9bc66511-3bc4-49e0-9ef4-ad5fb3a73f7c","bea99957-1862-4ad8-9558-57b91e42ce64","{""participantId"":""9CD275406AC94665A77A7F728086CC65"",""assignmentId"":""9bc66511-3bc4-49e0-9ef4-ad5fb3a73f7c"",""projectId"":""bea99957-1862-4ad8-9558-57b91e42ce64""}","https://test12345.live/?participantId=9CD275406AC94665A77A7F728086CC65&assignmentId=9bc66511-3bc4-49e0-9ef4-ad5fb3a73f7c&projectId=bea99957-1862-4ad8-9558-57b91e42ce64","","2517","","{""Q0"":3}","","[0]"
"","","","","","html-button-response","89","600445","0.0-65.0","9CD275406AC94665A77A7F728086CC65","9CD275406AC94665A77A7F728086CC65","9bc66511-3bc4-49e0-9ef4-ad5fb3a73f7c","bea99957-1862-4ad8-9558-57b91e42ce64","{""participantId"":""9CD275406AC94665A77A7F728086CC65"",""assignmentId"":""9bc66511-3bc4-49e0-9ef4-ad5fb3a73f7c"",""projectId"":""bea99957-1862-4ad8-9558-57b91e42ce64""}","https://test12345.live/?participantId=9CD275406AC94665A77A7F728086CC65&assignmentId=9bc66511-3bc4-49e0-9ef4-ad5fb3a73f7c&projectId=bea99957-1862-4ad8-9558-57b91e42ce64","","1073","
    <div style=""display: flex; justify-content: center; align-items: center;"">
      <img src=""images/red_deck_2.png"" style=""width: 300px; height: 300px; margin-right: 10px;"" />
      <img src=""images/blue_deck_1.png"" style=""width: 300px; height: 300px;"" />
    </div>","0","0",""
"","","","","","html-keyboard-response","90","603447","0.0-67.0-0.0","9CD275406AC94665A77A7F728086CC65","9CD275406AC94665A77A7F728086CC65","9bc66511-3bc4-49e0-9ef4-ad5fb3a73f7c","bea99957-1862-4ad8-9558-57b91e42ce64","{""participantId"":""9CD275406AC94665A77A7F728086CC65"",""assignmentId"":""9bc66511-3bc4-49e0-9ef4-ad5fb3a73f7c"",""projectId"":""bea99957-1862-4ad8-9558-57b91e42ce64""}","https://test12345.live/?participantId=9CD275406AC94665A77A7F728086CC65&assignmentId=9bc66511-3bc4-49e0-9ef4-ad5fb3a73f7c&projectId=bea99957-1862-4ad8-9558-57b91e42ce64","","null","<div style=""display: flex; justify-content: center; align-items: center;"">
                    <img src=""images/semantic/semantic_series_16/semantic_series_16_a.jpg"" style=""width: 300px; height: 300px;"" />
                  </div>","null","",""
"","","","","","html-keyboard-response","91","606453","0.0-67.0-1.0","9CD275406AC94665A77A7F728086CC65","9CD275406AC94665A77A7F728086CC65","9bc66511-3bc4-49e0-9ef4-ad5fb3a73f7c","bea99957-1862-4ad8-9558-57b91e42ce64","{""participantId"":""9CD275406AC94665A77A7F728086CC65"",""assignmentId"":""9bc66511-3bc4-49e0-9ef4-ad5fb3a73f7c"",""projectId"":""bea99957-1862-4ad8-9558-57b91e42ce64""}","https://test12345.live/?participantId=9CD275406AC94665A77A7F728086CC65&assignmentId=9bc66511-3bc4-49e0-9ef4-ad5fb3a73f7c&projectId=bea99957-1862-4ad8-9558-57b91e42ce64","","null","<div style=""display: flex; justify-content: center; align-items: center;"">
                    <img src=""images/semantic/semantic_series_16/semantic_series_16_b.jpg"" style=""width: 300px; height: 300px;"" />
                  </div>","null","",""
"","","","","","html-keyboard-response","92","609458","0.0-67.0-2.0","9CD275406AC94665A77A7F728086CC65","9CD275406AC94665A77A7F728086CC65","9bc66511-3bc4-49e0-9ef4-ad5fb3a73f7c","bea99957-1862-4ad8-9558-57b91e42ce64","{""participantId"":""9CD275406AC94665A77A7F728086CC65"",""assignmentId"":""9bc66511-3bc4-49e0-9ef4-ad5fb3a73f7c"",""projectId"":""bea99957-1862-4ad8-9558-57b91e42ce64""}","https://test12345.live/?participantId=9CD275406AC94665A77A7F728086CC65&assignmentId=9bc66511-3bc4-49e0-9ef4-ad5fb3a73f7c&projectId=bea99957-1862-4ad8-9558-57b91e42ce64","","null","<div style=""display: flex; justify-content: center; align-items: center;"">
                    <img src=""images/semantic/semantic_series_16/semantic_series_16_c.jpg"" style=""width: 300px; height: 300px;"" />
                  </div>","null","",""
"","","","","","html-keyboard-response","93","612472","0.0-67.0-3.0","9CD275406AC94665A77A7F728086CC65","9CD275406AC94665A77A7F728086CC65","9bc66511-3bc4-49e0-9ef4-ad5fb3a73f7c","bea99957-1862-4ad8-9558-57b91e42ce64","{""participantId"":""9CD275406AC94665A77A7F728086CC65"",""assignmentId"":""9bc66511-3bc4-49e0-9ef4-ad5fb3a73f7c"",""projectId"":""bea99957-1862-4ad8-9558-57b91e42ce64""}","https://test12345.live/?participantId=9CD275406AC94665A77A7F728086CC65&assignmentId=9bc66511-3bc4-49e0-9ef4-ad5fb3a73f7c&projectId=bea99957-1862-4ad8-9558-57b91e42ce64","","null","<div style=""display: flex; justify-content: center; align-items: center;"">
                    <img src=""images/semantic/semantic_series_16/semantic_series_16_d.jpg"" style=""width: 300px; height: 300px;"" />
                  </div>","null","",""
"","","","","","html-button-response","94","613838","0.0-68.0","9CD275406AC94665A77A7F728086CC65","9CD275406AC94665A77A7F728086CC65","9bc66511-3bc4-49e0-9ef4-ad5fb3a73f7c","bea99957-1862-4ad8-9558-57b91e42ce64","{""participantId"":""9CD275406AC94665A77A7F728086CC65"",""assignmentId"":""9bc66511-3bc4-49e0-9ef4-ad5fb3a73f7c"",""projectId"":""bea99957-1862-4ad8-9558-57b91e42ce64""}","https://test12345.live/?participantId=9CD275406AC94665A77A7F728086CC65&assignmentId=9bc66511-3bc4-49e0-9ef4-ad5fb3a73f7c&projectId=bea99957-1862-4ad8-9558-57b91e42ce64","","1365","Was there a person in the picture?","0","",""
"","","","","","survey-likert","95","616472","0.0-69.0","9CD275406AC94665A77A7F728086CC65","9CD275406AC94665A77A7F728086CC65","9bc66511-3bc4-49e0-9ef4-ad5fb3a73f7c","bea99957-1862-4ad8-9558-57b91e42ce64","{""participantId"":""9CD275406AC94665A77A7F728086CC65"",""assignmentId"":""9bc66511-3bc4-49e0-9ef4-ad5fb3a73f7c"",""projectId"":""bea99957-1862-4ad8-9558-57b91e42ce64""}","https://test12345.live/?participantId=9CD275406AC94665A77A7F728086CC65&assignmentId=9bc66511-3bc4-49e0-9ef4-ad5fb3a73f7c&projectId=bea99957-1862-4ad8-9558-57b91e42ce64","","2633","","{""Q0"":1}","","[0]"
"","","","","","html-button-response","96","617451","0.0-70.0","9CD275406AC94665A77A7F728086CC65","9CD275406AC94665A77A7F728086CC65","9bc66511-3bc4-49e0-9ef4-ad5fb3a73f7c","bea99957-1862-4ad8-9558-57b91e42ce64","{""participantId"":""9CD275406AC94665A77A7F728086CC65"",""assignmentId"":""9bc66511-3bc4-49e0-9ef4-ad5fb3a73f7c"",""projectId"":""bea99957-1862-4ad8-9558-57b91e42ce64""}","https://test12345.live/?participantId=9CD275406AC94665A77A7F728086CC65&assignmentId=9bc66511-3bc4-49e0-9ef4-ad5fb3a73f7c&projectId=bea99957-1862-4ad8-9558-57b91e42ce64","","977","
    <div style=""display: flex; justify-content: center; align-items: center;"">
      <img src=""images/red_deck_2.png"" style=""width: 300px; height: 300px; margin-right: 10px;"" />
      <img src=""images/blue_deck_1.png"" style=""width: 300px; height: 300px;"" />
    </div>","0","0",""
"","","","","","html-keyboard-response","97","620460","0.0-72.0-0.0","9CD275406AC94665A77A7F728086CC65","9CD275406AC94665A77A7F728086CC65","9bc66511-3bc4-49e0-9ef4-ad5fb3a73f7c","bea99957-1862-4ad8-9558-57b91e42ce64","{""participantId"":""9CD275406AC94665A77A7F728086CC65"",""assignmentId"":""9bc66511-3bc4-49e0-9ef4-ad5fb3a73f7c"",""projectId"":""bea99957-1862-4ad8-9558-57b91e42ce64""}","https://test12345.live/?participantId=9CD275406AC94665A77A7F728086CC65&assignmentId=9bc66511-3bc4-49e0-9ef4-ad5fb3a73f7c&projectId=bea99957-1862-4ad8-9558-57b91e42ce64","","null","<div style=""display: flex; justify-content: center; align-items: center;"">
                    <img src=""images/semantic/semantic_series_10/semantic_series_10_a.jpg"" style=""width: 300px; height: 300px;"" />
                  </div>","null","",""
"","","","","","html-keyboard-response","98","623476","0.0-72.0-1.0","9CD275406AC94665A77A7F728086CC65","9CD275406AC94665A77A7F728086CC65","9bc66511-3bc4-49e0-9ef4-ad5fb3a73f7c","bea99957-1862-4ad8-9558-57b91e42ce64","{""participantId"":""9CD275406AC94665A77A7F728086CC65"",""assignmentId"":""9bc66511-3bc4-49e0-9ef4-ad5fb3a73f7c"",""projectId"":""bea99957-1862-4ad8-9558-57b91e42ce64""}","https://test12345.live/?participantId=9CD275406AC94665A77A7F728086CC65&assignmentId=9bc66511-3bc4-49e0-9ef4-ad5fb3a73f7c&projectId=bea99957-1862-4ad8-9558-57b91e42ce64","","null","<div style=""display: flex; justify-content: center; align-items: center;"">
                    <img src=""images/semantic/semantic_series_10/semantic_series_10_b.jpg"" style=""width: 300px; height: 300px;"" />
                  </div>","null","",""
"","","","","","html-keyboard-response","99","626485","0.0-72.0-2.0","9CD275406AC94665A77A7F728086CC65","9CD275406AC94665A77A7F728086CC65","9bc66511-3bc4-49e0-9ef4-ad5fb3a73f7c","bea99957-1862-4ad8-9558-57b91e42ce64","{""participantId"":""9CD275406AC94665A77A7F728086CC65"",""assignmentId"":""9bc66511-3bc4-49e0-9ef4-ad5fb3a73f7c"",""projectId"":""bea99957-1862-4ad8-9558-57b91e42ce64""}","https://test12345.live/?participantId=9CD275406AC94665A77A7F728086CC65&assignmentId=9bc66511-3bc4-49e0-9ef4-ad5fb3a73f7c&projectId=bea99957-1862-4ad8-9558-57b91e42ce64","","null","<div style=""display: flex; justify-content: center; align-items: center;"">
                    <img src=""images/semantic/semantic_series_10/semantic_series_10_c.jpg"" style=""width: 300px; height: 300px;"" />
                  </div>","null","",""
"","","","","","html-keyboard-response","100","629494","0.0-72.0-3.0","9CD275406AC94665A77A7F728086CC65","9CD275406AC94665A77A7F728086CC65","9bc66511-3bc4-49e0-9ef4-ad5fb3a73f7c","bea99957-1862-4ad8-9558-57b91e42ce64","{""participantId"":""9CD275406AC94665A77A7F728086CC65"",""assignmentId"":""9bc66511-3bc4-49e0-9ef4-ad5fb3a73f7c"",""projectId"":""bea99957-1862-4ad8-9558-57b91e42ce64""}","https://test12345.live/?participantId=9CD275406AC94665A77A7F728086CC65&assignmentId=9bc66511-3bc4-49e0-9ef4-ad5fb3a73f7c&projectId=bea99957-1862-4ad8-9558-57b91e42ce64","","null","<div style=""display: flex; justify-content: center; align-items: center;"">
                    <img src=""images/semantic/semantic_series_10/semantic_series_10_d.jpg"" style=""width: 300px; height: 300px;"" />
                  </div>","null","",""
"","","","","","html-button-response","101","634176","0.0-73.0","9CD275406AC94665A77A7F728086CC65","9CD275406AC94665A77A7F728086CC65","9bc66511-3bc4-49e0-9ef4-ad5fb3a73f7c","bea99957-1862-4ad8-9558-57b91e42ce64","{""participantId"":""9CD275406AC94665A77A7F728086CC65"",""assignmentId"":""9bc66511-3bc4-49e0-9ef4-ad5fb3a73f7c"",""projectId"":""bea99957-1862-4ad8-9558-57b91e42ce64""}","https://test12345.live/?participantId=9CD275406AC94665A77A7F728086CC65&assignmentId=9bc66511-3bc4-49e0-9ef4-ad5fb3a73f7c&projectId=bea99957-1862-4ad8-9558-57b91e42ce64","","4680","Was there a person in the picture?","1","",""
"","","","","","survey-likert","102","636555","0.0-74.0","9CD275406AC94665A77A7F728086CC65","9CD275406AC94665A77A7F728086CC65","9bc66511-3bc4-49e0-9ef4-ad5fb3a73f7c","bea99957-1862-4ad8-9558-57b91e42ce64","{""participantId"":""9CD275406AC94665A77A7F728086CC65"",""assignmentId"":""9bc66511-3bc4-49e0-9ef4-ad5fb3a73f7c"",""projectId"":""bea99957-1862-4ad8-9558-57b91e42ce64""}","https://test12345.live/?participantId=9CD275406AC94665A77A7F728086CC65&assignmentId=9bc66511-3bc4-49e0-9ef4-ad5fb3a73f7c&projectId=bea99957-1862-4ad8-9558-57b91e42ce64","","2377","","{""Q0"":2}","","[0]"
"","","","","","html-button-response","103","637567","0.0-75.0","9CD275406AC94665A77A7F728086CC65","9CD275406AC94665A77A7F728086CC65","9bc66511-3bc4-49e0-9ef4-ad5fb3a73f7c","bea99957-1862-4ad8-9558-57b91e42ce64","{""participantId"":""9CD275406AC94665A77A7F728086CC65"",""assignmentId"":""9bc66511-3bc4-49e0-9ef4-ad5fb3a73f7c"",""projectId"":""bea99957-1862-4ad8-9558-57b91e42ce64""}","https://test12345.live/?participantId=9CD275406AC94665A77A7F728086CC65&assignmentId=9bc66511-3bc4-49e0-9ef4-ad5fb3a73f7c&projectId=bea99957-1862-4ad8-9558-57b91e42ce64","","1011","
    <div style=""display: flex; justify-content: center; align-items: center;"">
      <img src=""images/red_deck_2.png"" style=""width: 300px; height: 300px; margin-right: 10px;"" />
      <img src=""images/blue_deck_1.png"" style=""width: 300px; height: 300px;"" />
    </div>","0","0",""
"","","","","","html-keyboard-response","104","640582","0.0-77.0-0.0","9CD275406AC94665A77A7F728086CC65","9CD275406AC94665A77A7F728086CC65","9bc66511-3bc4-49e0-9ef4-ad5fb3a73f7c","bea99957-1862-4ad8-9558-57b91e42ce64","{""participantId"":""9CD275406AC94665A77A7F728086CC65"",""assignmentId"":""9bc66511-3bc4-49e0-9ef4-ad5fb3a73f7c"",""projectId"":""bea99957-1862-4ad8-9558-57b91e42ce64""}","https://test12345.live/?participantId=9CD275406AC94665A77A7F728086CC65&assignmentId=9bc66511-3bc4-49e0-9ef4-ad5fb3a73f7c&projectId=bea99957-1862-4ad8-9558-57b91e42ce64","","null","<div style=""display: flex; justify-content: center; align-items: center;"">
                    <img src=""images/semantic/semantic_series_18/semantic_series_18_a.jpg"" style=""width: 300px; height: 300px;"" />
                  </div>","null","",""
"","","","","","html-keyboard-response","105","643598","0.0-77.0-1.0","9CD275406AC94665A77A7F728086CC65","9CD275406AC94665A77A7F728086CC65","9bc66511-3bc4-49e0-9ef4-ad5fb3a73f7c","bea99957-1862-4ad8-9558-57b91e42ce64","{""participantId"":""9CD275406AC94665A77A7F728086CC65"",""assignmentId"":""9bc66511-3bc4-49e0-9ef4-ad5fb3a73f7c"",""projectId"":""bea99957-1862-4ad8-9558-57b91e42ce64""}","https://test12345.live/?participantId=9CD275406AC94665A77A7F728086CC65&assignmentId=9bc66511-3bc4-49e0-9ef4-ad5fb3a73f7c&projectId=bea99957-1862-4ad8-9558-57b91e42ce64","","null","<div style=""display: flex; justify-content: center; align-items: center;"">
                    <img src=""images/semantic/semantic_series_18/semantic_series_18_b.jpg"" style=""width: 300px; height: 300px;"" />
                  </div>","null","",""
"","","","","","html-keyboard-response","106","646611","0.0-77.0-2.0","9CD275406AC94665A77A7F728086CC65","9CD275406AC94665A77A7F728086CC65","9bc66511-3bc4-49e0-9ef4-ad5fb3a73f7c","bea99957-1862-4ad8-9558-57b91e42ce64","{""participantId"":""9CD275406AC94665A77A7F728086CC65"",""assignmentId"":""9bc66511-3bc4-49e0-9ef4-ad5fb3a73f7c"",""projectId"":""bea99957-1862-4ad8-9558-57b91e42ce64""}","https://test12345.live/?participantId=9CD275406AC94665A77A7F728086CC65&assignmentId=9bc66511-3bc4-49e0-9ef4-ad5fb3a73f7c&projectId=bea99957-1862-4ad8-9558-57b91e42ce64","","null","<div style=""display: flex; justify-content: center; align-items: center;"">
                    <img src=""images/semantic/semantic_series_18/semantic_series_18_c.jpg"" style=""width: 300px; height: 300px;"" />
                  </div>","null","",""
"","","","","","html-keyboard-response","107","649627","0.0-77.0-3.0","9CD275406AC94665A77A7F728086CC65","9CD275406AC94665A77A7F728086CC65","9bc66511-3bc4-49e0-9ef4-ad5fb3a73f7c","bea99957-1862-4ad8-9558-57b91e42ce64","{""participantId"":""9CD275406AC94665A77A7F728086CC65"",""assignmentId"":""9bc66511-3bc4-49e0-9ef4-ad5fb3a73f7c"",""projectId"":""bea99957-1862-4ad8-9558-57b91e42ce64""}","https://test12345.live/?participantId=9CD275406AC94665A77A7F728086CC65&assignmentId=9bc66511-3bc4-49e0-9ef4-ad5fb3a73f7c&projectId=bea99957-1862-4ad8-9558-57b91e42ce64","","null","<div style=""display: flex; justify-content: center; align-items: center;"">
                    <img src=""images/semantic/semantic_series_18/semantic_series_18_d.jpg"" style=""width: 300px; height: 300px;"" />
                  </div>","null","",""
"","","","","","html-button-response","108","651522","0.0-78.0","9CD275406AC94665A77A7F728086CC65","9CD275406AC94665A77A7F728086CC65","9bc66511-3bc4-49e0-9ef4-ad5fb3a73f7c","bea99957-1862-4ad8-9558-57b91e42ce64","{""participantId"":""9CD275406AC94665A77A7F728086CC65"",""assignmentId"":""9bc66511-3bc4-49e0-9ef4-ad5fb3a73f7c"",""projectId"":""bea99957-1862-4ad8-9558-57b91e42ce64""}","https://test12345.live/?participantId=9CD275406AC94665A77A7F728086CC65&assignmentId=9bc66511-3bc4-49e0-9ef4-ad5fb3a73f7c&projectId=bea99957-1862-4ad8-9558-57b91e42ce64","","1893","Was there a person in the picture?","1","",""
"","","","","","survey-likert","109","653578","0.0-79.0","9CD275406AC94665A77A7F728086CC65","9CD275406AC94665A77A7F728086CC65","9bc66511-3bc4-49e0-9ef4-ad5fb3a73f7c","bea99957-1862-4ad8-9558-57b91e42ce64","{""participantId"":""9CD275406AC94665A77A7F728086CC65"",""assignmentId"":""9bc66511-3bc4-49e0-9ef4-ad5fb3a73f7c"",""projectId"":""bea99957-1862-4ad8-9558-57b91e42ce64""}","https://test12345.live/?participantId=9CD275406AC94665A77A7F728086CC65&assignmentId=9bc66511-3bc4-49e0-9ef4-ad5fb3a73f7c&projectId=bea99957-1862-4ad8-9558-57b91e42ce64","","2055","","{""Q0"":2}","","[0]"
"","","","","","html-button-response","110","654951","0.0-80.0","9CD275406AC94665A77A7F728086CC65","9CD275406AC94665A77A7F728086CC65","9bc66511-3bc4-49e0-9ef4-ad5fb3a73f7c","bea99957-1862-4ad8-9558-57b91e42ce64","{""participantId"":""9CD275406AC94665A77A7F728086CC65"",""assignmentId"":""9bc66511-3bc4-49e0-9ef4-ad5fb3a73f7c"",""projectId"":""bea99957-1862-4ad8-9558-57b91e42ce64""}","https://test12345.live/?participantId=9CD275406AC94665A77A7F728086CC65&assignmentId=9bc66511-3bc4-49e0-9ef4-ad5fb3a73f7c&projectId=bea99957-1862-4ad8-9558-57b91e42ce64","","1372","
    <div style=""display: flex; justify-content: center; align-items: center;"">
      <img src=""images/red_deck_2.png"" style=""width: 300px; height: 300px; margin-right: 10px;"" />
      <img src=""images/blue_deck_1.png"" style=""width: 300px; height: 300px;"" />
    </div>","1","1",""
"","","","","","html-keyboard-response","111","657962","0.0-81.0-0.0","9CD275406AC94665A77A7F728086CC65","9CD275406AC94665A77A7F728086CC65","9bc66511-3bc4-49e0-9ef4-ad5fb3a73f7c","bea99957-1862-4ad8-9558-57b91e42ce64","{""participantId"":""9CD275406AC94665A77A7F728086CC65"",""assignmentId"":""9bc66511-3bc4-49e0-9ef4-ad5fb3a73f7c"",""projectId"":""bea99957-1862-4ad8-9558-57b91e42ce64""}","https://test12345.live/?participantId=9CD275406AC94665A77A7F728086CC65&assignmentId=9bc66511-3bc4-49e0-9ef4-ad5fb3a73f7c&projectId=bea99957-1862-4ad8-9558-57b91e42ce64","","null","<div style=""display: flex; justify-content: center; align-items: center;"">
                    <img src=""images/causal/causal_series_18/causal_series_18_a.jpg"" style=""width: 300px; height: 300px;"" />
                  </div>","null","",""
"","","","","","html-keyboard-response","112","660966","0.0-81.0-1.0","9CD275406AC94665A77A7F728086CC65","9CD275406AC94665A77A7F728086CC65","9bc66511-3bc4-49e0-9ef4-ad5fb3a73f7c","bea99957-1862-4ad8-9558-57b91e42ce64","{""participantId"":""9CD275406AC94665A77A7F728086CC65"",""assignmentId"":""9bc66511-3bc4-49e0-9ef4-ad5fb3a73f7c"",""projectId"":""bea99957-1862-4ad8-9558-57b91e42ce64""}","https://test12345.live/?participantId=9CD275406AC94665A77A7F728086CC65&assignmentId=9bc66511-3bc4-49e0-9ef4-ad5fb3a73f7c&projectId=bea99957-1862-4ad8-9558-57b91e42ce64","","null","<div style=""display: flex; justify-content: center; align-items: center;"">
                    <img src=""images/causal/causal_series_18/causal_series_18_b.jpg"" style=""width: 300px; height: 300px;"" />
                  </div>","null","",""
"","","","","","html-keyboard-response","113","663973","0.0-81.0-2.0","9CD275406AC94665A77A7F728086CC65","9CD275406AC94665A77A7F728086CC65","9bc66511-3bc4-49e0-9ef4-ad5fb3a73f7c","bea99957-1862-4ad8-9558-57b91e42ce64","{""participantId"":""9CD275406AC94665A77A7F728086CC65"",""assignmentId"":""9bc66511-3bc4-49e0-9ef4-ad5fb3a73f7c"",""projectId"":""bea99957-1862-4ad8-9558-57b91e42ce64""}","https://test12345.live/?participantId=9CD275406AC94665A77A7F728086CC65&assignmentId=9bc66511-3bc4-49e0-9ef4-ad5fb3a73f7c&projectId=bea99957-1862-4ad8-9558-57b91e42ce64","","null","<div style=""display: flex; justify-content: center; align-items: center;"">
                    <img src=""images/causal/causal_series_18/causal_series_18_c.jpg"" style=""width: 300px; height: 300px;"" />
                  </div>","null","",""
"","","","","","html-keyboard-response","114","666980","0.0-81.0-3.0","9CD275406AC94665A77A7F728086CC65","9CD275406AC94665A77A7F728086CC65","9bc66511-3bc4-49e0-9ef4-ad5fb3a73f7c","bea99957-1862-4ad8-9558-57b91e42ce64","{""participantId"":""9CD275406AC94665A77A7F728086CC65"",""assignmentId"":""9bc66511-3bc4-49e0-9ef4-ad5fb3a73f7c"",""projectId"":""bea99957-1862-4ad8-9558-57b91e42ce64""}","https://test12345.live/?participantId=9CD275406AC94665A77A7F728086CC65&assignmentId=9bc66511-3bc4-49e0-9ef4-ad5fb3a73f7c&projectId=bea99957-1862-4ad8-9558-57b91e42ce64","","null","<div style=""display: flex; justify-content: center; align-items: center;"">
                    <img src=""images/causal/causal_series_18/causal_series_18_d.jpg"" style=""width: 300px; height: 300px;"" />
                  </div>","null","",""
"","","","","","html-button-response","115","669115","0.0-83.0","9CD275406AC94665A77A7F728086CC65","9CD275406AC94665A77A7F728086CC65","9bc66511-3bc4-49e0-9ef4-ad5fb3a73f7c","bea99957-1862-4ad8-9558-57b91e42ce64","{""participantId"":""9CD275406AC94665A77A7F728086CC65"",""assignmentId"":""9bc66511-3bc4-49e0-9ef4-ad5fb3a73f7c"",""projectId"":""bea99957-1862-4ad8-9558-57b91e42ce64""}","https://test12345.live/?participantId=9CD275406AC94665A77A7F728086CC65&assignmentId=9bc66511-3bc4-49e0-9ef4-ad5fb3a73f7c&projectId=bea99957-1862-4ad8-9558-57b91e42ce64","","2134","Was there a person in the picture?","1","",""
"","","","","","survey-likert","116","671422","0.0-84.0","9CD275406AC94665A77A7F728086CC65","9CD275406AC94665A77A7F728086CC65","9bc66511-3bc4-49e0-9ef4-ad5fb3a73f7c","bea99957-1862-4ad8-9558-57b91e42ce64","{""participantId"":""9CD275406AC94665A77A7F728086CC65"",""assignmentId"":""9bc66511-3bc4-49e0-9ef4-ad5fb3a73f7c"",""projectId"":""bea99957-1862-4ad8-9558-57b91e42ce64""}","https://test12345.live/?participantId=9CD275406AC94665A77A7F728086CC65&assignmentId=9bc66511-3bc4-49e0-9ef4-ad5fb3a73f7c&projectId=bea99957-1862-4ad8-9558-57b91e42ce64","","2306","","{""Q0"":1}","","[0]"
"","","","","","html-button-response","117","672902","0.0-85.0","9CD275406AC94665A77A7F728086CC65","9CD275406AC94665A77A7F728086CC65","9bc66511-3bc4-49e0-9ef4-ad5fb3a73f7c","bea99957-1862-4ad8-9558-57b91e42ce64","{""participantId"":""9CD275406AC94665A77A7F728086CC65"",""assignmentId"":""9bc66511-3bc4-49e0-9ef4-ad5fb3a73f7c"",""projectId"":""bea99957-1862-4ad8-9558-57b91e42ce64""}","https://test12345.live/?participantId=9CD275406AC94665A77A7F728086CC65&assignmentId=9bc66511-3bc4-49e0-9ef4-ad5fb3a73f7c&projectId=bea99957-1862-4ad8-9558-57b91e42ce64","","1478","
    <div style=""display: flex; justify-content: center; align-items: center;"">
      <img src=""images/red_deck_2.png"" style=""width: 300px; height: 300px; margin-right: 10px;"" />
      <img src=""images/blue_deck_1.png"" style=""width: 300px; height: 300px;"" />
    </div>","1","1",""
"","","","","","html-keyboard-response","118","675908","0.0-86.0-0.0","9CD275406AC94665A77A7F728086CC65","9CD275406AC94665A77A7F728086CC65","9bc66511-3bc4-49e0-9ef4-ad5fb3a73f7c","bea99957-1862-4ad8-9558-57b91e42ce64","{""participantId"":""9CD275406AC94665A77A7F728086CC65"",""assignmentId"":""9bc66511-3bc4-49e0-9ef4-ad5fb3a73f7c"",""projectId"":""bea99957-1862-4ad8-9558-57b91e42ce64""}","https://test12345.live/?participantId=9CD275406AC94665A77A7F728086CC65&assignmentId=9bc66511-3bc4-49e0-9ef4-ad5fb3a73f7c&projectId=bea99957-1862-4ad8-9558-57b91e42ce64","","null","<div style=""display: flex; justify-content: center; align-items: center;"">
                    <img src=""images/causal/causal_series_5/causal_series_5_a.jpg"" style=""width: 300px; height: 300px;"" />
                  </div>","null","",""
"","","","","","html-keyboard-response","119","678918","0.0-86.0-1.0","9CD275406AC94665A77A7F728086CC65","9CD275406AC94665A77A7F728086CC65","9bc66511-3bc4-49e0-9ef4-ad5fb3a73f7c","bea99957-1862-4ad8-9558-57b91e42ce64","{""participantId"":""9CD275406AC94665A77A7F728086CC65"",""assignmentId"":""9bc66511-3bc4-49e0-9ef4-ad5fb3a73f7c"",""projectId"":""bea99957-1862-4ad8-9558-57b91e42ce64""}","https://test12345.live/?participantId=9CD275406AC94665A77A7F728086CC65&assignmentId=9bc66511-3bc4-49e0-9ef4-ad5fb3a73f7c&projectId=bea99957-1862-4ad8-9558-57b91e42ce64","","null","<div style=""display: flex; justify-content: center; align-items: center;"">
                    <img src=""images/causal/causal_series_5/causal_series_5_b.jpg"" style=""width: 300px; height: 300px;"" />
                  </div>","null","",""
"","","","","","html-keyboard-response","120","681925","0.0-86.0-2.0","9CD275406AC94665A77A7F728086CC65","9CD275406AC94665A77A7F728086CC65","9bc66511-3bc4-49e0-9ef4-ad5fb3a73f7c","bea99957-1862-4ad8-9558-57b91e42ce64","{""participantId"":""9CD275406AC94665A77A7F728086CC65"",""assignmentId"":""9bc66511-3bc4-49e0-9ef4-ad5fb3a73f7c"",""projectId"":""bea99957-1862-4ad8-9558-57b91e42ce64""}","https://test12345.live/?participantId=9CD275406AC94665A77A7F728086CC65&assignmentId=9bc66511-3bc4-49e0-9ef4-ad5fb3a73f7c&projectId=bea99957-1862-4ad8-9558-57b91e42ce64","","null","<div style=""display: flex; justify-content: center; align-items: center;"">
                    <img src=""images/causal/causal_series_5/causal_series_5_c.jpg"" style=""width: 300px; height: 300px;"" />
                  </div>","null","",""
"","","","","","html-keyboard-response","121","684941","0.0-86.0-3.0","9CD275406AC94665A77A7F728086CC65","9CD275406AC94665A77A7F728086CC65","9bc66511-3bc4-49e0-9ef4-ad5fb3a73f7c","bea99957-1862-4ad8-9558-57b91e42ce64","{""participantId"":""9CD275406AC94665A77A7F728086CC65"",""assignmentId"":""9bc66511-3bc4-49e0-9ef4-ad5fb3a73f7c"",""projectId"":""bea99957-1862-4ad8-9558-57b91e42ce64""}","https://test12345.live/?participantId=9CD275406AC94665A77A7F728086CC65&assignmentId=9bc66511-3bc4-49e0-9ef4-ad5fb3a73f7c&projectId=bea99957-1862-4ad8-9558-57b91e42ce64","","null","<div style=""display: flex; justify-content: center; align-items: center;"">
                    <img src=""images/causal/causal_series_5/causal_series_5_d.jpg"" style=""width: 300px; height: 300px;"" />
                  </div>","null","",""
"","","","","","html-button-response","122","685815","0.0-88.0","9CD275406AC94665A77A7F728086CC65","9CD275406AC94665A77A7F728086CC65","9bc66511-3bc4-49e0-9ef4-ad5fb3a73f7c","bea99957-1862-4ad8-9558-57b91e42ce64","{""participantId"":""9CD275406AC94665A77A7F728086CC65"",""assignmentId"":""9bc66511-3bc4-49e0-9ef4-ad5fb3a73f7c"",""projectId"":""bea99957-1862-4ad8-9558-57b91e42ce64""}","https://test12345.live/?participantId=9CD275406AC94665A77A7F728086CC65&assignmentId=9bc66511-3bc4-49e0-9ef4-ad5fb3a73f7c&projectId=bea99957-1862-4ad8-9558-57b91e42ce64","","872","Was there a person in the picture?","1","",""
"","","","","","survey-likert","123","689636","0.0-89.0","9CD275406AC94665A77A7F728086CC65","9CD275406AC94665A77A7F728086CC65","9bc66511-3bc4-49e0-9ef4-ad5fb3a73f7c","bea99957-1862-4ad8-9558-57b91e42ce64","{""participantId"":""9CD275406AC94665A77A7F728086CC65"",""assignmentId"":""9bc66511-3bc4-49e0-9ef4-ad5fb3a73f7c"",""projectId"":""bea99957-1862-4ad8-9558-57b91e42ce64""}","https://test12345.live/?participantId=9CD275406AC94665A77A7F728086CC65&assignmentId=9bc66511-3bc4-49e0-9ef4-ad5fb3a73f7c&projectId=bea99957-1862-4ad8-9558-57b91e42ce64","","3819","","{""Q0"":2}","","[0]"
"","","","","","html-button-response","124","691521","0.0-90.0","9CD275406AC94665A77A7F728086CC65","9CD275406AC94665A77A7F728086CC65","9bc66511-3bc4-49e0-9ef4-ad5fb3a73f7c","bea99957-1862-4ad8-9558-57b91e42ce64","{""participantId"":""9CD275406AC94665A77A7F728086CC65"",""assignmentId"":""9bc66511-3bc4-49e0-9ef4-ad5fb3a73f7c"",""projectId"":""bea99957-1862-4ad8-9558-57b91e42ce64""}","https://test12345.live/?participantId=9CD275406AC94665A77A7F728086CC65&assignmentId=9bc66511-3bc4-49e0-9ef4-ad5fb3a73f7c&projectId=bea99957-1862-4ad8-9558-57b91e42ce64","","1884","
    <div style=""display: flex; justify-content: center; align-items: center;"">
      <img src=""images/red_deck_2.png"" style=""width: 300px; height: 300px; margin-right: 10px;"" />
      <img src=""images/blue_deck_1.png"" style=""width: 300px; height: 300px;"" />
    </div>","0","0",""
"","","","","","html-keyboard-response","125","694533","0.0-92.0-0.0","9CD275406AC94665A77A7F728086CC65","9CD275406AC94665A77A7F728086CC65","9bc66511-3bc4-49e0-9ef4-ad5fb3a73f7c","bea99957-1862-4ad8-9558-57b91e42ce64","{""participantId"":""9CD275406AC94665A77A7F728086CC65"",""assignmentId"":""9bc66511-3bc4-49e0-9ef4-ad5fb3a73f7c"",""projectId"":""bea99957-1862-4ad8-9558-57b91e42ce64""}","https://test12345.live/?participantId=9CD275406AC94665A77A7F728086CC65&assignmentId=9bc66511-3bc4-49e0-9ef4-ad5fb3a73f7c&projectId=bea99957-1862-4ad8-9558-57b91e42ce64","","null","<div style=""display: flex; justify-content: center; align-items: center;"">
                    <img src=""images/semantic/semantic_series_2/semantic_series_2_a.jpg"" style=""width: 300px; height: 300px;"" />
                  </div>","null","",""
"","","","","","html-keyboard-response","126","697535","0.0-92.0-1.0","9CD275406AC94665A77A7F728086CC65","9CD275406AC94665A77A7F728086CC65","9bc66511-3bc4-49e0-9ef4-ad5fb3a73f7c","bea99957-1862-4ad8-9558-57b91e42ce64","{""participantId"":""9CD275406AC94665A77A7F728086CC65"",""assignmentId"":""9bc66511-3bc4-49e0-9ef4-ad5fb3a73f7c"",""projectId"":""bea99957-1862-4ad8-9558-57b91e42ce64""}","https://test12345.live/?participantId=9CD275406AC94665A77A7F728086CC65&assignmentId=9bc66511-3bc4-49e0-9ef4-ad5fb3a73f7c&projectId=bea99957-1862-4ad8-9558-57b91e42ce64","","null","<div style=""display: flex; justify-content: center; align-items: center;"">
                    <img src=""images/semantic/semantic_series_2/semantic_series_2_b.jpg"" style=""width: 300px; height: 300px;"" />
                  </div>","null","",""
"","","","","","html-keyboard-response","127","700541","0.0-92.0-2.0","9CD275406AC94665A77A7F728086CC65","9CD275406AC94665A77A7F728086CC65","9bc66511-3bc4-49e0-9ef4-ad5fb3a73f7c","bea99957-1862-4ad8-9558-57b91e42ce64","{""participantId"":""9CD275406AC94665A77A7F728086CC65"",""assignmentId"":""9bc66511-3bc4-49e0-9ef4-ad5fb3a73f7c"",""projectId"":""bea99957-1862-4ad8-9558-57b91e42ce64""}","https://test12345.live/?participantId=9CD275406AC94665A77A7F728086CC65&assignmentId=9bc66511-3bc4-49e0-9ef4-ad5fb3a73f7c&projectId=bea99957-1862-4ad8-9558-57b91e42ce64","","null","<div style=""display: flex; justify-content: center; align-items: center;"">
                    <img src=""images/semantic/semantic_series_2/semantic_series_2_c.jpg"" style=""width: 300px; height: 300px;"" />
                  </div>","null","",""
"","","","","","html-keyboard-response","128","703555","0.0-92.0-3.0","9CD275406AC94665A77A7F728086CC65","9CD275406AC94665A77A7F728086CC65","9bc66511-3bc4-49e0-9ef4-ad5fb3a73f7c","bea99957-1862-4ad8-9558-57b91e42ce64","{""participantId"":""9CD275406AC94665A77A7F728086CC65"",""assignmentId"":""9bc66511-3bc4-49e0-9ef4-ad5fb3a73f7c"",""projectId"":""bea99957-1862-4ad8-9558-57b91e42ce64""}","https://test12345.live/?participantId=9CD275406AC94665A77A7F728086CC65&assignmentId=9bc66511-3bc4-49e0-9ef4-ad5fb3a73f7c&projectId=bea99957-1862-4ad8-9558-57b91e42ce64","","null","<div style=""display: flex; justify-content: center; align-items: center;"">
                    <img src=""images/semantic/semantic_series_2/semantic_series_2_d.jpg"" style=""width: 300px; height: 300px;"" />
                  </div>","null","",""
"","","","","","html-button-response","129","706345","0.0-93.0","9CD275406AC94665A77A7F728086CC65","9CD275406AC94665A77A7F728086CC65","9bc66511-3bc4-49e0-9ef4-ad5fb3a73f7c","bea99957-1862-4ad8-9558-57b91e42ce64","{""participantId"":""9CD275406AC94665A77A7F728086CC65"",""assignmentId"":""9bc66511-3bc4-49e0-9ef4-ad5fb3a73f7c"",""projectId"":""bea99957-1862-4ad8-9558-57b91e42ce64""}","https://test12345.live/?participantId=9CD275406AC94665A77A7F728086CC65&assignmentId=9bc66511-3bc4-49e0-9ef4-ad5fb3a73f7c&projectId=bea99957-1862-4ad8-9558-57b91e42ce64","","2789","Was there a person in the picture?","0","",""
"","","","","","survey-likert","130","711167","0.0-94.0","9CD275406AC94665A77A7F728086CC65","9CD275406AC94665A77A7F728086CC65","9bc66511-3bc4-49e0-9ef4-ad5fb3a73f7c","bea99957-1862-4ad8-9558-57b91e42ce64","{""participantId"":""9CD275406AC94665A77A7F728086CC65"",""assignmentId"":""9bc66511-3bc4-49e0-9ef4-ad5fb3a73f7c"",""projectId"":""bea99957-1862-4ad8-9558-57b91e42ce64""}","https://test12345.live/?participantId=9CD275406AC94665A77A7F728086CC65&assignmentId=9bc66511-3bc4-49e0-9ef4-ad5fb3a73f7c&projectId=bea99957-1862-4ad8-9558-57b91e42ce64","","4820","","{""Q0"":2}","","[0]"
"","","","","","survey-text","131","730041","0.0-95.0","9CD275406AC94665A77A7F728086CC65","9CD275406AC94665A77A7F728086CC65","9bc66511-3bc4-49e0-9ef4-ad5fb3a73f7c","bea99957-1862-4ad8-9558-57b91e42ce64","{""participantId"":""9CD275406AC94665A77A7F728086CC65"",""assignmentId"":""9bc66511-3bc4-49e0-9ef4-ad5fb3a73f7c"",""projectId"":""bea99957-1862-4ad8-9558-57b91e42ce64""}","https://test12345.live/?participantId=9CD275406AC94665A77A7F728086CC65&assignmentId=9bc66511-3bc4-49e0-9ef4-ad5fb3a73f7c&projectId=bea99957-1862-4ad8-9558-57b91e42ce64","","18871","","{""Q0"":""One is red and the other is blue.""}","",""
