"success","timeout","failed_images","failed_audio","failed_video","trial_type","trial_index","time_elapsed","internal_node_id","subject_id","study_id","session_id","view_history","rt","stimulus","response","choice"
"true","false","[]","[]","[]","preload","0","9598","0.0-0.0","7A2FD3C07D83434E8933F2F44369452E","541d10f9-b71c-44da-84a0-a3ca050280da","e73ede5c-88cf-40f6-bd80-a9f952b58684","","","","",""
"","","","","","instructions","1","62305","0.0-1.0","7A2FD3C07D83434E8933F2F44369452E","541d10f9-b71c-44da-84a0-a3ca050280da","e73ede5c-88cf-40f6-bd80-a9f952b58684","[{""page_index"":0,""viewing_time"":52707}]","52707","","",""
"","","","","","instructions","2","108322","0.0-2.0","7A2FD3C07D83434E8933F2F44369452E","541d10f9-b71c-44da-84a0-a3ca050280da","e73ede5c-88cf-40f6-bd80-a9f952b58684","[{""page_index"":0,""viewing_time"":46016}]","46016","","",""
"true","","","","","fullscreen","3","114287","0.0-3.0","7A2FD3C07D83434E8933F2F44369452E","541d10f9-b71c-44da-84a0-a3ca050280da","e73ede5c-88cf-40f6-bd80-a9f952b58684","","4887","","",""
"","","","","","instructions","4","129977","0.0-4.0","7A2FD3C07D83434E8933F2F44369452E","541d10f9-b71c-44da-84a0-a3ca050280da","e73ede5c-88cf-40f6-bd80-a9f952b58684","[{""page_index"":0,""viewing_time"":15689}]","15689","","",""
"","","","","","html-keyboard-response","5","133983","0.0-5.0","7A2FD3C07D83434E8933F2F44369452E","541d10f9-b71c-44da-84a0-a3ca050280da","e73ede5c-88cf-40f6-bd80-a9f952b58684","","null","<div style=""display: flex; justify-content: center; align-items: center;"">
                <img src=""images/causal/causal_series_10/causal_series_10_a.jpg"" style=""width: 300px; height: 300px;"" />
              </div>","null",""
"","","","","","html-keyboard-response","6","137984","0.0-6.0","7A2FD3C07D83434E8933F2F44369452E","541d10f9-b71c-44da-84a0-a3ca050280da","e73ede5c-88cf-40f6-bd80-a9f952b58684","","null","<div style=""display: flex; justify-content: center; align-items: center;"">
                <img src=""images/causal/causal_series_10/causal_series_10_b.jpg"" style=""width: 300px; height: 300px;"" />
              </div>","null",""
"","","","","","html-keyboard-response","7","141988","0.0-7.0","7A2FD3C07D83434E8933F2F44369452E","541d10f9-b71c-44da-84a0-a3ca050280da","e73ede5c-88cf-40f6-bd80-a9f952b58684","","null","<div style=""display: flex; justify-content: center; align-items: center;"">
                <img src=""images/causal/causal_series_10/causal_series_10_c.jpg"" style=""width: 300px; height: 300px;"" />
              </div>","null",""
"","","","","","html-button-response","8","145197","0.0-8.0","7A2FD3C07D83434E8933F2F44369452E","541d10f9-b71c-44da-84a0-a3ca050280da","e73ede5c-88cf-40f6-bd80-a9f952b58684","","3207","
    <div style=""display: flex; justify-content: center; align-items: center;"">
      <img src=""images/blue_deck_1.png"" style=""width: 300px; height: 300px; margin-right: 10px;"" />
      <img src=""images/red_deck_2.png"" style=""width: 300px; height: 300px;"" />
    </div>","0","0"
"","","","","","html-keyboard-response","9","149600","0.0-9.0-0.0-0.0","7A2FD3C07D83434E8933F2F44369452E","541d10f9-b71c-44da-84a0-a3ca050280da","e73ede5c-88cf-40f6-bd80-a9f952b58684","","null","<div style=""display: flex; justify-content: center; align-items: center;"">
                <img src=""images/causal/causal_series_10/causal_series_10_d.jpg"" style=""width: 300px; height: 300px;"" />
              </div>","null",""
"","","","","","html-keyboard-response","10","153940","0.0-10.0","7A2FD3C07D83434E8933F2F44369452E","541d10f9-b71c-44da-84a0-a3ca050280da","e73ede5c-88cf-40f6-bd80-a9f952b58684","","null","<div style=""display: flex; justify-content: center; align-items: center;"">
                <img src=""images/other/blank.jpg"" style=""width: 300px; height: 300px;"" />
              </div>","null",""
"","","","","","html-keyboard-response","11","157943","0.0-11.0","7A2FD3C07D83434E8933F2F44369452E","541d10f9-b71c-44da-84a0-a3ca050280da","e73ede5c-88cf-40f6-bd80-a9f952b58684","","null","<div style=""display: flex; justify-content: center; align-items: center;"">
                <img src=""images/causal/causal_series_6/causal_series_6_a.jpg"" style=""width: 300px; height: 300px;"" />
              </div>","null",""
"","","","","","html-keyboard-response","12","161954","0.0-12.0","7A2FD3C07D83434E8933F2F44369452E","541d10f9-b71c-44da-84a0-a3ca050280da","e73ede5c-88cf-40f6-bd80-a9f952b58684","","null","<div style=""display: flex; justify-content: center; align-items: center;"">
                <img src=""images/causal/causal_series_6/causal_series_6_b.jpg"" style=""width: 300px; height: 300px;"" />
              </div>","null",""
"","","","","","html-keyboard-response","13","165959","0.0-13.0","7A2FD3C07D83434E8933F2F44369452E","541d10f9-b71c-44da-84a0-a3ca050280da","e73ede5c-88cf-40f6-bd80-a9f952b58684","","null","<div style=""display: flex; justify-content: center; align-items: center;"">
                <img src=""images/causal/causal_series_6/causal_series_6_c.jpg"" style=""width: 300px; height: 300px;"" />
              </div>","null",""
"","","","","","html-button-response","14","168649","0.0-14.0","7A2FD3C07D83434E8933F2F44369452E","541d10f9-b71c-44da-84a0-a3ca050280da","e73ede5c-88cf-40f6-bd80-a9f952b58684","","2690","
    <div style=""display: flex; justify-content: center; align-items: center;"">
      <img src=""images/blue_deck_1.png"" style=""width: 300px; height: 300px; margin-right: 10px;"" />
      <img src=""images/red_deck_2.png"" style=""width: 300px; height: 300px;"" />
    </div>","1","1"
"","","","","","html-keyboard-response","15","173047","0.0-15.0-1.0-0.0","7A2FD3C07D83434E8933F2F44369452E","541d10f9-b71c-44da-84a0-a3ca050280da","e73ede5c-88cf-40f6-bd80-a9f952b58684","","null","<div style=""display: flex; justify-content: center; align-items: center;"">
                <img src=""images/semantic/semantic_series_6/semantic_series_6_d.jpg"" style=""width: 300px; height: 300px;"" />
              </div>","null",""
"","","","","","html-keyboard-response","16","177061","0.0-16.0","7A2FD3C07D83434E8933F2F44369452E","541d10f9-b71c-44da-84a0-a3ca050280da","e73ede5c-88cf-40f6-bd80-a9f952b58684","","null","<div style=""display: flex; justify-content: center; align-items: center;"">
                <img src=""images/other/blank.jpg"" style=""width: 300px; height: 300px;"" />
              </div>","null",""
"","","","","","html-keyboard-response","17","181075","0.0-17.0","7A2FD3C07D83434E8933F2F44369452E","541d10f9-b71c-44da-84a0-a3ca050280da","e73ede5c-88cf-40f6-bd80-a9f952b58684","","null","<div style=""display: flex; justify-content: center; align-items: center;"">
                <img src=""images/causal/causal_series_12/causal_series_12_a.jpg"" style=""width: 300px; height: 300px;"" />
              </div>","null",""
"","","","","","html-keyboard-response","18","185090","0.0-18.0","7A2FD3C07D83434E8933F2F44369452E","541d10f9-b71c-44da-84a0-a3ca050280da","e73ede5c-88cf-40f6-bd80-a9f952b58684","","null","<div style=""display: flex; justify-content: center; align-items: center;"">
                <img src=""images/causal/causal_series_12/causal_series_12_b.jpg"" style=""width: 300px; height: 300px;"" />
              </div>","null",""
"","","","","","html-keyboard-response","19","189101","0.0-19.0","7A2FD3C07D83434E8933F2F44369452E","541d10f9-b71c-44da-84a0-a3ca050280da","e73ede5c-88cf-40f6-bd80-a9f952b58684","","null","<div style=""display: flex; justify-content: center; align-items: center;"">
                <img src=""images/causal/causal_series_12/causal_series_12_c.jpg"" style=""width: 300px; height: 300px;"" />
              </div>","null",""
"","","","","","html-button-response","20","190826","0.0-20.0","7A2FD3C07D83434E8933F2F44369452E","541d10f9-b71c-44da-84a0-a3ca050280da","e73ede5c-88cf-40f6-bd80-a9f952b58684","","1725","
    <div style=""display: flex; justify-content: center; align-items: center;"">
      <img src=""images/blue_deck_1.png"" style=""width: 300px; height: 300px; margin-right: 10px;"" />
      <img src=""images/red_deck_2.png"" style=""width: 300px; height: 300px;"" />
    </div>","0","0"
"","","","","","html-keyboard-response","21","194853","0.0-21.0-0.0-0.0","7A2FD3C07D83434E8933F2F44369452E","541d10f9-b71c-44da-84a0-a3ca050280da","e73ede5c-88cf-40f6-bd80-a9f952b58684","","null","<div style=""display: flex; justify-content: center; align-items: center;"">
                <img src=""images/causal/causal_series_12/causal_series_12_d.jpg"" style=""width: 300px; height: 300px;"" />
              </div>","null",""
"","","","","","html-keyboard-response","22","198861","0.0-22.0","7A2FD3C07D83434E8933F2F44369452E","541d10f9-b71c-44da-84a0-a3ca050280da","e73ede5c-88cf-40f6-bd80-a9f952b58684","","null","<div style=""display: flex; justify-content: center; align-items: center;"">
                <img src=""images/other/blank.jpg"" style=""width: 300px; height: 300px;"" />
              </div>","null",""
"","","","","","html-keyboard-response","23","202873","0.0-23.0","7A2FD3C07D83434E8933F2F44369452E","541d10f9-b71c-44da-84a0-a3ca050280da","e73ede5c-88cf-40f6-bd80-a9f952b58684","","null","<div style=""display: flex; justify-content: center; align-items: center;"">
                <img src=""images/causal/causal_series_3/causal_series_3_a.jpg"" style=""width: 300px; height: 300px;"" />
              </div>","null",""
"","","","","","html-keyboard-response","24","206883","0.0-24.0","7A2FD3C07D83434E8933F2F44369452E","541d10f9-b71c-44da-84a0-a3ca050280da","e73ede5c-88cf-40f6-bd80-a9f952b58684","","null","<div style=""display: flex; justify-content: center; align-items: center;"">
                <img src=""images/causal/causal_series_3/causal_series_3_b.jpg"" style=""width: 300px; height: 300px;"" />
              </div>","null",""
"","","","","","html-keyboard-response","25","210888","0.0-25.0","7A2FD3C07D83434E8933F2F44369452E","541d10f9-b71c-44da-84a0-a3ca050280da","e73ede5c-88cf-40f6-bd80-a9f952b58684","","null","<div style=""display: flex; justify-content: center; align-items: center;"">
                <img src=""images/causal/causal_series_3/causal_series_3_c.jpg"" style=""width: 300px; height: 300px;"" />
              </div>","null",""
"","","","","","html-button-response","26","213889","0.0-26.0","7A2FD3C07D83434E8933F2F44369452E","541d10f9-b71c-44da-84a0-a3ca050280da","e73ede5c-88cf-40f6-bd80-a9f952b58684","","3000","
    <div style=""display: flex; justify-content: center; align-items: center;"">
      <img src=""images/blue_deck_1.png"" style=""width: 300px; height: 300px; margin-right: 10px;"" />
      <img src=""images/red_deck_2.png"" style=""width: 300px; height: 300px;"" />
    </div>","0","0"
"","","","","","html-keyboard-response","27","217947","0.0-27.0-0.0-0.0","7A2FD3C07D83434E8933F2F44369452E","541d10f9-b71c-44da-84a0-a3ca050280da","e73ede5c-88cf-40f6-bd80-a9f952b58684","","null","<div style=""display: flex; justify-content: center; align-items: center;"">
                <img src=""images/causal/causal_series_3/causal_series_3_d.jpg"" style=""width: 300px; height: 300px;"" />
              </div>","null",""
"","","","","","html-keyboard-response","28","221950","0.0-28.0","7A2FD3C07D83434E8933F2F44369452E","541d10f9-b71c-44da-84a0-a3ca050280da","e73ede5c-88cf-40f6-bd80-a9f952b58684","","null","<div style=""display: flex; justify-content: center; align-items: center;"">
                <img src=""images/other/blank.jpg"" style=""width: 300px; height: 300px;"" />
              </div>","null",""
"","","","","","html-keyboard-response","29","225952","0.0-29.0","7A2FD3C07D83434E8933F2F44369452E","541d10f9-b71c-44da-84a0-a3ca050280da","e73ede5c-88cf-40f6-bd80-a9f952b58684","","null","<div style=""display: flex; justify-content: center; align-items: center;"">
                <img src=""images/causal/causal_series_17/causal_series_17_a.jpg"" style=""width: 300px; height: 300px;"" />
              </div>","null",""
"","","","","","html-keyboard-response","30","229957","0.0-30.0","7A2FD3C07D83434E8933F2F44369452E","541d10f9-b71c-44da-84a0-a3ca050280da","e73ede5c-88cf-40f6-bd80-a9f952b58684","","null","<div style=""display: flex; justify-content: center; align-items: center;"">
                <img src=""images/causal/causal_series_17/causal_series_17_b.jpg"" style=""width: 300px; height: 300px;"" />
              </div>","null",""
"","","","","","html-keyboard-response","31","233973","0.0-31.0","7A2FD3C07D83434E8933F2F44369452E","541d10f9-b71c-44da-84a0-a3ca050280da","e73ede5c-88cf-40f6-bd80-a9f952b58684","","null","<div style=""display: flex; justify-content: center; align-items: center;"">
                <img src=""images/causal/causal_series_17/causal_series_17_c.jpg"" style=""width: 300px; height: 300px;"" />
              </div>","null",""
"","","","","","html-button-response","32","236031","0.0-32.0","7A2FD3C07D83434E8933F2F44369452E","541d10f9-b71c-44da-84a0-a3ca050280da","e73ede5c-88cf-40f6-bd80-a9f952b58684","","2057","
    <div style=""display: flex; justify-content: center; align-items: center;"">
      <img src=""images/blue_deck_1.png"" style=""width: 300px; height: 300px; margin-right: 10px;"" />
      <img src=""images/red_deck_2.png"" style=""width: 300px; height: 300px;"" />
    </div>","1","1"
"","","","","","html-keyboard-response","33","240353","0.0-33.0-1.0-0.0","7A2FD3C07D83434E8933F2F44369452E","541d10f9-b71c-44da-84a0-a3ca050280da","e73ede5c-88cf-40f6-bd80-a9f952b58684","","null","<div style=""display: flex; justify-content: center; align-items: center;"">
                <img src=""images/semantic/semantic_series_17/semantic_series_17_d.jpg"" style=""width: 300px; height: 300px;"" />
              </div>","null",""
"","","","","","html-keyboard-response","34","244358","0.0-34.0","7A2FD3C07D83434E8933F2F44369452E","541d10f9-b71c-44da-84a0-a3ca050280da","e73ede5c-88cf-40f6-bd80-a9f952b58684","","null","<div style=""display: flex; justify-content: center; align-items: center;"">
                <img src=""images/other/blank.jpg"" style=""width: 300px; height: 300px;"" />
              </div>","null",""
"","","","","","html-keyboard-response","35","248360","0.0-35.0","7A2FD3C07D83434E8933F2F44369452E","541d10f9-b71c-44da-84a0-a3ca050280da","e73ede5c-88cf-40f6-bd80-a9f952b58684","","null","<div style=""display: flex; justify-content: center; align-items: center;"">
                <img src=""images/causal/causal_series_15/causal_series_15_a.jpg"" style=""width: 300px; height: 300px;"" />
              </div>","null",""
"","","","","","html-keyboard-response","36","252376","0.0-36.0","7A2FD3C07D83434E8933F2F44369452E","541d10f9-b71c-44da-84a0-a3ca050280da","e73ede5c-88cf-40f6-bd80-a9f952b58684","","null","<div style=""display: flex; justify-content: center; align-items: center;"">
                <img src=""images/causal/causal_series_15/causal_series_15_b.jpg"" style=""width: 300px; height: 300px;"" />
              </div>","null",""
"","","","","","html-keyboard-response","37","256379","0.0-37.0","7A2FD3C07D83434E8933F2F44369452E","541d10f9-b71c-44da-84a0-a3ca050280da","e73ede5c-88cf-40f6-bd80-a9f952b58684","","null","<div style=""display: flex; justify-content: center; align-items: center;"">
                <img src=""images/causal/causal_series_15/causal_series_15_c.jpg"" style=""width: 300px; height: 300px;"" />
              </div>","null",""
"","","","","","html-button-response","38","261328","0.0-38.0","7A2FD3C07D83434E8933F2F44369452E","541d10f9-b71c-44da-84a0-a3ca050280da","e73ede5c-88cf-40f6-bd80-a9f952b58684","","4948","
    <div style=""display: flex; justify-content: center; align-items: center;"">
      <img src=""images/blue_deck_1.png"" style=""width: 300px; height: 300px; margin-right: 10px;"" />
      <img src=""images/red_deck_2.png"" style=""width: 300px; height: 300px;"" />
    </div>","1","1"
"","","","","","html-keyboard-response","39","265798","0.0-39.0-1.0-0.0","7A2FD3C07D83434E8933F2F44369452E","541d10f9-b71c-44da-84a0-a3ca050280da","e73ede5c-88cf-40f6-bd80-a9f952b58684","","null","<div style=""display: flex; justify-content: center; align-items: center;"">
                <img src=""images/semantic/semantic_series_15/semantic_series_15_d.jpg"" style=""width: 300px; height: 300px;"" />
              </div>","null",""
"","","","","","html-keyboard-response","40","269810","0.0-40.0","7A2FD3C07D83434E8933F2F44369452E","541d10f9-b71c-44da-84a0-a3ca050280da","e73ede5c-88cf-40f6-bd80-a9f952b58684","","null","<div style=""display: flex; justify-content: center; align-items: center;"">
                <img src=""images/other/blank.jpg"" style=""width: 300px; height: 300px;"" />
              </div>","null",""
"","","","","","html-keyboard-response","41","273818","0.0-41.0","7A2FD3C07D83434E8933F2F44369452E","541d10f9-b71c-44da-84a0-a3ca050280da","e73ede5c-88cf-40f6-bd80-a9f952b58684","","null","<div style=""display: flex; justify-content: center; align-items: center;"">
                <img src=""images/causal/causal_series_11/causal_series_11_a.jpg"" style=""width: 300px; height: 300px;"" />
              </div>","null",""
"","","","","","html-keyboard-response","42","277964","0.0-42.0","7A2FD3C07D83434E8933F2F44369452E","541d10f9-b71c-44da-84a0-a3ca050280da","e73ede5c-88cf-40f6-bd80-a9f952b58684","","null","<div style=""display: flex; justify-content: center; align-items: center;"">
                <img src=""images/causal/causal_series_11/causal_series_11_b.jpg"" style=""width: 300px; height: 300px;"" />
              </div>","null",""
"","","","","","html-keyboard-response","43","281964","0.0-43.0","7A2FD3C07D83434E8933F2F44369452E","541d10f9-b71c-44da-84a0-a3ca050280da","e73ede5c-88cf-40f6-bd80-a9f952b58684","","null","<div style=""display: flex; justify-content: center; align-items: center;"">
                <img src=""images/causal/causal_series_11/causal_series_11_c.jpg"" style=""width: 300px; height: 300px;"" />
              </div>","null",""
"","","","","","html-button-response","44","286372","0.0-44.0","7A2FD3C07D83434E8933F2F44369452E","541d10f9-b71c-44da-84a0-a3ca050280da","e73ede5c-88cf-40f6-bd80-a9f952b58684","","4406","
    <div style=""display: flex; justify-content: center; align-items: center;"">
      <img src=""images/blue_deck_1.png"" style=""width: 300px; height: 300px; margin-right: 10px;"" />
      <img src=""images/red_deck_2.png"" style=""width: 300px; height: 300px;"" />
    </div>","1","1"
"","","","","","html-keyboard-response","45","290783","0.0-45.0-1.0-0.0","7A2FD3C07D83434E8933F2F44369452E","541d10f9-b71c-44da-84a0-a3ca050280da","e73ede5c-88cf-40f6-bd80-a9f952b58684","","null","<div style=""display: flex; justify-content: center; align-items: center;"">
                <img src=""images/semantic/semantic_series_11/semantic_series_11_d.jpg"" style=""width: 300px; height: 300px;"" />
              </div>","null",""
"","","","","","html-keyboard-response","46","294791","0.0-46.0","7A2FD3C07D83434E8933F2F44369452E","541d10f9-b71c-44da-84a0-a3ca050280da","e73ede5c-88cf-40f6-bd80-a9f952b58684","","null","<div style=""display: flex; justify-content: center; align-items: center;"">
                <img src=""images/other/blank.jpg"" style=""width: 300px; height: 300px;"" />
              </div>","null",""
"","","","","","html-keyboard-response","47","298798","0.0-47.0","7A2FD3C07D83434E8933F2F44369452E","541d10f9-b71c-44da-84a0-a3ca050280da","e73ede5c-88cf-40f6-bd80-a9f952b58684","","null","<div style=""display: flex; justify-content: center; align-items: center;"">
                <img src=""images/causal/causal_series_5/causal_series_5_a.jpg"" style=""width: 300px; height: 300px;"" />
              </div>","null",""
"","","","","","html-keyboard-response","48","302799","0.0-48.0","7A2FD3C07D83434E8933F2F44369452E","541d10f9-b71c-44da-84a0-a3ca050280da","e73ede5c-88cf-40f6-bd80-a9f952b58684","","null","<div style=""display: flex; justify-content: center; align-items: center;"">
                <img src=""images/causal/causal_series_5/causal_series_5_b.jpg"" style=""width: 300px; height: 300px;"" />
              </div>","null",""
"","","","","","html-keyboard-response","49","306801","0.0-49.0","7A2FD3C07D83434E8933F2F44369452E","541d10f9-b71c-44da-84a0-a3ca050280da","e73ede5c-88cf-40f6-bd80-a9f952b58684","","null","<div style=""display: flex; justify-content: center; align-items: center;"">
                <img src=""images/causal/causal_series_5/causal_series_5_c.jpg"" style=""width: 300px; height: 300px;"" />
              </div>","null",""
"","","","","","html-button-response","50","312061","0.0-50.0","7A2FD3C07D83434E8933F2F44369452E","541d10f9-b71c-44da-84a0-a3ca050280da","e73ede5c-88cf-40f6-bd80-a9f952b58684","","5259","
    <div style=""display: flex; justify-content: center; align-items: center;"">
      <img src=""images/blue_deck_1.png"" style=""width: 300px; height: 300px; margin-right: 10px;"" />
      <img src=""images/red_deck_2.png"" style=""width: 300px; height: 300px;"" />
    </div>","1","1"
"","","","","","html-keyboard-response","51","316409","0.0-51.0-1.0-0.0","7A2FD3C07D83434E8933F2F44369452E","541d10f9-b71c-44da-84a0-a3ca050280da","e73ede5c-88cf-40f6-bd80-a9f952b58684","","null","<div style=""display: flex; justify-content: center; align-items: center;"">
                <img src=""images/semantic/semantic_series_5/semantic_series_5_d.jpg"" style=""width: 300px; height: 300px;"" />
              </div>","null",""
"","","","","","html-keyboard-response","52","320415","0.0-52.0","7A2FD3C07D83434E8933F2F44369452E","541d10f9-b71c-44da-84a0-a3ca050280da","e73ede5c-88cf-40f6-bd80-a9f952b58684","","null","<div style=""display: flex; justify-content: center; align-items: center;"">
                <img src=""images/other/blank.jpg"" style=""width: 300px; height: 300px;"" />
              </div>","null",""
"","","","","","html-keyboard-response","53","324430","0.0-53.0","7A2FD3C07D83434E8933F2F44369452E","541d10f9-b71c-44da-84a0-a3ca050280da","e73ede5c-88cf-40f6-bd80-a9f952b58684","","null","<div style=""display: flex; justify-content: center; align-items: center;"">
                <img src=""images/causal/causal_series_4/causal_series_4_a.jpg"" style=""width: 300px; height: 300px;"" />
              </div>","null",""
"","","","","","html-keyboard-response","54","328434","0.0-54.0","7A2FD3C07D83434E8933F2F44369452E","541d10f9-b71c-44da-84a0-a3ca050280da","e73ede5c-88cf-40f6-bd80-a9f952b58684","","null","<div style=""display: flex; justify-content: center; align-items: center;"">
                <img src=""images/causal/causal_series_4/causal_series_4_b.jpg"" style=""width: 300px; height: 300px;"" />
              </div>","null",""
"","","","","","html-keyboard-response","55","332439","0.0-55.0","7A2FD3C07D83434E8933F2F44369452E","541d10f9-b71c-44da-84a0-a3ca050280da","e73ede5c-88cf-40f6-bd80-a9f952b58684","","null","<div style=""display: flex; justify-content: center; align-items: center;"">
                <img src=""images/causal/causal_series_4/causal_series_4_c.jpg"" style=""width: 300px; height: 300px;"" />
              </div>","null",""
"","","","","","html-button-response","56","336916","0.0-56.0","7A2FD3C07D83434E8933F2F44369452E","541d10f9-b71c-44da-84a0-a3ca050280da","e73ede5c-88cf-40f6-bd80-a9f952b58684","","4475","
    <div style=""display: flex; justify-content: center; align-items: center;"">
      <img src=""images/blue_deck_1.png"" style=""width: 300px; height: 300px; margin-right: 10px;"" />
      <img src=""images/red_deck_2.png"" style=""width: 300px; height: 300px;"" />
    </div>","0","0"
"","","","","","html-keyboard-response","57","340928","0.0-57.0-0.0-0.0","7A2FD3C07D83434E8933F2F44369452E","541d10f9-b71c-44da-84a0-a3ca050280da","e73ede5c-88cf-40f6-bd80-a9f952b58684","","null","<div style=""display: flex; justify-content: center; align-items: center;"">
                <img src=""images/causal/causal_series_4/causal_series_4_d.jpg"" style=""width: 300px; height: 300px;"" />
              </div>","null",""
"","","","","","html-keyboard-response","58","345103","0.0-58.0","7A2FD3C07D83434E8933F2F44369452E","541d10f9-b71c-44da-84a0-a3ca050280da","e73ede5c-88cf-40f6-bd80-a9f952b58684","","null","<div style=""display: flex; justify-content: center; align-items: center;"">
                <img src=""images/other/blank.jpg"" style=""width: 300px; height: 300px;"" />
              </div>","null",""
"","","","","","html-keyboard-response","59","349115","0.0-59.0","7A2FD3C07D83434E8933F2F44369452E","541d10f9-b71c-44da-84a0-a3ca050280da","e73ede5c-88cf-40f6-bd80-a9f952b58684","","null","<div style=""display: flex; justify-content: center; align-items: center;"">
                <img src=""images/causal/causal_series_8/causal_series_8_a.jpg"" style=""width: 300px; height: 300px;"" />
              </div>","null",""
"","","","","","html-keyboard-response","60","353126","0.0-60.0","7A2FD3C07D83434E8933F2F44369452E","541d10f9-b71c-44da-84a0-a3ca050280da","e73ede5c-88cf-40f6-bd80-a9f952b58684","","null","<div style=""display: flex; justify-content: center; align-items: center;"">
                <img src=""images/causal/causal_series_8/causal_series_8_b.jpg"" style=""width: 300px; height: 300px;"" />
              </div>","null",""
"","","","","","html-keyboard-response","61","357128","0.0-61.0","7A2FD3C07D83434E8933F2F44369452E","541d10f9-b71c-44da-84a0-a3ca050280da","e73ede5c-88cf-40f6-bd80-a9f952b58684","","null","<div style=""display: flex; justify-content: center; align-items: center;"">
                <img src=""images/causal/causal_series_8/causal_series_8_c.jpg"" style=""width: 300px; height: 300px;"" />
              </div>","null",""
"","","","","","html-button-response","62","368068","0.0-62.0","7A2FD3C07D83434E8933F2F44369452E","541d10f9-b71c-44da-84a0-a3ca050280da","e73ede5c-88cf-40f6-bd80-a9f952b58684","","10938","
    <div style=""display: flex; justify-content: center; align-items: center;"">
      <img src=""images/blue_deck_1.png"" style=""width: 300px; height: 300px; margin-right: 10px;"" />
      <img src=""images/red_deck_2.png"" style=""width: 300px; height: 300px;"" />
    </div>","0","0"
"","","","","","html-keyboard-response","63","372431","0.0-63.0-0.0-0.0","7A2FD3C07D83434E8933F2F44369452E","541d10f9-b71c-44da-84a0-a3ca050280da","e73ede5c-88cf-40f6-bd80-a9f952b58684","","null","<div style=""display: flex; justify-content: center; align-items: center;"">
                <img src=""images/causal/causal_series_8/causal_series_8_d.jpg"" style=""width: 300px; height: 300px;"" />
              </div>","null",""
"","","","","","html-keyboard-response","64","376436","0.0-64.0","7A2FD3C07D83434E8933F2F44369452E","541d10f9-b71c-44da-84a0-a3ca050280da","e73ede5c-88cf-40f6-bd80-a9f952b58684","","null","<div style=""display: flex; justify-content: center; align-items: center;"">
                <img src=""images/other/blank.jpg"" style=""width: 300px; height: 300px;"" />
              </div>","null",""
"","","","","","html-keyboard-response","65","380451","0.0-65.0","7A2FD3C07D83434E8933F2F44369452E","541d10f9-b71c-44da-84a0-a3ca050280da","e73ede5c-88cf-40f6-bd80-a9f952b58684","","null","<div style=""display: flex; justify-content: center; align-items: center;"">
                <img src=""images/causal/causal_series_14/causal_series_14_a.jpg"" style=""width: 300px; height: 300px;"" />
              </div>","null",""
"","","","","","html-keyboard-response","66","384452","0.0-66.0","7A2FD3C07D83434E8933F2F44369452E","541d10f9-b71c-44da-84a0-a3ca050280da","e73ede5c-88cf-40f6-bd80-a9f952b58684","","null","<div style=""display: flex; justify-content: center; align-items: center;"">
                <img src=""images/causal/causal_series_14/causal_series_14_b.jpg"" style=""width: 300px; height: 300px;"" />
              </div>","null",""
"","","","","","html-keyboard-response","67","388455","0.0-67.0","7A2FD3C07D83434E8933F2F44369452E","541d10f9-b71c-44da-84a0-a3ca050280da","e73ede5c-88cf-40f6-bd80-a9f952b58684","","null","<div style=""display: flex; justify-content: center; align-items: center;"">
                <img src=""images/causal/causal_series_14/causal_series_14_c.jpg"" style=""width: 300px; height: 300px;"" />
              </div>","null",""
"","","","","","html-button-response","68","390665","0.0-68.0","7A2FD3C07D83434E8933F2F44369452E","541d10f9-b71c-44da-84a0-a3ca050280da","e73ede5c-88cf-40f6-bd80-a9f952b58684","","2209","
    <div style=""display: flex; justify-content: center; align-items: center;"">
      <img src=""images/blue_deck_1.png"" style=""width: 300px; height: 300px; margin-right: 10px;"" />
      <img src=""images/red_deck_2.png"" style=""width: 300px; height: 300px;"" />
    </div>","1","1"
"","","","","","html-keyboard-response","69","394667","0.0-69.0-1.0-0.0","7A2FD3C07D83434E8933F2F44369452E","541d10f9-b71c-44da-84a0-a3ca050280da","e73ede5c-88cf-40f6-bd80-a9f952b58684","","null","<div style=""display: flex; justify-content: center; align-items: center;"">
                <img src=""images/semantic/semantic_series_14/semantic_series_14_d.jpg"" style=""width: 300px; height: 300px;"" />
              </div>","null",""
"","","","","","html-keyboard-response","70","398917","0.0-70.0","7A2FD3C07D83434E8933F2F44369452E","541d10f9-b71c-44da-84a0-a3ca050280da","e73ede5c-88cf-40f6-bd80-a9f952b58684","","null","<div style=""display: flex; justify-content: center; align-items: center;"">
                <img src=""images/other/blank.jpg"" style=""width: 300px; height: 300px;"" />
              </div>","null",""
"","","","","","html-keyboard-response","71","402924","0.0-71.0","7A2FD3C07D83434E8933F2F44369452E","541d10f9-b71c-44da-84a0-a3ca050280da","e73ede5c-88cf-40f6-bd80-a9f952b58684","","null","<div style=""display: flex; justify-content: center; align-items: center;"">
                <img src=""images/causal/causal_series_18/causal_series_18_a.jpg"" style=""width: 300px; height: 300px;"" />
              </div>","null",""
"","","","","","html-keyboard-response","72","406935","0.0-72.0","7A2FD3C07D83434E8933F2F44369452E","541d10f9-b71c-44da-84a0-a3ca050280da","e73ede5c-88cf-40f6-bd80-a9f952b58684","","null","<div style=""display: flex; justify-content: center; align-items: center;"">
                <img src=""images/causal/causal_series_18/causal_series_18_b.jpg"" style=""width: 300px; height: 300px;"" />
              </div>","null",""
"","","","","","html-keyboard-response","73","410949","0.0-73.0","7A2FD3C07D83434E8933F2F44369452E","541d10f9-b71c-44da-84a0-a3ca050280da","e73ede5c-88cf-40f6-bd80-a9f952b58684","","null","<div style=""display: flex; justify-content: center; align-items: center;"">
                <img src=""images/causal/causal_series_18/causal_series_18_c.jpg"" style=""width: 300px; height: 300px;"" />
              </div>","null",""
"","","","","","html-button-response","74","414215","0.0-74.0","7A2FD3C07D83434E8933F2F44369452E","541d10f9-b71c-44da-84a0-a3ca050280da","e73ede5c-88cf-40f6-bd80-a9f952b58684","","3266","
    <div style=""display: flex; justify-content: center; align-items: center;"">
      <img src=""images/blue_deck_1.png"" style=""width: 300px; height: 300px; margin-right: 10px;"" />
      <img src=""images/red_deck_2.png"" style=""width: 300px; height: 300px;"" />
    </div>","1","1"
"","","","","","html-keyboard-response","75","418225","0.0-75.0-1.0-0.0","7A2FD3C07D83434E8933F2F44369452E","541d10f9-b71c-44da-84a0-a3ca050280da","e73ede5c-88cf-40f6-bd80-a9f952b58684","","null","<div style=""display: flex; justify-content: center; align-items: center;"">
                <img src=""images/semantic/semantic_series_18/semantic_series_18_d.jpg"" style=""width: 300px; height: 300px;"" />
              </div>","null",""
"","","","","","html-keyboard-response","76","422228","0.0-76.0","7A2FD3C07D83434E8933F2F44369452E","541d10f9-b71c-44da-84a0-a3ca050280da","e73ede5c-88cf-40f6-bd80-a9f952b58684","","null","<div style=""display: flex; justify-content: center; align-items: center;"">
                <img src=""images/other/blank.jpg"" style=""width: 300px; height: 300px;"" />
              </div>","null",""
"","","","","","html-keyboard-response","77","426243","0.0-77.0","7A2FD3C07D83434E8933F2F44369452E","541d10f9-b71c-44da-84a0-a3ca050280da","e73ede5c-88cf-40f6-bd80-a9f952b58684","","null","<div style=""display: flex; justify-content: center; align-items: center;"">
                <img src=""images/causal/causal_series_9/causal_series_9_a.jpg"" style=""width: 300px; height: 300px;"" />
              </div>","null",""
"","","","","","html-keyboard-response","78","430257","0.0-78.0","7A2FD3C07D83434E8933F2F44369452E","541d10f9-b71c-44da-84a0-a3ca050280da","e73ede5c-88cf-40f6-bd80-a9f952b58684","","null","<div style=""display: flex; justify-content: center; align-items: center;"">
                <img src=""images/causal/causal_series_9/causal_series_9_b.jpg"" style=""width: 300px; height: 300px;"" />
              </div>","null",""
"","","","","","html-keyboard-response","79","434265","0.0-79.0","7A2FD3C07D83434E8933F2F44369452E","541d10f9-b71c-44da-84a0-a3ca050280da","e73ede5c-88cf-40f6-bd80-a9f952b58684","","null","<div style=""display: flex; justify-content: center; align-items: center;"">
                <img src=""images/causal/causal_series_9/causal_series_9_c.jpg"" style=""width: 300px; height: 300px;"" />
              </div>","null",""
"","","","","","html-button-response","80","452904","0.0-80.0","7A2FD3C07D83434E8933F2F44369452E","541d10f9-b71c-44da-84a0-a3ca050280da","e73ede5c-88cf-40f6-bd80-a9f952b58684","","18638","
    <div style=""display: flex; justify-content: center; align-items: center;"">
      <img src=""images/blue_deck_1.png"" style=""width: 300px; height: 300px; margin-right: 10px;"" />
      <img src=""images/red_deck_2.png"" style=""width: 300px; height: 300px;"" />
    </div>","1","1"
"","","","","","html-keyboard-response","81","457256","0.0-81.0-1.0-0.0","7A2FD3C07D83434E8933F2F44369452E","541d10f9-b71c-44da-84a0-a3ca050280da","e73ede5c-88cf-40f6-bd80-a9f952b58684","","null","<div style=""display: flex; justify-content: center; align-items: center;"">
                <img src=""images/semantic/semantic_series_9/semantic_series_9_d.jpg"" style=""width: 300px; height: 300px;"" />
              </div>","null",""
"","","","","","html-keyboard-response","82","461270","0.0-82.0","7A2FD3C07D83434E8933F2F44369452E","541d10f9-b71c-44da-84a0-a3ca050280da","e73ede5c-88cf-40f6-bd80-a9f952b58684","","null","<div style=""display: flex; justify-content: center; align-items: center;"">
                <img src=""images/other/blank.jpg"" style=""width: 300px; height: 300px;"" />
              </div>","null",""
"","","","","","html-keyboard-response","83","465278","0.0-83.0","7A2FD3C07D83434E8933F2F44369452E","541d10f9-b71c-44da-84a0-a3ca050280da","e73ede5c-88cf-40f6-bd80-a9f952b58684","","null","<div style=""display: flex; justify-content: center; align-items: center;"">
                <img src=""images/causal/causal_series_13/causal_series_13_a.jpg"" style=""width: 300px; height: 300px;"" />
              </div>","null",""
"","","","","","html-keyboard-response","84","469294","0.0-84.0","7A2FD3C07D83434E8933F2F44369452E","541d10f9-b71c-44da-84a0-a3ca050280da","e73ede5c-88cf-40f6-bd80-a9f952b58684","","null","<div style=""display: flex; justify-content: center; align-items: center;"">
                <img src=""images/causal/causal_series_13/causal_series_13_b.jpg"" style=""width: 300px; height: 300px;"" />
              </div>","null",""
"","","","","","html-keyboard-response","85","473297","0.0-85.0","7A2FD3C07D83434E8933F2F44369452E","541d10f9-b71c-44da-84a0-a3ca050280da","e73ede5c-88cf-40f6-bd80-a9f952b58684","","null","<div style=""display: flex; justify-content: center; align-items: center;"">
                <img src=""images/causal/causal_series_13/causal_series_13_c.jpg"" style=""width: 300px; height: 300px;"" />
              </div>","null",""
"","","","","","html-button-response","86","476573","0.0-86.0","7A2FD3C07D83434E8933F2F44369452E","541d10f9-b71c-44da-84a0-a3ca050280da","e73ede5c-88cf-40f6-bd80-a9f952b58684","","3276","
    <div style=""display: flex; justify-content: center; align-items: center;"">
      <img src=""images/blue_deck_1.png"" style=""width: 300px; height: 300px; margin-right: 10px;"" />
      <img src=""images/red_deck_2.png"" style=""width: 300px; height: 300px;"" />
    </div>","1","1"
"","","","","","html-keyboard-response","87","480587","0.0-87.0-1.0-0.0","7A2FD3C07D83434E8933F2F44369452E","541d10f9-b71c-44da-84a0-a3ca050280da","e73ede5c-88cf-40f6-bd80-a9f952b58684","","null","<div style=""display: flex; justify-content: center; align-items: center;"">
                <img src=""images/semantic/semantic_series_13/semantic_series_13_d.jpg"" style=""width: 300px; height: 300px;"" />
              </div>","null",""
"","","","","","html-keyboard-response","88","484597","0.0-88.0","7A2FD3C07D83434E8933F2F44369452E","541d10f9-b71c-44da-84a0-a3ca050280da","e73ede5c-88cf-40f6-bd80-a9f952b58684","","null","<div style=""display: flex; justify-content: center; align-items: center;"">
                <img src=""images/other/blank.jpg"" style=""width: 300px; height: 300px;"" />
              </div>","null",""
"","","","","","html-keyboard-response","89","488607","0.0-89.0","7A2FD3C07D83434E8933F2F44369452E","541d10f9-b71c-44da-84a0-a3ca050280da","e73ede5c-88cf-40f6-bd80-a9f952b58684","","null","<div style=""display: flex; justify-content: center; align-items: center;"">
                <img src=""images/causal/causal_series_1/causal_series_1_a.jpg"" style=""width: 300px; height: 300px;"" />
              </div>","null",""
"","","","","","html-keyboard-response","90","492615","0.0-90.0","7A2FD3C07D83434E8933F2F44369452E","541d10f9-b71c-44da-84a0-a3ca050280da","e73ede5c-88cf-40f6-bd80-a9f952b58684","","null","<div style=""display: flex; justify-content: center; align-items: center;"">
                <img src=""images/causal/causal_series_1/causal_series_1_b.jpg"" style=""width: 300px; height: 300px;"" />
              </div>","null",""
"","","","","","html-keyboard-response","91","496621","0.0-91.0","7A2FD3C07D83434E8933F2F44369452E","541d10f9-b71c-44da-84a0-a3ca050280da","e73ede5c-88cf-40f6-bd80-a9f952b58684","","null","<div style=""display: flex; justify-content: center; align-items: center;"">
                <img src=""images/causal/causal_series_1/causal_series_1_c.jpg"" style=""width: 300px; height: 300px;"" />
              </div>","null",""
"","","","","","html-button-response","92","499260","0.0-92.0","7A2FD3C07D83434E8933F2F44369452E","541d10f9-b71c-44da-84a0-a3ca050280da","e73ede5c-88cf-40f6-bd80-a9f952b58684","","2638","
    <div style=""display: flex; justify-content: center; align-items: center;"">
      <img src=""images/blue_deck_1.png"" style=""width: 300px; height: 300px; margin-right: 10px;"" />
      <img src=""images/red_deck_2.png"" style=""width: 300px; height: 300px;"" />
    </div>","1","1"
"","","","","","html-keyboard-response","93","503265","0.0-93.0-1.0-0.0","7A2FD3C07D83434E8933F2F44369452E","541d10f9-b71c-44da-84a0-a3ca050280da","e73ede5c-88cf-40f6-bd80-a9f952b58684","","null","<div style=""display: flex; justify-content: center; align-items: center;"">
                <img src=""images/semantic/semantic_series_1/semantic_series_1_d.jpg"" style=""width: 300px; height: 300px;"" />
              </div>","null",""
"","","","","","html-keyboard-response","94","507275","0.0-94.0","7A2FD3C07D83434E8933F2F44369452E","541d10f9-b71c-44da-84a0-a3ca050280da","e73ede5c-88cf-40f6-bd80-a9f952b58684","","null","<div style=""display: flex; justify-content: center; align-items: center;"">
                <img src=""images/other/blank.jpg"" style=""width: 300px; height: 300px;"" />
              </div>","null",""
"","","","","","html-keyboard-response","95","511285","0.0-95.0","7A2FD3C07D83434E8933F2F44369452E","541d10f9-b71c-44da-84a0-a3ca050280da","e73ede5c-88cf-40f6-bd80-a9f952b58684","","null","<div style=""display: flex; justify-content: center; align-items: center;"">
                <img src=""images/causal/causal_series_2/causal_series_2_a.jpg"" style=""width: 300px; height: 300px;"" />
              </div>","null",""
"","","","","","html-keyboard-response","96","515286","0.0-96.0","7A2FD3C07D83434E8933F2F44369452E","541d10f9-b71c-44da-84a0-a3ca050280da","e73ede5c-88cf-40f6-bd80-a9f952b58684","","null","<div style=""display: flex; justify-content: center; align-items: center;"">
                <img src=""images/causal/causal_series_2/causal_series_2_b.jpg"" style=""width: 300px; height: 300px;"" />
              </div>","null",""
"","","","","","html-keyboard-response","97","519299","0.0-97.0","7A2FD3C07D83434E8933F2F44369452E","541d10f9-b71c-44da-84a0-a3ca050280da","e73ede5c-88cf-40f6-bd80-a9f952b58684","","null","<div style=""display: flex; justify-content: center; align-items: center;"">
                <img src=""images/causal/causal_series_2/causal_series_2_c.jpg"" style=""width: 300px; height: 300px;"" />
              </div>","null",""
"","","","","","html-button-response","98","524243","0.0-98.0","7A2FD3C07D83434E8933F2F44369452E","541d10f9-b71c-44da-84a0-a3ca050280da","e73ede5c-88cf-40f6-bd80-a9f952b58684","","4943","
    <div style=""display: flex; justify-content: center; align-items: center;"">
      <img src=""images/blue_deck_1.png"" style=""width: 300px; height: 300px; margin-right: 10px;"" />
      <img src=""images/red_deck_2.png"" style=""width: 300px; height: 300px;"" />
    </div>","1","1"
"","","","","","html-keyboard-response","99","528260","0.0-99.0-1.0-0.0","7A2FD3C07D83434E8933F2F44369452E","541d10f9-b71c-44da-84a0-a3ca050280da","e73ede5c-88cf-40f6-bd80-a9f952b58684","","null","<div style=""display: flex; justify-content: center; align-items: center;"">
                <img src=""images/semantic/semantic_series_2/semantic_series_2_d.jpg"" style=""width: 300px; height: 300px;"" />
              </div>","null",""
"","","","","","html-keyboard-response","100","532264","0.0-100.0","7A2FD3C07D83434E8933F2F44369452E","541d10f9-b71c-44da-84a0-a3ca050280da","e73ede5c-88cf-40f6-bd80-a9f952b58684","","null","<div style=""display: flex; justify-content: center; align-items: center;"">
                <img src=""images/other/blank.jpg"" style=""width: 300px; height: 300px;"" />
              </div>","null",""
"","","","","","html-keyboard-response","101","536278","0.0-101.0","7A2FD3C07D83434E8933F2F44369452E","541d10f9-b71c-44da-84a0-a3ca050280da","e73ede5c-88cf-40f6-bd80-a9f952b58684","","null","<div style=""display: flex; justify-content: center; align-items: center;"">
                <img src=""images/causal/causal_series_7/causal_series_7_a.jpg"" style=""width: 300px; height: 300px;"" />
              </div>","null",""
"","","","","","html-keyboard-response","102","540287","0.0-102.0","7A2FD3C07D83434E8933F2F44369452E","541d10f9-b71c-44da-84a0-a3ca050280da","e73ede5c-88cf-40f6-bd80-a9f952b58684","","null","<div style=""display: flex; justify-content: center; align-items: center;"">
                <img src=""images/causal/causal_series_7/causal_series_7_b.jpg"" style=""width: 300px; height: 300px;"" />
              </div>","null",""
"","","","","","html-keyboard-response","103","544291","0.0-103.0","7A2FD3C07D83434E8933F2F44369452E","541d10f9-b71c-44da-84a0-a3ca050280da","e73ede5c-88cf-40f6-bd80-a9f952b58684","","null","<div style=""display: flex; justify-content: center; align-items: center;"">
                <img src=""images/causal/causal_series_7/causal_series_7_c.jpg"" style=""width: 300px; height: 300px;"" />
              </div>","null",""
"","","","","","html-button-response","104","546932","0.0-104.0","7A2FD3C07D83434E8933F2F44369452E","541d10f9-b71c-44da-84a0-a3ca050280da","e73ede5c-88cf-40f6-bd80-a9f952b58684","","2640","
    <div style=""display: flex; justify-content: center; align-items: center;"">
      <img src=""images/blue_deck_1.png"" style=""width: 300px; height: 300px; margin-right: 10px;"" />
      <img src=""images/red_deck_2.png"" style=""width: 300px; height: 300px;"" />
    </div>","0","0"
"","","","","","html-keyboard-response","105","550941","0.0-105.0-0.0-0.0","7A2FD3C07D83434E8933F2F44369452E","541d10f9-b71c-44da-84a0-a3ca050280da","e73ede5c-88cf-40f6-bd80-a9f952b58684","","null","<div style=""display: flex; justify-content: center; align-items: center;"">
                <img src=""images/causal/causal_series_7/causal_series_7_d.jpg"" style=""width: 300px; height: 300px;"" />
              </div>","null",""
"","","","","","html-keyboard-response","106","554948","0.0-106.0","7A2FD3C07D83434E8933F2F44369452E","541d10f9-b71c-44da-84a0-a3ca050280da","e73ede5c-88cf-40f6-bd80-a9f952b58684","","null","<div style=""display: flex; justify-content: center; align-items: center;"">
                <img src=""images/other/blank.jpg"" style=""width: 300px; height: 300px;"" />
              </div>","null",""
"","","","","","html-keyboard-response","107","558950","0.0-107.0","7A2FD3C07D83434E8933F2F44369452E","541d10f9-b71c-44da-84a0-a3ca050280da","e73ede5c-88cf-40f6-bd80-a9f952b58684","","null","<div style=""display: flex; justify-content: center; align-items: center;"">
                <img src=""images/causal/causal_series_16/causal_series_16_a.jpg"" style=""width: 300px; height: 300px;"" />
              </div>","null",""
"","","","","","html-keyboard-response","108","562952","0.0-108.0","7A2FD3C07D83434E8933F2F44369452E","541d10f9-b71c-44da-84a0-a3ca050280da","e73ede5c-88cf-40f6-bd80-a9f952b58684","","null","<div style=""display: flex; justify-content: center; align-items: center;"">
                <img src=""images/causal/causal_series_16/causal_series_16_b.jpg"" style=""width: 300px; height: 300px;"" />
              </div>","null",""
"","","","","","html-keyboard-response","109","566961","0.0-109.0","7A2FD3C07D83434E8933F2F44369452E","541d10f9-b71c-44da-84a0-a3ca050280da","e73ede5c-88cf-40f6-bd80-a9f952b58684","","null","<div style=""display: flex; justify-content: center; align-items: center;"">
                <img src=""images/causal/causal_series_16/causal_series_16_c.jpg"" style=""width: 300px; height: 300px;"" />
              </div>","null",""
"","","","","","html-button-response","110","568016","0.0-110.0","7A2FD3C07D83434E8933F2F44369452E","541d10f9-b71c-44da-84a0-a3ca050280da","e73ede5c-88cf-40f6-bd80-a9f952b58684","","1054","
    <div style=""display: flex; justify-content: center; align-items: center;"">
      <img src=""images/blue_deck_1.png"" style=""width: 300px; height: 300px; margin-right: 10px;"" />
      <img src=""images/red_deck_2.png"" style=""width: 300px; height: 300px;"" />
    </div>","1","1"
"","","","","","html-keyboard-response","111","572017","0.0-111.0-1.0-0.0","7A2FD3C07D83434E8933F2F44369452E","541d10f9-b71c-44da-84a0-a3ca050280da","e73ede5c-88cf-40f6-bd80-a9f952b58684","","null","<div style=""display: flex; justify-content: center; align-items: center;"">
                <img src=""images/semantic/semantic_series_16/semantic_series_16_d.jpg"" style=""width: 300px; height: 300px;"" />
              </div>","null",""
"","","","","","html-keyboard-response","112","576032","0.0-112.0","7A2FD3C07D83434E8933F2F44369452E","541d10f9-b71c-44da-84a0-a3ca050280da","e73ede5c-88cf-40f6-bd80-a9f952b58684","","null","<div style=""display: flex; justify-content: center; align-items: center;"">
                <img src=""images/other/blank.jpg"" style=""width: 300px; height: 300px;"" />
              </div>","null",""
"","","","","","survey-text","113","662207","0.0-113.0","7A2FD3C07D83434E8933F2F44369452E","541d10f9-b71c-44da-84a0-a3ca050280da","e73ede5c-88cf-40f6-bd80-a9f952b58684","","86108","","{""Q0"":""MALE"",""Q1"":""33""}",""
"","","","","","instructions","114","679227","0.0-114.0","7A2FD3C07D83434E8933F2F44369452E","541d10f9-b71c-44da-84a0-a3ca050280da","e73ede5c-88cf-40f6-bd80-a9f952b58684","[{""page_index"":0,""viewing_time"":17017}]","17017","","",""
