"success","timeout","failed_images","failed_audio","failed_video","trial_type","trial_index","time_elapsed","internal_node_id","view_history","rt","stimulus","response","choice","trial_name"
"true","false","[]","[]","[]","preload","0","9916","0.0-0.0","","","","","",""
"","","","","","instructions","1","11978","0.0-1.0","[{""page_index"":0,""viewing_time"":2062}]","2062","","","",""
"","","","","","instructions","2","17611","0.0-2.0","[{""page_index"":0,""viewing_time"":5631}]","5632","","","",""
"true","","","","","fullscreen","3","20659","0.0-3.0","","2041","","","",""
"","","","","","instructions","4","30157","0.0-4.0","[{""page_index"":0,""viewing_time"":9496}]","9497","","","",""
"","","","","","html-button-response","5","36770","0.0-5.0","","6609","
    <div style=""display: flex; justify-content: center; align-items: center; flex-direction: column;"">
      <div style=""display: flex; justify-content: center; align-items: center;"">
        <img src=""images/instructions_2/1.png"" style=""width: 300px; height: 300px; margin-right: 10px;"" />
        <img src=""images/instructions_2/2.png"" style=""width: 300px; height: 300px;"" />
      </div>
      <p>Does event 1 take place before event 2?</p>
    </div>","0","0",""
"","","","","","html-button-response","6","38171","0.0-6.0","","1399","
    <div style=""display: flex; justify-content: center; align-items: center; flex-direction: column;"">
      <div style=""display: flex; justify-content: center; align-items: center;"">
        <img src=""images/instructions_2/3.png"" style=""width: 300px; height: 300px; margin-right: 10px;"" />
        <img src=""images/instructions_2/4.png"" style=""width: 300px; height: 300px;"" />
      </div>
      <p>YES, event 1 does take place before event 2.</p>
    </div>","0","0",""
"","","","","","html-button-response","7","40106","0.0-7.0","","1932","
    <div style=""display: flex; justify-content: center; align-items: center; flex-direction: column;"">
      <div style=""display: flex; justify-content: center; align-items: center;"">
        <img src=""images/instructions_2/5.png"" style=""width: 300px; height: 300px; margin-right: 10px;"" />
        <img src=""images/instructions_2/6.png"" style=""width: 300px; height: 300px;"" />
      </div>
      <p>Does event 1 take place before event 2?</p>
    </div>","1","1",""
"","","","","","html-button-response","8","41388","0.0-8.0","","1280","
    <div style=""display: flex; justify-content: center; align-items: center; flex-direction: column;"">
      <div style=""display: flex; justify-content: center; align-items: center;"">
        <img src=""images/instructions_2/7.png"" style=""width: 300px; height: 300px; margin-right: 10px;"" />
        <img src=""images/instructions_2/8.png"" style=""width: 300px; height: 300px;"" />
      </div>
      <p>NO, event 1 does not take place before event 2.</p>
    </div>","0","0",""
"","","","","","instructions","9","43126","0.0-9.0","[{""page_index"":0,""viewing_time"":1735}]","1737","","","",""
"","","","","","html-button-response","10","46765","0.0-10.0","","3637","
    <div style=""display: flex; justify-content: center; align-items: center; flex-direction: column;"">
      <div style=""display: flex; justify-content: center; align-items: center;"">
        <img src=""images/schematic/schematic_4/1.png"" style=""width: 300px; height: 300px; margin-right: 10px;"" />
        <img src=""images/schematic/schematic_4/2.png"" style=""width: 300px; height: 300px;"" />
      </div>
      <p>Does event 1 take place before event 2?</p>
    </div>","0","0","schematic_4"
"","","","","","html-button-response","11","48105","0.0-11.0","","1337","
    <div style=""display: flex; justify-content: center; align-items: center; flex-direction: column;"">
      <div style=""display: flex; justify-content: center; align-items: center;"">
        <img src=""images/semantic/semantic_2/1.png"" style=""width: 300px; height: 300px; margin-right: 10px;"" />
        <img src=""images/semantic/semantic_2/2.png"" style=""width: 300px; height: 300px;"" />
      </div>
      <p>Does event 1 take place before event 2?</p>
    </div>","1","1","semantic_2"
"","","","","","html-button-response","12","49463","0.0-12.0","","1355","
    <div style=""display: flex; justify-content: center; align-items: center; flex-direction: column;"">
      <div style=""display: flex; justify-content: center; align-items: center;"">
        <img src=""images/causal/causal_7/1.png"" style=""width: 300px; height: 300px; margin-right: 10px;"" />
        <img src=""images/causal/causal_7/2.png"" style=""width: 300px; height: 300px;"" />
      </div>
      <p>Does event 1 take place before event 2?</p>
    </div>","0","0","causal_7"
"","","","","","html-button-response","13","50721","0.0-13.0","","1256","
    <div style=""display: flex; justify-content: center; align-items: center; flex-direction: column;"">
      <div style=""display: flex; justify-content: center; align-items: center;"">
        <img src=""images/semantic/semantic_7/1.png"" style=""width: 300px; height: 300px; margin-right: 10px;"" />
        <img src=""images/semantic/semantic_7/2.png"" style=""width: 300px; height: 300px;"" />
      </div>
      <p>Does event 1 take place before event 2?</p>
    </div>","1","1","semantic_7"
"","","","","","html-button-response","14","51834","0.0-14.0","","1111","
    <div style=""display: flex; justify-content: center; align-items: center; flex-direction: column;"">
      <div style=""display: flex; justify-content: center; align-items: center;"">
        <img src=""images/causal/causal_4/1.png"" style=""width: 300px; height: 300px; margin-right: 10px;"" />
        <img src=""images/causal/causal_4/2.png"" style=""width: 300px; height: 300px;"" />
      </div>
      <p>Does event 1 take place before event 2?</p>
    </div>","0","0","causal_4"
"","","","","","html-button-response","15","52962","0.0-15.0","","1125","
    <div style=""display: flex; justify-content: center; align-items: center; flex-direction: column;"">
      <div style=""display: flex; justify-content: center; align-items: center;"">
        <img src=""images/schematic/schematic_5/1.png"" style=""width: 300px; height: 300px; margin-right: 10px;"" />
        <img src=""images/schematic/schematic_5/2.png"" style=""width: 300px; height: 300px;"" />
      </div>
      <p>Does event 1 take place before event 2?</p>
    </div>","1","1","schematic_5"
"","","","","","html-button-response","16","54089","0.0-16.0","","1125","
    <div style=""display: flex; justify-content: center; align-items: center; flex-direction: column;"">
      <div style=""display: flex; justify-content: center; align-items: center;"">
        <img src=""images/causal/causal_8/1.png"" style=""width: 300px; height: 300px; margin-right: 10px;"" />
        <img src=""images/causal/causal_8/2.png"" style=""width: 300px; height: 300px;"" />
      </div>
      <p>Does event 1 take place before event 2?</p>
    </div>","0","0","causal_8"
"","","","","","html-button-response","17","55546","0.0-17.0","","1454","
    <div style=""display: flex; justify-content: center; align-items: center; flex-direction: column;"">
      <div style=""display: flex; justify-content: center; align-items: center;"">
        <img src=""images/causal/causal_6/1.png"" style=""width: 300px; height: 300px; margin-right: 10px;"" />
        <img src=""images/causal/causal_6/2.png"" style=""width: 300px; height: 300px;"" />
      </div>
      <p>Does event 1 take place before event 2?</p>
    </div>","0","0","causal_6"
"","","","","","html-button-response","18","56848","0.0-18.0","","1298","
    <div style=""display: flex; justify-content: center; align-items: center; flex-direction: column;"">
      <div style=""display: flex; justify-content: center; align-items: center;"">
        <img src=""images/schematic/schematic_7/1.png"" style=""width: 300px; height: 300px; margin-right: 10px;"" />
        <img src=""images/schematic/schematic_7/2.png"" style=""width: 300px; height: 300px;"" />
      </div>
      <p>Does event 1 take place before event 2?</p>
    </div>","0","0","schematic_7"
"","","","","","html-button-response","19","59710","0.0-19.0","","2858","
    <div style=""display: flex; justify-content: center; align-items: center; flex-direction: column;"">
      <div style=""display: flex; justify-content: center; align-items: center;"">
        <img src=""images/semantic/semantic_5/1.png"" style=""width: 300px; height: 300px; margin-right: 10px;"" />
        <img src=""images/semantic/semantic_5/2.png"" style=""width: 300px; height: 300px;"" />
      </div>
      <p>Does event 1 take place before event 2?</p>
    </div>","1","1","semantic_5"
"","","","","","html-button-response","20","61073","0.0-20.0","","1361","
    <div style=""display: flex; justify-content: center; align-items: center; flex-direction: column;"">
      <div style=""display: flex; justify-content: center; align-items: center;"">
        <img src=""images/semantic/semantic_6/1.png"" style=""width: 300px; height: 300px; margin-right: 10px;"" />
        <img src=""images/semantic/semantic_6/2.png"" style=""width: 300px; height: 300px;"" />
      </div>
      <p>Does event 1 take place before event 2?</p>
    </div>","0","0","semantic_6"
"","","","","","html-button-response","21","62147","0.0-21.0","","1072","
    <div style=""display: flex; justify-content: center; align-items: center; flex-direction: column;"">
      <div style=""display: flex; justify-content: center; align-items: center;"">
        <img src=""images/semantic/semantic_8/1.png"" style=""width: 300px; height: 300px; margin-right: 10px;"" />
        <img src=""images/semantic/semantic_8/2.png"" style=""width: 300px; height: 300px;"" />
      </div>
      <p>Does event 1 take place before event 2?</p>
    </div>","1","1","semantic_8"
"","","","","","html-button-response","22","63190","0.0-22.0","","1040","
    <div style=""display: flex; justify-content: center; align-items: center; flex-direction: column;"">
      <div style=""display: flex; justify-content: center; align-items: center;"">
        <img src=""images/schematic/schematic_2/1.png"" style=""width: 300px; height: 300px; margin-right: 10px;"" />
        <img src=""images/schematic/schematic_2/2.png"" style=""width: 300px; height: 300px;"" />
      </div>
      <p>Does event 1 take place before event 2?</p>
    </div>","0","0","schematic_2"
"","","","","","html-button-response","23","64653","0.0-23.0","","1459","
    <div style=""display: flex; justify-content: center; align-items: center; flex-direction: column;"">
      <div style=""display: flex; justify-content: center; align-items: center;"">
        <img src=""images/schematic/schematic_1/1.png"" style=""width: 300px; height: 300px; margin-right: 10px;"" />
        <img src=""images/schematic/schematic_1/2.png"" style=""width: 300px; height: 300px;"" />
      </div>
      <p>Does event 1 take place before event 2?</p>
    </div>","0","0","schematic_1"
"","","","","","html-button-response","24","65623","0.0-24.0","","966","
    <div style=""display: flex; justify-content: center; align-items: center; flex-direction: column;"">
      <div style=""display: flex; justify-content: center; align-items: center;"">
        <img src=""images/causal/causal_1/1.png"" style=""width: 300px; height: 300px; margin-right: 10px;"" />
        <img src=""images/causal/causal_1/2.png"" style=""width: 300px; height: 300px;"" />
      </div>
      <p>Does event 1 take place before event 2?</p>
    </div>","0","0","causal_1"
"","","","","","html-button-response","25","66461","0.0-25.0","","835","
    <div style=""display: flex; justify-content: center; align-items: center; flex-direction: column;"">
      <div style=""display: flex; justify-content: center; align-items: center;"">
        <img src=""images/semantic/semantic_3/1.png"" style=""width: 300px; height: 300px; margin-right: 10px;"" />
        <img src=""images/semantic/semantic_3/2.png"" style=""width: 300px; height: 300px;"" />
      </div>
      <p>Does event 1 take place before event 2?</p>
    </div>","0","0","semantic_3"
"","","","","","html-button-response","26","67424","0.0-26.0","","960","
    <div style=""display: flex; justify-content: center; align-items: center; flex-direction: column;"">
      <div style=""display: flex; justify-content: center; align-items: center;"">
        <img src=""images/schematic/schematic_6/1.png"" style=""width: 300px; height: 300px; margin-right: 10px;"" />
        <img src=""images/schematic/schematic_6/2.png"" style=""width: 300px; height: 300px;"" />
      </div>
      <p>Does event 1 take place before event 2?</p>
    </div>","0","0","schematic_6"
"","","","","","html-button-response","27","68983","0.0-27.0","","1556","
    <div style=""display: flex; justify-content: center; align-items: center; flex-direction: column;"">
      <div style=""display: flex; justify-content: center; align-items: center;"">
        <img src=""images/causal/causal_5/1.png"" style=""width: 300px; height: 300px; margin-right: 10px;"" />
        <img src=""images/causal/causal_5/2.png"" style=""width: 300px; height: 300px;"" />
      </div>
      <p>Does event 1 take place before event 2?</p>
    </div>","1","1","causal_5"
"","","","","","html-button-response","28","69901","0.0-28.0","","915","
    <div style=""display: flex; justify-content: center; align-items: center; flex-direction: column;"">
      <div style=""display: flex; justify-content: center; align-items: center;"">
        <img src=""images/schematic/schematic_8/1.png"" style=""width: 300px; height: 300px; margin-right: 10px;"" />
        <img src=""images/schematic/schematic_8/2.png"" style=""width: 300px; height: 300px;"" />
      </div>
      <p>Does event 1 take place before event 2?</p>
    </div>","0","0","schematic_8"
"","","","","","html-button-response","29","70890","0.0-29.0","","986","
    <div style=""display: flex; justify-content: center; align-items: center; flex-direction: column;"">
      <div style=""display: flex; justify-content: center; align-items: center;"">
        <img src=""images/semantic/semantic_4/1.png"" style=""width: 300px; height: 300px; margin-right: 10px;"" />
        <img src=""images/semantic/semantic_4/2.png"" style=""width: 300px; height: 300px;"" />
      </div>
      <p>Does event 1 take place before event 2?</p>
    </div>","1","1","semantic_4"
"","","","","","html-button-response","30","71948","0.0-30.0","","1055","
    <div style=""display: flex; justify-content: center; align-items: center; flex-direction: column;"">
      <div style=""display: flex; justify-content: center; align-items: center;"">
        <img src=""images/causal/causal_2/1.png"" style=""width: 300px; height: 300px; margin-right: 10px;"" />
        <img src=""images/causal/causal_2/2.png"" style=""width: 300px; height: 300px;"" />
      </div>
      <p>Does event 1 take place before event 2?</p>
    </div>","0","0","causal_2"
"","","","","","html-button-response","31","72933","0.0-31.0","","982","
    <div style=""display: flex; justify-content: center; align-items: center; flex-direction: column;"">
      <div style=""display: flex; justify-content: center; align-items: center;"">
        <img src=""images/causal/causal_3/1.png"" style=""width: 300px; height: 300px; margin-right: 10px;"" />
        <img src=""images/causal/causal_3/2.png"" style=""width: 300px; height: 300px;"" />
      </div>
      <p>Does event 1 take place before event 2?</p>
    </div>","1","1","causal_3"
"","","","","","html-button-response","32","73932","0.0-32.0","","996","
    <div style=""display: flex; justify-content: center; align-items: center; flex-direction: column;"">
      <div style=""display: flex; justify-content: center; align-items: center;"">
        <img src=""images/semantic/semantic_1/1.png"" style=""width: 300px; height: 300px; margin-right: 10px;"" />
        <img src=""images/semantic/semantic_1/2.png"" style=""width: 300px; height: 300px;"" />
      </div>
      <p>Does event 1 take place before event 2?</p>
    </div>","0","0","semantic_1"
"","","","","","html-button-response","33","75128","0.0-33.0","","1193","
    <div style=""display: flex; justify-content: center; align-items: center; flex-direction: column;"">
      <div style=""display: flex; justify-content: center; align-items: center;"">
        <img src=""images/schematic/schematic_3/1.png"" style=""width: 300px; height: 300px; margin-right: 10px;"" />
        <img src=""images/schematic/schematic_3/2.png"" style=""width: 300px; height: 300px;"" />
      </div>
      <p>Does event 1 take place before event 2?</p>
    </div>","0","0","schematic_3"
"","","","","","survey-text","34","119665","0.0-34.0","","44526","","{""Q0"":""Male"",""Q1"":""38""}","",""
"","","","","","instructions","35","406684","0.0-35.0","[{""page_index"":0,""viewing_time"":287013}]","287017","","","",""
"","","","","","survey-text","36","418974","0.0-36.0","","12277","","{""Q0"":""AJFHBG898""}","",""
