"success","timeout","failed_images","failed_audio","failed_video","trial_type","trial_index","time_elapsed","internal_node_id","subject","subject_id","study_id","session_id","urlvar","current_url","view_history","rt","stimulus","response","choice","question_order"
"true","false","[]","[]","[]","preload","0","1590","0.0-0.0","413C151DBB0A4824A99120CED1C1E8BB","413C151DBB0A4824A99120CED1C1E8BB","cbf18966-643e-411a-abba-c0191a9e65fe","54f8d589-66fc-4c65-830f-1dcc63bce8cc","{""participantId"":""413C151DBB0A4824A99120CED1C1E8BB"",""assignmentId"":""cbf18966-643e-411a-abba-c0191a9e65fe"",""projectId"":""54f8d589-66fc-4c65-830f-1dcc63bce8cc""}","https://test12345.live/?participantId=413C151DBB0A4824A99120CED1C1E8BB&assignmentId=cbf18966-643e-411a-abba-c0191a9e65fe&projectId=54f8d589-66fc-4c65-830f-1dcc63bce8cc","","","","","",""
"","","","","","instructions","1","3726","0.0-1.0","413C151DBB0A4824A99120CED1C1E8BB","413C151DBB0A4824A99120CED1C1E8BB","cbf18966-643e-411a-abba-c0191a9e65fe","54f8d589-66fc-4c65-830f-1dcc63bce8cc","{""participantId"":""413C151DBB0A4824A99120CED1C1E8BB"",""assignmentId"":""cbf18966-643e-411a-abba-c0191a9e65fe"",""projectId"":""54f8d589-66fc-4c65-830f-1dcc63bce8cc""}","https://test12345.live/?participantId=413C151DBB0A4824A99120CED1C1E8BB&assignmentId=cbf18966-643e-411a-abba-c0191a9e65fe&projectId=54f8d589-66fc-4c65-830f-1dcc63bce8cc","[{""page_index"":0,""viewing_time"":2136}]","2136","","","",""
"","","","","","instructions","2","6861","0.0-2.0","413C151DBB0A4824A99120CED1C1E8BB","413C151DBB0A4824A99120CED1C1E8BB","cbf18966-643e-411a-abba-c0191a9e65fe","54f8d589-66fc-4c65-830f-1dcc63bce8cc","{""participantId"":""413C151DBB0A4824A99120CED1C1E8BB"",""assignmentId"":""cbf18966-643e-411a-abba-c0191a9e65fe"",""projectId"":""54f8d589-66fc-4c65-830f-1dcc63bce8cc""}","https://test12345.live/?participantId=413C151DBB0A4824A99120CED1C1E8BB&assignmentId=cbf18966-643e-411a-abba-c0191a9e65fe&projectId=54f8d589-66fc-4c65-830f-1dcc63bce8cc","[{""page_index"":0,""viewing_time"":3135}]","3135","","","",""
"true","","","","","fullscreen","3","13355","0.0-3.0","413C151DBB0A4824A99120CED1C1E8BB","413C151DBB0A4824A99120CED1C1E8BB","cbf18966-643e-411a-abba-c0191a9e65fe","54f8d589-66fc-4c65-830f-1dcc63bce8cc","{""participantId"":""413C151DBB0A4824A99120CED1C1E8BB"",""assignmentId"":""cbf18966-643e-411a-abba-c0191a9e65fe"",""projectId"":""54f8d589-66fc-4c65-830f-1dcc63bce8cc""}","https://test12345.live/?participantId=413C151DBB0A4824A99120CED1C1E8BB&assignmentId=cbf18966-643e-411a-abba-c0191a9e65fe&projectId=54f8d589-66fc-4c65-830f-1dcc63bce8cc","","5488","","","",""
"","","","","","instructions","4","26005","0.0-4.0","413C151DBB0A4824A99120CED1C1E8BB","413C151DBB0A4824A99120CED1C1E8BB","cbf18966-643e-411a-abba-c0191a9e65fe","54f8d589-66fc-4c65-830f-1dcc63bce8cc","{""participantId"":""413C151DBB0A4824A99120CED1C1E8BB"",""assignmentId"":""cbf18966-643e-411a-abba-c0191a9e65fe"",""projectId"":""54f8d589-66fc-4c65-830f-1dcc63bce8cc""}","https://test12345.live/?participantId=413C151DBB0A4824A99120CED1C1E8BB&assignmentId=cbf18966-643e-411a-abba-c0191a9e65fe&projectId=54f8d589-66fc-4c65-830f-1dcc63bce8cc","[{""page_index"":0,""viewing_time"":12650}]","12650","","","",""
"","","","","","html-button-response","5","28589","0.0-5.0","413C151DBB0A4824A99120CED1C1E8BB","413C151DBB0A4824A99120CED1C1E8BB","cbf18966-643e-411a-abba-c0191a9e65fe","54f8d589-66fc-4c65-830f-1dcc63bce8cc","{""participantId"":""413C151DBB0A4824A99120CED1C1E8BB"",""assignmentId"":""cbf18966-643e-411a-abba-c0191a9e65fe"",""projectId"":""54f8d589-66fc-4c65-830f-1dcc63bce8cc""}","https://test12345.live/?participantId=413C151DBB0A4824A99120CED1C1E8BB&assignmentId=cbf18966-643e-411a-abba-c0191a9e65fe&projectId=54f8d589-66fc-4c65-830f-1dcc63bce8cc","","2583","
    <div style=""display: flex; justify-content: center; align-items: center;"">
      <img src=""images/red_deck_2.png"" style=""width: 300px; height: 300px; margin-right: 10px;"" />
      <img src=""images/blue_deck_1.png"" style=""width: 300px; height: 300px;"" />
    </div>","1","1",""
"","","","","","html-keyboard-response","6","31590","0.0-7.0-0.0","413C151DBB0A4824A99120CED1C1E8BB","413C151DBB0A4824A99120CED1C1E8BB","cbf18966-643e-411a-abba-c0191a9e65fe","54f8d589-66fc-4c65-830f-1dcc63bce8cc","{""participantId"":""413C151DBB0A4824A99120CED1C1E8BB"",""assignmentId"":""cbf18966-643e-411a-abba-c0191a9e65fe"",""projectId"":""54f8d589-66fc-4c65-830f-1dcc63bce8cc""}","https://test12345.live/?participantId=413C151DBB0A4824A99120CED1C1E8BB&assignmentId=cbf18966-643e-411a-abba-c0191a9e65fe&projectId=54f8d589-66fc-4c65-830f-1dcc63bce8cc","","null","<div style=""display: flex; justify-content: center; align-items: center;"">
                    <img src=""images/semantic/semantic_series_4/semantic_series_4_a.jpg"" style=""width: 300px; height: 300px;"" />
                  </div>","null","",""
"","","","","","html-keyboard-response","7","34593","0.0-7.0-1.0","413C151DBB0A4824A99120CED1C1E8BB","413C151DBB0A4824A99120CED1C1E8BB","cbf18966-643e-411a-abba-c0191a9e65fe","54f8d589-66fc-4c65-830f-1dcc63bce8cc","{""participantId"":""413C151DBB0A4824A99120CED1C1E8BB"",""assignmentId"":""cbf18966-643e-411a-abba-c0191a9e65fe"",""projectId"":""54f8d589-66fc-4c65-830f-1dcc63bce8cc""}","https://test12345.live/?participantId=413C151DBB0A4824A99120CED1C1E8BB&assignmentId=cbf18966-643e-411a-abba-c0191a9e65fe&projectId=54f8d589-66fc-4c65-830f-1dcc63bce8cc","","null","<div style=""display: flex; justify-content: center; align-items: center;"">
                    <img src=""images/semantic/semantic_series_4/semantic_series_4_b.jpg"" style=""width: 300px; height: 300px;"" />
                  </div>","null","",""
"","","","","","html-keyboard-response","8","37599","0.0-7.0-2.0","413C151DBB0A4824A99120CED1C1E8BB","413C151DBB0A4824A99120CED1C1E8BB","cbf18966-643e-411a-abba-c0191a9e65fe","54f8d589-66fc-4c65-830f-1dcc63bce8cc","{""participantId"":""413C151DBB0A4824A99120CED1C1E8BB"",""assignmentId"":""cbf18966-643e-411a-abba-c0191a9e65fe"",""projectId"":""54f8d589-66fc-4c65-830f-1dcc63bce8cc""}","https://test12345.live/?participantId=413C151DBB0A4824A99120CED1C1E8BB&assignmentId=cbf18966-643e-411a-abba-c0191a9e65fe&projectId=54f8d589-66fc-4c65-830f-1dcc63bce8cc","","null","<div style=""display: flex; justify-content: center; align-items: center;"">
                    <img src=""images/semantic/semantic_series_4/semantic_series_4_c.jpg"" style=""width: 300px; height: 300px;"" />
                  </div>","null","",""
"","","","","","html-keyboard-response","9","40603","0.0-7.0-3.0","413C151DBB0A4824A99120CED1C1E8BB","413C151DBB0A4824A99120CED1C1E8BB","cbf18966-643e-411a-abba-c0191a9e65fe","54f8d589-66fc-4c65-830f-1dcc63bce8cc","{""participantId"":""413C151DBB0A4824A99120CED1C1E8BB"",""assignmentId"":""cbf18966-643e-411a-abba-c0191a9e65fe"",""projectId"":""54f8d589-66fc-4c65-830f-1dcc63bce8cc""}","https://test12345.live/?participantId=413C151DBB0A4824A99120CED1C1E8BB&assignmentId=cbf18966-643e-411a-abba-c0191a9e65fe&projectId=54f8d589-66fc-4c65-830f-1dcc63bce8cc","","null","<div style=""display: flex; justify-content: center; align-items: center;"">
                    <img src=""images/semantic/semantic_series_4/semantic_series_4_d.jpg"" style=""width: 300px; height: 300px;"" />
                  </div>","null","",""
"","","","","","html-button-response","10","47453","0.0-8.0","413C151DBB0A4824A99120CED1C1E8BB","413C151DBB0A4824A99120CED1C1E8BB","cbf18966-643e-411a-abba-c0191a9e65fe","54f8d589-66fc-4c65-830f-1dcc63bce8cc","{""participantId"":""413C151DBB0A4824A99120CED1C1E8BB"",""assignmentId"":""cbf18966-643e-411a-abba-c0191a9e65fe"",""projectId"":""54f8d589-66fc-4c65-830f-1dcc63bce8cc""}","https://test12345.live/?participantId=413C151DBB0A4824A99120CED1C1E8BB&assignmentId=cbf18966-643e-411a-abba-c0191a9e65fe&projectId=54f8d589-66fc-4c65-830f-1dcc63bce8cc","","6850","Was there a person in the picture?","0","",""
"","","","","","survey-likert","11","51782","0.0-9.0","413C151DBB0A4824A99120CED1C1E8BB","413C151DBB0A4824A99120CED1C1E8BB","cbf18966-643e-411a-abba-c0191a9e65fe","54f8d589-66fc-4c65-830f-1dcc63bce8cc","{""participantId"":""413C151DBB0A4824A99120CED1C1E8BB"",""assignmentId"":""cbf18966-643e-411a-abba-c0191a9e65fe"",""projectId"":""54f8d589-66fc-4c65-830f-1dcc63bce8cc""}","https://test12345.live/?participantId=413C151DBB0A4824A99120CED1C1E8BB&assignmentId=cbf18966-643e-411a-abba-c0191a9e65fe&projectId=54f8d589-66fc-4c65-830f-1dcc63bce8cc","","4327","","{""Q0"":2}","","[0]"
"","","","","","html-button-response","12","56726","0.0-10.0","413C151DBB0A4824A99120CED1C1E8BB","413C151DBB0A4824A99120CED1C1E8BB","cbf18966-643e-411a-abba-c0191a9e65fe","54f8d589-66fc-4c65-830f-1dcc63bce8cc","{""participantId"":""413C151DBB0A4824A99120CED1C1E8BB"",""assignmentId"":""cbf18966-643e-411a-abba-c0191a9e65fe"",""projectId"":""54f8d589-66fc-4c65-830f-1dcc63bce8cc""}","https://test12345.live/?participantId=413C151DBB0A4824A99120CED1C1E8BB&assignmentId=cbf18966-643e-411a-abba-c0191a9e65fe&projectId=54f8d589-66fc-4c65-830f-1dcc63bce8cc","","4943","
    <div style=""display: flex; justify-content: center; align-items: center;"">
      <img src=""images/red_deck_2.png"" style=""width: 300px; height: 300px; margin-right: 10px;"" />
      <img src=""images/blue_deck_1.png"" style=""width: 300px; height: 300px;"" />
    </div>","0","0",""
"","","","","","html-keyboard-response","13","59735","0.0-11.0-0.0","413C151DBB0A4824A99120CED1C1E8BB","413C151DBB0A4824A99120CED1C1E8BB","cbf18966-643e-411a-abba-c0191a9e65fe","54f8d589-66fc-4c65-830f-1dcc63bce8cc","{""participantId"":""413C151DBB0A4824A99120CED1C1E8BB"",""assignmentId"":""cbf18966-643e-411a-abba-c0191a9e65fe"",""projectId"":""54f8d589-66fc-4c65-830f-1dcc63bce8cc""}","https://test12345.live/?participantId=413C151DBB0A4824A99120CED1C1E8BB&assignmentId=cbf18966-643e-411a-abba-c0191a9e65fe&projectId=54f8d589-66fc-4c65-830f-1dcc63bce8cc","","null","<div style=""display: flex; justify-content: center; align-items: center;"">
                    <img src=""images/causal/causal_series_7/causal_series_7_a.jpg"" style=""width: 300px; height: 300px;"" />
                  </div>","null","",""
"","","","","","html-keyboard-response","14","62744","0.0-11.0-1.0","413C151DBB0A4824A99120CED1C1E8BB","413C151DBB0A4824A99120CED1C1E8BB","cbf18966-643e-411a-abba-c0191a9e65fe","54f8d589-66fc-4c65-830f-1dcc63bce8cc","{""participantId"":""413C151DBB0A4824A99120CED1C1E8BB"",""assignmentId"":""cbf18966-643e-411a-abba-c0191a9e65fe"",""projectId"":""54f8d589-66fc-4c65-830f-1dcc63bce8cc""}","https://test12345.live/?participantId=413C151DBB0A4824A99120CED1C1E8BB&assignmentId=cbf18966-643e-411a-abba-c0191a9e65fe&projectId=54f8d589-66fc-4c65-830f-1dcc63bce8cc","","null","<div style=""display: flex; justify-content: center; align-items: center;"">
                    <img src=""images/causal/causal_series_7/causal_series_7_b.jpg"" style=""width: 300px; height: 300px;"" />
                  </div>","null","",""
"","","","","","html-keyboard-response","15","65759","0.0-11.0-2.0","413C151DBB0A4824A99120CED1C1E8BB","413C151DBB0A4824A99120CED1C1E8BB","cbf18966-643e-411a-abba-c0191a9e65fe","54f8d589-66fc-4c65-830f-1dcc63bce8cc","{""participantId"":""413C151DBB0A4824A99120CED1C1E8BB"",""assignmentId"":""cbf18966-643e-411a-abba-c0191a9e65fe"",""projectId"":""54f8d589-66fc-4c65-830f-1dcc63bce8cc""}","https://test12345.live/?participantId=413C151DBB0A4824A99120CED1C1E8BB&assignmentId=cbf18966-643e-411a-abba-c0191a9e65fe&projectId=54f8d589-66fc-4c65-830f-1dcc63bce8cc","","null","<div style=""display: flex; justify-content: center; align-items: center;"">
                    <img src=""images/causal/causal_series_7/causal_series_7_c.jpg"" style=""width: 300px; height: 300px;"" />
                  </div>","null","",""
"","","","","","html-keyboard-response","16","68770","0.0-11.0-3.0","413C151DBB0A4824A99120CED1C1E8BB","413C151DBB0A4824A99120CED1C1E8BB","cbf18966-643e-411a-abba-c0191a9e65fe","54f8d589-66fc-4c65-830f-1dcc63bce8cc","{""participantId"":""413C151DBB0A4824A99120CED1C1E8BB"",""assignmentId"":""cbf18966-643e-411a-abba-c0191a9e65fe"",""projectId"":""54f8d589-66fc-4c65-830f-1dcc63bce8cc""}","https://test12345.live/?participantId=413C151DBB0A4824A99120CED1C1E8BB&assignmentId=cbf18966-643e-411a-abba-c0191a9e65fe&projectId=54f8d589-66fc-4c65-830f-1dcc63bce8cc","","null","<div style=""display: flex; justify-content: center; align-items: center;"">
                    <img src=""images/causal/causal_series_7/causal_series_7_d.jpg"" style=""width: 300px; height: 300px;"" />
                  </div>","null","",""
"","","","","","html-button-response","17","70958","0.0-13.0","413C151DBB0A4824A99120CED1C1E8BB","413C151DBB0A4824A99120CED1C1E8BB","cbf18966-643e-411a-abba-c0191a9e65fe","54f8d589-66fc-4c65-830f-1dcc63bce8cc","{""participantId"":""413C151DBB0A4824A99120CED1C1E8BB"",""assignmentId"":""cbf18966-643e-411a-abba-c0191a9e65fe"",""projectId"":""54f8d589-66fc-4c65-830f-1dcc63bce8cc""}","https://test12345.live/?participantId=413C151DBB0A4824A99120CED1C1E8BB&assignmentId=cbf18966-643e-411a-abba-c0191a9e65fe&projectId=54f8d589-66fc-4c65-830f-1dcc63bce8cc","","2186","Was there a person in the picture?","1","",""
"","","","","","survey-likert","18","72718","0.0-14.0","413C151DBB0A4824A99120CED1C1E8BB","413C151DBB0A4824A99120CED1C1E8BB","cbf18966-643e-411a-abba-c0191a9e65fe","54f8d589-66fc-4c65-830f-1dcc63bce8cc","{""participantId"":""413C151DBB0A4824A99120CED1C1E8BB"",""assignmentId"":""cbf18966-643e-411a-abba-c0191a9e65fe"",""projectId"":""54f8d589-66fc-4c65-830f-1dcc63bce8cc""}","https://test12345.live/?participantId=413C151DBB0A4824A99120CED1C1E8BB&assignmentId=cbf18966-643e-411a-abba-c0191a9e65fe&projectId=54f8d589-66fc-4c65-830f-1dcc63bce8cc","","1760","","{""Q0"":2}","","[0]"
"","","","","","html-button-response","19","73366","0.0-15.0","413C151DBB0A4824A99120CED1C1E8BB","413C151DBB0A4824A99120CED1C1E8BB","cbf18966-643e-411a-abba-c0191a9e65fe","54f8d589-66fc-4c65-830f-1dcc63bce8cc","{""participantId"":""413C151DBB0A4824A99120CED1C1E8BB"",""assignmentId"":""cbf18966-643e-411a-abba-c0191a9e65fe"",""projectId"":""54f8d589-66fc-4c65-830f-1dcc63bce8cc""}","https://test12345.live/?participantId=413C151DBB0A4824A99120CED1C1E8BB&assignmentId=cbf18966-643e-411a-abba-c0191a9e65fe&projectId=54f8d589-66fc-4c65-830f-1dcc63bce8cc","","647","
    <div style=""display: flex; justify-content: center; align-items: center;"">
      <img src=""images/red_deck_2.png"" style=""width: 300px; height: 300px; margin-right: 10px;"" />
      <img src=""images/blue_deck_1.png"" style=""width: 300px; height: 300px;"" />
    </div>","1","1",""
"","","","","","html-keyboard-response","20","76381","0.0-17.0-0.0","413C151DBB0A4824A99120CED1C1E8BB","413C151DBB0A4824A99120CED1C1E8BB","cbf18966-643e-411a-abba-c0191a9e65fe","54f8d589-66fc-4c65-830f-1dcc63bce8cc","{""participantId"":""413C151DBB0A4824A99120CED1C1E8BB"",""assignmentId"":""cbf18966-643e-411a-abba-c0191a9e65fe"",""projectId"":""54f8d589-66fc-4c65-830f-1dcc63bce8cc""}","https://test12345.live/?participantId=413C151DBB0A4824A99120CED1C1E8BB&assignmentId=cbf18966-643e-411a-abba-c0191a9e65fe&projectId=54f8d589-66fc-4c65-830f-1dcc63bce8cc","","null","<div style=""display: flex; justify-content: center; align-items: center;"">
                    <img src=""images/semantic/semantic_series_14/semantic_series_14_a.jpg"" style=""width: 300px; height: 300px;"" />
                  </div>","null","",""
"","","","","","html-keyboard-response","21","79393","0.0-17.0-1.0","413C151DBB0A4824A99120CED1C1E8BB","413C151DBB0A4824A99120CED1C1E8BB","cbf18966-643e-411a-abba-c0191a9e65fe","54f8d589-66fc-4c65-830f-1dcc63bce8cc","{""participantId"":""413C151DBB0A4824A99120CED1C1E8BB"",""assignmentId"":""cbf18966-643e-411a-abba-c0191a9e65fe"",""projectId"":""54f8d589-66fc-4c65-830f-1dcc63bce8cc""}","https://test12345.live/?participantId=413C151DBB0A4824A99120CED1C1E8BB&assignmentId=cbf18966-643e-411a-abba-c0191a9e65fe&projectId=54f8d589-66fc-4c65-830f-1dcc63bce8cc","","null","<div style=""display: flex; justify-content: center; align-items: center;"">
                    <img src=""images/semantic/semantic_series_14/semantic_series_14_b.jpg"" style=""width: 300px; height: 300px;"" />
                  </div>","null","",""
"","","","","","html-keyboard-response","22","82407","0.0-17.0-2.0","413C151DBB0A4824A99120CED1C1E8BB","413C151DBB0A4824A99120CED1C1E8BB","cbf18966-643e-411a-abba-c0191a9e65fe","54f8d589-66fc-4c65-830f-1dcc63bce8cc","{""participantId"":""413C151DBB0A4824A99120CED1C1E8BB"",""assignmentId"":""cbf18966-643e-411a-abba-c0191a9e65fe"",""projectId"":""54f8d589-66fc-4c65-830f-1dcc63bce8cc""}","https://test12345.live/?participantId=413C151DBB0A4824A99120CED1C1E8BB&assignmentId=cbf18966-643e-411a-abba-c0191a9e65fe&projectId=54f8d589-66fc-4c65-830f-1dcc63bce8cc","","null","<div style=""display: flex; justify-content: center; align-items: center;"">
                    <img src=""images/semantic/semantic_series_14/semantic_series_14_c.jpg"" style=""width: 300px; height: 300px;"" />
                  </div>","null","",""
"","","","","","html-keyboard-response","23","85420","0.0-17.0-3.0","413C151DBB0A4824A99120CED1C1E8BB","413C151DBB0A4824A99120CED1C1E8BB","cbf18966-643e-411a-abba-c0191a9e65fe","54f8d589-66fc-4c65-830f-1dcc63bce8cc","{""participantId"":""413C151DBB0A4824A99120CED1C1E8BB"",""assignmentId"":""cbf18966-643e-411a-abba-c0191a9e65fe"",""projectId"":""54f8d589-66fc-4c65-830f-1dcc63bce8cc""}","https://test12345.live/?participantId=413C151DBB0A4824A99120CED1C1E8BB&assignmentId=cbf18966-643e-411a-abba-c0191a9e65fe&projectId=54f8d589-66fc-4c65-830f-1dcc63bce8cc","","null","<div style=""display: flex; justify-content: center; align-items: center;"">
                    <img src=""images/semantic/semantic_series_14/semantic_series_14_d.jpg"" style=""width: 300px; height: 300px;"" />
                  </div>","null","",""
"","","","","","html-button-response","24","87374","0.0-18.0","413C151DBB0A4824A99120CED1C1E8BB","413C151DBB0A4824A99120CED1C1E8BB","cbf18966-643e-411a-abba-c0191a9e65fe","54f8d589-66fc-4c65-830f-1dcc63bce8cc","{""participantId"":""413C151DBB0A4824A99120CED1C1E8BB"",""assignmentId"":""cbf18966-643e-411a-abba-c0191a9e65fe"",""projectId"":""54f8d589-66fc-4c65-830f-1dcc63bce8cc""}","https://test12345.live/?participantId=413C151DBB0A4824A99120CED1C1E8BB&assignmentId=cbf18966-643e-411a-abba-c0191a9e65fe&projectId=54f8d589-66fc-4c65-830f-1dcc63bce8cc","","1952","Was there a person in the picture?","0","",""
"","","","","","survey-likert","25","90662","0.0-19.0","413C151DBB0A4824A99120CED1C1E8BB","413C151DBB0A4824A99120CED1C1E8BB","cbf18966-643e-411a-abba-c0191a9e65fe","54f8d589-66fc-4c65-830f-1dcc63bce8cc","{""participantId"":""413C151DBB0A4824A99120CED1C1E8BB"",""assignmentId"":""cbf18966-643e-411a-abba-c0191a9e65fe"",""projectId"":""54f8d589-66fc-4c65-830f-1dcc63bce8cc""}","https://test12345.live/?participantId=413C151DBB0A4824A99120CED1C1E8BB&assignmentId=cbf18966-643e-411a-abba-c0191a9e65fe&projectId=54f8d589-66fc-4c65-830f-1dcc63bce8cc","","3288","","{""Q0"":2}","","[0]"
"","","","","","html-button-response","26","91509","0.0-20.0","413C151DBB0A4824A99120CED1C1E8BB","413C151DBB0A4824A99120CED1C1E8BB","cbf18966-643e-411a-abba-c0191a9e65fe","54f8d589-66fc-4c65-830f-1dcc63bce8cc","{""participantId"":""413C151DBB0A4824A99120CED1C1E8BB"",""assignmentId"":""cbf18966-643e-411a-abba-c0191a9e65fe"",""projectId"":""54f8d589-66fc-4c65-830f-1dcc63bce8cc""}","https://test12345.live/?participantId=413C151DBB0A4824A99120CED1C1E8BB&assignmentId=cbf18966-643e-411a-abba-c0191a9e65fe&projectId=54f8d589-66fc-4c65-830f-1dcc63bce8cc","","847","
    <div style=""display: flex; justify-content: center; align-items: center;"">
      <img src=""images/red_deck_2.png"" style=""width: 300px; height: 300px; margin-right: 10px;"" />
      <img src=""images/blue_deck_1.png"" style=""width: 300px; height: 300px;"" />
    </div>","0","0",""
"","","","","","html-keyboard-response","27","94524","0.0-21.0-0.0","413C151DBB0A4824A99120CED1C1E8BB","413C151DBB0A4824A99120CED1C1E8BB","cbf18966-643e-411a-abba-c0191a9e65fe","54f8d589-66fc-4c65-830f-1dcc63bce8cc","{""participantId"":""413C151DBB0A4824A99120CED1C1E8BB"",""assignmentId"":""cbf18966-643e-411a-abba-c0191a9e65fe"",""projectId"":""54f8d589-66fc-4c65-830f-1dcc63bce8cc""}","https://test12345.live/?participantId=413C151DBB0A4824A99120CED1C1E8BB&assignmentId=cbf18966-643e-411a-abba-c0191a9e65fe&projectId=54f8d589-66fc-4c65-830f-1dcc63bce8cc","","null","<div style=""display: flex; justify-content: center; align-items: center;"">
                    <img src=""images/causal/causal_series_4/causal_series_4_a.jpg"" style=""width: 300px; height: 300px;"" />
                  </div>","null","",""
"","","","","","html-keyboard-response","28","97541","0.0-21.0-1.0","413C151DBB0A4824A99120CED1C1E8BB","413C151DBB0A4824A99120CED1C1E8BB","cbf18966-643e-411a-abba-c0191a9e65fe","54f8d589-66fc-4c65-830f-1dcc63bce8cc","{""participantId"":""413C151DBB0A4824A99120CED1C1E8BB"",""assignmentId"":""cbf18966-643e-411a-abba-c0191a9e65fe"",""projectId"":""54f8d589-66fc-4c65-830f-1dcc63bce8cc""}","https://test12345.live/?participantId=413C151DBB0A4824A99120CED1C1E8BB&assignmentId=cbf18966-643e-411a-abba-c0191a9e65fe&projectId=54f8d589-66fc-4c65-830f-1dcc63bce8cc","","null","<div style=""display: flex; justify-content: center; align-items: center;"">
                    <img src=""images/causal/causal_series_4/causal_series_4_b.jpg"" style=""width: 300px; height: 300px;"" />
                  </div>","null","",""
"","","","","","html-keyboard-response","29","100556","0.0-21.0-2.0","413C151DBB0A4824A99120CED1C1E8BB","413C151DBB0A4824A99120CED1C1E8BB","cbf18966-643e-411a-abba-c0191a9e65fe","54f8d589-66fc-4c65-830f-1dcc63bce8cc","{""participantId"":""413C151DBB0A4824A99120CED1C1E8BB"",""assignmentId"":""cbf18966-643e-411a-abba-c0191a9e65fe"",""projectId"":""54f8d589-66fc-4c65-830f-1dcc63bce8cc""}","https://test12345.live/?participantId=413C151DBB0A4824A99120CED1C1E8BB&assignmentId=cbf18966-643e-411a-abba-c0191a9e65fe&projectId=54f8d589-66fc-4c65-830f-1dcc63bce8cc","","null","<div style=""display: flex; justify-content: center; align-items: center;"">
                    <img src=""images/causal/causal_series_4/causal_series_4_c.jpg"" style=""width: 300px; height: 300px;"" />
                  </div>","null","",""
"","","","","","html-keyboard-response","30","103567","0.0-21.0-3.0","413C151DBB0A4824A99120CED1C1E8BB","413C151DBB0A4824A99120CED1C1E8BB","cbf18966-643e-411a-abba-c0191a9e65fe","54f8d589-66fc-4c65-830f-1dcc63bce8cc","{""participantId"":""413C151DBB0A4824A99120CED1C1E8BB"",""assignmentId"":""cbf18966-643e-411a-abba-c0191a9e65fe"",""projectId"":""54f8d589-66fc-4c65-830f-1dcc63bce8cc""}","https://test12345.live/?participantId=413C151DBB0A4824A99120CED1C1E8BB&assignmentId=cbf18966-643e-411a-abba-c0191a9e65fe&projectId=54f8d589-66fc-4c65-830f-1dcc63bce8cc","","null","<div style=""display: flex; justify-content: center; align-items: center;"">
                    <img src=""images/causal/causal_series_4/causal_series_4_d.jpg"" style=""width: 300px; height: 300px;"" />
                  </div>","null","",""
"","","","","","html-button-response","31","105126","0.0-23.0","413C151DBB0A4824A99120CED1C1E8BB","413C151DBB0A4824A99120CED1C1E8BB","cbf18966-643e-411a-abba-c0191a9e65fe","54f8d589-66fc-4c65-830f-1dcc63bce8cc","{""participantId"":""413C151DBB0A4824A99120CED1C1E8BB"",""assignmentId"":""cbf18966-643e-411a-abba-c0191a9e65fe"",""projectId"":""54f8d589-66fc-4c65-830f-1dcc63bce8cc""}","https://test12345.live/?participantId=413C151DBB0A4824A99120CED1C1E8BB&assignmentId=cbf18966-643e-411a-abba-c0191a9e65fe&projectId=54f8d589-66fc-4c65-830f-1dcc63bce8cc","","1558","Was there a person in the picture?","1","",""
"","","","","","survey-likert","32","106277","0.0-24.0","413C151DBB0A4824A99120CED1C1E8BB","413C151DBB0A4824A99120CED1C1E8BB","cbf18966-643e-411a-abba-c0191a9e65fe","54f8d589-66fc-4c65-830f-1dcc63bce8cc","{""participantId"":""413C151DBB0A4824A99120CED1C1E8BB"",""assignmentId"":""cbf18966-643e-411a-abba-c0191a9e65fe"",""projectId"":""54f8d589-66fc-4c65-830f-1dcc63bce8cc""}","https://test12345.live/?participantId=413C151DBB0A4824A99120CED1C1E8BB&assignmentId=cbf18966-643e-411a-abba-c0191a9e65fe&projectId=54f8d589-66fc-4c65-830f-1dcc63bce8cc","","1151","","{""Q0"":2}","","[0]"
"","","","","","html-button-response","33","106974","0.0-25.0","413C151DBB0A4824A99120CED1C1E8BB","413C151DBB0A4824A99120CED1C1E8BB","cbf18966-643e-411a-abba-c0191a9e65fe","54f8d589-66fc-4c65-830f-1dcc63bce8cc","{""participantId"":""413C151DBB0A4824A99120CED1C1E8BB"",""assignmentId"":""cbf18966-643e-411a-abba-c0191a9e65fe"",""projectId"":""54f8d589-66fc-4c65-830f-1dcc63bce8cc""}","https://test12345.live/?participantId=413C151DBB0A4824A99120CED1C1E8BB&assignmentId=cbf18966-643e-411a-abba-c0191a9e65fe&projectId=54f8d589-66fc-4c65-830f-1dcc63bce8cc","","696","
    <div style=""display: flex; justify-content: center; align-items: center;"">
      <img src=""images/red_deck_2.png"" style=""width: 300px; height: 300px; margin-right: 10px;"" />
      <img src=""images/blue_deck_1.png"" style=""width: 300px; height: 300px;"" />
    </div>","1","1",""
"","","","","","html-keyboard-response","34","109979","0.0-27.0-0.0","413C151DBB0A4824A99120CED1C1E8BB","413C151DBB0A4824A99120CED1C1E8BB","cbf18966-643e-411a-abba-c0191a9e65fe","54f8d589-66fc-4c65-830f-1dcc63bce8cc","{""participantId"":""413C151DBB0A4824A99120CED1C1E8BB"",""assignmentId"":""cbf18966-643e-411a-abba-c0191a9e65fe"",""projectId"":""54f8d589-66fc-4c65-830f-1dcc63bce8cc""}","https://test12345.live/?participantId=413C151DBB0A4824A99120CED1C1E8BB&assignmentId=cbf18966-643e-411a-abba-c0191a9e65fe&projectId=54f8d589-66fc-4c65-830f-1dcc63bce8cc","","null","<div style=""display: flex; justify-content: center; align-items: center;"">
                    <img src=""images/semantic/semantic_series_2/semantic_series_2_a.jpg"" style=""width: 300px; height: 300px;"" />
                  </div>","null","",""
"","","","","","html-keyboard-response","35","112990","0.0-27.0-1.0","413C151DBB0A4824A99120CED1C1E8BB","413C151DBB0A4824A99120CED1C1E8BB","cbf18966-643e-411a-abba-c0191a9e65fe","54f8d589-66fc-4c65-830f-1dcc63bce8cc","{""participantId"":""413C151DBB0A4824A99120CED1C1E8BB"",""assignmentId"":""cbf18966-643e-411a-abba-c0191a9e65fe"",""projectId"":""54f8d589-66fc-4c65-830f-1dcc63bce8cc""}","https://test12345.live/?participantId=413C151DBB0A4824A99120CED1C1E8BB&assignmentId=cbf18966-643e-411a-abba-c0191a9e65fe&projectId=54f8d589-66fc-4c65-830f-1dcc63bce8cc","","null","<div style=""display: flex; justify-content: center; align-items: center;"">
                    <img src=""images/semantic/semantic_series_2/semantic_series_2_b.jpg"" style=""width: 300px; height: 300px;"" />
                  </div>","null","",""
"","","","","","html-keyboard-response","36","116004","0.0-27.0-2.0","413C151DBB0A4824A99120CED1C1E8BB","413C151DBB0A4824A99120CED1C1E8BB","cbf18966-643e-411a-abba-c0191a9e65fe","54f8d589-66fc-4c65-830f-1dcc63bce8cc","{""participantId"":""413C151DBB0A4824A99120CED1C1E8BB"",""assignmentId"":""cbf18966-643e-411a-abba-c0191a9e65fe"",""projectId"":""54f8d589-66fc-4c65-830f-1dcc63bce8cc""}","https://test12345.live/?participantId=413C151DBB0A4824A99120CED1C1E8BB&assignmentId=cbf18966-643e-411a-abba-c0191a9e65fe&projectId=54f8d589-66fc-4c65-830f-1dcc63bce8cc","","null","<div style=""display: flex; justify-content: center; align-items: center;"">
                    <img src=""images/semantic/semantic_series_2/semantic_series_2_c.jpg"" style=""width: 300px; height: 300px;"" />
                  </div>","null","",""
"","","","","","html-keyboard-response","37","119009","0.0-27.0-3.0","413C151DBB0A4824A99120CED1C1E8BB","413C151DBB0A4824A99120CED1C1E8BB","cbf18966-643e-411a-abba-c0191a9e65fe","54f8d589-66fc-4c65-830f-1dcc63bce8cc","{""participantId"":""413C151DBB0A4824A99120CED1C1E8BB"",""assignmentId"":""cbf18966-643e-411a-abba-c0191a9e65fe"",""projectId"":""54f8d589-66fc-4c65-830f-1dcc63bce8cc""}","https://test12345.live/?participantId=413C151DBB0A4824A99120CED1C1E8BB&assignmentId=cbf18966-643e-411a-abba-c0191a9e65fe&projectId=54f8d589-66fc-4c65-830f-1dcc63bce8cc","","null","<div style=""display: flex; justify-content: center; align-items: center;"">
                    <img src=""images/semantic/semantic_series_2/semantic_series_2_d.jpg"" style=""width: 300px; height: 300px;"" />
                  </div>","null","",""
"","","","","","html-button-response","38","120637","0.0-28.0","413C151DBB0A4824A99120CED1C1E8BB","413C151DBB0A4824A99120CED1C1E8BB","cbf18966-643e-411a-abba-c0191a9e65fe","54f8d589-66fc-4c65-830f-1dcc63bce8cc","{""participantId"":""413C151DBB0A4824A99120CED1C1E8BB"",""assignmentId"":""cbf18966-643e-411a-abba-c0191a9e65fe"",""projectId"":""54f8d589-66fc-4c65-830f-1dcc63bce8cc""}","https://test12345.live/?participantId=413C151DBB0A4824A99120CED1C1E8BB&assignmentId=cbf18966-643e-411a-abba-c0191a9e65fe&projectId=54f8d589-66fc-4c65-830f-1dcc63bce8cc","","1628","Was there a person in the picture?","0","",""
"","","","","","survey-likert","39","121878","0.0-29.0","413C151DBB0A4824A99120CED1C1E8BB","413C151DBB0A4824A99120CED1C1E8BB","cbf18966-643e-411a-abba-c0191a9e65fe","54f8d589-66fc-4c65-830f-1dcc63bce8cc","{""participantId"":""413C151DBB0A4824A99120CED1C1E8BB"",""assignmentId"":""cbf18966-643e-411a-abba-c0191a9e65fe"",""projectId"":""54f8d589-66fc-4c65-830f-1dcc63bce8cc""}","https://test12345.live/?participantId=413C151DBB0A4824A99120CED1C1E8BB&assignmentId=cbf18966-643e-411a-abba-c0191a9e65fe&projectId=54f8d589-66fc-4c65-830f-1dcc63bce8cc","","1240","","{""Q0"":2}","","[0]"
"","","","","","html-button-response","40","123662","0.0-30.0","413C151DBB0A4824A99120CED1C1E8BB","413C151DBB0A4824A99120CED1C1E8BB","cbf18966-643e-411a-abba-c0191a9e65fe","54f8d589-66fc-4c65-830f-1dcc63bce8cc","{""participantId"":""413C151DBB0A4824A99120CED1C1E8BB"",""assignmentId"":""cbf18966-643e-411a-abba-c0191a9e65fe"",""projectId"":""54f8d589-66fc-4c65-830f-1dcc63bce8cc""}","https://test12345.live/?participantId=413C151DBB0A4824A99120CED1C1E8BB&assignmentId=cbf18966-643e-411a-abba-c0191a9e65fe&projectId=54f8d589-66fc-4c65-830f-1dcc63bce8cc","","1783","
    <div style=""display: flex; justify-content: center; align-items: center;"">
      <img src=""images/red_deck_2.png"" style=""width: 300px; height: 300px; margin-right: 10px;"" />
      <img src=""images/blue_deck_1.png"" style=""width: 300px; height: 300px;"" />
    </div>","1","1",""
"","","","","","html-keyboard-response","41","126668","0.0-32.0-0.0","413C151DBB0A4824A99120CED1C1E8BB","413C151DBB0A4824A99120CED1C1E8BB","cbf18966-643e-411a-abba-c0191a9e65fe","54f8d589-66fc-4c65-830f-1dcc63bce8cc","{""participantId"":""413C151DBB0A4824A99120CED1C1E8BB"",""assignmentId"":""cbf18966-643e-411a-abba-c0191a9e65fe"",""projectId"":""54f8d589-66fc-4c65-830f-1dcc63bce8cc""}","https://test12345.live/?participantId=413C151DBB0A4824A99120CED1C1E8BB&assignmentId=cbf18966-643e-411a-abba-c0191a9e65fe&projectId=54f8d589-66fc-4c65-830f-1dcc63bce8cc","","null","<div style=""display: flex; justify-content: center; align-items: center;"">
                    <img src=""images/semantic/semantic_series_7/semantic_series_7_a.jpg"" style=""width: 300px; height: 300px;"" />
                  </div>","null","",""
"","","","","","html-keyboard-response","42","129673","0.0-32.0-1.0","413C151DBB0A4824A99120CED1C1E8BB","413C151DBB0A4824A99120CED1C1E8BB","cbf18966-643e-411a-abba-c0191a9e65fe","54f8d589-66fc-4c65-830f-1dcc63bce8cc","{""participantId"":""413C151DBB0A4824A99120CED1C1E8BB"",""assignmentId"":""cbf18966-643e-411a-abba-c0191a9e65fe"",""projectId"":""54f8d589-66fc-4c65-830f-1dcc63bce8cc""}","https://test12345.live/?participantId=413C151DBB0A4824A99120CED1C1E8BB&assignmentId=cbf18966-643e-411a-abba-c0191a9e65fe&projectId=54f8d589-66fc-4c65-830f-1dcc63bce8cc","","null","<div style=""display: flex; justify-content: center; align-items: center;"">
                    <img src=""images/semantic/semantic_series_7/semantic_series_7_b.jpg"" style=""width: 300px; height: 300px;"" />
                  </div>","null","",""
"","","","","","html-keyboard-response","43","132682","0.0-32.0-2.0","413C151DBB0A4824A99120CED1C1E8BB","413C151DBB0A4824A99120CED1C1E8BB","cbf18966-643e-411a-abba-c0191a9e65fe","54f8d589-66fc-4c65-830f-1dcc63bce8cc","{""participantId"":""413C151DBB0A4824A99120CED1C1E8BB"",""assignmentId"":""cbf18966-643e-411a-abba-c0191a9e65fe"",""projectId"":""54f8d589-66fc-4c65-830f-1dcc63bce8cc""}","https://test12345.live/?participantId=413C151DBB0A4824A99120CED1C1E8BB&assignmentId=cbf18966-643e-411a-abba-c0191a9e65fe&projectId=54f8d589-66fc-4c65-830f-1dcc63bce8cc","","null","<div style=""display: flex; justify-content: center; align-items: center;"">
                    <img src=""images/semantic/semantic_series_7/semantic_series_7_c.jpg"" style=""width: 300px; height: 300px;"" />
                  </div>","null","",""
"","","","","","html-keyboard-response","44","135690","0.0-32.0-3.0","413C151DBB0A4824A99120CED1C1E8BB","413C151DBB0A4824A99120CED1C1E8BB","cbf18966-643e-411a-abba-c0191a9e65fe","54f8d589-66fc-4c65-830f-1dcc63bce8cc","{""participantId"":""413C151DBB0A4824A99120CED1C1E8BB"",""assignmentId"":""cbf18966-643e-411a-abba-c0191a9e65fe"",""projectId"":""54f8d589-66fc-4c65-830f-1dcc63bce8cc""}","https://test12345.live/?participantId=413C151DBB0A4824A99120CED1C1E8BB&assignmentId=cbf18966-643e-411a-abba-c0191a9e65fe&projectId=54f8d589-66fc-4c65-830f-1dcc63bce8cc","","null","<div style=""display: flex; justify-content: center; align-items: center;"">
                    <img src=""images/semantic/semantic_series_7/semantic_series_7_d.jpg"" style=""width: 300px; height: 300px;"" />
                  </div>","null","",""
"","","","","","html-button-response","45","138702","0.0-33.0","413C151DBB0A4824A99120CED1C1E8BB","413C151DBB0A4824A99120CED1C1E8BB","cbf18966-643e-411a-abba-c0191a9e65fe","54f8d589-66fc-4c65-830f-1dcc63bce8cc","{""participantId"":""413C151DBB0A4824A99120CED1C1E8BB"",""assignmentId"":""cbf18966-643e-411a-abba-c0191a9e65fe"",""projectId"":""54f8d589-66fc-4c65-830f-1dcc63bce8cc""}","https://test12345.live/?participantId=413C151DBB0A4824A99120CED1C1E8BB&assignmentId=cbf18966-643e-411a-abba-c0191a9e65fe&projectId=54f8d589-66fc-4c65-830f-1dcc63bce8cc","","3011","Was there a person in the picture?","1","",""
"","","","","","survey-likert","46","142918","0.0-34.0","413C151DBB0A4824A99120CED1C1E8BB","413C151DBB0A4824A99120CED1C1E8BB","cbf18966-643e-411a-abba-c0191a9e65fe","54f8d589-66fc-4c65-830f-1dcc63bce8cc","{""participantId"":""413C151DBB0A4824A99120CED1C1E8BB"",""assignmentId"":""cbf18966-643e-411a-abba-c0191a9e65fe"",""projectId"":""54f8d589-66fc-4c65-830f-1dcc63bce8cc""}","https://test12345.live/?participantId=413C151DBB0A4824A99120CED1C1E8BB&assignmentId=cbf18966-643e-411a-abba-c0191a9e65fe&projectId=54f8d589-66fc-4c65-830f-1dcc63bce8cc","","4216","","{""Q0"":2}","","[0]"
"","","","","","html-button-response","47","143941","0.0-35.0","413C151DBB0A4824A99120CED1C1E8BB","413C151DBB0A4824A99120CED1C1E8BB","cbf18966-643e-411a-abba-c0191a9e65fe","54f8d589-66fc-4c65-830f-1dcc63bce8cc","{""participantId"":""413C151DBB0A4824A99120CED1C1E8BB"",""assignmentId"":""cbf18966-643e-411a-abba-c0191a9e65fe"",""projectId"":""54f8d589-66fc-4c65-830f-1dcc63bce8cc""}","https://test12345.live/?participantId=413C151DBB0A4824A99120CED1C1E8BB&assignmentId=cbf18966-643e-411a-abba-c0191a9e65fe&projectId=54f8d589-66fc-4c65-830f-1dcc63bce8cc","","1023","
    <div style=""display: flex; justify-content: center; align-items: center;"">
      <img src=""images/red_deck_2.png"" style=""width: 300px; height: 300px; margin-right: 10px;"" />
      <img src=""images/blue_deck_1.png"" style=""width: 300px; height: 300px;"" />
    </div>","0","0",""
"","","","","","html-keyboard-response","48","146951","0.0-36.0-0.0","413C151DBB0A4824A99120CED1C1E8BB","413C151DBB0A4824A99120CED1C1E8BB","cbf18966-643e-411a-abba-c0191a9e65fe","54f8d589-66fc-4c65-830f-1dcc63bce8cc","{""participantId"":""413C151DBB0A4824A99120CED1C1E8BB"",""assignmentId"":""cbf18966-643e-411a-abba-c0191a9e65fe"",""projectId"":""54f8d589-66fc-4c65-830f-1dcc63bce8cc""}","https://test12345.live/?participantId=413C151DBB0A4824A99120CED1C1E8BB&assignmentId=cbf18966-643e-411a-abba-c0191a9e65fe&projectId=54f8d589-66fc-4c65-830f-1dcc63bce8cc","","null","<div style=""display: flex; justify-content: center; align-items: center;"">
                    <img src=""images/causal/causal_series_9/causal_series_9_a.jpg"" style=""width: 300px; height: 300px;"" />
                  </div>","null","",""
"","","","","","html-keyboard-response","49","149967","0.0-36.0-1.0","413C151DBB0A4824A99120CED1C1E8BB","413C151DBB0A4824A99120CED1C1E8BB","cbf18966-643e-411a-abba-c0191a9e65fe","54f8d589-66fc-4c65-830f-1dcc63bce8cc","{""participantId"":""413C151DBB0A4824A99120CED1C1E8BB"",""assignmentId"":""cbf18966-643e-411a-abba-c0191a9e65fe"",""projectId"":""54f8d589-66fc-4c65-830f-1dcc63bce8cc""}","https://test12345.live/?participantId=413C151DBB0A4824A99120CED1C1E8BB&assignmentId=cbf18966-643e-411a-abba-c0191a9e65fe&projectId=54f8d589-66fc-4c65-830f-1dcc63bce8cc","","null","<div style=""display: flex; justify-content: center; align-items: center;"">
                    <img src=""images/causal/causal_series_9/causal_series_9_b.jpg"" style=""width: 300px; height: 300px;"" />
                  </div>","null","",""
"","","","","","html-keyboard-response","50","152971","0.0-36.0-2.0","413C151DBB0A4824A99120CED1C1E8BB","413C151DBB0A4824A99120CED1C1E8BB","cbf18966-643e-411a-abba-c0191a9e65fe","54f8d589-66fc-4c65-830f-1dcc63bce8cc","{""participantId"":""413C151DBB0A4824A99120CED1C1E8BB"",""assignmentId"":""cbf18966-643e-411a-abba-c0191a9e65fe"",""projectId"":""54f8d589-66fc-4c65-830f-1dcc63bce8cc""}","https://test12345.live/?participantId=413C151DBB0A4824A99120CED1C1E8BB&assignmentId=cbf18966-643e-411a-abba-c0191a9e65fe&projectId=54f8d589-66fc-4c65-830f-1dcc63bce8cc","","null","<div style=""display: flex; justify-content: center; align-items: center;"">
                    <img src=""images/causal/causal_series_9/causal_series_9_c.jpg"" style=""width: 300px; height: 300px;"" />
                  </div>","null","",""
"","","","","","html-keyboard-response","51","155986","0.0-36.0-3.0","413C151DBB0A4824A99120CED1C1E8BB","413C151DBB0A4824A99120CED1C1E8BB","cbf18966-643e-411a-abba-c0191a9e65fe","54f8d589-66fc-4c65-830f-1dcc63bce8cc","{""participantId"":""413C151DBB0A4824A99120CED1C1E8BB"",""assignmentId"":""cbf18966-643e-411a-abba-c0191a9e65fe"",""projectId"":""54f8d589-66fc-4c65-830f-1dcc63bce8cc""}","https://test12345.live/?participantId=413C151DBB0A4824A99120CED1C1E8BB&assignmentId=cbf18966-643e-411a-abba-c0191a9e65fe&projectId=54f8d589-66fc-4c65-830f-1dcc63bce8cc","","null","<div style=""display: flex; justify-content: center; align-items: center;"">
                    <img src=""images/causal/causal_series_9/causal_series_9_d.jpg"" style=""width: 300px; height: 300px;"" />
                  </div>","null","",""
"","","","","","html-button-response","52","157893","0.0-38.0","413C151DBB0A4824A99120CED1C1E8BB","413C151DBB0A4824A99120CED1C1E8BB","cbf18966-643e-411a-abba-c0191a9e65fe","54f8d589-66fc-4c65-830f-1dcc63bce8cc","{""participantId"":""413C151DBB0A4824A99120CED1C1E8BB"",""assignmentId"":""cbf18966-643e-411a-abba-c0191a9e65fe"",""projectId"":""54f8d589-66fc-4c65-830f-1dcc63bce8cc""}","https://test12345.live/?participantId=413C151DBB0A4824A99120CED1C1E8BB&assignmentId=cbf18966-643e-411a-abba-c0191a9e65fe&projectId=54f8d589-66fc-4c65-830f-1dcc63bce8cc","","1906","Was there a person in the picture?","1","",""
"","","","","","survey-likert","53","159022","0.0-39.0","413C151DBB0A4824A99120CED1C1E8BB","413C151DBB0A4824A99120CED1C1E8BB","cbf18966-643e-411a-abba-c0191a9e65fe","54f8d589-66fc-4c65-830f-1dcc63bce8cc","{""participantId"":""413C151DBB0A4824A99120CED1C1E8BB"",""assignmentId"":""cbf18966-643e-411a-abba-c0191a9e65fe"",""projectId"":""54f8d589-66fc-4c65-830f-1dcc63bce8cc""}","https://test12345.live/?participantId=413C151DBB0A4824A99120CED1C1E8BB&assignmentId=cbf18966-643e-411a-abba-c0191a9e65fe&projectId=54f8d589-66fc-4c65-830f-1dcc63bce8cc","","1128","","{""Q0"":3}","","[0]"
"","","","","","html-button-response","54","160230","0.0-40.0","413C151DBB0A4824A99120CED1C1E8BB","413C151DBB0A4824A99120CED1C1E8BB","cbf18966-643e-411a-abba-c0191a9e65fe","54f8d589-66fc-4c65-830f-1dcc63bce8cc","{""participantId"":""413C151DBB0A4824A99120CED1C1E8BB"",""assignmentId"":""cbf18966-643e-411a-abba-c0191a9e65fe"",""projectId"":""54f8d589-66fc-4c65-830f-1dcc63bce8cc""}","https://test12345.live/?participantId=413C151DBB0A4824A99120CED1C1E8BB&assignmentId=cbf18966-643e-411a-abba-c0191a9e65fe&projectId=54f8d589-66fc-4c65-830f-1dcc63bce8cc","","1208","
    <div style=""display: flex; justify-content: center; align-items: center;"">
      <img src=""images/red_deck_2.png"" style=""width: 300px; height: 300px; margin-right: 10px;"" />
      <img src=""images/blue_deck_1.png"" style=""width: 300px; height: 300px;"" />
    </div>","0","0",""
"","","","","","html-keyboard-response","55","163245","0.0-41.0-0.0","413C151DBB0A4824A99120CED1C1E8BB","413C151DBB0A4824A99120CED1C1E8BB","cbf18966-643e-411a-abba-c0191a9e65fe","54f8d589-66fc-4c65-830f-1dcc63bce8cc","{""participantId"":""413C151DBB0A4824A99120CED1C1E8BB"",""assignmentId"":""cbf18966-643e-411a-abba-c0191a9e65fe"",""projectId"":""54f8d589-66fc-4c65-830f-1dcc63bce8cc""}","https://test12345.live/?participantId=413C151DBB0A4824A99120CED1C1E8BB&assignmentId=cbf18966-643e-411a-abba-c0191a9e65fe&projectId=54f8d589-66fc-4c65-830f-1dcc63bce8cc","","null","<div style=""display: flex; justify-content: center; align-items: center;"">
                    <img src=""images/causal/causal_series_11/causal_series_11_a.jpg"" style=""width: 300px; height: 300px;"" />
                  </div>","null","",""
"","","","","","html-keyboard-response","56","166255","0.0-41.0-1.0","413C151DBB0A4824A99120CED1C1E8BB","413C151DBB0A4824A99120CED1C1E8BB","cbf18966-643e-411a-abba-c0191a9e65fe","54f8d589-66fc-4c65-830f-1dcc63bce8cc","{""participantId"":""413C151DBB0A4824A99120CED1C1E8BB"",""assignmentId"":""cbf18966-643e-411a-abba-c0191a9e65fe"",""projectId"":""54f8d589-66fc-4c65-830f-1dcc63bce8cc""}","https://test12345.live/?participantId=413C151DBB0A4824A99120CED1C1E8BB&assignmentId=cbf18966-643e-411a-abba-c0191a9e65fe&projectId=54f8d589-66fc-4c65-830f-1dcc63bce8cc","","null","<div style=""display: flex; justify-content: center; align-items: center;"">
                    <img src=""images/causal/causal_series_11/causal_series_11_b.jpg"" style=""width: 300px; height: 300px;"" />
                  </div>","null","",""
"","","","","","html-keyboard-response","57","169270","0.0-41.0-2.0","413C151DBB0A4824A99120CED1C1E8BB","413C151DBB0A4824A99120CED1C1E8BB","cbf18966-643e-411a-abba-c0191a9e65fe","54f8d589-66fc-4c65-830f-1dcc63bce8cc","{""participantId"":""413C151DBB0A4824A99120CED1C1E8BB"",""assignmentId"":""cbf18966-643e-411a-abba-c0191a9e65fe"",""projectId"":""54f8d589-66fc-4c65-830f-1dcc63bce8cc""}","https://test12345.live/?participantId=413C151DBB0A4824A99120CED1C1E8BB&assignmentId=cbf18966-643e-411a-abba-c0191a9e65fe&projectId=54f8d589-66fc-4c65-830f-1dcc63bce8cc","","null","<div style=""display: flex; justify-content: center; align-items: center;"">
                    <img src=""images/causal/causal_series_11/causal_series_11_c.jpg"" style=""width: 300px; height: 300px;"" />
                  </div>","null","",""
"","","","","","html-keyboard-response","58","172283","0.0-41.0-3.0","413C151DBB0A4824A99120CED1C1E8BB","413C151DBB0A4824A99120CED1C1E8BB","cbf18966-643e-411a-abba-c0191a9e65fe","54f8d589-66fc-4c65-830f-1dcc63bce8cc","{""participantId"":""413C151DBB0A4824A99120CED1C1E8BB"",""assignmentId"":""cbf18966-643e-411a-abba-c0191a9e65fe"",""projectId"":""54f8d589-66fc-4c65-830f-1dcc63bce8cc""}","https://test12345.live/?participantId=413C151DBB0A4824A99120CED1C1E8BB&assignmentId=cbf18966-643e-411a-abba-c0191a9e65fe&projectId=54f8d589-66fc-4c65-830f-1dcc63bce8cc","","null","<div style=""display: flex; justify-content: center; align-items: center;"">
                    <img src=""images/causal/causal_series_11/causal_series_11_d.jpg"" style=""width: 300px; height: 300px;"" />
                  </div>","null","",""
"","","","","","html-button-response","59","173916","0.0-43.0","413C151DBB0A4824A99120CED1C1E8BB","413C151DBB0A4824A99120CED1C1E8BB","cbf18966-643e-411a-abba-c0191a9e65fe","54f8d589-66fc-4c65-830f-1dcc63bce8cc","{""participantId"":""413C151DBB0A4824A99120CED1C1E8BB"",""assignmentId"":""cbf18966-643e-411a-abba-c0191a9e65fe"",""projectId"":""54f8d589-66fc-4c65-830f-1dcc63bce8cc""}","https://test12345.live/?participantId=413C151DBB0A4824A99120CED1C1E8BB&assignmentId=cbf18966-643e-411a-abba-c0191a9e65fe&projectId=54f8d589-66fc-4c65-830f-1dcc63bce8cc","","1632","Was there a person in the picture?","0","",""
"","","","","","survey-likert","60","175285","0.0-44.0","413C151DBB0A4824A99120CED1C1E8BB","413C151DBB0A4824A99120CED1C1E8BB","cbf18966-643e-411a-abba-c0191a9e65fe","54f8d589-66fc-4c65-830f-1dcc63bce8cc","{""participantId"":""413C151DBB0A4824A99120CED1C1E8BB"",""assignmentId"":""cbf18966-643e-411a-abba-c0191a9e65fe"",""projectId"":""54f8d589-66fc-4c65-830f-1dcc63bce8cc""}","https://test12345.live/?participantId=413C151DBB0A4824A99120CED1C1E8BB&assignmentId=cbf18966-643e-411a-abba-c0191a9e65fe&projectId=54f8d589-66fc-4c65-830f-1dcc63bce8cc","","1369","","{""Q0"":2}","","[0]"
"","","","","","html-button-response","61","176021","0.0-45.0","413C151DBB0A4824A99120CED1C1E8BB","413C151DBB0A4824A99120CED1C1E8BB","cbf18966-643e-411a-abba-c0191a9e65fe","54f8d589-66fc-4c65-830f-1dcc63bce8cc","{""participantId"":""413C151DBB0A4824A99120CED1C1E8BB"",""assignmentId"":""cbf18966-643e-411a-abba-c0191a9e65fe"",""projectId"":""54f8d589-66fc-4c65-830f-1dcc63bce8cc""}","https://test12345.live/?participantId=413C151DBB0A4824A99120CED1C1E8BB&assignmentId=cbf18966-643e-411a-abba-c0191a9e65fe&projectId=54f8d589-66fc-4c65-830f-1dcc63bce8cc","","735","
    <div style=""display: flex; justify-content: center; align-items: center;"">
      <img src=""images/red_deck_2.png"" style=""width: 300px; height: 300px; margin-right: 10px;"" />
      <img src=""images/blue_deck_1.png"" style=""width: 300px; height: 300px;"" />
    </div>","1","1",""
"","","","","","html-keyboard-response","62","179031","0.0-47.0-0.0","413C151DBB0A4824A99120CED1C1E8BB","413C151DBB0A4824A99120CED1C1E8BB","cbf18966-643e-411a-abba-c0191a9e65fe","54f8d589-66fc-4c65-830f-1dcc63bce8cc","{""participantId"":""413C151DBB0A4824A99120CED1C1E8BB"",""assignmentId"":""cbf18966-643e-411a-abba-c0191a9e65fe"",""projectId"":""54f8d589-66fc-4c65-830f-1dcc63bce8cc""}","https://test12345.live/?participantId=413C151DBB0A4824A99120CED1C1E8BB&assignmentId=cbf18966-643e-411a-abba-c0191a9e65fe&projectId=54f8d589-66fc-4c65-830f-1dcc63bce8cc","","null","<div style=""display: flex; justify-content: center; align-items: center;"">
                    <img src=""images/semantic/semantic_series_18/semantic_series_18_a.jpg"" style=""width: 300px; height: 300px;"" />
                  </div>","null","",""
"","","","","","html-keyboard-response","63","182045","0.0-47.0-1.0","413C151DBB0A4824A99120CED1C1E8BB","413C151DBB0A4824A99120CED1C1E8BB","cbf18966-643e-411a-abba-c0191a9e65fe","54f8d589-66fc-4c65-830f-1dcc63bce8cc","{""participantId"":""413C151DBB0A4824A99120CED1C1E8BB"",""assignmentId"":""cbf18966-643e-411a-abba-c0191a9e65fe"",""projectId"":""54f8d589-66fc-4c65-830f-1dcc63bce8cc""}","https://test12345.live/?participantId=413C151DBB0A4824A99120CED1C1E8BB&assignmentId=cbf18966-643e-411a-abba-c0191a9e65fe&projectId=54f8d589-66fc-4c65-830f-1dcc63bce8cc","","null","<div style=""display: flex; justify-content: center; align-items: center;"">
                    <img src=""images/semantic/semantic_series_18/semantic_series_18_b.jpg"" style=""width: 300px; height: 300px;"" />
                  </div>","null","",""
"","","","","","html-keyboard-response","64","185054","0.0-47.0-2.0","413C151DBB0A4824A99120CED1C1E8BB","413C151DBB0A4824A99120CED1C1E8BB","cbf18966-643e-411a-abba-c0191a9e65fe","54f8d589-66fc-4c65-830f-1dcc63bce8cc","{""participantId"":""413C151DBB0A4824A99120CED1C1E8BB"",""assignmentId"":""cbf18966-643e-411a-abba-c0191a9e65fe"",""projectId"":""54f8d589-66fc-4c65-830f-1dcc63bce8cc""}","https://test12345.live/?participantId=413C151DBB0A4824A99120CED1C1E8BB&assignmentId=cbf18966-643e-411a-abba-c0191a9e65fe&projectId=54f8d589-66fc-4c65-830f-1dcc63bce8cc","","null","<div style=""display: flex; justify-content: center; align-items: center;"">
                    <img src=""images/semantic/semantic_series_18/semantic_series_18_c.jpg"" style=""width: 300px; height: 300px;"" />
                  </div>","null","",""
"","","","","","html-keyboard-response","65","188056","0.0-47.0-3.0","413C151DBB0A4824A99120CED1C1E8BB","413C151DBB0A4824A99120CED1C1E8BB","cbf18966-643e-411a-abba-c0191a9e65fe","54f8d589-66fc-4c65-830f-1dcc63bce8cc","{""participantId"":""413C151DBB0A4824A99120CED1C1E8BB"",""assignmentId"":""cbf18966-643e-411a-abba-c0191a9e65fe"",""projectId"":""54f8d589-66fc-4c65-830f-1dcc63bce8cc""}","https://test12345.live/?participantId=413C151DBB0A4824A99120CED1C1E8BB&assignmentId=cbf18966-643e-411a-abba-c0191a9e65fe&projectId=54f8d589-66fc-4c65-830f-1dcc63bce8cc","","null","<div style=""display: flex; justify-content: center; align-items: center;"">
                    <img src=""images/semantic/semantic_series_18/semantic_series_18_d.jpg"" style=""width: 300px; height: 300px;"" />
                  </div>","null","",""
"","","","","","html-button-response","66","194806","0.0-48.0","413C151DBB0A4824A99120CED1C1E8BB","413C151DBB0A4824A99120CED1C1E8BB","cbf18966-643e-411a-abba-c0191a9e65fe","54f8d589-66fc-4c65-830f-1dcc63bce8cc","{""participantId"":""413C151DBB0A4824A99120CED1C1E8BB"",""assignmentId"":""cbf18966-643e-411a-abba-c0191a9e65fe"",""projectId"":""54f8d589-66fc-4c65-830f-1dcc63bce8cc""}","https://test12345.live/?participantId=413C151DBB0A4824A99120CED1C1E8BB&assignmentId=cbf18966-643e-411a-abba-c0191a9e65fe&projectId=54f8d589-66fc-4c65-830f-1dcc63bce8cc","","6749","Was there a person in the picture?","1","",""
"","","","","","survey-likert","67","196269","0.0-49.0","413C151DBB0A4824A99120CED1C1E8BB","413C151DBB0A4824A99120CED1C1E8BB","cbf18966-643e-411a-abba-c0191a9e65fe","54f8d589-66fc-4c65-830f-1dcc63bce8cc","{""participantId"":""413C151DBB0A4824A99120CED1C1E8BB"",""assignmentId"":""cbf18966-643e-411a-abba-c0191a9e65fe"",""projectId"":""54f8d589-66fc-4c65-830f-1dcc63bce8cc""}","https://test12345.live/?participantId=413C151DBB0A4824A99120CED1C1E8BB&assignmentId=cbf18966-643e-411a-abba-c0191a9e65fe&projectId=54f8d589-66fc-4c65-830f-1dcc63bce8cc","","1462","","{""Q0"":3}","","[0]"
"","","","","","html-button-response","68","196861","0.0-50.0","413C151DBB0A4824A99120CED1C1E8BB","413C151DBB0A4824A99120CED1C1E8BB","cbf18966-643e-411a-abba-c0191a9e65fe","54f8d589-66fc-4c65-830f-1dcc63bce8cc","{""participantId"":""413C151DBB0A4824A99120CED1C1E8BB"",""assignmentId"":""cbf18966-643e-411a-abba-c0191a9e65fe"",""projectId"":""54f8d589-66fc-4c65-830f-1dcc63bce8cc""}","https://test12345.live/?participantId=413C151DBB0A4824A99120CED1C1E8BB&assignmentId=cbf18966-643e-411a-abba-c0191a9e65fe&projectId=54f8d589-66fc-4c65-830f-1dcc63bce8cc","","591","
    <div style=""display: flex; justify-content: center; align-items: center;"">
      <img src=""images/red_deck_2.png"" style=""width: 300px; height: 300px; margin-right: 10px;"" />
      <img src=""images/blue_deck_1.png"" style=""width: 300px; height: 300px;"" />
    </div>","1","1",""
"","","","","","html-keyboard-response","69","199870","0.0-52.0-0.0","413C151DBB0A4824A99120CED1C1E8BB","413C151DBB0A4824A99120CED1C1E8BB","cbf18966-643e-411a-abba-c0191a9e65fe","54f8d589-66fc-4c65-830f-1dcc63bce8cc","{""participantId"":""413C151DBB0A4824A99120CED1C1E8BB"",""assignmentId"":""cbf18966-643e-411a-abba-c0191a9e65fe"",""projectId"":""54f8d589-66fc-4c65-830f-1dcc63bce8cc""}","https://test12345.live/?participantId=413C151DBB0A4824A99120CED1C1E8BB&assignmentId=cbf18966-643e-411a-abba-c0191a9e65fe&projectId=54f8d589-66fc-4c65-830f-1dcc63bce8cc","","null","<div style=""display: flex; justify-content: center; align-items: center;"">
                    <img src=""images/semantic/semantic_series_5/semantic_series_5_a.jpg"" style=""width: 300px; height: 300px;"" />
                  </div>","null","",""
"","","","","","html-keyboard-response","70","202878","0.0-52.0-1.0","413C151DBB0A4824A99120CED1C1E8BB","413C151DBB0A4824A99120CED1C1E8BB","cbf18966-643e-411a-abba-c0191a9e65fe","54f8d589-66fc-4c65-830f-1dcc63bce8cc","{""participantId"":""413C151DBB0A4824A99120CED1C1E8BB"",""assignmentId"":""cbf18966-643e-411a-abba-c0191a9e65fe"",""projectId"":""54f8d589-66fc-4c65-830f-1dcc63bce8cc""}","https://test12345.live/?participantId=413C151DBB0A4824A99120CED1C1E8BB&assignmentId=cbf18966-643e-411a-abba-c0191a9e65fe&projectId=54f8d589-66fc-4c65-830f-1dcc63bce8cc","","null","<div style=""display: flex; justify-content: center; align-items: center;"">
                    <img src=""images/semantic/semantic_series_5/semantic_series_5_b.jpg"" style=""width: 300px; height: 300px;"" />
                  </div>","null","",""
"","","","","","html-keyboard-response","71","205890","0.0-52.0-2.0","413C151DBB0A4824A99120CED1C1E8BB","413C151DBB0A4824A99120CED1C1E8BB","cbf18966-643e-411a-abba-c0191a9e65fe","54f8d589-66fc-4c65-830f-1dcc63bce8cc","{""participantId"":""413C151DBB0A4824A99120CED1C1E8BB"",""assignmentId"":""cbf18966-643e-411a-abba-c0191a9e65fe"",""projectId"":""54f8d589-66fc-4c65-830f-1dcc63bce8cc""}","https://test12345.live/?participantId=413C151DBB0A4824A99120CED1C1E8BB&assignmentId=cbf18966-643e-411a-abba-c0191a9e65fe&projectId=54f8d589-66fc-4c65-830f-1dcc63bce8cc","","null","<div style=""display: flex; justify-content: center; align-items: center;"">
                    <img src=""images/semantic/semantic_series_5/semantic_series_5_c.jpg"" style=""width: 300px; height: 300px;"" />
                  </div>","null","",""
"","","","","","html-keyboard-response","72","208902","0.0-52.0-3.0","413C151DBB0A4824A99120CED1C1E8BB","413C151DBB0A4824A99120CED1C1E8BB","cbf18966-643e-411a-abba-c0191a9e65fe","54f8d589-66fc-4c65-830f-1dcc63bce8cc","{""participantId"":""413C151DBB0A4824A99120CED1C1E8BB"",""assignmentId"":""cbf18966-643e-411a-abba-c0191a9e65fe"",""projectId"":""54f8d589-66fc-4c65-830f-1dcc63bce8cc""}","https://test12345.live/?participantId=413C151DBB0A4824A99120CED1C1E8BB&assignmentId=cbf18966-643e-411a-abba-c0191a9e65fe&projectId=54f8d589-66fc-4c65-830f-1dcc63bce8cc","","null","<div style=""display: flex; justify-content: center; align-items: center;"">
                    <img src=""images/semantic/semantic_series_5/semantic_series_5_d.jpg"" style=""width: 300px; height: 300px;"" />
                  </div>","null","",""
"","","","","","html-button-response","73","210269","0.0-53.0","413C151DBB0A4824A99120CED1C1E8BB","413C151DBB0A4824A99120CED1C1E8BB","cbf18966-643e-411a-abba-c0191a9e65fe","54f8d589-66fc-4c65-830f-1dcc63bce8cc","{""participantId"":""413C151DBB0A4824A99120CED1C1E8BB"",""assignmentId"":""cbf18966-643e-411a-abba-c0191a9e65fe"",""projectId"":""54f8d589-66fc-4c65-830f-1dcc63bce8cc""}","https://test12345.live/?participantId=413C151DBB0A4824A99120CED1C1E8BB&assignmentId=cbf18966-643e-411a-abba-c0191a9e65fe&projectId=54f8d589-66fc-4c65-830f-1dcc63bce8cc","","1366","Was there a person in the picture?","0","",""
"","","","","","survey-likert","74","211309","0.0-54.0","413C151DBB0A4824A99120CED1C1E8BB","413C151DBB0A4824A99120CED1C1E8BB","cbf18966-643e-411a-abba-c0191a9e65fe","54f8d589-66fc-4c65-830f-1dcc63bce8cc","{""participantId"":""413C151DBB0A4824A99120CED1C1E8BB"",""assignmentId"":""cbf18966-643e-411a-abba-c0191a9e65fe"",""projectId"":""54f8d589-66fc-4c65-830f-1dcc63bce8cc""}","https://test12345.live/?participantId=413C151DBB0A4824A99120CED1C1E8BB&assignmentId=cbf18966-643e-411a-abba-c0191a9e65fe&projectId=54f8d589-66fc-4c65-830f-1dcc63bce8cc","","1040","","{""Q0"":2}","","[0]"
"","","","","","html-button-response","75","212221","0.0-55.0","413C151DBB0A4824A99120CED1C1E8BB","413C151DBB0A4824A99120CED1C1E8BB","cbf18966-643e-411a-abba-c0191a9e65fe","54f8d589-66fc-4c65-830f-1dcc63bce8cc","{""participantId"":""413C151DBB0A4824A99120CED1C1E8BB"",""assignmentId"":""cbf18966-643e-411a-abba-c0191a9e65fe"",""projectId"":""54f8d589-66fc-4c65-830f-1dcc63bce8cc""}","https://test12345.live/?participantId=413C151DBB0A4824A99120CED1C1E8BB&assignmentId=cbf18966-643e-411a-abba-c0191a9e65fe&projectId=54f8d589-66fc-4c65-830f-1dcc63bce8cc","","911","
    <div style=""display: flex; justify-content: center; align-items: center;"">
      <img src=""images/red_deck_2.png"" style=""width: 300px; height: 300px; margin-right: 10px;"" />
      <img src=""images/blue_deck_1.png"" style=""width: 300px; height: 300px;"" />
    </div>","0","0",""
"","","","","","html-keyboard-response","76","215228","0.0-56.0-0.0","413C151DBB0A4824A99120CED1C1E8BB","413C151DBB0A4824A99120CED1C1E8BB","cbf18966-643e-411a-abba-c0191a9e65fe","54f8d589-66fc-4c65-830f-1dcc63bce8cc","{""participantId"":""413C151DBB0A4824A99120CED1C1E8BB"",""assignmentId"":""cbf18966-643e-411a-abba-c0191a9e65fe"",""projectId"":""54f8d589-66fc-4c65-830f-1dcc63bce8cc""}","https://test12345.live/?participantId=413C151DBB0A4824A99120CED1C1E8BB&assignmentId=cbf18966-643e-411a-abba-c0191a9e65fe&projectId=54f8d589-66fc-4c65-830f-1dcc63bce8cc","","null","<div style=""display: flex; justify-content: center; align-items: center;"">
                    <img src=""images/causal/causal_series_16/causal_series_16_a.jpg"" style=""width: 300px; height: 300px;"" />
                  </div>","null","",""
"","","","","","html-keyboard-response","77","218242","0.0-56.0-1.0","413C151DBB0A4824A99120CED1C1E8BB","413C151DBB0A4824A99120CED1C1E8BB","cbf18966-643e-411a-abba-c0191a9e65fe","54f8d589-66fc-4c65-830f-1dcc63bce8cc","{""participantId"":""413C151DBB0A4824A99120CED1C1E8BB"",""assignmentId"":""cbf18966-643e-411a-abba-c0191a9e65fe"",""projectId"":""54f8d589-66fc-4c65-830f-1dcc63bce8cc""}","https://test12345.live/?participantId=413C151DBB0A4824A99120CED1C1E8BB&assignmentId=cbf18966-643e-411a-abba-c0191a9e65fe&projectId=54f8d589-66fc-4c65-830f-1dcc63bce8cc","","null","<div style=""display: flex; justify-content: center; align-items: center;"">
                    <img src=""images/causal/causal_series_16/causal_series_16_b.jpg"" style=""width: 300px; height: 300px;"" />
                  </div>","null","",""
"","","","","","html-keyboard-response","78","221246","0.0-56.0-2.0","413C151DBB0A4824A99120CED1C1E8BB","413C151DBB0A4824A99120CED1C1E8BB","cbf18966-643e-411a-abba-c0191a9e65fe","54f8d589-66fc-4c65-830f-1dcc63bce8cc","{""participantId"":""413C151DBB0A4824A99120CED1C1E8BB"",""assignmentId"":""cbf18966-643e-411a-abba-c0191a9e65fe"",""projectId"":""54f8d589-66fc-4c65-830f-1dcc63bce8cc""}","https://test12345.live/?participantId=413C151DBB0A4824A99120CED1C1E8BB&assignmentId=cbf18966-643e-411a-abba-c0191a9e65fe&projectId=54f8d589-66fc-4c65-830f-1dcc63bce8cc","","null","<div style=""display: flex; justify-content: center; align-items: center;"">
                    <img src=""images/causal/causal_series_16/causal_series_16_c.jpg"" style=""width: 300px; height: 300px;"" />
                  </div>","null","",""
"","","","","","html-keyboard-response","79","224256","0.0-56.0-3.0","413C151DBB0A4824A99120CED1C1E8BB","413C151DBB0A4824A99120CED1C1E8BB","cbf18966-643e-411a-abba-c0191a9e65fe","54f8d589-66fc-4c65-830f-1dcc63bce8cc","{""participantId"":""413C151DBB0A4824A99120CED1C1E8BB"",""assignmentId"":""cbf18966-643e-411a-abba-c0191a9e65fe"",""projectId"":""54f8d589-66fc-4c65-830f-1dcc63bce8cc""}","https://test12345.live/?participantId=413C151DBB0A4824A99120CED1C1E8BB&assignmentId=cbf18966-643e-411a-abba-c0191a9e65fe&projectId=54f8d589-66fc-4c65-830f-1dcc63bce8cc","","null","<div style=""display: flex; justify-content: center; align-items: center;"">
                    <img src=""images/causal/causal_series_16/causal_series_16_d.jpg"" style=""width: 300px; height: 300px;"" />
                  </div>","null","",""
"","","","","","html-button-response","80","226037","0.0-58.0","413C151DBB0A4824A99120CED1C1E8BB","413C151DBB0A4824A99120CED1C1E8BB","cbf18966-643e-411a-abba-c0191a9e65fe","54f8d589-66fc-4c65-830f-1dcc63bce8cc","{""participantId"":""413C151DBB0A4824A99120CED1C1E8BB"",""assignmentId"":""cbf18966-643e-411a-abba-c0191a9e65fe"",""projectId"":""54f8d589-66fc-4c65-830f-1dcc63bce8cc""}","https://test12345.live/?participantId=413C151DBB0A4824A99120CED1C1E8BB&assignmentId=cbf18966-643e-411a-abba-c0191a9e65fe&projectId=54f8d589-66fc-4c65-830f-1dcc63bce8cc","","1780","Was there a person in the picture?","0","",""
"","","","","","survey-likert","81","227213","0.0-59.0","413C151DBB0A4824A99120CED1C1E8BB","413C151DBB0A4824A99120CED1C1E8BB","cbf18966-643e-411a-abba-c0191a9e65fe","54f8d589-66fc-4c65-830f-1dcc63bce8cc","{""participantId"":""413C151DBB0A4824A99120CED1C1E8BB"",""assignmentId"":""cbf18966-643e-411a-abba-c0191a9e65fe"",""projectId"":""54f8d589-66fc-4c65-830f-1dcc63bce8cc""}","https://test12345.live/?participantId=413C151DBB0A4824A99120CED1C1E8BB&assignmentId=cbf18966-643e-411a-abba-c0191a9e65fe&projectId=54f8d589-66fc-4c65-830f-1dcc63bce8cc","","1176","","{""Q0"":2}","","[0]"
"","","","","","html-button-response","82","227917","0.0-60.0","413C151DBB0A4824A99120CED1C1E8BB","413C151DBB0A4824A99120CED1C1E8BB","cbf18966-643e-411a-abba-c0191a9e65fe","54f8d589-66fc-4c65-830f-1dcc63bce8cc","{""participantId"":""413C151DBB0A4824A99120CED1C1E8BB"",""assignmentId"":""cbf18966-643e-411a-abba-c0191a9e65fe"",""projectId"":""54f8d589-66fc-4c65-830f-1dcc63bce8cc""}","https://test12345.live/?participantId=413C151DBB0A4824A99120CED1C1E8BB&assignmentId=cbf18966-643e-411a-abba-c0191a9e65fe&projectId=54f8d589-66fc-4c65-830f-1dcc63bce8cc","","704","
    <div style=""display: flex; justify-content: center; align-items: center;"">
      <img src=""images/red_deck_2.png"" style=""width: 300px; height: 300px; margin-right: 10px;"" />
      <img src=""images/blue_deck_1.png"" style=""width: 300px; height: 300px;"" />
    </div>","1","1",""
"","","","","","html-keyboard-response","83","230931","0.0-62.0-0.0","413C151DBB0A4824A99120CED1C1E8BB","413C151DBB0A4824A99120CED1C1E8BB","cbf18966-643e-411a-abba-c0191a9e65fe","54f8d589-66fc-4c65-830f-1dcc63bce8cc","{""participantId"":""413C151DBB0A4824A99120CED1C1E8BB"",""assignmentId"":""cbf18966-643e-411a-abba-c0191a9e65fe"",""projectId"":""54f8d589-66fc-4c65-830f-1dcc63bce8cc""}","https://test12345.live/?participantId=413C151DBB0A4824A99120CED1C1E8BB&assignmentId=cbf18966-643e-411a-abba-c0191a9e65fe&projectId=54f8d589-66fc-4c65-830f-1dcc63bce8cc","","null","<div style=""display: flex; justify-content: center; align-items: center;"">
                    <img src=""images/semantic/semantic_series_10/semantic_series_10_a.jpg"" style=""width: 300px; height: 300px;"" />
                  </div>","null","",""
"","","","","","html-keyboard-response","84","233933","0.0-62.0-1.0","413C151DBB0A4824A99120CED1C1E8BB","413C151DBB0A4824A99120CED1C1E8BB","cbf18966-643e-411a-abba-c0191a9e65fe","54f8d589-66fc-4c65-830f-1dcc63bce8cc","{""participantId"":""413C151DBB0A4824A99120CED1C1E8BB"",""assignmentId"":""cbf18966-643e-411a-abba-c0191a9e65fe"",""projectId"":""54f8d589-66fc-4c65-830f-1dcc63bce8cc""}","https://test12345.live/?participantId=413C151DBB0A4824A99120CED1C1E8BB&assignmentId=cbf18966-643e-411a-abba-c0191a9e65fe&projectId=54f8d589-66fc-4c65-830f-1dcc63bce8cc","","null","<div style=""display: flex; justify-content: center; align-items: center;"">
                    <img src=""images/semantic/semantic_series_10/semantic_series_10_b.jpg"" style=""width: 300px; height: 300px;"" />
                  </div>","null","",""
"","","","","","html-keyboard-response","85","236940","0.0-62.0-2.0","413C151DBB0A4824A99120CED1C1E8BB","413C151DBB0A4824A99120CED1C1E8BB","cbf18966-643e-411a-abba-c0191a9e65fe","54f8d589-66fc-4c65-830f-1dcc63bce8cc","{""participantId"":""413C151DBB0A4824A99120CED1C1E8BB"",""assignmentId"":""cbf18966-643e-411a-abba-c0191a9e65fe"",""projectId"":""54f8d589-66fc-4c65-830f-1dcc63bce8cc""}","https://test12345.live/?participantId=413C151DBB0A4824A99120CED1C1E8BB&assignmentId=cbf18966-643e-411a-abba-c0191a9e65fe&projectId=54f8d589-66fc-4c65-830f-1dcc63bce8cc","","null","<div style=""display: flex; justify-content: center; align-items: center;"">
                    <img src=""images/semantic/semantic_series_10/semantic_series_10_c.jpg"" style=""width: 300px; height: 300px;"" />
                  </div>","null","",""
"","","","","","html-keyboard-response","86","239956","0.0-62.0-3.0","413C151DBB0A4824A99120CED1C1E8BB","413C151DBB0A4824A99120CED1C1E8BB","cbf18966-643e-411a-abba-c0191a9e65fe","54f8d589-66fc-4c65-830f-1dcc63bce8cc","{""participantId"":""413C151DBB0A4824A99120CED1C1E8BB"",""assignmentId"":""cbf18966-643e-411a-abba-c0191a9e65fe"",""projectId"":""54f8d589-66fc-4c65-830f-1dcc63bce8cc""}","https://test12345.live/?participantId=413C151DBB0A4824A99120CED1C1E8BB&assignmentId=cbf18966-643e-411a-abba-c0191a9e65fe&projectId=54f8d589-66fc-4c65-830f-1dcc63bce8cc","","null","<div style=""display: flex; justify-content: center; align-items: center;"">
                    <img src=""images/semantic/semantic_series_10/semantic_series_10_d.jpg"" style=""width: 300px; height: 300px;"" />
                  </div>","null","",""
"","","","","","html-button-response","87","241773","0.0-63.0","413C151DBB0A4824A99120CED1C1E8BB","413C151DBB0A4824A99120CED1C1E8BB","cbf18966-643e-411a-abba-c0191a9e65fe","54f8d589-66fc-4c65-830f-1dcc63bce8cc","{""participantId"":""413C151DBB0A4824A99120CED1C1E8BB"",""assignmentId"":""cbf18966-643e-411a-abba-c0191a9e65fe"",""projectId"":""54f8d589-66fc-4c65-830f-1dcc63bce8cc""}","https://test12345.live/?participantId=413C151DBB0A4824A99120CED1C1E8BB&assignmentId=cbf18966-643e-411a-abba-c0191a9e65fe&projectId=54f8d589-66fc-4c65-830f-1dcc63bce8cc","","1816","Was there a person in the picture?","1","",""
"","","","","","survey-likert","88","242829","0.0-64.0","413C151DBB0A4824A99120CED1C1E8BB","413C151DBB0A4824A99120CED1C1E8BB","cbf18966-643e-411a-abba-c0191a9e65fe","54f8d589-66fc-4c65-830f-1dcc63bce8cc","{""participantId"":""413C151DBB0A4824A99120CED1C1E8BB"",""assignmentId"":""cbf18966-643e-411a-abba-c0191a9e65fe"",""projectId"":""54f8d589-66fc-4c65-830f-1dcc63bce8cc""}","https://test12345.live/?participantId=413C151DBB0A4824A99120CED1C1E8BB&assignmentId=cbf18966-643e-411a-abba-c0191a9e65fe&projectId=54f8d589-66fc-4c65-830f-1dcc63bce8cc","","1056","","{""Q0"":4}","","[0]"
"","","","","","html-button-response","89","243845","0.0-65.0","413C151DBB0A4824A99120CED1C1E8BB","413C151DBB0A4824A99120CED1C1E8BB","cbf18966-643e-411a-abba-c0191a9e65fe","54f8d589-66fc-4c65-830f-1dcc63bce8cc","{""participantId"":""413C151DBB0A4824A99120CED1C1E8BB"",""assignmentId"":""cbf18966-643e-411a-abba-c0191a9e65fe"",""projectId"":""54f8d589-66fc-4c65-830f-1dcc63bce8cc""}","https://test12345.live/?participantId=413C151DBB0A4824A99120CED1C1E8BB&assignmentId=cbf18966-643e-411a-abba-c0191a9e65fe&projectId=54f8d589-66fc-4c65-830f-1dcc63bce8cc","","1015","
    <div style=""display: flex; justify-content: center; align-items: center;"">
      <img src=""images/red_deck_2.png"" style=""width: 300px; height: 300px; margin-right: 10px;"" />
      <img src=""images/blue_deck_1.png"" style=""width: 300px; height: 300px;"" />
    </div>","1","1",""
"","","","","","html-keyboard-response","90","246855","0.0-67.0-0.0","413C151DBB0A4824A99120CED1C1E8BB","413C151DBB0A4824A99120CED1C1E8BB","cbf18966-643e-411a-abba-c0191a9e65fe","54f8d589-66fc-4c65-830f-1dcc63bce8cc","{""participantId"":""413C151DBB0A4824A99120CED1C1E8BB"",""assignmentId"":""cbf18966-643e-411a-abba-c0191a9e65fe"",""projectId"":""54f8d589-66fc-4c65-830f-1dcc63bce8cc""}","https://test12345.live/?participantId=413C151DBB0A4824A99120CED1C1E8BB&assignmentId=cbf18966-643e-411a-abba-c0191a9e65fe&projectId=54f8d589-66fc-4c65-830f-1dcc63bce8cc","","null","<div style=""display: flex; justify-content: center; align-items: center;"">
                    <img src=""images/semantic/semantic_series_11/semantic_series_11_a.jpg"" style=""width: 300px; height: 300px;"" />
                  </div>","null","",""
"","","","","","html-keyboard-response","91","249870","0.0-67.0-1.0","413C151DBB0A4824A99120CED1C1E8BB","413C151DBB0A4824A99120CED1C1E8BB","cbf18966-643e-411a-abba-c0191a9e65fe","54f8d589-66fc-4c65-830f-1dcc63bce8cc","{""participantId"":""413C151DBB0A4824A99120CED1C1E8BB"",""assignmentId"":""cbf18966-643e-411a-abba-c0191a9e65fe"",""projectId"":""54f8d589-66fc-4c65-830f-1dcc63bce8cc""}","https://test12345.live/?participantId=413C151DBB0A4824A99120CED1C1E8BB&assignmentId=cbf18966-643e-411a-abba-c0191a9e65fe&projectId=54f8d589-66fc-4c65-830f-1dcc63bce8cc","","null","<div style=""display: flex; justify-content: center; align-items: center;"">
                    <img src=""images/semantic/semantic_series_11/semantic_series_11_b.jpg"" style=""width: 300px; height: 300px;"" />
                  </div>","null","",""
"","","","","","html-keyboard-response","92","252873","0.0-67.0-2.0","413C151DBB0A4824A99120CED1C1E8BB","413C151DBB0A4824A99120CED1C1E8BB","cbf18966-643e-411a-abba-c0191a9e65fe","54f8d589-66fc-4c65-830f-1dcc63bce8cc","{""participantId"":""413C151DBB0A4824A99120CED1C1E8BB"",""assignmentId"":""cbf18966-643e-411a-abba-c0191a9e65fe"",""projectId"":""54f8d589-66fc-4c65-830f-1dcc63bce8cc""}","https://test12345.live/?participantId=413C151DBB0A4824A99120CED1C1E8BB&assignmentId=cbf18966-643e-411a-abba-c0191a9e65fe&projectId=54f8d589-66fc-4c65-830f-1dcc63bce8cc","","null","<div style=""display: flex; justify-content: center; align-items: center;"">
                    <img src=""images/semantic/semantic_series_11/semantic_series_11_c.jpg"" style=""width: 300px; height: 300px;"" />
                  </div>","null","",""
"","","","","","html-keyboard-response","93","255880","0.0-67.0-3.0","413C151DBB0A4824A99120CED1C1E8BB","413C151DBB0A4824A99120CED1C1E8BB","cbf18966-643e-411a-abba-c0191a9e65fe","54f8d589-66fc-4c65-830f-1dcc63bce8cc","{""participantId"":""413C151DBB0A4824A99120CED1C1E8BB"",""assignmentId"":""cbf18966-643e-411a-abba-c0191a9e65fe"",""projectId"":""54f8d589-66fc-4c65-830f-1dcc63bce8cc""}","https://test12345.live/?participantId=413C151DBB0A4824A99120CED1C1E8BB&assignmentId=cbf18966-643e-411a-abba-c0191a9e65fe&projectId=54f8d589-66fc-4c65-830f-1dcc63bce8cc","","null","<div style=""display: flex; justify-content: center; align-items: center;"">
                    <img src=""images/semantic/semantic_series_11/semantic_series_11_d.jpg"" style=""width: 300px; height: 300px;"" />
                  </div>","null","",""
"","","","","","html-button-response","94","257869","0.0-68.0","413C151DBB0A4824A99120CED1C1E8BB","413C151DBB0A4824A99120CED1C1E8BB","cbf18966-643e-411a-abba-c0191a9e65fe","54f8d589-66fc-4c65-830f-1dcc63bce8cc","{""participantId"":""413C151DBB0A4824A99120CED1C1E8BB"",""assignmentId"":""cbf18966-643e-411a-abba-c0191a9e65fe"",""projectId"":""54f8d589-66fc-4c65-830f-1dcc63bce8cc""}","https://test12345.live/?participantId=413C151DBB0A4824A99120CED1C1E8BB&assignmentId=cbf18966-643e-411a-abba-c0191a9e65fe&projectId=54f8d589-66fc-4c65-830f-1dcc63bce8cc","","1988","Was there a person in the picture?","0","",""
"","","","","","survey-likert","95","258933","0.0-69.0","413C151DBB0A4824A99120CED1C1E8BB","413C151DBB0A4824A99120CED1C1E8BB","cbf18966-643e-411a-abba-c0191a9e65fe","54f8d589-66fc-4c65-830f-1dcc63bce8cc","{""participantId"":""413C151DBB0A4824A99120CED1C1E8BB"",""assignmentId"":""cbf18966-643e-411a-abba-c0191a9e65fe"",""projectId"":""54f8d589-66fc-4c65-830f-1dcc63bce8cc""}","https://test12345.live/?participantId=413C151DBB0A4824A99120CED1C1E8BB&assignmentId=cbf18966-643e-411a-abba-c0191a9e65fe&projectId=54f8d589-66fc-4c65-830f-1dcc63bce8cc","","1063","","{""Q0"":2}","","[0]"
"","","","","","html-button-response","96","259757","0.0-70.0","413C151DBB0A4824A99120CED1C1E8BB","413C151DBB0A4824A99120CED1C1E8BB","cbf18966-643e-411a-abba-c0191a9e65fe","54f8d589-66fc-4c65-830f-1dcc63bce8cc","{""participantId"":""413C151DBB0A4824A99120CED1C1E8BB"",""assignmentId"":""cbf18966-643e-411a-abba-c0191a9e65fe"",""projectId"":""54f8d589-66fc-4c65-830f-1dcc63bce8cc""}","https://test12345.live/?participantId=413C151DBB0A4824A99120CED1C1E8BB&assignmentId=cbf18966-643e-411a-abba-c0191a9e65fe&projectId=54f8d589-66fc-4c65-830f-1dcc63bce8cc","","823","
    <div style=""display: flex; justify-content: center; align-items: center;"">
      <img src=""images/red_deck_2.png"" style=""width: 300px; height: 300px; margin-right: 10px;"" />
      <img src=""images/blue_deck_1.png"" style=""width: 300px; height: 300px;"" />
    </div>","0","0",""
"","","","","","html-keyboard-response","97","262767","0.0-71.0-0.0","413C151DBB0A4824A99120CED1C1E8BB","413C151DBB0A4824A99120CED1C1E8BB","cbf18966-643e-411a-abba-c0191a9e65fe","54f8d589-66fc-4c65-830f-1dcc63bce8cc","{""participantId"":""413C151DBB0A4824A99120CED1C1E8BB"",""assignmentId"":""cbf18966-643e-411a-abba-c0191a9e65fe"",""projectId"":""54f8d589-66fc-4c65-830f-1dcc63bce8cc""}","https://test12345.live/?participantId=413C151DBB0A4824A99120CED1C1E8BB&assignmentId=cbf18966-643e-411a-abba-c0191a9e65fe&projectId=54f8d589-66fc-4c65-830f-1dcc63bce8cc","","null","<div style=""display: flex; justify-content: center; align-items: center;"">
                    <img src=""images/causal/causal_series_2/causal_series_2_a.jpg"" style=""width: 300px; height: 300px;"" />
                  </div>","null","",""
"","","","","","html-keyboard-response","98","265770","0.0-71.0-1.0","413C151DBB0A4824A99120CED1C1E8BB","413C151DBB0A4824A99120CED1C1E8BB","cbf18966-643e-411a-abba-c0191a9e65fe","54f8d589-66fc-4c65-830f-1dcc63bce8cc","{""participantId"":""413C151DBB0A4824A99120CED1C1E8BB"",""assignmentId"":""cbf18966-643e-411a-abba-c0191a9e65fe"",""projectId"":""54f8d589-66fc-4c65-830f-1dcc63bce8cc""}","https://test12345.live/?participantId=413C151DBB0A4824A99120CED1C1E8BB&assignmentId=cbf18966-643e-411a-abba-c0191a9e65fe&projectId=54f8d589-66fc-4c65-830f-1dcc63bce8cc","","null","<div style=""display: flex; justify-content: center; align-items: center;"">
                    <img src=""images/causal/causal_series_2/causal_series_2_b.jpg"" style=""width: 300px; height: 300px;"" />
                  </div>","null","",""
"","","","","","html-keyboard-response","99","268785","0.0-71.0-2.0","413C151DBB0A4824A99120CED1C1E8BB","413C151DBB0A4824A99120CED1C1E8BB","cbf18966-643e-411a-abba-c0191a9e65fe","54f8d589-66fc-4c65-830f-1dcc63bce8cc","{""participantId"":""413C151DBB0A4824A99120CED1C1E8BB"",""assignmentId"":""cbf18966-643e-411a-abba-c0191a9e65fe"",""projectId"":""54f8d589-66fc-4c65-830f-1dcc63bce8cc""}","https://test12345.live/?participantId=413C151DBB0A4824A99120CED1C1E8BB&assignmentId=cbf18966-643e-411a-abba-c0191a9e65fe&projectId=54f8d589-66fc-4c65-830f-1dcc63bce8cc","","null","<div style=""display: flex; justify-content: center; align-items: center;"">
                    <img src=""images/causal/causal_series_2/causal_series_2_c.jpg"" style=""width: 300px; height: 300px;"" />
                  </div>","null","",""
"","","","","","html-keyboard-response","100","271793","0.0-71.0-3.0","413C151DBB0A4824A99120CED1C1E8BB","413C151DBB0A4824A99120CED1C1E8BB","cbf18966-643e-411a-abba-c0191a9e65fe","54f8d589-66fc-4c65-830f-1dcc63bce8cc","{""participantId"":""413C151DBB0A4824A99120CED1C1E8BB"",""assignmentId"":""cbf18966-643e-411a-abba-c0191a9e65fe"",""projectId"":""54f8d589-66fc-4c65-830f-1dcc63bce8cc""}","https://test12345.live/?participantId=413C151DBB0A4824A99120CED1C1E8BB&assignmentId=cbf18966-643e-411a-abba-c0191a9e65fe&projectId=54f8d589-66fc-4c65-830f-1dcc63bce8cc","","null","<div style=""display: flex; justify-content: center; align-items: center;"">
                    <img src=""images/causal/causal_series_2/causal_series_2_d.jpg"" style=""width: 300px; height: 300px;"" />
                  </div>","null","",""
"","","","","","html-button-response","101","276541","0.0-73.0","413C151DBB0A4824A99120CED1C1E8BB","413C151DBB0A4824A99120CED1C1E8BB","cbf18966-643e-411a-abba-c0191a9e65fe","54f8d589-66fc-4c65-830f-1dcc63bce8cc","{""participantId"":""413C151DBB0A4824A99120CED1C1E8BB"",""assignmentId"":""cbf18966-643e-411a-abba-c0191a9e65fe"",""projectId"":""54f8d589-66fc-4c65-830f-1dcc63bce8cc""}","https://test12345.live/?participantId=413C151DBB0A4824A99120CED1C1E8BB&assignmentId=cbf18966-643e-411a-abba-c0191a9e65fe&projectId=54f8d589-66fc-4c65-830f-1dcc63bce8cc","","4747","Was there a person in the picture?","0","",""
"","","","","","survey-likert","102","278157","0.0-74.0","413C151DBB0A4824A99120CED1C1E8BB","413C151DBB0A4824A99120CED1C1E8BB","cbf18966-643e-411a-abba-c0191a9e65fe","54f8d589-66fc-4c65-830f-1dcc63bce8cc","{""participantId"":""413C151DBB0A4824A99120CED1C1E8BB"",""assignmentId"":""cbf18966-643e-411a-abba-c0191a9e65fe"",""projectId"":""54f8d589-66fc-4c65-830f-1dcc63bce8cc""}","https://test12345.live/?participantId=413C151DBB0A4824A99120CED1C1E8BB&assignmentId=cbf18966-643e-411a-abba-c0191a9e65fe&projectId=54f8d589-66fc-4c65-830f-1dcc63bce8cc","","1616","","{""Q0"":2}","","[0]"
"","","","","","html-button-response","103","278797","0.0-75.0","413C151DBB0A4824A99120CED1C1E8BB","413C151DBB0A4824A99120CED1C1E8BB","cbf18966-643e-411a-abba-c0191a9e65fe","54f8d589-66fc-4c65-830f-1dcc63bce8cc","{""participantId"":""413C151DBB0A4824A99120CED1C1E8BB"",""assignmentId"":""cbf18966-643e-411a-abba-c0191a9e65fe"",""projectId"":""54f8d589-66fc-4c65-830f-1dcc63bce8cc""}","https://test12345.live/?participantId=413C151DBB0A4824A99120CED1C1E8BB&assignmentId=cbf18966-643e-411a-abba-c0191a9e65fe&projectId=54f8d589-66fc-4c65-830f-1dcc63bce8cc","","639","
    <div style=""display: flex; justify-content: center; align-items: center;"">
      <img src=""images/red_deck_2.png"" style=""width: 300px; height: 300px; margin-right: 10px;"" />
      <img src=""images/blue_deck_1.png"" style=""width: 300px; height: 300px;"" />
    </div>","0","0",""
"","","","","","html-keyboard-response","104","281800","0.0-76.0-0.0","413C151DBB0A4824A99120CED1C1E8BB","413C151DBB0A4824A99120CED1C1E8BB","cbf18966-643e-411a-abba-c0191a9e65fe","54f8d589-66fc-4c65-830f-1dcc63bce8cc","{""participantId"":""413C151DBB0A4824A99120CED1C1E8BB"",""assignmentId"":""cbf18966-643e-411a-abba-c0191a9e65fe"",""projectId"":""54f8d589-66fc-4c65-830f-1dcc63bce8cc""}","https://test12345.live/?participantId=413C151DBB0A4824A99120CED1C1E8BB&assignmentId=cbf18966-643e-411a-abba-c0191a9e65fe&projectId=54f8d589-66fc-4c65-830f-1dcc63bce8cc","","null","<div style=""display: flex; justify-content: center; align-items: center;"">
                    <img src=""images/causal/causal_series_8/causal_series_8_a.jpg"" style=""width: 300px; height: 300px;"" />
                  </div>","null","",""
"","","","","","html-keyboard-response","105","284802","0.0-76.0-1.0","413C151DBB0A4824A99120CED1C1E8BB","413C151DBB0A4824A99120CED1C1E8BB","cbf18966-643e-411a-abba-c0191a9e65fe","54f8d589-66fc-4c65-830f-1dcc63bce8cc","{""participantId"":""413C151DBB0A4824A99120CED1C1E8BB"",""assignmentId"":""cbf18966-643e-411a-abba-c0191a9e65fe"",""projectId"":""54f8d589-66fc-4c65-830f-1dcc63bce8cc""}","https://test12345.live/?participantId=413C151DBB0A4824A99120CED1C1E8BB&assignmentId=cbf18966-643e-411a-abba-c0191a9e65fe&projectId=54f8d589-66fc-4c65-830f-1dcc63bce8cc","","null","<div style=""display: flex; justify-content: center; align-items: center;"">
                    <img src=""images/causal/causal_series_8/causal_series_8_b.jpg"" style=""width: 300px; height: 300px;"" />
                  </div>","null","",""
"","","","","","html-keyboard-response","106","287817","0.0-76.0-2.0","413C151DBB0A4824A99120CED1C1E8BB","413C151DBB0A4824A99120CED1C1E8BB","cbf18966-643e-411a-abba-c0191a9e65fe","54f8d589-66fc-4c65-830f-1dcc63bce8cc","{""participantId"":""413C151DBB0A4824A99120CED1C1E8BB"",""assignmentId"":""cbf18966-643e-411a-abba-c0191a9e65fe"",""projectId"":""54f8d589-66fc-4c65-830f-1dcc63bce8cc""}","https://test12345.live/?participantId=413C151DBB0A4824A99120CED1C1E8BB&assignmentId=cbf18966-643e-411a-abba-c0191a9e65fe&projectId=54f8d589-66fc-4c65-830f-1dcc63bce8cc","","null","<div style=""display: flex; justify-content: center; align-items: center;"">
                    <img src=""images/causal/causal_series_8/causal_series_8_c.jpg"" style=""width: 300px; height: 300px;"" />
                  </div>","null","",""
"","","","","","html-keyboard-response","107","290820","0.0-76.0-3.0","413C151DBB0A4824A99120CED1C1E8BB","413C151DBB0A4824A99120CED1C1E8BB","cbf18966-643e-411a-abba-c0191a9e65fe","54f8d589-66fc-4c65-830f-1dcc63bce8cc","{""participantId"":""413C151DBB0A4824A99120CED1C1E8BB"",""assignmentId"":""cbf18966-643e-411a-abba-c0191a9e65fe"",""projectId"":""54f8d589-66fc-4c65-830f-1dcc63bce8cc""}","https://test12345.live/?participantId=413C151DBB0A4824A99120CED1C1E8BB&assignmentId=cbf18966-643e-411a-abba-c0191a9e65fe&projectId=54f8d589-66fc-4c65-830f-1dcc63bce8cc","","null","<div style=""display: flex; justify-content: center; align-items: center;"">
                    <img src=""images/causal/causal_series_8/causal_series_8_d.jpg"" style=""width: 300px; height: 300px;"" />
                  </div>","null","",""
"","","","","","html-button-response","108","292373","0.0-78.0","413C151DBB0A4824A99120CED1C1E8BB","413C151DBB0A4824A99120CED1C1E8BB","cbf18966-643e-411a-abba-c0191a9e65fe","54f8d589-66fc-4c65-830f-1dcc63bce8cc","{""participantId"":""413C151DBB0A4824A99120CED1C1E8BB"",""assignmentId"":""cbf18966-643e-411a-abba-c0191a9e65fe"",""projectId"":""54f8d589-66fc-4c65-830f-1dcc63bce8cc""}","https://test12345.live/?participantId=413C151DBB0A4824A99120CED1C1E8BB&assignmentId=cbf18966-643e-411a-abba-c0191a9e65fe&projectId=54f8d589-66fc-4c65-830f-1dcc63bce8cc","","1552","Was there a person in the picture?","1","",""
"","","","","","survey-likert","109","294142","0.0-79.0","413C151DBB0A4824A99120CED1C1E8BB","413C151DBB0A4824A99120CED1C1E8BB","cbf18966-643e-411a-abba-c0191a9e65fe","54f8d589-66fc-4c65-830f-1dcc63bce8cc","{""participantId"":""413C151DBB0A4824A99120CED1C1E8BB"",""assignmentId"":""cbf18966-643e-411a-abba-c0191a9e65fe"",""projectId"":""54f8d589-66fc-4c65-830f-1dcc63bce8cc""}","https://test12345.live/?participantId=413C151DBB0A4824A99120CED1C1E8BB&assignmentId=cbf18966-643e-411a-abba-c0191a9e65fe&projectId=54f8d589-66fc-4c65-830f-1dcc63bce8cc","","1768","","{""Q0"":3}","","[0]"
"","","","","","html-button-response","110","294941","0.0-80.0","413C151DBB0A4824A99120CED1C1E8BB","413C151DBB0A4824A99120CED1C1E8BB","cbf18966-643e-411a-abba-c0191a9e65fe","54f8d589-66fc-4c65-830f-1dcc63bce8cc","{""participantId"":""413C151DBB0A4824A99120CED1C1E8BB"",""assignmentId"":""cbf18966-643e-411a-abba-c0191a9e65fe"",""projectId"":""54f8d589-66fc-4c65-830f-1dcc63bce8cc""}","https://test12345.live/?participantId=413C151DBB0A4824A99120CED1C1E8BB&assignmentId=cbf18966-643e-411a-abba-c0191a9e65fe&projectId=54f8d589-66fc-4c65-830f-1dcc63bce8cc","","799","
    <div style=""display: flex; justify-content: center; align-items: center;"">
      <img src=""images/red_deck_2.png"" style=""width: 300px; height: 300px; margin-right: 10px;"" />
      <img src=""images/blue_deck_1.png"" style=""width: 300px; height: 300px;"" />
    </div>","1","1",""
"","","","","","html-keyboard-response","111","297943","0.0-82.0-0.0","413C151DBB0A4824A99120CED1C1E8BB","413C151DBB0A4824A99120CED1C1E8BB","cbf18966-643e-411a-abba-c0191a9e65fe","54f8d589-66fc-4c65-830f-1dcc63bce8cc","{""participantId"":""413C151DBB0A4824A99120CED1C1E8BB"",""assignmentId"":""cbf18966-643e-411a-abba-c0191a9e65fe"",""projectId"":""54f8d589-66fc-4c65-830f-1dcc63bce8cc""}","https://test12345.live/?participantId=413C151DBB0A4824A99120CED1C1E8BB&assignmentId=cbf18966-643e-411a-abba-c0191a9e65fe&projectId=54f8d589-66fc-4c65-830f-1dcc63bce8cc","","null","<div style=""display: flex; justify-content: center; align-items: center;"">
                    <img src=""images/semantic/semantic_series_13/semantic_series_13_a.jpg"" style=""width: 300px; height: 300px;"" />
                  </div>","null","",""
"","","","","","html-keyboard-response","112","300947","0.0-82.0-1.0","413C151DBB0A4824A99120CED1C1E8BB","413C151DBB0A4824A99120CED1C1E8BB","cbf18966-643e-411a-abba-c0191a9e65fe","54f8d589-66fc-4c65-830f-1dcc63bce8cc","{""participantId"":""413C151DBB0A4824A99120CED1C1E8BB"",""assignmentId"":""cbf18966-643e-411a-abba-c0191a9e65fe"",""projectId"":""54f8d589-66fc-4c65-830f-1dcc63bce8cc""}","https://test12345.live/?participantId=413C151DBB0A4824A99120CED1C1E8BB&assignmentId=cbf18966-643e-411a-abba-c0191a9e65fe&projectId=54f8d589-66fc-4c65-830f-1dcc63bce8cc","","null","<div style=""display: flex; justify-content: center; align-items: center;"">
                    <img src=""images/semantic/semantic_series_13/semantic_series_13_b.jpg"" style=""width: 300px; height: 300px;"" />
                  </div>","null","",""
"","","","","","html-keyboard-response","113","303959","0.0-82.0-2.0","413C151DBB0A4824A99120CED1C1E8BB","413C151DBB0A4824A99120CED1C1E8BB","cbf18966-643e-411a-abba-c0191a9e65fe","54f8d589-66fc-4c65-830f-1dcc63bce8cc","{""participantId"":""413C151DBB0A4824A99120CED1C1E8BB"",""assignmentId"":""cbf18966-643e-411a-abba-c0191a9e65fe"",""projectId"":""54f8d589-66fc-4c65-830f-1dcc63bce8cc""}","https://test12345.live/?participantId=413C151DBB0A4824A99120CED1C1E8BB&assignmentId=cbf18966-643e-411a-abba-c0191a9e65fe&projectId=54f8d589-66fc-4c65-830f-1dcc63bce8cc","","null","<div style=""display: flex; justify-content: center; align-items: center;"">
                    <img src=""images/semantic/semantic_series_13/semantic_series_13_c.jpg"" style=""width: 300px; height: 300px;"" />
                  </div>","null","",""
"","","","","","html-keyboard-response","114","306973","0.0-82.0-3.0","413C151DBB0A4824A99120CED1C1E8BB","413C151DBB0A4824A99120CED1C1E8BB","cbf18966-643e-411a-abba-c0191a9e65fe","54f8d589-66fc-4c65-830f-1dcc63bce8cc","{""participantId"":""413C151DBB0A4824A99120CED1C1E8BB"",""assignmentId"":""cbf18966-643e-411a-abba-c0191a9e65fe"",""projectId"":""54f8d589-66fc-4c65-830f-1dcc63bce8cc""}","https://test12345.live/?participantId=413C151DBB0A4824A99120CED1C1E8BB&assignmentId=cbf18966-643e-411a-abba-c0191a9e65fe&projectId=54f8d589-66fc-4c65-830f-1dcc63bce8cc","","null","<div style=""display: flex; justify-content: center; align-items: center;"">
                    <img src=""images/semantic/semantic_series_13/semantic_series_13_d.jpg"" style=""width: 300px; height: 300px;"" />
                  </div>","null","",""
"","","","","","html-button-response","115","308661","0.0-83.0","413C151DBB0A4824A99120CED1C1E8BB","413C151DBB0A4824A99120CED1C1E8BB","cbf18966-643e-411a-abba-c0191a9e65fe","54f8d589-66fc-4c65-830f-1dcc63bce8cc","{""participantId"":""413C151DBB0A4824A99120CED1C1E8BB"",""assignmentId"":""cbf18966-643e-411a-abba-c0191a9e65fe"",""projectId"":""54f8d589-66fc-4c65-830f-1dcc63bce8cc""}","https://test12345.live/?participantId=413C151DBB0A4824A99120CED1C1E8BB&assignmentId=cbf18966-643e-411a-abba-c0191a9e65fe&projectId=54f8d589-66fc-4c65-830f-1dcc63bce8cc","","1687","Was there a person in the picture?","0","",""
"","","","","","survey-likert","116","309813","0.0-84.0","413C151DBB0A4824A99120CED1C1E8BB","413C151DBB0A4824A99120CED1C1E8BB","cbf18966-643e-411a-abba-c0191a9e65fe","54f8d589-66fc-4c65-830f-1dcc63bce8cc","{""participantId"":""413C151DBB0A4824A99120CED1C1E8BB"",""assignmentId"":""cbf18966-643e-411a-abba-c0191a9e65fe"",""projectId"":""54f8d589-66fc-4c65-830f-1dcc63bce8cc""}","https://test12345.live/?participantId=413C151DBB0A4824A99120CED1C1E8BB&assignmentId=cbf18966-643e-411a-abba-c0191a9e65fe&projectId=54f8d589-66fc-4c65-830f-1dcc63bce8cc","","1152","","{""Q0"":2}","","[0]"
"","","","","","html-button-response","117","310405","0.0-85.0","413C151DBB0A4824A99120CED1C1E8BB","413C151DBB0A4824A99120CED1C1E8BB","cbf18966-643e-411a-abba-c0191a9e65fe","54f8d589-66fc-4c65-830f-1dcc63bce8cc","{""participantId"":""413C151DBB0A4824A99120CED1C1E8BB"",""assignmentId"":""cbf18966-643e-411a-abba-c0191a9e65fe"",""projectId"":""54f8d589-66fc-4c65-830f-1dcc63bce8cc""}","https://test12345.live/?participantId=413C151DBB0A4824A99120CED1C1E8BB&assignmentId=cbf18966-643e-411a-abba-c0191a9e65fe&projectId=54f8d589-66fc-4c65-830f-1dcc63bce8cc","","592","
    <div style=""display: flex; justify-content: center; align-items: center;"">
      <img src=""images/red_deck_2.png"" style=""width: 300px; height: 300px; margin-right: 10px;"" />
      <img src=""images/blue_deck_1.png"" style=""width: 300px; height: 300px;"" />
    </div>","0","0",""
"","","","","","html-keyboard-response","118","313412","0.0-86.0-0.0","413C151DBB0A4824A99120CED1C1E8BB","413C151DBB0A4824A99120CED1C1E8BB","cbf18966-643e-411a-abba-c0191a9e65fe","54f8d589-66fc-4c65-830f-1dcc63bce8cc","{""participantId"":""413C151DBB0A4824A99120CED1C1E8BB"",""assignmentId"":""cbf18966-643e-411a-abba-c0191a9e65fe"",""projectId"":""54f8d589-66fc-4c65-830f-1dcc63bce8cc""}","https://test12345.live/?participantId=413C151DBB0A4824A99120CED1C1E8BB&assignmentId=cbf18966-643e-411a-abba-c0191a9e65fe&projectId=54f8d589-66fc-4c65-830f-1dcc63bce8cc","","null","<div style=""display: flex; justify-content: center; align-items: center;"">
                    <img src=""images/causal/causal_series_5/causal_series_5_a.jpg"" style=""width: 300px; height: 300px;"" />
                  </div>","null","",""
"","","","","","html-keyboard-response","119","316426","0.0-86.0-1.0","413C151DBB0A4824A99120CED1C1E8BB","413C151DBB0A4824A99120CED1C1E8BB","cbf18966-643e-411a-abba-c0191a9e65fe","54f8d589-66fc-4c65-830f-1dcc63bce8cc","{""participantId"":""413C151DBB0A4824A99120CED1C1E8BB"",""assignmentId"":""cbf18966-643e-411a-abba-c0191a9e65fe"",""projectId"":""54f8d589-66fc-4c65-830f-1dcc63bce8cc""}","https://test12345.live/?participantId=413C151DBB0A4824A99120CED1C1E8BB&assignmentId=cbf18966-643e-411a-abba-c0191a9e65fe&projectId=54f8d589-66fc-4c65-830f-1dcc63bce8cc","","null","<div style=""display: flex; justify-content: center; align-items: center;"">
                    <img src=""images/causal/causal_series_5/causal_series_5_b.jpg"" style=""width: 300px; height: 300px;"" />
                  </div>","null","",""
"","","","","","html-keyboard-response","120","319432","0.0-86.0-2.0","413C151DBB0A4824A99120CED1C1E8BB","413C151DBB0A4824A99120CED1C1E8BB","cbf18966-643e-411a-abba-c0191a9e65fe","54f8d589-66fc-4c65-830f-1dcc63bce8cc","{""participantId"":""413C151DBB0A4824A99120CED1C1E8BB"",""assignmentId"":""cbf18966-643e-411a-abba-c0191a9e65fe"",""projectId"":""54f8d589-66fc-4c65-830f-1dcc63bce8cc""}","https://test12345.live/?participantId=413C151DBB0A4824A99120CED1C1E8BB&assignmentId=cbf18966-643e-411a-abba-c0191a9e65fe&projectId=54f8d589-66fc-4c65-830f-1dcc63bce8cc","","null","<div style=""display: flex; justify-content: center; align-items: center;"">
                    <img src=""images/causal/causal_series_5/causal_series_5_c.jpg"" style=""width: 300px; height: 300px;"" />
                  </div>","null","",""
"","","","","","html-keyboard-response","121","322433","0.0-86.0-3.0","413C151DBB0A4824A99120CED1C1E8BB","413C151DBB0A4824A99120CED1C1E8BB","cbf18966-643e-411a-abba-c0191a9e65fe","54f8d589-66fc-4c65-830f-1dcc63bce8cc","{""participantId"":""413C151DBB0A4824A99120CED1C1E8BB"",""assignmentId"":""cbf18966-643e-411a-abba-c0191a9e65fe"",""projectId"":""54f8d589-66fc-4c65-830f-1dcc63bce8cc""}","https://test12345.live/?participantId=413C151DBB0A4824A99120CED1C1E8BB&assignmentId=cbf18966-643e-411a-abba-c0191a9e65fe&projectId=54f8d589-66fc-4c65-830f-1dcc63bce8cc","","null","<div style=""display: flex; justify-content: center; align-items: center;"">
                    <img src=""images/causal/causal_series_5/causal_series_5_d.jpg"" style=""width: 300px; height: 300px;"" />
                  </div>","null","",""
"","","","","","html-button-response","122","323022","0.0-88.0","413C151DBB0A4824A99120CED1C1E8BB","413C151DBB0A4824A99120CED1C1E8BB","cbf18966-643e-411a-abba-c0191a9e65fe","54f8d589-66fc-4c65-830f-1dcc63bce8cc","{""participantId"":""413C151DBB0A4824A99120CED1C1E8BB"",""assignmentId"":""cbf18966-643e-411a-abba-c0191a9e65fe"",""projectId"":""54f8d589-66fc-4c65-830f-1dcc63bce8cc""}","https://test12345.live/?participantId=413C151DBB0A4824A99120CED1C1E8BB&assignmentId=cbf18966-643e-411a-abba-c0191a9e65fe&projectId=54f8d589-66fc-4c65-830f-1dcc63bce8cc","","589","Was there a person in the picture?","0","",""
"","","","","","survey-likert","123","324605","0.0-89.0","413C151DBB0A4824A99120CED1C1E8BB","413C151DBB0A4824A99120CED1C1E8BB","cbf18966-643e-411a-abba-c0191a9e65fe","54f8d589-66fc-4c65-830f-1dcc63bce8cc","{""participantId"":""413C151DBB0A4824A99120CED1C1E8BB"",""assignmentId"":""cbf18966-643e-411a-abba-c0191a9e65fe"",""projectId"":""54f8d589-66fc-4c65-830f-1dcc63bce8cc""}","https://test12345.live/?participantId=413C151DBB0A4824A99120CED1C1E8BB&assignmentId=cbf18966-643e-411a-abba-c0191a9e65fe&projectId=54f8d589-66fc-4c65-830f-1dcc63bce8cc","","1582","","{""Q0"":3}","","[0]"
"","","","","","html-button-response","124","325309","0.0-90.0","413C151DBB0A4824A99120CED1C1E8BB","413C151DBB0A4824A99120CED1C1E8BB","cbf18966-643e-411a-abba-c0191a9e65fe","54f8d589-66fc-4c65-830f-1dcc63bce8cc","{""participantId"":""413C151DBB0A4824A99120CED1C1E8BB"",""assignmentId"":""cbf18966-643e-411a-abba-c0191a9e65fe"",""projectId"":""54f8d589-66fc-4c65-830f-1dcc63bce8cc""}","https://test12345.live/?participantId=413C151DBB0A4824A99120CED1C1E8BB&assignmentId=cbf18966-643e-411a-abba-c0191a9e65fe&projectId=54f8d589-66fc-4c65-830f-1dcc63bce8cc","","703","
    <div style=""display: flex; justify-content: center; align-items: center;"">
      <img src=""images/red_deck_2.png"" style=""width: 300px; height: 300px; margin-right: 10px;"" />
      <img src=""images/blue_deck_1.png"" style=""width: 300px; height: 300px;"" />
    </div>","0","0",""
"","","","","","html-keyboard-response","125","328323","0.0-91.0-0.0","413C151DBB0A4824A99120CED1C1E8BB","413C151DBB0A4824A99120CED1C1E8BB","cbf18966-643e-411a-abba-c0191a9e65fe","54f8d589-66fc-4c65-830f-1dcc63bce8cc","{""participantId"":""413C151DBB0A4824A99120CED1C1E8BB"",""assignmentId"":""cbf18966-643e-411a-abba-c0191a9e65fe"",""projectId"":""54f8d589-66fc-4c65-830f-1dcc63bce8cc""}","https://test12345.live/?participantId=413C151DBB0A4824A99120CED1C1E8BB&assignmentId=cbf18966-643e-411a-abba-c0191a9e65fe&projectId=54f8d589-66fc-4c65-830f-1dcc63bce8cc","","null","<div style=""display: flex; justify-content: center; align-items: center;"">
                    <img src=""images/causal/causal_series_3/causal_series_3_a.jpg"" style=""width: 300px; height: 300px;"" />
                  </div>","null","",""
"","","","","","html-keyboard-response","126","331333","0.0-91.0-1.0","413C151DBB0A4824A99120CED1C1E8BB","413C151DBB0A4824A99120CED1C1E8BB","cbf18966-643e-411a-abba-c0191a9e65fe","54f8d589-66fc-4c65-830f-1dcc63bce8cc","{""participantId"":""413C151DBB0A4824A99120CED1C1E8BB"",""assignmentId"":""cbf18966-643e-411a-abba-c0191a9e65fe"",""projectId"":""54f8d589-66fc-4c65-830f-1dcc63bce8cc""}","https://test12345.live/?participantId=413C151DBB0A4824A99120CED1C1E8BB&assignmentId=cbf18966-643e-411a-abba-c0191a9e65fe&projectId=54f8d589-66fc-4c65-830f-1dcc63bce8cc","","null","<div style=""display: flex; justify-content: center; align-items: center;"">
                    <img src=""images/causal/causal_series_3/causal_series_3_b.jpg"" style=""width: 300px; height: 300px;"" />
                  </div>","null","",""
"","","","","","html-keyboard-response","127","334340","0.0-91.0-2.0","413C151DBB0A4824A99120CED1C1E8BB","413C151DBB0A4824A99120CED1C1E8BB","cbf18966-643e-411a-abba-c0191a9e65fe","54f8d589-66fc-4c65-830f-1dcc63bce8cc","{""participantId"":""413C151DBB0A4824A99120CED1C1E8BB"",""assignmentId"":""cbf18966-643e-411a-abba-c0191a9e65fe"",""projectId"":""54f8d589-66fc-4c65-830f-1dcc63bce8cc""}","https://test12345.live/?participantId=413C151DBB0A4824A99120CED1C1E8BB&assignmentId=cbf18966-643e-411a-abba-c0191a9e65fe&projectId=54f8d589-66fc-4c65-830f-1dcc63bce8cc","","null","<div style=""display: flex; justify-content: center; align-items: center;"">
                    <img src=""images/causal/causal_series_3/causal_series_3_c.jpg"" style=""width: 300px; height: 300px;"" />
                  </div>","null","",""
"","","","","","html-keyboard-response","128","337352","0.0-91.0-3.0","413C151DBB0A4824A99120CED1C1E8BB","413C151DBB0A4824A99120CED1C1E8BB","cbf18966-643e-411a-abba-c0191a9e65fe","54f8d589-66fc-4c65-830f-1dcc63bce8cc","{""participantId"":""413C151DBB0A4824A99120CED1C1E8BB"",""assignmentId"":""cbf18966-643e-411a-abba-c0191a9e65fe"",""projectId"":""54f8d589-66fc-4c65-830f-1dcc63bce8cc""}","https://test12345.live/?participantId=413C151DBB0A4824A99120CED1C1E8BB&assignmentId=cbf18966-643e-411a-abba-c0191a9e65fe&projectId=54f8d589-66fc-4c65-830f-1dcc63bce8cc","","null","<div style=""display: flex; justify-content: center; align-items: center;"">
                    <img src=""images/causal/causal_series_3/causal_series_3_d.jpg"" style=""width: 300px; height: 300px;"" />
                  </div>","null","",""
"","","","","","html-button-response","129","338301","0.0-93.0","413C151DBB0A4824A99120CED1C1E8BB","413C151DBB0A4824A99120CED1C1E8BB","cbf18966-643e-411a-abba-c0191a9e65fe","54f8d589-66fc-4c65-830f-1dcc63bce8cc","{""participantId"":""413C151DBB0A4824A99120CED1C1E8BB"",""assignmentId"":""cbf18966-643e-411a-abba-c0191a9e65fe"",""projectId"":""54f8d589-66fc-4c65-830f-1dcc63bce8cc""}","https://test12345.live/?participantId=413C151DBB0A4824A99120CED1C1E8BB&assignmentId=cbf18966-643e-411a-abba-c0191a9e65fe&projectId=54f8d589-66fc-4c65-830f-1dcc63bce8cc","","948","Was there a person in the picture?","0","",""
"","","","","","survey-likert","130","340382","0.0-94.0","413C151DBB0A4824A99120CED1C1E8BB","413C151DBB0A4824A99120CED1C1E8BB","cbf18966-643e-411a-abba-c0191a9e65fe","54f8d589-66fc-4c65-830f-1dcc63bce8cc","{""participantId"":""413C151DBB0A4824A99120CED1C1E8BB"",""assignmentId"":""cbf18966-643e-411a-abba-c0191a9e65fe"",""projectId"":""54f8d589-66fc-4c65-830f-1dcc63bce8cc""}","https://test12345.live/?participantId=413C151DBB0A4824A99120CED1C1E8BB&assignmentId=cbf18966-643e-411a-abba-c0191a9e65fe&projectId=54f8d589-66fc-4c65-830f-1dcc63bce8cc","","2080","","{""Q0"":2}","","[0]"
"","","","","","survey-text","131","364766","0.0-95.0","413C151DBB0A4824A99120CED1C1E8BB","413C151DBB0A4824A99120CED1C1E8BB","cbf18966-643e-411a-abba-c0191a9e65fe","54f8d589-66fc-4c65-830f-1dcc63bce8cc","{""participantId"":""413C151DBB0A4824A99120CED1C1E8BB"",""assignmentId"":""cbf18966-643e-411a-abba-c0191a9e65fe"",""projectId"":""54f8d589-66fc-4c65-830f-1dcc63bce8cc""}","https://test12345.live/?participantId=413C151DBB0A4824A99120CED1C1E8BB&assignmentId=cbf18966-643e-411a-abba-c0191a9e65fe&projectId=54f8d589-66fc-4c65-830f-1dcc63bce8cc","","24382","","{""Q0"":""One set was people doing certain activities and the other were cartoons doing activities.""}","",""
