"success","timeout","failed_images","failed_audio","failed_video","trial_type","trial_index","time_elapsed","internal_node_id","view_history","rt","stimulus","response","firstImageNumber","secondImageNumber","response_made"
"true","false","[]","[]","[]","preload","0","4155","0.0-0.0","","","","","","",""
"","","","","","instructions","1","225619","0.0-1.0","[{""page_index"":0,""viewing_time"":221462}]","221462","","","","",""
"","","","","","html-button-response","2","242610","0.0-2.0","","16990","
          <div style=""display: flex; justify-content: center; align-items: center;"">
            <!-- Event 1 on the left -->
            <div style=""text-align: center; margin-right: 20px;"">
              <p style=""font-size: 24px; font-weight: bold;"">Event 1</p>
              <img src=""images/causal/physical_activity_semantic/physical_activity_semantic_5.png"" style=""width: 300px; height: auto;"">
            </div>
            <!-- Event 2 on the right -->
            <div style=""text-align: center; margin-left: 20px;"">
              <p style=""font-size: 24px; font-weight: bold;"">Event 2</p>
              <img src=""images/causal/physical_activity_semantic/physical_activity_semantic_7.png"" style=""width: 300px; height: auto;"">
            </div>
          </div>
          <p style=""text-align: center; margin-top: 20px;"">Did Event 1 happen before Event 2?</p>","0","5","7","true"
"","","","","","html-button-response","3","251607","0.0-3.0","","8996","
          <div style=""display: flex; justify-content: center; align-items: center;"">
            <!-- Event 1 on the left -->
            <div style=""text-align: center; margin-right: 20px;"">
              <p style=""font-size: 24px; font-weight: bold;"">Event 1</p>
              <img src=""images/causal/physical_activity_semantic/physical_activity_semantic_7.png"" style=""width: 300px; height: auto;"">
            </div>
            <!-- Event 2 on the right -->
            <div style=""text-align: center; margin-left: 20px;"">
              <p style=""font-size: 24px; font-weight: bold;"">Event 2</p>
              <img src=""images/causal/physical_activity_semantic/physical_activity_semantic_3.png"" style=""width: 300px; height: auto;"">
            </div>
          </div>
          <p style=""text-align: center; margin-top: 20px;"">Did Event 1 happen before Event 2?</p>","1","7","3","true"
"","","","","","html-button-response","4","257824","0.0-4.0","","6216","
          <div style=""display: flex; justify-content: center; align-items: center;"">
            <!-- Event 1 on the left -->
            <div style=""text-align: center; margin-right: 20px;"">
              <p style=""font-size: 24px; font-weight: bold;"">Event 1</p>
              <img src=""images/causal/physical_activity_semantic/physical_activity_semantic_10.png"" style=""width: 300px; height: auto;"">
            </div>
            <!-- Event 2 on the right -->
            <div style=""text-align: center; margin-left: 20px;"">
              <p style=""font-size: 24px; font-weight: bold;"">Event 2</p>
              <img src=""images/causal/physical_activity_semantic/physical_activity_semantic_4.png"" style=""width: 300px; height: auto;"">
            </div>
          </div>
          <p style=""text-align: center; margin-top: 20px;"">Did Event 1 happen before Event 2?</p>","1","10","4","true"
"","","","","","html-button-response","5","264345","0.0-5.0","","6521","
          <div style=""display: flex; justify-content: center; align-items: center;"">
            <!-- Event 1 on the left -->
            <div style=""text-align: center; margin-right: 20px;"">
              <p style=""font-size: 24px; font-weight: bold;"">Event 1</p>
              <img src=""images/causal/physical_activity_semantic/physical_activity_semantic_5.png"" style=""width: 300px; height: auto;"">
            </div>
            <!-- Event 2 on the right -->
            <div style=""text-align: center; margin-left: 20px;"">
              <p style=""font-size: 24px; font-weight: bold;"">Event 2</p>
              <img src=""images/causal/physical_activity_semantic/physical_activity_semantic_4.png"" style=""width: 300px; height: auto;"">
            </div>
          </div>
          <p style=""text-align: center; margin-top: 20px;"">Did Event 1 happen before Event 2?</p>","1","5","4","true"
"","","","","","html-button-response","6","272608","0.0-6.0","","8261","
          <div style=""display: flex; justify-content: center; align-items: center;"">
            <!-- Event 1 on the left -->
            <div style=""text-align: center; margin-right: 20px;"">
              <p style=""font-size: 24px; font-weight: bold;"">Event 1</p>
              <img src=""images/causal/physical_activity_semantic/physical_activity_semantic_2.png"" style=""width: 300px; height: auto;"">
            </div>
            <!-- Event 2 on the right -->
            <div style=""text-align: center; margin-left: 20px;"">
              <p style=""font-size: 24px; font-weight: bold;"">Event 2</p>
              <img src=""images/causal/physical_activity_semantic/physical_activity_semantic_3.png"" style=""width: 300px; height: auto;"">
            </div>
          </div>
          <p style=""text-align: center; margin-top: 20px;"">Did Event 1 happen before Event 2?</p>","0","2","3","true"
"","","","","","html-button-response","7","278117","0.0-7.0","","5509","
          <div style=""display: flex; justify-content: center; align-items: center;"">
            <!-- Event 1 on the left -->
            <div style=""text-align: center; margin-right: 20px;"">
              <p style=""font-size: 24px; font-weight: bold;"">Event 1</p>
              <img src=""images/causal/physical_activity_semantic/physical_activity_semantic_6.png"" style=""width: 300px; height: auto;"">
            </div>
            <!-- Event 2 on the right -->
            <div style=""text-align: center; margin-left: 20px;"">
              <p style=""font-size: 24px; font-weight: bold;"">Event 2</p>
              <img src=""images/causal/physical_activity_semantic/physical_activity_semantic_4.png"" style=""width: 300px; height: auto;"">
            </div>
          </div>
          <p style=""text-align: center; margin-top: 20px;"">Did Event 1 happen before Event 2?</p>","1","6","4","true"
"","","","","","html-button-response","8","283578","0.0-8.0","","5459","
          <div style=""display: flex; justify-content: center; align-items: center;"">
            <!-- Event 1 on the left -->
            <div style=""text-align: center; margin-right: 20px;"">
              <p style=""font-size: 24px; font-weight: bold;"">Event 1</p>
              <img src=""images/causal/physical_activity_semantic/physical_activity_semantic_9.png"" style=""width: 300px; height: auto;"">
            </div>
            <!-- Event 2 on the right -->
            <div style=""text-align: center; margin-left: 20px;"">
              <p style=""font-size: 24px; font-weight: bold;"">Event 2</p>
              <img src=""images/causal/physical_activity_semantic/physical_activity_semantic_6.png"" style=""width: 300px; height: auto;"">
            </div>
          </div>
          <p style=""text-align: center; margin-top: 20px;"">Did Event 1 happen before Event 2?</p>","1","9","6","true"
"","","","","","html-button-response","9","289711","0.0-9.0","","6132","
          <div style=""display: flex; justify-content: center; align-items: center;"">
            <!-- Event 1 on the left -->
            <div style=""text-align: center; margin-right: 20px;"">
              <p style=""font-size: 24px; font-weight: bold;"">Event 1</p>
              <img src=""images/causal/physical_activity_semantic/physical_activity_semantic_5.png"" style=""width: 300px; height: auto;"">
            </div>
            <!-- Event 2 on the right -->
            <div style=""text-align: center; margin-left: 20px;"">
              <p style=""font-size: 24px; font-weight: bold;"">Event 2</p>
              <img src=""images/causal/physical_activity_semantic/physical_activity_semantic_9.png"" style=""width: 300px; height: auto;"">
            </div>
          </div>
          <p style=""text-align: center; margin-top: 20px;"">Did Event 1 happen before Event 2?</p>","0","5","9","true"
"","","","","","html-button-response","10","295505","0.0-10.0","","5793","
          <div style=""display: flex; justify-content: center; align-items: center;"">
            <!-- Event 1 on the left -->
            <div style=""text-align: center; margin-right: 20px;"">
              <p style=""font-size: 24px; font-weight: bold;"">Event 1</p>
              <img src=""images/causal/physical_activity_semantic/physical_activity_semantic_4.png"" style=""width: 300px; height: auto;"">
            </div>
            <!-- Event 2 on the right -->
            <div style=""text-align: center; margin-left: 20px;"">
              <p style=""font-size: 24px; font-weight: bold;"">Event 2</p>
              <img src=""images/causal/physical_activity_semantic/physical_activity_semantic_3.png"" style=""width: 300px; height: auto;"">
            </div>
          </div>
          <p style=""text-align: center; margin-top: 20px;"">Did Event 1 happen before Event 2?</p>","1","4","3","true"
"","","","","","html-button-response","11","305668","0.0-11.0","","10162","
          <div style=""display: flex; justify-content: center; align-items: center;"">
            <!-- Event 1 on the left -->
            <div style=""text-align: center; margin-right: 20px;"">
              <p style=""font-size: 24px; font-weight: bold;"">Event 1</p>
              <img src=""images/causal/physical_activity_semantic/physical_activity_semantic_9.png"" style=""width: 300px; height: auto;"">
            </div>
            <!-- Event 2 on the right -->
            <div style=""text-align: center; margin-left: 20px;"">
              <p style=""font-size: 24px; font-weight: bold;"">Event 2</p>
              <img src=""images/causal/physical_activity_semantic/physical_activity_semantic_8.png"" style=""width: 300px; height: auto;"">
            </div>
          </div>
          <p style=""text-align: center; margin-top: 20px;"">Did Event 1 happen before Event 2?</p>","1","9","8","true"
"","","","","","html-button-response","12","312179","0.0-12.0","","6510","
          <div style=""display: flex; justify-content: center; align-items: center;"">
            <!-- Event 1 on the left -->
            <div style=""text-align: center; margin-right: 20px;"">
              <p style=""font-size: 24px; font-weight: bold;"">Event 1</p>
              <img src=""images/causal/physical_activity_semantic/physical_activity_semantic_6.png"" style=""width: 300px; height: auto;"">
            </div>
            <!-- Event 2 on the right -->
            <div style=""text-align: center; margin-left: 20px;"">
              <p style=""font-size: 24px; font-weight: bold;"">Event 2</p>
              <img src=""images/causal/physical_activity_semantic/physical_activity_semantic_8.png"" style=""width: 300px; height: auto;"">
            </div>
          </div>
          <p style=""text-align: center; margin-top: 20px;"">Did Event 1 happen before Event 2?</p>","0","6","8","true"
"","","","","","html-button-response","13","318244","0.0-13.0","","6064","
          <div style=""display: flex; justify-content: center; align-items: center;"">
            <!-- Event 1 on the left -->
            <div style=""text-align: center; margin-right: 20px;"">
              <p style=""font-size: 24px; font-weight: bold;"">Event 1</p>
              <img src=""images/causal/physical_activity_semantic/physical_activity_semantic_8.png"" style=""width: 300px; height: auto;"">
            </div>
            <!-- Event 2 on the right -->
            <div style=""text-align: center; margin-left: 20px;"">
              <p style=""font-size: 24px; font-weight: bold;"">Event 2</p>
              <img src=""images/causal/physical_activity_semantic/physical_activity_semantic_3.png"" style=""width: 300px; height: auto;"">
            </div>
          </div>
          <p style=""text-align: center; margin-top: 20px;"">Did Event 1 happen before Event 2?</p>","1","8","3","true"
"","","","","","html-button-response","14","324021","0.0-14.0","","5776","
          <div style=""display: flex; justify-content: center; align-items: center;"">
            <!-- Event 1 on the left -->
            <div style=""text-align: center; margin-right: 20px;"">
              <p style=""font-size: 24px; font-weight: bold;"">Event 1</p>
              <img src=""images/causal/physical_activity_semantic/physical_activity_semantic_8.png"" style=""width: 300px; height: auto;"">
            </div>
            <!-- Event 2 on the right -->
            <div style=""text-align: center; margin-left: 20px;"">
              <p style=""font-size: 24px; font-weight: bold;"">Event 2</p>
              <img src=""images/causal/physical_activity_semantic/physical_activity_semantic_7.png"" style=""width: 300px; height: auto;"">
            </div>
          </div>
          <p style=""text-align: center; margin-top: 20px;"">Did Event 1 happen before Event 2?</p>","1","8","7","true"
"","","","","","html-button-response","15","330850","0.0-15.0","","6828","
          <div style=""display: flex; justify-content: center; align-items: center;"">
            <!-- Event 1 on the left -->
            <div style=""text-align: center; margin-right: 20px;"">
              <p style=""font-size: 24px; font-weight: bold;"">Event 1</p>
              <img src=""images/causal/physical_activity_semantic/physical_activity_semantic_8.png"" style=""width: 300px; height: auto;"">
            </div>
            <!-- Event 2 on the right -->
            <div style=""text-align: center; margin-left: 20px;"">
              <p style=""font-size: 24px; font-weight: bold;"">Event 2</p>
              <img src=""images/causal/physical_activity_semantic/physical_activity_semantic_1.png"" style=""width: 300px; height: auto;"">
            </div>
          </div>
          <p style=""text-align: center; margin-top: 20px;"">Did Event 1 happen before Event 2?</p>","1","8","1","true"
"","","","","","html-button-response","16","336441","0.0-16.0","","5589","
          <div style=""display: flex; justify-content: center; align-items: center;"">
            <!-- Event 1 on the left -->
            <div style=""text-align: center; margin-right: 20px;"">
              <p style=""font-size: 24px; font-weight: bold;"">Event 1</p>
              <img src=""images/causal/physical_activity_semantic/physical_activity_semantic_3.png"" style=""width: 300px; height: auto;"">
            </div>
            <!-- Event 2 on the right -->
            <div style=""text-align: center; margin-left: 20px;"">
              <p style=""font-size: 24px; font-weight: bold;"">Event 2</p>
              <img src=""images/causal/physical_activity_semantic/physical_activity_semantic_9.png"" style=""width: 300px; height: auto;"">
            </div>
          </div>
          <p style=""text-align: center; margin-top: 20px;"">Did Event 1 happen before Event 2?</p>","0","3","9","true"
"","","","","","html-button-response","17","342031","0.0-17.0","","5589","
          <div style=""display: flex; justify-content: center; align-items: center;"">
            <!-- Event 1 on the left -->
            <div style=""text-align: center; margin-right: 20px;"">
              <p style=""font-size: 24px; font-weight: bold;"">Event 1</p>
              <img src=""images/causal/physical_activity_semantic/physical_activity_semantic_6.png"" style=""width: 300px; height: auto;"">
            </div>
            <!-- Event 2 on the right -->
            <div style=""text-align: center; margin-left: 20px;"">
              <p style=""font-size: 24px; font-weight: bold;"">Event 2</p>
              <img src=""images/causal/physical_activity_semantic/physical_activity_semantic_1.png"" style=""width: 300px; height: auto;"">
            </div>
          </div>
          <p style=""text-align: center; margin-top: 20px;"">Did Event 1 happen before Event 2?</p>","1","6","1","true"
"","","","","","html-button-response","18","354242","0.0-18.0","","12211","
          <div style=""display: flex; justify-content: center; align-items: center;"">
            <!-- Event 1 on the left -->
            <div style=""text-align: center; margin-right: 20px;"">
              <p style=""font-size: 24px; font-weight: bold;"">Event 1</p>
              <img src=""images/causal/physical_activity_semantic/physical_activity_semantic_5.png"" style=""width: 300px; height: auto;"">
            </div>
            <!-- Event 2 on the right -->
            <div style=""text-align: center; margin-left: 20px;"">
              <p style=""font-size: 24px; font-weight: bold;"">Event 2</p>
              <img src=""images/causal/physical_activity_semantic/physical_activity_semantic_10.png"" style=""width: 300px; height: auto;"">
            </div>
          </div>
          <p style=""text-align: center; margin-top: 20px;"">Did Event 1 happen before Event 2?</p>","0","5","10","true"
"","","","","","html-button-response","19","360361","0.0-19.0","","6117","
          <div style=""display: flex; justify-content: center; align-items: center;"">
            <!-- Event 1 on the left -->
            <div style=""text-align: center; margin-right: 20px;"">
              <p style=""font-size: 24px; font-weight: bold;"">Event 1</p>
              <img src=""images/causal/physical_activity_semantic/physical_activity_semantic_5.png"" style=""width: 300px; height: auto;"">
            </div>
            <!-- Event 2 on the right -->
            <div style=""text-align: center; margin-left: 20px;"">
              <p style=""font-size: 24px; font-weight: bold;"">Event 2</p>
              <img src=""images/causal/physical_activity_semantic/physical_activity_semantic_2.png"" style=""width: 300px; height: auto;"">
            </div>
          </div>
          <p style=""text-align: center; margin-top: 20px;"">Did Event 1 happen before Event 2?</p>","1","5","2","true"
"","","","","","html-button-response","20","365976","0.0-20.0","","5614","
          <div style=""display: flex; justify-content: center; align-items: center;"">
            <!-- Event 1 on the left -->
            <div style=""text-align: center; margin-right: 20px;"">
              <p style=""font-size: 24px; font-weight: bold;"">Event 1</p>
              <img src=""images/causal/physical_activity_semantic/physical_activity_semantic_2.png"" style=""width: 300px; height: auto;"">
            </div>
            <!-- Event 2 on the right -->
            <div style=""text-align: center; margin-left: 20px;"">
              <p style=""font-size: 24px; font-weight: bold;"">Event 2</p>
              <img src=""images/causal/physical_activity_semantic/physical_activity_semantic_9.png"" style=""width: 300px; height: auto;"">
            </div>
          </div>
          <p style=""text-align: center; margin-top: 20px;"">Did Event 1 happen before Event 2?</p>","0","2","9","true"
"","","","","","html-button-response","21","371811","0.0-21.0","","5834","
          <div style=""display: flex; justify-content: center; align-items: center;"">
            <!-- Event 1 on the left -->
            <div style=""text-align: center; margin-right: 20px;"">
              <p style=""font-size: 24px; font-weight: bold;"">Event 1</p>
              <img src=""images/causal/physical_activity_semantic/physical_activity_semantic_4.png"" style=""width: 300px; height: auto;"">
            </div>
            <!-- Event 2 on the right -->
            <div style=""text-align: center; margin-left: 20px;"">
              <p style=""font-size: 24px; font-weight: bold;"">Event 2</p>
              <img src=""images/causal/physical_activity_semantic/physical_activity_semantic_2.png"" style=""width: 300px; height: auto;"">
            </div>
          </div>
          <p style=""text-align: center; margin-top: 20px;"">Did Event 1 happen before Event 2?</p>","1","4","2","true"
"","","","","","html-button-response","22","377272","0.0-22.0","","5460","
          <div style=""display: flex; justify-content: center; align-items: center;"">
            <!-- Event 1 on the left -->
            <div style=""text-align: center; margin-right: 20px;"">
              <p style=""font-size: 24px; font-weight: bold;"">Event 1</p>
              <img src=""images/causal/physical_activity_semantic/physical_activity_semantic_3.png"" style=""width: 300px; height: auto;"">
            </div>
            <!-- Event 2 on the right -->
            <div style=""text-align: center; margin-left: 20px;"">
              <p style=""font-size: 24px; font-weight: bold;"">Event 2</p>
              <img src=""images/causal/physical_activity_semantic/physical_activity_semantic_10.png"" style=""width: 300px; height: auto;"">
            </div>
          </div>
          <p style=""text-align: center; margin-top: 20px;"">Did Event 1 happen before Event 2?</p>","0","3","10","true"
"","","","","","html-button-response","23","383022","0.0-23.0","","5748","
          <div style=""display: flex; justify-content: center; align-items: center;"">
            <!-- Event 1 on the left -->
            <div style=""text-align: center; margin-right: 20px;"">
              <p style=""font-size: 24px; font-weight: bold;"">Event 1</p>
              <img src=""images/causal/physical_activity_semantic/physical_activity_semantic_8.png"" style=""width: 300px; height: auto;"">
            </div>
            <!-- Event 2 on the right -->
            <div style=""text-align: center; margin-left: 20px;"">
              <p style=""font-size: 24px; font-weight: bold;"">Event 2</p>
              <img src=""images/causal/physical_activity_semantic/physical_activity_semantic_2.png"" style=""width: 300px; height: auto;"">
            </div>
          </div>
          <p style=""text-align: center; margin-top: 20px;"">Did Event 1 happen before Event 2?</p>","1","8","2","true"
"","","","","","html-button-response","24","388600","0.0-24.0","","5577","
          <div style=""display: flex; justify-content: center; align-items: center;"">
            <!-- Event 1 on the left -->
            <div style=""text-align: center; margin-right: 20px;"">
              <p style=""font-size: 24px; font-weight: bold;"">Event 1</p>
              <img src=""images/causal/physical_activity_semantic/physical_activity_semantic_1.png"" style=""width: 300px; height: auto;"">
            </div>
            <!-- Event 2 on the right -->
            <div style=""text-align: center; margin-left: 20px;"">
              <p style=""font-size: 24px; font-weight: bold;"">Event 2</p>
              <img src=""images/causal/physical_activity_semantic/physical_activity_semantic_9.png"" style=""width: 300px; height: auto;"">
            </div>
          </div>
          <p style=""text-align: center; margin-top: 20px;"">Did Event 1 happen before Event 2?</p>","0","1","9","true"
"","","","","","html-button-response","25","394370","0.0-25.0","","5769","
          <div style=""display: flex; justify-content: center; align-items: center;"">
            <!-- Event 1 on the left -->
            <div style=""text-align: center; margin-right: 20px;"">
              <p style=""font-size: 24px; font-weight: bold;"">Event 1</p>
              <img src=""images/causal/physical_activity_semantic/physical_activity_semantic_7.png"" style=""width: 300px; height: auto;"">
            </div>
            <!-- Event 2 on the right -->
            <div style=""text-align: center; margin-left: 20px;"">
              <p style=""font-size: 24px; font-weight: bold;"">Event 2</p>
              <img src=""images/causal/physical_activity_semantic/physical_activity_semantic_2.png"" style=""width: 300px; height: auto;"">
            </div>
          </div>
          <p style=""text-align: center; margin-top: 20px;"">Did Event 1 happen before Event 2?</p>","1","7","2","true"
"","","","","","html-button-response","26","400494","0.0-26.0","","6123","
          <div style=""display: flex; justify-content: center; align-items: center;"">
            <!-- Event 1 on the left -->
            <div style=""text-align: center; margin-right: 20px;"">
              <p style=""font-size: 24px; font-weight: bold;"">Event 1</p>
              <img src=""images/causal/physical_activity_semantic/physical_activity_semantic_10.png"" style=""width: 300px; height: auto;"">
            </div>
            <!-- Event 2 on the right -->
            <div style=""text-align: center; margin-left: 20px;"">
              <p style=""font-size: 24px; font-weight: bold;"">Event 2</p>
              <img src=""images/causal/physical_activity_semantic/physical_activity_semantic_8.png"" style=""width: 300px; height: auto;"">
            </div>
          </div>
          <p style=""text-align: center; margin-top: 20px;"">Did Event 1 happen before Event 2?</p>","1","10","8","true"
"","","","","","html-button-response","27","406011","0.0-27.0","","5516","
          <div style=""display: flex; justify-content: center; align-items: center;"">
            <!-- Event 1 on the left -->
            <div style=""text-align: center; margin-right: 20px;"">
              <p style=""font-size: 24px; font-weight: bold;"">Event 1</p>
              <img src=""images/causal/physical_activity_semantic/physical_activity_semantic_4.png"" style=""width: 300px; height: auto;"">
            </div>
            <!-- Event 2 on the right -->
            <div style=""text-align: center; margin-left: 20px;"">
              <p style=""font-size: 24px; font-weight: bold;"">Event 2</p>
              <img src=""images/causal/physical_activity_semantic/physical_activity_semantic_9.png"" style=""width: 300px; height: auto;"">
            </div>
          </div>
          <p style=""text-align: center; margin-top: 20px;"">Did Event 1 happen before Event 2?</p>","0","4","9","true"
"","","","","","html-button-response","28","412026","0.0-28.0","","6014","
          <div style=""display: flex; justify-content: center; align-items: center;"">
            <!-- Event 1 on the left -->
            <div style=""text-align: center; margin-right: 20px;"">
              <p style=""font-size: 24px; font-weight: bold;"">Event 1</p>
              <img src=""images/causal/physical_activity_semantic/physical_activity_semantic_2.png"" style=""width: 300px; height: auto;"">
            </div>
            <!-- Event 2 on the right -->
            <div style=""text-align: center; margin-left: 20px;"">
              <p style=""font-size: 24px; font-weight: bold;"">Event 2</p>
              <img src=""images/causal/physical_activity_semantic/physical_activity_semantic_1.png"" style=""width: 300px; height: auto;"">
            </div>
          </div>
          <p style=""text-align: center; margin-top: 20px;"">Did Event 1 happen before Event 2?</p>","1","2","1","true"
"","","","","","html-button-response","29","419423","0.0-29.0","","7396","
          <div style=""display: flex; justify-content: center; align-items: center;"">
            <!-- Event 1 on the left -->
            <div style=""text-align: center; margin-right: 20px;"">
              <p style=""font-size: 24px; font-weight: bold;"">Event 1</p>
              <img src=""images/causal/physical_activity_semantic/physical_activity_semantic_6.png"" style=""width: 300px; height: auto;"">
            </div>
            <!-- Event 2 on the right -->
            <div style=""text-align: center; margin-left: 20px;"">
              <p style=""font-size: 24px; font-weight: bold;"">Event 2</p>
              <img src=""images/causal/physical_activity_semantic/physical_activity_semantic_7.png"" style=""width: 300px; height: auto;"">
            </div>
          </div>
          <p style=""text-align: center; margin-top: 20px;"">Did Event 1 happen before Event 2?</p>","0","6","7","true"
"","","","","","html-button-response","30","429184","0.0-30.0","","9760","
          <div style=""display: flex; justify-content: center; align-items: center;"">
            <!-- Event 1 on the left -->
            <div style=""text-align: center; margin-right: 20px;"">
              <p style=""font-size: 24px; font-weight: bold;"">Event 1</p>
              <img src=""images/causal/physical_activity_semantic/physical_activity_semantic_10.png"" style=""width: 300px; height: auto;"">
            </div>
            <!-- Event 2 on the right -->
            <div style=""text-align: center; margin-left: 20px;"">
              <p style=""font-size: 24px; font-weight: bold;"">Event 2</p>
              <img src=""images/causal/physical_activity_semantic/physical_activity_semantic_9.png"" style=""width: 300px; height: auto;"">
            </div>
          </div>
          <p style=""text-align: center; margin-top: 20px;"">Did Event 1 happen before Event 2?</p>","1","10","9","true"
"","","","","","html-button-response","31","435605","0.0-31.0","","6420","
          <div style=""display: flex; justify-content: center; align-items: center;"">
            <!-- Event 1 on the left -->
            <div style=""text-align: center; margin-right: 20px;"">
              <p style=""font-size: 24px; font-weight: bold;"">Event 1</p>
              <img src=""images/causal/physical_activity_semantic/physical_activity_semantic_6.png"" style=""width: 300px; height: auto;"">
            </div>
            <!-- Event 2 on the right -->
            <div style=""text-align: center; margin-left: 20px;"">
              <p style=""font-size: 24px; font-weight: bold;"">Event 2</p>
              <img src=""images/causal/physical_activity_semantic/physical_activity_semantic_5.png"" style=""width: 300px; height: auto;"">
            </div>
          </div>
          <p style=""text-align: center; margin-top: 20px;"">Did Event 1 happen before Event 2?</p>","1","6","5","true"
"","","","","","html-button-response","32","442712","0.0-32.0","","7106","
          <div style=""display: flex; justify-content: center; align-items: center;"">
            <!-- Event 1 on the left -->
            <div style=""text-align: center; margin-right: 20px;"">
              <p style=""font-size: 24px; font-weight: bold;"">Event 1</p>
              <img src=""images/causal/physical_activity_semantic/physical_activity_semantic_1.png"" style=""width: 300px; height: auto;"">
            </div>
            <!-- Event 2 on the right -->
            <div style=""text-align: center; margin-left: 20px;"">
              <p style=""font-size: 24px; font-weight: bold;"">Event 2</p>
              <img src=""images/causal/physical_activity_semantic/physical_activity_semantic_5.png"" style=""width: 300px; height: auto;"">
            </div>
          </div>
          <p style=""text-align: center; margin-top: 20px;"">Did Event 1 happen before Event 2?</p>","0","1","5","true"
"","","","","","html-button-response","33","452049","0.0-33.0","","9336","
          <div style=""display: flex; justify-content: center; align-items: center;"">
            <!-- Event 1 on the left -->
            <div style=""text-align: center; margin-right: 20px;"">
              <p style=""font-size: 24px; font-weight: bold;"">Event 1</p>
              <img src=""images/causal/physical_activity_semantic/physical_activity_semantic_10.png"" style=""width: 300px; height: auto;"">
            </div>
            <!-- Event 2 on the right -->
            <div style=""text-align: center; margin-left: 20px;"">
              <p style=""font-size: 24px; font-weight: bold;"">Event 2</p>
              <img src=""images/causal/physical_activity_semantic/physical_activity_semantic_2.png"" style=""width: 300px; height: auto;"">
            </div>
          </div>
          <p style=""text-align: center; margin-top: 20px;"">Did Event 1 happen before Event 2?</p>","1","10","2","true"
"","","","","","html-button-response","34","457467","0.0-34.0","","5418","
          <div style=""display: flex; justify-content: center; align-items: center;"">
            <!-- Event 1 on the left -->
            <div style=""text-align: center; margin-right: 20px;"">
              <p style=""font-size: 24px; font-weight: bold;"">Event 1</p>
              <img src=""images/causal/physical_activity_semantic/physical_activity_semantic_10.png"" style=""width: 300px; height: auto;"">
            </div>
            <!-- Event 2 on the right -->
            <div style=""text-align: center; margin-left: 20px;"">
              <p style=""font-size: 24px; font-weight: bold;"">Event 2</p>
              <img src=""images/causal/physical_activity_semantic/physical_activity_semantic_6.png"" style=""width: 300px; height: auto;"">
            </div>
          </div>
          <p style=""text-align: center; margin-top: 20px;"">Did Event 1 happen before Event 2?</p>","1","10","6","true"
"","","","","","html-button-response","35","464572","0.0-35.0","","7104","
          <div style=""display: flex; justify-content: center; align-items: center;"">
            <!-- Event 1 on the left -->
            <div style=""text-align: center; margin-right: 20px;"">
              <p style=""font-size: 24px; font-weight: bold;"">Event 1</p>
              <img src=""images/causal/physical_activity_semantic/physical_activity_semantic_1.png"" style=""width: 300px; height: auto;"">
            </div>
            <!-- Event 2 on the right -->
            <div style=""text-align: center; margin-left: 20px;"">
              <p style=""font-size: 24px; font-weight: bold;"">Event 2</p>
              <img src=""images/causal/physical_activity_semantic/physical_activity_semantic_4.png"" style=""width: 300px; height: auto;"">
            </div>
          </div>
          <p style=""text-align: center; margin-top: 20px;"">Did Event 1 happen before Event 2?</p>","0","1","4","true"
"","","","","","html-button-response","36","476549","0.0-36.0","","11976","
          <div style=""display: flex; justify-content: center; align-items: center;"">
            <!-- Event 1 on the left -->
            <div style=""text-align: center; margin-right: 20px;"">
              <p style=""font-size: 24px; font-weight: bold;"">Event 1</p>
              <img src=""images/causal/physical_activity_semantic/physical_activity_semantic_10.png"" style=""width: 300px; height: auto;"">
            </div>
            <!-- Event 2 on the right -->
            <div style=""text-align: center; margin-left: 20px;"">
              <p style=""font-size: 24px; font-weight: bold;"">Event 2</p>
              <img src=""images/causal/physical_activity_semantic/physical_activity_semantic_1.png"" style=""width: 300px; height: auto;"">
            </div>
          </div>
          <p style=""text-align: center; margin-top: 20px;"">Did Event 1 happen before Event 2?</p>","1","10","1","true"
"","","","","","html-button-response","37","482124","0.0-37.0","","5575","
          <div style=""display: flex; justify-content: center; align-items: center;"">
            <!-- Event 1 on the left -->
            <div style=""text-align: center; margin-right: 20px;"">
              <p style=""font-size: 24px; font-weight: bold;"">Event 1</p>
              <img src=""images/causal/physical_activity_semantic/physical_activity_semantic_7.png"" style=""width: 300px; height: auto;"">
            </div>
            <!-- Event 2 on the right -->
            <div style=""text-align: center; margin-left: 20px;"">
              <p style=""font-size: 24px; font-weight: bold;"">Event 2</p>
              <img src=""images/causal/physical_activity_semantic/physical_activity_semantic_4.png"" style=""width: 300px; height: auto;"">
            </div>
          </div>
          <p style=""text-align: center; margin-top: 20px;"">Did Event 1 happen before Event 2?</p>","1","7","4","true"
"","","","","","html-button-response","38","487935","0.0-38.0","","5809","
          <div style=""display: flex; justify-content: center; align-items: center;"">
            <!-- Event 1 on the left -->
            <div style=""text-align: center; margin-right: 20px;"">
              <p style=""font-size: 24px; font-weight: bold;"">Event 1</p>
              <img src=""images/causal/physical_activity_semantic/physical_activity_semantic_7.png"" style=""width: 300px; height: auto;"">
            </div>
            <!-- Event 2 on the right -->
            <div style=""text-align: center; margin-left: 20px;"">
              <p style=""font-size: 24px; font-weight: bold;"">Event 2</p>
              <img src=""images/causal/physical_activity_semantic/physical_activity_semantic_10.png"" style=""width: 300px; height: auto;"">
            </div>
          </div>
          <p style=""text-align: center; margin-top: 20px;"">Did Event 1 happen before Event 2?</p>","0","7","10","true"
"","","","","","html-button-response","39","495175","0.0-39.0","","7240","
          <div style=""display: flex; justify-content: center; align-items: center;"">
            <!-- Event 1 on the left -->
            <div style=""text-align: center; margin-right: 20px;"">
              <p style=""font-size: 24px; font-weight: bold;"">Event 1</p>
              <img src=""images/causal/physical_activity_semantic/physical_activity_semantic_5.png"" style=""width: 300px; height: auto;"">
            </div>
            <!-- Event 2 on the right -->
            <div style=""text-align: center; margin-left: 20px;"">
              <p style=""font-size: 24px; font-weight: bold;"">Event 2</p>
              <img src=""images/causal/physical_activity_semantic/physical_activity_semantic_8.png"" style=""width: 300px; height: auto;"">
            </div>
          </div>
          <p style=""text-align: center; margin-top: 20px;"">Did Event 1 happen before Event 2?</p>","0","5","8","true"
"","","","","","html-button-response","40","500921","0.0-40.0","","5745","
          <div style=""display: flex; justify-content: center; align-items: center;"">
            <!-- Event 1 on the left -->
            <div style=""text-align: center; margin-right: 20px;"">
              <p style=""font-size: 24px; font-weight: bold;"">Event 1</p>
              <img src=""images/causal/physical_activity_semantic/physical_activity_semantic_1.png"" style=""width: 300px; height: auto;"">
            </div>
            <!-- Event 2 on the right -->
            <div style=""text-align: center; margin-left: 20px;"">
              <p style=""font-size: 24px; font-weight: bold;"">Event 2</p>
              <img src=""images/causal/physical_activity_semantic/physical_activity_semantic_7.png"" style=""width: 300px; height: auto;"">
            </div>
          </div>
          <p style=""text-align: center; margin-top: 20px;"">Did Event 1 happen before Event 2?</p>","0","1","7","true"
"","","","","","html-button-response","41","508439","0.0-41.0","","7516","
          <div style=""display: flex; justify-content: center; align-items: center;"">
            <!-- Event 1 on the left -->
            <div style=""text-align: center; margin-right: 20px;"">
              <p style=""font-size: 24px; font-weight: bold;"">Event 1</p>
              <img src=""images/causal/physical_activity_semantic/physical_activity_semantic_3.png"" style=""width: 300px; height: auto;"">
            </div>
            <!-- Event 2 on the right -->
            <div style=""text-align: center; margin-left: 20px;"">
              <p style=""font-size: 24px; font-weight: bold;"">Event 2</p>
              <img src=""images/causal/physical_activity_semantic/physical_activity_semantic_1.png"" style=""width: 300px; height: auto;"">
            </div>
          </div>
          <p style=""text-align: center; margin-top: 20px;"">Did Event 1 happen before Event 2?</p>","1","3","1","true"
"","","","","","html-button-response","42","515099","0.0-42.0","","6658","
          <div style=""display: flex; justify-content: center; align-items: center;"">
            <!-- Event 1 on the left -->
            <div style=""text-align: center; margin-right: 20px;"">
              <p style=""font-size: 24px; font-weight: bold;"">Event 1</p>
              <img src=""images/causal/physical_activity_semantic/physical_activity_semantic_3.png"" style=""width: 300px; height: auto;"">
            </div>
            <!-- Event 2 on the right -->
            <div style=""text-align: center; margin-left: 20px;"">
              <p style=""font-size: 24px; font-weight: bold;"">Event 2</p>
              <img src=""images/causal/physical_activity_semantic/physical_activity_semantic_5.png"" style=""width: 300px; height: auto;"">
            </div>
          </div>
          <p style=""text-align: center; margin-top: 20px;"">Did Event 1 happen before Event 2?</p>","0","3","5","true"
"","","","","","html-button-response","43","521229","0.0-43.0","","6128","
          <div style=""display: flex; justify-content: center; align-items: center;"">
            <!-- Event 1 on the left -->
            <div style=""text-align: center; margin-right: 20px;"">
              <p style=""font-size: 24px; font-weight: bold;"">Event 1</p>
              <img src=""images/causal/physical_activity_semantic/physical_activity_semantic_6.png"" style=""width: 300px; height: auto;"">
            </div>
            <!-- Event 2 on the right -->
            <div style=""text-align: center; margin-left: 20px;"">
              <p style=""font-size: 24px; font-weight: bold;"">Event 2</p>
              <img src=""images/causal/physical_activity_semantic/physical_activity_semantic_2.png"" style=""width: 300px; height: auto;"">
            </div>
          </div>
          <p style=""text-align: center; margin-top: 20px;"">Did Event 1 happen before Event 2?</p>","1","6","2","true"
"","","","","","html-button-response","44","528038","0.0-44.0","","6808","
          <div style=""display: flex; justify-content: center; align-items: center;"">
            <!-- Event 1 on the left -->
            <div style=""text-align: center; margin-right: 20px;"">
              <p style=""font-size: 24px; font-weight: bold;"">Event 1</p>
              <img src=""images/causal/physical_activity_semantic/physical_activity_semantic_6.png"" style=""width: 300px; height: auto;"">
            </div>
            <!-- Event 2 on the right -->
            <div style=""text-align: center; margin-left: 20px;"">
              <p style=""font-size: 24px; font-weight: bold;"">Event 2</p>
              <img src=""images/causal/physical_activity_semantic/physical_activity_semantic_3.png"" style=""width: 300px; height: auto;"">
            </div>
          </div>
          <p style=""text-align: center; margin-top: 20px;"">Did Event 1 happen before Event 2?</p>","1","6","3","true"
"","","","","","html-button-response","45","533621","0.0-45.0","","5582","
          <div style=""display: flex; justify-content: center; align-items: center;"">
            <!-- Event 1 on the left -->
            <div style=""text-align: center; margin-right: 20px;"">
              <p style=""font-size: 24px; font-weight: bold;"">Event 1</p>
              <img src=""images/causal/physical_activity_semantic/physical_activity_semantic_4.png"" style=""width: 300px; height: auto;"">
            </div>
            <!-- Event 2 on the right -->
            <div style=""text-align: center; margin-left: 20px;"">
              <p style=""font-size: 24px; font-weight: bold;"">Event 2</p>
              <img src=""images/causal/physical_activity_semantic/physical_activity_semantic_8.png"" style=""width: 300px; height: auto;"">
            </div>
          </div>
          <p style=""text-align: center; margin-top: 20px;"">Did Event 1 happen before Event 2?</p>","0","4","8","true"
"","","","","","html-button-response","46","539914","0.0-46.0","","6292","
          <div style=""display: flex; justify-content: center; align-items: center;"">
            <!-- Event 1 on the left -->
            <div style=""text-align: center; margin-right: 20px;"">
              <p style=""font-size: 24px; font-weight: bold;"">Event 1</p>
              <img src=""images/causal/physical_activity_semantic/physical_activity_semantic_9.png"" style=""width: 300px; height: auto;"">
            </div>
            <!-- Event 2 on the right -->
            <div style=""text-align: center; margin-left: 20px;"">
              <p style=""font-size: 24px; font-weight: bold;"">Event 2</p>
              <img src=""images/causal/physical_activity_semantic/physical_activity_semantic_7.png"" style=""width: 300px; height: auto;"">
            </div>
          </div>
          <p style=""text-align: center; margin-top: 20px;"">Did Event 1 happen before Event 2?</p>","1","9","7","true"
"","","","","","instructions","47","545540","0.0-47.0","[{""page_index"":0,""viewing_time"":5624}]","5625","","","","",""
