"success","timeout","failed_images","failed_audio","failed_video","trial_type","trial_index","time_elapsed","internal_node_id","subject","subject_id","study_id","session_id","urlvar","current_url","view_history","rt","stimulus","response","choice","question_order"
"true","false","[]","[]","[]","preload","0","1844","0.0-0.0","7B23D183B7B942019358BD0E35D4B321","7B23D183B7B942019358BD0E35D4B321","a9ab6bf4-46fc-4809-80a6-1c9d46895e84","bea99957-1862-4ad8-9558-57b91e42ce64","{""participantId"":""7B23D183B7B942019358BD0E35D4B321"",""assignmentId"":""a9ab6bf4-46fc-4809-80a6-1c9d46895e84"",""projectId"":""bea99957-1862-4ad8-9558-57b91e42ce64""}","https://test12345.live/?participantId=7B23D183B7B942019358BD0E35D4B321&assignmentId=a9ab6bf4-46fc-4809-80a6-1c9d46895e84&projectId=bea99957-1862-4ad8-9558-57b91e42ce64","","","","","",""
"","","","","","instructions","1","10723","0.0-1.0","7B23D183B7B942019358BD0E35D4B321","7B23D183B7B942019358BD0E35D4B321","a9ab6bf4-46fc-4809-80a6-1c9d46895e84","bea99957-1862-4ad8-9558-57b91e42ce64","{""participantId"":""7B23D183B7B942019358BD0E35D4B321"",""assignmentId"":""a9ab6bf4-46fc-4809-80a6-1c9d46895e84"",""projectId"":""bea99957-1862-4ad8-9558-57b91e42ce64""}","https://test12345.live/?participantId=7B23D183B7B942019358BD0E35D4B321&assignmentId=a9ab6bf4-46fc-4809-80a6-1c9d46895e84&projectId=bea99957-1862-4ad8-9558-57b91e42ce64","[{""page_index"":0,""viewing_time"":8878}]","8878","","","",""
"","","","","","instructions","2","39695","0.0-2.0","7B23D183B7B942019358BD0E35D4B321","7B23D183B7B942019358BD0E35D4B321","a9ab6bf4-46fc-4809-80a6-1c9d46895e84","bea99957-1862-4ad8-9558-57b91e42ce64","{""participantId"":""7B23D183B7B942019358BD0E35D4B321"",""assignmentId"":""a9ab6bf4-46fc-4809-80a6-1c9d46895e84"",""projectId"":""bea99957-1862-4ad8-9558-57b91e42ce64""}","https://test12345.live/?participantId=7B23D183B7B942019358BD0E35D4B321&assignmentId=a9ab6bf4-46fc-4809-80a6-1c9d46895e84&projectId=bea99957-1862-4ad8-9558-57b91e42ce64","[{""page_index"":0,""viewing_time"":28972}]","28972","","","",""
"true","","","","","fullscreen","3","42508","0.0-3.0","7B23D183B7B942019358BD0E35D4B321","7B23D183B7B942019358BD0E35D4B321","a9ab6bf4-46fc-4809-80a6-1c9d46895e84","bea99957-1862-4ad8-9558-57b91e42ce64","{""participantId"":""7B23D183B7B942019358BD0E35D4B321"",""assignmentId"":""a9ab6bf4-46fc-4809-80a6-1c9d46895e84"",""projectId"":""bea99957-1862-4ad8-9558-57b91e42ce64""}","https://test12345.live/?participantId=7B23D183B7B942019358BD0E35D4B321&assignmentId=a9ab6bf4-46fc-4809-80a6-1c9d46895e84&projectId=bea99957-1862-4ad8-9558-57b91e42ce64","","1801","","","",""
"","","","","","instructions","4","63869","0.0-4.0","7B23D183B7B942019358BD0E35D4B321","7B23D183B7B942019358BD0E35D4B321","a9ab6bf4-46fc-4809-80a6-1c9d46895e84","bea99957-1862-4ad8-9558-57b91e42ce64","{""participantId"":""7B23D183B7B942019358BD0E35D4B321"",""assignmentId"":""a9ab6bf4-46fc-4809-80a6-1c9d46895e84"",""projectId"":""bea99957-1862-4ad8-9558-57b91e42ce64""}","https://test12345.live/?participantId=7B23D183B7B942019358BD0E35D4B321&assignmentId=a9ab6bf4-46fc-4809-80a6-1c9d46895e84&projectId=bea99957-1862-4ad8-9558-57b91e42ce64","[{""page_index"":0,""viewing_time"":21360}]","21360","","","",""
"","","","","","html-button-response","5","66554","0.0-5.0","7B23D183B7B942019358BD0E35D4B321","7B23D183B7B942019358BD0E35D4B321","a9ab6bf4-46fc-4809-80a6-1c9d46895e84","bea99957-1862-4ad8-9558-57b91e42ce64","{""participantId"":""7B23D183B7B942019358BD0E35D4B321"",""assignmentId"":""a9ab6bf4-46fc-4809-80a6-1c9d46895e84"",""projectId"":""bea99957-1862-4ad8-9558-57b91e42ce64""}","https://test12345.live/?participantId=7B23D183B7B942019358BD0E35D4B321&assignmentId=a9ab6bf4-46fc-4809-80a6-1c9d46895e84&projectId=bea99957-1862-4ad8-9558-57b91e42ce64","","2685","
    <div style=""display: flex; justify-content: center; align-items: center;"">
      <img src=""images/red_deck_2.png"" style=""width: 300px; height: 300px; margin-right: 10px;"" />
      <img src=""images/blue_deck_1.png"" style=""width: 300px; height: 300px;"" />
    </div>","1","1",""
"","","","","","html-keyboard-response","6","69555","0.0-6.0-0.0","7B23D183B7B942019358BD0E35D4B321","7B23D183B7B942019358BD0E35D4B321","a9ab6bf4-46fc-4809-80a6-1c9d46895e84","bea99957-1862-4ad8-9558-57b91e42ce64","{""participantId"":""7B23D183B7B942019358BD0E35D4B321"",""assignmentId"":""a9ab6bf4-46fc-4809-80a6-1c9d46895e84"",""projectId"":""bea99957-1862-4ad8-9558-57b91e42ce64""}","https://test12345.live/?participantId=7B23D183B7B942019358BD0E35D4B321&assignmentId=a9ab6bf4-46fc-4809-80a6-1c9d46895e84&projectId=bea99957-1862-4ad8-9558-57b91e42ce64","","null","<div style=""display: flex; justify-content: center; align-items: center;"">
                    <img src=""images/causal/causal_series_3/causal_series_3_a.jpg"" style=""width: 300px; height: 300px;"" />
                  </div>","null","",""
"","","","","","html-keyboard-response","7","72565","0.0-6.0-1.0","7B23D183B7B942019358BD0E35D4B321","7B23D183B7B942019358BD0E35D4B321","a9ab6bf4-46fc-4809-80a6-1c9d46895e84","bea99957-1862-4ad8-9558-57b91e42ce64","{""participantId"":""7B23D183B7B942019358BD0E35D4B321"",""assignmentId"":""a9ab6bf4-46fc-4809-80a6-1c9d46895e84"",""projectId"":""bea99957-1862-4ad8-9558-57b91e42ce64""}","https://test12345.live/?participantId=7B23D183B7B942019358BD0E35D4B321&assignmentId=a9ab6bf4-46fc-4809-80a6-1c9d46895e84&projectId=bea99957-1862-4ad8-9558-57b91e42ce64","","null","<div style=""display: flex; justify-content: center; align-items: center;"">
                    <img src=""images/causal/causal_series_3/causal_series_3_b.jpg"" style=""width: 300px; height: 300px;"" />
                  </div>","null","",""
"","","","","","html-keyboard-response","8","75581","0.0-6.0-2.0","7B23D183B7B942019358BD0E35D4B321","7B23D183B7B942019358BD0E35D4B321","a9ab6bf4-46fc-4809-80a6-1c9d46895e84","bea99957-1862-4ad8-9558-57b91e42ce64","{""participantId"":""7B23D183B7B942019358BD0E35D4B321"",""assignmentId"":""a9ab6bf4-46fc-4809-80a6-1c9d46895e84"",""projectId"":""bea99957-1862-4ad8-9558-57b91e42ce64""}","https://test12345.live/?participantId=7B23D183B7B942019358BD0E35D4B321&assignmentId=a9ab6bf4-46fc-4809-80a6-1c9d46895e84&projectId=bea99957-1862-4ad8-9558-57b91e42ce64","","null","<div style=""display: flex; justify-content: center; align-items: center;"">
                    <img src=""images/causal/causal_series_3/causal_series_3_c.jpg"" style=""width: 300px; height: 300px;"" />
                  </div>","null","",""
"","","","","","html-keyboard-response","9","78589","0.0-6.0-3.0","7B23D183B7B942019358BD0E35D4B321","7B23D183B7B942019358BD0E35D4B321","a9ab6bf4-46fc-4809-80a6-1c9d46895e84","bea99957-1862-4ad8-9558-57b91e42ce64","{""participantId"":""7B23D183B7B942019358BD0E35D4B321"",""assignmentId"":""a9ab6bf4-46fc-4809-80a6-1c9d46895e84"",""projectId"":""bea99957-1862-4ad8-9558-57b91e42ce64""}","https://test12345.live/?participantId=7B23D183B7B942019358BD0E35D4B321&assignmentId=a9ab6bf4-46fc-4809-80a6-1c9d46895e84&projectId=bea99957-1862-4ad8-9558-57b91e42ce64","","null","<div style=""display: flex; justify-content: center; align-items: center;"">
                    <img src=""images/causal/causal_series_3/causal_series_3_d.jpg"" style=""width: 300px; height: 300px;"" />
                  </div>","null","",""
"","","","","","html-button-response","10","80335","0.0-8.0","7B23D183B7B942019358BD0E35D4B321","7B23D183B7B942019358BD0E35D4B321","a9ab6bf4-46fc-4809-80a6-1c9d46895e84","bea99957-1862-4ad8-9558-57b91e42ce64","{""participantId"":""7B23D183B7B942019358BD0E35D4B321"",""assignmentId"":""a9ab6bf4-46fc-4809-80a6-1c9d46895e84"",""projectId"":""bea99957-1862-4ad8-9558-57b91e42ce64""}","https://test12345.live/?participantId=7B23D183B7B942019358BD0E35D4B321&assignmentId=a9ab6bf4-46fc-4809-80a6-1c9d46895e84&projectId=bea99957-1862-4ad8-9558-57b91e42ce64","","1745","Was there a person in the picture?","0","",""
"","","","","","survey-likert","11","85121","0.0-9.0","7B23D183B7B942019358BD0E35D4B321","7B23D183B7B942019358BD0E35D4B321","a9ab6bf4-46fc-4809-80a6-1c9d46895e84","bea99957-1862-4ad8-9558-57b91e42ce64","{""participantId"":""7B23D183B7B942019358BD0E35D4B321"",""assignmentId"":""a9ab6bf4-46fc-4809-80a6-1c9d46895e84"",""projectId"":""bea99957-1862-4ad8-9558-57b91e42ce64""}","https://test12345.live/?participantId=7B23D183B7B942019358BD0E35D4B321&assignmentId=a9ab6bf4-46fc-4809-80a6-1c9d46895e84&projectId=bea99957-1862-4ad8-9558-57b91e42ce64","","4785","","{""Q0"":1}","","[0]"
"","","","","","html-button-response","12","87290","0.0-10.0","7B23D183B7B942019358BD0E35D4B321","7B23D183B7B942019358BD0E35D4B321","a9ab6bf4-46fc-4809-80a6-1c9d46895e84","bea99957-1862-4ad8-9558-57b91e42ce64","{""participantId"":""7B23D183B7B942019358BD0E35D4B321"",""assignmentId"":""a9ab6bf4-46fc-4809-80a6-1c9d46895e84"",""projectId"":""bea99957-1862-4ad8-9558-57b91e42ce64""}","https://test12345.live/?participantId=7B23D183B7B942019358BD0E35D4B321&assignmentId=a9ab6bf4-46fc-4809-80a6-1c9d46895e84&projectId=bea99957-1862-4ad8-9558-57b91e42ce64","","2168","
    <div style=""display: flex; justify-content: center; align-items: center;"">
      <img src=""images/red_deck_2.png"" style=""width: 300px; height: 300px; margin-right: 10px;"" />
      <img src=""images/blue_deck_1.png"" style=""width: 300px; height: 300px;"" />
    </div>","0","0",""
"","","","","","html-keyboard-response","13","90291","0.0-12.0-0.0","7B23D183B7B942019358BD0E35D4B321","7B23D183B7B942019358BD0E35D4B321","a9ab6bf4-46fc-4809-80a6-1c9d46895e84","bea99957-1862-4ad8-9558-57b91e42ce64","{""participantId"":""7B23D183B7B942019358BD0E35D4B321"",""assignmentId"":""a9ab6bf4-46fc-4809-80a6-1c9d46895e84"",""projectId"":""bea99957-1862-4ad8-9558-57b91e42ce64""}","https://test12345.live/?participantId=7B23D183B7B942019358BD0E35D4B321&assignmentId=a9ab6bf4-46fc-4809-80a6-1c9d46895e84&projectId=bea99957-1862-4ad8-9558-57b91e42ce64","","null","<div style=""display: flex; justify-content: center; align-items: center;"">
                    <img src=""images/semantic/semantic_series_18/semantic_series_18_a.jpg"" style=""width: 300px; height: 300px;"" />
                  </div>","null","",""
"","","","","","html-keyboard-response","14","93292","0.0-12.0-1.0","7B23D183B7B942019358BD0E35D4B321","7B23D183B7B942019358BD0E35D4B321","a9ab6bf4-46fc-4809-80a6-1c9d46895e84","bea99957-1862-4ad8-9558-57b91e42ce64","{""participantId"":""7B23D183B7B942019358BD0E35D4B321"",""assignmentId"":""a9ab6bf4-46fc-4809-80a6-1c9d46895e84"",""projectId"":""bea99957-1862-4ad8-9558-57b91e42ce64""}","https://test12345.live/?participantId=7B23D183B7B942019358BD0E35D4B321&assignmentId=a9ab6bf4-46fc-4809-80a6-1c9d46895e84&projectId=bea99957-1862-4ad8-9558-57b91e42ce64","","null","<div style=""display: flex; justify-content: center; align-items: center;"">
                    <img src=""images/semantic/semantic_series_18/semantic_series_18_b.jpg"" style=""width: 300px; height: 300px;"" />
                  </div>","null","",""
"","","","","","html-keyboard-response","15","96294","0.0-12.0-2.0","7B23D183B7B942019358BD0E35D4B321","7B23D183B7B942019358BD0E35D4B321","a9ab6bf4-46fc-4809-80a6-1c9d46895e84","bea99957-1862-4ad8-9558-57b91e42ce64","{""participantId"":""7B23D183B7B942019358BD0E35D4B321"",""assignmentId"":""a9ab6bf4-46fc-4809-80a6-1c9d46895e84"",""projectId"":""bea99957-1862-4ad8-9558-57b91e42ce64""}","https://test12345.live/?participantId=7B23D183B7B942019358BD0E35D4B321&assignmentId=a9ab6bf4-46fc-4809-80a6-1c9d46895e84&projectId=bea99957-1862-4ad8-9558-57b91e42ce64","","null","<div style=""display: flex; justify-content: center; align-items: center;"">
                    <img src=""images/semantic/semantic_series_18/semantic_series_18_c.jpg"" style=""width: 300px; height: 300px;"" />
                  </div>","null","",""
"","","","","","html-keyboard-response","16","99302","0.0-12.0-3.0","7B23D183B7B942019358BD0E35D4B321","7B23D183B7B942019358BD0E35D4B321","a9ab6bf4-46fc-4809-80a6-1c9d46895e84","bea99957-1862-4ad8-9558-57b91e42ce64","{""participantId"":""7B23D183B7B942019358BD0E35D4B321"",""assignmentId"":""a9ab6bf4-46fc-4809-80a6-1c9d46895e84"",""projectId"":""bea99957-1862-4ad8-9558-57b91e42ce64""}","https://test12345.live/?participantId=7B23D183B7B942019358BD0E35D4B321&assignmentId=a9ab6bf4-46fc-4809-80a6-1c9d46895e84&projectId=bea99957-1862-4ad8-9558-57b91e42ce64","","null","<div style=""display: flex; justify-content: center; align-items: center;"">
                    <img src=""images/semantic/semantic_series_18/semantic_series_18_d.jpg"" style=""width: 300px; height: 300px;"" />
                  </div>","null","",""
"","","","","","html-button-response","17","100549","0.0-13.0","7B23D183B7B942019358BD0E35D4B321","7B23D183B7B942019358BD0E35D4B321","a9ab6bf4-46fc-4809-80a6-1c9d46895e84","bea99957-1862-4ad8-9558-57b91e42ce64","{""participantId"":""7B23D183B7B942019358BD0E35D4B321"",""assignmentId"":""a9ab6bf4-46fc-4809-80a6-1c9d46895e84"",""projectId"":""bea99957-1862-4ad8-9558-57b91e42ce64""}","https://test12345.live/?participantId=7B23D183B7B942019358BD0E35D4B321&assignmentId=a9ab6bf4-46fc-4809-80a6-1c9d46895e84&projectId=bea99957-1862-4ad8-9558-57b91e42ce64","","1246","Was there a person in the picture?","1","",""
"","","","","","survey-likert","18","103721","0.0-14.0","7B23D183B7B942019358BD0E35D4B321","7B23D183B7B942019358BD0E35D4B321","a9ab6bf4-46fc-4809-80a6-1c9d46895e84","bea99957-1862-4ad8-9558-57b91e42ce64","{""participantId"":""7B23D183B7B942019358BD0E35D4B321"",""assignmentId"":""a9ab6bf4-46fc-4809-80a6-1c9d46895e84"",""projectId"":""bea99957-1862-4ad8-9558-57b91e42ce64""}","https://test12345.live/?participantId=7B23D183B7B942019358BD0E35D4B321&assignmentId=a9ab6bf4-46fc-4809-80a6-1c9d46895e84&projectId=bea99957-1862-4ad8-9558-57b91e42ce64","","3172","","{""Q0"":1}","","[0]"
"","","","","","html-button-response","19","105075","0.0-15.0","7B23D183B7B942019358BD0E35D4B321","7B23D183B7B942019358BD0E35D4B321","a9ab6bf4-46fc-4809-80a6-1c9d46895e84","bea99957-1862-4ad8-9558-57b91e42ce64","{""participantId"":""7B23D183B7B942019358BD0E35D4B321"",""assignmentId"":""a9ab6bf4-46fc-4809-80a6-1c9d46895e84"",""projectId"":""bea99957-1862-4ad8-9558-57b91e42ce64""}","https://test12345.live/?participantId=7B23D183B7B942019358BD0E35D4B321&assignmentId=a9ab6bf4-46fc-4809-80a6-1c9d46895e84&projectId=bea99957-1862-4ad8-9558-57b91e42ce64","","1353","
    <div style=""display: flex; justify-content: center; align-items: center;"">
      <img src=""images/red_deck_2.png"" style=""width: 300px; height: 300px; margin-right: 10px;"" />
      <img src=""images/blue_deck_1.png"" style=""width: 300px; height: 300px;"" />
    </div>","1","1",""
"","","","","","html-keyboard-response","20","108080","0.0-16.0-0.0","7B23D183B7B942019358BD0E35D4B321","7B23D183B7B942019358BD0E35D4B321","a9ab6bf4-46fc-4809-80a6-1c9d46895e84","bea99957-1862-4ad8-9558-57b91e42ce64","{""participantId"":""7B23D183B7B942019358BD0E35D4B321"",""assignmentId"":""a9ab6bf4-46fc-4809-80a6-1c9d46895e84"",""projectId"":""bea99957-1862-4ad8-9558-57b91e42ce64""}","https://test12345.live/?participantId=7B23D183B7B942019358BD0E35D4B321&assignmentId=a9ab6bf4-46fc-4809-80a6-1c9d46895e84&projectId=bea99957-1862-4ad8-9558-57b91e42ce64","","null","<div style=""display: flex; justify-content: center; align-items: center;"">
                    <img src=""images/causal/causal_series_1/causal_series_1_a.jpg"" style=""width: 300px; height: 300px;"" />
                  </div>","null","",""
"","","","","","html-keyboard-response","21","111095","0.0-16.0-1.0","7B23D183B7B942019358BD0E35D4B321","7B23D183B7B942019358BD0E35D4B321","a9ab6bf4-46fc-4809-80a6-1c9d46895e84","bea99957-1862-4ad8-9558-57b91e42ce64","{""participantId"":""7B23D183B7B942019358BD0E35D4B321"",""assignmentId"":""a9ab6bf4-46fc-4809-80a6-1c9d46895e84"",""projectId"":""bea99957-1862-4ad8-9558-57b91e42ce64""}","https://test12345.live/?participantId=7B23D183B7B942019358BD0E35D4B321&assignmentId=a9ab6bf4-46fc-4809-80a6-1c9d46895e84&projectId=bea99957-1862-4ad8-9558-57b91e42ce64","","null","<div style=""display: flex; justify-content: center; align-items: center;"">
                    <img src=""images/causal/causal_series_1/causal_series_1_b.jpg"" style=""width: 300px; height: 300px;"" />
                  </div>","null","",""
"","","","","","html-keyboard-response","22","114102","0.0-16.0-2.0","7B23D183B7B942019358BD0E35D4B321","7B23D183B7B942019358BD0E35D4B321","a9ab6bf4-46fc-4809-80a6-1c9d46895e84","bea99957-1862-4ad8-9558-57b91e42ce64","{""participantId"":""7B23D183B7B942019358BD0E35D4B321"",""assignmentId"":""a9ab6bf4-46fc-4809-80a6-1c9d46895e84"",""projectId"":""bea99957-1862-4ad8-9558-57b91e42ce64""}","https://test12345.live/?participantId=7B23D183B7B942019358BD0E35D4B321&assignmentId=a9ab6bf4-46fc-4809-80a6-1c9d46895e84&projectId=bea99957-1862-4ad8-9558-57b91e42ce64","","null","<div style=""display: flex; justify-content: center; align-items: center;"">
                    <img src=""images/causal/causal_series_1/causal_series_1_c.jpg"" style=""width: 300px; height: 300px;"" />
                  </div>","null","",""
"","","","","","html-keyboard-response","23","117105","0.0-16.0-3.0","7B23D183B7B942019358BD0E35D4B321","7B23D183B7B942019358BD0E35D4B321","a9ab6bf4-46fc-4809-80a6-1c9d46895e84","bea99957-1862-4ad8-9558-57b91e42ce64","{""participantId"":""7B23D183B7B942019358BD0E35D4B321"",""assignmentId"":""a9ab6bf4-46fc-4809-80a6-1c9d46895e84"",""projectId"":""bea99957-1862-4ad8-9558-57b91e42ce64""}","https://test12345.live/?participantId=7B23D183B7B942019358BD0E35D4B321&assignmentId=a9ab6bf4-46fc-4809-80a6-1c9d46895e84&projectId=bea99957-1862-4ad8-9558-57b91e42ce64","","null","<div style=""display: flex; justify-content: center; align-items: center;"">
                    <img src=""images/causal/causal_series_1/causal_series_1_d.jpg"" style=""width: 300px; height: 300px;"" />
                  </div>","null","",""
"","","","","","html-button-response","24","119686","0.0-18.0","7B23D183B7B942019358BD0E35D4B321","7B23D183B7B942019358BD0E35D4B321","a9ab6bf4-46fc-4809-80a6-1c9d46895e84","bea99957-1862-4ad8-9558-57b91e42ce64","{""participantId"":""7B23D183B7B942019358BD0E35D4B321"",""assignmentId"":""a9ab6bf4-46fc-4809-80a6-1c9d46895e84"",""projectId"":""bea99957-1862-4ad8-9558-57b91e42ce64""}","https://test12345.live/?participantId=7B23D183B7B942019358BD0E35D4B321&assignmentId=a9ab6bf4-46fc-4809-80a6-1c9d46895e84&projectId=bea99957-1862-4ad8-9558-57b91e42ce64","","2580","Was there a person in the picture?","0","",""
"","","","","","survey-likert","25","121900","0.0-19.0","7B23D183B7B942019358BD0E35D4B321","7B23D183B7B942019358BD0E35D4B321","a9ab6bf4-46fc-4809-80a6-1c9d46895e84","bea99957-1862-4ad8-9558-57b91e42ce64","{""participantId"":""7B23D183B7B942019358BD0E35D4B321"",""assignmentId"":""a9ab6bf4-46fc-4809-80a6-1c9d46895e84"",""projectId"":""bea99957-1862-4ad8-9558-57b91e42ce64""}","https://test12345.live/?participantId=7B23D183B7B942019358BD0E35D4B321&assignmentId=a9ab6bf4-46fc-4809-80a6-1c9d46895e84&projectId=bea99957-1862-4ad8-9558-57b91e42ce64","","2214","","{""Q0"":2}","","[0]"
"","","","","","html-button-response","26","123349","0.0-20.0","7B23D183B7B942019358BD0E35D4B321","7B23D183B7B942019358BD0E35D4B321","a9ab6bf4-46fc-4809-80a6-1c9d46895e84","bea99957-1862-4ad8-9558-57b91e42ce64","{""participantId"":""7B23D183B7B942019358BD0E35D4B321"",""assignmentId"":""a9ab6bf4-46fc-4809-80a6-1c9d46895e84"",""projectId"":""bea99957-1862-4ad8-9558-57b91e42ce64""}","https://test12345.live/?participantId=7B23D183B7B942019358BD0E35D4B321&assignmentId=a9ab6bf4-46fc-4809-80a6-1c9d46895e84&projectId=bea99957-1862-4ad8-9558-57b91e42ce64","","1448","
    <div style=""display: flex; justify-content: center; align-items: center;"">
      <img src=""images/red_deck_2.png"" style=""width: 300px; height: 300px; margin-right: 10px;"" />
      <img src=""images/blue_deck_1.png"" style=""width: 300px; height: 300px;"" />
    </div>","0","0",""
"","","","","","html-keyboard-response","27","126353","0.0-22.0-0.0","7B23D183B7B942019358BD0E35D4B321","7B23D183B7B942019358BD0E35D4B321","a9ab6bf4-46fc-4809-80a6-1c9d46895e84","bea99957-1862-4ad8-9558-57b91e42ce64","{""participantId"":""7B23D183B7B942019358BD0E35D4B321"",""assignmentId"":""a9ab6bf4-46fc-4809-80a6-1c9d46895e84"",""projectId"":""bea99957-1862-4ad8-9558-57b91e42ce64""}","https://test12345.live/?participantId=7B23D183B7B942019358BD0E35D4B321&assignmentId=a9ab6bf4-46fc-4809-80a6-1c9d46895e84&projectId=bea99957-1862-4ad8-9558-57b91e42ce64","","null","<div style=""display: flex; justify-content: center; align-items: center;"">
                    <img src=""images/semantic/semantic_series_9/semantic_series_9_a.jpg"" style=""width: 300px; height: 300px;"" />
                  </div>","null","",""
"","","","","","html-keyboard-response","28","129359","0.0-22.0-1.0","7B23D183B7B942019358BD0E35D4B321","7B23D183B7B942019358BD0E35D4B321","a9ab6bf4-46fc-4809-80a6-1c9d46895e84","bea99957-1862-4ad8-9558-57b91e42ce64","{""participantId"":""7B23D183B7B942019358BD0E35D4B321"",""assignmentId"":""a9ab6bf4-46fc-4809-80a6-1c9d46895e84"",""projectId"":""bea99957-1862-4ad8-9558-57b91e42ce64""}","https://test12345.live/?participantId=7B23D183B7B942019358BD0E35D4B321&assignmentId=a9ab6bf4-46fc-4809-80a6-1c9d46895e84&projectId=bea99957-1862-4ad8-9558-57b91e42ce64","","null","<div style=""display: flex; justify-content: center; align-items: center;"">
                    <img src=""images/semantic/semantic_series_9/semantic_series_9_b.jpg"" style=""width: 300px; height: 300px;"" />
                  </div>","null","",""
"","","","","","html-keyboard-response","29","132365","0.0-22.0-2.0","7B23D183B7B942019358BD0E35D4B321","7B23D183B7B942019358BD0E35D4B321","a9ab6bf4-46fc-4809-80a6-1c9d46895e84","bea99957-1862-4ad8-9558-57b91e42ce64","{""participantId"":""7B23D183B7B942019358BD0E35D4B321"",""assignmentId"":""a9ab6bf4-46fc-4809-80a6-1c9d46895e84"",""projectId"":""bea99957-1862-4ad8-9558-57b91e42ce64""}","https://test12345.live/?participantId=7B23D183B7B942019358BD0E35D4B321&assignmentId=a9ab6bf4-46fc-4809-80a6-1c9d46895e84&projectId=bea99957-1862-4ad8-9558-57b91e42ce64","","null","<div style=""display: flex; justify-content: center; align-items: center;"">
                    <img src=""images/semantic/semantic_series_9/semantic_series_9_c.jpg"" style=""width: 300px; height: 300px;"" />
                  </div>","null","",""
"","","","","","html-keyboard-response","30","135369","0.0-22.0-3.0","7B23D183B7B942019358BD0E35D4B321","7B23D183B7B942019358BD0E35D4B321","a9ab6bf4-46fc-4809-80a6-1c9d46895e84","bea99957-1862-4ad8-9558-57b91e42ce64","{""participantId"":""7B23D183B7B942019358BD0E35D4B321"",""assignmentId"":""a9ab6bf4-46fc-4809-80a6-1c9d46895e84"",""projectId"":""bea99957-1862-4ad8-9558-57b91e42ce64""}","https://test12345.live/?participantId=7B23D183B7B942019358BD0E35D4B321&assignmentId=a9ab6bf4-46fc-4809-80a6-1c9d46895e84&projectId=bea99957-1862-4ad8-9558-57b91e42ce64","","null","<div style=""display: flex; justify-content: center; align-items: center;"">
                    <img src=""images/semantic/semantic_series_9/semantic_series_9_d.jpg"" style=""width: 300px; height: 300px;"" />
                  </div>","null","",""
"","","","","","html-button-response","31","136987","0.0-23.0","7B23D183B7B942019358BD0E35D4B321","7B23D183B7B942019358BD0E35D4B321","a9ab6bf4-46fc-4809-80a6-1c9d46895e84","bea99957-1862-4ad8-9558-57b91e42ce64","{""participantId"":""7B23D183B7B942019358BD0E35D4B321"",""assignmentId"":""a9ab6bf4-46fc-4809-80a6-1c9d46895e84"",""projectId"":""bea99957-1862-4ad8-9558-57b91e42ce64""}","https://test12345.live/?participantId=7B23D183B7B942019358BD0E35D4B321&assignmentId=a9ab6bf4-46fc-4809-80a6-1c9d46895e84&projectId=bea99957-1862-4ad8-9558-57b91e42ce64","","1617","Was there a person in the picture?","1","",""
"","","","","","survey-likert","32","139345","0.0-24.0","7B23D183B7B942019358BD0E35D4B321","7B23D183B7B942019358BD0E35D4B321","a9ab6bf4-46fc-4809-80a6-1c9d46895e84","bea99957-1862-4ad8-9558-57b91e42ce64","{""participantId"":""7B23D183B7B942019358BD0E35D4B321"",""assignmentId"":""a9ab6bf4-46fc-4809-80a6-1c9d46895e84"",""projectId"":""bea99957-1862-4ad8-9558-57b91e42ce64""}","https://test12345.live/?participantId=7B23D183B7B942019358BD0E35D4B321&assignmentId=a9ab6bf4-46fc-4809-80a6-1c9d46895e84&projectId=bea99957-1862-4ad8-9558-57b91e42ce64","","2357","","{""Q0"":2}","","[0]"
"","","","","","html-button-response","33","140517","0.0-25.0","7B23D183B7B942019358BD0E35D4B321","7B23D183B7B942019358BD0E35D4B321","a9ab6bf4-46fc-4809-80a6-1c9d46895e84","bea99957-1862-4ad8-9558-57b91e42ce64","{""participantId"":""7B23D183B7B942019358BD0E35D4B321"",""assignmentId"":""a9ab6bf4-46fc-4809-80a6-1c9d46895e84"",""projectId"":""bea99957-1862-4ad8-9558-57b91e42ce64""}","https://test12345.live/?participantId=7B23D183B7B942019358BD0E35D4B321&assignmentId=a9ab6bf4-46fc-4809-80a6-1c9d46895e84&projectId=bea99957-1862-4ad8-9558-57b91e42ce64","","1172","
    <div style=""display: flex; justify-content: center; align-items: center;"">
      <img src=""images/red_deck_2.png"" style=""width: 300px; height: 300px; margin-right: 10px;"" />
      <img src=""images/blue_deck_1.png"" style=""width: 300px; height: 300px;"" />
    </div>","0","0",""
"","","","","","html-keyboard-response","34","143520","0.0-27.0-0.0","7B23D183B7B942019358BD0E35D4B321","7B23D183B7B942019358BD0E35D4B321","a9ab6bf4-46fc-4809-80a6-1c9d46895e84","bea99957-1862-4ad8-9558-57b91e42ce64","{""participantId"":""7B23D183B7B942019358BD0E35D4B321"",""assignmentId"":""a9ab6bf4-46fc-4809-80a6-1c9d46895e84"",""projectId"":""bea99957-1862-4ad8-9558-57b91e42ce64""}","https://test12345.live/?participantId=7B23D183B7B942019358BD0E35D4B321&assignmentId=a9ab6bf4-46fc-4809-80a6-1c9d46895e84&projectId=bea99957-1862-4ad8-9558-57b91e42ce64","","null","<div style=""display: flex; justify-content: center; align-items: center;"">
                    <img src=""images/semantic/semantic_series_6/semantic_series_6_a.jpg"" style=""width: 300px; height: 300px;"" />
                  </div>","null","",""
"","","","","","html-keyboard-response","35","146521","0.0-27.0-1.0","7B23D183B7B942019358BD0E35D4B321","7B23D183B7B942019358BD0E35D4B321","a9ab6bf4-46fc-4809-80a6-1c9d46895e84","bea99957-1862-4ad8-9558-57b91e42ce64","{""participantId"":""7B23D183B7B942019358BD0E35D4B321"",""assignmentId"":""a9ab6bf4-46fc-4809-80a6-1c9d46895e84"",""projectId"":""bea99957-1862-4ad8-9558-57b91e42ce64""}","https://test12345.live/?participantId=7B23D183B7B942019358BD0E35D4B321&assignmentId=a9ab6bf4-46fc-4809-80a6-1c9d46895e84&projectId=bea99957-1862-4ad8-9558-57b91e42ce64","","null","<div style=""display: flex; justify-content: center; align-items: center;"">
                    <img src=""images/semantic/semantic_series_6/semantic_series_6_b.jpg"" style=""width: 300px; height: 300px;"" />
                  </div>","null","",""
"","","","","","html-keyboard-response","36","149524","0.0-27.0-2.0","7B23D183B7B942019358BD0E35D4B321","7B23D183B7B942019358BD0E35D4B321","a9ab6bf4-46fc-4809-80a6-1c9d46895e84","bea99957-1862-4ad8-9558-57b91e42ce64","{""participantId"":""7B23D183B7B942019358BD0E35D4B321"",""assignmentId"":""a9ab6bf4-46fc-4809-80a6-1c9d46895e84"",""projectId"":""bea99957-1862-4ad8-9558-57b91e42ce64""}","https://test12345.live/?participantId=7B23D183B7B942019358BD0E35D4B321&assignmentId=a9ab6bf4-46fc-4809-80a6-1c9d46895e84&projectId=bea99957-1862-4ad8-9558-57b91e42ce64","","null","<div style=""display: flex; justify-content: center; align-items: center;"">
                    <img src=""images/semantic/semantic_series_6/semantic_series_6_c.jpg"" style=""width: 300px; height: 300px;"" />
                  </div>","null","",""
"","","","","","html-keyboard-response","37","152538","0.0-27.0-3.0","7B23D183B7B942019358BD0E35D4B321","7B23D183B7B942019358BD0E35D4B321","a9ab6bf4-46fc-4809-80a6-1c9d46895e84","bea99957-1862-4ad8-9558-57b91e42ce64","{""participantId"":""7B23D183B7B942019358BD0E35D4B321"",""assignmentId"":""a9ab6bf4-46fc-4809-80a6-1c9d46895e84"",""projectId"":""bea99957-1862-4ad8-9558-57b91e42ce64""}","https://test12345.live/?participantId=7B23D183B7B942019358BD0E35D4B321&assignmentId=a9ab6bf4-46fc-4809-80a6-1c9d46895e84&projectId=bea99957-1862-4ad8-9558-57b91e42ce64","","null","<div style=""display: flex; justify-content: center; align-items: center;"">
                    <img src=""images/semantic/semantic_series_6/semantic_series_6_d.jpg"" style=""width: 300px; height: 300px;"" />
                  </div>","null","",""
"","","","","","html-button-response","38","153618","0.0-28.0","7B23D183B7B942019358BD0E35D4B321","7B23D183B7B942019358BD0E35D4B321","a9ab6bf4-46fc-4809-80a6-1c9d46895e84","bea99957-1862-4ad8-9558-57b91e42ce64","{""participantId"":""7B23D183B7B942019358BD0E35D4B321"",""assignmentId"":""a9ab6bf4-46fc-4809-80a6-1c9d46895e84"",""projectId"":""bea99957-1862-4ad8-9558-57b91e42ce64""}","https://test12345.live/?participantId=7B23D183B7B942019358BD0E35D4B321&assignmentId=a9ab6bf4-46fc-4809-80a6-1c9d46895e84&projectId=bea99957-1862-4ad8-9558-57b91e42ce64","","1080","Was there a person in the picture?","1","",""
"","","","","","survey-likert","39","157871","0.0-29.0","7B23D183B7B942019358BD0E35D4B321","7B23D183B7B942019358BD0E35D4B321","a9ab6bf4-46fc-4809-80a6-1c9d46895e84","bea99957-1862-4ad8-9558-57b91e42ce64","{""participantId"":""7B23D183B7B942019358BD0E35D4B321"",""assignmentId"":""a9ab6bf4-46fc-4809-80a6-1c9d46895e84"",""projectId"":""bea99957-1862-4ad8-9558-57b91e42ce64""}","https://test12345.live/?participantId=7B23D183B7B942019358BD0E35D4B321&assignmentId=a9ab6bf4-46fc-4809-80a6-1c9d46895e84&projectId=bea99957-1862-4ad8-9558-57b91e42ce64","","4252","","{""Q0"":2}","","[0]"
"","","","","","html-button-response","40","158548","0.0-30.0","7B23D183B7B942019358BD0E35D4B321","7B23D183B7B942019358BD0E35D4B321","a9ab6bf4-46fc-4809-80a6-1c9d46895e84","bea99957-1862-4ad8-9558-57b91e42ce64","{""participantId"":""7B23D183B7B942019358BD0E35D4B321"",""assignmentId"":""a9ab6bf4-46fc-4809-80a6-1c9d46895e84"",""projectId"":""bea99957-1862-4ad8-9558-57b91e42ce64""}","https://test12345.live/?participantId=7B23D183B7B942019358BD0E35D4B321&assignmentId=a9ab6bf4-46fc-4809-80a6-1c9d46895e84&projectId=bea99957-1862-4ad8-9558-57b91e42ce64","","676","
    <div style=""display: flex; justify-content: center; align-items: center;"">
      <img src=""images/red_deck_2.png"" style=""width: 300px; height: 300px; margin-right: 10px;"" />
      <img src=""images/blue_deck_1.png"" style=""width: 300px; height: 300px;"" />
    </div>","1","1",""
"","","","","","html-keyboard-response","41","161549","0.0-31.0-0.0","7B23D183B7B942019358BD0E35D4B321","7B23D183B7B942019358BD0E35D4B321","a9ab6bf4-46fc-4809-80a6-1c9d46895e84","bea99957-1862-4ad8-9558-57b91e42ce64","{""participantId"":""7B23D183B7B942019358BD0E35D4B321"",""assignmentId"":""a9ab6bf4-46fc-4809-80a6-1c9d46895e84"",""projectId"":""bea99957-1862-4ad8-9558-57b91e42ce64""}","https://test12345.live/?participantId=7B23D183B7B942019358BD0E35D4B321&assignmentId=a9ab6bf4-46fc-4809-80a6-1c9d46895e84&projectId=bea99957-1862-4ad8-9558-57b91e42ce64","","null","<div style=""display: flex; justify-content: center; align-items: center;"">
                    <img src=""images/causal/causal_series_17/causal_series_17_a.jpg"" style=""width: 300px; height: 300px;"" />
                  </div>","null","",""
"","","","","","html-keyboard-response","42","164562","0.0-31.0-1.0","7B23D183B7B942019358BD0E35D4B321","7B23D183B7B942019358BD0E35D4B321","a9ab6bf4-46fc-4809-80a6-1c9d46895e84","bea99957-1862-4ad8-9558-57b91e42ce64","{""participantId"":""7B23D183B7B942019358BD0E35D4B321"",""assignmentId"":""a9ab6bf4-46fc-4809-80a6-1c9d46895e84"",""projectId"":""bea99957-1862-4ad8-9558-57b91e42ce64""}","https://test12345.live/?participantId=7B23D183B7B942019358BD0E35D4B321&assignmentId=a9ab6bf4-46fc-4809-80a6-1c9d46895e84&projectId=bea99957-1862-4ad8-9558-57b91e42ce64","","null","<div style=""display: flex; justify-content: center; align-items: center;"">
                    <img src=""images/causal/causal_series_17/causal_series_17_b.jpg"" style=""width: 300px; height: 300px;"" />
                  </div>","null","",""
"","","","","","html-keyboard-response","43","167569","0.0-31.0-2.0","7B23D183B7B942019358BD0E35D4B321","7B23D183B7B942019358BD0E35D4B321","a9ab6bf4-46fc-4809-80a6-1c9d46895e84","bea99957-1862-4ad8-9558-57b91e42ce64","{""participantId"":""7B23D183B7B942019358BD0E35D4B321"",""assignmentId"":""a9ab6bf4-46fc-4809-80a6-1c9d46895e84"",""projectId"":""bea99957-1862-4ad8-9558-57b91e42ce64""}","https://test12345.live/?participantId=7B23D183B7B942019358BD0E35D4B321&assignmentId=a9ab6bf4-46fc-4809-80a6-1c9d46895e84&projectId=bea99957-1862-4ad8-9558-57b91e42ce64","","null","<div style=""display: flex; justify-content: center; align-items: center;"">
                    <img src=""images/causal/causal_series_17/causal_series_17_c.jpg"" style=""width: 300px; height: 300px;"" />
                  </div>","null","",""
"","","","","","html-keyboard-response","44","170585","0.0-31.0-3.0","7B23D183B7B942019358BD0E35D4B321","7B23D183B7B942019358BD0E35D4B321","a9ab6bf4-46fc-4809-80a6-1c9d46895e84","bea99957-1862-4ad8-9558-57b91e42ce64","{""participantId"":""7B23D183B7B942019358BD0E35D4B321"",""assignmentId"":""a9ab6bf4-46fc-4809-80a6-1c9d46895e84"",""projectId"":""bea99957-1862-4ad8-9558-57b91e42ce64""}","https://test12345.live/?participantId=7B23D183B7B942019358BD0E35D4B321&assignmentId=a9ab6bf4-46fc-4809-80a6-1c9d46895e84&projectId=bea99957-1862-4ad8-9558-57b91e42ce64","","null","<div style=""display: flex; justify-content: center; align-items: center;"">
                    <img src=""images/causal/causal_series_17/causal_series_17_d.jpg"" style=""width: 300px; height: 300px;"" />
                  </div>","null","",""
"","","","","","html-button-response","45","172184","0.0-33.0","7B23D183B7B942019358BD0E35D4B321","7B23D183B7B942019358BD0E35D4B321","a9ab6bf4-46fc-4809-80a6-1c9d46895e84","bea99957-1862-4ad8-9558-57b91e42ce64","{""participantId"":""7B23D183B7B942019358BD0E35D4B321"",""assignmentId"":""a9ab6bf4-46fc-4809-80a6-1c9d46895e84"",""projectId"":""bea99957-1862-4ad8-9558-57b91e42ce64""}","https://test12345.live/?participantId=7B23D183B7B942019358BD0E35D4B321&assignmentId=a9ab6bf4-46fc-4809-80a6-1c9d46895e84&projectId=bea99957-1862-4ad8-9558-57b91e42ce64","","1599","Was there a person in the picture?","0","",""
"","","","","","survey-likert","46","176949","0.0-34.0","7B23D183B7B942019358BD0E35D4B321","7B23D183B7B942019358BD0E35D4B321","a9ab6bf4-46fc-4809-80a6-1c9d46895e84","bea99957-1862-4ad8-9558-57b91e42ce64","{""participantId"":""7B23D183B7B942019358BD0E35D4B321"",""assignmentId"":""a9ab6bf4-46fc-4809-80a6-1c9d46895e84"",""projectId"":""bea99957-1862-4ad8-9558-57b91e42ce64""}","https://test12345.live/?participantId=7B23D183B7B942019358BD0E35D4B321&assignmentId=a9ab6bf4-46fc-4809-80a6-1c9d46895e84&projectId=bea99957-1862-4ad8-9558-57b91e42ce64","","4765","","{""Q0"":3}","","[0]"
"","","","","","html-button-response","47","179495","0.0-35.0","7B23D183B7B942019358BD0E35D4B321","7B23D183B7B942019358BD0E35D4B321","a9ab6bf4-46fc-4809-80a6-1c9d46895e84","bea99957-1862-4ad8-9558-57b91e42ce64","{""participantId"":""7B23D183B7B942019358BD0E35D4B321"",""assignmentId"":""a9ab6bf4-46fc-4809-80a6-1c9d46895e84"",""projectId"":""bea99957-1862-4ad8-9558-57b91e42ce64""}","https://test12345.live/?participantId=7B23D183B7B942019358BD0E35D4B321&assignmentId=a9ab6bf4-46fc-4809-80a6-1c9d46895e84&projectId=bea99957-1862-4ad8-9558-57b91e42ce64","","2545","
    <div style=""display: flex; justify-content: center; align-items: center;"">
      <img src=""images/red_deck_2.png"" style=""width: 300px; height: 300px; margin-right: 10px;"" />
      <img src=""images/blue_deck_1.png"" style=""width: 300px; height: 300px;"" />
    </div>","0","0",""
"","","","","","html-keyboard-response","48","182510","0.0-37.0-0.0","7B23D183B7B942019358BD0E35D4B321","7B23D183B7B942019358BD0E35D4B321","a9ab6bf4-46fc-4809-80a6-1c9d46895e84","bea99957-1862-4ad8-9558-57b91e42ce64","{""participantId"":""7B23D183B7B942019358BD0E35D4B321"",""assignmentId"":""a9ab6bf4-46fc-4809-80a6-1c9d46895e84"",""projectId"":""bea99957-1862-4ad8-9558-57b91e42ce64""}","https://test12345.live/?participantId=7B23D183B7B942019358BD0E35D4B321&assignmentId=a9ab6bf4-46fc-4809-80a6-1c9d46895e84&projectId=bea99957-1862-4ad8-9558-57b91e42ce64","","null","<div style=""display: flex; justify-content: center; align-items: center;"">
                    <img src=""images/semantic/semantic_series_11/semantic_series_11_a.jpg"" style=""width: 300px; height: 300px;"" />
                  </div>","null","",""
"","","","","","html-keyboard-response","49","185515","0.0-37.0-1.0","7B23D183B7B942019358BD0E35D4B321","7B23D183B7B942019358BD0E35D4B321","a9ab6bf4-46fc-4809-80a6-1c9d46895e84","bea99957-1862-4ad8-9558-57b91e42ce64","{""participantId"":""7B23D183B7B942019358BD0E35D4B321"",""assignmentId"":""a9ab6bf4-46fc-4809-80a6-1c9d46895e84"",""projectId"":""bea99957-1862-4ad8-9558-57b91e42ce64""}","https://test12345.live/?participantId=7B23D183B7B942019358BD0E35D4B321&assignmentId=a9ab6bf4-46fc-4809-80a6-1c9d46895e84&projectId=bea99957-1862-4ad8-9558-57b91e42ce64","","null","<div style=""display: flex; justify-content: center; align-items: center;"">
                    <img src=""images/semantic/semantic_series_11/semantic_series_11_b.jpg"" style=""width: 300px; height: 300px;"" />
                  </div>","null","",""
"","","","","","html-keyboard-response","50","188523","0.0-37.0-2.0","7B23D183B7B942019358BD0E35D4B321","7B23D183B7B942019358BD0E35D4B321","a9ab6bf4-46fc-4809-80a6-1c9d46895e84","bea99957-1862-4ad8-9558-57b91e42ce64","{""participantId"":""7B23D183B7B942019358BD0E35D4B321"",""assignmentId"":""a9ab6bf4-46fc-4809-80a6-1c9d46895e84"",""projectId"":""bea99957-1862-4ad8-9558-57b91e42ce64""}","https://test12345.live/?participantId=7B23D183B7B942019358BD0E35D4B321&assignmentId=a9ab6bf4-46fc-4809-80a6-1c9d46895e84&projectId=bea99957-1862-4ad8-9558-57b91e42ce64","","null","<div style=""display: flex; justify-content: center; align-items: center;"">
                    <img src=""images/semantic/semantic_series_11/semantic_series_11_c.jpg"" style=""width: 300px; height: 300px;"" />
                  </div>","null","",""
"","","","","","html-keyboard-response","51","191539","0.0-37.0-3.0","7B23D183B7B942019358BD0E35D4B321","7B23D183B7B942019358BD0E35D4B321","a9ab6bf4-46fc-4809-80a6-1c9d46895e84","bea99957-1862-4ad8-9558-57b91e42ce64","{""participantId"":""7B23D183B7B942019358BD0E35D4B321"",""assignmentId"":""a9ab6bf4-46fc-4809-80a6-1c9d46895e84"",""projectId"":""bea99957-1862-4ad8-9558-57b91e42ce64""}","https://test12345.live/?participantId=7B23D183B7B942019358BD0E35D4B321&assignmentId=a9ab6bf4-46fc-4809-80a6-1c9d46895e84&projectId=bea99957-1862-4ad8-9558-57b91e42ce64","","null","<div style=""display: flex; justify-content: center; align-items: center;"">
                    <img src=""images/semantic/semantic_series_11/semantic_series_11_d.jpg"" style=""width: 300px; height: 300px;"" />
                  </div>","null","",""
"","","","","","html-button-response","52","193408","0.0-38.0","7B23D183B7B942019358BD0E35D4B321","7B23D183B7B942019358BD0E35D4B321","a9ab6bf4-46fc-4809-80a6-1c9d46895e84","bea99957-1862-4ad8-9558-57b91e42ce64","{""participantId"":""7B23D183B7B942019358BD0E35D4B321"",""assignmentId"":""a9ab6bf4-46fc-4809-80a6-1c9d46895e84"",""projectId"":""bea99957-1862-4ad8-9558-57b91e42ce64""}","https://test12345.live/?participantId=7B23D183B7B942019358BD0E35D4B321&assignmentId=a9ab6bf4-46fc-4809-80a6-1c9d46895e84&projectId=bea99957-1862-4ad8-9558-57b91e42ce64","","1869","Was there a person in the picture?","0","",""
"","","","","","survey-likert","53","196077","0.0-39.0","7B23D183B7B942019358BD0E35D4B321","7B23D183B7B942019358BD0E35D4B321","a9ab6bf4-46fc-4809-80a6-1c9d46895e84","bea99957-1862-4ad8-9558-57b91e42ce64","{""participantId"":""7B23D183B7B942019358BD0E35D4B321"",""assignmentId"":""a9ab6bf4-46fc-4809-80a6-1c9d46895e84"",""projectId"":""bea99957-1862-4ad8-9558-57b91e42ce64""}","https://test12345.live/?participantId=7B23D183B7B942019358BD0E35D4B321&assignmentId=a9ab6bf4-46fc-4809-80a6-1c9d46895e84&projectId=bea99957-1862-4ad8-9558-57b91e42ce64","","2669","","{""Q0"":1}","","[0]"
"","","","","","html-button-response","54","197050","0.0-40.0","7B23D183B7B942019358BD0E35D4B321","7B23D183B7B942019358BD0E35D4B321","a9ab6bf4-46fc-4809-80a6-1c9d46895e84","bea99957-1862-4ad8-9558-57b91e42ce64","{""participantId"":""7B23D183B7B942019358BD0E35D4B321"",""assignmentId"":""a9ab6bf4-46fc-4809-80a6-1c9d46895e84"",""projectId"":""bea99957-1862-4ad8-9558-57b91e42ce64""}","https://test12345.live/?participantId=7B23D183B7B942019358BD0E35D4B321&assignmentId=a9ab6bf4-46fc-4809-80a6-1c9d46895e84&projectId=bea99957-1862-4ad8-9558-57b91e42ce64","","972","
    <div style=""display: flex; justify-content: center; align-items: center;"">
      <img src=""images/red_deck_2.png"" style=""width: 300px; height: 300px; margin-right: 10px;"" />
      <img src=""images/blue_deck_1.png"" style=""width: 300px; height: 300px;"" />
    </div>","0","0",""
"","","","","","html-keyboard-response","55","200058","0.0-42.0-0.0","7B23D183B7B942019358BD0E35D4B321","7B23D183B7B942019358BD0E35D4B321","a9ab6bf4-46fc-4809-80a6-1c9d46895e84","bea99957-1862-4ad8-9558-57b91e42ce64","{""participantId"":""7B23D183B7B942019358BD0E35D4B321"",""assignmentId"":""a9ab6bf4-46fc-4809-80a6-1c9d46895e84"",""projectId"":""bea99957-1862-4ad8-9558-57b91e42ce64""}","https://test12345.live/?participantId=7B23D183B7B942019358BD0E35D4B321&assignmentId=a9ab6bf4-46fc-4809-80a6-1c9d46895e84&projectId=bea99957-1862-4ad8-9558-57b91e42ce64","","null","<div style=""display: flex; justify-content: center; align-items: center;"">
                    <img src=""images/semantic/semantic_series_13/semantic_series_13_a.jpg"" style=""width: 300px; height: 300px;"" />
                  </div>","null","",""
"","","","","","html-keyboard-response","56","203073","0.0-42.0-1.0","7B23D183B7B942019358BD0E35D4B321","7B23D183B7B942019358BD0E35D4B321","a9ab6bf4-46fc-4809-80a6-1c9d46895e84","bea99957-1862-4ad8-9558-57b91e42ce64","{""participantId"":""7B23D183B7B942019358BD0E35D4B321"",""assignmentId"":""a9ab6bf4-46fc-4809-80a6-1c9d46895e84"",""projectId"":""bea99957-1862-4ad8-9558-57b91e42ce64""}","https://test12345.live/?participantId=7B23D183B7B942019358BD0E35D4B321&assignmentId=a9ab6bf4-46fc-4809-80a6-1c9d46895e84&projectId=bea99957-1862-4ad8-9558-57b91e42ce64","","null","<div style=""display: flex; justify-content: center; align-items: center;"">
                    <img src=""images/semantic/semantic_series_13/semantic_series_13_b.jpg"" style=""width: 300px; height: 300px;"" />
                  </div>","null","",""
"","","","","","html-keyboard-response","57","206084","0.0-42.0-2.0","7B23D183B7B942019358BD0E35D4B321","7B23D183B7B942019358BD0E35D4B321","a9ab6bf4-46fc-4809-80a6-1c9d46895e84","bea99957-1862-4ad8-9558-57b91e42ce64","{""participantId"":""7B23D183B7B942019358BD0E35D4B321"",""assignmentId"":""a9ab6bf4-46fc-4809-80a6-1c9d46895e84"",""projectId"":""bea99957-1862-4ad8-9558-57b91e42ce64""}","https://test12345.live/?participantId=7B23D183B7B942019358BD0E35D4B321&assignmentId=a9ab6bf4-46fc-4809-80a6-1c9d46895e84&projectId=bea99957-1862-4ad8-9558-57b91e42ce64","","null","<div style=""display: flex; justify-content: center; align-items: center;"">
                    <img src=""images/semantic/semantic_series_13/semantic_series_13_c.jpg"" style=""width: 300px; height: 300px;"" />
                  </div>","null","",""
"","","","","","html-keyboard-response","58","209086","0.0-42.0-3.0","7B23D183B7B942019358BD0E35D4B321","7B23D183B7B942019358BD0E35D4B321","a9ab6bf4-46fc-4809-80a6-1c9d46895e84","bea99957-1862-4ad8-9558-57b91e42ce64","{""participantId"":""7B23D183B7B942019358BD0E35D4B321"",""assignmentId"":""a9ab6bf4-46fc-4809-80a6-1c9d46895e84"",""projectId"":""bea99957-1862-4ad8-9558-57b91e42ce64""}","https://test12345.live/?participantId=7B23D183B7B942019358BD0E35D4B321&assignmentId=a9ab6bf4-46fc-4809-80a6-1c9d46895e84&projectId=bea99957-1862-4ad8-9558-57b91e42ce64","","null","<div style=""display: flex; justify-content: center; align-items: center;"">
                    <img src=""images/semantic/semantic_series_13/semantic_series_13_d.jpg"" style=""width: 300px; height: 300px;"" />
                  </div>","null","",""
"","","","","","html-button-response","59","211370","0.0-43.0","7B23D183B7B942019358BD0E35D4B321","7B23D183B7B942019358BD0E35D4B321","a9ab6bf4-46fc-4809-80a6-1c9d46895e84","bea99957-1862-4ad8-9558-57b91e42ce64","{""participantId"":""7B23D183B7B942019358BD0E35D4B321"",""assignmentId"":""a9ab6bf4-46fc-4809-80a6-1c9d46895e84"",""projectId"":""bea99957-1862-4ad8-9558-57b91e42ce64""}","https://test12345.live/?participantId=7B23D183B7B942019358BD0E35D4B321&assignmentId=a9ab6bf4-46fc-4809-80a6-1c9d46895e84&projectId=bea99957-1862-4ad8-9558-57b91e42ce64","","2283","Was there a person in the picture?","0","",""
"","","","","","survey-likert","60","214793","0.0-44.0","7B23D183B7B942019358BD0E35D4B321","7B23D183B7B942019358BD0E35D4B321","a9ab6bf4-46fc-4809-80a6-1c9d46895e84","bea99957-1862-4ad8-9558-57b91e42ce64","{""participantId"":""7B23D183B7B942019358BD0E35D4B321"",""assignmentId"":""a9ab6bf4-46fc-4809-80a6-1c9d46895e84"",""projectId"":""bea99957-1862-4ad8-9558-57b91e42ce64""}","https://test12345.live/?participantId=7B23D183B7B942019358BD0E35D4B321&assignmentId=a9ab6bf4-46fc-4809-80a6-1c9d46895e84&projectId=bea99957-1862-4ad8-9558-57b91e42ce64","","3423","","{""Q0"":1}","","[0]"
"","","","","","html-button-response","61","216714","0.0-45.0","7B23D183B7B942019358BD0E35D4B321","7B23D183B7B942019358BD0E35D4B321","a9ab6bf4-46fc-4809-80a6-1c9d46895e84","bea99957-1862-4ad8-9558-57b91e42ce64","{""participantId"":""7B23D183B7B942019358BD0E35D4B321"",""assignmentId"":""a9ab6bf4-46fc-4809-80a6-1c9d46895e84"",""projectId"":""bea99957-1862-4ad8-9558-57b91e42ce64""}","https://test12345.live/?participantId=7B23D183B7B942019358BD0E35D4B321&assignmentId=a9ab6bf4-46fc-4809-80a6-1c9d46895e84&projectId=bea99957-1862-4ad8-9558-57b91e42ce64","","1921","
    <div style=""display: flex; justify-content: center; align-items: center;"">
      <img src=""images/red_deck_2.png"" style=""width: 300px; height: 300px; margin-right: 10px;"" />
      <img src=""images/blue_deck_1.png"" style=""width: 300px; height: 300px;"" />
    </div>","1","1",""
"","","","","","html-keyboard-response","62","219721","0.0-46.0-0.0","7B23D183B7B942019358BD0E35D4B321","7B23D183B7B942019358BD0E35D4B321","a9ab6bf4-46fc-4809-80a6-1c9d46895e84","bea99957-1862-4ad8-9558-57b91e42ce64","{""participantId"":""7B23D183B7B942019358BD0E35D4B321"",""assignmentId"":""a9ab6bf4-46fc-4809-80a6-1c9d46895e84"",""projectId"":""bea99957-1862-4ad8-9558-57b91e42ce64""}","https://test12345.live/?participantId=7B23D183B7B942019358BD0E35D4B321&assignmentId=a9ab6bf4-46fc-4809-80a6-1c9d46895e84&projectId=bea99957-1862-4ad8-9558-57b91e42ce64","","null","<div style=""display: flex; justify-content: center; align-items: center;"">
                    <img src=""images/causal/causal_series_18/causal_series_18_a.jpg"" style=""width: 300px; height: 300px;"" />
                  </div>","null","",""
"","","","","","html-keyboard-response","63","222723","0.0-46.0-1.0","7B23D183B7B942019358BD0E35D4B321","7B23D183B7B942019358BD0E35D4B321","a9ab6bf4-46fc-4809-80a6-1c9d46895e84","bea99957-1862-4ad8-9558-57b91e42ce64","{""participantId"":""7B23D183B7B942019358BD0E35D4B321"",""assignmentId"":""a9ab6bf4-46fc-4809-80a6-1c9d46895e84"",""projectId"":""bea99957-1862-4ad8-9558-57b91e42ce64""}","https://test12345.live/?participantId=7B23D183B7B942019358BD0E35D4B321&assignmentId=a9ab6bf4-46fc-4809-80a6-1c9d46895e84&projectId=bea99957-1862-4ad8-9558-57b91e42ce64","","null","<div style=""display: flex; justify-content: center; align-items: center;"">
                    <img src=""images/causal/causal_series_18/causal_series_18_b.jpg"" style=""width: 300px; height: 300px;"" />
                  </div>","null","",""
"","","","","","html-keyboard-response","64","225731","0.0-46.0-2.0","7B23D183B7B942019358BD0E35D4B321","7B23D183B7B942019358BD0E35D4B321","a9ab6bf4-46fc-4809-80a6-1c9d46895e84","bea99957-1862-4ad8-9558-57b91e42ce64","{""participantId"":""7B23D183B7B942019358BD0E35D4B321"",""assignmentId"":""a9ab6bf4-46fc-4809-80a6-1c9d46895e84"",""projectId"":""bea99957-1862-4ad8-9558-57b91e42ce64""}","https://test12345.live/?participantId=7B23D183B7B942019358BD0E35D4B321&assignmentId=a9ab6bf4-46fc-4809-80a6-1c9d46895e84&projectId=bea99957-1862-4ad8-9558-57b91e42ce64","","null","<div style=""display: flex; justify-content: center; align-items: center;"">
                    <img src=""images/causal/causal_series_18/causal_series_18_c.jpg"" style=""width: 300px; height: 300px;"" />
                  </div>","null","",""
"","","","","","html-keyboard-response","65","228734","0.0-46.0-3.0","7B23D183B7B942019358BD0E35D4B321","7B23D183B7B942019358BD0E35D4B321","a9ab6bf4-46fc-4809-80a6-1c9d46895e84","bea99957-1862-4ad8-9558-57b91e42ce64","{""participantId"":""7B23D183B7B942019358BD0E35D4B321"",""assignmentId"":""a9ab6bf4-46fc-4809-80a6-1c9d46895e84"",""projectId"":""bea99957-1862-4ad8-9558-57b91e42ce64""}","https://test12345.live/?participantId=7B23D183B7B942019358BD0E35D4B321&assignmentId=a9ab6bf4-46fc-4809-80a6-1c9d46895e84&projectId=bea99957-1862-4ad8-9558-57b91e42ce64","","null","<div style=""display: flex; justify-content: center; align-items: center;"">
                    <img src=""images/causal/causal_series_18/causal_series_18_d.jpg"" style=""width: 300px; height: 300px;"" />
                  </div>","null","",""
"","","","","","html-button-response","66","230644","0.0-48.0","7B23D183B7B942019358BD0E35D4B321","7B23D183B7B942019358BD0E35D4B321","a9ab6bf4-46fc-4809-80a6-1c9d46895e84","bea99957-1862-4ad8-9558-57b91e42ce64","{""participantId"":""7B23D183B7B942019358BD0E35D4B321"",""assignmentId"":""a9ab6bf4-46fc-4809-80a6-1c9d46895e84"",""projectId"":""bea99957-1862-4ad8-9558-57b91e42ce64""}","https://test12345.live/?participantId=7B23D183B7B942019358BD0E35D4B321&assignmentId=a9ab6bf4-46fc-4809-80a6-1c9d46895e84&projectId=bea99957-1862-4ad8-9558-57b91e42ce64","","1909","Was there a person in the picture?","1","",""
"","","","","","survey-likert","67","237828","0.0-49.0","7B23D183B7B942019358BD0E35D4B321","7B23D183B7B942019358BD0E35D4B321","a9ab6bf4-46fc-4809-80a6-1c9d46895e84","bea99957-1862-4ad8-9558-57b91e42ce64","{""participantId"":""7B23D183B7B942019358BD0E35D4B321"",""assignmentId"":""a9ab6bf4-46fc-4809-80a6-1c9d46895e84"",""projectId"":""bea99957-1862-4ad8-9558-57b91e42ce64""}","https://test12345.live/?participantId=7B23D183B7B942019358BD0E35D4B321&assignmentId=a9ab6bf4-46fc-4809-80a6-1c9d46895e84&projectId=bea99957-1862-4ad8-9558-57b91e42ce64","","7184","","{""Q0"":1}","","[0]"
"","","","","","html-button-response","68","239439","0.0-50.0","7B23D183B7B942019358BD0E35D4B321","7B23D183B7B942019358BD0E35D4B321","a9ab6bf4-46fc-4809-80a6-1c9d46895e84","bea99957-1862-4ad8-9558-57b91e42ce64","{""participantId"":""7B23D183B7B942019358BD0E35D4B321"",""assignmentId"":""a9ab6bf4-46fc-4809-80a6-1c9d46895e84"",""projectId"":""bea99957-1862-4ad8-9558-57b91e42ce64""}","https://test12345.live/?participantId=7B23D183B7B942019358BD0E35D4B321&assignmentId=a9ab6bf4-46fc-4809-80a6-1c9d46895e84&projectId=bea99957-1862-4ad8-9558-57b91e42ce64","","1610","
    <div style=""display: flex; justify-content: center; align-items: center;"">
      <img src=""images/red_deck_2.png"" style=""width: 300px; height: 300px; margin-right: 10px;"" />
      <img src=""images/blue_deck_1.png"" style=""width: 300px; height: 300px;"" />
    </div>","1","1",""
"","","","","","html-keyboard-response","69","242452","0.0-51.0-0.0","7B23D183B7B942019358BD0E35D4B321","7B23D183B7B942019358BD0E35D4B321","a9ab6bf4-46fc-4809-80a6-1c9d46895e84","bea99957-1862-4ad8-9558-57b91e42ce64","{""participantId"":""7B23D183B7B942019358BD0E35D4B321"",""assignmentId"":""a9ab6bf4-46fc-4809-80a6-1c9d46895e84"",""projectId"":""bea99957-1862-4ad8-9558-57b91e42ce64""}","https://test12345.live/?participantId=7B23D183B7B942019358BD0E35D4B321&assignmentId=a9ab6bf4-46fc-4809-80a6-1c9d46895e84&projectId=bea99957-1862-4ad8-9558-57b91e42ce64","","null","<div style=""display: flex; justify-content: center; align-items: center;"">
                    <img src=""images/causal/causal_series_5/causal_series_5_a.jpg"" style=""width: 300px; height: 300px;"" />
                  </div>","null","",""
"","","","","","html-keyboard-response","70","245465","0.0-51.0-1.0","7B23D183B7B942019358BD0E35D4B321","7B23D183B7B942019358BD0E35D4B321","a9ab6bf4-46fc-4809-80a6-1c9d46895e84","bea99957-1862-4ad8-9558-57b91e42ce64","{""participantId"":""7B23D183B7B942019358BD0E35D4B321"",""assignmentId"":""a9ab6bf4-46fc-4809-80a6-1c9d46895e84"",""projectId"":""bea99957-1862-4ad8-9558-57b91e42ce64""}","https://test12345.live/?participantId=7B23D183B7B942019358BD0E35D4B321&assignmentId=a9ab6bf4-46fc-4809-80a6-1c9d46895e84&projectId=bea99957-1862-4ad8-9558-57b91e42ce64","","null","<div style=""display: flex; justify-content: center; align-items: center;"">
                    <img src=""images/causal/causal_series_5/causal_series_5_b.jpg"" style=""width: 300px; height: 300px;"" />
                  </div>","null","",""
"","","","","","html-keyboard-response","71","248467","0.0-51.0-2.0","7B23D183B7B942019358BD0E35D4B321","7B23D183B7B942019358BD0E35D4B321","a9ab6bf4-46fc-4809-80a6-1c9d46895e84","bea99957-1862-4ad8-9558-57b91e42ce64","{""participantId"":""7B23D183B7B942019358BD0E35D4B321"",""assignmentId"":""a9ab6bf4-46fc-4809-80a6-1c9d46895e84"",""projectId"":""bea99957-1862-4ad8-9558-57b91e42ce64""}","https://test12345.live/?participantId=7B23D183B7B942019358BD0E35D4B321&assignmentId=a9ab6bf4-46fc-4809-80a6-1c9d46895e84&projectId=bea99957-1862-4ad8-9558-57b91e42ce64","","null","<div style=""display: flex; justify-content: center; align-items: center;"">
                    <img src=""images/causal/causal_series_5/causal_series_5_c.jpg"" style=""width: 300px; height: 300px;"" />
                  </div>","null","",""
"","","","","","html-keyboard-response","72","251479","0.0-51.0-3.0","7B23D183B7B942019358BD0E35D4B321","7B23D183B7B942019358BD0E35D4B321","a9ab6bf4-46fc-4809-80a6-1c9d46895e84","bea99957-1862-4ad8-9558-57b91e42ce64","{""participantId"":""7B23D183B7B942019358BD0E35D4B321"",""assignmentId"":""a9ab6bf4-46fc-4809-80a6-1c9d46895e84"",""projectId"":""bea99957-1862-4ad8-9558-57b91e42ce64""}","https://test12345.live/?participantId=7B23D183B7B942019358BD0E35D4B321&assignmentId=a9ab6bf4-46fc-4809-80a6-1c9d46895e84&projectId=bea99957-1862-4ad8-9558-57b91e42ce64","","null","<div style=""display: flex; justify-content: center; align-items: center;"">
                    <img src=""images/causal/causal_series_5/causal_series_5_d.jpg"" style=""width: 300px; height: 300px;"" />
                  </div>","null","",""
"","","","","","html-button-response","73","252994","0.0-53.0","7B23D183B7B942019358BD0E35D4B321","7B23D183B7B942019358BD0E35D4B321","a9ab6bf4-46fc-4809-80a6-1c9d46895e84","bea99957-1862-4ad8-9558-57b91e42ce64","{""participantId"":""7B23D183B7B942019358BD0E35D4B321"",""assignmentId"":""a9ab6bf4-46fc-4809-80a6-1c9d46895e84"",""projectId"":""bea99957-1862-4ad8-9558-57b91e42ce64""}","https://test12345.live/?participantId=7B23D183B7B942019358BD0E35D4B321&assignmentId=a9ab6bf4-46fc-4809-80a6-1c9d46895e84&projectId=bea99957-1862-4ad8-9558-57b91e42ce64","","1515","Was there a person in the picture?","0","",""
"","","","","","survey-likert","74","257185","0.0-54.0","7B23D183B7B942019358BD0E35D4B321","7B23D183B7B942019358BD0E35D4B321","a9ab6bf4-46fc-4809-80a6-1c9d46895e84","bea99957-1862-4ad8-9558-57b91e42ce64","{""participantId"":""7B23D183B7B942019358BD0E35D4B321"",""assignmentId"":""a9ab6bf4-46fc-4809-80a6-1c9d46895e84"",""projectId"":""bea99957-1862-4ad8-9558-57b91e42ce64""}","https://test12345.live/?participantId=7B23D183B7B942019358BD0E35D4B321&assignmentId=a9ab6bf4-46fc-4809-80a6-1c9d46895e84&projectId=bea99957-1862-4ad8-9558-57b91e42ce64","","4190","","{""Q0"":1}","","[0]"
"","","","","","html-button-response","75","258453","0.0-55.0","7B23D183B7B942019358BD0E35D4B321","7B23D183B7B942019358BD0E35D4B321","a9ab6bf4-46fc-4809-80a6-1c9d46895e84","bea99957-1862-4ad8-9558-57b91e42ce64","{""participantId"":""7B23D183B7B942019358BD0E35D4B321"",""assignmentId"":""a9ab6bf4-46fc-4809-80a6-1c9d46895e84"",""projectId"":""bea99957-1862-4ad8-9558-57b91e42ce64""}","https://test12345.live/?participantId=7B23D183B7B942019358BD0E35D4B321&assignmentId=a9ab6bf4-46fc-4809-80a6-1c9d46895e84&projectId=bea99957-1862-4ad8-9558-57b91e42ce64","","1268","
    <div style=""display: flex; justify-content: center; align-items: center;"">
      <img src=""images/red_deck_2.png"" style=""width: 300px; height: 300px; margin-right: 10px;"" />
      <img src=""images/blue_deck_1.png"" style=""width: 300px; height: 300px;"" />
    </div>","0","0",""
"","","","","","html-keyboard-response","76","261456","0.0-57.0-0.0","7B23D183B7B942019358BD0E35D4B321","7B23D183B7B942019358BD0E35D4B321","a9ab6bf4-46fc-4809-80a6-1c9d46895e84","bea99957-1862-4ad8-9558-57b91e42ce64","{""participantId"":""7B23D183B7B942019358BD0E35D4B321"",""assignmentId"":""a9ab6bf4-46fc-4809-80a6-1c9d46895e84"",""projectId"":""bea99957-1862-4ad8-9558-57b91e42ce64""}","https://test12345.live/?participantId=7B23D183B7B942019358BD0E35D4B321&assignmentId=a9ab6bf4-46fc-4809-80a6-1c9d46895e84&projectId=bea99957-1862-4ad8-9558-57b91e42ce64","","null","<div style=""display: flex; justify-content: center; align-items: center;"">
                    <img src=""images/semantic/semantic_series_4/semantic_series_4_a.jpg"" style=""width: 300px; height: 300px;"" />
                  </div>","null","",""
"","","","","","html-keyboard-response","77","264471","0.0-57.0-1.0","7B23D183B7B942019358BD0E35D4B321","7B23D183B7B942019358BD0E35D4B321","a9ab6bf4-46fc-4809-80a6-1c9d46895e84","bea99957-1862-4ad8-9558-57b91e42ce64","{""participantId"":""7B23D183B7B942019358BD0E35D4B321"",""assignmentId"":""a9ab6bf4-46fc-4809-80a6-1c9d46895e84"",""projectId"":""bea99957-1862-4ad8-9558-57b91e42ce64""}","https://test12345.live/?participantId=7B23D183B7B942019358BD0E35D4B321&assignmentId=a9ab6bf4-46fc-4809-80a6-1c9d46895e84&projectId=bea99957-1862-4ad8-9558-57b91e42ce64","","null","<div style=""display: flex; justify-content: center; align-items: center;"">
                    <img src=""images/semantic/semantic_series_4/semantic_series_4_b.jpg"" style=""width: 300px; height: 300px;"" />
                  </div>","null","",""
"","","","","","html-keyboard-response","78","267477","0.0-57.0-2.0","7B23D183B7B942019358BD0E35D4B321","7B23D183B7B942019358BD0E35D4B321","a9ab6bf4-46fc-4809-80a6-1c9d46895e84","bea99957-1862-4ad8-9558-57b91e42ce64","{""participantId"":""7B23D183B7B942019358BD0E35D4B321"",""assignmentId"":""a9ab6bf4-46fc-4809-80a6-1c9d46895e84"",""projectId"":""bea99957-1862-4ad8-9558-57b91e42ce64""}","https://test12345.live/?participantId=7B23D183B7B942019358BD0E35D4B321&assignmentId=a9ab6bf4-46fc-4809-80a6-1c9d46895e84&projectId=bea99957-1862-4ad8-9558-57b91e42ce64","","null","<div style=""display: flex; justify-content: center; align-items: center;"">
                    <img src=""images/semantic/semantic_series_4/semantic_series_4_c.jpg"" style=""width: 300px; height: 300px;"" />
                  </div>","null","",""
"","","","","","html-keyboard-response","79","270478","0.0-57.0-3.0","7B23D183B7B942019358BD0E35D4B321","7B23D183B7B942019358BD0E35D4B321","a9ab6bf4-46fc-4809-80a6-1c9d46895e84","bea99957-1862-4ad8-9558-57b91e42ce64","{""participantId"":""7B23D183B7B942019358BD0E35D4B321"",""assignmentId"":""a9ab6bf4-46fc-4809-80a6-1c9d46895e84"",""projectId"":""bea99957-1862-4ad8-9558-57b91e42ce64""}","https://test12345.live/?participantId=7B23D183B7B942019358BD0E35D4B321&assignmentId=a9ab6bf4-46fc-4809-80a6-1c9d46895e84&projectId=bea99957-1862-4ad8-9558-57b91e42ce64","","null","<div style=""display: flex; justify-content: center; align-items: center;"">
                    <img src=""images/semantic/semantic_series_4/semantic_series_4_d.jpg"" style=""width: 300px; height: 300px;"" />
                  </div>","null","",""
"","","","","","html-button-response","80","271573","0.0-58.0","7B23D183B7B942019358BD0E35D4B321","7B23D183B7B942019358BD0E35D4B321","a9ab6bf4-46fc-4809-80a6-1c9d46895e84","bea99957-1862-4ad8-9558-57b91e42ce64","{""participantId"":""7B23D183B7B942019358BD0E35D4B321"",""assignmentId"":""a9ab6bf4-46fc-4809-80a6-1c9d46895e84"",""projectId"":""bea99957-1862-4ad8-9558-57b91e42ce64""}","https://test12345.live/?participantId=7B23D183B7B942019358BD0E35D4B321&assignmentId=a9ab6bf4-46fc-4809-80a6-1c9d46895e84&projectId=bea99957-1862-4ad8-9558-57b91e42ce64","","1094","Was there a person in the picture?","1","",""
"","","","","","survey-likert","81","275844","0.0-59.0","7B23D183B7B942019358BD0E35D4B321","7B23D183B7B942019358BD0E35D4B321","a9ab6bf4-46fc-4809-80a6-1c9d46895e84","bea99957-1862-4ad8-9558-57b91e42ce64","{""participantId"":""7B23D183B7B942019358BD0E35D4B321"",""assignmentId"":""a9ab6bf4-46fc-4809-80a6-1c9d46895e84"",""projectId"":""bea99957-1862-4ad8-9558-57b91e42ce64""}","https://test12345.live/?participantId=7B23D183B7B942019358BD0E35D4B321&assignmentId=a9ab6bf4-46fc-4809-80a6-1c9d46895e84&projectId=bea99957-1862-4ad8-9558-57b91e42ce64","","4271","","{""Q0"":1}","","[0]"
"","","","","","html-button-response","82","277059","0.0-60.0","7B23D183B7B942019358BD0E35D4B321","7B23D183B7B942019358BD0E35D4B321","a9ab6bf4-46fc-4809-80a6-1c9d46895e84","bea99957-1862-4ad8-9558-57b91e42ce64","{""participantId"":""7B23D183B7B942019358BD0E35D4B321"",""assignmentId"":""a9ab6bf4-46fc-4809-80a6-1c9d46895e84"",""projectId"":""bea99957-1862-4ad8-9558-57b91e42ce64""}","https://test12345.live/?participantId=7B23D183B7B942019358BD0E35D4B321&assignmentId=a9ab6bf4-46fc-4809-80a6-1c9d46895e84&projectId=bea99957-1862-4ad8-9558-57b91e42ce64","","1214","
    <div style=""display: flex; justify-content: center; align-items: center;"">
      <img src=""images/red_deck_2.png"" style=""width: 300px; height: 300px; margin-right: 10px;"" />
      <img src=""images/blue_deck_1.png"" style=""width: 300px; height: 300px;"" />
    </div>","1","1",""
"","","","","","html-keyboard-response","83","280064","0.0-61.0-0.0","7B23D183B7B942019358BD0E35D4B321","7B23D183B7B942019358BD0E35D4B321","a9ab6bf4-46fc-4809-80a6-1c9d46895e84","bea99957-1862-4ad8-9558-57b91e42ce64","{""participantId"":""7B23D183B7B942019358BD0E35D4B321"",""assignmentId"":""a9ab6bf4-46fc-4809-80a6-1c9d46895e84"",""projectId"":""bea99957-1862-4ad8-9558-57b91e42ce64""}","https://test12345.live/?participantId=7B23D183B7B942019358BD0E35D4B321&assignmentId=a9ab6bf4-46fc-4809-80a6-1c9d46895e84&projectId=bea99957-1862-4ad8-9558-57b91e42ce64","","null","<div style=""display: flex; justify-content: center; align-items: center;"">
                    <img src=""images/causal/causal_series_14/causal_series_14_a.jpg"" style=""width: 300px; height: 300px;"" />
                  </div>","null","",""
"","","","","","html-keyboard-response","84","283073","0.0-61.0-1.0","7B23D183B7B942019358BD0E35D4B321","7B23D183B7B942019358BD0E35D4B321","a9ab6bf4-46fc-4809-80a6-1c9d46895e84","bea99957-1862-4ad8-9558-57b91e42ce64","{""participantId"":""7B23D183B7B942019358BD0E35D4B321"",""assignmentId"":""a9ab6bf4-46fc-4809-80a6-1c9d46895e84"",""projectId"":""bea99957-1862-4ad8-9558-57b91e42ce64""}","https://test12345.live/?participantId=7B23D183B7B942019358BD0E35D4B321&assignmentId=a9ab6bf4-46fc-4809-80a6-1c9d46895e84&projectId=bea99957-1862-4ad8-9558-57b91e42ce64","","null","<div style=""display: flex; justify-content: center; align-items: center;"">
                    <img src=""images/causal/causal_series_14/causal_series_14_b.jpg"" style=""width: 300px; height: 300px;"" />
                  </div>","null","",""
"","","","","","html-keyboard-response","85","286078","0.0-61.0-2.0","7B23D183B7B942019358BD0E35D4B321","7B23D183B7B942019358BD0E35D4B321","a9ab6bf4-46fc-4809-80a6-1c9d46895e84","bea99957-1862-4ad8-9558-57b91e42ce64","{""participantId"":""7B23D183B7B942019358BD0E35D4B321"",""assignmentId"":""a9ab6bf4-46fc-4809-80a6-1c9d46895e84"",""projectId"":""bea99957-1862-4ad8-9558-57b91e42ce64""}","https://test12345.live/?participantId=7B23D183B7B942019358BD0E35D4B321&assignmentId=a9ab6bf4-46fc-4809-80a6-1c9d46895e84&projectId=bea99957-1862-4ad8-9558-57b91e42ce64","","null","<div style=""display: flex; justify-content: center; align-items: center;"">
                    <img src=""images/causal/causal_series_14/causal_series_14_c.jpg"" style=""width: 300px; height: 300px;"" />
                  </div>","null","",""
"","","","","","html-keyboard-response","86","289092","0.0-61.0-3.0","7B23D183B7B942019358BD0E35D4B321","7B23D183B7B942019358BD0E35D4B321","a9ab6bf4-46fc-4809-80a6-1c9d46895e84","bea99957-1862-4ad8-9558-57b91e42ce64","{""participantId"":""7B23D183B7B942019358BD0E35D4B321"",""assignmentId"":""a9ab6bf4-46fc-4809-80a6-1c9d46895e84"",""projectId"":""bea99957-1862-4ad8-9558-57b91e42ce64""}","https://test12345.live/?participantId=7B23D183B7B942019358BD0E35D4B321&assignmentId=a9ab6bf4-46fc-4809-80a6-1c9d46895e84&projectId=bea99957-1862-4ad8-9558-57b91e42ce64","","null","<div style=""display: flex; justify-content: center; align-items: center;"">
                    <img src=""images/causal/causal_series_14/causal_series_14_d.jpg"" style=""width: 300px; height: 300px;"" />
                  </div>","null","",""
"","","","","","html-button-response","87","290468","0.0-63.0","7B23D183B7B942019358BD0E35D4B321","7B23D183B7B942019358BD0E35D4B321","a9ab6bf4-46fc-4809-80a6-1c9d46895e84","bea99957-1862-4ad8-9558-57b91e42ce64","{""participantId"":""7B23D183B7B942019358BD0E35D4B321"",""assignmentId"":""a9ab6bf4-46fc-4809-80a6-1c9d46895e84"",""projectId"":""bea99957-1862-4ad8-9558-57b91e42ce64""}","https://test12345.live/?participantId=7B23D183B7B942019358BD0E35D4B321&assignmentId=a9ab6bf4-46fc-4809-80a6-1c9d46895e84&projectId=bea99957-1862-4ad8-9558-57b91e42ce64","","1376","Was there a person in the picture?","0","",""
"","","","","","survey-likert","88","292719","0.0-64.0","7B23D183B7B942019358BD0E35D4B321","7B23D183B7B942019358BD0E35D4B321","a9ab6bf4-46fc-4809-80a6-1c9d46895e84","bea99957-1862-4ad8-9558-57b91e42ce64","{""participantId"":""7B23D183B7B942019358BD0E35D4B321"",""assignmentId"":""a9ab6bf4-46fc-4809-80a6-1c9d46895e84"",""projectId"":""bea99957-1862-4ad8-9558-57b91e42ce64""}","https://test12345.live/?participantId=7B23D183B7B942019358BD0E35D4B321&assignmentId=a9ab6bf4-46fc-4809-80a6-1c9d46895e84&projectId=bea99957-1862-4ad8-9558-57b91e42ce64","","2251","","{""Q0"":3}","","[0]"
"","","","","","html-button-response","89","294203","0.0-65.0","7B23D183B7B942019358BD0E35D4B321","7B23D183B7B942019358BD0E35D4B321","a9ab6bf4-46fc-4809-80a6-1c9d46895e84","bea99957-1862-4ad8-9558-57b91e42ce64","{""participantId"":""7B23D183B7B942019358BD0E35D4B321"",""assignmentId"":""a9ab6bf4-46fc-4809-80a6-1c9d46895e84"",""projectId"":""bea99957-1862-4ad8-9558-57b91e42ce64""}","https://test12345.live/?participantId=7B23D183B7B942019358BD0E35D4B321&assignmentId=a9ab6bf4-46fc-4809-80a6-1c9d46895e84&projectId=bea99957-1862-4ad8-9558-57b91e42ce64","","1483","
    <div style=""display: flex; justify-content: center; align-items: center;"">
      <img src=""images/red_deck_2.png"" style=""width: 300px; height: 300px; margin-right: 10px;"" />
      <img src=""images/blue_deck_1.png"" style=""width: 300px; height: 300px;"" />
    </div>","1","1",""
"","","","","","html-keyboard-response","90","297212","0.0-66.0-0.0","7B23D183B7B942019358BD0E35D4B321","7B23D183B7B942019358BD0E35D4B321","a9ab6bf4-46fc-4809-80a6-1c9d46895e84","bea99957-1862-4ad8-9558-57b91e42ce64","{""participantId"":""7B23D183B7B942019358BD0E35D4B321"",""assignmentId"":""a9ab6bf4-46fc-4809-80a6-1c9d46895e84"",""projectId"":""bea99957-1862-4ad8-9558-57b91e42ce64""}","https://test12345.live/?participantId=7B23D183B7B942019358BD0E35D4B321&assignmentId=a9ab6bf4-46fc-4809-80a6-1c9d46895e84&projectId=bea99957-1862-4ad8-9558-57b91e42ce64","","null","<div style=""display: flex; justify-content: center; align-items: center;"">
                    <img src=""images/causal/causal_series_4/causal_series_4_a.jpg"" style=""width: 300px; height: 300px;"" />
                  </div>","null","",""
"","","","","","html-keyboard-response","91","300215","0.0-66.0-1.0","7B23D183B7B942019358BD0E35D4B321","7B23D183B7B942019358BD0E35D4B321","a9ab6bf4-46fc-4809-80a6-1c9d46895e84","bea99957-1862-4ad8-9558-57b91e42ce64","{""participantId"":""7B23D183B7B942019358BD0E35D4B321"",""assignmentId"":""a9ab6bf4-46fc-4809-80a6-1c9d46895e84"",""projectId"":""bea99957-1862-4ad8-9558-57b91e42ce64""}","https://test12345.live/?participantId=7B23D183B7B942019358BD0E35D4B321&assignmentId=a9ab6bf4-46fc-4809-80a6-1c9d46895e84&projectId=bea99957-1862-4ad8-9558-57b91e42ce64","","null","<div style=""display: flex; justify-content: center; align-items: center;"">
                    <img src=""images/causal/causal_series_4/causal_series_4_b.jpg"" style=""width: 300px; height: 300px;"" />
                  </div>","null","",""
"","","","","","html-keyboard-response","92","303219","0.0-66.0-2.0","7B23D183B7B942019358BD0E35D4B321","7B23D183B7B942019358BD0E35D4B321","a9ab6bf4-46fc-4809-80a6-1c9d46895e84","bea99957-1862-4ad8-9558-57b91e42ce64","{""participantId"":""7B23D183B7B942019358BD0E35D4B321"",""assignmentId"":""a9ab6bf4-46fc-4809-80a6-1c9d46895e84"",""projectId"":""bea99957-1862-4ad8-9558-57b91e42ce64""}","https://test12345.live/?participantId=7B23D183B7B942019358BD0E35D4B321&assignmentId=a9ab6bf4-46fc-4809-80a6-1c9d46895e84&projectId=bea99957-1862-4ad8-9558-57b91e42ce64","","null","<div style=""display: flex; justify-content: center; align-items: center;"">
                    <img src=""images/causal/causal_series_4/causal_series_4_c.jpg"" style=""width: 300px; height: 300px;"" />
                  </div>","null","",""
"","","","","","html-keyboard-response","93","306236","0.0-66.0-3.0","7B23D183B7B942019358BD0E35D4B321","7B23D183B7B942019358BD0E35D4B321","a9ab6bf4-46fc-4809-80a6-1c9d46895e84","bea99957-1862-4ad8-9558-57b91e42ce64","{""participantId"":""7B23D183B7B942019358BD0E35D4B321"",""assignmentId"":""a9ab6bf4-46fc-4809-80a6-1c9d46895e84"",""projectId"":""bea99957-1862-4ad8-9558-57b91e42ce64""}","https://test12345.live/?participantId=7B23D183B7B942019358BD0E35D4B321&assignmentId=a9ab6bf4-46fc-4809-80a6-1c9d46895e84&projectId=bea99957-1862-4ad8-9558-57b91e42ce64","","null","<div style=""display: flex; justify-content: center; align-items: center;"">
                    <img src=""images/causal/causal_series_4/causal_series_4_d.jpg"" style=""width: 300px; height: 300px;"" />
                  </div>","null","",""
"","","","","","html-button-response","94","307600","0.0-68.0","7B23D183B7B942019358BD0E35D4B321","7B23D183B7B942019358BD0E35D4B321","a9ab6bf4-46fc-4809-80a6-1c9d46895e84","bea99957-1862-4ad8-9558-57b91e42ce64","{""participantId"":""7B23D183B7B942019358BD0E35D4B321"",""assignmentId"":""a9ab6bf4-46fc-4809-80a6-1c9d46895e84"",""projectId"":""bea99957-1862-4ad8-9558-57b91e42ce64""}","https://test12345.live/?participantId=7B23D183B7B942019358BD0E35D4B321&assignmentId=a9ab6bf4-46fc-4809-80a6-1c9d46895e84&projectId=bea99957-1862-4ad8-9558-57b91e42ce64","","1364","Was there a person in the picture?","1","",""
"","","","","","survey-likert","95","311407","0.0-69.0","7B23D183B7B942019358BD0E35D4B321","7B23D183B7B942019358BD0E35D4B321","a9ab6bf4-46fc-4809-80a6-1c9d46895e84","bea99957-1862-4ad8-9558-57b91e42ce64","{""participantId"":""7B23D183B7B942019358BD0E35D4B321"",""assignmentId"":""a9ab6bf4-46fc-4809-80a6-1c9d46895e84"",""projectId"":""bea99957-1862-4ad8-9558-57b91e42ce64""}","https://test12345.live/?participantId=7B23D183B7B942019358BD0E35D4B321&assignmentId=a9ab6bf4-46fc-4809-80a6-1c9d46895e84&projectId=bea99957-1862-4ad8-9558-57b91e42ce64","","3806","","{""Q0"":2}","","[0]"
"","","","","","html-button-response","96","314799","0.0-70.0","7B23D183B7B942019358BD0E35D4B321","7B23D183B7B942019358BD0E35D4B321","a9ab6bf4-46fc-4809-80a6-1c9d46895e84","bea99957-1862-4ad8-9558-57b91e42ce64","{""participantId"":""7B23D183B7B942019358BD0E35D4B321"",""assignmentId"":""a9ab6bf4-46fc-4809-80a6-1c9d46895e84"",""projectId"":""bea99957-1862-4ad8-9558-57b91e42ce64""}","https://test12345.live/?participantId=7B23D183B7B942019358BD0E35D4B321&assignmentId=a9ab6bf4-46fc-4809-80a6-1c9d46895e84&projectId=bea99957-1862-4ad8-9558-57b91e42ce64","","3391","
    <div style=""display: flex; justify-content: center; align-items: center;"">
      <img src=""images/red_deck_2.png"" style=""width: 300px; height: 300px; margin-right: 10px;"" />
      <img src=""images/blue_deck_1.png"" style=""width: 300px; height: 300px;"" />
    </div>","0","0",""
"","","","","","html-keyboard-response","97","317811","0.0-72.0-0.0","7B23D183B7B942019358BD0E35D4B321","7B23D183B7B942019358BD0E35D4B321","a9ab6bf4-46fc-4809-80a6-1c9d46895e84","bea99957-1862-4ad8-9558-57b91e42ce64","{""participantId"":""7B23D183B7B942019358BD0E35D4B321"",""assignmentId"":""a9ab6bf4-46fc-4809-80a6-1c9d46895e84"",""projectId"":""bea99957-1862-4ad8-9558-57b91e42ce64""}","https://test12345.live/?participantId=7B23D183B7B942019358BD0E35D4B321&assignmentId=a9ab6bf4-46fc-4809-80a6-1c9d46895e84&projectId=bea99957-1862-4ad8-9558-57b91e42ce64","","null","<div style=""display: flex; justify-content: center; align-items: center;"">
                    <img src=""images/semantic/semantic_series_7/semantic_series_7_a.jpg"" style=""width: 300px; height: 300px;"" />
                  </div>","null","",""
"","","","","","html-keyboard-response","98","320824","0.0-72.0-1.0","7B23D183B7B942019358BD0E35D4B321","7B23D183B7B942019358BD0E35D4B321","a9ab6bf4-46fc-4809-80a6-1c9d46895e84","bea99957-1862-4ad8-9558-57b91e42ce64","{""participantId"":""7B23D183B7B942019358BD0E35D4B321"",""assignmentId"":""a9ab6bf4-46fc-4809-80a6-1c9d46895e84"",""projectId"":""bea99957-1862-4ad8-9558-57b91e42ce64""}","https://test12345.live/?participantId=7B23D183B7B942019358BD0E35D4B321&assignmentId=a9ab6bf4-46fc-4809-80a6-1c9d46895e84&projectId=bea99957-1862-4ad8-9558-57b91e42ce64","","null","<div style=""display: flex; justify-content: center; align-items: center;"">
                    <img src=""images/semantic/semantic_series_7/semantic_series_7_b.jpg"" style=""width: 300px; height: 300px;"" />
                  </div>","null","",""
"","","","","","html-keyboard-response","99","323826","0.0-72.0-2.0","7B23D183B7B942019358BD0E35D4B321","7B23D183B7B942019358BD0E35D4B321","a9ab6bf4-46fc-4809-80a6-1c9d46895e84","bea99957-1862-4ad8-9558-57b91e42ce64","{""participantId"":""7B23D183B7B942019358BD0E35D4B321"",""assignmentId"":""a9ab6bf4-46fc-4809-80a6-1c9d46895e84"",""projectId"":""bea99957-1862-4ad8-9558-57b91e42ce64""}","https://test12345.live/?participantId=7B23D183B7B942019358BD0E35D4B321&assignmentId=a9ab6bf4-46fc-4809-80a6-1c9d46895e84&projectId=bea99957-1862-4ad8-9558-57b91e42ce64","","null","<div style=""display: flex; justify-content: center; align-items: center;"">
                    <img src=""images/semantic/semantic_series_7/semantic_series_7_c.jpg"" style=""width: 300px; height: 300px;"" />
                  </div>","null","",""
"","","","","","html-keyboard-response","100","326835","0.0-72.0-3.0","7B23D183B7B942019358BD0E35D4B321","7B23D183B7B942019358BD0E35D4B321","a9ab6bf4-46fc-4809-80a6-1c9d46895e84","bea99957-1862-4ad8-9558-57b91e42ce64","{""participantId"":""7B23D183B7B942019358BD0E35D4B321"",""assignmentId"":""a9ab6bf4-46fc-4809-80a6-1c9d46895e84"",""projectId"":""bea99957-1862-4ad8-9558-57b91e42ce64""}","https://test12345.live/?participantId=7B23D183B7B942019358BD0E35D4B321&assignmentId=a9ab6bf4-46fc-4809-80a6-1c9d46895e84&projectId=bea99957-1862-4ad8-9558-57b91e42ce64","","null","<div style=""display: flex; justify-content: center; align-items: center;"">
                    <img src=""images/semantic/semantic_series_7/semantic_series_7_d.jpg"" style=""width: 300px; height: 300px;"" />
                  </div>","null","",""
"","","","","","html-button-response","101","328126","0.0-73.0","7B23D183B7B942019358BD0E35D4B321","7B23D183B7B942019358BD0E35D4B321","a9ab6bf4-46fc-4809-80a6-1c9d46895e84","bea99957-1862-4ad8-9558-57b91e42ce64","{""participantId"":""7B23D183B7B942019358BD0E35D4B321"",""assignmentId"":""a9ab6bf4-46fc-4809-80a6-1c9d46895e84"",""projectId"":""bea99957-1862-4ad8-9558-57b91e42ce64""}","https://test12345.live/?participantId=7B23D183B7B942019358BD0E35D4B321&assignmentId=a9ab6bf4-46fc-4809-80a6-1c9d46895e84&projectId=bea99957-1862-4ad8-9558-57b91e42ce64","","1291","Was there a person in the picture?","1","",""
"","","","","","survey-likert","102","330346","0.0-74.0","7B23D183B7B942019358BD0E35D4B321","7B23D183B7B942019358BD0E35D4B321","a9ab6bf4-46fc-4809-80a6-1c9d46895e84","bea99957-1862-4ad8-9558-57b91e42ce64","{""participantId"":""7B23D183B7B942019358BD0E35D4B321"",""assignmentId"":""a9ab6bf4-46fc-4809-80a6-1c9d46895e84"",""projectId"":""bea99957-1862-4ad8-9558-57b91e42ce64""}","https://test12345.live/?participantId=7B23D183B7B942019358BD0E35D4B321&assignmentId=a9ab6bf4-46fc-4809-80a6-1c9d46895e84&projectId=bea99957-1862-4ad8-9558-57b91e42ce64","","2219","","{""Q0"":1}","","[0]"
"","","","","","html-button-response","103","331810","0.0-75.0","7B23D183B7B942019358BD0E35D4B321","7B23D183B7B942019358BD0E35D4B321","a9ab6bf4-46fc-4809-80a6-1c9d46895e84","bea99957-1862-4ad8-9558-57b91e42ce64","{""participantId"":""7B23D183B7B942019358BD0E35D4B321"",""assignmentId"":""a9ab6bf4-46fc-4809-80a6-1c9d46895e84"",""projectId"":""bea99957-1862-4ad8-9558-57b91e42ce64""}","https://test12345.live/?participantId=7B23D183B7B942019358BD0E35D4B321&assignmentId=a9ab6bf4-46fc-4809-80a6-1c9d46895e84&projectId=bea99957-1862-4ad8-9558-57b91e42ce64","","1464","
    <div style=""display: flex; justify-content: center; align-items: center;"">
      <img src=""images/red_deck_2.png"" style=""width: 300px; height: 300px; margin-right: 10px;"" />
      <img src=""images/blue_deck_1.png"" style=""width: 300px; height: 300px;"" />
    </div>","1","1",""
"","","","","","html-keyboard-response","104","334813","0.0-76.0-0.0","7B23D183B7B942019358BD0E35D4B321","7B23D183B7B942019358BD0E35D4B321","a9ab6bf4-46fc-4809-80a6-1c9d46895e84","bea99957-1862-4ad8-9558-57b91e42ce64","{""participantId"":""7B23D183B7B942019358BD0E35D4B321"",""assignmentId"":""a9ab6bf4-46fc-4809-80a6-1c9d46895e84"",""projectId"":""bea99957-1862-4ad8-9558-57b91e42ce64""}","https://test12345.live/?participantId=7B23D183B7B942019358BD0E35D4B321&assignmentId=a9ab6bf4-46fc-4809-80a6-1c9d46895e84&projectId=bea99957-1862-4ad8-9558-57b91e42ce64","","null","<div style=""display: flex; justify-content: center; align-items: center;"">
                    <img src=""images/causal/causal_series_12/causal_series_12_a.jpg"" style=""width: 300px; height: 300px;"" />
                  </div>","null","",""
"","","","","","html-keyboard-response","105","337820","0.0-76.0-1.0","7B23D183B7B942019358BD0E35D4B321","7B23D183B7B942019358BD0E35D4B321","a9ab6bf4-46fc-4809-80a6-1c9d46895e84","bea99957-1862-4ad8-9558-57b91e42ce64","{""participantId"":""7B23D183B7B942019358BD0E35D4B321"",""assignmentId"":""a9ab6bf4-46fc-4809-80a6-1c9d46895e84"",""projectId"":""bea99957-1862-4ad8-9558-57b91e42ce64""}","https://test12345.live/?participantId=7B23D183B7B942019358BD0E35D4B321&assignmentId=a9ab6bf4-46fc-4809-80a6-1c9d46895e84&projectId=bea99957-1862-4ad8-9558-57b91e42ce64","","null","<div style=""display: flex; justify-content: center; align-items: center;"">
                    <img src=""images/causal/causal_series_12/causal_series_12_b.jpg"" style=""width: 300px; height: 300px;"" />
                  </div>","null","",""
"","","","","","html-keyboard-response","106","340825","0.0-76.0-2.0","7B23D183B7B942019358BD0E35D4B321","7B23D183B7B942019358BD0E35D4B321","a9ab6bf4-46fc-4809-80a6-1c9d46895e84","bea99957-1862-4ad8-9558-57b91e42ce64","{""participantId"":""7B23D183B7B942019358BD0E35D4B321"",""assignmentId"":""a9ab6bf4-46fc-4809-80a6-1c9d46895e84"",""projectId"":""bea99957-1862-4ad8-9558-57b91e42ce64""}","https://test12345.live/?participantId=7B23D183B7B942019358BD0E35D4B321&assignmentId=a9ab6bf4-46fc-4809-80a6-1c9d46895e84&projectId=bea99957-1862-4ad8-9558-57b91e42ce64","","null","<div style=""display: flex; justify-content: center; align-items: center;"">
                    <img src=""images/causal/causal_series_12/causal_series_12_c.jpg"" style=""width: 300px; height: 300px;"" />
                  </div>","null","",""
"","","","","","html-keyboard-response","107","343830","0.0-76.0-3.0","7B23D183B7B942019358BD0E35D4B321","7B23D183B7B942019358BD0E35D4B321","a9ab6bf4-46fc-4809-80a6-1c9d46895e84","bea99957-1862-4ad8-9558-57b91e42ce64","{""participantId"":""7B23D183B7B942019358BD0E35D4B321"",""assignmentId"":""a9ab6bf4-46fc-4809-80a6-1c9d46895e84"",""projectId"":""bea99957-1862-4ad8-9558-57b91e42ce64""}","https://test12345.live/?participantId=7B23D183B7B942019358BD0E35D4B321&assignmentId=a9ab6bf4-46fc-4809-80a6-1c9d46895e84&projectId=bea99957-1862-4ad8-9558-57b91e42ce64","","null","<div style=""display: flex; justify-content: center; align-items: center;"">
                    <img src=""images/causal/causal_series_12/causal_series_12_d.jpg"" style=""width: 300px; height: 300px;"" />
                  </div>","null","",""
"","","","","","html-button-response","108","345149","0.0-78.0","7B23D183B7B942019358BD0E35D4B321","7B23D183B7B942019358BD0E35D4B321","a9ab6bf4-46fc-4809-80a6-1c9d46895e84","bea99957-1862-4ad8-9558-57b91e42ce64","{""participantId"":""7B23D183B7B942019358BD0E35D4B321"",""assignmentId"":""a9ab6bf4-46fc-4809-80a6-1c9d46895e84"",""projectId"":""bea99957-1862-4ad8-9558-57b91e42ce64""}","https://test12345.live/?participantId=7B23D183B7B942019358BD0E35D4B321&assignmentId=a9ab6bf4-46fc-4809-80a6-1c9d46895e84&projectId=bea99957-1862-4ad8-9558-57b91e42ce64","","1319","Was there a person in the picture?","1","",""
"","","","","","survey-likert","109","346843","0.0-79.0","7B23D183B7B942019358BD0E35D4B321","7B23D183B7B942019358BD0E35D4B321","a9ab6bf4-46fc-4809-80a6-1c9d46895e84","bea99957-1862-4ad8-9558-57b91e42ce64","{""participantId"":""7B23D183B7B942019358BD0E35D4B321"",""assignmentId"":""a9ab6bf4-46fc-4809-80a6-1c9d46895e84"",""projectId"":""bea99957-1862-4ad8-9558-57b91e42ce64""}","https://test12345.live/?participantId=7B23D183B7B942019358BD0E35D4B321&assignmentId=a9ab6bf4-46fc-4809-80a6-1c9d46895e84&projectId=bea99957-1862-4ad8-9558-57b91e42ce64","","1694","","{""Q0"":2}","","[0]"
"","","","","","html-button-response","110","348516","0.0-80.0","7B23D183B7B942019358BD0E35D4B321","7B23D183B7B942019358BD0E35D4B321","a9ab6bf4-46fc-4809-80a6-1c9d46895e84","bea99957-1862-4ad8-9558-57b91e42ce64","{""participantId"":""7B23D183B7B942019358BD0E35D4B321"",""assignmentId"":""a9ab6bf4-46fc-4809-80a6-1c9d46895e84"",""projectId"":""bea99957-1862-4ad8-9558-57b91e42ce64""}","https://test12345.live/?participantId=7B23D183B7B942019358BD0E35D4B321&assignmentId=a9ab6bf4-46fc-4809-80a6-1c9d46895e84&projectId=bea99957-1862-4ad8-9558-57b91e42ce64","","1671","
    <div style=""display: flex; justify-content: center; align-items: center;"">
      <img src=""images/red_deck_2.png"" style=""width: 300px; height: 300px; margin-right: 10px;"" />
      <img src=""images/blue_deck_1.png"" style=""width: 300px; height: 300px;"" />
    </div>","0","0",""
"","","","","","html-keyboard-response","111","351528","0.0-82.0-0.0","7B23D183B7B942019358BD0E35D4B321","7B23D183B7B942019358BD0E35D4B321","a9ab6bf4-46fc-4809-80a6-1c9d46895e84","bea99957-1862-4ad8-9558-57b91e42ce64","{""participantId"":""7B23D183B7B942019358BD0E35D4B321"",""assignmentId"":""a9ab6bf4-46fc-4809-80a6-1c9d46895e84"",""projectId"":""bea99957-1862-4ad8-9558-57b91e42ce64""}","https://test12345.live/?participantId=7B23D183B7B942019358BD0E35D4B321&assignmentId=a9ab6bf4-46fc-4809-80a6-1c9d46895e84&projectId=bea99957-1862-4ad8-9558-57b91e42ce64","","null","<div style=""display: flex; justify-content: center; align-items: center;"">
                    <img src=""images/semantic/semantic_series_17/semantic_series_17_a.jpg"" style=""width: 300px; height: 300px;"" />
                  </div>","null","",""
"","","","","","html-keyboard-response","112","354543","0.0-82.0-1.0","7B23D183B7B942019358BD0E35D4B321","7B23D183B7B942019358BD0E35D4B321","a9ab6bf4-46fc-4809-80a6-1c9d46895e84","bea99957-1862-4ad8-9558-57b91e42ce64","{""participantId"":""7B23D183B7B942019358BD0E35D4B321"",""assignmentId"":""a9ab6bf4-46fc-4809-80a6-1c9d46895e84"",""projectId"":""bea99957-1862-4ad8-9558-57b91e42ce64""}","https://test12345.live/?participantId=7B23D183B7B942019358BD0E35D4B321&assignmentId=a9ab6bf4-46fc-4809-80a6-1c9d46895e84&projectId=bea99957-1862-4ad8-9558-57b91e42ce64","","null","<div style=""display: flex; justify-content: center; align-items: center;"">
                    <img src=""images/semantic/semantic_series_17/semantic_series_17_b.jpg"" style=""width: 300px; height: 300px;"" />
                  </div>","null","",""
"","","","","","html-keyboard-response","113","357558","0.0-82.0-2.0","7B23D183B7B942019358BD0E35D4B321","7B23D183B7B942019358BD0E35D4B321","a9ab6bf4-46fc-4809-80a6-1c9d46895e84","bea99957-1862-4ad8-9558-57b91e42ce64","{""participantId"":""7B23D183B7B942019358BD0E35D4B321"",""assignmentId"":""a9ab6bf4-46fc-4809-80a6-1c9d46895e84"",""projectId"":""bea99957-1862-4ad8-9558-57b91e42ce64""}","https://test12345.live/?participantId=7B23D183B7B942019358BD0E35D4B321&assignmentId=a9ab6bf4-46fc-4809-80a6-1c9d46895e84&projectId=bea99957-1862-4ad8-9558-57b91e42ce64","","null","<div style=""display: flex; justify-content: center; align-items: center;"">
                    <img src=""images/semantic/semantic_series_17/semantic_series_17_c.jpg"" style=""width: 300px; height: 300px;"" />
                  </div>","null","",""
"","","","","","html-keyboard-response","114","360565","0.0-82.0-3.0","7B23D183B7B942019358BD0E35D4B321","7B23D183B7B942019358BD0E35D4B321","a9ab6bf4-46fc-4809-80a6-1c9d46895e84","bea99957-1862-4ad8-9558-57b91e42ce64","{""participantId"":""7B23D183B7B942019358BD0E35D4B321"",""assignmentId"":""a9ab6bf4-46fc-4809-80a6-1c9d46895e84"",""projectId"":""bea99957-1862-4ad8-9558-57b91e42ce64""}","https://test12345.live/?participantId=7B23D183B7B942019358BD0E35D4B321&assignmentId=a9ab6bf4-46fc-4809-80a6-1c9d46895e84&projectId=bea99957-1862-4ad8-9558-57b91e42ce64","","null","<div style=""display: flex; justify-content: center; align-items: center;"">
                    <img src=""images/semantic/semantic_series_17/semantic_series_17_d.jpg"" style=""width: 300px; height: 300px;"" />
                  </div>","null","",""
"","","","","","html-button-response","115","362291","0.0-83.0","7B23D183B7B942019358BD0E35D4B321","7B23D183B7B942019358BD0E35D4B321","a9ab6bf4-46fc-4809-80a6-1c9d46895e84","bea99957-1862-4ad8-9558-57b91e42ce64","{""participantId"":""7B23D183B7B942019358BD0E35D4B321"",""assignmentId"":""a9ab6bf4-46fc-4809-80a6-1c9d46895e84"",""projectId"":""bea99957-1862-4ad8-9558-57b91e42ce64""}","https://test12345.live/?participantId=7B23D183B7B942019358BD0E35D4B321&assignmentId=a9ab6bf4-46fc-4809-80a6-1c9d46895e84&projectId=bea99957-1862-4ad8-9558-57b91e42ce64","","1725","Was there a person in the picture?","0","",""
"","","","","","survey-likert","116","365009","0.0-84.0","7B23D183B7B942019358BD0E35D4B321","7B23D183B7B942019358BD0E35D4B321","a9ab6bf4-46fc-4809-80a6-1c9d46895e84","bea99957-1862-4ad8-9558-57b91e42ce64","{""participantId"":""7B23D183B7B942019358BD0E35D4B321"",""assignmentId"":""a9ab6bf4-46fc-4809-80a6-1c9d46895e84"",""projectId"":""bea99957-1862-4ad8-9558-57b91e42ce64""}","https://test12345.live/?participantId=7B23D183B7B942019358BD0E35D4B321&assignmentId=a9ab6bf4-46fc-4809-80a6-1c9d46895e84&projectId=bea99957-1862-4ad8-9558-57b91e42ce64","","2718","","{""Q0"":1}","","[0]"
"","","","","","html-button-response","117","366372","0.0-85.0","7B23D183B7B942019358BD0E35D4B321","7B23D183B7B942019358BD0E35D4B321","a9ab6bf4-46fc-4809-80a6-1c9d46895e84","bea99957-1862-4ad8-9558-57b91e42ce64","{""participantId"":""7B23D183B7B942019358BD0E35D4B321"",""assignmentId"":""a9ab6bf4-46fc-4809-80a6-1c9d46895e84"",""projectId"":""bea99957-1862-4ad8-9558-57b91e42ce64""}","https://test12345.live/?participantId=7B23D183B7B942019358BD0E35D4B321&assignmentId=a9ab6bf4-46fc-4809-80a6-1c9d46895e84&projectId=bea99957-1862-4ad8-9558-57b91e42ce64","","1362","
    <div style=""display: flex; justify-content: center; align-items: center;"">
      <img src=""images/red_deck_2.png"" style=""width: 300px; height: 300px; margin-right: 10px;"" />
      <img src=""images/blue_deck_1.png"" style=""width: 300px; height: 300px;"" />
    </div>","1","1",""
"","","","","","html-keyboard-response","118","369383","0.0-86.0-0.0","7B23D183B7B942019358BD0E35D4B321","7B23D183B7B942019358BD0E35D4B321","a9ab6bf4-46fc-4809-80a6-1c9d46895e84","bea99957-1862-4ad8-9558-57b91e42ce64","{""participantId"":""7B23D183B7B942019358BD0E35D4B321"",""assignmentId"":""a9ab6bf4-46fc-4809-80a6-1c9d46895e84"",""projectId"":""bea99957-1862-4ad8-9558-57b91e42ce64""}","https://test12345.live/?participantId=7B23D183B7B942019358BD0E35D4B321&assignmentId=a9ab6bf4-46fc-4809-80a6-1c9d46895e84&projectId=bea99957-1862-4ad8-9558-57b91e42ce64","","null","<div style=""display: flex; justify-content: center; align-items: center;"">
                    <img src=""images/causal/causal_series_8/causal_series_8_a.jpg"" style=""width: 300px; height: 300px;"" />
                  </div>","null","",""
"","","","","","html-keyboard-response","119","372396","0.0-86.0-1.0","7B23D183B7B942019358BD0E35D4B321","7B23D183B7B942019358BD0E35D4B321","a9ab6bf4-46fc-4809-80a6-1c9d46895e84","bea99957-1862-4ad8-9558-57b91e42ce64","{""participantId"":""7B23D183B7B942019358BD0E35D4B321"",""assignmentId"":""a9ab6bf4-46fc-4809-80a6-1c9d46895e84"",""projectId"":""bea99957-1862-4ad8-9558-57b91e42ce64""}","https://test12345.live/?participantId=7B23D183B7B942019358BD0E35D4B321&assignmentId=a9ab6bf4-46fc-4809-80a6-1c9d46895e84&projectId=bea99957-1862-4ad8-9558-57b91e42ce64","","null","<div style=""display: flex; justify-content: center; align-items: center;"">
                    <img src=""images/causal/causal_series_8/causal_series_8_b.jpg"" style=""width: 300px; height: 300px;"" />
                  </div>","null","",""
"","","","","","html-keyboard-response","120","375400","0.0-86.0-2.0","7B23D183B7B942019358BD0E35D4B321","7B23D183B7B942019358BD0E35D4B321","a9ab6bf4-46fc-4809-80a6-1c9d46895e84","bea99957-1862-4ad8-9558-57b91e42ce64","{""participantId"":""7B23D183B7B942019358BD0E35D4B321"",""assignmentId"":""a9ab6bf4-46fc-4809-80a6-1c9d46895e84"",""projectId"":""bea99957-1862-4ad8-9558-57b91e42ce64""}","https://test12345.live/?participantId=7B23D183B7B942019358BD0E35D4B321&assignmentId=a9ab6bf4-46fc-4809-80a6-1c9d46895e84&projectId=bea99957-1862-4ad8-9558-57b91e42ce64","","null","<div style=""display: flex; justify-content: center; align-items: center;"">
                    <img src=""images/causal/causal_series_8/causal_series_8_c.jpg"" style=""width: 300px; height: 300px;"" />
                  </div>","null","",""
"","","","","","html-keyboard-response","121","378413","0.0-86.0-3.0","7B23D183B7B942019358BD0E35D4B321","7B23D183B7B942019358BD0E35D4B321","a9ab6bf4-46fc-4809-80a6-1c9d46895e84","bea99957-1862-4ad8-9558-57b91e42ce64","{""participantId"":""7B23D183B7B942019358BD0E35D4B321"",""assignmentId"":""a9ab6bf4-46fc-4809-80a6-1c9d46895e84"",""projectId"":""bea99957-1862-4ad8-9558-57b91e42ce64""}","https://test12345.live/?participantId=7B23D183B7B942019358BD0E35D4B321&assignmentId=a9ab6bf4-46fc-4809-80a6-1c9d46895e84&projectId=bea99957-1862-4ad8-9558-57b91e42ce64","","null","<div style=""display: flex; justify-content: center; align-items: center;"">
                    <img src=""images/causal/causal_series_8/causal_series_8_d.jpg"" style=""width: 300px; height: 300px;"" />
                  </div>","null","",""
"","","","","","html-button-response","122","382047","0.0-88.0","7B23D183B7B942019358BD0E35D4B321","7B23D183B7B942019358BD0E35D4B321","a9ab6bf4-46fc-4809-80a6-1c9d46895e84","bea99957-1862-4ad8-9558-57b91e42ce64","{""participantId"":""7B23D183B7B942019358BD0E35D4B321"",""assignmentId"":""a9ab6bf4-46fc-4809-80a6-1c9d46895e84"",""projectId"":""bea99957-1862-4ad8-9558-57b91e42ce64""}","https://test12345.live/?participantId=7B23D183B7B942019358BD0E35D4B321&assignmentId=a9ab6bf4-46fc-4809-80a6-1c9d46895e84&projectId=bea99957-1862-4ad8-9558-57b91e42ce64","","3633","Was there a person in the picture?","0","",""
"","","","","","survey-likert","123","385491","0.0-89.0","7B23D183B7B942019358BD0E35D4B321","7B23D183B7B942019358BD0E35D4B321","a9ab6bf4-46fc-4809-80a6-1c9d46895e84","bea99957-1862-4ad8-9558-57b91e42ce64","{""participantId"":""7B23D183B7B942019358BD0E35D4B321"",""assignmentId"":""a9ab6bf4-46fc-4809-80a6-1c9d46895e84"",""projectId"":""bea99957-1862-4ad8-9558-57b91e42ce64""}","https://test12345.live/?participantId=7B23D183B7B942019358BD0E35D4B321&assignmentId=a9ab6bf4-46fc-4809-80a6-1c9d46895e84&projectId=bea99957-1862-4ad8-9558-57b91e42ce64","","3444","","{""Q0"":4}","","[0]"
"","","","","","html-button-response","124","386885","0.0-90.0","7B23D183B7B942019358BD0E35D4B321","7B23D183B7B942019358BD0E35D4B321","a9ab6bf4-46fc-4809-80a6-1c9d46895e84","bea99957-1862-4ad8-9558-57b91e42ce64","{""participantId"":""7B23D183B7B942019358BD0E35D4B321"",""assignmentId"":""a9ab6bf4-46fc-4809-80a6-1c9d46895e84"",""projectId"":""bea99957-1862-4ad8-9558-57b91e42ce64""}","https://test12345.live/?participantId=7B23D183B7B942019358BD0E35D4B321&assignmentId=a9ab6bf4-46fc-4809-80a6-1c9d46895e84&projectId=bea99957-1862-4ad8-9558-57b91e42ce64","","1393","
    <div style=""display: flex; justify-content: center; align-items: center;"">
      <img src=""images/red_deck_2.png"" style=""width: 300px; height: 300px; margin-right: 10px;"" />
      <img src=""images/blue_deck_1.png"" style=""width: 300px; height: 300px;"" />
    </div>","1","1",""
"","","","","","html-keyboard-response","125","389902","0.0-91.0-0.0","7B23D183B7B942019358BD0E35D4B321","7B23D183B7B942019358BD0E35D4B321","a9ab6bf4-46fc-4809-80a6-1c9d46895e84","bea99957-1862-4ad8-9558-57b91e42ce64","{""participantId"":""7B23D183B7B942019358BD0E35D4B321"",""assignmentId"":""a9ab6bf4-46fc-4809-80a6-1c9d46895e84"",""projectId"":""bea99957-1862-4ad8-9558-57b91e42ce64""}","https://test12345.live/?participantId=7B23D183B7B942019358BD0E35D4B321&assignmentId=a9ab6bf4-46fc-4809-80a6-1c9d46895e84&projectId=bea99957-1862-4ad8-9558-57b91e42ce64","","null","<div style=""display: flex; justify-content: center; align-items: center;"">
                    <img src=""images/causal/causal_series_9/causal_series_9_a.jpg"" style=""width: 300px; height: 300px;"" />
                  </div>","null","",""
"","","","","","html-keyboard-response","126","392904","0.0-91.0-1.0","7B23D183B7B942019358BD0E35D4B321","7B23D183B7B942019358BD0E35D4B321","a9ab6bf4-46fc-4809-80a6-1c9d46895e84","bea99957-1862-4ad8-9558-57b91e42ce64","{""participantId"":""7B23D183B7B942019358BD0E35D4B321"",""assignmentId"":""a9ab6bf4-46fc-4809-80a6-1c9d46895e84"",""projectId"":""bea99957-1862-4ad8-9558-57b91e42ce64""}","https://test12345.live/?participantId=7B23D183B7B942019358BD0E35D4B321&assignmentId=a9ab6bf4-46fc-4809-80a6-1c9d46895e84&projectId=bea99957-1862-4ad8-9558-57b91e42ce64","","null","<div style=""display: flex; justify-content: center; align-items: center;"">
                    <img src=""images/causal/causal_series_9/causal_series_9_b.jpg"" style=""width: 300px; height: 300px;"" />
                  </div>","null","",""
"","","","","","html-keyboard-response","127","395916","0.0-91.0-2.0","7B23D183B7B942019358BD0E35D4B321","7B23D183B7B942019358BD0E35D4B321","a9ab6bf4-46fc-4809-80a6-1c9d46895e84","bea99957-1862-4ad8-9558-57b91e42ce64","{""participantId"":""7B23D183B7B942019358BD0E35D4B321"",""assignmentId"":""a9ab6bf4-46fc-4809-80a6-1c9d46895e84"",""projectId"":""bea99957-1862-4ad8-9558-57b91e42ce64""}","https://test12345.live/?participantId=7B23D183B7B942019358BD0E35D4B321&assignmentId=a9ab6bf4-46fc-4809-80a6-1c9d46895e84&projectId=bea99957-1862-4ad8-9558-57b91e42ce64","","null","<div style=""display: flex; justify-content: center; align-items: center;"">
                    <img src=""images/causal/causal_series_9/causal_series_9_c.jpg"" style=""width: 300px; height: 300px;"" />
                  </div>","null","",""
"","","","","","html-keyboard-response","128","398920","0.0-91.0-3.0","7B23D183B7B942019358BD0E35D4B321","7B23D183B7B942019358BD0E35D4B321","a9ab6bf4-46fc-4809-80a6-1c9d46895e84","bea99957-1862-4ad8-9558-57b91e42ce64","{""participantId"":""7B23D183B7B942019358BD0E35D4B321"",""assignmentId"":""a9ab6bf4-46fc-4809-80a6-1c9d46895e84"",""projectId"":""bea99957-1862-4ad8-9558-57b91e42ce64""}","https://test12345.live/?participantId=7B23D183B7B942019358BD0E35D4B321&assignmentId=a9ab6bf4-46fc-4809-80a6-1c9d46895e84&projectId=bea99957-1862-4ad8-9558-57b91e42ce64","","null","<div style=""display: flex; justify-content: center; align-items: center;"">
                    <img src=""images/causal/causal_series_9/causal_series_9_d.jpg"" style=""width: 300px; height: 300px;"" />
                  </div>","null","",""
"","","","","","html-button-response","129","400187","0.0-93.0","7B23D183B7B942019358BD0E35D4B321","7B23D183B7B942019358BD0E35D4B321","a9ab6bf4-46fc-4809-80a6-1c9d46895e84","bea99957-1862-4ad8-9558-57b91e42ce64","{""participantId"":""7B23D183B7B942019358BD0E35D4B321"",""assignmentId"":""a9ab6bf4-46fc-4809-80a6-1c9d46895e84"",""projectId"":""bea99957-1862-4ad8-9558-57b91e42ce64""}","https://test12345.live/?participantId=7B23D183B7B942019358BD0E35D4B321&assignmentId=a9ab6bf4-46fc-4809-80a6-1c9d46895e84&projectId=bea99957-1862-4ad8-9558-57b91e42ce64","","1266","Was there a person in the picture?","1","",""
"","","","","","survey-likert","130","404763","0.0-94.0","7B23D183B7B942019358BD0E35D4B321","7B23D183B7B942019358BD0E35D4B321","a9ab6bf4-46fc-4809-80a6-1c9d46895e84","bea99957-1862-4ad8-9558-57b91e42ce64","{""participantId"":""7B23D183B7B942019358BD0E35D4B321"",""assignmentId"":""a9ab6bf4-46fc-4809-80a6-1c9d46895e84"",""projectId"":""bea99957-1862-4ad8-9558-57b91e42ce64""}","https://test12345.live/?participantId=7B23D183B7B942019358BD0E35D4B321&assignmentId=a9ab6bf4-46fc-4809-80a6-1c9d46895e84&projectId=bea99957-1862-4ad8-9558-57b91e42ce64","","4576","","{""Q0"":1}","","[0]"
"","","","","","survey-text","131","474006","0.0-95.0","7B23D183B7B942019358BD0E35D4B321","7B23D183B7B942019358BD0E35D4B321","a9ab6bf4-46fc-4809-80a6-1c9d46895e84","bea99957-1862-4ad8-9558-57b91e42ce64","{""participantId"":""7B23D183B7B942019358BD0E35D4B321"",""assignmentId"":""a9ab6bf4-46fc-4809-80a6-1c9d46895e84"",""projectId"":""bea99957-1862-4ad8-9558-57b91e42ce64""}","https://test12345.live/?participantId=7B23D183B7B942019358BD0E35D4B321&assignmentId=a9ab6bf4-46fc-4809-80a6-1c9d46895e84&projectId=bea99957-1862-4ad8-9558-57b91e42ce64","","69241","","{""Q0"":""It seemed to switch a few times but at any given time it seems that one deck contained realistic AI images with written out storyboards while the other had cartoonish images depicting the story without words""}","",""
