"success","timeout","failed_images","failed_audio","failed_video","trial_type","trial_index","time_elapsed","internal_node_id","subject_id","study_id","session_id","view_history","rt","stimulus","response","choice"
"true","false","[]","[]","[]","preload","0","15946","0.0-0.0","9A8EB5A7024249A58CA8E8E4D4AFD854","ebf5df97-3099-4004-a082-51b9a8ed5f99","60874837-17fe-43d8-ba5e-75a805c652dd","","","","",""
"","","","","","instructions","1","25780","0.0-1.0","9A8EB5A7024249A58CA8E8E4D4AFD854","ebf5df97-3099-4004-a082-51b9a8ed5f99","60874837-17fe-43d8-ba5e-75a805c652dd","[{""page_index"":0,""viewing_time"":9833}]","9833","","",""
"","","","","","instructions","2","28683","0.0-2.0","9A8EB5A7024249A58CA8E8E4D4AFD854","ebf5df97-3099-4004-a082-51b9a8ed5f99","60874837-17fe-43d8-ba5e-75a805c652dd","[{""page_index"":0,""viewing_time"":2903}]","2904","","",""
"true","","","","","fullscreen","3","31593","0.0-3.0","9A8EB5A7024249A58CA8E8E4D4AFD854","ebf5df97-3099-4004-a082-51b9a8ed5f99","60874837-17fe-43d8-ba5e-75a805c652dd","","1893","","",""
"","","","","","instructions","4","38927","0.0-4.0","9A8EB5A7024249A58CA8E8E4D4AFD854","ebf5df97-3099-4004-a082-51b9a8ed5f99","60874837-17fe-43d8-ba5e-75a805c652dd","[{""page_index"":0,""viewing_time"":7334}]","7334","","",""
"","","","","","html-keyboard-response","5","41939","0.0-5.0","9A8EB5A7024249A58CA8E8E4D4AFD854","ebf5df97-3099-4004-a082-51b9a8ed5f99","60874837-17fe-43d8-ba5e-75a805c652dd","","null","<div style=""display: flex; justify-content: center; align-items: center;"">
                <img src=""images/causal/causal_series_1/causal_series_1_a.jpg"" style=""width: 300px; height: 300px;"" />
              </div>","null",""
"","","","","","html-keyboard-response","6","44942","0.0-6.0","9A8EB5A7024249A58CA8E8E4D4AFD854","ebf5df97-3099-4004-a082-51b9a8ed5f99","60874837-17fe-43d8-ba5e-75a805c652dd","","null","<div style=""display: flex; justify-content: center; align-items: center;"">
                <img src=""images/causal/causal_series_1/causal_series_1_b.jpg"" style=""width: 300px; height: 300px;"" />
              </div>","null",""
"","","","","","html-keyboard-response","7","47948","0.0-7.0","9A8EB5A7024249A58CA8E8E4D4AFD854","ebf5df97-3099-4004-a082-51b9a8ed5f99","60874837-17fe-43d8-ba5e-75a805c652dd","","null","<div style=""display: flex; justify-content: center; align-items: center;"">
                <img src=""images/causal/causal_series_1/causal_series_1_c.jpg"" style=""width: 300px; height: 300px;"" />
              </div>","null",""
"","","","","","html-button-response","8","50010","0.0-8.0","9A8EB5A7024249A58CA8E8E4D4AFD854","ebf5df97-3099-4004-a082-51b9a8ed5f99","60874837-17fe-43d8-ba5e-75a805c652dd","","2061","
    <div style=""display: flex; justify-content: center; align-items: center;"">
      <img src=""images/red_deck_2.png"" style=""width: 300px; height: 300px; margin-right: 10px;"" />
      <img src=""images/blue_deck_1.png"" style=""width: 300px; height: 300px;"" />
    </div>","1","1"
"","","","","","html-keyboard-response","9","53013","0.0-9.0-1.0-0.0","9A8EB5A7024249A58CA8E8E4D4AFD854","ebf5df97-3099-4004-a082-51b9a8ed5f99","60874837-17fe-43d8-ba5e-75a805c652dd","","null","<div style=""display: flex; justify-content: center; align-items: center;"">
                <img src=""images/semantic/semantic_series_18/semantic_series_18_d.jpg"" style=""width: 300px; height: 300px;"" />
              </div>","null",""
"","","","","","html-keyboard-response","10","56023","0.0-10.0","9A8EB5A7024249A58CA8E8E4D4AFD854","ebf5df97-3099-4004-a082-51b9a8ed5f99","60874837-17fe-43d8-ba5e-75a805c652dd","","null","<div style=""display: flex; justify-content: center; align-items: center;"">
                <img src=""images/other/blank.jpg"" style=""width: 300px; height: 300px;"" />
              </div>","null",""
"","","","","","html-keyboard-response","11","59033","0.0-11.0","9A8EB5A7024249A58CA8E8E4D4AFD854","ebf5df97-3099-4004-a082-51b9a8ed5f99","60874837-17fe-43d8-ba5e-75a805c652dd","","null","<div style=""display: flex; justify-content: center; align-items: center;"">
                <img src=""images/causal/causal_series_4/causal_series_4_a.jpg"" style=""width: 300px; height: 300px;"" />
              </div>","null",""
"","","","","","html-keyboard-response","12","62034","0.0-12.0","9A8EB5A7024249A58CA8E8E4D4AFD854","ebf5df97-3099-4004-a082-51b9a8ed5f99","60874837-17fe-43d8-ba5e-75a805c652dd","","null","<div style=""display: flex; justify-content: center; align-items: center;"">
                <img src=""images/causal/causal_series_4/causal_series_4_b.jpg"" style=""width: 300px; height: 300px;"" />
              </div>","null",""
"","","","","","html-keyboard-response","13","65040","0.0-13.0","9A8EB5A7024249A58CA8E8E4D4AFD854","ebf5df97-3099-4004-a082-51b9a8ed5f99","60874837-17fe-43d8-ba5e-75a805c652dd","","null","<div style=""display: flex; justify-content: center; align-items: center;"">
                <img src=""images/causal/causal_series_4/causal_series_4_c.jpg"" style=""width: 300px; height: 300px;"" />
              </div>","null",""
"","","","","","html-button-response","14","66196","0.0-14.0","9A8EB5A7024249A58CA8E8E4D4AFD854","ebf5df97-3099-4004-a082-51b9a8ed5f99","60874837-17fe-43d8-ba5e-75a805c652dd","","1155","
    <div style=""display: flex; justify-content: center; align-items: center;"">
      <img src=""images/red_deck_2.png"" style=""width: 300px; height: 300px; margin-right: 10px;"" />
      <img src=""images/blue_deck_1.png"" style=""width: 300px; height: 300px;"" />
    </div>","1","1"
"","","","","","html-keyboard-response","15","69201","0.0-15.0-1.0-0.0","9A8EB5A7024249A58CA8E8E4D4AFD854","ebf5df97-3099-4004-a082-51b9a8ed5f99","60874837-17fe-43d8-ba5e-75a805c652dd","","null","<div style=""display: flex; justify-content: center; align-items: center;"">
                <img src=""images/semantic/semantic_series_3/semantic_series_3_d.jpg"" style=""width: 300px; height: 300px;"" />
              </div>","null",""
"","","","","","html-keyboard-response","16","72206","0.0-16.0","9A8EB5A7024249A58CA8E8E4D4AFD854","ebf5df97-3099-4004-a082-51b9a8ed5f99","60874837-17fe-43d8-ba5e-75a805c652dd","","null","<div style=""display: flex; justify-content: center; align-items: center;"">
                <img src=""images/other/blank.jpg"" style=""width: 300px; height: 300px;"" />
              </div>","null",""
"","","","","","html-keyboard-response","17","75211","0.0-17.0","9A8EB5A7024249A58CA8E8E4D4AFD854","ebf5df97-3099-4004-a082-51b9a8ed5f99","60874837-17fe-43d8-ba5e-75a805c652dd","","null","<div style=""display: flex; justify-content: center; align-items: center;"">
                <img src=""images/causal/causal_series_17/causal_series_17_a.jpg"" style=""width: 300px; height: 300px;"" />
              </div>","null",""
"","","","","","html-keyboard-response","18","78220","0.0-18.0","9A8EB5A7024249A58CA8E8E4D4AFD854","ebf5df97-3099-4004-a082-51b9a8ed5f99","60874837-17fe-43d8-ba5e-75a805c652dd","","null","<div style=""display: flex; justify-content: center; align-items: center;"">
                <img src=""images/causal/causal_series_17/causal_series_17_b.jpg"" style=""width: 300px; height: 300px;"" />
              </div>","null",""
"","","","","","html-keyboard-response","19","81223","0.0-19.0","9A8EB5A7024249A58CA8E8E4D4AFD854","ebf5df97-3099-4004-a082-51b9a8ed5f99","60874837-17fe-43d8-ba5e-75a805c652dd","","null","<div style=""display: flex; justify-content: center; align-items: center;"">
                <img src=""images/causal/causal_series_17/causal_series_17_c.jpg"" style=""width: 300px; height: 300px;"" />
              </div>","null",""
"","","","","","html-button-response","20","82092","0.0-20.0","9A8EB5A7024249A58CA8E8E4D4AFD854","ebf5df97-3099-4004-a082-51b9a8ed5f99","60874837-17fe-43d8-ba5e-75a805c652dd","","868","
    <div style=""display: flex; justify-content: center; align-items: center;"">
      <img src=""images/red_deck_2.png"" style=""width: 300px; height: 300px; margin-right: 10px;"" />
      <img src=""images/blue_deck_1.png"" style=""width: 300px; height: 300px;"" />
    </div>","1","1"
"","","","","","html-keyboard-response","21","85100","0.0-21.0-1.0-0.0","9A8EB5A7024249A58CA8E8E4D4AFD854","ebf5df97-3099-4004-a082-51b9a8ed5f99","60874837-17fe-43d8-ba5e-75a805c652dd","","null","<div style=""display: flex; justify-content: center; align-items: center;"">
                <img src=""images/semantic/semantic_series_16/semantic_series_16_d.jpg"" style=""width: 300px; height: 300px;"" />
              </div>","null",""
"","","","","","html-keyboard-response","22","88103","0.0-22.0","9A8EB5A7024249A58CA8E8E4D4AFD854","ebf5df97-3099-4004-a082-51b9a8ed5f99","60874837-17fe-43d8-ba5e-75a805c652dd","","null","<div style=""display: flex; justify-content: center; align-items: center;"">
                <img src=""images/other/blank.jpg"" style=""width: 300px; height: 300px;"" />
              </div>","null",""
"","","","","","html-keyboard-response","23","91110","0.0-23.0","9A8EB5A7024249A58CA8E8E4D4AFD854","ebf5df97-3099-4004-a082-51b9a8ed5f99","60874837-17fe-43d8-ba5e-75a805c652dd","","null","<div style=""display: flex; justify-content: center; align-items: center;"">
                <img src=""images/causal/causal_series_3/causal_series_3_a.jpg"" style=""width: 300px; height: 300px;"" />
              </div>","null",""
"","","","","","html-keyboard-response","24","94117","0.0-24.0","9A8EB5A7024249A58CA8E8E4D4AFD854","ebf5df97-3099-4004-a082-51b9a8ed5f99","60874837-17fe-43d8-ba5e-75a805c652dd","","null","<div style=""display: flex; justify-content: center; align-items: center;"">
                <img src=""images/causal/causal_series_3/causal_series_3_b.jpg"" style=""width: 300px; height: 300px;"" />
              </div>","null",""
"","","","","","html-keyboard-response","25","97134","0.0-25.0","9A8EB5A7024249A58CA8E8E4D4AFD854","ebf5df97-3099-4004-a082-51b9a8ed5f99","60874837-17fe-43d8-ba5e-75a805c652dd","","null","<div style=""display: flex; justify-content: center; align-items: center;"">
                <img src=""images/causal/causal_series_3/causal_series_3_c.jpg"" style=""width: 300px; height: 300px;"" />
              </div>","null",""
"","","","","","html-button-response","26","98390","0.0-26.0","9A8EB5A7024249A58CA8E8E4D4AFD854","ebf5df97-3099-4004-a082-51b9a8ed5f99","60874837-17fe-43d8-ba5e-75a805c652dd","","1256","
    <div style=""display: flex; justify-content: center; align-items: center;"">
      <img src=""images/red_deck_2.png"" style=""width: 300px; height: 300px; margin-right: 10px;"" />
      <img src=""images/blue_deck_1.png"" style=""width: 300px; height: 300px;"" />
    </div>","0","0"
"","","","","","html-keyboard-response","27","101405","0.0-27.0-0.0-0.0","9A8EB5A7024249A58CA8E8E4D4AFD854","ebf5df97-3099-4004-a082-51b9a8ed5f99","60874837-17fe-43d8-ba5e-75a805c652dd","","null","<div style=""display: flex; justify-content: center; align-items: center;"">
                <img src=""images/causal/causal_series_3/causal_series_3_d.jpg"" style=""width: 300px; height: 300px;"" />
              </div>","null",""
"","","","","","html-keyboard-response","28","104418","0.0-28.0","9A8EB5A7024249A58CA8E8E4D4AFD854","ebf5df97-3099-4004-a082-51b9a8ed5f99","60874837-17fe-43d8-ba5e-75a805c652dd","","null","<div style=""display: flex; justify-content: center; align-items: center;"">
                <img src=""images/other/blank.jpg"" style=""width: 300px; height: 300px;"" />
              </div>","null",""
"","","","","","html-keyboard-response","29","107428","0.0-29.0","9A8EB5A7024249A58CA8E8E4D4AFD854","ebf5df97-3099-4004-a082-51b9a8ed5f99","60874837-17fe-43d8-ba5e-75a805c652dd","","null","<div style=""display: flex; justify-content: center; align-items: center;"">
                <img src=""images/causal/causal_series_7/causal_series_7_a.jpg"" style=""width: 300px; height: 300px;"" />
              </div>","null",""
"","","","","","html-keyboard-response","30","110441","0.0-30.0","9A8EB5A7024249A58CA8E8E4D4AFD854","ebf5df97-3099-4004-a082-51b9a8ed5f99","60874837-17fe-43d8-ba5e-75a805c652dd","","null","<div style=""display: flex; justify-content: center; align-items: center;"">
                <img src=""images/causal/causal_series_7/causal_series_7_b.jpg"" style=""width: 300px; height: 300px;"" />
              </div>","null",""
"","","","","","html-keyboard-response","31","113448","0.0-31.0","9A8EB5A7024249A58CA8E8E4D4AFD854","ebf5df97-3099-4004-a082-51b9a8ed5f99","60874837-17fe-43d8-ba5e-75a805c652dd","","null","<div style=""display: flex; justify-content: center; align-items: center;"">
                <img src=""images/causal/causal_series_7/causal_series_7_c.jpg"" style=""width: 300px; height: 300px;"" />
              </div>","null",""
"","","","","","html-button-response","32","114726","0.0-32.0","9A8EB5A7024249A58CA8E8E4D4AFD854","ebf5df97-3099-4004-a082-51b9a8ed5f99","60874837-17fe-43d8-ba5e-75a805c652dd","","1278","
    <div style=""display: flex; justify-content: center; align-items: center;"">
      <img src=""images/red_deck_2.png"" style=""width: 300px; height: 300px; margin-right: 10px;"" />
      <img src=""images/blue_deck_1.png"" style=""width: 300px; height: 300px;"" />
    </div>","1","1"
"","","","","","html-keyboard-response","33","117734","0.0-33.0-1.0-0.0","9A8EB5A7024249A58CA8E8E4D4AFD854","ebf5df97-3099-4004-a082-51b9a8ed5f99","60874837-17fe-43d8-ba5e-75a805c652dd","","null","<div style=""display: flex; justify-content: center; align-items: center;"">
                <img src=""images/semantic/semantic_series_6/semantic_series_6_d.jpg"" style=""width: 300px; height: 300px;"" />
              </div>","null",""
"","","","","","html-keyboard-response","34","120749","0.0-34.0","9A8EB5A7024249A58CA8E8E4D4AFD854","ebf5df97-3099-4004-a082-51b9a8ed5f99","60874837-17fe-43d8-ba5e-75a805c652dd","","null","<div style=""display: flex; justify-content: center; align-items: center;"">
                <img src=""images/other/blank.jpg"" style=""width: 300px; height: 300px;"" />
              </div>","null",""
"","","","","","html-keyboard-response","35","123765","0.0-35.0","9A8EB5A7024249A58CA8E8E4D4AFD854","ebf5df97-3099-4004-a082-51b9a8ed5f99","60874837-17fe-43d8-ba5e-75a805c652dd","","null","<div style=""display: flex; justify-content: center; align-items: center;"">
                <img src=""images/causal/causal_series_14/causal_series_14_a.jpg"" style=""width: 300px; height: 300px;"" />
              </div>","null",""
"","","","","","html-keyboard-response","36","126777","0.0-36.0","9A8EB5A7024249A58CA8E8E4D4AFD854","ebf5df97-3099-4004-a082-51b9a8ed5f99","60874837-17fe-43d8-ba5e-75a805c652dd","","null","<div style=""display: flex; justify-content: center; align-items: center;"">
                <img src=""images/causal/causal_series_14/causal_series_14_b.jpg"" style=""width: 300px; height: 300px;"" />
              </div>","null",""
"","","","","","html-keyboard-response","37","129793","0.0-37.0","9A8EB5A7024249A58CA8E8E4D4AFD854","ebf5df97-3099-4004-a082-51b9a8ed5f99","60874837-17fe-43d8-ba5e-75a805c652dd","","null","<div style=""display: flex; justify-content: center; align-items: center;"">
                <img src=""images/causal/causal_series_14/causal_series_14_c.jpg"" style=""width: 300px; height: 300px;"" />
              </div>","null",""
"","","","","","html-button-response","38","130993","0.0-38.0","9A8EB5A7024249A58CA8E8E4D4AFD854","ebf5df97-3099-4004-a082-51b9a8ed5f99","60874837-17fe-43d8-ba5e-75a805c652dd","","1199","
    <div style=""display: flex; justify-content: center; align-items: center;"">
      <img src=""images/red_deck_2.png"" style=""width: 300px; height: 300px; margin-right: 10px;"" />
      <img src=""images/blue_deck_1.png"" style=""width: 300px; height: 300px;"" />
    </div>","1","1"
"","","","","","html-keyboard-response","39","134002","0.0-39.0-1.0-0.0","9A8EB5A7024249A58CA8E8E4D4AFD854","ebf5df97-3099-4004-a082-51b9a8ed5f99","60874837-17fe-43d8-ba5e-75a805c652dd","","null","<div style=""display: flex; justify-content: center; align-items: center;"">
                <img src=""images/semantic/semantic_series_13/semantic_series_13_d.jpg"" style=""width: 300px; height: 300px;"" />
              </div>","null",""
"","","","","","html-keyboard-response","40","137016","0.0-40.0","9A8EB5A7024249A58CA8E8E4D4AFD854","ebf5df97-3099-4004-a082-51b9a8ed5f99","60874837-17fe-43d8-ba5e-75a805c652dd","","null","<div style=""display: flex; justify-content: center; align-items: center;"">
                <img src=""images/other/blank.jpg"" style=""width: 300px; height: 300px;"" />
              </div>","null",""
"","","","","","html-keyboard-response","41","140027","0.0-41.0","9A8EB5A7024249A58CA8E8E4D4AFD854","ebf5df97-3099-4004-a082-51b9a8ed5f99","60874837-17fe-43d8-ba5e-75a805c652dd","","null","<div style=""display: flex; justify-content: center; align-items: center;"">
                <img src=""images/causal/causal_series_2/causal_series_2_a.jpg"" style=""width: 300px; height: 300px;"" />
              </div>","null",""
"","","","","","html-keyboard-response","42","143040","0.0-42.0","9A8EB5A7024249A58CA8E8E4D4AFD854","ebf5df97-3099-4004-a082-51b9a8ed5f99","60874837-17fe-43d8-ba5e-75a805c652dd","","null","<div style=""display: flex; justify-content: center; align-items: center;"">
                <img src=""images/causal/causal_series_2/causal_series_2_b.jpg"" style=""width: 300px; height: 300px;"" />
              </div>","null",""
"","","","","","html-keyboard-response","43","146056","0.0-43.0","9A8EB5A7024249A58CA8E8E4D4AFD854","ebf5df97-3099-4004-a082-51b9a8ed5f99","60874837-17fe-43d8-ba5e-75a805c652dd","","null","<div style=""display: flex; justify-content: center; align-items: center;"">
                <img src=""images/causal/causal_series_2/causal_series_2_c.jpg"" style=""width: 300px; height: 300px;"" />
              </div>","null",""
"","","","","","html-button-response","44","147123","0.0-44.0","9A8EB5A7024249A58CA8E8E4D4AFD854","ebf5df97-3099-4004-a082-51b9a8ed5f99","60874837-17fe-43d8-ba5e-75a805c652dd","","1065","
    <div style=""display: flex; justify-content: center; align-items: center;"">
      <img src=""images/red_deck_2.png"" style=""width: 300px; height: 300px; margin-right: 10px;"" />
      <img src=""images/blue_deck_1.png"" style=""width: 300px; height: 300px;"" />
    </div>","1","1"
"","","","","","html-keyboard-response","45","150136","0.0-45.0-1.0-0.0","9A8EB5A7024249A58CA8E8E4D4AFD854","ebf5df97-3099-4004-a082-51b9a8ed5f99","60874837-17fe-43d8-ba5e-75a805c652dd","","null","<div style=""display: flex; justify-content: center; align-items: center;"">
                <img src=""images/semantic/semantic_series_1/semantic_series_1_d.jpg"" style=""width: 300px; height: 300px;"" />
              </div>","null",""
"","","","","","html-keyboard-response","46","153148","0.0-46.0","9A8EB5A7024249A58CA8E8E4D4AFD854","ebf5df97-3099-4004-a082-51b9a8ed5f99","60874837-17fe-43d8-ba5e-75a805c652dd","","null","<div style=""display: flex; justify-content: center; align-items: center;"">
                <img src=""images/other/blank.jpg"" style=""width: 300px; height: 300px;"" />
              </div>","null",""
"","","","","","html-keyboard-response","47","156150","0.0-47.0","9A8EB5A7024249A58CA8E8E4D4AFD854","ebf5df97-3099-4004-a082-51b9a8ed5f99","60874837-17fe-43d8-ba5e-75a805c652dd","","null","<div style=""display: flex; justify-content: center; align-items: center;"">
                <img src=""images/causal/causal_series_18/causal_series_18_a.jpg"" style=""width: 300px; height: 300px;"" />
              </div>","null",""
"","","","","","html-keyboard-response","48","159165","0.0-48.0","9A8EB5A7024249A58CA8E8E4D4AFD854","ebf5df97-3099-4004-a082-51b9a8ed5f99","60874837-17fe-43d8-ba5e-75a805c652dd","","null","<div style=""display: flex; justify-content: center; align-items: center;"">
                <img src=""images/causal/causal_series_18/causal_series_18_b.jpg"" style=""width: 300px; height: 300px;"" />
              </div>","null",""
"","","","","","html-keyboard-response","49","162179","0.0-49.0","9A8EB5A7024249A58CA8E8E4D4AFD854","ebf5df97-3099-4004-a082-51b9a8ed5f99","60874837-17fe-43d8-ba5e-75a805c652dd","","null","<div style=""display: flex; justify-content: center; align-items: center;"">
                <img src=""images/causal/causal_series_18/causal_series_18_c.jpg"" style=""width: 300px; height: 300px;"" />
              </div>","null",""
"","","","","","html-button-response","50","163194","0.0-50.0","9A8EB5A7024249A58CA8E8E4D4AFD854","ebf5df97-3099-4004-a082-51b9a8ed5f99","60874837-17fe-43d8-ba5e-75a805c652dd","","1014","
    <div style=""display: flex; justify-content: center; align-items: center;"">
      <img src=""images/red_deck_2.png"" style=""width: 300px; height: 300px; margin-right: 10px;"" />
      <img src=""images/blue_deck_1.png"" style=""width: 300px; height: 300px;"" />
    </div>","1","1"
"","","","","","html-keyboard-response","51","166195","0.0-51.0-1.0-0.0","9A8EB5A7024249A58CA8E8E4D4AFD854","ebf5df97-3099-4004-a082-51b9a8ed5f99","60874837-17fe-43d8-ba5e-75a805c652dd","","null","<div style=""display: flex; justify-content: center; align-items: center;"">
                <img src=""images/semantic/semantic_series_17/semantic_series_17_d.jpg"" style=""width: 300px; height: 300px;"" />
              </div>","null",""
"","","","","","html-keyboard-response","52","169197","0.0-52.0","9A8EB5A7024249A58CA8E8E4D4AFD854","ebf5df97-3099-4004-a082-51b9a8ed5f99","60874837-17fe-43d8-ba5e-75a805c652dd","","null","<div style=""display: flex; justify-content: center; align-items: center;"">
                <img src=""images/other/blank.jpg"" style=""width: 300px; height: 300px;"" />
              </div>","null",""
"","","","","","html-keyboard-response","53","172207","0.0-53.0","9A8EB5A7024249A58CA8E8E4D4AFD854","ebf5df97-3099-4004-a082-51b9a8ed5f99","60874837-17fe-43d8-ba5e-75a805c652dd","","null","<div style=""display: flex; justify-content: center; align-items: center;"">
                <img src=""images/causal/causal_series_9/causal_series_9_a.jpg"" style=""width: 300px; height: 300px;"" />
              </div>","null",""
"","","","","","html-keyboard-response","54","175208","0.0-54.0","9A8EB5A7024249A58CA8E8E4D4AFD854","ebf5df97-3099-4004-a082-51b9a8ed5f99","60874837-17fe-43d8-ba5e-75a805c652dd","","null","<div style=""display: flex; justify-content: center; align-items: center;"">
                <img src=""images/causal/causal_series_9/causal_series_9_b.jpg"" style=""width: 300px; height: 300px;"" />
              </div>","null",""
"","","","","","html-keyboard-response","55","178220","0.0-55.0","9A8EB5A7024249A58CA8E8E4D4AFD854","ebf5df97-3099-4004-a082-51b9a8ed5f99","60874837-17fe-43d8-ba5e-75a805c652dd","","null","<div style=""display: flex; justify-content: center; align-items: center;"">
                <img src=""images/causal/causal_series_9/causal_series_9_c.jpg"" style=""width: 300px; height: 300px;"" />
              </div>","null",""
"","","","","","html-button-response","56","179493","0.0-56.0","9A8EB5A7024249A58CA8E8E4D4AFD854","ebf5df97-3099-4004-a082-51b9a8ed5f99","60874837-17fe-43d8-ba5e-75a805c652dd","","1271","
    <div style=""display: flex; justify-content: center; align-items: center;"">
      <img src=""images/red_deck_2.png"" style=""width: 300px; height: 300px; margin-right: 10px;"" />
      <img src=""images/blue_deck_1.png"" style=""width: 300px; height: 300px;"" />
    </div>","1","1"
"","","","","","html-keyboard-response","57","182500","0.0-57.0-1.0-0.0","9A8EB5A7024249A58CA8E8E4D4AFD854","ebf5df97-3099-4004-a082-51b9a8ed5f99","60874837-17fe-43d8-ba5e-75a805c652dd","","null","<div style=""display: flex; justify-content: center; align-items: center;"">
                <img src=""images/semantic/semantic_series_8/semantic_series_8_d.jpg"" style=""width: 300px; height: 300px;"" />
              </div>","null",""
"","","","","","html-keyboard-response","58","185502","0.0-58.0","9A8EB5A7024249A58CA8E8E4D4AFD854","ebf5df97-3099-4004-a082-51b9a8ed5f99","60874837-17fe-43d8-ba5e-75a805c652dd","","null","<div style=""display: flex; justify-content: center; align-items: center;"">
                <img src=""images/other/blank.jpg"" style=""width: 300px; height: 300px;"" />
              </div>","null",""
"","","","","","html-keyboard-response","59","188505","0.0-59.0","9A8EB5A7024249A58CA8E8E4D4AFD854","ebf5df97-3099-4004-a082-51b9a8ed5f99","60874837-17fe-43d8-ba5e-75a805c652dd","","null","<div style=""display: flex; justify-content: center; align-items: center;"">
                <img src=""images/causal/causal_series_16/causal_series_16_a.jpg"" style=""width: 300px; height: 300px;"" />
              </div>","null",""
"","","","","","html-keyboard-response","60","191519","0.0-60.0","9A8EB5A7024249A58CA8E8E4D4AFD854","ebf5df97-3099-4004-a082-51b9a8ed5f99","60874837-17fe-43d8-ba5e-75a805c652dd","","null","<div style=""display: flex; justify-content: center; align-items: center;"">
                <img src=""images/causal/causal_series_16/causal_series_16_b.jpg"" style=""width: 300px; height: 300px;"" />
              </div>","null",""
"","","","","","html-keyboard-response","61","194535","0.0-61.0","9A8EB5A7024249A58CA8E8E4D4AFD854","ebf5df97-3099-4004-a082-51b9a8ed5f99","60874837-17fe-43d8-ba5e-75a805c652dd","","null","<div style=""display: flex; justify-content: center; align-items: center;"">
                <img src=""images/causal/causal_series_16/causal_series_16_c.jpg"" style=""width: 300px; height: 300px;"" />
              </div>","null",""
"","","","","","html-button-response","62","195516","0.0-62.0","9A8EB5A7024249A58CA8E8E4D4AFD854","ebf5df97-3099-4004-a082-51b9a8ed5f99","60874837-17fe-43d8-ba5e-75a805c652dd","","981","
    <div style=""display: flex; justify-content: center; align-items: center;"">
      <img src=""images/red_deck_2.png"" style=""width: 300px; height: 300px; margin-right: 10px;"" />
      <img src=""images/blue_deck_1.png"" style=""width: 300px; height: 300px;"" />
    </div>","1","1"
"","","","","","html-keyboard-response","63","198520","0.0-63.0-1.0-0.0","9A8EB5A7024249A58CA8E8E4D4AFD854","ebf5df97-3099-4004-a082-51b9a8ed5f99","60874837-17fe-43d8-ba5e-75a805c652dd","","null","<div style=""display: flex; justify-content: center; align-items: center;"">
                <img src=""images/semantic/semantic_series_15/semantic_series_15_d.jpg"" style=""width: 300px; height: 300px;"" />
              </div>","null",""
"","","","","","html-keyboard-response","64","201522","0.0-64.0","9A8EB5A7024249A58CA8E8E4D4AFD854","ebf5df97-3099-4004-a082-51b9a8ed5f99","60874837-17fe-43d8-ba5e-75a805c652dd","","null","<div style=""display: flex; justify-content: center; align-items: center;"">
                <img src=""images/other/blank.jpg"" style=""width: 300px; height: 300px;"" />
              </div>","null",""
"","","","","","html-keyboard-response","65","204536","0.0-65.0","9A8EB5A7024249A58CA8E8E4D4AFD854","ebf5df97-3099-4004-a082-51b9a8ed5f99","60874837-17fe-43d8-ba5e-75a805c652dd","","null","<div style=""display: flex; justify-content: center; align-items: center;"">
                <img src=""images/causal/causal_series_5/causal_series_5_a.jpg"" style=""width: 300px; height: 300px;"" />
              </div>","null",""
"","","","","","html-keyboard-response","66","207541","0.0-66.0","9A8EB5A7024249A58CA8E8E4D4AFD854","ebf5df97-3099-4004-a082-51b9a8ed5f99","60874837-17fe-43d8-ba5e-75a805c652dd","","null","<div style=""display: flex; justify-content: center; align-items: center;"">
                <img src=""images/causal/causal_series_5/causal_series_5_b.jpg"" style=""width: 300px; height: 300px;"" />
              </div>","null",""
"","","","","","html-keyboard-response","67","210543","0.0-67.0","9A8EB5A7024249A58CA8E8E4D4AFD854","ebf5df97-3099-4004-a082-51b9a8ed5f99","60874837-17fe-43d8-ba5e-75a805c652dd","","null","<div style=""display: flex; justify-content: center; align-items: center;"">
                <img src=""images/causal/causal_series_5/causal_series_5_c.jpg"" style=""width: 300px; height: 300px;"" />
              </div>","null",""
"","","","","","html-button-response","68","211446","0.0-68.0","9A8EB5A7024249A58CA8E8E4D4AFD854","ebf5df97-3099-4004-a082-51b9a8ed5f99","60874837-17fe-43d8-ba5e-75a805c652dd","","903","
    <div style=""display: flex; justify-content: center; align-items: center;"">
      <img src=""images/red_deck_2.png"" style=""width: 300px; height: 300px; margin-right: 10px;"" />
      <img src=""images/blue_deck_1.png"" style=""width: 300px; height: 300px;"" />
    </div>","1","1"
"","","","","","html-keyboard-response","69","214462","0.0-69.0-1.0-0.0","9A8EB5A7024249A58CA8E8E4D4AFD854","ebf5df97-3099-4004-a082-51b9a8ed5f99","60874837-17fe-43d8-ba5e-75a805c652dd","","null","<div style=""display: flex; justify-content: center; align-items: center;"">
                <img src=""images/semantic/semantic_series_4/semantic_series_4_d.jpg"" style=""width: 300px; height: 300px;"" />
              </div>","null",""
"","","","","","html-keyboard-response","70","217476","0.0-70.0","9A8EB5A7024249A58CA8E8E4D4AFD854","ebf5df97-3099-4004-a082-51b9a8ed5f99","60874837-17fe-43d8-ba5e-75a805c652dd","","null","<div style=""display: flex; justify-content: center; align-items: center;"">
                <img src=""images/other/blank.jpg"" style=""width: 300px; height: 300px;"" />
              </div>","null",""
"","","","","","html-keyboard-response","71","220489","0.0-71.0","9A8EB5A7024249A58CA8E8E4D4AFD854","ebf5df97-3099-4004-a082-51b9a8ed5f99","60874837-17fe-43d8-ba5e-75a805c652dd","","null","<div style=""display: flex; justify-content: center; align-items: center;"">
                <img src=""images/causal/causal_series_15/causal_series_15_a.jpg"" style=""width: 300px; height: 300px;"" />
              </div>","null",""
"","","","","","html-keyboard-response","72","223495","0.0-72.0","9A8EB5A7024249A58CA8E8E4D4AFD854","ebf5df97-3099-4004-a082-51b9a8ed5f99","60874837-17fe-43d8-ba5e-75a805c652dd","","null","<div style=""display: flex; justify-content: center; align-items: center;"">
                <img src=""images/causal/causal_series_15/causal_series_15_b.jpg"" style=""width: 300px; height: 300px;"" />
              </div>","null",""
"","","","","","html-keyboard-response","73","226500","0.0-73.0","9A8EB5A7024249A58CA8E8E4D4AFD854","ebf5df97-3099-4004-a082-51b9a8ed5f99","60874837-17fe-43d8-ba5e-75a805c652dd","","null","<div style=""display: flex; justify-content: center; align-items: center;"">
                <img src=""images/causal/causal_series_15/causal_series_15_c.jpg"" style=""width: 300px; height: 300px;"" />
              </div>","null",""
"","","","","","html-button-response","74","227360","0.0-74.0","9A8EB5A7024249A58CA8E8E4D4AFD854","ebf5df97-3099-4004-a082-51b9a8ed5f99","60874837-17fe-43d8-ba5e-75a805c652dd","","859","
    <div style=""display: flex; justify-content: center; align-items: center;"">
      <img src=""images/red_deck_2.png"" style=""width: 300px; height: 300px; margin-right: 10px;"" />
      <img src=""images/blue_deck_1.png"" style=""width: 300px; height: 300px;"" />
    </div>","1","1"
"","","","","","html-keyboard-response","75","230370","0.0-75.0-1.0-0.0","9A8EB5A7024249A58CA8E8E4D4AFD854","ebf5df97-3099-4004-a082-51b9a8ed5f99","60874837-17fe-43d8-ba5e-75a805c652dd","","null","<div style=""display: flex; justify-content: center; align-items: center;"">
                <img src=""images/semantic/semantic_series_14/semantic_series_14_d.jpg"" style=""width: 300px; height: 300px;"" />
              </div>","null",""
"","","","","","html-keyboard-response","76","233385","0.0-76.0","9A8EB5A7024249A58CA8E8E4D4AFD854","ebf5df97-3099-4004-a082-51b9a8ed5f99","60874837-17fe-43d8-ba5e-75a805c652dd","","null","<div style=""display: flex; justify-content: center; align-items: center;"">
                <img src=""images/other/blank.jpg"" style=""width: 300px; height: 300px;"" />
              </div>","null",""
"","","","","","html-keyboard-response","77","236387","0.0-77.0","9A8EB5A7024249A58CA8E8E4D4AFD854","ebf5df97-3099-4004-a082-51b9a8ed5f99","60874837-17fe-43d8-ba5e-75a805c652dd","","null","<div style=""display: flex; justify-content: center; align-items: center;"">
                <img src=""images/causal/causal_series_13/causal_series_13_a.jpg"" style=""width: 300px; height: 300px;"" />
              </div>","null",""
"","","","","","html-keyboard-response","78","239388","0.0-78.0","9A8EB5A7024249A58CA8E8E4D4AFD854","ebf5df97-3099-4004-a082-51b9a8ed5f99","60874837-17fe-43d8-ba5e-75a805c652dd","","null","<div style=""display: flex; justify-content: center; align-items: center;"">
                <img src=""images/causal/causal_series_13/causal_series_13_b.jpg"" style=""width: 300px; height: 300px;"" />
              </div>","null",""
"","","","","","html-keyboard-response","79","242389","0.0-79.0","9A8EB5A7024249A58CA8E8E4D4AFD854","ebf5df97-3099-4004-a082-51b9a8ed5f99","60874837-17fe-43d8-ba5e-75a805c652dd","","null","<div style=""display: flex; justify-content: center; align-items: center;"">
                <img src=""images/causal/causal_series_13/causal_series_13_c.jpg"" style=""width: 300px; height: 300px;"" />
              </div>","null",""
"","","","","","html-button-response","80","243145","0.0-80.0","9A8EB5A7024249A58CA8E8E4D4AFD854","ebf5df97-3099-4004-a082-51b9a8ed5f99","60874837-17fe-43d8-ba5e-75a805c652dd","","755","
    <div style=""display: flex; justify-content: center; align-items: center;"">
      <img src=""images/red_deck_2.png"" style=""width: 300px; height: 300px; margin-right: 10px;"" />
      <img src=""images/blue_deck_1.png"" style=""width: 300px; height: 300px;"" />
    </div>","1","1"
"","","","","","html-keyboard-response","81","246152","0.0-81.0-1.0-0.0","9A8EB5A7024249A58CA8E8E4D4AFD854","ebf5df97-3099-4004-a082-51b9a8ed5f99","60874837-17fe-43d8-ba5e-75a805c652dd","","null","<div style=""display: flex; justify-content: center; align-items: center;"">
                <img src=""images/semantic/semantic_series_12/semantic_series_12_d.jpg"" style=""width: 300px; height: 300px;"" />
              </div>","null",""
"","","","","","html-keyboard-response","82","249160","0.0-82.0","9A8EB5A7024249A58CA8E8E4D4AFD854","ebf5df97-3099-4004-a082-51b9a8ed5f99","60874837-17fe-43d8-ba5e-75a805c652dd","","null","<div style=""display: flex; justify-content: center; align-items: center;"">
                <img src=""images/other/blank.jpg"" style=""width: 300px; height: 300px;"" />
              </div>","null",""
"","","","","","html-keyboard-response","83","252174","0.0-83.0","9A8EB5A7024249A58CA8E8E4D4AFD854","ebf5df97-3099-4004-a082-51b9a8ed5f99","60874837-17fe-43d8-ba5e-75a805c652dd","","null","<div style=""display: flex; justify-content: center; align-items: center;"">
                <img src=""images/causal/causal_series_10/causal_series_10_a.jpg"" style=""width: 300px; height: 300px;"" />
              </div>","null",""
"","","","","","html-keyboard-response","84","255187","0.0-84.0","9A8EB5A7024249A58CA8E8E4D4AFD854","ebf5df97-3099-4004-a082-51b9a8ed5f99","60874837-17fe-43d8-ba5e-75a805c652dd","","null","<div style=""display: flex; justify-content: center; align-items: center;"">
                <img src=""images/causal/causal_series_10/causal_series_10_b.jpg"" style=""width: 300px; height: 300px;"" />
              </div>","null",""
"","","","","","html-keyboard-response","85","258201","0.0-85.0","9A8EB5A7024249A58CA8E8E4D4AFD854","ebf5df97-3099-4004-a082-51b9a8ed5f99","60874837-17fe-43d8-ba5e-75a805c652dd","","null","<div style=""display: flex; justify-content: center; align-items: center;"">
                <img src=""images/causal/causal_series_10/causal_series_10_c.jpg"" style=""width: 300px; height: 300px;"" />
              </div>","null",""
"","","","","","html-button-response","86","259706","0.0-86.0","9A8EB5A7024249A58CA8E8E4D4AFD854","ebf5df97-3099-4004-a082-51b9a8ed5f99","60874837-17fe-43d8-ba5e-75a805c652dd","","1504","
    <div style=""display: flex; justify-content: center; align-items: center;"">
      <img src=""images/red_deck_2.png"" style=""width: 300px; height: 300px; margin-right: 10px;"" />
      <img src=""images/blue_deck_1.png"" style=""width: 300px; height: 300px;"" />
    </div>","1","1"
"","","","","","html-keyboard-response","87","262721","0.0-87.0-1.0-0.0","9A8EB5A7024249A58CA8E8E4D4AFD854","ebf5df97-3099-4004-a082-51b9a8ed5f99","60874837-17fe-43d8-ba5e-75a805c652dd","","null","<div style=""display: flex; justify-content: center; align-items: center;"">
                <img src=""images/semantic/semantic_series_9/semantic_series_9_d.jpg"" style=""width: 300px; height: 300px;"" />
              </div>","null",""
"","","","","","html-keyboard-response","88","265739","0.0-88.0","9A8EB5A7024249A58CA8E8E4D4AFD854","ebf5df97-3099-4004-a082-51b9a8ed5f99","60874837-17fe-43d8-ba5e-75a805c652dd","","null","<div style=""display: flex; justify-content: center; align-items: center;"">
                <img src=""images/other/blank.jpg"" style=""width: 300px; height: 300px;"" />
              </div>","null",""
"","","","","","html-keyboard-response","89","268750","0.0-89.0","9A8EB5A7024249A58CA8E8E4D4AFD854","ebf5df97-3099-4004-a082-51b9a8ed5f99","60874837-17fe-43d8-ba5e-75a805c652dd","","null","<div style=""display: flex; justify-content: center; align-items: center;"">
                <img src=""images/causal/causal_series_12/causal_series_12_a.jpg"" style=""width: 300px; height: 300px;"" />
              </div>","null",""
"","","","","","html-keyboard-response","90","271759","0.0-90.0","9A8EB5A7024249A58CA8E8E4D4AFD854","ebf5df97-3099-4004-a082-51b9a8ed5f99","60874837-17fe-43d8-ba5e-75a805c652dd","","null","<div style=""display: flex; justify-content: center; align-items: center;"">
                <img src=""images/causal/causal_series_12/causal_series_12_b.jpg"" style=""width: 300px; height: 300px;"" />
              </div>","null",""
"","","","","","html-keyboard-response","91","274770","0.0-91.0","9A8EB5A7024249A58CA8E8E4D4AFD854","ebf5df97-3099-4004-a082-51b9a8ed5f99","60874837-17fe-43d8-ba5e-75a805c652dd","","null","<div style=""display: flex; justify-content: center; align-items: center;"">
                <img src=""images/causal/causal_series_12/causal_series_12_c.jpg"" style=""width: 300px; height: 300px;"" />
              </div>","null",""
"","","","","","html-button-response","92","275786","0.0-92.0","9A8EB5A7024249A58CA8E8E4D4AFD854","ebf5df97-3099-4004-a082-51b9a8ed5f99","60874837-17fe-43d8-ba5e-75a805c652dd","","1015","
    <div style=""display: flex; justify-content: center; align-items: center;"">
      <img src=""images/red_deck_2.png"" style=""width: 300px; height: 300px; margin-right: 10px;"" />
      <img src=""images/blue_deck_1.png"" style=""width: 300px; height: 300px;"" />
    </div>","1","1"
"","","","","","html-keyboard-response","93","278791","0.0-93.0-1.0-0.0","9A8EB5A7024249A58CA8E8E4D4AFD854","ebf5df97-3099-4004-a082-51b9a8ed5f99","60874837-17fe-43d8-ba5e-75a805c652dd","","null","<div style=""display: flex; justify-content: center; align-items: center;"">
                <img src=""images/semantic/semantic_series_11/semantic_series_11_d.jpg"" style=""width: 300px; height: 300px;"" />
              </div>","null",""
"","","","","","html-keyboard-response","94","281793","0.0-94.0","9A8EB5A7024249A58CA8E8E4D4AFD854","ebf5df97-3099-4004-a082-51b9a8ed5f99","60874837-17fe-43d8-ba5e-75a805c652dd","","null","<div style=""display: flex; justify-content: center; align-items: center;"">
                <img src=""images/other/blank.jpg"" style=""width: 300px; height: 300px;"" />
              </div>","null",""
"","","","","","html-keyboard-response","95","284800","0.0-95.0","9A8EB5A7024249A58CA8E8E4D4AFD854","ebf5df97-3099-4004-a082-51b9a8ed5f99","60874837-17fe-43d8-ba5e-75a805c652dd","","null","<div style=""display: flex; justify-content: center; align-items: center;"">
                <img src=""images/causal/causal_series_8/causal_series_8_a.jpg"" style=""width: 300px; height: 300px;"" />
              </div>","null",""
"","","","","","html-keyboard-response","96","287811","0.0-96.0","9A8EB5A7024249A58CA8E8E4D4AFD854","ebf5df97-3099-4004-a082-51b9a8ed5f99","60874837-17fe-43d8-ba5e-75a805c652dd","","null","<div style=""display: flex; justify-content: center; align-items: center;"">
                <img src=""images/causal/causal_series_8/causal_series_8_b.jpg"" style=""width: 300px; height: 300px;"" />
              </div>","null",""
"","","","","","html-keyboard-response","97","290816","0.0-97.0","9A8EB5A7024249A58CA8E8E4D4AFD854","ebf5df97-3099-4004-a082-51b9a8ed5f99","60874837-17fe-43d8-ba5e-75a805c652dd","","null","<div style=""display: flex; justify-content: center; align-items: center;"">
                <img src=""images/causal/causal_series_8/causal_series_8_c.jpg"" style=""width: 300px; height: 300px;"" />
              </div>","null",""
"","","","","","html-button-response","98","291708","0.0-98.0","9A8EB5A7024249A58CA8E8E4D4AFD854","ebf5df97-3099-4004-a082-51b9a8ed5f99","60874837-17fe-43d8-ba5e-75a805c652dd","","891","
    <div style=""display: flex; justify-content: center; align-items: center;"">
      <img src=""images/red_deck_2.png"" style=""width: 300px; height: 300px; margin-right: 10px;"" />
      <img src=""images/blue_deck_1.png"" style=""width: 300px; height: 300px;"" />
    </div>","1","1"
"","","","","","html-keyboard-response","99","294716","0.0-99.0-1.0-0.0","9A8EB5A7024249A58CA8E8E4D4AFD854","ebf5df97-3099-4004-a082-51b9a8ed5f99","60874837-17fe-43d8-ba5e-75a805c652dd","","null","<div style=""display: flex; justify-content: center; align-items: center;"">
                <img src=""images/semantic/semantic_series_7/semantic_series_7_d.jpg"" style=""width: 300px; height: 300px;"" />
              </div>","null",""
"","","","","","html-keyboard-response","100","297724","0.0-100.0","9A8EB5A7024249A58CA8E8E4D4AFD854","ebf5df97-3099-4004-a082-51b9a8ed5f99","60874837-17fe-43d8-ba5e-75a805c652dd","","null","<div style=""display: flex; justify-content: center; align-items: center;"">
                <img src=""images/other/blank.jpg"" style=""width: 300px; height: 300px;"" />
              </div>","null",""
"","","","","","html-keyboard-response","101","300729","0.0-101.0","9A8EB5A7024249A58CA8E8E4D4AFD854","ebf5df97-3099-4004-a082-51b9a8ed5f99","60874837-17fe-43d8-ba5e-75a805c652dd","","null","<div style=""display: flex; justify-content: center; align-items: center;"">
                <img src=""images/causal/causal_series_11/causal_series_11_a.jpg"" style=""width: 300px; height: 300px;"" />
              </div>","null",""
"","","","","","html-keyboard-response","102","303735","0.0-102.0","9A8EB5A7024249A58CA8E8E4D4AFD854","ebf5df97-3099-4004-a082-51b9a8ed5f99","60874837-17fe-43d8-ba5e-75a805c652dd","","null","<div style=""display: flex; justify-content: center; align-items: center;"">
                <img src=""images/causal/causal_series_11/causal_series_11_b.jpg"" style=""width: 300px; height: 300px;"" />
              </div>","null",""
"","","","","","html-keyboard-response","103","306745","0.0-103.0","9A8EB5A7024249A58CA8E8E4D4AFD854","ebf5df97-3099-4004-a082-51b9a8ed5f99","60874837-17fe-43d8-ba5e-75a805c652dd","","null","<div style=""display: flex; justify-content: center; align-items: center;"">
                <img src=""images/causal/causal_series_11/causal_series_11_c.jpg"" style=""width: 300px; height: 300px;"" />
              </div>","null",""
"","","","","","html-button-response","104","310317","0.0-104.0","9A8EB5A7024249A58CA8E8E4D4AFD854","ebf5df97-3099-4004-a082-51b9a8ed5f99","60874837-17fe-43d8-ba5e-75a805c652dd","","3571","
    <div style=""display: flex; justify-content: center; align-items: center;"">
      <img src=""images/red_deck_2.png"" style=""width: 300px; height: 300px; margin-right: 10px;"" />
      <img src=""images/blue_deck_1.png"" style=""width: 300px; height: 300px;"" />
    </div>","1","1"
"","","","","","html-keyboard-response","105","313327","0.0-105.0-1.0-0.0","9A8EB5A7024249A58CA8E8E4D4AFD854","ebf5df97-3099-4004-a082-51b9a8ed5f99","60874837-17fe-43d8-ba5e-75a805c652dd","","null","<div style=""display: flex; justify-content: center; align-items: center;"">
                <img src=""images/semantic/semantic_series_10/semantic_series_10_d.jpg"" style=""width: 300px; height: 300px;"" />
              </div>","null",""
"","","","","","html-keyboard-response","106","316336","0.0-106.0","9A8EB5A7024249A58CA8E8E4D4AFD854","ebf5df97-3099-4004-a082-51b9a8ed5f99","60874837-17fe-43d8-ba5e-75a805c652dd","","null","<div style=""display: flex; justify-content: center; align-items: center;"">
                <img src=""images/other/blank.jpg"" style=""width: 300px; height: 300px;"" />
              </div>","null",""
"","","","","","html-keyboard-response","107","319345","0.0-107.0","9A8EB5A7024249A58CA8E8E4D4AFD854","ebf5df97-3099-4004-a082-51b9a8ed5f99","60874837-17fe-43d8-ba5e-75a805c652dd","","null","<div style=""display: flex; justify-content: center; align-items: center;"">
                <img src=""images/causal/causal_series_6/causal_series_6_a.jpg"" style=""width: 300px; height: 300px;"" />
              </div>","null",""
"","","","","","html-keyboard-response","108","322360","0.0-108.0","9A8EB5A7024249A58CA8E8E4D4AFD854","ebf5df97-3099-4004-a082-51b9a8ed5f99","60874837-17fe-43d8-ba5e-75a805c652dd","","null","<div style=""display: flex; justify-content: center; align-items: center;"">
                <img src=""images/causal/causal_series_6/causal_series_6_b.jpg"" style=""width: 300px; height: 300px;"" />
              </div>","null",""
"","","","","","html-keyboard-response","109","325374","0.0-109.0","9A8EB5A7024249A58CA8E8E4D4AFD854","ebf5df97-3099-4004-a082-51b9a8ed5f99","60874837-17fe-43d8-ba5e-75a805c652dd","","null","<div style=""display: flex; justify-content: center; align-items: center;"">
                <img src=""images/causal/causal_series_6/causal_series_6_c.jpg"" style=""width: 300px; height: 300px;"" />
              </div>","null",""
"","","","","","html-button-response","110","326603","0.0-110.0","9A8EB5A7024249A58CA8E8E4D4AFD854","ebf5df97-3099-4004-a082-51b9a8ed5f99","60874837-17fe-43d8-ba5e-75a805c652dd","","1228","
    <div style=""display: flex; justify-content: center; align-items: center;"">
      <img src=""images/red_deck_2.png"" style=""width: 300px; height: 300px; margin-right: 10px;"" />
      <img src=""images/blue_deck_1.png"" style=""width: 300px; height: 300px;"" />
    </div>","1","1"
"","","","","","html-keyboard-response","111","329618","0.0-111.0-1.0-0.0","9A8EB5A7024249A58CA8E8E4D4AFD854","ebf5df97-3099-4004-a082-51b9a8ed5f99","60874837-17fe-43d8-ba5e-75a805c652dd","","null","<div style=""display: flex; justify-content: center; align-items: center;"">
                <img src=""images/semantic/semantic_series_5/semantic_series_5_d.jpg"" style=""width: 300px; height: 300px;"" />
              </div>","null",""
"","","","","","html-keyboard-response","112","332635","0.0-112.0","9A8EB5A7024249A58CA8E8E4D4AFD854","ebf5df97-3099-4004-a082-51b9a8ed5f99","60874837-17fe-43d8-ba5e-75a805c652dd","","null","<div style=""display: flex; justify-content: center; align-items: center;"">
                <img src=""images/other/blank.jpg"" style=""width: 300px; height: 300px;"" />
              </div>","null",""
"","","","","","survey-text","113","361735","0.0-113.0","9A8EB5A7024249A58CA8E8E4D4AFD854","ebf5df97-3099-4004-a082-51b9a8ed5f99","60874837-17fe-43d8-ba5e-75a805c652dd","","29097","","{""Q0"":""The different between the two decks were their color""}",""
"","","","","","survey-text","114","371250","0.0-114.0","9A8EB5A7024249A58CA8E8E4D4AFD854","ebf5df97-3099-4004-a082-51b9a8ed5f99","60874837-17fe-43d8-ba5e-75a805c652dd","","9514","","{""Q0"":""The blue""}",""
"","","","","","html-button-response","115","376352","0.0-115.0","9A8EB5A7024249A58CA8E8E4D4AFD854","ebf5df97-3099-4004-a082-51b9a8ed5f99","60874837-17fe-43d8-ba5e-75a805c652dd","","5101","Which color deck does the fourth image continue the story from the series?","1",""
"","","","","","html-button-response","116","380686","0.0-116.0","9A8EB5A7024249A58CA8E8E4D4AFD854","ebf5df97-3099-4004-a082-51b9a8ed5f99","60874837-17fe-43d8-ba5e-75a805c652dd","","4333","Which color deck does the fourth image not follow the story from the series?","0",""
"","","","","","survey-text","117","391834","0.0-117.0","9A8EB5A7024249A58CA8E8E4D4AFD854","ebf5df97-3099-4004-a082-51b9a8ed5f99","60874837-17fe-43d8-ba5e-75a805c652dd","","11144","","{""Q0"":""MALE"",""Q1"":""27""}",""
"","","","","","instructions","118","397671","0.0-118.0","9A8EB5A7024249A58CA8E8E4D4AFD854","ebf5df97-3099-4004-a082-51b9a8ed5f99","60874837-17fe-43d8-ba5e-75a805c652dd","[{""page_index"":0,""viewing_time"":5836}]","5836","","",""
