"success","timeout","failed_images","failed_audio","failed_video","trial_type","trial_index","time_elapsed","internal_node_id","subject","subject_id","study_id","session_id","urlvar","current_url","view_history","rt","stimulus","response","choice","question_order"
"true","false","[]","[]","[]","preload","0","1752","0.0-0.0","DD5CB01757414B369C3F986A0CE31F4E","DD5CB01757414B369C3F986A0CE31F4E","ff2240e7-6adf-4346-a4dc-e5e6d5927d76","e622c465-ee29-4445-8260-1f3431e06587","{""participantId"":""DD5CB01757414B369C3F986A0CE31F4E"",""assignmentId"":""ff2240e7-6adf-4346-a4dc-e5e6d5927d76"",""projectId"":""e622c465-ee29-4445-8260-1f3431e06587""}","https://test12345.live/?participantId=DD5CB01757414B369C3F986A0CE31F4E&assignmentId=ff2240e7-6adf-4346-a4dc-e5e6d5927d76&projectId=e622c465-ee29-4445-8260-1f3431e06587","","","","","",""
"","","","","","instructions","1","10755","0.0-1.0","DD5CB01757414B369C3F986A0CE31F4E","DD5CB01757414B369C3F986A0CE31F4E","ff2240e7-6adf-4346-a4dc-e5e6d5927d76","e622c465-ee29-4445-8260-1f3431e06587","{""participantId"":""DD5CB01757414B369C3F986A0CE31F4E"",""assignmentId"":""ff2240e7-6adf-4346-a4dc-e5e6d5927d76"",""projectId"":""e622c465-ee29-4445-8260-1f3431e06587""}","https://test12345.live/?participantId=DD5CB01757414B369C3F986A0CE31F4E&assignmentId=ff2240e7-6adf-4346-a4dc-e5e6d5927d76&projectId=e622c465-ee29-4445-8260-1f3431e06587","[{""page_index"":0,""viewing_time"":9001}]","9002","","","",""
"","","","","","instructions","2","86503","0.0-2.0","DD5CB01757414B369C3F986A0CE31F4E","DD5CB01757414B369C3F986A0CE31F4E","ff2240e7-6adf-4346-a4dc-e5e6d5927d76","e622c465-ee29-4445-8260-1f3431e06587","{""participantId"":""DD5CB01757414B369C3F986A0CE31F4E"",""assignmentId"":""ff2240e7-6adf-4346-a4dc-e5e6d5927d76"",""projectId"":""e622c465-ee29-4445-8260-1f3431e06587""}","https://test12345.live/?participantId=DD5CB01757414B369C3F986A0CE31F4E&assignmentId=ff2240e7-6adf-4346-a4dc-e5e6d5927d76&projectId=e622c465-ee29-4445-8260-1f3431e06587","[{""page_index"":0,""viewing_time"":75746}]","75747","","","",""
"true","","","","","fullscreen","3","91530","0.0-3.0","DD5CB01757414B369C3F986A0CE31F4E","DD5CB01757414B369C3F986A0CE31F4E","ff2240e7-6adf-4346-a4dc-e5e6d5927d76","e622c465-ee29-4445-8260-1f3431e06587","{""participantId"":""DD5CB01757414B369C3F986A0CE31F4E"",""assignmentId"":""ff2240e7-6adf-4346-a4dc-e5e6d5927d76"",""projectId"":""e622c465-ee29-4445-8260-1f3431e06587""}","https://test12345.live/?participantId=DD5CB01757414B369C3F986A0CE31F4E&assignmentId=ff2240e7-6adf-4346-a4dc-e5e6d5927d76&projectId=e622c465-ee29-4445-8260-1f3431e06587","","4008","","","",""
"","","","","","instructions","4","115136","0.0-4.0","DD5CB01757414B369C3F986A0CE31F4E","DD5CB01757414B369C3F986A0CE31F4E","ff2240e7-6adf-4346-a4dc-e5e6d5927d76","e622c465-ee29-4445-8260-1f3431e06587","{""participantId"":""DD5CB01757414B369C3F986A0CE31F4E"",""assignmentId"":""ff2240e7-6adf-4346-a4dc-e5e6d5927d76"",""projectId"":""e622c465-ee29-4445-8260-1f3431e06587""}","https://test12345.live/?participantId=DD5CB01757414B369C3F986A0CE31F4E&assignmentId=ff2240e7-6adf-4346-a4dc-e5e6d5927d76&projectId=e622c465-ee29-4445-8260-1f3431e06587","[{""page_index"":0,""viewing_time"":23604}]","23605","","","",""
"","","","","","html-button-response","5","122993","0.0-5.0","DD5CB01757414B369C3F986A0CE31F4E","DD5CB01757414B369C3F986A0CE31F4E","ff2240e7-6adf-4346-a4dc-e5e6d5927d76","e622c465-ee29-4445-8260-1f3431e06587","{""participantId"":""DD5CB01757414B369C3F986A0CE31F4E"",""assignmentId"":""ff2240e7-6adf-4346-a4dc-e5e6d5927d76"",""projectId"":""e622c465-ee29-4445-8260-1f3431e06587""}","https://test12345.live/?participantId=DD5CB01757414B369C3F986A0CE31F4E&assignmentId=ff2240e7-6adf-4346-a4dc-e5e6d5927d76&projectId=e622c465-ee29-4445-8260-1f3431e06587","","7851","
    <div style=""display: flex; justify-content: center; align-items: center;"">
      <img src=""images/blue_deck_1.png"" style=""width: 300px; height: 300px; margin-right: 10px;"" />
      <img src=""images/red_deck_2.png"" style=""width: 300px; height: 300px;"" />
    </div>","0","0",""
"","","","","","html-keyboard-response","6","126005","0.0-6.0-0.0","DD5CB01757414B369C3F986A0CE31F4E","DD5CB01757414B369C3F986A0CE31F4E","ff2240e7-6adf-4346-a4dc-e5e6d5927d76","e622c465-ee29-4445-8260-1f3431e06587","{""participantId"":""DD5CB01757414B369C3F986A0CE31F4E"",""assignmentId"":""ff2240e7-6adf-4346-a4dc-e5e6d5927d76"",""projectId"":""e622c465-ee29-4445-8260-1f3431e06587""}","https://test12345.live/?participantId=DD5CB01757414B369C3F986A0CE31F4E&assignmentId=ff2240e7-6adf-4346-a4dc-e5e6d5927d76&projectId=e622c465-ee29-4445-8260-1f3431e06587","","null","<div style=""display: flex; justify-content: center; align-items: center;"">
                    <img src=""images/causal/causal_series_7/causal_series_7_a.jpg"" style=""width: 300px; height: 300px;"" />
                  </div>","null","",""
"","","","","","html-keyboard-response","7","129017","0.0-6.0-1.0","DD5CB01757414B369C3F986A0CE31F4E","DD5CB01757414B369C3F986A0CE31F4E","ff2240e7-6adf-4346-a4dc-e5e6d5927d76","e622c465-ee29-4445-8260-1f3431e06587","{""participantId"":""DD5CB01757414B369C3F986A0CE31F4E"",""assignmentId"":""ff2240e7-6adf-4346-a4dc-e5e6d5927d76"",""projectId"":""e622c465-ee29-4445-8260-1f3431e06587""}","https://test12345.live/?participantId=DD5CB01757414B369C3F986A0CE31F4E&assignmentId=ff2240e7-6adf-4346-a4dc-e5e6d5927d76&projectId=e622c465-ee29-4445-8260-1f3431e06587","","null","<div style=""display: flex; justify-content: center; align-items: center;"">
                    <img src=""images/causal/causal_series_7/causal_series_7_b.jpg"" style=""width: 300px; height: 300px;"" />
                  </div>","null","",""
"","","","","","html-keyboard-response","8","132021","0.0-6.0-2.0","DD5CB01757414B369C3F986A0CE31F4E","DD5CB01757414B369C3F986A0CE31F4E","ff2240e7-6adf-4346-a4dc-e5e6d5927d76","e622c465-ee29-4445-8260-1f3431e06587","{""participantId"":""DD5CB01757414B369C3F986A0CE31F4E"",""assignmentId"":""ff2240e7-6adf-4346-a4dc-e5e6d5927d76"",""projectId"":""e622c465-ee29-4445-8260-1f3431e06587""}","https://test12345.live/?participantId=DD5CB01757414B369C3F986A0CE31F4E&assignmentId=ff2240e7-6adf-4346-a4dc-e5e6d5927d76&projectId=e622c465-ee29-4445-8260-1f3431e06587","","null","<div style=""display: flex; justify-content: center; align-items: center;"">
                    <img src=""images/causal/causal_series_7/causal_series_7_c.jpg"" style=""width: 300px; height: 300px;"" />
                  </div>","null","",""
"","","","","","html-keyboard-response","9","135027","0.0-6.0-3.0","DD5CB01757414B369C3F986A0CE31F4E","DD5CB01757414B369C3F986A0CE31F4E","ff2240e7-6adf-4346-a4dc-e5e6d5927d76","e622c465-ee29-4445-8260-1f3431e06587","{""participantId"":""DD5CB01757414B369C3F986A0CE31F4E"",""assignmentId"":""ff2240e7-6adf-4346-a4dc-e5e6d5927d76"",""projectId"":""e622c465-ee29-4445-8260-1f3431e06587""}","https://test12345.live/?participantId=DD5CB01757414B369C3F986A0CE31F4E&assignmentId=ff2240e7-6adf-4346-a4dc-e5e6d5927d76&projectId=e622c465-ee29-4445-8260-1f3431e06587","","null","<div style=""display: flex; justify-content: center; align-items: center;"">
                    <img src=""images/causal/causal_series_7/causal_series_7_d.jpg"" style=""width: 300px; height: 300px;"" />
                  </div>","null","",""
"","","","","","html-button-response","10","140816","0.0-8.0","DD5CB01757414B369C3F986A0CE31F4E","DD5CB01757414B369C3F986A0CE31F4E","ff2240e7-6adf-4346-a4dc-e5e6d5927d76","e622c465-ee29-4445-8260-1f3431e06587","{""participantId"":""DD5CB01757414B369C3F986A0CE31F4E"",""assignmentId"":""ff2240e7-6adf-4346-a4dc-e5e6d5927d76"",""projectId"":""e622c465-ee29-4445-8260-1f3431e06587""}","https://test12345.live/?participantId=DD5CB01757414B369C3F986A0CE31F4E&assignmentId=ff2240e7-6adf-4346-a4dc-e5e6d5927d76&projectId=e622c465-ee29-4445-8260-1f3431e06587","","5786","Was there a person in the picture?","1","",""
"","","","","","survey-likert","11","146566","0.0-9.0","DD5CB01757414B369C3F986A0CE31F4E","DD5CB01757414B369C3F986A0CE31F4E","ff2240e7-6adf-4346-a4dc-e5e6d5927d76","e622c465-ee29-4445-8260-1f3431e06587","{""participantId"":""DD5CB01757414B369C3F986A0CE31F4E"",""assignmentId"":""ff2240e7-6adf-4346-a4dc-e5e6d5927d76"",""projectId"":""e622c465-ee29-4445-8260-1f3431e06587""}","https://test12345.live/?participantId=DD5CB01757414B369C3F986A0CE31F4E&assignmentId=ff2240e7-6adf-4346-a4dc-e5e6d5927d76&projectId=e622c465-ee29-4445-8260-1f3431e06587","","5740","","{""Q0"":2}","","[0]"
"","","","","","html-button-response","12","153299","0.0-10.0","DD5CB01757414B369C3F986A0CE31F4E","DD5CB01757414B369C3F986A0CE31F4E","ff2240e7-6adf-4346-a4dc-e5e6d5927d76","e622c465-ee29-4445-8260-1f3431e06587","{""participantId"":""DD5CB01757414B369C3F986A0CE31F4E"",""assignmentId"":""ff2240e7-6adf-4346-a4dc-e5e6d5927d76"",""projectId"":""e622c465-ee29-4445-8260-1f3431e06587""}","https://test12345.live/?participantId=DD5CB01757414B369C3F986A0CE31F4E&assignmentId=ff2240e7-6adf-4346-a4dc-e5e6d5927d76&projectId=e622c465-ee29-4445-8260-1f3431e06587","","6729","
    <div style=""display: flex; justify-content: center; align-items: center;"">
      <img src=""images/blue_deck_1.png"" style=""width: 300px; height: 300px; margin-right: 10px;"" />
      <img src=""images/red_deck_2.png"" style=""width: 300px; height: 300px;"" />
    </div>","0","0",""
"","","","","","html-keyboard-response","13","156311","0.0-11.0-0.0","DD5CB01757414B369C3F986A0CE31F4E","DD5CB01757414B369C3F986A0CE31F4E","ff2240e7-6adf-4346-a4dc-e5e6d5927d76","e622c465-ee29-4445-8260-1f3431e06587","{""participantId"":""DD5CB01757414B369C3F986A0CE31F4E"",""assignmentId"":""ff2240e7-6adf-4346-a4dc-e5e6d5927d76"",""projectId"":""e622c465-ee29-4445-8260-1f3431e06587""}","https://test12345.live/?participantId=DD5CB01757414B369C3F986A0CE31F4E&assignmentId=ff2240e7-6adf-4346-a4dc-e5e6d5927d76&projectId=e622c465-ee29-4445-8260-1f3431e06587","","null","<div style=""display: flex; justify-content: center; align-items: center;"">
                    <img src=""images/causal/causal_series_10/causal_series_10_a.jpg"" style=""width: 300px; height: 300px;"" />
                  </div>","null","",""
"","","","","","html-keyboard-response","14","159322","0.0-11.0-1.0","DD5CB01757414B369C3F986A0CE31F4E","DD5CB01757414B369C3F986A0CE31F4E","ff2240e7-6adf-4346-a4dc-e5e6d5927d76","e622c465-ee29-4445-8260-1f3431e06587","{""participantId"":""DD5CB01757414B369C3F986A0CE31F4E"",""assignmentId"":""ff2240e7-6adf-4346-a4dc-e5e6d5927d76"",""projectId"":""e622c465-ee29-4445-8260-1f3431e06587""}","https://test12345.live/?participantId=DD5CB01757414B369C3F986A0CE31F4E&assignmentId=ff2240e7-6adf-4346-a4dc-e5e6d5927d76&projectId=e622c465-ee29-4445-8260-1f3431e06587","","null","<div style=""display: flex; justify-content: center; align-items: center;"">
                    <img src=""images/causal/causal_series_10/causal_series_10_b.jpg"" style=""width: 300px; height: 300px;"" />
                  </div>","null","",""
"","","","","","html-keyboard-response","15","162330","0.0-11.0-2.0","DD5CB01757414B369C3F986A0CE31F4E","DD5CB01757414B369C3F986A0CE31F4E","ff2240e7-6adf-4346-a4dc-e5e6d5927d76","e622c465-ee29-4445-8260-1f3431e06587","{""participantId"":""DD5CB01757414B369C3F986A0CE31F4E"",""assignmentId"":""ff2240e7-6adf-4346-a4dc-e5e6d5927d76"",""projectId"":""e622c465-ee29-4445-8260-1f3431e06587""}","https://test12345.live/?participantId=DD5CB01757414B369C3F986A0CE31F4E&assignmentId=ff2240e7-6adf-4346-a4dc-e5e6d5927d76&projectId=e622c465-ee29-4445-8260-1f3431e06587","","null","<div style=""display: flex; justify-content: center; align-items: center;"">
                    <img src=""images/causal/causal_series_10/causal_series_10_c.jpg"" style=""width: 300px; height: 300px;"" />
                  </div>","null","",""
"","","","","","html-keyboard-response","16","165343","0.0-11.0-3.0","DD5CB01757414B369C3F986A0CE31F4E","DD5CB01757414B369C3F986A0CE31F4E","ff2240e7-6adf-4346-a4dc-e5e6d5927d76","e622c465-ee29-4445-8260-1f3431e06587","{""participantId"":""DD5CB01757414B369C3F986A0CE31F4E"",""assignmentId"":""ff2240e7-6adf-4346-a4dc-e5e6d5927d76"",""projectId"":""e622c465-ee29-4445-8260-1f3431e06587""}","https://test12345.live/?participantId=DD5CB01757414B369C3F986A0CE31F4E&assignmentId=ff2240e7-6adf-4346-a4dc-e5e6d5927d76&projectId=e622c465-ee29-4445-8260-1f3431e06587","","null","<div style=""display: flex; justify-content: center; align-items: center;"">
                    <img src=""images/causal/causal_series_10/causal_series_10_d.jpg"" style=""width: 300px; height: 300px;"" />
                  </div>","null","",""
"","","","","","html-button-response","17","167111","0.0-13.0","DD5CB01757414B369C3F986A0CE31F4E","DD5CB01757414B369C3F986A0CE31F4E","ff2240e7-6adf-4346-a4dc-e5e6d5927d76","e622c465-ee29-4445-8260-1f3431e06587","{""participantId"":""DD5CB01757414B369C3F986A0CE31F4E"",""assignmentId"":""ff2240e7-6adf-4346-a4dc-e5e6d5927d76"",""projectId"":""e622c465-ee29-4445-8260-1f3431e06587""}","https://test12345.live/?participantId=DD5CB01757414B369C3F986A0CE31F4E&assignmentId=ff2240e7-6adf-4346-a4dc-e5e6d5927d76&projectId=e622c465-ee29-4445-8260-1f3431e06587","","1766","Was there a person in the picture?","1","",""
"","","","","","survey-likert","18","170751","0.0-14.0","DD5CB01757414B369C3F986A0CE31F4E","DD5CB01757414B369C3F986A0CE31F4E","ff2240e7-6adf-4346-a4dc-e5e6d5927d76","e622c465-ee29-4445-8260-1f3431e06587","{""participantId"":""DD5CB01757414B369C3F986A0CE31F4E"",""assignmentId"":""ff2240e7-6adf-4346-a4dc-e5e6d5927d76"",""projectId"":""e622c465-ee29-4445-8260-1f3431e06587""}","https://test12345.live/?participantId=DD5CB01757414B369C3F986A0CE31F4E&assignmentId=ff2240e7-6adf-4346-a4dc-e5e6d5927d76&projectId=e622c465-ee29-4445-8260-1f3431e06587","","3637","","{""Q0"":2}","","[0]"
"","","","","","html-button-response","19","176549","0.0-15.0","DD5CB01757414B369C3F986A0CE31F4E","DD5CB01757414B369C3F986A0CE31F4E","ff2240e7-6adf-4346-a4dc-e5e6d5927d76","e622c465-ee29-4445-8260-1f3431e06587","{""participantId"":""DD5CB01757414B369C3F986A0CE31F4E"",""assignmentId"":""ff2240e7-6adf-4346-a4dc-e5e6d5927d76"",""projectId"":""e622c465-ee29-4445-8260-1f3431e06587""}","https://test12345.live/?participantId=DD5CB01757414B369C3F986A0CE31F4E&assignmentId=ff2240e7-6adf-4346-a4dc-e5e6d5927d76&projectId=e622c465-ee29-4445-8260-1f3431e06587","","5792","
    <div style=""display: flex; justify-content: center; align-items: center;"">
      <img src=""images/blue_deck_1.png"" style=""width: 300px; height: 300px; margin-right: 10px;"" />
      <img src=""images/red_deck_2.png"" style=""width: 300px; height: 300px;"" />
    </div>","0","0",""
"","","","","","html-keyboard-response","20","179558","0.0-16.0-0.0","DD5CB01757414B369C3F986A0CE31F4E","DD5CB01757414B369C3F986A0CE31F4E","ff2240e7-6adf-4346-a4dc-e5e6d5927d76","e622c465-ee29-4445-8260-1f3431e06587","{""participantId"":""DD5CB01757414B369C3F986A0CE31F4E"",""assignmentId"":""ff2240e7-6adf-4346-a4dc-e5e6d5927d76"",""projectId"":""e622c465-ee29-4445-8260-1f3431e06587""}","https://test12345.live/?participantId=DD5CB01757414B369C3F986A0CE31F4E&assignmentId=ff2240e7-6adf-4346-a4dc-e5e6d5927d76&projectId=e622c465-ee29-4445-8260-1f3431e06587","","null","<div style=""display: flex; justify-content: center; align-items: center;"">
                    <img src=""images/causal/causal_series_3/causal_series_3_a.jpg"" style=""width: 300px; height: 300px;"" />
                  </div>","null","",""
"","","","","","html-keyboard-response","21","182562","0.0-16.0-1.0","DD5CB01757414B369C3F986A0CE31F4E","DD5CB01757414B369C3F986A0CE31F4E","ff2240e7-6adf-4346-a4dc-e5e6d5927d76","e622c465-ee29-4445-8260-1f3431e06587","{""participantId"":""DD5CB01757414B369C3F986A0CE31F4E"",""assignmentId"":""ff2240e7-6adf-4346-a4dc-e5e6d5927d76"",""projectId"":""e622c465-ee29-4445-8260-1f3431e06587""}","https://test12345.live/?participantId=DD5CB01757414B369C3F986A0CE31F4E&assignmentId=ff2240e7-6adf-4346-a4dc-e5e6d5927d76&projectId=e622c465-ee29-4445-8260-1f3431e06587","","null","<div style=""display: flex; justify-content: center; align-items: center;"">
                    <img src=""images/causal/causal_series_3/causal_series_3_b.jpg"" style=""width: 300px; height: 300px;"" />
                  </div>","null","",""
"","","","","","html-keyboard-response","22","185565","0.0-16.0-2.0","DD5CB01757414B369C3F986A0CE31F4E","DD5CB01757414B369C3F986A0CE31F4E","ff2240e7-6adf-4346-a4dc-e5e6d5927d76","e622c465-ee29-4445-8260-1f3431e06587","{""participantId"":""DD5CB01757414B369C3F986A0CE31F4E"",""assignmentId"":""ff2240e7-6adf-4346-a4dc-e5e6d5927d76"",""projectId"":""e622c465-ee29-4445-8260-1f3431e06587""}","https://test12345.live/?participantId=DD5CB01757414B369C3F986A0CE31F4E&assignmentId=ff2240e7-6adf-4346-a4dc-e5e6d5927d76&projectId=e622c465-ee29-4445-8260-1f3431e06587","","null","<div style=""display: flex; justify-content: center; align-items: center;"">
                    <img src=""images/causal/causal_series_3/causal_series_3_c.jpg"" style=""width: 300px; height: 300px;"" />
                  </div>","null","",""
"","","","","","html-keyboard-response","23","188582","0.0-16.0-3.0","DD5CB01757414B369C3F986A0CE31F4E","DD5CB01757414B369C3F986A0CE31F4E","ff2240e7-6adf-4346-a4dc-e5e6d5927d76","e622c465-ee29-4445-8260-1f3431e06587","{""participantId"":""DD5CB01757414B369C3F986A0CE31F4E"",""assignmentId"":""ff2240e7-6adf-4346-a4dc-e5e6d5927d76"",""projectId"":""e622c465-ee29-4445-8260-1f3431e06587""}","https://test12345.live/?participantId=DD5CB01757414B369C3F986A0CE31F4E&assignmentId=ff2240e7-6adf-4346-a4dc-e5e6d5927d76&projectId=e622c465-ee29-4445-8260-1f3431e06587","","null","<div style=""display: flex; justify-content: center; align-items: center;"">
                    <img src=""images/causal/causal_series_3/causal_series_3_d.jpg"" style=""width: 300px; height: 300px;"" />
                  </div>","null","",""
"","","","","","html-button-response","24","190464","0.0-18.0","DD5CB01757414B369C3F986A0CE31F4E","DD5CB01757414B369C3F986A0CE31F4E","ff2240e7-6adf-4346-a4dc-e5e6d5927d76","e622c465-ee29-4445-8260-1f3431e06587","{""participantId"":""DD5CB01757414B369C3F986A0CE31F4E"",""assignmentId"":""ff2240e7-6adf-4346-a4dc-e5e6d5927d76"",""projectId"":""e622c465-ee29-4445-8260-1f3431e06587""}","https://test12345.live/?participantId=DD5CB01757414B369C3F986A0CE31F4E&assignmentId=ff2240e7-6adf-4346-a4dc-e5e6d5927d76&projectId=e622c465-ee29-4445-8260-1f3431e06587","","1880","Was there a person in the picture?","0","",""
"","","","","","survey-likert","25","193272","0.0-19.0","DD5CB01757414B369C3F986A0CE31F4E","DD5CB01757414B369C3F986A0CE31F4E","ff2240e7-6adf-4346-a4dc-e5e6d5927d76","e622c465-ee29-4445-8260-1f3431e06587","{""participantId"":""DD5CB01757414B369C3F986A0CE31F4E"",""assignmentId"":""ff2240e7-6adf-4346-a4dc-e5e6d5927d76"",""projectId"":""e622c465-ee29-4445-8260-1f3431e06587""}","https://test12345.live/?participantId=DD5CB01757414B369C3F986A0CE31F4E&assignmentId=ff2240e7-6adf-4346-a4dc-e5e6d5927d76&projectId=e622c465-ee29-4445-8260-1f3431e06587","","2805","","{""Q0"":2}","","[0]"
"","","","","","html-button-response","26","194464","0.0-20.0","DD5CB01757414B369C3F986A0CE31F4E","DD5CB01757414B369C3F986A0CE31F4E","ff2240e7-6adf-4346-a4dc-e5e6d5927d76","e622c465-ee29-4445-8260-1f3431e06587","{""participantId"":""DD5CB01757414B369C3F986A0CE31F4E"",""assignmentId"":""ff2240e7-6adf-4346-a4dc-e5e6d5927d76"",""projectId"":""e622c465-ee29-4445-8260-1f3431e06587""}","https://test12345.live/?participantId=DD5CB01757414B369C3F986A0CE31F4E&assignmentId=ff2240e7-6adf-4346-a4dc-e5e6d5927d76&projectId=e622c465-ee29-4445-8260-1f3431e06587","","1188","
    <div style=""display: flex; justify-content: center; align-items: center;"">
      <img src=""images/blue_deck_1.png"" style=""width: 300px; height: 300px; margin-right: 10px;"" />
      <img src=""images/red_deck_2.png"" style=""width: 300px; height: 300px;"" />
    </div>","0","0",""
"","","","","","html-keyboard-response","27","197479","0.0-21.0-0.0","DD5CB01757414B369C3F986A0CE31F4E","DD5CB01757414B369C3F986A0CE31F4E","ff2240e7-6adf-4346-a4dc-e5e6d5927d76","e622c465-ee29-4445-8260-1f3431e06587","{""participantId"":""DD5CB01757414B369C3F986A0CE31F4E"",""assignmentId"":""ff2240e7-6adf-4346-a4dc-e5e6d5927d76"",""projectId"":""e622c465-ee29-4445-8260-1f3431e06587""}","https://test12345.live/?participantId=DD5CB01757414B369C3F986A0CE31F4E&assignmentId=ff2240e7-6adf-4346-a4dc-e5e6d5927d76&projectId=e622c465-ee29-4445-8260-1f3431e06587","","null","<div style=""display: flex; justify-content: center; align-items: center;"">
                    <img src=""images/causal/causal_series_17/causal_series_17_a.jpg"" style=""width: 300px; height: 300px;"" />
                  </div>","null","",""
"","","","","","html-keyboard-response","28","200489","0.0-21.0-1.0","DD5CB01757414B369C3F986A0CE31F4E","DD5CB01757414B369C3F986A0CE31F4E","ff2240e7-6adf-4346-a4dc-e5e6d5927d76","e622c465-ee29-4445-8260-1f3431e06587","{""participantId"":""DD5CB01757414B369C3F986A0CE31F4E"",""assignmentId"":""ff2240e7-6adf-4346-a4dc-e5e6d5927d76"",""projectId"":""e622c465-ee29-4445-8260-1f3431e06587""}","https://test12345.live/?participantId=DD5CB01757414B369C3F986A0CE31F4E&assignmentId=ff2240e7-6adf-4346-a4dc-e5e6d5927d76&projectId=e622c465-ee29-4445-8260-1f3431e06587","","null","<div style=""display: flex; justify-content: center; align-items: center;"">
                    <img src=""images/causal/causal_series_17/causal_series_17_b.jpg"" style=""width: 300px; height: 300px;"" />
                  </div>","null","",""
"","","","","","html-keyboard-response","29","203499","0.0-21.0-2.0","DD5CB01757414B369C3F986A0CE31F4E","DD5CB01757414B369C3F986A0CE31F4E","ff2240e7-6adf-4346-a4dc-e5e6d5927d76","e622c465-ee29-4445-8260-1f3431e06587","{""participantId"":""DD5CB01757414B369C3F986A0CE31F4E"",""assignmentId"":""ff2240e7-6adf-4346-a4dc-e5e6d5927d76"",""projectId"":""e622c465-ee29-4445-8260-1f3431e06587""}","https://test12345.live/?participantId=DD5CB01757414B369C3F986A0CE31F4E&assignmentId=ff2240e7-6adf-4346-a4dc-e5e6d5927d76&projectId=e622c465-ee29-4445-8260-1f3431e06587","","null","<div style=""display: flex; justify-content: center; align-items: center;"">
                    <img src=""images/causal/causal_series_17/causal_series_17_c.jpg"" style=""width: 300px; height: 300px;"" />
                  </div>","null","",""
"","","","","","html-keyboard-response","30","206514","0.0-21.0-3.0","DD5CB01757414B369C3F986A0CE31F4E","DD5CB01757414B369C3F986A0CE31F4E","ff2240e7-6adf-4346-a4dc-e5e6d5927d76","e622c465-ee29-4445-8260-1f3431e06587","{""participantId"":""DD5CB01757414B369C3F986A0CE31F4E"",""assignmentId"":""ff2240e7-6adf-4346-a4dc-e5e6d5927d76"",""projectId"":""e622c465-ee29-4445-8260-1f3431e06587""}","https://test12345.live/?participantId=DD5CB01757414B369C3F986A0CE31F4E&assignmentId=ff2240e7-6adf-4346-a4dc-e5e6d5927d76&projectId=e622c465-ee29-4445-8260-1f3431e06587","","null","<div style=""display: flex; justify-content: center; align-items: center;"">
                    <img src=""images/causal/causal_series_17/causal_series_17_d.jpg"" style=""width: 300px; height: 300px;"" />
                  </div>","null","",""
"","","","","","html-button-response","31","208386","0.0-23.0","DD5CB01757414B369C3F986A0CE31F4E","DD5CB01757414B369C3F986A0CE31F4E","ff2240e7-6adf-4346-a4dc-e5e6d5927d76","e622c465-ee29-4445-8260-1f3431e06587","{""participantId"":""DD5CB01757414B369C3F986A0CE31F4E"",""assignmentId"":""ff2240e7-6adf-4346-a4dc-e5e6d5927d76"",""projectId"":""e622c465-ee29-4445-8260-1f3431e06587""}","https://test12345.live/?participantId=DD5CB01757414B369C3F986A0CE31F4E&assignmentId=ff2240e7-6adf-4346-a4dc-e5e6d5927d76&projectId=e622c465-ee29-4445-8260-1f3431e06587","","1869","Was there a person in the picture?","0","",""
"","","","","","survey-likert","32","210157","0.0-24.0","DD5CB01757414B369C3F986A0CE31F4E","DD5CB01757414B369C3F986A0CE31F4E","ff2240e7-6adf-4346-a4dc-e5e6d5927d76","e622c465-ee29-4445-8260-1f3431e06587","{""participantId"":""DD5CB01757414B369C3F986A0CE31F4E"",""assignmentId"":""ff2240e7-6adf-4346-a4dc-e5e6d5927d76"",""projectId"":""e622c465-ee29-4445-8260-1f3431e06587""}","https://test12345.live/?participantId=DD5CB01757414B369C3F986A0CE31F4E&assignmentId=ff2240e7-6adf-4346-a4dc-e5e6d5927d76&projectId=e622c465-ee29-4445-8260-1f3431e06587","","1768","","{""Q0"":2}","","[0]"
"","","","","","html-button-response","33","211412","0.0-25.0","DD5CB01757414B369C3F986A0CE31F4E","DD5CB01757414B369C3F986A0CE31F4E","ff2240e7-6adf-4346-a4dc-e5e6d5927d76","e622c465-ee29-4445-8260-1f3431e06587","{""participantId"":""DD5CB01757414B369C3F986A0CE31F4E"",""assignmentId"":""ff2240e7-6adf-4346-a4dc-e5e6d5927d76"",""projectId"":""e622c465-ee29-4445-8260-1f3431e06587""}","https://test12345.live/?participantId=DD5CB01757414B369C3F986A0CE31F4E&assignmentId=ff2240e7-6adf-4346-a4dc-e5e6d5927d76&projectId=e622c465-ee29-4445-8260-1f3431e06587","","1251","
    <div style=""display: flex; justify-content: center; align-items: center;"">
      <img src=""images/blue_deck_1.png"" style=""width: 300px; height: 300px; margin-right: 10px;"" />
      <img src=""images/red_deck_2.png"" style=""width: 300px; height: 300px;"" />
    </div>","0","0",""
"","","","","","html-keyboard-response","34","214421","0.0-26.0-0.0","DD5CB01757414B369C3F986A0CE31F4E","DD5CB01757414B369C3F986A0CE31F4E","ff2240e7-6adf-4346-a4dc-e5e6d5927d76","e622c465-ee29-4445-8260-1f3431e06587","{""participantId"":""DD5CB01757414B369C3F986A0CE31F4E"",""assignmentId"":""ff2240e7-6adf-4346-a4dc-e5e6d5927d76"",""projectId"":""e622c465-ee29-4445-8260-1f3431e06587""}","https://test12345.live/?participantId=DD5CB01757414B369C3F986A0CE31F4E&assignmentId=ff2240e7-6adf-4346-a4dc-e5e6d5927d76&projectId=e622c465-ee29-4445-8260-1f3431e06587","","null","<div style=""display: flex; justify-content: center; align-items: center;"">
                    <img src=""images/causal/causal_series_12/causal_series_12_a.jpg"" style=""width: 300px; height: 300px;"" />
                  </div>","null","",""
"","","","","","html-keyboard-response","35","217425","0.0-26.0-1.0","DD5CB01757414B369C3F986A0CE31F4E","DD5CB01757414B369C3F986A0CE31F4E","ff2240e7-6adf-4346-a4dc-e5e6d5927d76","e622c465-ee29-4445-8260-1f3431e06587","{""participantId"":""DD5CB01757414B369C3F986A0CE31F4E"",""assignmentId"":""ff2240e7-6adf-4346-a4dc-e5e6d5927d76"",""projectId"":""e622c465-ee29-4445-8260-1f3431e06587""}","https://test12345.live/?participantId=DD5CB01757414B369C3F986A0CE31F4E&assignmentId=ff2240e7-6adf-4346-a4dc-e5e6d5927d76&projectId=e622c465-ee29-4445-8260-1f3431e06587","","null","<div style=""display: flex; justify-content: center; align-items: center;"">
                    <img src=""images/causal/causal_series_12/causal_series_12_b.jpg"" style=""width: 300px; height: 300px;"" />
                  </div>","null","",""
"","","","","","html-keyboard-response","36","220437","0.0-26.0-2.0","DD5CB01757414B369C3F986A0CE31F4E","DD5CB01757414B369C3F986A0CE31F4E","ff2240e7-6adf-4346-a4dc-e5e6d5927d76","e622c465-ee29-4445-8260-1f3431e06587","{""participantId"":""DD5CB01757414B369C3F986A0CE31F4E"",""assignmentId"":""ff2240e7-6adf-4346-a4dc-e5e6d5927d76"",""projectId"":""e622c465-ee29-4445-8260-1f3431e06587""}","https://test12345.live/?participantId=DD5CB01757414B369C3F986A0CE31F4E&assignmentId=ff2240e7-6adf-4346-a4dc-e5e6d5927d76&projectId=e622c465-ee29-4445-8260-1f3431e06587","","null","<div style=""display: flex; justify-content: center; align-items: center;"">
                    <img src=""images/causal/causal_series_12/causal_series_12_c.jpg"" style=""width: 300px; height: 300px;"" />
                  </div>","null","",""
"","","","","","html-keyboard-response","37","223442","0.0-26.0-3.0","DD5CB01757414B369C3F986A0CE31F4E","DD5CB01757414B369C3F986A0CE31F4E","ff2240e7-6adf-4346-a4dc-e5e6d5927d76","e622c465-ee29-4445-8260-1f3431e06587","{""participantId"":""DD5CB01757414B369C3F986A0CE31F4E"",""assignmentId"":""ff2240e7-6adf-4346-a4dc-e5e6d5927d76"",""projectId"":""e622c465-ee29-4445-8260-1f3431e06587""}","https://test12345.live/?participantId=DD5CB01757414B369C3F986A0CE31F4E&assignmentId=ff2240e7-6adf-4346-a4dc-e5e6d5927d76&projectId=e622c465-ee29-4445-8260-1f3431e06587","","null","<div style=""display: flex; justify-content: center; align-items: center;"">
                    <img src=""images/causal/causal_series_12/causal_series_12_d.jpg"" style=""width: 300px; height: 300px;"" />
                  </div>","null","",""
"","","","","","html-button-response","38","225172","0.0-28.0","DD5CB01757414B369C3F986A0CE31F4E","DD5CB01757414B369C3F986A0CE31F4E","ff2240e7-6adf-4346-a4dc-e5e6d5927d76","e622c465-ee29-4445-8260-1f3431e06587","{""participantId"":""DD5CB01757414B369C3F986A0CE31F4E"",""assignmentId"":""ff2240e7-6adf-4346-a4dc-e5e6d5927d76"",""projectId"":""e622c465-ee29-4445-8260-1f3431e06587""}","https://test12345.live/?participantId=DD5CB01757414B369C3F986A0CE31F4E&assignmentId=ff2240e7-6adf-4346-a4dc-e5e6d5927d76&projectId=e622c465-ee29-4445-8260-1f3431e06587","","1728","Was there a person in the picture?","1","",""
"","","","","","survey-likert","39","227599","0.0-29.0","DD5CB01757414B369C3F986A0CE31F4E","DD5CB01757414B369C3F986A0CE31F4E","ff2240e7-6adf-4346-a4dc-e5e6d5927d76","e622c465-ee29-4445-8260-1f3431e06587","{""participantId"":""DD5CB01757414B369C3F986A0CE31F4E"",""assignmentId"":""ff2240e7-6adf-4346-a4dc-e5e6d5927d76"",""projectId"":""e622c465-ee29-4445-8260-1f3431e06587""}","https://test12345.live/?participantId=DD5CB01757414B369C3F986A0CE31F4E&assignmentId=ff2240e7-6adf-4346-a4dc-e5e6d5927d76&projectId=e622c465-ee29-4445-8260-1f3431e06587","","2425","","{""Q0"":2}","","[0]"
"","","","","","html-button-response","40","229024","0.0-30.0","DD5CB01757414B369C3F986A0CE31F4E","DD5CB01757414B369C3F986A0CE31F4E","ff2240e7-6adf-4346-a4dc-e5e6d5927d76","e622c465-ee29-4445-8260-1f3431e06587","{""participantId"":""DD5CB01757414B369C3F986A0CE31F4E"",""assignmentId"":""ff2240e7-6adf-4346-a4dc-e5e6d5927d76"",""projectId"":""e622c465-ee29-4445-8260-1f3431e06587""}","https://test12345.live/?participantId=DD5CB01757414B369C3F986A0CE31F4E&assignmentId=ff2240e7-6adf-4346-a4dc-e5e6d5927d76&projectId=e622c465-ee29-4445-8260-1f3431e06587","","1420","
    <div style=""display: flex; justify-content: center; align-items: center;"">
      <img src=""images/blue_deck_1.png"" style=""width: 300px; height: 300px; margin-right: 10px;"" />
      <img src=""images/red_deck_2.png"" style=""width: 300px; height: 300px;"" />
    </div>","0","0",""
"","","","","","html-keyboard-response","41","232041","0.0-31.0-0.0","DD5CB01757414B369C3F986A0CE31F4E","DD5CB01757414B369C3F986A0CE31F4E","ff2240e7-6adf-4346-a4dc-e5e6d5927d76","e622c465-ee29-4445-8260-1f3431e06587","{""participantId"":""DD5CB01757414B369C3F986A0CE31F4E"",""assignmentId"":""ff2240e7-6adf-4346-a4dc-e5e6d5927d76"",""projectId"":""e622c465-ee29-4445-8260-1f3431e06587""}","https://test12345.live/?participantId=DD5CB01757414B369C3F986A0CE31F4E&assignmentId=ff2240e7-6adf-4346-a4dc-e5e6d5927d76&projectId=e622c465-ee29-4445-8260-1f3431e06587","","null","<div style=""display: flex; justify-content: center; align-items: center;"">
                    <img src=""images/causal/causal_series_15/causal_series_15_a.jpg"" style=""width: 300px; height: 300px;"" />
                  </div>","null","",""
"","","","","","html-keyboard-response","42","235057","0.0-31.0-1.0","DD5CB01757414B369C3F986A0CE31F4E","DD5CB01757414B369C3F986A0CE31F4E","ff2240e7-6adf-4346-a4dc-e5e6d5927d76","e622c465-ee29-4445-8260-1f3431e06587","{""participantId"":""DD5CB01757414B369C3F986A0CE31F4E"",""assignmentId"":""ff2240e7-6adf-4346-a4dc-e5e6d5927d76"",""projectId"":""e622c465-ee29-4445-8260-1f3431e06587""}","https://test12345.live/?participantId=DD5CB01757414B369C3F986A0CE31F4E&assignmentId=ff2240e7-6adf-4346-a4dc-e5e6d5927d76&projectId=e622c465-ee29-4445-8260-1f3431e06587","","null","<div style=""display: flex; justify-content: center; align-items: center;"">
                    <img src=""images/causal/causal_series_15/causal_series_15_b.jpg"" style=""width: 300px; height: 300px;"" />
                  </div>","null","",""
"","","","","","html-keyboard-response","43","238064","0.0-31.0-2.0","DD5CB01757414B369C3F986A0CE31F4E","DD5CB01757414B369C3F986A0CE31F4E","ff2240e7-6adf-4346-a4dc-e5e6d5927d76","e622c465-ee29-4445-8260-1f3431e06587","{""participantId"":""DD5CB01757414B369C3F986A0CE31F4E"",""assignmentId"":""ff2240e7-6adf-4346-a4dc-e5e6d5927d76"",""projectId"":""e622c465-ee29-4445-8260-1f3431e06587""}","https://test12345.live/?participantId=DD5CB01757414B369C3F986A0CE31F4E&assignmentId=ff2240e7-6adf-4346-a4dc-e5e6d5927d76&projectId=e622c465-ee29-4445-8260-1f3431e06587","","null","<div style=""display: flex; justify-content: center; align-items: center;"">
                    <img src=""images/causal/causal_series_15/causal_series_15_c.jpg"" style=""width: 300px; height: 300px;"" />
                  </div>","null","",""
"","","","","","html-keyboard-response","44","241076","0.0-31.0-3.0","DD5CB01757414B369C3F986A0CE31F4E","DD5CB01757414B369C3F986A0CE31F4E","ff2240e7-6adf-4346-a4dc-e5e6d5927d76","e622c465-ee29-4445-8260-1f3431e06587","{""participantId"":""DD5CB01757414B369C3F986A0CE31F4E"",""assignmentId"":""ff2240e7-6adf-4346-a4dc-e5e6d5927d76"",""projectId"":""e622c465-ee29-4445-8260-1f3431e06587""}","https://test12345.live/?participantId=DD5CB01757414B369C3F986A0CE31F4E&assignmentId=ff2240e7-6adf-4346-a4dc-e5e6d5927d76&projectId=e622c465-ee29-4445-8260-1f3431e06587","","null","<div style=""display: flex; justify-content: center; align-items: center;"">
                    <img src=""images/causal/causal_series_15/causal_series_15_d.jpg"" style=""width: 300px; height: 300px;"" />
                  </div>","null","",""
"","","","","","html-button-response","45","243326","0.0-33.0","DD5CB01757414B369C3F986A0CE31F4E","DD5CB01757414B369C3F986A0CE31F4E","ff2240e7-6adf-4346-a4dc-e5e6d5927d76","e622c465-ee29-4445-8260-1f3431e06587","{""participantId"":""DD5CB01757414B369C3F986A0CE31F4E"",""assignmentId"":""ff2240e7-6adf-4346-a4dc-e5e6d5927d76"",""projectId"":""e622c465-ee29-4445-8260-1f3431e06587""}","https://test12345.live/?participantId=DD5CB01757414B369C3F986A0CE31F4E&assignmentId=ff2240e7-6adf-4346-a4dc-e5e6d5927d76&projectId=e622c465-ee29-4445-8260-1f3431e06587","","2248","Was there a person in the picture?","0","",""
"","","","","","survey-likert","46","246049","0.0-34.0","DD5CB01757414B369C3F986A0CE31F4E","DD5CB01757414B369C3F986A0CE31F4E","ff2240e7-6adf-4346-a4dc-e5e6d5927d76","e622c465-ee29-4445-8260-1f3431e06587","{""participantId"":""DD5CB01757414B369C3F986A0CE31F4E"",""assignmentId"":""ff2240e7-6adf-4346-a4dc-e5e6d5927d76"",""projectId"":""e622c465-ee29-4445-8260-1f3431e06587""}","https://test12345.live/?participantId=DD5CB01757414B369C3F986A0CE31F4E&assignmentId=ff2240e7-6adf-4346-a4dc-e5e6d5927d76&projectId=e622c465-ee29-4445-8260-1f3431e06587","","2719","","{""Q0"":2}","","[0]"
"","","","","","html-button-response","47","247157","0.0-35.0","DD5CB01757414B369C3F986A0CE31F4E","DD5CB01757414B369C3F986A0CE31F4E","ff2240e7-6adf-4346-a4dc-e5e6d5927d76","e622c465-ee29-4445-8260-1f3431e06587","{""participantId"":""DD5CB01757414B369C3F986A0CE31F4E"",""assignmentId"":""ff2240e7-6adf-4346-a4dc-e5e6d5927d76"",""projectId"":""e622c465-ee29-4445-8260-1f3431e06587""}","https://test12345.live/?participantId=DD5CB01757414B369C3F986A0CE31F4E&assignmentId=ff2240e7-6adf-4346-a4dc-e5e6d5927d76&projectId=e622c465-ee29-4445-8260-1f3431e06587","","1103","
    <div style=""display: flex; justify-content: center; align-items: center;"">
      <img src=""images/blue_deck_1.png"" style=""width: 300px; height: 300px; margin-right: 10px;"" />
      <img src=""images/red_deck_2.png"" style=""width: 300px; height: 300px;"" />
    </div>","0","0",""
"","","","","","html-keyboard-response","48","250166","0.0-36.0-0.0","DD5CB01757414B369C3F986A0CE31F4E","DD5CB01757414B369C3F986A0CE31F4E","ff2240e7-6adf-4346-a4dc-e5e6d5927d76","e622c465-ee29-4445-8260-1f3431e06587","{""participantId"":""DD5CB01757414B369C3F986A0CE31F4E"",""assignmentId"":""ff2240e7-6adf-4346-a4dc-e5e6d5927d76"",""projectId"":""e622c465-ee29-4445-8260-1f3431e06587""}","https://test12345.live/?participantId=DD5CB01757414B369C3F986A0CE31F4E&assignmentId=ff2240e7-6adf-4346-a4dc-e5e6d5927d76&projectId=e622c465-ee29-4445-8260-1f3431e06587","","null","<div style=""display: flex; justify-content: center; align-items: center;"">
                    <img src=""images/causal/causal_series_1/causal_series_1_a.jpg"" style=""width: 300px; height: 300px;"" />
                  </div>","null","",""
"","","","","","html-keyboard-response","49","253182","0.0-36.0-1.0","DD5CB01757414B369C3F986A0CE31F4E","DD5CB01757414B369C3F986A0CE31F4E","ff2240e7-6adf-4346-a4dc-e5e6d5927d76","e622c465-ee29-4445-8260-1f3431e06587","{""participantId"":""DD5CB01757414B369C3F986A0CE31F4E"",""assignmentId"":""ff2240e7-6adf-4346-a4dc-e5e6d5927d76"",""projectId"":""e622c465-ee29-4445-8260-1f3431e06587""}","https://test12345.live/?participantId=DD5CB01757414B369C3F986A0CE31F4E&assignmentId=ff2240e7-6adf-4346-a4dc-e5e6d5927d76&projectId=e622c465-ee29-4445-8260-1f3431e06587","","null","<div style=""display: flex; justify-content: center; align-items: center;"">
                    <img src=""images/causal/causal_series_1/causal_series_1_b.jpg"" style=""width: 300px; height: 300px;"" />
                  </div>","null","",""
"","","","","","html-keyboard-response","50","256193","0.0-36.0-2.0","DD5CB01757414B369C3F986A0CE31F4E","DD5CB01757414B369C3F986A0CE31F4E","ff2240e7-6adf-4346-a4dc-e5e6d5927d76","e622c465-ee29-4445-8260-1f3431e06587","{""participantId"":""DD5CB01757414B369C3F986A0CE31F4E"",""assignmentId"":""ff2240e7-6adf-4346-a4dc-e5e6d5927d76"",""projectId"":""e622c465-ee29-4445-8260-1f3431e06587""}","https://test12345.live/?participantId=DD5CB01757414B369C3F986A0CE31F4E&assignmentId=ff2240e7-6adf-4346-a4dc-e5e6d5927d76&projectId=e622c465-ee29-4445-8260-1f3431e06587","","null","<div style=""display: flex; justify-content: center; align-items: center;"">
                    <img src=""images/causal/causal_series_1/causal_series_1_c.jpg"" style=""width: 300px; height: 300px;"" />
                  </div>","null","",""
"","","","","","html-keyboard-response","51","259210","0.0-36.0-3.0","DD5CB01757414B369C3F986A0CE31F4E","DD5CB01757414B369C3F986A0CE31F4E","ff2240e7-6adf-4346-a4dc-e5e6d5927d76","e622c465-ee29-4445-8260-1f3431e06587","{""participantId"":""DD5CB01757414B369C3F986A0CE31F4E"",""assignmentId"":""ff2240e7-6adf-4346-a4dc-e5e6d5927d76"",""projectId"":""e622c465-ee29-4445-8260-1f3431e06587""}","https://test12345.live/?participantId=DD5CB01757414B369C3F986A0CE31F4E&assignmentId=ff2240e7-6adf-4346-a4dc-e5e6d5927d76&projectId=e622c465-ee29-4445-8260-1f3431e06587","","null","<div style=""display: flex; justify-content: center; align-items: center;"">
                    <img src=""images/causal/causal_series_1/causal_series_1_d.jpg"" style=""width: 300px; height: 300px;"" />
                  </div>","null","",""
"","","","","","html-button-response","52","263087","0.0-38.0","DD5CB01757414B369C3F986A0CE31F4E","DD5CB01757414B369C3F986A0CE31F4E","ff2240e7-6adf-4346-a4dc-e5e6d5927d76","e622c465-ee29-4445-8260-1f3431e06587","{""participantId"":""DD5CB01757414B369C3F986A0CE31F4E"",""assignmentId"":""ff2240e7-6adf-4346-a4dc-e5e6d5927d76"",""projectId"":""e622c465-ee29-4445-8260-1f3431e06587""}","https://test12345.live/?participantId=DD5CB01757414B369C3F986A0CE31F4E&assignmentId=ff2240e7-6adf-4346-a4dc-e5e6d5927d76&projectId=e622c465-ee29-4445-8260-1f3431e06587","","3875","Was there a person in the picture?","1","",""
"","","","","","survey-likert","53","265056","0.0-39.0","DD5CB01757414B369C3F986A0CE31F4E","DD5CB01757414B369C3F986A0CE31F4E","ff2240e7-6adf-4346-a4dc-e5e6d5927d76","e622c465-ee29-4445-8260-1f3431e06587","{""participantId"":""DD5CB01757414B369C3F986A0CE31F4E"",""assignmentId"":""ff2240e7-6adf-4346-a4dc-e5e6d5927d76"",""projectId"":""e622c465-ee29-4445-8260-1f3431e06587""}","https://test12345.live/?participantId=DD5CB01757414B369C3F986A0CE31F4E&assignmentId=ff2240e7-6adf-4346-a4dc-e5e6d5927d76&projectId=e622c465-ee29-4445-8260-1f3431e06587","","1966","","{""Q0"":2}","","[0]"
"","","","","","html-button-response","54","266128","0.0-40.0","DD5CB01757414B369C3F986A0CE31F4E","DD5CB01757414B369C3F986A0CE31F4E","ff2240e7-6adf-4346-a4dc-e5e6d5927d76","e622c465-ee29-4445-8260-1f3431e06587","{""participantId"":""DD5CB01757414B369C3F986A0CE31F4E"",""assignmentId"":""ff2240e7-6adf-4346-a4dc-e5e6d5927d76"",""projectId"":""e622c465-ee29-4445-8260-1f3431e06587""}","https://test12345.live/?participantId=DD5CB01757414B369C3F986A0CE31F4E&assignmentId=ff2240e7-6adf-4346-a4dc-e5e6d5927d76&projectId=e622c465-ee29-4445-8260-1f3431e06587","","1068","
    <div style=""display: flex; justify-content: center; align-items: center;"">
      <img src=""images/blue_deck_1.png"" style=""width: 300px; height: 300px; margin-right: 10px;"" />
      <img src=""images/red_deck_2.png"" style=""width: 300px; height: 300px;"" />
    </div>","0","0",""
"","","","","","html-keyboard-response","55","269133","0.0-41.0-0.0","DD5CB01757414B369C3F986A0CE31F4E","DD5CB01757414B369C3F986A0CE31F4E","ff2240e7-6adf-4346-a4dc-e5e6d5927d76","e622c465-ee29-4445-8260-1f3431e06587","{""participantId"":""DD5CB01757414B369C3F986A0CE31F4E"",""assignmentId"":""ff2240e7-6adf-4346-a4dc-e5e6d5927d76"",""projectId"":""e622c465-ee29-4445-8260-1f3431e06587""}","https://test12345.live/?participantId=DD5CB01757414B369C3F986A0CE31F4E&assignmentId=ff2240e7-6adf-4346-a4dc-e5e6d5927d76&projectId=e622c465-ee29-4445-8260-1f3431e06587","","null","<div style=""display: flex; justify-content: center; align-items: center;"">
                    <img src=""images/causal/causal_series_11/causal_series_11_a.jpg"" style=""width: 300px; height: 300px;"" />
                  </div>","null","",""
"","","","","","html-keyboard-response","56","272144","0.0-41.0-1.0","DD5CB01757414B369C3F986A0CE31F4E","DD5CB01757414B369C3F986A0CE31F4E","ff2240e7-6adf-4346-a4dc-e5e6d5927d76","e622c465-ee29-4445-8260-1f3431e06587","{""participantId"":""DD5CB01757414B369C3F986A0CE31F4E"",""assignmentId"":""ff2240e7-6adf-4346-a4dc-e5e6d5927d76"",""projectId"":""e622c465-ee29-4445-8260-1f3431e06587""}","https://test12345.live/?participantId=DD5CB01757414B369C3F986A0CE31F4E&assignmentId=ff2240e7-6adf-4346-a4dc-e5e6d5927d76&projectId=e622c465-ee29-4445-8260-1f3431e06587","","null","<div style=""display: flex; justify-content: center; align-items: center;"">
                    <img src=""images/causal/causal_series_11/causal_series_11_b.jpg"" style=""width: 300px; height: 300px;"" />
                  </div>","null","",""
"","","","","","html-keyboard-response","57","275146","0.0-41.0-2.0","DD5CB01757414B369C3F986A0CE31F4E","DD5CB01757414B369C3F986A0CE31F4E","ff2240e7-6adf-4346-a4dc-e5e6d5927d76","e622c465-ee29-4445-8260-1f3431e06587","{""participantId"":""DD5CB01757414B369C3F986A0CE31F4E"",""assignmentId"":""ff2240e7-6adf-4346-a4dc-e5e6d5927d76"",""projectId"":""e622c465-ee29-4445-8260-1f3431e06587""}","https://test12345.live/?participantId=DD5CB01757414B369C3F986A0CE31F4E&assignmentId=ff2240e7-6adf-4346-a4dc-e5e6d5927d76&projectId=e622c465-ee29-4445-8260-1f3431e06587","","null","<div style=""display: flex; justify-content: center; align-items: center;"">
                    <img src=""images/causal/causal_series_11/causal_series_11_c.jpg"" style=""width: 300px; height: 300px;"" />
                  </div>","null","",""
"","","","","","html-keyboard-response","58","278156","0.0-41.0-3.0","DD5CB01757414B369C3F986A0CE31F4E","DD5CB01757414B369C3F986A0CE31F4E","ff2240e7-6adf-4346-a4dc-e5e6d5927d76","e622c465-ee29-4445-8260-1f3431e06587","{""participantId"":""DD5CB01757414B369C3F986A0CE31F4E"",""assignmentId"":""ff2240e7-6adf-4346-a4dc-e5e6d5927d76"",""projectId"":""e622c465-ee29-4445-8260-1f3431e06587""}","https://test12345.live/?participantId=DD5CB01757414B369C3F986A0CE31F4E&assignmentId=ff2240e7-6adf-4346-a4dc-e5e6d5927d76&projectId=e622c465-ee29-4445-8260-1f3431e06587","","null","<div style=""display: flex; justify-content: center; align-items: center;"">
                    <img src=""images/causal/causal_series_11/causal_series_11_d.jpg"" style=""width: 300px; height: 300px;"" />
                  </div>","null","",""
"","","","","","html-button-response","59","280050","0.0-43.0","DD5CB01757414B369C3F986A0CE31F4E","DD5CB01757414B369C3F986A0CE31F4E","ff2240e7-6adf-4346-a4dc-e5e6d5927d76","e622c465-ee29-4445-8260-1f3431e06587","{""participantId"":""DD5CB01757414B369C3F986A0CE31F4E"",""assignmentId"":""ff2240e7-6adf-4346-a4dc-e5e6d5927d76"",""projectId"":""e622c465-ee29-4445-8260-1f3431e06587""}","https://test12345.live/?participantId=DD5CB01757414B369C3F986A0CE31F4E&assignmentId=ff2240e7-6adf-4346-a4dc-e5e6d5927d76&projectId=e622c465-ee29-4445-8260-1f3431e06587","","1891","Was there a person in the picture?","0","",""
"","","","","","survey-likert","60","283209","0.0-44.0","DD5CB01757414B369C3F986A0CE31F4E","DD5CB01757414B369C3F986A0CE31F4E","ff2240e7-6adf-4346-a4dc-e5e6d5927d76","e622c465-ee29-4445-8260-1f3431e06587","{""participantId"":""DD5CB01757414B369C3F986A0CE31F4E"",""assignmentId"":""ff2240e7-6adf-4346-a4dc-e5e6d5927d76"",""projectId"":""e622c465-ee29-4445-8260-1f3431e06587""}","https://test12345.live/?participantId=DD5CB01757414B369C3F986A0CE31F4E&assignmentId=ff2240e7-6adf-4346-a4dc-e5e6d5927d76&projectId=e622c465-ee29-4445-8260-1f3431e06587","","3157","","{""Q0"":2}","","[0]"
"","","","","","html-button-response","61","285706","0.0-45.0","DD5CB01757414B369C3F986A0CE31F4E","DD5CB01757414B369C3F986A0CE31F4E","ff2240e7-6adf-4346-a4dc-e5e6d5927d76","e622c465-ee29-4445-8260-1f3431e06587","{""participantId"":""DD5CB01757414B369C3F986A0CE31F4E"",""assignmentId"":""ff2240e7-6adf-4346-a4dc-e5e6d5927d76"",""projectId"":""e622c465-ee29-4445-8260-1f3431e06587""}","https://test12345.live/?participantId=DD5CB01757414B369C3F986A0CE31F4E&assignmentId=ff2240e7-6adf-4346-a4dc-e5e6d5927d76&projectId=e622c465-ee29-4445-8260-1f3431e06587","","2495","
    <div style=""display: flex; justify-content: center; align-items: center;"">
      <img src=""images/blue_deck_1.png"" style=""width: 300px; height: 300px; margin-right: 10px;"" />
      <img src=""images/red_deck_2.png"" style=""width: 300px; height: 300px;"" />
    </div>","0","0",""
"","","","","","html-keyboard-response","62","288712","0.0-46.0-0.0","DD5CB01757414B369C3F986A0CE31F4E","DD5CB01757414B369C3F986A0CE31F4E","ff2240e7-6adf-4346-a4dc-e5e6d5927d76","e622c465-ee29-4445-8260-1f3431e06587","{""participantId"":""DD5CB01757414B369C3F986A0CE31F4E"",""assignmentId"":""ff2240e7-6adf-4346-a4dc-e5e6d5927d76"",""projectId"":""e622c465-ee29-4445-8260-1f3431e06587""}","https://test12345.live/?participantId=DD5CB01757414B369C3F986A0CE31F4E&assignmentId=ff2240e7-6adf-4346-a4dc-e5e6d5927d76&projectId=e622c465-ee29-4445-8260-1f3431e06587","","null","<div style=""display: flex; justify-content: center; align-items: center;"">
                    <img src=""images/causal/causal_series_14/causal_series_14_a.jpg"" style=""width: 300px; height: 300px;"" />
                  </div>","null","",""
"","","","","","html-keyboard-response","63","291718","0.0-46.0-1.0","DD5CB01757414B369C3F986A0CE31F4E","DD5CB01757414B369C3F986A0CE31F4E","ff2240e7-6adf-4346-a4dc-e5e6d5927d76","e622c465-ee29-4445-8260-1f3431e06587","{""participantId"":""DD5CB01757414B369C3F986A0CE31F4E"",""assignmentId"":""ff2240e7-6adf-4346-a4dc-e5e6d5927d76"",""projectId"":""e622c465-ee29-4445-8260-1f3431e06587""}","https://test12345.live/?participantId=DD5CB01757414B369C3F986A0CE31F4E&assignmentId=ff2240e7-6adf-4346-a4dc-e5e6d5927d76&projectId=e622c465-ee29-4445-8260-1f3431e06587","","null","<div style=""display: flex; justify-content: center; align-items: center;"">
                    <img src=""images/causal/causal_series_14/causal_series_14_b.jpg"" style=""width: 300px; height: 300px;"" />
                  </div>","null","",""
"","","","","","html-keyboard-response","64","294733","0.0-46.0-2.0","DD5CB01757414B369C3F986A0CE31F4E","DD5CB01757414B369C3F986A0CE31F4E","ff2240e7-6adf-4346-a4dc-e5e6d5927d76","e622c465-ee29-4445-8260-1f3431e06587","{""participantId"":""DD5CB01757414B369C3F986A0CE31F4E"",""assignmentId"":""ff2240e7-6adf-4346-a4dc-e5e6d5927d76"",""projectId"":""e622c465-ee29-4445-8260-1f3431e06587""}","https://test12345.live/?participantId=DD5CB01757414B369C3F986A0CE31F4E&assignmentId=ff2240e7-6adf-4346-a4dc-e5e6d5927d76&projectId=e622c465-ee29-4445-8260-1f3431e06587","","null","<div style=""display: flex; justify-content: center; align-items: center;"">
                    <img src=""images/causal/causal_series_14/causal_series_14_c.jpg"" style=""width: 300px; height: 300px;"" />
                  </div>","null","",""
"","","","","","html-keyboard-response","65","297735","0.0-46.0-3.0","DD5CB01757414B369C3F986A0CE31F4E","DD5CB01757414B369C3F986A0CE31F4E","ff2240e7-6adf-4346-a4dc-e5e6d5927d76","e622c465-ee29-4445-8260-1f3431e06587","{""participantId"":""DD5CB01757414B369C3F986A0CE31F4E"",""assignmentId"":""ff2240e7-6adf-4346-a4dc-e5e6d5927d76"",""projectId"":""e622c465-ee29-4445-8260-1f3431e06587""}","https://test12345.live/?participantId=DD5CB01757414B369C3F986A0CE31F4E&assignmentId=ff2240e7-6adf-4346-a4dc-e5e6d5927d76&projectId=e622c465-ee29-4445-8260-1f3431e06587","","null","<div style=""display: flex; justify-content: center; align-items: center;"">
                    <img src=""images/causal/causal_series_14/causal_series_14_d.jpg"" style=""width: 300px; height: 300px;"" />
                  </div>","null","",""
"","","","","","html-button-response","66","299998","0.0-48.0","DD5CB01757414B369C3F986A0CE31F4E","DD5CB01757414B369C3F986A0CE31F4E","ff2240e7-6adf-4346-a4dc-e5e6d5927d76","e622c465-ee29-4445-8260-1f3431e06587","{""participantId"":""DD5CB01757414B369C3F986A0CE31F4E"",""assignmentId"":""ff2240e7-6adf-4346-a4dc-e5e6d5927d76"",""projectId"":""e622c465-ee29-4445-8260-1f3431e06587""}","https://test12345.live/?participantId=DD5CB01757414B369C3F986A0CE31F4E&assignmentId=ff2240e7-6adf-4346-a4dc-e5e6d5927d76&projectId=e622c465-ee29-4445-8260-1f3431e06587","","2259","Was there a person in the picture?","0","",""
"","","","","","survey-likert","67","304747","0.0-49.0","DD5CB01757414B369C3F986A0CE31F4E","DD5CB01757414B369C3F986A0CE31F4E","ff2240e7-6adf-4346-a4dc-e5e6d5927d76","e622c465-ee29-4445-8260-1f3431e06587","{""participantId"":""DD5CB01757414B369C3F986A0CE31F4E"",""assignmentId"":""ff2240e7-6adf-4346-a4dc-e5e6d5927d76"",""projectId"":""e622c465-ee29-4445-8260-1f3431e06587""}","https://test12345.live/?participantId=DD5CB01757414B369C3F986A0CE31F4E&assignmentId=ff2240e7-6adf-4346-a4dc-e5e6d5927d76&projectId=e622c465-ee29-4445-8260-1f3431e06587","","4747","","{""Q0"":2}","","[0]"
"","","","","","html-button-response","68","305903","0.0-50.0","DD5CB01757414B369C3F986A0CE31F4E","DD5CB01757414B369C3F986A0CE31F4E","ff2240e7-6adf-4346-a4dc-e5e6d5927d76","e622c465-ee29-4445-8260-1f3431e06587","{""participantId"":""DD5CB01757414B369C3F986A0CE31F4E"",""assignmentId"":""ff2240e7-6adf-4346-a4dc-e5e6d5927d76"",""projectId"":""e622c465-ee29-4445-8260-1f3431e06587""}","https://test12345.live/?participantId=DD5CB01757414B369C3F986A0CE31F4E&assignmentId=ff2240e7-6adf-4346-a4dc-e5e6d5927d76&projectId=e622c465-ee29-4445-8260-1f3431e06587","","1151","
    <div style=""display: flex; justify-content: center; align-items: center;"">
      <img src=""images/blue_deck_1.png"" style=""width: 300px; height: 300px; margin-right: 10px;"" />
      <img src=""images/red_deck_2.png"" style=""width: 300px; height: 300px;"" />
    </div>","0","0",""
"","","","","","html-keyboard-response","69","308913","0.0-51.0-0.0","DD5CB01757414B369C3F986A0CE31F4E","DD5CB01757414B369C3F986A0CE31F4E","ff2240e7-6adf-4346-a4dc-e5e6d5927d76","e622c465-ee29-4445-8260-1f3431e06587","{""participantId"":""DD5CB01757414B369C3F986A0CE31F4E"",""assignmentId"":""ff2240e7-6adf-4346-a4dc-e5e6d5927d76"",""projectId"":""e622c465-ee29-4445-8260-1f3431e06587""}","https://test12345.live/?participantId=DD5CB01757414B369C3F986A0CE31F4E&assignmentId=ff2240e7-6adf-4346-a4dc-e5e6d5927d76&projectId=e622c465-ee29-4445-8260-1f3431e06587","","null","<div style=""display: flex; justify-content: center; align-items: center;"">
                    <img src=""images/causal/causal_series_8/causal_series_8_a.jpg"" style=""width: 300px; height: 300px;"" />
                  </div>","null","",""
"","","","","","html-keyboard-response","70","311920","0.0-51.0-1.0","DD5CB01757414B369C3F986A0CE31F4E","DD5CB01757414B369C3F986A0CE31F4E","ff2240e7-6adf-4346-a4dc-e5e6d5927d76","e622c465-ee29-4445-8260-1f3431e06587","{""participantId"":""DD5CB01757414B369C3F986A0CE31F4E"",""assignmentId"":""ff2240e7-6adf-4346-a4dc-e5e6d5927d76"",""projectId"":""e622c465-ee29-4445-8260-1f3431e06587""}","https://test12345.live/?participantId=DD5CB01757414B369C3F986A0CE31F4E&assignmentId=ff2240e7-6adf-4346-a4dc-e5e6d5927d76&projectId=e622c465-ee29-4445-8260-1f3431e06587","","null","<div style=""display: flex; justify-content: center; align-items: center;"">
                    <img src=""images/causal/causal_series_8/causal_series_8_b.jpg"" style=""width: 300px; height: 300px;"" />
                  </div>","null","",""
"","","","","","html-keyboard-response","71","314924","0.0-51.0-2.0","DD5CB01757414B369C3F986A0CE31F4E","DD5CB01757414B369C3F986A0CE31F4E","ff2240e7-6adf-4346-a4dc-e5e6d5927d76","e622c465-ee29-4445-8260-1f3431e06587","{""participantId"":""DD5CB01757414B369C3F986A0CE31F4E"",""assignmentId"":""ff2240e7-6adf-4346-a4dc-e5e6d5927d76"",""projectId"":""e622c465-ee29-4445-8260-1f3431e06587""}","https://test12345.live/?participantId=DD5CB01757414B369C3F986A0CE31F4E&assignmentId=ff2240e7-6adf-4346-a4dc-e5e6d5927d76&projectId=e622c465-ee29-4445-8260-1f3431e06587","","null","<div style=""display: flex; justify-content: center; align-items: center;"">
                    <img src=""images/causal/causal_series_8/causal_series_8_c.jpg"" style=""width: 300px; height: 300px;"" />
                  </div>","null","",""
"","","","","","html-keyboard-response","72","317940","0.0-51.0-3.0","DD5CB01757414B369C3F986A0CE31F4E","DD5CB01757414B369C3F986A0CE31F4E","ff2240e7-6adf-4346-a4dc-e5e6d5927d76","e622c465-ee29-4445-8260-1f3431e06587","{""participantId"":""DD5CB01757414B369C3F986A0CE31F4E"",""assignmentId"":""ff2240e7-6adf-4346-a4dc-e5e6d5927d76"",""projectId"":""e622c465-ee29-4445-8260-1f3431e06587""}","https://test12345.live/?participantId=DD5CB01757414B369C3F986A0CE31F4E&assignmentId=ff2240e7-6adf-4346-a4dc-e5e6d5927d76&projectId=e622c465-ee29-4445-8260-1f3431e06587","","null","<div style=""display: flex; justify-content: center; align-items: center;"">
                    <img src=""images/causal/causal_series_8/causal_series_8_d.jpg"" style=""width: 300px; height: 300px;"" />
                  </div>","null","",""
"","","","","","html-button-response","73","321421","0.0-53.0","DD5CB01757414B369C3F986A0CE31F4E","DD5CB01757414B369C3F986A0CE31F4E","ff2240e7-6adf-4346-a4dc-e5e6d5927d76","e622c465-ee29-4445-8260-1f3431e06587","{""participantId"":""DD5CB01757414B369C3F986A0CE31F4E"",""assignmentId"":""ff2240e7-6adf-4346-a4dc-e5e6d5927d76"",""projectId"":""e622c465-ee29-4445-8260-1f3431e06587""}","https://test12345.live/?participantId=DD5CB01757414B369C3F986A0CE31F4E&assignmentId=ff2240e7-6adf-4346-a4dc-e5e6d5927d76&projectId=e622c465-ee29-4445-8260-1f3431e06587","","3478","Was there a person in the picture?","0","",""
"","","","","","survey-likert","74","323306","0.0-54.0","DD5CB01757414B369C3F986A0CE31F4E","DD5CB01757414B369C3F986A0CE31F4E","ff2240e7-6adf-4346-a4dc-e5e6d5927d76","e622c465-ee29-4445-8260-1f3431e06587","{""participantId"":""DD5CB01757414B369C3F986A0CE31F4E"",""assignmentId"":""ff2240e7-6adf-4346-a4dc-e5e6d5927d76"",""projectId"":""e622c465-ee29-4445-8260-1f3431e06587""}","https://test12345.live/?participantId=DD5CB01757414B369C3F986A0CE31F4E&assignmentId=ff2240e7-6adf-4346-a4dc-e5e6d5927d76&projectId=e622c465-ee29-4445-8260-1f3431e06587","","1882","","{""Q0"":2}","","[0]"
"","","","","","html-button-response","75","324419","0.0-55.0","DD5CB01757414B369C3F986A0CE31F4E","DD5CB01757414B369C3F986A0CE31F4E","ff2240e7-6adf-4346-a4dc-e5e6d5927d76","e622c465-ee29-4445-8260-1f3431e06587","{""participantId"":""DD5CB01757414B369C3F986A0CE31F4E"",""assignmentId"":""ff2240e7-6adf-4346-a4dc-e5e6d5927d76"",""projectId"":""e622c465-ee29-4445-8260-1f3431e06587""}","https://test12345.live/?participantId=DD5CB01757414B369C3F986A0CE31F4E&assignmentId=ff2240e7-6adf-4346-a4dc-e5e6d5927d76&projectId=e622c465-ee29-4445-8260-1f3431e06587","","1110","
    <div style=""display: flex; justify-content: center; align-items: center;"">
      <img src=""images/blue_deck_1.png"" style=""width: 300px; height: 300px; margin-right: 10px;"" />
      <img src=""images/red_deck_2.png"" style=""width: 300px; height: 300px;"" />
    </div>","1","1",""
"","","","","","html-keyboard-response","76","327429","0.0-57.0-0.0","DD5CB01757414B369C3F986A0CE31F4E","DD5CB01757414B369C3F986A0CE31F4E","ff2240e7-6adf-4346-a4dc-e5e6d5927d76","e622c465-ee29-4445-8260-1f3431e06587","{""participantId"":""DD5CB01757414B369C3F986A0CE31F4E"",""assignmentId"":""ff2240e7-6adf-4346-a4dc-e5e6d5927d76"",""projectId"":""e622c465-ee29-4445-8260-1f3431e06587""}","https://test12345.live/?participantId=DD5CB01757414B369C3F986A0CE31F4E&assignmentId=ff2240e7-6adf-4346-a4dc-e5e6d5927d76&projectId=e622c465-ee29-4445-8260-1f3431e06587","","null","<div style=""display: flex; justify-content: center; align-items: center;"">
                    <img src=""images/semantic/semantic_series_9/semantic_series_9_a.jpg"" style=""width: 300px; height: 300px;"" />
                  </div>","null","",""
"","","","","","html-keyboard-response","77","330434","0.0-57.0-1.0","DD5CB01757414B369C3F986A0CE31F4E","DD5CB01757414B369C3F986A0CE31F4E","ff2240e7-6adf-4346-a4dc-e5e6d5927d76","e622c465-ee29-4445-8260-1f3431e06587","{""participantId"":""DD5CB01757414B369C3F986A0CE31F4E"",""assignmentId"":""ff2240e7-6adf-4346-a4dc-e5e6d5927d76"",""projectId"":""e622c465-ee29-4445-8260-1f3431e06587""}","https://test12345.live/?participantId=DD5CB01757414B369C3F986A0CE31F4E&assignmentId=ff2240e7-6adf-4346-a4dc-e5e6d5927d76&projectId=e622c465-ee29-4445-8260-1f3431e06587","","null","<div style=""display: flex; justify-content: center; align-items: center;"">
                    <img src=""images/semantic/semantic_series_9/semantic_series_9_b.jpg"" style=""width: 300px; height: 300px;"" />
                  </div>","null","",""
"","","","","","html-keyboard-response","78","333436","0.0-57.0-2.0","DD5CB01757414B369C3F986A0CE31F4E","DD5CB01757414B369C3F986A0CE31F4E","ff2240e7-6adf-4346-a4dc-e5e6d5927d76","e622c465-ee29-4445-8260-1f3431e06587","{""participantId"":""DD5CB01757414B369C3F986A0CE31F4E"",""assignmentId"":""ff2240e7-6adf-4346-a4dc-e5e6d5927d76"",""projectId"":""e622c465-ee29-4445-8260-1f3431e06587""}","https://test12345.live/?participantId=DD5CB01757414B369C3F986A0CE31F4E&assignmentId=ff2240e7-6adf-4346-a4dc-e5e6d5927d76&projectId=e622c465-ee29-4445-8260-1f3431e06587","","null","<div style=""display: flex; justify-content: center; align-items: center;"">
                    <img src=""images/semantic/semantic_series_9/semantic_series_9_c.jpg"" style=""width: 300px; height: 300px;"" />
                  </div>","null","",""
"","","","","","html-keyboard-response","79","336437","0.0-57.0-3.0","DD5CB01757414B369C3F986A0CE31F4E","DD5CB01757414B369C3F986A0CE31F4E","ff2240e7-6adf-4346-a4dc-e5e6d5927d76","e622c465-ee29-4445-8260-1f3431e06587","{""participantId"":""DD5CB01757414B369C3F986A0CE31F4E"",""assignmentId"":""ff2240e7-6adf-4346-a4dc-e5e6d5927d76"",""projectId"":""e622c465-ee29-4445-8260-1f3431e06587""}","https://test12345.live/?participantId=DD5CB01757414B369C3F986A0CE31F4E&assignmentId=ff2240e7-6adf-4346-a4dc-e5e6d5927d76&projectId=e622c465-ee29-4445-8260-1f3431e06587","","null","<div style=""display: flex; justify-content: center; align-items: center;"">
                    <img src=""images/semantic/semantic_series_9/semantic_series_9_d.jpg"" style=""width: 300px; height: 300px;"" />
                  </div>","null","",""
"","","","","","html-button-response","80","343512","0.0-58.0","DD5CB01757414B369C3F986A0CE31F4E","DD5CB01757414B369C3F986A0CE31F4E","ff2240e7-6adf-4346-a4dc-e5e6d5927d76","e622c465-ee29-4445-8260-1f3431e06587","{""participantId"":""DD5CB01757414B369C3F986A0CE31F4E"",""assignmentId"":""ff2240e7-6adf-4346-a4dc-e5e6d5927d76"",""projectId"":""e622c465-ee29-4445-8260-1f3431e06587""}","https://test12345.live/?participantId=DD5CB01757414B369C3F986A0CE31F4E&assignmentId=ff2240e7-6adf-4346-a4dc-e5e6d5927d76&projectId=e622c465-ee29-4445-8260-1f3431e06587","","7072","Was there a person in the picture?","1","",""
"","","","","","survey-likert","81","350530","0.0-59.0","DD5CB01757414B369C3F986A0CE31F4E","DD5CB01757414B369C3F986A0CE31F4E","ff2240e7-6adf-4346-a4dc-e5e6d5927d76","e622c465-ee29-4445-8260-1f3431e06587","{""participantId"":""DD5CB01757414B369C3F986A0CE31F4E"",""assignmentId"":""ff2240e7-6adf-4346-a4dc-e5e6d5927d76"",""projectId"":""e622c465-ee29-4445-8260-1f3431e06587""}","https://test12345.live/?participantId=DD5CB01757414B369C3F986A0CE31F4E&assignmentId=ff2240e7-6adf-4346-a4dc-e5e6d5927d76&projectId=e622c465-ee29-4445-8260-1f3431e06587","","7015","","{""Q0"":2}","","[0]"
"","","","","","html-button-response","82","351574","0.0-60.0","DD5CB01757414B369C3F986A0CE31F4E","DD5CB01757414B369C3F986A0CE31F4E","ff2240e7-6adf-4346-a4dc-e5e6d5927d76","e622c465-ee29-4445-8260-1f3431e06587","{""participantId"":""DD5CB01757414B369C3F986A0CE31F4E"",""assignmentId"":""ff2240e7-6adf-4346-a4dc-e5e6d5927d76"",""projectId"":""e622c465-ee29-4445-8260-1f3431e06587""}","https://test12345.live/?participantId=DD5CB01757414B369C3F986A0CE31F4E&assignmentId=ff2240e7-6adf-4346-a4dc-e5e6d5927d76&projectId=e622c465-ee29-4445-8260-1f3431e06587","","1041","
    <div style=""display: flex; justify-content: center; align-items: center;"">
      <img src=""images/blue_deck_1.png"" style=""width: 300px; height: 300px; margin-right: 10px;"" />
      <img src=""images/red_deck_2.png"" style=""width: 300px; height: 300px;"" />
    </div>","0","0",""
"","","","","","html-keyboard-response","83","354592","0.0-61.0-0.0","DD5CB01757414B369C3F986A0CE31F4E","DD5CB01757414B369C3F986A0CE31F4E","ff2240e7-6adf-4346-a4dc-e5e6d5927d76","e622c465-ee29-4445-8260-1f3431e06587","{""participantId"":""DD5CB01757414B369C3F986A0CE31F4E"",""assignmentId"":""ff2240e7-6adf-4346-a4dc-e5e6d5927d76"",""projectId"":""e622c465-ee29-4445-8260-1f3431e06587""}","https://test12345.live/?participantId=DD5CB01757414B369C3F986A0CE31F4E&assignmentId=ff2240e7-6adf-4346-a4dc-e5e6d5927d76&projectId=e622c465-ee29-4445-8260-1f3431e06587","","null","<div style=""display: flex; justify-content: center; align-items: center;"">
                    <img src=""images/causal/causal_series_18/causal_series_18_a.jpg"" style=""width: 300px; height: 300px;"" />
                  </div>","null","",""
"","","","","","html-keyboard-response","84","357603","0.0-61.0-1.0","DD5CB01757414B369C3F986A0CE31F4E","DD5CB01757414B369C3F986A0CE31F4E","ff2240e7-6adf-4346-a4dc-e5e6d5927d76","e622c465-ee29-4445-8260-1f3431e06587","{""participantId"":""DD5CB01757414B369C3F986A0CE31F4E"",""assignmentId"":""ff2240e7-6adf-4346-a4dc-e5e6d5927d76"",""projectId"":""e622c465-ee29-4445-8260-1f3431e06587""}","https://test12345.live/?participantId=DD5CB01757414B369C3F986A0CE31F4E&assignmentId=ff2240e7-6adf-4346-a4dc-e5e6d5927d76&projectId=e622c465-ee29-4445-8260-1f3431e06587","","null","<div style=""display: flex; justify-content: center; align-items: center;"">
                    <img src=""images/causal/causal_series_18/causal_series_18_b.jpg"" style=""width: 300px; height: 300px;"" />
                  </div>","null","",""
"","","","","","html-keyboard-response","85","360618","0.0-61.0-2.0","DD5CB01757414B369C3F986A0CE31F4E","DD5CB01757414B369C3F986A0CE31F4E","ff2240e7-6adf-4346-a4dc-e5e6d5927d76","e622c465-ee29-4445-8260-1f3431e06587","{""participantId"":""DD5CB01757414B369C3F986A0CE31F4E"",""assignmentId"":""ff2240e7-6adf-4346-a4dc-e5e6d5927d76"",""projectId"":""e622c465-ee29-4445-8260-1f3431e06587""}","https://test12345.live/?participantId=DD5CB01757414B369C3F986A0CE31F4E&assignmentId=ff2240e7-6adf-4346-a4dc-e5e6d5927d76&projectId=e622c465-ee29-4445-8260-1f3431e06587","","null","<div style=""display: flex; justify-content: center; align-items: center;"">
                    <img src=""images/causal/causal_series_18/causal_series_18_c.jpg"" style=""width: 300px; height: 300px;"" />
                  </div>","null","",""
"","","","","","html-keyboard-response","86","363633","0.0-61.0-3.0","DD5CB01757414B369C3F986A0CE31F4E","DD5CB01757414B369C3F986A0CE31F4E","ff2240e7-6adf-4346-a4dc-e5e6d5927d76","e622c465-ee29-4445-8260-1f3431e06587","{""participantId"":""DD5CB01757414B369C3F986A0CE31F4E"",""assignmentId"":""ff2240e7-6adf-4346-a4dc-e5e6d5927d76"",""projectId"":""e622c465-ee29-4445-8260-1f3431e06587""}","https://test12345.live/?participantId=DD5CB01757414B369C3F986A0CE31F4E&assignmentId=ff2240e7-6adf-4346-a4dc-e5e6d5927d76&projectId=e622c465-ee29-4445-8260-1f3431e06587","","null","<div style=""display: flex; justify-content: center; align-items: center;"">
                    <img src=""images/causal/causal_series_18/causal_series_18_d.jpg"" style=""width: 300px; height: 300px;"" />
                  </div>","null","",""
"","","","","","html-button-response","87","365500","0.0-63.0","DD5CB01757414B369C3F986A0CE31F4E","DD5CB01757414B369C3F986A0CE31F4E","ff2240e7-6adf-4346-a4dc-e5e6d5927d76","e622c465-ee29-4445-8260-1f3431e06587","{""participantId"":""DD5CB01757414B369C3F986A0CE31F4E"",""assignmentId"":""ff2240e7-6adf-4346-a4dc-e5e6d5927d76"",""projectId"":""e622c465-ee29-4445-8260-1f3431e06587""}","https://test12345.live/?participantId=DD5CB01757414B369C3F986A0CE31F4E&assignmentId=ff2240e7-6adf-4346-a4dc-e5e6d5927d76&projectId=e622c465-ee29-4445-8260-1f3431e06587","","1865","Was there a person in the picture?","1","",""
"","","","","","survey-likert","88","376202","0.0-64.0","DD5CB01757414B369C3F986A0CE31F4E","DD5CB01757414B369C3F986A0CE31F4E","ff2240e7-6adf-4346-a4dc-e5e6d5927d76","e622c465-ee29-4445-8260-1f3431e06587","{""participantId"":""DD5CB01757414B369C3F986A0CE31F4E"",""assignmentId"":""ff2240e7-6adf-4346-a4dc-e5e6d5927d76"",""projectId"":""e622c465-ee29-4445-8260-1f3431e06587""}","https://test12345.live/?participantId=DD5CB01757414B369C3F986A0CE31F4E&assignmentId=ff2240e7-6adf-4346-a4dc-e5e6d5927d76&projectId=e622c465-ee29-4445-8260-1f3431e06587","","10698","","{""Q0"":3}","","[0]"
"","","","","","html-button-response","89","377273","0.0-65.0","DD5CB01757414B369C3F986A0CE31F4E","DD5CB01757414B369C3F986A0CE31F4E","ff2240e7-6adf-4346-a4dc-e5e6d5927d76","e622c465-ee29-4445-8260-1f3431e06587","{""participantId"":""DD5CB01757414B369C3F986A0CE31F4E"",""assignmentId"":""ff2240e7-6adf-4346-a4dc-e5e6d5927d76"",""projectId"":""e622c465-ee29-4445-8260-1f3431e06587""}","https://test12345.live/?participantId=DD5CB01757414B369C3F986A0CE31F4E&assignmentId=ff2240e7-6adf-4346-a4dc-e5e6d5927d76&projectId=e622c465-ee29-4445-8260-1f3431e06587","","1067","
    <div style=""display: flex; justify-content: center; align-items: center;"">
      <img src=""images/blue_deck_1.png"" style=""width: 300px; height: 300px; margin-right: 10px;"" />
      <img src=""images/red_deck_2.png"" style=""width: 300px; height: 300px;"" />
    </div>","0","0",""
"","","","","","html-keyboard-response","90","380275","0.0-66.0-0.0","DD5CB01757414B369C3F986A0CE31F4E","DD5CB01757414B369C3F986A0CE31F4E","ff2240e7-6adf-4346-a4dc-e5e6d5927d76","e622c465-ee29-4445-8260-1f3431e06587","{""participantId"":""DD5CB01757414B369C3F986A0CE31F4E"",""assignmentId"":""ff2240e7-6adf-4346-a4dc-e5e6d5927d76"",""projectId"":""e622c465-ee29-4445-8260-1f3431e06587""}","https://test12345.live/?participantId=DD5CB01757414B369C3F986A0CE31F4E&assignmentId=ff2240e7-6adf-4346-a4dc-e5e6d5927d76&projectId=e622c465-ee29-4445-8260-1f3431e06587","","null","<div style=""display: flex; justify-content: center; align-items: center;"">
                    <img src=""images/causal/causal_series_5/causal_series_5_a.jpg"" style=""width: 300px; height: 300px;"" />
                  </div>","null","",""
"","","","","","html-keyboard-response","91","383286","0.0-66.0-1.0","DD5CB01757414B369C3F986A0CE31F4E","DD5CB01757414B369C3F986A0CE31F4E","ff2240e7-6adf-4346-a4dc-e5e6d5927d76","e622c465-ee29-4445-8260-1f3431e06587","{""participantId"":""DD5CB01757414B369C3F986A0CE31F4E"",""assignmentId"":""ff2240e7-6adf-4346-a4dc-e5e6d5927d76"",""projectId"":""e622c465-ee29-4445-8260-1f3431e06587""}","https://test12345.live/?participantId=DD5CB01757414B369C3F986A0CE31F4E&assignmentId=ff2240e7-6adf-4346-a4dc-e5e6d5927d76&projectId=e622c465-ee29-4445-8260-1f3431e06587","","null","<div style=""display: flex; justify-content: center; align-items: center;"">
                    <img src=""images/causal/causal_series_5/causal_series_5_b.jpg"" style=""width: 300px; height: 300px;"" />
                  </div>","null","",""
"","","","","","html-keyboard-response","92","386297","0.0-66.0-2.0","DD5CB01757414B369C3F986A0CE31F4E","DD5CB01757414B369C3F986A0CE31F4E","ff2240e7-6adf-4346-a4dc-e5e6d5927d76","e622c465-ee29-4445-8260-1f3431e06587","{""participantId"":""DD5CB01757414B369C3F986A0CE31F4E"",""assignmentId"":""ff2240e7-6adf-4346-a4dc-e5e6d5927d76"",""projectId"":""e622c465-ee29-4445-8260-1f3431e06587""}","https://test12345.live/?participantId=DD5CB01757414B369C3F986A0CE31F4E&assignmentId=ff2240e7-6adf-4346-a4dc-e5e6d5927d76&projectId=e622c465-ee29-4445-8260-1f3431e06587","","null","<div style=""display: flex; justify-content: center; align-items: center;"">
                    <img src=""images/causal/causal_series_5/causal_series_5_c.jpg"" style=""width: 300px; height: 300px;"" />
                  </div>","null","",""
"","","","","","html-keyboard-response","93","389315","0.0-66.0-3.0","DD5CB01757414B369C3F986A0CE31F4E","DD5CB01757414B369C3F986A0CE31F4E","ff2240e7-6adf-4346-a4dc-e5e6d5927d76","e622c465-ee29-4445-8260-1f3431e06587","{""participantId"":""DD5CB01757414B369C3F986A0CE31F4E"",""assignmentId"":""ff2240e7-6adf-4346-a4dc-e5e6d5927d76"",""projectId"":""e622c465-ee29-4445-8260-1f3431e06587""}","https://test12345.live/?participantId=DD5CB01757414B369C3F986A0CE31F4E&assignmentId=ff2240e7-6adf-4346-a4dc-e5e6d5927d76&projectId=e622c465-ee29-4445-8260-1f3431e06587","","null","<div style=""display: flex; justify-content: center; align-items: center;"">
                    <img src=""images/causal/causal_series_5/causal_series_5_d.jpg"" style=""width: 300px; height: 300px;"" />
                  </div>","null","",""
"","","","","","html-button-response","94","390663","0.0-68.0","DD5CB01757414B369C3F986A0CE31F4E","DD5CB01757414B369C3F986A0CE31F4E","ff2240e7-6adf-4346-a4dc-e5e6d5927d76","e622c465-ee29-4445-8260-1f3431e06587","{""participantId"":""DD5CB01757414B369C3F986A0CE31F4E"",""assignmentId"":""ff2240e7-6adf-4346-a4dc-e5e6d5927d76"",""projectId"":""e622c465-ee29-4445-8260-1f3431e06587""}","https://test12345.live/?participantId=DD5CB01757414B369C3F986A0CE31F4E&assignmentId=ff2240e7-6adf-4346-a4dc-e5e6d5927d76&projectId=e622c465-ee29-4445-8260-1f3431e06587","","1346","Was there a person in the picture?","0","",""
"","","","","","survey-likert","95","392419","0.0-69.0","DD5CB01757414B369C3F986A0CE31F4E","DD5CB01757414B369C3F986A0CE31F4E","ff2240e7-6adf-4346-a4dc-e5e6d5927d76","e622c465-ee29-4445-8260-1f3431e06587","{""participantId"":""DD5CB01757414B369C3F986A0CE31F4E"",""assignmentId"":""ff2240e7-6adf-4346-a4dc-e5e6d5927d76"",""projectId"":""e622c465-ee29-4445-8260-1f3431e06587""}","https://test12345.live/?participantId=DD5CB01757414B369C3F986A0CE31F4E&assignmentId=ff2240e7-6adf-4346-a4dc-e5e6d5927d76&projectId=e622c465-ee29-4445-8260-1f3431e06587","","1754","","{""Q0"":2}","","[0]"
"","","","","","html-button-response","96","393400","0.0-70.0","DD5CB01757414B369C3F986A0CE31F4E","DD5CB01757414B369C3F986A0CE31F4E","ff2240e7-6adf-4346-a4dc-e5e6d5927d76","e622c465-ee29-4445-8260-1f3431e06587","{""participantId"":""DD5CB01757414B369C3F986A0CE31F4E"",""assignmentId"":""ff2240e7-6adf-4346-a4dc-e5e6d5927d76"",""projectId"":""e622c465-ee29-4445-8260-1f3431e06587""}","https://test12345.live/?participantId=DD5CB01757414B369C3F986A0CE31F4E&assignmentId=ff2240e7-6adf-4346-a4dc-e5e6d5927d76&projectId=e622c465-ee29-4445-8260-1f3431e06587","","977","
    <div style=""display: flex; justify-content: center; align-items: center;"">
      <img src=""images/blue_deck_1.png"" style=""width: 300px; height: 300px; margin-right: 10px;"" />
      <img src=""images/red_deck_2.png"" style=""width: 300px; height: 300px;"" />
    </div>","0","0",""
"","","","","","html-keyboard-response","97","396408","0.0-71.0-0.0","DD5CB01757414B369C3F986A0CE31F4E","DD5CB01757414B369C3F986A0CE31F4E","ff2240e7-6adf-4346-a4dc-e5e6d5927d76","e622c465-ee29-4445-8260-1f3431e06587","{""participantId"":""DD5CB01757414B369C3F986A0CE31F4E"",""assignmentId"":""ff2240e7-6adf-4346-a4dc-e5e6d5927d76"",""projectId"":""e622c465-ee29-4445-8260-1f3431e06587""}","https://test12345.live/?participantId=DD5CB01757414B369C3F986A0CE31F4E&assignmentId=ff2240e7-6adf-4346-a4dc-e5e6d5927d76&projectId=e622c465-ee29-4445-8260-1f3431e06587","","null","<div style=""display: flex; justify-content: center; align-items: center;"">
                    <img src=""images/causal/causal_series_9/causal_series_9_a.jpg"" style=""width: 300px; height: 300px;"" />
                  </div>","null","",""
"","","","","","html-keyboard-response","98","399415","0.0-71.0-1.0","DD5CB01757414B369C3F986A0CE31F4E","DD5CB01757414B369C3F986A0CE31F4E","ff2240e7-6adf-4346-a4dc-e5e6d5927d76","e622c465-ee29-4445-8260-1f3431e06587","{""participantId"":""DD5CB01757414B369C3F986A0CE31F4E"",""assignmentId"":""ff2240e7-6adf-4346-a4dc-e5e6d5927d76"",""projectId"":""e622c465-ee29-4445-8260-1f3431e06587""}","https://test12345.live/?participantId=DD5CB01757414B369C3F986A0CE31F4E&assignmentId=ff2240e7-6adf-4346-a4dc-e5e6d5927d76&projectId=e622c465-ee29-4445-8260-1f3431e06587","","null","<div style=""display: flex; justify-content: center; align-items: center;"">
                    <img src=""images/causal/causal_series_9/causal_series_9_b.jpg"" style=""width: 300px; height: 300px;"" />
                  </div>","null","",""
"","","","","","html-keyboard-response","99","402418","0.0-71.0-2.0","DD5CB01757414B369C3F986A0CE31F4E","DD5CB01757414B369C3F986A0CE31F4E","ff2240e7-6adf-4346-a4dc-e5e6d5927d76","e622c465-ee29-4445-8260-1f3431e06587","{""participantId"":""DD5CB01757414B369C3F986A0CE31F4E"",""assignmentId"":""ff2240e7-6adf-4346-a4dc-e5e6d5927d76"",""projectId"":""e622c465-ee29-4445-8260-1f3431e06587""}","https://test12345.live/?participantId=DD5CB01757414B369C3F986A0CE31F4E&assignmentId=ff2240e7-6adf-4346-a4dc-e5e6d5927d76&projectId=e622c465-ee29-4445-8260-1f3431e06587","","null","<div style=""display: flex; justify-content: center; align-items: center;"">
                    <img src=""images/causal/causal_series_9/causal_series_9_c.jpg"" style=""width: 300px; height: 300px;"" />
                  </div>","null","",""
"","","","","","html-keyboard-response","100","405420","0.0-71.0-3.0","DD5CB01757414B369C3F986A0CE31F4E","DD5CB01757414B369C3F986A0CE31F4E","ff2240e7-6adf-4346-a4dc-e5e6d5927d76","e622c465-ee29-4445-8260-1f3431e06587","{""participantId"":""DD5CB01757414B369C3F986A0CE31F4E"",""assignmentId"":""ff2240e7-6adf-4346-a4dc-e5e6d5927d76"",""projectId"":""e622c465-ee29-4445-8260-1f3431e06587""}","https://test12345.live/?participantId=DD5CB01757414B369C3F986A0CE31F4E&assignmentId=ff2240e7-6adf-4346-a4dc-e5e6d5927d76&projectId=e622c465-ee29-4445-8260-1f3431e06587","","null","<div style=""display: flex; justify-content: center; align-items: center;"">
                    <img src=""images/causal/causal_series_9/causal_series_9_d.jpg"" style=""width: 300px; height: 300px;"" />
                  </div>","null","",""
"","","","","","html-button-response","101","406772","0.0-73.0","DD5CB01757414B369C3F986A0CE31F4E","DD5CB01757414B369C3F986A0CE31F4E","ff2240e7-6adf-4346-a4dc-e5e6d5927d76","e622c465-ee29-4445-8260-1f3431e06587","{""participantId"":""DD5CB01757414B369C3F986A0CE31F4E"",""assignmentId"":""ff2240e7-6adf-4346-a4dc-e5e6d5927d76"",""projectId"":""e622c465-ee29-4445-8260-1f3431e06587""}","https://test12345.live/?participantId=DD5CB01757414B369C3F986A0CE31F4E&assignmentId=ff2240e7-6adf-4346-a4dc-e5e6d5927d76&projectId=e622c465-ee29-4445-8260-1f3431e06587","","1350","Was there a person in the picture?","1","",""
"","","","","","survey-likert","102","410089","0.0-74.0","DD5CB01757414B369C3F986A0CE31F4E","DD5CB01757414B369C3F986A0CE31F4E","ff2240e7-6adf-4346-a4dc-e5e6d5927d76","e622c465-ee29-4445-8260-1f3431e06587","{""participantId"":""DD5CB01757414B369C3F986A0CE31F4E"",""assignmentId"":""ff2240e7-6adf-4346-a4dc-e5e6d5927d76"",""projectId"":""e622c465-ee29-4445-8260-1f3431e06587""}","https://test12345.live/?participantId=DD5CB01757414B369C3F986A0CE31F4E&assignmentId=ff2240e7-6adf-4346-a4dc-e5e6d5927d76&projectId=e622c465-ee29-4445-8260-1f3431e06587","","3314","","{""Q0"":2}","","[0]"
"","","","","","html-button-response","103","411055","0.0-75.0","DD5CB01757414B369C3F986A0CE31F4E","DD5CB01757414B369C3F986A0CE31F4E","ff2240e7-6adf-4346-a4dc-e5e6d5927d76","e622c465-ee29-4445-8260-1f3431e06587","{""participantId"":""DD5CB01757414B369C3F986A0CE31F4E"",""assignmentId"":""ff2240e7-6adf-4346-a4dc-e5e6d5927d76"",""projectId"":""e622c465-ee29-4445-8260-1f3431e06587""}","https://test12345.live/?participantId=DD5CB01757414B369C3F986A0CE31F4E&assignmentId=ff2240e7-6adf-4346-a4dc-e5e6d5927d76&projectId=e622c465-ee29-4445-8260-1f3431e06587","","961","
    <div style=""display: flex; justify-content: center; align-items: center;"">
      <img src=""images/blue_deck_1.png"" style=""width: 300px; height: 300px; margin-right: 10px;"" />
      <img src=""images/red_deck_2.png"" style=""width: 300px; height: 300px;"" />
    </div>","1","1",""
"","","","","","html-keyboard-response","104","414073","0.0-77.0-0.0","DD5CB01757414B369C3F986A0CE31F4E","DD5CB01757414B369C3F986A0CE31F4E","ff2240e7-6adf-4346-a4dc-e5e6d5927d76","e622c465-ee29-4445-8260-1f3431e06587","{""participantId"":""DD5CB01757414B369C3F986A0CE31F4E"",""assignmentId"":""ff2240e7-6adf-4346-a4dc-e5e6d5927d76"",""projectId"":""e622c465-ee29-4445-8260-1f3431e06587""}","https://test12345.live/?participantId=DD5CB01757414B369C3F986A0CE31F4E&assignmentId=ff2240e7-6adf-4346-a4dc-e5e6d5927d76&projectId=e622c465-ee29-4445-8260-1f3431e06587","","null","<div style=""display: flex; justify-content: center; align-items: center;"">
                    <img src=""images/semantic/semantic_series_10/semantic_series_10_a.jpg"" style=""width: 300px; height: 300px;"" />
                  </div>","null","",""
"","","","","","html-keyboard-response","105","417081","0.0-77.0-1.0","DD5CB01757414B369C3F986A0CE31F4E","DD5CB01757414B369C3F986A0CE31F4E","ff2240e7-6adf-4346-a4dc-e5e6d5927d76","e622c465-ee29-4445-8260-1f3431e06587","{""participantId"":""DD5CB01757414B369C3F986A0CE31F4E"",""assignmentId"":""ff2240e7-6adf-4346-a4dc-e5e6d5927d76"",""projectId"":""e622c465-ee29-4445-8260-1f3431e06587""}","https://test12345.live/?participantId=DD5CB01757414B369C3F986A0CE31F4E&assignmentId=ff2240e7-6adf-4346-a4dc-e5e6d5927d76&projectId=e622c465-ee29-4445-8260-1f3431e06587","","null","<div style=""display: flex; justify-content: center; align-items: center;"">
                    <img src=""images/semantic/semantic_series_10/semantic_series_10_b.jpg"" style=""width: 300px; height: 300px;"" />
                  </div>","null","",""
"","","","","","html-keyboard-response","106","420096","0.0-77.0-2.0","DD5CB01757414B369C3F986A0CE31F4E","DD5CB01757414B369C3F986A0CE31F4E","ff2240e7-6adf-4346-a4dc-e5e6d5927d76","e622c465-ee29-4445-8260-1f3431e06587","{""participantId"":""DD5CB01757414B369C3F986A0CE31F4E"",""assignmentId"":""ff2240e7-6adf-4346-a4dc-e5e6d5927d76"",""projectId"":""e622c465-ee29-4445-8260-1f3431e06587""}","https://test12345.live/?participantId=DD5CB01757414B369C3F986A0CE31F4E&assignmentId=ff2240e7-6adf-4346-a4dc-e5e6d5927d76&projectId=e622c465-ee29-4445-8260-1f3431e06587","","null","<div style=""display: flex; justify-content: center; align-items: center;"">
                    <img src=""images/semantic/semantic_series_10/semantic_series_10_c.jpg"" style=""width: 300px; height: 300px;"" />
                  </div>","null","",""
"","","","","","html-keyboard-response","107","423103","0.0-77.0-3.0","DD5CB01757414B369C3F986A0CE31F4E","DD5CB01757414B369C3F986A0CE31F4E","ff2240e7-6adf-4346-a4dc-e5e6d5927d76","e622c465-ee29-4445-8260-1f3431e06587","{""participantId"":""DD5CB01757414B369C3F986A0CE31F4E"",""assignmentId"":""ff2240e7-6adf-4346-a4dc-e5e6d5927d76"",""projectId"":""e622c465-ee29-4445-8260-1f3431e06587""}","https://test12345.live/?participantId=DD5CB01757414B369C3F986A0CE31F4E&assignmentId=ff2240e7-6adf-4346-a4dc-e5e6d5927d76&projectId=e622c465-ee29-4445-8260-1f3431e06587","","null","<div style=""display: flex; justify-content: center; align-items: center;"">
                    <img src=""images/semantic/semantic_series_10/semantic_series_10_d.jpg"" style=""width: 300px; height: 300px;"" />
                  </div>","null","",""
"","","","","","html-button-response","108","424403","0.0-78.0","DD5CB01757414B369C3F986A0CE31F4E","DD5CB01757414B369C3F986A0CE31F4E","ff2240e7-6adf-4346-a4dc-e5e6d5927d76","e622c465-ee29-4445-8260-1f3431e06587","{""participantId"":""DD5CB01757414B369C3F986A0CE31F4E"",""assignmentId"":""ff2240e7-6adf-4346-a4dc-e5e6d5927d76"",""projectId"":""e622c465-ee29-4445-8260-1f3431e06587""}","https://test12345.live/?participantId=DD5CB01757414B369C3F986A0CE31F4E&assignmentId=ff2240e7-6adf-4346-a4dc-e5e6d5927d76&projectId=e622c465-ee29-4445-8260-1f3431e06587","","1298","Was there a person in the picture?","1","",""
"","","","","","survey-likert","109","429228","0.0-79.0","DD5CB01757414B369C3F986A0CE31F4E","DD5CB01757414B369C3F986A0CE31F4E","ff2240e7-6adf-4346-a4dc-e5e6d5927d76","e622c465-ee29-4445-8260-1f3431e06587","{""participantId"":""DD5CB01757414B369C3F986A0CE31F4E"",""assignmentId"":""ff2240e7-6adf-4346-a4dc-e5e6d5927d76"",""projectId"":""e622c465-ee29-4445-8260-1f3431e06587""}","https://test12345.live/?participantId=DD5CB01757414B369C3F986A0CE31F4E&assignmentId=ff2240e7-6adf-4346-a4dc-e5e6d5927d76&projectId=e622c465-ee29-4445-8260-1f3431e06587","","4823","","{""Q0"":3}","","[0]"
"","","","","","html-button-response","110","430278","0.0-80.0","DD5CB01757414B369C3F986A0CE31F4E","DD5CB01757414B369C3F986A0CE31F4E","ff2240e7-6adf-4346-a4dc-e5e6d5927d76","e622c465-ee29-4445-8260-1f3431e06587","{""participantId"":""DD5CB01757414B369C3F986A0CE31F4E"",""assignmentId"":""ff2240e7-6adf-4346-a4dc-e5e6d5927d76"",""projectId"":""e622c465-ee29-4445-8260-1f3431e06587""}","https://test12345.live/?participantId=DD5CB01757414B369C3F986A0CE31F4E&assignmentId=ff2240e7-6adf-4346-a4dc-e5e6d5927d76&projectId=e622c465-ee29-4445-8260-1f3431e06587","","1046","
    <div style=""display: flex; justify-content: center; align-items: center;"">
      <img src=""images/blue_deck_1.png"" style=""width: 300px; height: 300px; margin-right: 10px;"" />
      <img src=""images/red_deck_2.png"" style=""width: 300px; height: 300px;"" />
    </div>","1","1",""
"","","","","","html-keyboard-response","111","433291","0.0-82.0-0.0","DD5CB01757414B369C3F986A0CE31F4E","DD5CB01757414B369C3F986A0CE31F4E","ff2240e7-6adf-4346-a4dc-e5e6d5927d76","e622c465-ee29-4445-8260-1f3431e06587","{""participantId"":""DD5CB01757414B369C3F986A0CE31F4E"",""assignmentId"":""ff2240e7-6adf-4346-a4dc-e5e6d5927d76"",""projectId"":""e622c465-ee29-4445-8260-1f3431e06587""}","https://test12345.live/?participantId=DD5CB01757414B369C3F986A0CE31F4E&assignmentId=ff2240e7-6adf-4346-a4dc-e5e6d5927d76&projectId=e622c465-ee29-4445-8260-1f3431e06587","","null","<div style=""display: flex; justify-content: center; align-items: center;"">
                    <img src=""images/semantic/semantic_series_3/semantic_series_3_a.jpg"" style=""width: 300px; height: 300px;"" />
                  </div>","null","",""
"","","","","","html-keyboard-response","112","436305","0.0-82.0-1.0","DD5CB01757414B369C3F986A0CE31F4E","DD5CB01757414B369C3F986A0CE31F4E","ff2240e7-6adf-4346-a4dc-e5e6d5927d76","e622c465-ee29-4445-8260-1f3431e06587","{""participantId"":""DD5CB01757414B369C3F986A0CE31F4E"",""assignmentId"":""ff2240e7-6adf-4346-a4dc-e5e6d5927d76"",""projectId"":""e622c465-ee29-4445-8260-1f3431e06587""}","https://test12345.live/?participantId=DD5CB01757414B369C3F986A0CE31F4E&assignmentId=ff2240e7-6adf-4346-a4dc-e5e6d5927d76&projectId=e622c465-ee29-4445-8260-1f3431e06587","","null","<div style=""display: flex; justify-content: center; align-items: center;"">
                    <img src=""images/semantic/semantic_series_3/semantic_series_3_b.jpg"" style=""width: 300px; height: 300px;"" />
                  </div>","null","",""
"","","","","","html-keyboard-response","113","439321","0.0-82.0-2.0","DD5CB01757414B369C3F986A0CE31F4E","DD5CB01757414B369C3F986A0CE31F4E","ff2240e7-6adf-4346-a4dc-e5e6d5927d76","e622c465-ee29-4445-8260-1f3431e06587","{""participantId"":""DD5CB01757414B369C3F986A0CE31F4E"",""assignmentId"":""ff2240e7-6adf-4346-a4dc-e5e6d5927d76"",""projectId"":""e622c465-ee29-4445-8260-1f3431e06587""}","https://test12345.live/?participantId=DD5CB01757414B369C3F986A0CE31F4E&assignmentId=ff2240e7-6adf-4346-a4dc-e5e6d5927d76&projectId=e622c465-ee29-4445-8260-1f3431e06587","","null","<div style=""display: flex; justify-content: center; align-items: center;"">
                    <img src=""images/semantic/semantic_series_3/semantic_series_3_c.jpg"" style=""width: 300px; height: 300px;"" />
                  </div>","null","",""
"","","","","","html-keyboard-response","114","442337","0.0-82.0-3.0","DD5CB01757414B369C3F986A0CE31F4E","DD5CB01757414B369C3F986A0CE31F4E","ff2240e7-6adf-4346-a4dc-e5e6d5927d76","e622c465-ee29-4445-8260-1f3431e06587","{""participantId"":""DD5CB01757414B369C3F986A0CE31F4E"",""assignmentId"":""ff2240e7-6adf-4346-a4dc-e5e6d5927d76"",""projectId"":""e622c465-ee29-4445-8260-1f3431e06587""}","https://test12345.live/?participantId=DD5CB01757414B369C3F986A0CE31F4E&assignmentId=ff2240e7-6adf-4346-a4dc-e5e6d5927d76&projectId=e622c465-ee29-4445-8260-1f3431e06587","","null","<div style=""display: flex; justify-content: center; align-items: center;"">
                    <img src=""images/semantic/semantic_series_3/semantic_series_3_d.jpg"" style=""width: 300px; height: 300px;"" />
                  </div>","null","",""
"","","","","","html-button-response","115","444045","0.0-83.0","DD5CB01757414B369C3F986A0CE31F4E","DD5CB01757414B369C3F986A0CE31F4E","ff2240e7-6adf-4346-a4dc-e5e6d5927d76","e622c465-ee29-4445-8260-1f3431e06587","{""participantId"":""DD5CB01757414B369C3F986A0CE31F4E"",""assignmentId"":""ff2240e7-6adf-4346-a4dc-e5e6d5927d76"",""projectId"":""e622c465-ee29-4445-8260-1f3431e06587""}","https://test12345.live/?participantId=DD5CB01757414B369C3F986A0CE31F4E&assignmentId=ff2240e7-6adf-4346-a4dc-e5e6d5927d76&projectId=e622c465-ee29-4445-8260-1f3431e06587","","1706","Was there a person in the picture?","0","",""
"","","","","","survey-likert","116","445746","0.0-84.0","DD5CB01757414B369C3F986A0CE31F4E","DD5CB01757414B369C3F986A0CE31F4E","ff2240e7-6adf-4346-a4dc-e5e6d5927d76","e622c465-ee29-4445-8260-1f3431e06587","{""participantId"":""DD5CB01757414B369C3F986A0CE31F4E"",""assignmentId"":""ff2240e7-6adf-4346-a4dc-e5e6d5927d76"",""projectId"":""e622c465-ee29-4445-8260-1f3431e06587""}","https://test12345.live/?participantId=DD5CB01757414B369C3F986A0CE31F4E&assignmentId=ff2240e7-6adf-4346-a4dc-e5e6d5927d76&projectId=e622c465-ee29-4445-8260-1f3431e06587","","1699","","{""Q0"":1}","","[0]"
"","","","","","html-button-response","117","447037","0.0-85.0","DD5CB01757414B369C3F986A0CE31F4E","DD5CB01757414B369C3F986A0CE31F4E","ff2240e7-6adf-4346-a4dc-e5e6d5927d76","e622c465-ee29-4445-8260-1f3431e06587","{""participantId"":""DD5CB01757414B369C3F986A0CE31F4E"",""assignmentId"":""ff2240e7-6adf-4346-a4dc-e5e6d5927d76"",""projectId"":""e622c465-ee29-4445-8260-1f3431e06587""}","https://test12345.live/?participantId=DD5CB01757414B369C3F986A0CE31F4E&assignmentId=ff2240e7-6adf-4346-a4dc-e5e6d5927d76&projectId=e622c465-ee29-4445-8260-1f3431e06587","","1287","
    <div style=""display: flex; justify-content: center; align-items: center;"">
      <img src=""images/blue_deck_1.png"" style=""width: 300px; height: 300px; margin-right: 10px;"" />
      <img src=""images/red_deck_2.png"" style=""width: 300px; height: 300px;"" />
    </div>","1","1",""
"","","","","","html-keyboard-response","118","450054","0.0-87.0-0.0","DD5CB01757414B369C3F986A0CE31F4E","DD5CB01757414B369C3F986A0CE31F4E","ff2240e7-6adf-4346-a4dc-e5e6d5927d76","e622c465-ee29-4445-8260-1f3431e06587","{""participantId"":""DD5CB01757414B369C3F986A0CE31F4E"",""assignmentId"":""ff2240e7-6adf-4346-a4dc-e5e6d5927d76"",""projectId"":""e622c465-ee29-4445-8260-1f3431e06587""}","https://test12345.live/?participantId=DD5CB01757414B369C3F986A0CE31F4E&assignmentId=ff2240e7-6adf-4346-a4dc-e5e6d5927d76&projectId=e622c465-ee29-4445-8260-1f3431e06587","","null","<div style=""display: flex; justify-content: center; align-items: center;"">
                    <img src=""images/semantic/semantic_series_6/semantic_series_6_a.jpg"" style=""width: 300px; height: 300px;"" />
                  </div>","null","",""
"","","","","","html-keyboard-response","119","453065","0.0-87.0-1.0","DD5CB01757414B369C3F986A0CE31F4E","DD5CB01757414B369C3F986A0CE31F4E","ff2240e7-6adf-4346-a4dc-e5e6d5927d76","e622c465-ee29-4445-8260-1f3431e06587","{""participantId"":""DD5CB01757414B369C3F986A0CE31F4E"",""assignmentId"":""ff2240e7-6adf-4346-a4dc-e5e6d5927d76"",""projectId"":""e622c465-ee29-4445-8260-1f3431e06587""}","https://test12345.live/?participantId=DD5CB01757414B369C3F986A0CE31F4E&assignmentId=ff2240e7-6adf-4346-a4dc-e5e6d5927d76&projectId=e622c465-ee29-4445-8260-1f3431e06587","","null","<div style=""display: flex; justify-content: center; align-items: center;"">
                    <img src=""images/semantic/semantic_series_6/semantic_series_6_b.jpg"" style=""width: 300px; height: 300px;"" />
                  </div>","null","",""
"","","","","","html-keyboard-response","120","456078","0.0-87.0-2.0","DD5CB01757414B369C3F986A0CE31F4E","DD5CB01757414B369C3F986A0CE31F4E","ff2240e7-6adf-4346-a4dc-e5e6d5927d76","e622c465-ee29-4445-8260-1f3431e06587","{""participantId"":""DD5CB01757414B369C3F986A0CE31F4E"",""assignmentId"":""ff2240e7-6adf-4346-a4dc-e5e6d5927d76"",""projectId"":""e622c465-ee29-4445-8260-1f3431e06587""}","https://test12345.live/?participantId=DD5CB01757414B369C3F986A0CE31F4E&assignmentId=ff2240e7-6adf-4346-a4dc-e5e6d5927d76&projectId=e622c465-ee29-4445-8260-1f3431e06587","","null","<div style=""display: flex; justify-content: center; align-items: center;"">
                    <img src=""images/semantic/semantic_series_6/semantic_series_6_c.jpg"" style=""width: 300px; height: 300px;"" />
                  </div>","null","",""
"","","","","","html-keyboard-response","121","459082","0.0-87.0-3.0","DD5CB01757414B369C3F986A0CE31F4E","DD5CB01757414B369C3F986A0CE31F4E","ff2240e7-6adf-4346-a4dc-e5e6d5927d76","e622c465-ee29-4445-8260-1f3431e06587","{""participantId"":""DD5CB01757414B369C3F986A0CE31F4E"",""assignmentId"":""ff2240e7-6adf-4346-a4dc-e5e6d5927d76"",""projectId"":""e622c465-ee29-4445-8260-1f3431e06587""}","https://test12345.live/?participantId=DD5CB01757414B369C3F986A0CE31F4E&assignmentId=ff2240e7-6adf-4346-a4dc-e5e6d5927d76&projectId=e622c465-ee29-4445-8260-1f3431e06587","","null","<div style=""display: flex; justify-content: center; align-items: center;"">
                    <img src=""images/semantic/semantic_series_6/semantic_series_6_d.jpg"" style=""width: 300px; height: 300px;"" />
                  </div>","null","",""
"","","","","","html-button-response","122","460595","0.0-88.0","DD5CB01757414B369C3F986A0CE31F4E","DD5CB01757414B369C3F986A0CE31F4E","ff2240e7-6adf-4346-a4dc-e5e6d5927d76","e622c465-ee29-4445-8260-1f3431e06587","{""participantId"":""DD5CB01757414B369C3F986A0CE31F4E"",""assignmentId"":""ff2240e7-6adf-4346-a4dc-e5e6d5927d76"",""projectId"":""e622c465-ee29-4445-8260-1f3431e06587""}","https://test12345.live/?participantId=DD5CB01757414B369C3F986A0CE31F4E&assignmentId=ff2240e7-6adf-4346-a4dc-e5e6d5927d76&projectId=e622c465-ee29-4445-8260-1f3431e06587","","1512","Was there a person in the picture?","1","",""
"","","","","","survey-likert","123","471702","0.0-89.0","DD5CB01757414B369C3F986A0CE31F4E","DD5CB01757414B369C3F986A0CE31F4E","ff2240e7-6adf-4346-a4dc-e5e6d5927d76","e622c465-ee29-4445-8260-1f3431e06587","{""participantId"":""DD5CB01757414B369C3F986A0CE31F4E"",""assignmentId"":""ff2240e7-6adf-4346-a4dc-e5e6d5927d76"",""projectId"":""e622c465-ee29-4445-8260-1f3431e06587""}","https://test12345.live/?participantId=DD5CB01757414B369C3F986A0CE31F4E&assignmentId=ff2240e7-6adf-4346-a4dc-e5e6d5927d76&projectId=e622c465-ee29-4445-8260-1f3431e06587","","11104","","{""Q0"":2}","","[0]"
"","","","","","html-button-response","124","472633","0.0-90.0","DD5CB01757414B369C3F986A0CE31F4E","DD5CB01757414B369C3F986A0CE31F4E","ff2240e7-6adf-4346-a4dc-e5e6d5927d76","e622c465-ee29-4445-8260-1f3431e06587","{""participantId"":""DD5CB01757414B369C3F986A0CE31F4E"",""assignmentId"":""ff2240e7-6adf-4346-a4dc-e5e6d5927d76"",""projectId"":""e622c465-ee29-4445-8260-1f3431e06587""}","https://test12345.live/?participantId=DD5CB01757414B369C3F986A0CE31F4E&assignmentId=ff2240e7-6adf-4346-a4dc-e5e6d5927d76&projectId=e622c465-ee29-4445-8260-1f3431e06587","","926","
    <div style=""display: flex; justify-content: center; align-items: center;"">
      <img src=""images/blue_deck_1.png"" style=""width: 300px; height: 300px; margin-right: 10px;"" />
      <img src=""images/red_deck_2.png"" style=""width: 300px; height: 300px;"" />
    </div>","0","0",""
"","","","","","html-keyboard-response","125","475637","0.0-91.0-0.0","DD5CB01757414B369C3F986A0CE31F4E","DD5CB01757414B369C3F986A0CE31F4E","ff2240e7-6adf-4346-a4dc-e5e6d5927d76","e622c465-ee29-4445-8260-1f3431e06587","{""participantId"":""DD5CB01757414B369C3F986A0CE31F4E"",""assignmentId"":""ff2240e7-6adf-4346-a4dc-e5e6d5927d76"",""projectId"":""e622c465-ee29-4445-8260-1f3431e06587""}","https://test12345.live/?participantId=DD5CB01757414B369C3F986A0CE31F4E&assignmentId=ff2240e7-6adf-4346-a4dc-e5e6d5927d76&projectId=e622c465-ee29-4445-8260-1f3431e06587","","null","<div style=""display: flex; justify-content: center; align-items: center;"">
                    <img src=""images/causal/causal_series_6/causal_series_6_a.jpg"" style=""width: 300px; height: 300px;"" />
                  </div>","null","",""
"","","","","","html-keyboard-response","126","478647","0.0-91.0-1.0","DD5CB01757414B369C3F986A0CE31F4E","DD5CB01757414B369C3F986A0CE31F4E","ff2240e7-6adf-4346-a4dc-e5e6d5927d76","e622c465-ee29-4445-8260-1f3431e06587","{""participantId"":""DD5CB01757414B369C3F986A0CE31F4E"",""assignmentId"":""ff2240e7-6adf-4346-a4dc-e5e6d5927d76"",""projectId"":""e622c465-ee29-4445-8260-1f3431e06587""}","https://test12345.live/?participantId=DD5CB01757414B369C3F986A0CE31F4E&assignmentId=ff2240e7-6adf-4346-a4dc-e5e6d5927d76&projectId=e622c465-ee29-4445-8260-1f3431e06587","","null","<div style=""display: flex; justify-content: center; align-items: center;"">
                    <img src=""images/causal/causal_series_6/causal_series_6_b.jpg"" style=""width: 300px; height: 300px;"" />
                  </div>","null","",""
"","","","","","html-keyboard-response","127","481662","0.0-91.0-2.0","DD5CB01757414B369C3F986A0CE31F4E","DD5CB01757414B369C3F986A0CE31F4E","ff2240e7-6adf-4346-a4dc-e5e6d5927d76","e622c465-ee29-4445-8260-1f3431e06587","{""participantId"":""DD5CB01757414B369C3F986A0CE31F4E"",""assignmentId"":""ff2240e7-6adf-4346-a4dc-e5e6d5927d76"",""projectId"":""e622c465-ee29-4445-8260-1f3431e06587""}","https://test12345.live/?participantId=DD5CB01757414B369C3F986A0CE31F4E&assignmentId=ff2240e7-6adf-4346-a4dc-e5e6d5927d76&projectId=e622c465-ee29-4445-8260-1f3431e06587","","null","<div style=""display: flex; justify-content: center; align-items: center;"">
                    <img src=""images/causal/causal_series_6/causal_series_6_c.jpg"" style=""width: 300px; height: 300px;"" />
                  </div>","null","",""
"","","","","","html-keyboard-response","128","484666","0.0-91.0-3.0","DD5CB01757414B369C3F986A0CE31F4E","DD5CB01757414B369C3F986A0CE31F4E","ff2240e7-6adf-4346-a4dc-e5e6d5927d76","e622c465-ee29-4445-8260-1f3431e06587","{""participantId"":""DD5CB01757414B369C3F986A0CE31F4E"",""assignmentId"":""ff2240e7-6adf-4346-a4dc-e5e6d5927d76"",""projectId"":""e622c465-ee29-4445-8260-1f3431e06587""}","https://test12345.live/?participantId=DD5CB01757414B369C3F986A0CE31F4E&assignmentId=ff2240e7-6adf-4346-a4dc-e5e6d5927d76&projectId=e622c465-ee29-4445-8260-1f3431e06587","","null","<div style=""display: flex; justify-content: center; align-items: center;"">
                    <img src=""images/causal/causal_series_6/causal_series_6_d.jpg"" style=""width: 300px; height: 300px;"" />
                  </div>","null","",""
"","","","","","html-button-response","129","486547","0.0-93.0","DD5CB01757414B369C3F986A0CE31F4E","DD5CB01757414B369C3F986A0CE31F4E","ff2240e7-6adf-4346-a4dc-e5e6d5927d76","e622c465-ee29-4445-8260-1f3431e06587","{""participantId"":""DD5CB01757414B369C3F986A0CE31F4E"",""assignmentId"":""ff2240e7-6adf-4346-a4dc-e5e6d5927d76"",""projectId"":""e622c465-ee29-4445-8260-1f3431e06587""}","https://test12345.live/?participantId=DD5CB01757414B369C3F986A0CE31F4E&assignmentId=ff2240e7-6adf-4346-a4dc-e5e6d5927d76&projectId=e622c465-ee29-4445-8260-1f3431e06587","","1878","Was there a person in the picture?","1","",""
"","","","","","survey-likert","130","488806","0.0-94.0","DD5CB01757414B369C3F986A0CE31F4E","DD5CB01757414B369C3F986A0CE31F4E","ff2240e7-6adf-4346-a4dc-e5e6d5927d76","e622c465-ee29-4445-8260-1f3431e06587","{""participantId"":""DD5CB01757414B369C3F986A0CE31F4E"",""assignmentId"":""ff2240e7-6adf-4346-a4dc-e5e6d5927d76"",""projectId"":""e622c465-ee29-4445-8260-1f3431e06587""}","https://test12345.live/?participantId=DD5CB01757414B369C3F986A0CE31F4E&assignmentId=ff2240e7-6adf-4346-a4dc-e5e6d5927d76&projectId=e622c465-ee29-4445-8260-1f3431e06587","","2255","","{""Q0"":3}","","[0]"
"","","","","","survey-text","131","569634","0.0-95.0","DD5CB01757414B369C3F986A0CE31F4E","DD5CB01757414B369C3F986A0CE31F4E","ff2240e7-6adf-4346-a4dc-e5e6d5927d76","e622c465-ee29-4445-8260-1f3431e06587","{""participantId"":""DD5CB01757414B369C3F986A0CE31F4E"",""assignmentId"":""ff2240e7-6adf-4346-a4dc-e5e6d5927d76"",""projectId"":""e622c465-ee29-4445-8260-1f3431e06587""}","https://test12345.live/?participantId=DD5CB01757414B369C3F986A0CE31F4E&assignmentId=ff2240e7-6adf-4346-a4dc-e5e6d5927d76&projectId=e622c465-ee29-4445-8260-1f3431e06587","","80817","","{""Q0"":""""}","",""
