"success","timeout","failed_images","failed_audio","failed_video","trial_type","trial_index","time_elapsed","internal_node_id","subject","subject_id","study_id","session_id","urlvar","current_url","view_history","rt","stimulus","response","choice","question_order"
"true","false","[]","[]","[]","preload","0","376","0.0-0.0","BA228236C0AB473D9EE59D76B07DEA6A","BA228236C0AB473D9EE59D76B07DEA6A","3d1ff8f3-cac1-49a9-b833-3f8ab03054e6","bea99957-1862-4ad8-9558-57b91e42ce64","{""participantId"":""BA228236C0AB473D9EE59D76B07DEA6A"",""assignmentId"":""3d1ff8f3-cac1-49a9-b833-3f8ab03054e6"",""projectId"":""bea99957-1862-4ad8-9558-57b91e42ce64""}","https://test12345.live/?participantId=BA228236C0AB473D9EE59D76B07DEA6A&assignmentId=3d1ff8f3-cac1-49a9-b833-3f8ab03054e6&projectId=bea99957-1862-4ad8-9558-57b91e42ce64","","","","","",""
"","","","","","instructions","1","3737","0.0-1.0","BA228236C0AB473D9EE59D76B07DEA6A","BA228236C0AB473D9EE59D76B07DEA6A","3d1ff8f3-cac1-49a9-b833-3f8ab03054e6","bea99957-1862-4ad8-9558-57b91e42ce64","{""participantId"":""BA228236C0AB473D9EE59D76B07DEA6A"",""assignmentId"":""3d1ff8f3-cac1-49a9-b833-3f8ab03054e6"",""projectId"":""bea99957-1862-4ad8-9558-57b91e42ce64""}","https://test12345.live/?participantId=BA228236C0AB473D9EE59D76B07DEA6A&assignmentId=3d1ff8f3-cac1-49a9-b833-3f8ab03054e6&projectId=bea99957-1862-4ad8-9558-57b91e42ce64","[{""page_index"":0,""viewing_time"":3360}]","3360","","","",""
"","","","","","instructions","2","15982","0.0-2.0","BA228236C0AB473D9EE59D76B07DEA6A","BA228236C0AB473D9EE59D76B07DEA6A","3d1ff8f3-cac1-49a9-b833-3f8ab03054e6","bea99957-1862-4ad8-9558-57b91e42ce64","{""participantId"":""BA228236C0AB473D9EE59D76B07DEA6A"",""assignmentId"":""3d1ff8f3-cac1-49a9-b833-3f8ab03054e6"",""projectId"":""bea99957-1862-4ad8-9558-57b91e42ce64""}","https://test12345.live/?participantId=BA228236C0AB473D9EE59D76B07DEA6A&assignmentId=3d1ff8f3-cac1-49a9-b833-3f8ab03054e6&projectId=bea99957-1862-4ad8-9558-57b91e42ce64","[{""page_index"":0,""viewing_time"":12244}]","12244","","","",""
"true","","","","","fullscreen","3","20756","0.0-3.0","BA228236C0AB473D9EE59D76B07DEA6A","BA228236C0AB473D9EE59D76B07DEA6A","3d1ff8f3-cac1-49a9-b833-3f8ab03054e6","bea99957-1862-4ad8-9558-57b91e42ce64","{""participantId"":""BA228236C0AB473D9EE59D76B07DEA6A"",""assignmentId"":""3d1ff8f3-cac1-49a9-b833-3f8ab03054e6"",""projectId"":""bea99957-1862-4ad8-9558-57b91e42ce64""}","https://test12345.live/?participantId=BA228236C0AB473D9EE59D76B07DEA6A&assignmentId=3d1ff8f3-cac1-49a9-b833-3f8ab03054e6&projectId=bea99957-1862-4ad8-9558-57b91e42ce64","","3760","","","",""
"","","","","","instructions","4","48528","0.0-4.0","BA228236C0AB473D9EE59D76B07DEA6A","BA228236C0AB473D9EE59D76B07DEA6A","3d1ff8f3-cac1-49a9-b833-3f8ab03054e6","bea99957-1862-4ad8-9558-57b91e42ce64","{""participantId"":""BA228236C0AB473D9EE59D76B07DEA6A"",""assignmentId"":""3d1ff8f3-cac1-49a9-b833-3f8ab03054e6"",""projectId"":""bea99957-1862-4ad8-9558-57b91e42ce64""}","https://test12345.live/?participantId=BA228236C0AB473D9EE59D76B07DEA6A&assignmentId=3d1ff8f3-cac1-49a9-b833-3f8ab03054e6&projectId=bea99957-1862-4ad8-9558-57b91e42ce64","[{""page_index"":0,""viewing_time"":27768}]","27769","","","",""
"","","","","","html-button-response","5","53004","0.0-5.0","BA228236C0AB473D9EE59D76B07DEA6A","BA228236C0AB473D9EE59D76B07DEA6A","3d1ff8f3-cac1-49a9-b833-3f8ab03054e6","bea99957-1862-4ad8-9558-57b91e42ce64","{""participantId"":""BA228236C0AB473D9EE59D76B07DEA6A"",""assignmentId"":""3d1ff8f3-cac1-49a9-b833-3f8ab03054e6"",""projectId"":""bea99957-1862-4ad8-9558-57b91e42ce64""}","https://test12345.live/?participantId=BA228236C0AB473D9EE59D76B07DEA6A&assignmentId=3d1ff8f3-cac1-49a9-b833-3f8ab03054e6&projectId=bea99957-1862-4ad8-9558-57b91e42ce64","","4472","
    <div style=""display: flex; justify-content: center; align-items: center;"">
      <img src=""images/red_deck_2.png"" style=""width: 300px; height: 300px; margin-right: 10px;"" />
      <img src=""images/blue_deck_1.png"" style=""width: 300px; height: 300px;"" />
    </div>","1","1",""
"","","","","","html-keyboard-response","6","56015","0.0-6.0-0.0","BA228236C0AB473D9EE59D76B07DEA6A","BA228236C0AB473D9EE59D76B07DEA6A","3d1ff8f3-cac1-49a9-b833-3f8ab03054e6","bea99957-1862-4ad8-9558-57b91e42ce64","{""participantId"":""BA228236C0AB473D9EE59D76B07DEA6A"",""assignmentId"":""3d1ff8f3-cac1-49a9-b833-3f8ab03054e6"",""projectId"":""bea99957-1862-4ad8-9558-57b91e42ce64""}","https://test12345.live/?participantId=BA228236C0AB473D9EE59D76B07DEA6A&assignmentId=3d1ff8f3-cac1-49a9-b833-3f8ab03054e6&projectId=bea99957-1862-4ad8-9558-57b91e42ce64","","null","<div style=""display: flex; justify-content: center; align-items: center;"">
                    <img src=""images/causal/causal_series_10/causal_series_10_a.jpg"" style=""width: 300px; height: 300px;"" />
                  </div>","null","",""
"","","","","","html-keyboard-response","7","59021","0.0-6.0-1.0","BA228236C0AB473D9EE59D76B07DEA6A","BA228236C0AB473D9EE59D76B07DEA6A","3d1ff8f3-cac1-49a9-b833-3f8ab03054e6","bea99957-1862-4ad8-9558-57b91e42ce64","{""participantId"":""BA228236C0AB473D9EE59D76B07DEA6A"",""assignmentId"":""3d1ff8f3-cac1-49a9-b833-3f8ab03054e6"",""projectId"":""bea99957-1862-4ad8-9558-57b91e42ce64""}","https://test12345.live/?participantId=BA228236C0AB473D9EE59D76B07DEA6A&assignmentId=3d1ff8f3-cac1-49a9-b833-3f8ab03054e6&projectId=bea99957-1862-4ad8-9558-57b91e42ce64","","null","<div style=""display: flex; justify-content: center; align-items: center;"">
                    <img src=""images/causal/causal_series_10/causal_series_10_b.jpg"" style=""width: 300px; height: 300px;"" />
                  </div>","null","",""
"","","","","","html-keyboard-response","8","62035","0.0-6.0-2.0","BA228236C0AB473D9EE59D76B07DEA6A","BA228236C0AB473D9EE59D76B07DEA6A","3d1ff8f3-cac1-49a9-b833-3f8ab03054e6","bea99957-1862-4ad8-9558-57b91e42ce64","{""participantId"":""BA228236C0AB473D9EE59D76B07DEA6A"",""assignmentId"":""3d1ff8f3-cac1-49a9-b833-3f8ab03054e6"",""projectId"":""bea99957-1862-4ad8-9558-57b91e42ce64""}","https://test12345.live/?participantId=BA228236C0AB473D9EE59D76B07DEA6A&assignmentId=3d1ff8f3-cac1-49a9-b833-3f8ab03054e6&projectId=bea99957-1862-4ad8-9558-57b91e42ce64","","null","<div style=""display: flex; justify-content: center; align-items: center;"">
                    <img src=""images/causal/causal_series_10/causal_series_10_c.jpg"" style=""width: 300px; height: 300px;"" />
                  </div>","null","",""
"","","","","","html-keyboard-response","9","65043","0.0-6.0-3.0","BA228236C0AB473D9EE59D76B07DEA6A","BA228236C0AB473D9EE59D76B07DEA6A","3d1ff8f3-cac1-49a9-b833-3f8ab03054e6","bea99957-1862-4ad8-9558-57b91e42ce64","{""participantId"":""BA228236C0AB473D9EE59D76B07DEA6A"",""assignmentId"":""3d1ff8f3-cac1-49a9-b833-3f8ab03054e6"",""projectId"":""bea99957-1862-4ad8-9558-57b91e42ce64""}","https://test12345.live/?participantId=BA228236C0AB473D9EE59D76B07DEA6A&assignmentId=3d1ff8f3-cac1-49a9-b833-3f8ab03054e6&projectId=bea99957-1862-4ad8-9558-57b91e42ce64","","null","<div style=""display: flex; justify-content: center; align-items: center;"">
                    <img src=""images/causal/causal_series_10/causal_series_10_d.jpg"" style=""width: 300px; height: 300px;"" />
                  </div>","null","",""
"","","","","","html-button-response","10","67003","0.0-8.0","BA228236C0AB473D9EE59D76B07DEA6A","BA228236C0AB473D9EE59D76B07DEA6A","3d1ff8f3-cac1-49a9-b833-3f8ab03054e6","bea99957-1862-4ad8-9558-57b91e42ce64","{""participantId"":""BA228236C0AB473D9EE59D76B07DEA6A"",""assignmentId"":""3d1ff8f3-cac1-49a9-b833-3f8ab03054e6"",""projectId"":""bea99957-1862-4ad8-9558-57b91e42ce64""}","https://test12345.live/?participantId=BA228236C0AB473D9EE59D76B07DEA6A&assignmentId=3d1ff8f3-cac1-49a9-b833-3f8ab03054e6&projectId=bea99957-1862-4ad8-9558-57b91e42ce64","","1958","Was there a person in the picture?","1","",""
"","","","","","survey-likert","11","73613","0.0-9.0","BA228236C0AB473D9EE59D76B07DEA6A","BA228236C0AB473D9EE59D76B07DEA6A","3d1ff8f3-cac1-49a9-b833-3f8ab03054e6","bea99957-1862-4ad8-9558-57b91e42ce64","{""participantId"":""BA228236C0AB473D9EE59D76B07DEA6A"",""assignmentId"":""3d1ff8f3-cac1-49a9-b833-3f8ab03054e6"",""projectId"":""bea99957-1862-4ad8-9558-57b91e42ce64""}","https://test12345.live/?participantId=BA228236C0AB473D9EE59D76B07DEA6A&assignmentId=3d1ff8f3-cac1-49a9-b833-3f8ab03054e6&projectId=bea99957-1862-4ad8-9558-57b91e42ce64","","6602","","{""Q0"":1}","","[0]"
"","","","","","html-button-response","12","75628","0.0-10.0","BA228236C0AB473D9EE59D76B07DEA6A","BA228236C0AB473D9EE59D76B07DEA6A","3d1ff8f3-cac1-49a9-b833-3f8ab03054e6","bea99957-1862-4ad8-9558-57b91e42ce64","{""participantId"":""BA228236C0AB473D9EE59D76B07DEA6A"",""assignmentId"":""3d1ff8f3-cac1-49a9-b833-3f8ab03054e6"",""projectId"":""bea99957-1862-4ad8-9558-57b91e42ce64""}","https://test12345.live/?participantId=BA228236C0AB473D9EE59D76B07DEA6A&assignmentId=3d1ff8f3-cac1-49a9-b833-3f8ab03054e6&projectId=bea99957-1862-4ad8-9558-57b91e42ce64","","2005","
    <div style=""display: flex; justify-content: center; align-items: center;"">
      <img src=""images/red_deck_2.png"" style=""width: 300px; height: 300px; margin-right: 10px;"" />
      <img src=""images/blue_deck_1.png"" style=""width: 300px; height: 300px;"" />
    </div>","1","1",""
"","","","","","html-keyboard-response","13","78633","0.0-11.0-0.0","BA228236C0AB473D9EE59D76B07DEA6A","BA228236C0AB473D9EE59D76B07DEA6A","3d1ff8f3-cac1-49a9-b833-3f8ab03054e6","bea99957-1862-4ad8-9558-57b91e42ce64","{""participantId"":""BA228236C0AB473D9EE59D76B07DEA6A"",""assignmentId"":""3d1ff8f3-cac1-49a9-b833-3f8ab03054e6"",""projectId"":""bea99957-1862-4ad8-9558-57b91e42ce64""}","https://test12345.live/?participantId=BA228236C0AB473D9EE59D76B07DEA6A&assignmentId=3d1ff8f3-cac1-49a9-b833-3f8ab03054e6&projectId=bea99957-1862-4ad8-9558-57b91e42ce64","","null","<div style=""display: flex; justify-content: center; align-items: center;"">
                    <img src=""images/causal/causal_series_8/causal_series_8_a.jpg"" style=""width: 300px; height: 300px;"" />
                  </div>","null","",""
"","","","","","html-keyboard-response","14","81644","0.0-11.0-1.0","BA228236C0AB473D9EE59D76B07DEA6A","BA228236C0AB473D9EE59D76B07DEA6A","3d1ff8f3-cac1-49a9-b833-3f8ab03054e6","bea99957-1862-4ad8-9558-57b91e42ce64","{""participantId"":""BA228236C0AB473D9EE59D76B07DEA6A"",""assignmentId"":""3d1ff8f3-cac1-49a9-b833-3f8ab03054e6"",""projectId"":""bea99957-1862-4ad8-9558-57b91e42ce64""}","https://test12345.live/?participantId=BA228236C0AB473D9EE59D76B07DEA6A&assignmentId=3d1ff8f3-cac1-49a9-b833-3f8ab03054e6&projectId=bea99957-1862-4ad8-9558-57b91e42ce64","","null","<div style=""display: flex; justify-content: center; align-items: center;"">
                    <img src=""images/causal/causal_series_8/causal_series_8_b.jpg"" style=""width: 300px; height: 300px;"" />
                  </div>","null","",""
"","","","","","html-keyboard-response","15","84651","0.0-11.0-2.0","BA228236C0AB473D9EE59D76B07DEA6A","BA228236C0AB473D9EE59D76B07DEA6A","3d1ff8f3-cac1-49a9-b833-3f8ab03054e6","bea99957-1862-4ad8-9558-57b91e42ce64","{""participantId"":""BA228236C0AB473D9EE59D76B07DEA6A"",""assignmentId"":""3d1ff8f3-cac1-49a9-b833-3f8ab03054e6"",""projectId"":""bea99957-1862-4ad8-9558-57b91e42ce64""}","https://test12345.live/?participantId=BA228236C0AB473D9EE59D76B07DEA6A&assignmentId=3d1ff8f3-cac1-49a9-b833-3f8ab03054e6&projectId=bea99957-1862-4ad8-9558-57b91e42ce64","","null","<div style=""display: flex; justify-content: center; align-items: center;"">
                    <img src=""images/causal/causal_series_8/causal_series_8_c.jpg"" style=""width: 300px; height: 300px;"" />
                  </div>","null","",""
"","","","","","html-keyboard-response","16","87663","0.0-11.0-3.0","BA228236C0AB473D9EE59D76B07DEA6A","BA228236C0AB473D9EE59D76B07DEA6A","3d1ff8f3-cac1-49a9-b833-3f8ab03054e6","bea99957-1862-4ad8-9558-57b91e42ce64","{""participantId"":""BA228236C0AB473D9EE59D76B07DEA6A"",""assignmentId"":""3d1ff8f3-cac1-49a9-b833-3f8ab03054e6"",""projectId"":""bea99957-1862-4ad8-9558-57b91e42ce64""}","https://test12345.live/?participantId=BA228236C0AB473D9EE59D76B07DEA6A&assignmentId=3d1ff8f3-cac1-49a9-b833-3f8ab03054e6&projectId=bea99957-1862-4ad8-9558-57b91e42ce64","","null","<div style=""display: flex; justify-content: center; align-items: center;"">
                    <img src=""images/causal/causal_series_8/causal_series_8_d.jpg"" style=""width: 300px; height: 300px;"" />
                  </div>","null","",""
"","","","","","html-button-response","17","89739","0.0-13.0","BA228236C0AB473D9EE59D76B07DEA6A","BA228236C0AB473D9EE59D76B07DEA6A","3d1ff8f3-cac1-49a9-b833-3f8ab03054e6","bea99957-1862-4ad8-9558-57b91e42ce64","{""participantId"":""BA228236C0AB473D9EE59D76B07DEA6A"",""assignmentId"":""3d1ff8f3-cac1-49a9-b833-3f8ab03054e6"",""projectId"":""bea99957-1862-4ad8-9558-57b91e42ce64""}","https://test12345.live/?participantId=BA228236C0AB473D9EE59D76B07DEA6A&assignmentId=3d1ff8f3-cac1-49a9-b833-3f8ab03054e6&projectId=bea99957-1862-4ad8-9558-57b91e42ce64","","2075","Was there a person in the picture?","0","",""
"","","","","","survey-likert","18","92511","0.0-14.0","BA228236C0AB473D9EE59D76B07DEA6A","BA228236C0AB473D9EE59D76B07DEA6A","3d1ff8f3-cac1-49a9-b833-3f8ab03054e6","bea99957-1862-4ad8-9558-57b91e42ce64","{""participantId"":""BA228236C0AB473D9EE59D76B07DEA6A"",""assignmentId"":""3d1ff8f3-cac1-49a9-b833-3f8ab03054e6"",""projectId"":""bea99957-1862-4ad8-9558-57b91e42ce64""}","https://test12345.live/?participantId=BA228236C0AB473D9EE59D76B07DEA6A&assignmentId=3d1ff8f3-cac1-49a9-b833-3f8ab03054e6&projectId=bea99957-1862-4ad8-9558-57b91e42ce64","","2767","","{""Q0"":3}","","[0]"
"","","","","","html-button-response","19","94364","0.0-15.0","BA228236C0AB473D9EE59D76B07DEA6A","BA228236C0AB473D9EE59D76B07DEA6A","3d1ff8f3-cac1-49a9-b833-3f8ab03054e6","bea99957-1862-4ad8-9558-57b91e42ce64","{""participantId"":""BA228236C0AB473D9EE59D76B07DEA6A"",""assignmentId"":""3d1ff8f3-cac1-49a9-b833-3f8ab03054e6"",""projectId"":""bea99957-1862-4ad8-9558-57b91e42ce64""}","https://test12345.live/?participantId=BA228236C0AB473D9EE59D76B07DEA6A&assignmentId=3d1ff8f3-cac1-49a9-b833-3f8ab03054e6&projectId=bea99957-1862-4ad8-9558-57b91e42ce64","","1851","
    <div style=""display: flex; justify-content: center; align-items: center;"">
      <img src=""images/red_deck_2.png"" style=""width: 300px; height: 300px; margin-right: 10px;"" />
      <img src=""images/blue_deck_1.png"" style=""width: 300px; height: 300px;"" />
    </div>","0","0",""
"","","","","","html-keyboard-response","20","97377","0.0-17.0-0.0","BA228236C0AB473D9EE59D76B07DEA6A","BA228236C0AB473D9EE59D76B07DEA6A","3d1ff8f3-cac1-49a9-b833-3f8ab03054e6","bea99957-1862-4ad8-9558-57b91e42ce64","{""participantId"":""BA228236C0AB473D9EE59D76B07DEA6A"",""assignmentId"":""3d1ff8f3-cac1-49a9-b833-3f8ab03054e6"",""projectId"":""bea99957-1862-4ad8-9558-57b91e42ce64""}","https://test12345.live/?participantId=BA228236C0AB473D9EE59D76B07DEA6A&assignmentId=3d1ff8f3-cac1-49a9-b833-3f8ab03054e6&projectId=bea99957-1862-4ad8-9558-57b91e42ce64","","null","<div style=""display: flex; justify-content: center; align-items: center;"">
                    <img src=""images/semantic/semantic_series_18/semantic_series_18_a.jpg"" style=""width: 300px; height: 300px;"" />
                  </div>","null","",""
"","","","","","html-keyboard-response","21","100379","0.0-17.0-1.0","BA228236C0AB473D9EE59D76B07DEA6A","BA228236C0AB473D9EE59D76B07DEA6A","3d1ff8f3-cac1-49a9-b833-3f8ab03054e6","bea99957-1862-4ad8-9558-57b91e42ce64","{""participantId"":""BA228236C0AB473D9EE59D76B07DEA6A"",""assignmentId"":""3d1ff8f3-cac1-49a9-b833-3f8ab03054e6"",""projectId"":""bea99957-1862-4ad8-9558-57b91e42ce64""}","https://test12345.live/?participantId=BA228236C0AB473D9EE59D76B07DEA6A&assignmentId=3d1ff8f3-cac1-49a9-b833-3f8ab03054e6&projectId=bea99957-1862-4ad8-9558-57b91e42ce64","","null","<div style=""display: flex; justify-content: center; align-items: center;"">
                    <img src=""images/semantic/semantic_series_18/semantic_series_18_b.jpg"" style=""width: 300px; height: 300px;"" />
                  </div>","null","",""
"","","","","","html-keyboard-response","22","103387","0.0-17.0-2.0","BA228236C0AB473D9EE59D76B07DEA6A","BA228236C0AB473D9EE59D76B07DEA6A","3d1ff8f3-cac1-49a9-b833-3f8ab03054e6","bea99957-1862-4ad8-9558-57b91e42ce64","{""participantId"":""BA228236C0AB473D9EE59D76B07DEA6A"",""assignmentId"":""3d1ff8f3-cac1-49a9-b833-3f8ab03054e6"",""projectId"":""bea99957-1862-4ad8-9558-57b91e42ce64""}","https://test12345.live/?participantId=BA228236C0AB473D9EE59D76B07DEA6A&assignmentId=3d1ff8f3-cac1-49a9-b833-3f8ab03054e6&projectId=bea99957-1862-4ad8-9558-57b91e42ce64","","null","<div style=""display: flex; justify-content: center; align-items: center;"">
                    <img src=""images/semantic/semantic_series_18/semantic_series_18_c.jpg"" style=""width: 300px; height: 300px;"" />
                  </div>","null","",""
"","","","","","html-keyboard-response","23","106398","0.0-17.0-3.0","BA228236C0AB473D9EE59D76B07DEA6A","BA228236C0AB473D9EE59D76B07DEA6A","3d1ff8f3-cac1-49a9-b833-3f8ab03054e6","bea99957-1862-4ad8-9558-57b91e42ce64","{""participantId"":""BA228236C0AB473D9EE59D76B07DEA6A"",""assignmentId"":""3d1ff8f3-cac1-49a9-b833-3f8ab03054e6"",""projectId"":""bea99957-1862-4ad8-9558-57b91e42ce64""}","https://test12345.live/?participantId=BA228236C0AB473D9EE59D76B07DEA6A&assignmentId=3d1ff8f3-cac1-49a9-b833-3f8ab03054e6&projectId=bea99957-1862-4ad8-9558-57b91e42ce64","","null","<div style=""display: flex; justify-content: center; align-items: center;"">
                    <img src=""images/semantic/semantic_series_18/semantic_series_18_d.jpg"" style=""width: 300px; height: 300px;"" />
                  </div>","null","",""
"","","","","","html-button-response","24","108351","0.0-18.0","BA228236C0AB473D9EE59D76B07DEA6A","BA228236C0AB473D9EE59D76B07DEA6A","3d1ff8f3-cac1-49a9-b833-3f8ab03054e6","bea99957-1862-4ad8-9558-57b91e42ce64","{""participantId"":""BA228236C0AB473D9EE59D76B07DEA6A"",""assignmentId"":""3d1ff8f3-cac1-49a9-b833-3f8ab03054e6"",""projectId"":""bea99957-1862-4ad8-9558-57b91e42ce64""}","https://test12345.live/?participantId=BA228236C0AB473D9EE59D76B07DEA6A&assignmentId=3d1ff8f3-cac1-49a9-b833-3f8ab03054e6&projectId=bea99957-1862-4ad8-9558-57b91e42ce64","","1952","Was there a person in the picture?","1","",""
"","","","","","survey-likert","25","112359","0.0-19.0","BA228236C0AB473D9EE59D76B07DEA6A","BA228236C0AB473D9EE59D76B07DEA6A","3d1ff8f3-cac1-49a9-b833-3f8ab03054e6","bea99957-1862-4ad8-9558-57b91e42ce64","{""participantId"":""BA228236C0AB473D9EE59D76B07DEA6A"",""assignmentId"":""3d1ff8f3-cac1-49a9-b833-3f8ab03054e6"",""projectId"":""bea99957-1862-4ad8-9558-57b91e42ce64""}","https://test12345.live/?participantId=BA228236C0AB473D9EE59D76B07DEA6A&assignmentId=3d1ff8f3-cac1-49a9-b833-3f8ab03054e6&projectId=bea99957-1862-4ad8-9558-57b91e42ce64","","4007","","{""Q0"":1}","","[0]"
"","","","","","html-button-response","26","115214","0.0-20.0","BA228236C0AB473D9EE59D76B07DEA6A","BA228236C0AB473D9EE59D76B07DEA6A","3d1ff8f3-cac1-49a9-b833-3f8ab03054e6","bea99957-1862-4ad8-9558-57b91e42ce64","{""participantId"":""BA228236C0AB473D9EE59D76B07DEA6A"",""assignmentId"":""3d1ff8f3-cac1-49a9-b833-3f8ab03054e6"",""projectId"":""bea99957-1862-4ad8-9558-57b91e42ce64""}","https://test12345.live/?participantId=BA228236C0AB473D9EE59D76B07DEA6A&assignmentId=3d1ff8f3-cac1-49a9-b833-3f8ab03054e6&projectId=bea99957-1862-4ad8-9558-57b91e42ce64","","2852","
    <div style=""display: flex; justify-content: center; align-items: center;"">
      <img src=""images/red_deck_2.png"" style=""width: 300px; height: 300px; margin-right: 10px;"" />
      <img src=""images/blue_deck_1.png"" style=""width: 300px; height: 300px;"" />
    </div>","1","1",""
"","","","","","html-keyboard-response","27","118226","0.0-21.0-0.0","BA228236C0AB473D9EE59D76B07DEA6A","BA228236C0AB473D9EE59D76B07DEA6A","3d1ff8f3-cac1-49a9-b833-3f8ab03054e6","bea99957-1862-4ad8-9558-57b91e42ce64","{""participantId"":""BA228236C0AB473D9EE59D76B07DEA6A"",""assignmentId"":""3d1ff8f3-cac1-49a9-b833-3f8ab03054e6"",""projectId"":""bea99957-1862-4ad8-9558-57b91e42ce64""}","https://test12345.live/?participantId=BA228236C0AB473D9EE59D76B07DEA6A&assignmentId=3d1ff8f3-cac1-49a9-b833-3f8ab03054e6&projectId=bea99957-1862-4ad8-9558-57b91e42ce64","","null","<div style=""display: flex; justify-content: center; align-items: center;"">
                    <img src=""images/causal/causal_series_1/causal_series_1_a.jpg"" style=""width: 300px; height: 300px;"" />
                  </div>","null","",""
"","","","","","html-keyboard-response","28","121234","0.0-21.0-1.0","BA228236C0AB473D9EE59D76B07DEA6A","BA228236C0AB473D9EE59D76B07DEA6A","3d1ff8f3-cac1-49a9-b833-3f8ab03054e6","bea99957-1862-4ad8-9558-57b91e42ce64","{""participantId"":""BA228236C0AB473D9EE59D76B07DEA6A"",""assignmentId"":""3d1ff8f3-cac1-49a9-b833-3f8ab03054e6"",""projectId"":""bea99957-1862-4ad8-9558-57b91e42ce64""}","https://test12345.live/?participantId=BA228236C0AB473D9EE59D76B07DEA6A&assignmentId=3d1ff8f3-cac1-49a9-b833-3f8ab03054e6&projectId=bea99957-1862-4ad8-9558-57b91e42ce64","","null","<div style=""display: flex; justify-content: center; align-items: center;"">
                    <img src=""images/causal/causal_series_1/causal_series_1_b.jpg"" style=""width: 300px; height: 300px;"" />
                  </div>","null","",""
"","","","","","html-keyboard-response","29","124239","0.0-21.0-2.0","BA228236C0AB473D9EE59D76B07DEA6A","BA228236C0AB473D9EE59D76B07DEA6A","3d1ff8f3-cac1-49a9-b833-3f8ab03054e6","bea99957-1862-4ad8-9558-57b91e42ce64","{""participantId"":""BA228236C0AB473D9EE59D76B07DEA6A"",""assignmentId"":""3d1ff8f3-cac1-49a9-b833-3f8ab03054e6"",""projectId"":""bea99957-1862-4ad8-9558-57b91e42ce64""}","https://test12345.live/?participantId=BA228236C0AB473D9EE59D76B07DEA6A&assignmentId=3d1ff8f3-cac1-49a9-b833-3f8ab03054e6&projectId=bea99957-1862-4ad8-9558-57b91e42ce64","","null","<div style=""display: flex; justify-content: center; align-items: center;"">
                    <img src=""images/causal/causal_series_1/causal_series_1_c.jpg"" style=""width: 300px; height: 300px;"" />
                  </div>","null","",""
"","","","","","html-keyboard-response","30","127250","0.0-21.0-3.0","BA228236C0AB473D9EE59D76B07DEA6A","BA228236C0AB473D9EE59D76B07DEA6A","3d1ff8f3-cac1-49a9-b833-3f8ab03054e6","bea99957-1862-4ad8-9558-57b91e42ce64","{""participantId"":""BA228236C0AB473D9EE59D76B07DEA6A"",""assignmentId"":""3d1ff8f3-cac1-49a9-b833-3f8ab03054e6"",""projectId"":""bea99957-1862-4ad8-9558-57b91e42ce64""}","https://test12345.live/?participantId=BA228236C0AB473D9EE59D76B07DEA6A&assignmentId=3d1ff8f3-cac1-49a9-b833-3f8ab03054e6&projectId=bea99957-1862-4ad8-9558-57b91e42ce64","","null","<div style=""display: flex; justify-content: center; align-items: center;"">
                    <img src=""images/causal/causal_series_1/causal_series_1_d.jpg"" style=""width: 300px; height: 300px;"" />
                  </div>","null","",""
"","","","","","html-button-response","31","129093","0.0-23.0","BA228236C0AB473D9EE59D76B07DEA6A","BA228236C0AB473D9EE59D76B07DEA6A","3d1ff8f3-cac1-49a9-b833-3f8ab03054e6","bea99957-1862-4ad8-9558-57b91e42ce64","{""participantId"":""BA228236C0AB473D9EE59D76B07DEA6A"",""assignmentId"":""3d1ff8f3-cac1-49a9-b833-3f8ab03054e6"",""projectId"":""bea99957-1862-4ad8-9558-57b91e42ce64""}","https://test12345.live/?participantId=BA228236C0AB473D9EE59D76B07DEA6A&assignmentId=3d1ff8f3-cac1-49a9-b833-3f8ab03054e6&projectId=bea99957-1862-4ad8-9558-57b91e42ce64","","1841","Was there a person in the picture?","1","",""
"","","","","","survey-likert","32","133610","0.0-24.0","BA228236C0AB473D9EE59D76B07DEA6A","BA228236C0AB473D9EE59D76B07DEA6A","3d1ff8f3-cac1-49a9-b833-3f8ab03054e6","bea99957-1862-4ad8-9558-57b91e42ce64","{""participantId"":""BA228236C0AB473D9EE59D76B07DEA6A"",""assignmentId"":""3d1ff8f3-cac1-49a9-b833-3f8ab03054e6"",""projectId"":""bea99957-1862-4ad8-9558-57b91e42ce64""}","https://test12345.live/?participantId=BA228236C0AB473D9EE59D76B07DEA6A&assignmentId=3d1ff8f3-cac1-49a9-b833-3f8ab03054e6&projectId=bea99957-1862-4ad8-9558-57b91e42ce64","","4515","","{""Q0"":1}","","[0]"
"","","","","","html-button-response","33","135113","0.0-25.0","BA228236C0AB473D9EE59D76B07DEA6A","BA228236C0AB473D9EE59D76B07DEA6A","3d1ff8f3-cac1-49a9-b833-3f8ab03054e6","bea99957-1862-4ad8-9558-57b91e42ce64","{""participantId"":""BA228236C0AB473D9EE59D76B07DEA6A"",""assignmentId"":""3d1ff8f3-cac1-49a9-b833-3f8ab03054e6"",""projectId"":""bea99957-1862-4ad8-9558-57b91e42ce64""}","https://test12345.live/?participantId=BA228236C0AB473D9EE59D76B07DEA6A&assignmentId=3d1ff8f3-cac1-49a9-b833-3f8ab03054e6&projectId=bea99957-1862-4ad8-9558-57b91e42ce64","","1501","
    <div style=""display: flex; justify-content: center; align-items: center;"">
      <img src=""images/red_deck_2.png"" style=""width: 300px; height: 300px; margin-right: 10px;"" />
      <img src=""images/blue_deck_1.png"" style=""width: 300px; height: 300px;"" />
    </div>","1","1",""
"","","","","","html-keyboard-response","34","138125","0.0-26.0-0.0","BA228236C0AB473D9EE59D76B07DEA6A","BA228236C0AB473D9EE59D76B07DEA6A","3d1ff8f3-cac1-49a9-b833-3f8ab03054e6","bea99957-1862-4ad8-9558-57b91e42ce64","{""participantId"":""BA228236C0AB473D9EE59D76B07DEA6A"",""assignmentId"":""3d1ff8f3-cac1-49a9-b833-3f8ab03054e6"",""projectId"":""bea99957-1862-4ad8-9558-57b91e42ce64""}","https://test12345.live/?participantId=BA228236C0AB473D9EE59D76B07DEA6A&assignmentId=3d1ff8f3-cac1-49a9-b833-3f8ab03054e6&projectId=bea99957-1862-4ad8-9558-57b91e42ce64","","null","<div style=""display: flex; justify-content: center; align-items: center;"">
                    <img src=""images/causal/causal_series_18/causal_series_18_a.jpg"" style=""width: 300px; height: 300px;"" />
                  </div>","null","",""
"","","","","","html-keyboard-response","35","141139","0.0-26.0-1.0","BA228236C0AB473D9EE59D76B07DEA6A","BA228236C0AB473D9EE59D76B07DEA6A","3d1ff8f3-cac1-49a9-b833-3f8ab03054e6","bea99957-1862-4ad8-9558-57b91e42ce64","{""participantId"":""BA228236C0AB473D9EE59D76B07DEA6A"",""assignmentId"":""3d1ff8f3-cac1-49a9-b833-3f8ab03054e6"",""projectId"":""bea99957-1862-4ad8-9558-57b91e42ce64""}","https://test12345.live/?participantId=BA228236C0AB473D9EE59D76B07DEA6A&assignmentId=3d1ff8f3-cac1-49a9-b833-3f8ab03054e6&projectId=bea99957-1862-4ad8-9558-57b91e42ce64","","null","<div style=""display: flex; justify-content: center; align-items: center;"">
                    <img src=""images/causal/causal_series_18/causal_series_18_b.jpg"" style=""width: 300px; height: 300px;"" />
                  </div>","null","",""
"","","","","","html-keyboard-response","36","144147","0.0-26.0-2.0","BA228236C0AB473D9EE59D76B07DEA6A","BA228236C0AB473D9EE59D76B07DEA6A","3d1ff8f3-cac1-49a9-b833-3f8ab03054e6","bea99957-1862-4ad8-9558-57b91e42ce64","{""participantId"":""BA228236C0AB473D9EE59D76B07DEA6A"",""assignmentId"":""3d1ff8f3-cac1-49a9-b833-3f8ab03054e6"",""projectId"":""bea99957-1862-4ad8-9558-57b91e42ce64""}","https://test12345.live/?participantId=BA228236C0AB473D9EE59D76B07DEA6A&assignmentId=3d1ff8f3-cac1-49a9-b833-3f8ab03054e6&projectId=bea99957-1862-4ad8-9558-57b91e42ce64","","null","<div style=""display: flex; justify-content: center; align-items: center;"">
                    <img src=""images/causal/causal_series_18/causal_series_18_c.jpg"" style=""width: 300px; height: 300px;"" />
                  </div>","null","",""
"","","","","","html-keyboard-response","37","147149","0.0-26.0-3.0","BA228236C0AB473D9EE59D76B07DEA6A","BA228236C0AB473D9EE59D76B07DEA6A","3d1ff8f3-cac1-49a9-b833-3f8ab03054e6","bea99957-1862-4ad8-9558-57b91e42ce64","{""participantId"":""BA228236C0AB473D9EE59D76B07DEA6A"",""assignmentId"":""3d1ff8f3-cac1-49a9-b833-3f8ab03054e6"",""projectId"":""bea99957-1862-4ad8-9558-57b91e42ce64""}","https://test12345.live/?participantId=BA228236C0AB473D9EE59D76B07DEA6A&assignmentId=3d1ff8f3-cac1-49a9-b833-3f8ab03054e6&projectId=bea99957-1862-4ad8-9558-57b91e42ce64","","null","<div style=""display: flex; justify-content: center; align-items: center;"">
                    <img src=""images/causal/causal_series_18/causal_series_18_d.jpg"" style=""width: 300px; height: 300px;"" />
                  </div>","null","",""
"","","","","","html-button-response","38","148905","0.0-28.0","BA228236C0AB473D9EE59D76B07DEA6A","BA228236C0AB473D9EE59D76B07DEA6A","3d1ff8f3-cac1-49a9-b833-3f8ab03054e6","bea99957-1862-4ad8-9558-57b91e42ce64","{""participantId"":""BA228236C0AB473D9EE59D76B07DEA6A"",""assignmentId"":""3d1ff8f3-cac1-49a9-b833-3f8ab03054e6"",""projectId"":""bea99957-1862-4ad8-9558-57b91e42ce64""}","https://test12345.live/?participantId=BA228236C0AB473D9EE59D76B07DEA6A&assignmentId=3d1ff8f3-cac1-49a9-b833-3f8ab03054e6&projectId=bea99957-1862-4ad8-9558-57b91e42ce64","","1754","Was there a person in the picture?","1","",""
"","","","","","survey-likert","39","151972","0.0-29.0","BA228236C0AB473D9EE59D76B07DEA6A","BA228236C0AB473D9EE59D76B07DEA6A","3d1ff8f3-cac1-49a9-b833-3f8ab03054e6","bea99957-1862-4ad8-9558-57b91e42ce64","{""participantId"":""BA228236C0AB473D9EE59D76B07DEA6A"",""assignmentId"":""3d1ff8f3-cac1-49a9-b833-3f8ab03054e6"",""projectId"":""bea99957-1862-4ad8-9558-57b91e42ce64""}","https://test12345.live/?participantId=BA228236C0AB473D9EE59D76B07DEA6A&assignmentId=3d1ff8f3-cac1-49a9-b833-3f8ab03054e6&projectId=bea99957-1862-4ad8-9558-57b91e42ce64","","3065","","{""Q0"":3}","","[0]"
"","","","","","html-button-response","40","153412","0.0-30.0","BA228236C0AB473D9EE59D76B07DEA6A","BA228236C0AB473D9EE59D76B07DEA6A","3d1ff8f3-cac1-49a9-b833-3f8ab03054e6","bea99957-1862-4ad8-9558-57b91e42ce64","{""participantId"":""BA228236C0AB473D9EE59D76B07DEA6A"",""assignmentId"":""3d1ff8f3-cac1-49a9-b833-3f8ab03054e6"",""projectId"":""bea99957-1862-4ad8-9558-57b91e42ce64""}","https://test12345.live/?participantId=BA228236C0AB473D9EE59D76B07DEA6A&assignmentId=3d1ff8f3-cac1-49a9-b833-3f8ab03054e6&projectId=bea99957-1862-4ad8-9558-57b91e42ce64","","1438","
    <div style=""display: flex; justify-content: center; align-items: center;"">
      <img src=""images/red_deck_2.png"" style=""width: 300px; height: 300px; margin-right: 10px;"" />
      <img src=""images/blue_deck_1.png"" style=""width: 300px; height: 300px;"" />
    </div>","1","1",""
"","","","","","html-keyboard-response","41","156426","0.0-31.0-0.0","BA228236C0AB473D9EE59D76B07DEA6A","BA228236C0AB473D9EE59D76B07DEA6A","3d1ff8f3-cac1-49a9-b833-3f8ab03054e6","bea99957-1862-4ad8-9558-57b91e42ce64","{""participantId"":""BA228236C0AB473D9EE59D76B07DEA6A"",""assignmentId"":""3d1ff8f3-cac1-49a9-b833-3f8ab03054e6"",""projectId"":""bea99957-1862-4ad8-9558-57b91e42ce64""}","https://test12345.live/?participantId=BA228236C0AB473D9EE59D76B07DEA6A&assignmentId=3d1ff8f3-cac1-49a9-b833-3f8ab03054e6&projectId=bea99957-1862-4ad8-9558-57b91e42ce64","","null","<div style=""display: flex; justify-content: center; align-items: center;"">
                    <img src=""images/causal/causal_series_11/causal_series_11_a.jpg"" style=""width: 300px; height: 300px;"" />
                  </div>","null","",""
"","","","","","html-keyboard-response","42","159438","0.0-31.0-1.0","BA228236C0AB473D9EE59D76B07DEA6A","BA228236C0AB473D9EE59D76B07DEA6A","3d1ff8f3-cac1-49a9-b833-3f8ab03054e6","bea99957-1862-4ad8-9558-57b91e42ce64","{""participantId"":""BA228236C0AB473D9EE59D76B07DEA6A"",""assignmentId"":""3d1ff8f3-cac1-49a9-b833-3f8ab03054e6"",""projectId"":""bea99957-1862-4ad8-9558-57b91e42ce64""}","https://test12345.live/?participantId=BA228236C0AB473D9EE59D76B07DEA6A&assignmentId=3d1ff8f3-cac1-49a9-b833-3f8ab03054e6&projectId=bea99957-1862-4ad8-9558-57b91e42ce64","","null","<div style=""display: flex; justify-content: center; align-items: center;"">
                    <img src=""images/causal/causal_series_11/causal_series_11_b.jpg"" style=""width: 300px; height: 300px;"" />
                  </div>","null","",""
"","","","","","html-keyboard-response","43","162441","0.0-31.0-2.0","BA228236C0AB473D9EE59D76B07DEA6A","BA228236C0AB473D9EE59D76B07DEA6A","3d1ff8f3-cac1-49a9-b833-3f8ab03054e6","bea99957-1862-4ad8-9558-57b91e42ce64","{""participantId"":""BA228236C0AB473D9EE59D76B07DEA6A"",""assignmentId"":""3d1ff8f3-cac1-49a9-b833-3f8ab03054e6"",""projectId"":""bea99957-1862-4ad8-9558-57b91e42ce64""}","https://test12345.live/?participantId=BA228236C0AB473D9EE59D76B07DEA6A&assignmentId=3d1ff8f3-cac1-49a9-b833-3f8ab03054e6&projectId=bea99957-1862-4ad8-9558-57b91e42ce64","","null","<div style=""display: flex; justify-content: center; align-items: center;"">
                    <img src=""images/causal/causal_series_11/causal_series_11_c.jpg"" style=""width: 300px; height: 300px;"" />
                  </div>","null","",""
"","","","","","html-keyboard-response","44","165449","0.0-31.0-3.0","BA228236C0AB473D9EE59D76B07DEA6A","BA228236C0AB473D9EE59D76B07DEA6A","3d1ff8f3-cac1-49a9-b833-3f8ab03054e6","bea99957-1862-4ad8-9558-57b91e42ce64","{""participantId"":""BA228236C0AB473D9EE59D76B07DEA6A"",""assignmentId"":""3d1ff8f3-cac1-49a9-b833-3f8ab03054e6"",""projectId"":""bea99957-1862-4ad8-9558-57b91e42ce64""}","https://test12345.live/?participantId=BA228236C0AB473D9EE59D76B07DEA6A&assignmentId=3d1ff8f3-cac1-49a9-b833-3f8ab03054e6&projectId=bea99957-1862-4ad8-9558-57b91e42ce64","","null","<div style=""display: flex; justify-content: center; align-items: center;"">
                    <img src=""images/causal/causal_series_11/causal_series_11_d.jpg"" style=""width: 300px; height: 300px;"" />
                  </div>","null","",""
"","","","","","html-button-response","45","167259","0.0-33.0","BA228236C0AB473D9EE59D76B07DEA6A","BA228236C0AB473D9EE59D76B07DEA6A","3d1ff8f3-cac1-49a9-b833-3f8ab03054e6","bea99957-1862-4ad8-9558-57b91e42ce64","{""participantId"":""BA228236C0AB473D9EE59D76B07DEA6A"",""assignmentId"":""3d1ff8f3-cac1-49a9-b833-3f8ab03054e6"",""projectId"":""bea99957-1862-4ad8-9558-57b91e42ce64""}","https://test12345.live/?participantId=BA228236C0AB473D9EE59D76B07DEA6A&assignmentId=3d1ff8f3-cac1-49a9-b833-3f8ab03054e6&projectId=bea99957-1862-4ad8-9558-57b91e42ce64","","1809","Was there a person in the picture?","0","",""
"","","","","","survey-likert","46","169737","0.0-34.0","BA228236C0AB473D9EE59D76B07DEA6A","BA228236C0AB473D9EE59D76B07DEA6A","3d1ff8f3-cac1-49a9-b833-3f8ab03054e6","bea99957-1862-4ad8-9558-57b91e42ce64","{""participantId"":""BA228236C0AB473D9EE59D76B07DEA6A"",""assignmentId"":""3d1ff8f3-cac1-49a9-b833-3f8ab03054e6"",""projectId"":""bea99957-1862-4ad8-9558-57b91e42ce64""}","https://test12345.live/?participantId=BA228236C0AB473D9EE59D76B07DEA6A&assignmentId=3d1ff8f3-cac1-49a9-b833-3f8ab03054e6&projectId=bea99957-1862-4ad8-9558-57b91e42ce64","","2477","","{""Q0"":2}","","[0]"
"","","","","","html-button-response","47","170977","0.0-35.0","BA228236C0AB473D9EE59D76B07DEA6A","BA228236C0AB473D9EE59D76B07DEA6A","3d1ff8f3-cac1-49a9-b833-3f8ab03054e6","bea99957-1862-4ad8-9558-57b91e42ce64","{""participantId"":""BA228236C0AB473D9EE59D76B07DEA6A"",""assignmentId"":""3d1ff8f3-cac1-49a9-b833-3f8ab03054e6"",""projectId"":""bea99957-1862-4ad8-9558-57b91e42ce64""}","https://test12345.live/?participantId=BA228236C0AB473D9EE59D76B07DEA6A&assignmentId=3d1ff8f3-cac1-49a9-b833-3f8ab03054e6&projectId=bea99957-1862-4ad8-9558-57b91e42ce64","","1235","
    <div style=""display: flex; justify-content: center; align-items: center;"">
      <img src=""images/red_deck_2.png"" style=""width: 300px; height: 300px; margin-right: 10px;"" />
      <img src=""images/blue_deck_1.png"" style=""width: 300px; height: 300px;"" />
    </div>","0","0",""
"","","","","","html-keyboard-response","48","173982","0.0-37.0-0.0","BA228236C0AB473D9EE59D76B07DEA6A","BA228236C0AB473D9EE59D76B07DEA6A","3d1ff8f3-cac1-49a9-b833-3f8ab03054e6","bea99957-1862-4ad8-9558-57b91e42ce64","{""participantId"":""BA228236C0AB473D9EE59D76B07DEA6A"",""assignmentId"":""3d1ff8f3-cac1-49a9-b833-3f8ab03054e6"",""projectId"":""bea99957-1862-4ad8-9558-57b91e42ce64""}","https://test12345.live/?participantId=BA228236C0AB473D9EE59D76B07DEA6A&assignmentId=3d1ff8f3-cac1-49a9-b833-3f8ab03054e6&projectId=bea99957-1862-4ad8-9558-57b91e42ce64","","null","<div style=""display: flex; justify-content: center; align-items: center;"">
                    <img src=""images/semantic/semantic_series_8/semantic_series_8_a.jpg"" style=""width: 300px; height: 300px;"" />
                  </div>","null","",""
"","","","","","html-keyboard-response","49","176984","0.0-37.0-1.0","BA228236C0AB473D9EE59D76B07DEA6A","BA228236C0AB473D9EE59D76B07DEA6A","3d1ff8f3-cac1-49a9-b833-3f8ab03054e6","bea99957-1862-4ad8-9558-57b91e42ce64","{""participantId"":""BA228236C0AB473D9EE59D76B07DEA6A"",""assignmentId"":""3d1ff8f3-cac1-49a9-b833-3f8ab03054e6"",""projectId"":""bea99957-1862-4ad8-9558-57b91e42ce64""}","https://test12345.live/?participantId=BA228236C0AB473D9EE59D76B07DEA6A&assignmentId=3d1ff8f3-cac1-49a9-b833-3f8ab03054e6&projectId=bea99957-1862-4ad8-9558-57b91e42ce64","","null","<div style=""display: flex; justify-content: center; align-items: center;"">
                    <img src=""images/semantic/semantic_series_8/semantic_series_8_b.jpg"" style=""width: 300px; height: 300px;"" />
                  </div>","null","",""
"","","","","","html-keyboard-response","50","179988","0.0-37.0-2.0","BA228236C0AB473D9EE59D76B07DEA6A","BA228236C0AB473D9EE59D76B07DEA6A","3d1ff8f3-cac1-49a9-b833-3f8ab03054e6","bea99957-1862-4ad8-9558-57b91e42ce64","{""participantId"":""BA228236C0AB473D9EE59D76B07DEA6A"",""assignmentId"":""3d1ff8f3-cac1-49a9-b833-3f8ab03054e6"",""projectId"":""bea99957-1862-4ad8-9558-57b91e42ce64""}","https://test12345.live/?participantId=BA228236C0AB473D9EE59D76B07DEA6A&assignmentId=3d1ff8f3-cac1-49a9-b833-3f8ab03054e6&projectId=bea99957-1862-4ad8-9558-57b91e42ce64","","null","<div style=""display: flex; justify-content: center; align-items: center;"">
                    <img src=""images/semantic/semantic_series_8/semantic_series_8_c.jpg"" style=""width: 300px; height: 300px;"" />
                  </div>","null","",""
"","","","","","html-keyboard-response","51","182996","0.0-37.0-3.0","BA228236C0AB473D9EE59D76B07DEA6A","BA228236C0AB473D9EE59D76B07DEA6A","3d1ff8f3-cac1-49a9-b833-3f8ab03054e6","bea99957-1862-4ad8-9558-57b91e42ce64","{""participantId"":""BA228236C0AB473D9EE59D76B07DEA6A"",""assignmentId"":""3d1ff8f3-cac1-49a9-b833-3f8ab03054e6"",""projectId"":""bea99957-1862-4ad8-9558-57b91e42ce64""}","https://test12345.live/?participantId=BA228236C0AB473D9EE59D76B07DEA6A&assignmentId=3d1ff8f3-cac1-49a9-b833-3f8ab03054e6&projectId=bea99957-1862-4ad8-9558-57b91e42ce64","","null","<div style=""display: flex; justify-content: center; align-items: center;"">
                    <img src=""images/semantic/semantic_series_8/semantic_series_8_d.jpg"" style=""width: 300px; height: 300px;"" />
                  </div>","null","",""
"","","","","","html-button-response","52","185074","0.0-38.0","BA228236C0AB473D9EE59D76B07DEA6A","BA228236C0AB473D9EE59D76B07DEA6A","3d1ff8f3-cac1-49a9-b833-3f8ab03054e6","bea99957-1862-4ad8-9558-57b91e42ce64","{""participantId"":""BA228236C0AB473D9EE59D76B07DEA6A"",""assignmentId"":""3d1ff8f3-cac1-49a9-b833-3f8ab03054e6"",""projectId"":""bea99957-1862-4ad8-9558-57b91e42ce64""}","https://test12345.live/?participantId=BA228236C0AB473D9EE59D76B07DEA6A&assignmentId=3d1ff8f3-cac1-49a9-b833-3f8ab03054e6&projectId=bea99957-1862-4ad8-9558-57b91e42ce64","","2081","Was there a person in the picture?","1","",""
"","","","","","survey-likert","53","187926","0.0-39.0","BA228236C0AB473D9EE59D76B07DEA6A","BA228236C0AB473D9EE59D76B07DEA6A","3d1ff8f3-cac1-49a9-b833-3f8ab03054e6","bea99957-1862-4ad8-9558-57b91e42ce64","{""participantId"":""BA228236C0AB473D9EE59D76B07DEA6A"",""assignmentId"":""3d1ff8f3-cac1-49a9-b833-3f8ab03054e6"",""projectId"":""bea99957-1862-4ad8-9558-57b91e42ce64""}","https://test12345.live/?participantId=BA228236C0AB473D9EE59D76B07DEA6A&assignmentId=3d1ff8f3-cac1-49a9-b833-3f8ab03054e6&projectId=bea99957-1862-4ad8-9558-57b91e42ce64","","2848","","{""Q0"":3}","","[0]"
"","","","","","html-button-response","54","189524","0.0-40.0","BA228236C0AB473D9EE59D76B07DEA6A","BA228236C0AB473D9EE59D76B07DEA6A","3d1ff8f3-cac1-49a9-b833-3f8ab03054e6","bea99957-1862-4ad8-9558-57b91e42ce64","{""participantId"":""BA228236C0AB473D9EE59D76B07DEA6A"",""assignmentId"":""3d1ff8f3-cac1-49a9-b833-3f8ab03054e6"",""projectId"":""bea99957-1862-4ad8-9558-57b91e42ce64""}","https://test12345.live/?participantId=BA228236C0AB473D9EE59D76B07DEA6A&assignmentId=3d1ff8f3-cac1-49a9-b833-3f8ab03054e6&projectId=bea99957-1862-4ad8-9558-57b91e42ce64","","1595","
    <div style=""display: flex; justify-content: center; align-items: center;"">
      <img src=""images/red_deck_2.png"" style=""width: 300px; height: 300px; margin-right: 10px;"" />
      <img src=""images/blue_deck_1.png"" style=""width: 300px; height: 300px;"" />
    </div>","0","0",""
"","","","","","html-keyboard-response","55","192535","0.0-42.0-0.0","BA228236C0AB473D9EE59D76B07DEA6A","BA228236C0AB473D9EE59D76B07DEA6A","3d1ff8f3-cac1-49a9-b833-3f8ab03054e6","bea99957-1862-4ad8-9558-57b91e42ce64","{""participantId"":""BA228236C0AB473D9EE59D76B07DEA6A"",""assignmentId"":""3d1ff8f3-cac1-49a9-b833-3f8ab03054e6"",""projectId"":""bea99957-1862-4ad8-9558-57b91e42ce64""}","https://test12345.live/?participantId=BA228236C0AB473D9EE59D76B07DEA6A&assignmentId=3d1ff8f3-cac1-49a9-b833-3f8ab03054e6&projectId=bea99957-1862-4ad8-9558-57b91e42ce64","","null","<div style=""display: flex; justify-content: center; align-items: center;"">
                    <img src=""images/semantic/semantic_series_3/semantic_series_3_a.jpg"" style=""width: 300px; height: 300px;"" />
                  </div>","null","",""
"","","","","","html-keyboard-response","56","195550","0.0-42.0-1.0","BA228236C0AB473D9EE59D76B07DEA6A","BA228236C0AB473D9EE59D76B07DEA6A","3d1ff8f3-cac1-49a9-b833-3f8ab03054e6","bea99957-1862-4ad8-9558-57b91e42ce64","{""participantId"":""BA228236C0AB473D9EE59D76B07DEA6A"",""assignmentId"":""3d1ff8f3-cac1-49a9-b833-3f8ab03054e6"",""projectId"":""bea99957-1862-4ad8-9558-57b91e42ce64""}","https://test12345.live/?participantId=BA228236C0AB473D9EE59D76B07DEA6A&assignmentId=3d1ff8f3-cac1-49a9-b833-3f8ab03054e6&projectId=bea99957-1862-4ad8-9558-57b91e42ce64","","null","<div style=""display: flex; justify-content: center; align-items: center;"">
                    <img src=""images/semantic/semantic_series_3/semantic_series_3_b.jpg"" style=""width: 300px; height: 300px;"" />
                  </div>","null","",""
"","","","","","html-keyboard-response","57","198564","0.0-42.0-2.0","BA228236C0AB473D9EE59D76B07DEA6A","BA228236C0AB473D9EE59D76B07DEA6A","3d1ff8f3-cac1-49a9-b833-3f8ab03054e6","bea99957-1862-4ad8-9558-57b91e42ce64","{""participantId"":""BA228236C0AB473D9EE59D76B07DEA6A"",""assignmentId"":""3d1ff8f3-cac1-49a9-b833-3f8ab03054e6"",""projectId"":""bea99957-1862-4ad8-9558-57b91e42ce64""}","https://test12345.live/?participantId=BA228236C0AB473D9EE59D76B07DEA6A&assignmentId=3d1ff8f3-cac1-49a9-b833-3f8ab03054e6&projectId=bea99957-1862-4ad8-9558-57b91e42ce64","","null","<div style=""display: flex; justify-content: center; align-items: center;"">
                    <img src=""images/semantic/semantic_series_3/semantic_series_3_c.jpg"" style=""width: 300px; height: 300px;"" />
                  </div>","null","",""
"","","","","","html-keyboard-response","58","201572","0.0-42.0-3.0","BA228236C0AB473D9EE59D76B07DEA6A","BA228236C0AB473D9EE59D76B07DEA6A","3d1ff8f3-cac1-49a9-b833-3f8ab03054e6","bea99957-1862-4ad8-9558-57b91e42ce64","{""participantId"":""BA228236C0AB473D9EE59D76B07DEA6A"",""assignmentId"":""3d1ff8f3-cac1-49a9-b833-3f8ab03054e6"",""projectId"":""bea99957-1862-4ad8-9558-57b91e42ce64""}","https://test12345.live/?participantId=BA228236C0AB473D9EE59D76B07DEA6A&assignmentId=3d1ff8f3-cac1-49a9-b833-3f8ab03054e6&projectId=bea99957-1862-4ad8-9558-57b91e42ce64","","null","<div style=""display: flex; justify-content: center; align-items: center;"">
                    <img src=""images/semantic/semantic_series_3/semantic_series_3_d.jpg"" style=""width: 300px; height: 300px;"" />
                  </div>","null","",""
"","","","","","html-button-response","59","203164","0.0-43.0","BA228236C0AB473D9EE59D76B07DEA6A","BA228236C0AB473D9EE59D76B07DEA6A","3d1ff8f3-cac1-49a9-b833-3f8ab03054e6","bea99957-1862-4ad8-9558-57b91e42ce64","{""participantId"":""BA228236C0AB473D9EE59D76B07DEA6A"",""assignmentId"":""3d1ff8f3-cac1-49a9-b833-3f8ab03054e6"",""projectId"":""bea99957-1862-4ad8-9558-57b91e42ce64""}","https://test12345.live/?participantId=BA228236C0AB473D9EE59D76B07DEA6A&assignmentId=3d1ff8f3-cac1-49a9-b833-3f8ab03054e6&projectId=bea99957-1862-4ad8-9558-57b91e42ce64","","1591","Was there a person in the picture?","0","",""
"","","","","","survey-likert","60","206941","0.0-44.0","BA228236C0AB473D9EE59D76B07DEA6A","BA228236C0AB473D9EE59D76B07DEA6A","3d1ff8f3-cac1-49a9-b833-3f8ab03054e6","bea99957-1862-4ad8-9558-57b91e42ce64","{""participantId"":""BA228236C0AB473D9EE59D76B07DEA6A"",""assignmentId"":""3d1ff8f3-cac1-49a9-b833-3f8ab03054e6"",""projectId"":""bea99957-1862-4ad8-9558-57b91e42ce64""}","https://test12345.live/?participantId=BA228236C0AB473D9EE59D76B07DEA6A&assignmentId=3d1ff8f3-cac1-49a9-b833-3f8ab03054e6&projectId=bea99957-1862-4ad8-9558-57b91e42ce64","","3773","","{""Q0"":1}","","[0]"
"","","","","","html-button-response","61","208272","0.0-45.0","BA228236C0AB473D9EE59D76B07DEA6A","BA228236C0AB473D9EE59D76B07DEA6A","3d1ff8f3-cac1-49a9-b833-3f8ab03054e6","bea99957-1862-4ad8-9558-57b91e42ce64","{""participantId"":""BA228236C0AB473D9EE59D76B07DEA6A"",""assignmentId"":""3d1ff8f3-cac1-49a9-b833-3f8ab03054e6"",""projectId"":""bea99957-1862-4ad8-9558-57b91e42ce64""}","https://test12345.live/?participantId=BA228236C0AB473D9EE59D76B07DEA6A&assignmentId=3d1ff8f3-cac1-49a9-b833-3f8ab03054e6&projectId=bea99957-1862-4ad8-9558-57b91e42ce64","","1330","
    <div style=""display: flex; justify-content: center; align-items: center;"">
      <img src=""images/red_deck_2.png"" style=""width: 300px; height: 300px; margin-right: 10px;"" />
      <img src=""images/blue_deck_1.png"" style=""width: 300px; height: 300px;"" />
    </div>","1","1",""
"","","","","","html-keyboard-response","62","211283","0.0-46.0-0.0","BA228236C0AB473D9EE59D76B07DEA6A","BA228236C0AB473D9EE59D76B07DEA6A","3d1ff8f3-cac1-49a9-b833-3f8ab03054e6","bea99957-1862-4ad8-9558-57b91e42ce64","{""participantId"":""BA228236C0AB473D9EE59D76B07DEA6A"",""assignmentId"":""3d1ff8f3-cac1-49a9-b833-3f8ab03054e6"",""projectId"":""bea99957-1862-4ad8-9558-57b91e42ce64""}","https://test12345.live/?participantId=BA228236C0AB473D9EE59D76B07DEA6A&assignmentId=3d1ff8f3-cac1-49a9-b833-3f8ab03054e6&projectId=bea99957-1862-4ad8-9558-57b91e42ce64","","null","<div style=""display: flex; justify-content: center; align-items: center;"">
                    <img src=""images/causal/causal_series_2/causal_series_2_a.jpg"" style=""width: 300px; height: 300px;"" />
                  </div>","null","",""
"","","","","","html-keyboard-response","63","214292","0.0-46.0-1.0","BA228236C0AB473D9EE59D76B07DEA6A","BA228236C0AB473D9EE59D76B07DEA6A","3d1ff8f3-cac1-49a9-b833-3f8ab03054e6","bea99957-1862-4ad8-9558-57b91e42ce64","{""participantId"":""BA228236C0AB473D9EE59D76B07DEA6A"",""assignmentId"":""3d1ff8f3-cac1-49a9-b833-3f8ab03054e6"",""projectId"":""bea99957-1862-4ad8-9558-57b91e42ce64""}","https://test12345.live/?participantId=BA228236C0AB473D9EE59D76B07DEA6A&assignmentId=3d1ff8f3-cac1-49a9-b833-3f8ab03054e6&projectId=bea99957-1862-4ad8-9558-57b91e42ce64","","null","<div style=""display: flex; justify-content: center; align-items: center;"">
                    <img src=""images/causal/causal_series_2/causal_series_2_b.jpg"" style=""width: 300px; height: 300px;"" />
                  </div>","null","",""
"","","","","","html-keyboard-response","64","217296","0.0-46.0-2.0","BA228236C0AB473D9EE59D76B07DEA6A","BA228236C0AB473D9EE59D76B07DEA6A","3d1ff8f3-cac1-49a9-b833-3f8ab03054e6","bea99957-1862-4ad8-9558-57b91e42ce64","{""participantId"":""BA228236C0AB473D9EE59D76B07DEA6A"",""assignmentId"":""3d1ff8f3-cac1-49a9-b833-3f8ab03054e6"",""projectId"":""bea99957-1862-4ad8-9558-57b91e42ce64""}","https://test12345.live/?participantId=BA228236C0AB473D9EE59D76B07DEA6A&assignmentId=3d1ff8f3-cac1-49a9-b833-3f8ab03054e6&projectId=bea99957-1862-4ad8-9558-57b91e42ce64","","null","<div style=""display: flex; justify-content: center; align-items: center;"">
                    <img src=""images/causal/causal_series_2/causal_series_2_c.jpg"" style=""width: 300px; height: 300px;"" />
                  </div>","null","",""
"","","","","","html-keyboard-response","65","220301","0.0-46.0-3.0","BA228236C0AB473D9EE59D76B07DEA6A","BA228236C0AB473D9EE59D76B07DEA6A","3d1ff8f3-cac1-49a9-b833-3f8ab03054e6","bea99957-1862-4ad8-9558-57b91e42ce64","{""participantId"":""BA228236C0AB473D9EE59D76B07DEA6A"",""assignmentId"":""3d1ff8f3-cac1-49a9-b833-3f8ab03054e6"",""projectId"":""bea99957-1862-4ad8-9558-57b91e42ce64""}","https://test12345.live/?participantId=BA228236C0AB473D9EE59D76B07DEA6A&assignmentId=3d1ff8f3-cac1-49a9-b833-3f8ab03054e6&projectId=bea99957-1862-4ad8-9558-57b91e42ce64","","null","<div style=""display: flex; justify-content: center; align-items: center;"">
                    <img src=""images/causal/causal_series_2/causal_series_2_d.jpg"" style=""width: 300px; height: 300px;"" />
                  </div>","null","",""
"","","","","","html-button-response","66","222006","0.0-48.0","BA228236C0AB473D9EE59D76B07DEA6A","BA228236C0AB473D9EE59D76B07DEA6A","3d1ff8f3-cac1-49a9-b833-3f8ab03054e6","bea99957-1862-4ad8-9558-57b91e42ce64","{""participantId"":""BA228236C0AB473D9EE59D76B07DEA6A"",""assignmentId"":""3d1ff8f3-cac1-49a9-b833-3f8ab03054e6"",""projectId"":""bea99957-1862-4ad8-9558-57b91e42ce64""}","https://test12345.live/?participantId=BA228236C0AB473D9EE59D76B07DEA6A&assignmentId=3d1ff8f3-cac1-49a9-b833-3f8ab03054e6&projectId=bea99957-1862-4ad8-9558-57b91e42ce64","","1704","Was there a person in the picture?","0","",""
"","","","","","survey-likert","67","224191","0.0-49.0","BA228236C0AB473D9EE59D76B07DEA6A","BA228236C0AB473D9EE59D76B07DEA6A","3d1ff8f3-cac1-49a9-b833-3f8ab03054e6","bea99957-1862-4ad8-9558-57b91e42ce64","{""participantId"":""BA228236C0AB473D9EE59D76B07DEA6A"",""assignmentId"":""3d1ff8f3-cac1-49a9-b833-3f8ab03054e6"",""projectId"":""bea99957-1862-4ad8-9558-57b91e42ce64""}","https://test12345.live/?participantId=BA228236C0AB473D9EE59D76B07DEA6A&assignmentId=3d1ff8f3-cac1-49a9-b833-3f8ab03054e6&projectId=bea99957-1862-4ad8-9558-57b91e42ce64","","2182","","{""Q0"":2}","","[0]"
"","","","","","html-button-response","68","225952","0.0-50.0","BA228236C0AB473D9EE59D76B07DEA6A","BA228236C0AB473D9EE59D76B07DEA6A","3d1ff8f3-cac1-49a9-b833-3f8ab03054e6","bea99957-1862-4ad8-9558-57b91e42ce64","{""participantId"":""BA228236C0AB473D9EE59D76B07DEA6A"",""assignmentId"":""3d1ff8f3-cac1-49a9-b833-3f8ab03054e6"",""projectId"":""bea99957-1862-4ad8-9558-57b91e42ce64""}","https://test12345.live/?participantId=BA228236C0AB473D9EE59D76B07DEA6A&assignmentId=3d1ff8f3-cac1-49a9-b833-3f8ab03054e6&projectId=bea99957-1862-4ad8-9558-57b91e42ce64","","1758","
    <div style=""display: flex; justify-content: center; align-items: center;"">
      <img src=""images/red_deck_2.png"" style=""width: 300px; height: 300px; margin-right: 10px;"" />
      <img src=""images/blue_deck_1.png"" style=""width: 300px; height: 300px;"" />
    </div>","0","0",""
"","","","","","html-keyboard-response","69","228961","0.0-52.0-0.0","BA228236C0AB473D9EE59D76B07DEA6A","BA228236C0AB473D9EE59D76B07DEA6A","3d1ff8f3-cac1-49a9-b833-3f8ab03054e6","bea99957-1862-4ad8-9558-57b91e42ce64","{""participantId"":""BA228236C0AB473D9EE59D76B07DEA6A"",""assignmentId"":""3d1ff8f3-cac1-49a9-b833-3f8ab03054e6"",""projectId"":""bea99957-1862-4ad8-9558-57b91e42ce64""}","https://test12345.live/?participantId=BA228236C0AB473D9EE59D76B07DEA6A&assignmentId=3d1ff8f3-cac1-49a9-b833-3f8ab03054e6&projectId=bea99957-1862-4ad8-9558-57b91e42ce64","","null","<div style=""display: flex; justify-content: center; align-items: center;"">
                    <img src=""images/semantic/semantic_series_6/semantic_series_6_a.jpg"" style=""width: 300px; height: 300px;"" />
                  </div>","null","",""
"","","","","","html-keyboard-response","70","231969","0.0-52.0-1.0","BA228236C0AB473D9EE59D76B07DEA6A","BA228236C0AB473D9EE59D76B07DEA6A","3d1ff8f3-cac1-49a9-b833-3f8ab03054e6","bea99957-1862-4ad8-9558-57b91e42ce64","{""participantId"":""BA228236C0AB473D9EE59D76B07DEA6A"",""assignmentId"":""3d1ff8f3-cac1-49a9-b833-3f8ab03054e6"",""projectId"":""bea99957-1862-4ad8-9558-57b91e42ce64""}","https://test12345.live/?participantId=BA228236C0AB473D9EE59D76B07DEA6A&assignmentId=3d1ff8f3-cac1-49a9-b833-3f8ab03054e6&projectId=bea99957-1862-4ad8-9558-57b91e42ce64","","null","<div style=""display: flex; justify-content: center; align-items: center;"">
                    <img src=""images/semantic/semantic_series_6/semantic_series_6_b.jpg"" style=""width: 300px; height: 300px;"" />
                  </div>","null","",""
"","","","","","html-keyboard-response","71","234978","0.0-52.0-2.0","BA228236C0AB473D9EE59D76B07DEA6A","BA228236C0AB473D9EE59D76B07DEA6A","3d1ff8f3-cac1-49a9-b833-3f8ab03054e6","bea99957-1862-4ad8-9558-57b91e42ce64","{""participantId"":""BA228236C0AB473D9EE59D76B07DEA6A"",""assignmentId"":""3d1ff8f3-cac1-49a9-b833-3f8ab03054e6"",""projectId"":""bea99957-1862-4ad8-9558-57b91e42ce64""}","https://test12345.live/?participantId=BA228236C0AB473D9EE59D76B07DEA6A&assignmentId=3d1ff8f3-cac1-49a9-b833-3f8ab03054e6&projectId=bea99957-1862-4ad8-9558-57b91e42ce64","","null","<div style=""display: flex; justify-content: center; align-items: center;"">
                    <img src=""images/semantic/semantic_series_6/semantic_series_6_c.jpg"" style=""width: 300px; height: 300px;"" />
                  </div>","null","",""
"","","","","","html-keyboard-response","72","237990","0.0-52.0-3.0","BA228236C0AB473D9EE59D76B07DEA6A","BA228236C0AB473D9EE59D76B07DEA6A","3d1ff8f3-cac1-49a9-b833-3f8ab03054e6","bea99957-1862-4ad8-9558-57b91e42ce64","{""participantId"":""BA228236C0AB473D9EE59D76B07DEA6A"",""assignmentId"":""3d1ff8f3-cac1-49a9-b833-3f8ab03054e6"",""projectId"":""bea99957-1862-4ad8-9558-57b91e42ce64""}","https://test12345.live/?participantId=BA228236C0AB473D9EE59D76B07DEA6A&assignmentId=3d1ff8f3-cac1-49a9-b833-3f8ab03054e6&projectId=bea99957-1862-4ad8-9558-57b91e42ce64","","null","<div style=""display: flex; justify-content: center; align-items: center;"">
                    <img src=""images/semantic/semantic_series_6/semantic_series_6_d.jpg"" style=""width: 300px; height: 300px;"" />
                  </div>","null","",""
"","","","","","html-button-response","73","239583","0.0-53.0","BA228236C0AB473D9EE59D76B07DEA6A","BA228236C0AB473D9EE59D76B07DEA6A","3d1ff8f3-cac1-49a9-b833-3f8ab03054e6","bea99957-1862-4ad8-9558-57b91e42ce64","{""participantId"":""BA228236C0AB473D9EE59D76B07DEA6A"",""assignmentId"":""3d1ff8f3-cac1-49a9-b833-3f8ab03054e6"",""projectId"":""bea99957-1862-4ad8-9558-57b91e42ce64""}","https://test12345.live/?participantId=BA228236C0AB473D9EE59D76B07DEA6A&assignmentId=3d1ff8f3-cac1-49a9-b833-3f8ab03054e6&projectId=bea99957-1862-4ad8-9558-57b91e42ce64","","1592","Was there a person in the picture?","1","",""
"","","","","","survey-likert","74","242327","0.0-54.0","BA228236C0AB473D9EE59D76B07DEA6A","BA228236C0AB473D9EE59D76B07DEA6A","3d1ff8f3-cac1-49a9-b833-3f8ab03054e6","bea99957-1862-4ad8-9558-57b91e42ce64","{""participantId"":""BA228236C0AB473D9EE59D76B07DEA6A"",""assignmentId"":""3d1ff8f3-cac1-49a9-b833-3f8ab03054e6"",""projectId"":""bea99957-1862-4ad8-9558-57b91e42ce64""}","https://test12345.live/?participantId=BA228236C0AB473D9EE59D76B07DEA6A&assignmentId=3d1ff8f3-cac1-49a9-b833-3f8ab03054e6&projectId=bea99957-1862-4ad8-9558-57b91e42ce64","","2742","","{""Q0"":1}","","[0]"
"","","","","","html-button-response","75","243485","0.0-55.0","BA228236C0AB473D9EE59D76B07DEA6A","BA228236C0AB473D9EE59D76B07DEA6A","3d1ff8f3-cac1-49a9-b833-3f8ab03054e6","bea99957-1862-4ad8-9558-57b91e42ce64","{""participantId"":""BA228236C0AB473D9EE59D76B07DEA6A"",""assignmentId"":""3d1ff8f3-cac1-49a9-b833-3f8ab03054e6"",""projectId"":""bea99957-1862-4ad8-9558-57b91e42ce64""}","https://test12345.live/?participantId=BA228236C0AB473D9EE59D76B07DEA6A&assignmentId=3d1ff8f3-cac1-49a9-b833-3f8ab03054e6&projectId=bea99957-1862-4ad8-9558-57b91e42ce64","","1156","
    <div style=""display: flex; justify-content: center; align-items: center;"">
      <img src=""images/red_deck_2.png"" style=""width: 300px; height: 300px; margin-right: 10px;"" />
      <img src=""images/blue_deck_1.png"" style=""width: 300px; height: 300px;"" />
    </div>","1","1",""
"","","","","","html-keyboard-response","76","246493","0.0-56.0-0.0","BA228236C0AB473D9EE59D76B07DEA6A","BA228236C0AB473D9EE59D76B07DEA6A","3d1ff8f3-cac1-49a9-b833-3f8ab03054e6","bea99957-1862-4ad8-9558-57b91e42ce64","{""participantId"":""BA228236C0AB473D9EE59D76B07DEA6A"",""assignmentId"":""3d1ff8f3-cac1-49a9-b833-3f8ab03054e6"",""projectId"":""bea99957-1862-4ad8-9558-57b91e42ce64""}","https://test12345.live/?participantId=BA228236C0AB473D9EE59D76B07DEA6A&assignmentId=3d1ff8f3-cac1-49a9-b833-3f8ab03054e6&projectId=bea99957-1862-4ad8-9558-57b91e42ce64","","null","<div style=""display: flex; justify-content: center; align-items: center;"">
                    <img src=""images/causal/causal_series_6/causal_series_6_a.jpg"" style=""width: 300px; height: 300px;"" />
                  </div>","null","",""
"","","","","","html-keyboard-response","77","249502","0.0-56.0-1.0","BA228236C0AB473D9EE59D76B07DEA6A","BA228236C0AB473D9EE59D76B07DEA6A","3d1ff8f3-cac1-49a9-b833-3f8ab03054e6","bea99957-1862-4ad8-9558-57b91e42ce64","{""participantId"":""BA228236C0AB473D9EE59D76B07DEA6A"",""assignmentId"":""3d1ff8f3-cac1-49a9-b833-3f8ab03054e6"",""projectId"":""bea99957-1862-4ad8-9558-57b91e42ce64""}","https://test12345.live/?participantId=BA228236C0AB473D9EE59D76B07DEA6A&assignmentId=3d1ff8f3-cac1-49a9-b833-3f8ab03054e6&projectId=bea99957-1862-4ad8-9558-57b91e42ce64","","null","<div style=""display: flex; justify-content: center; align-items: center;"">
                    <img src=""images/causal/causal_series_6/causal_series_6_b.jpg"" style=""width: 300px; height: 300px;"" />
                  </div>","null","",""
"","","","","","html-keyboard-response","78","252510","0.0-56.0-2.0","BA228236C0AB473D9EE59D76B07DEA6A","BA228236C0AB473D9EE59D76B07DEA6A","3d1ff8f3-cac1-49a9-b833-3f8ab03054e6","bea99957-1862-4ad8-9558-57b91e42ce64","{""participantId"":""BA228236C0AB473D9EE59D76B07DEA6A"",""assignmentId"":""3d1ff8f3-cac1-49a9-b833-3f8ab03054e6"",""projectId"":""bea99957-1862-4ad8-9558-57b91e42ce64""}","https://test12345.live/?participantId=BA228236C0AB473D9EE59D76B07DEA6A&assignmentId=3d1ff8f3-cac1-49a9-b833-3f8ab03054e6&projectId=bea99957-1862-4ad8-9558-57b91e42ce64","","null","<div style=""display: flex; justify-content: center; align-items: center;"">
                    <img src=""images/causal/causal_series_6/causal_series_6_c.jpg"" style=""width: 300px; height: 300px;"" />
                  </div>","null","",""
"","","","","","html-keyboard-response","79","255517","0.0-56.0-3.0","BA228236C0AB473D9EE59D76B07DEA6A","BA228236C0AB473D9EE59D76B07DEA6A","3d1ff8f3-cac1-49a9-b833-3f8ab03054e6","bea99957-1862-4ad8-9558-57b91e42ce64","{""participantId"":""BA228236C0AB473D9EE59D76B07DEA6A"",""assignmentId"":""3d1ff8f3-cac1-49a9-b833-3f8ab03054e6"",""projectId"":""bea99957-1862-4ad8-9558-57b91e42ce64""}","https://test12345.live/?participantId=BA228236C0AB473D9EE59D76B07DEA6A&assignmentId=3d1ff8f3-cac1-49a9-b833-3f8ab03054e6&projectId=bea99957-1862-4ad8-9558-57b91e42ce64","","null","<div style=""display: flex; justify-content: center; align-items: center;"">
                    <img src=""images/causal/causal_series_6/causal_series_6_d.jpg"" style=""width: 300px; height: 300px;"" />
                  </div>","null","",""
"","","","","","html-button-response","80","257249","0.0-58.0","BA228236C0AB473D9EE59D76B07DEA6A","BA228236C0AB473D9EE59D76B07DEA6A","3d1ff8f3-cac1-49a9-b833-3f8ab03054e6","bea99957-1862-4ad8-9558-57b91e42ce64","{""participantId"":""BA228236C0AB473D9EE59D76B07DEA6A"",""assignmentId"":""3d1ff8f3-cac1-49a9-b833-3f8ab03054e6"",""projectId"":""bea99957-1862-4ad8-9558-57b91e42ce64""}","https://test12345.live/?participantId=BA228236C0AB473D9EE59D76B07DEA6A&assignmentId=3d1ff8f3-cac1-49a9-b833-3f8ab03054e6&projectId=bea99957-1862-4ad8-9558-57b91e42ce64","","1727","Was there a person in the picture?","1","",""
"","","","","","survey-likert","81","259499","0.0-59.0","BA228236C0AB473D9EE59D76B07DEA6A","BA228236C0AB473D9EE59D76B07DEA6A","3d1ff8f3-cac1-49a9-b833-3f8ab03054e6","bea99957-1862-4ad8-9558-57b91e42ce64","{""participantId"":""BA228236C0AB473D9EE59D76B07DEA6A"",""assignmentId"":""3d1ff8f3-cac1-49a9-b833-3f8ab03054e6"",""projectId"":""bea99957-1862-4ad8-9558-57b91e42ce64""}","https://test12345.live/?participantId=BA228236C0AB473D9EE59D76B07DEA6A&assignmentId=3d1ff8f3-cac1-49a9-b833-3f8ab03054e6&projectId=bea99957-1862-4ad8-9558-57b91e42ce64","","2248","","{""Q0"":3}","","[0]"
"","","","","","html-button-response","82","288854","0.0-60.0","BA228236C0AB473D9EE59D76B07DEA6A","BA228236C0AB473D9EE59D76B07DEA6A","3d1ff8f3-cac1-49a9-b833-3f8ab03054e6","bea99957-1862-4ad8-9558-57b91e42ce64","{""participantId"":""BA228236C0AB473D9EE59D76B07DEA6A"",""assignmentId"":""3d1ff8f3-cac1-49a9-b833-3f8ab03054e6"",""projectId"":""bea99957-1862-4ad8-9558-57b91e42ce64""}","https://test12345.live/?participantId=BA228236C0AB473D9EE59D76B07DEA6A&assignmentId=3d1ff8f3-cac1-49a9-b833-3f8ab03054e6&projectId=bea99957-1862-4ad8-9558-57b91e42ce64","","29353","
    <div style=""display: flex; justify-content: center; align-items: center;"">
      <img src=""images/red_deck_2.png"" style=""width: 300px; height: 300px; margin-right: 10px;"" />
      <img src=""images/blue_deck_1.png"" style=""width: 300px; height: 300px;"" />
    </div>","1","1",""
"","","","","","html-keyboard-response","83","291868","0.0-61.0-0.0","BA228236C0AB473D9EE59D76B07DEA6A","BA228236C0AB473D9EE59D76B07DEA6A","3d1ff8f3-cac1-49a9-b833-3f8ab03054e6","bea99957-1862-4ad8-9558-57b91e42ce64","{""participantId"":""BA228236C0AB473D9EE59D76B07DEA6A"",""assignmentId"":""3d1ff8f3-cac1-49a9-b833-3f8ab03054e6"",""projectId"":""bea99957-1862-4ad8-9558-57b91e42ce64""}","https://test12345.live/?participantId=BA228236C0AB473D9EE59D76B07DEA6A&assignmentId=3d1ff8f3-cac1-49a9-b833-3f8ab03054e6&projectId=bea99957-1862-4ad8-9558-57b91e42ce64","","null","<div style=""display: flex; justify-content: center; align-items: center;"">
                    <img src=""images/causal/causal_series_7/causal_series_7_a.jpg"" style=""width: 300px; height: 300px;"" />
                  </div>","null","",""
"","","","","","html-keyboard-response","84","294869","0.0-61.0-1.0","BA228236C0AB473D9EE59D76B07DEA6A","BA228236C0AB473D9EE59D76B07DEA6A","3d1ff8f3-cac1-49a9-b833-3f8ab03054e6","bea99957-1862-4ad8-9558-57b91e42ce64","{""participantId"":""BA228236C0AB473D9EE59D76B07DEA6A"",""assignmentId"":""3d1ff8f3-cac1-49a9-b833-3f8ab03054e6"",""projectId"":""bea99957-1862-4ad8-9558-57b91e42ce64""}","https://test12345.live/?participantId=BA228236C0AB473D9EE59D76B07DEA6A&assignmentId=3d1ff8f3-cac1-49a9-b833-3f8ab03054e6&projectId=bea99957-1862-4ad8-9558-57b91e42ce64","","null","<div style=""display: flex; justify-content: center; align-items: center;"">
                    <img src=""images/causal/causal_series_7/causal_series_7_b.jpg"" style=""width: 300px; height: 300px;"" />
                  </div>","null","",""
"","","","","","html-keyboard-response","85","297886","0.0-61.0-2.0","BA228236C0AB473D9EE59D76B07DEA6A","BA228236C0AB473D9EE59D76B07DEA6A","3d1ff8f3-cac1-49a9-b833-3f8ab03054e6","bea99957-1862-4ad8-9558-57b91e42ce64","{""participantId"":""BA228236C0AB473D9EE59D76B07DEA6A"",""assignmentId"":""3d1ff8f3-cac1-49a9-b833-3f8ab03054e6"",""projectId"":""bea99957-1862-4ad8-9558-57b91e42ce64""}","https://test12345.live/?participantId=BA228236C0AB473D9EE59D76B07DEA6A&assignmentId=3d1ff8f3-cac1-49a9-b833-3f8ab03054e6&projectId=bea99957-1862-4ad8-9558-57b91e42ce64","","null","<div style=""display: flex; justify-content: center; align-items: center;"">
                    <img src=""images/causal/causal_series_7/causal_series_7_c.jpg"" style=""width: 300px; height: 300px;"" />
                  </div>","null","",""
"","","","","","html-keyboard-response","86","300901","0.0-61.0-3.0","BA228236C0AB473D9EE59D76B07DEA6A","BA228236C0AB473D9EE59D76B07DEA6A","3d1ff8f3-cac1-49a9-b833-3f8ab03054e6","bea99957-1862-4ad8-9558-57b91e42ce64","{""participantId"":""BA228236C0AB473D9EE59D76B07DEA6A"",""assignmentId"":""3d1ff8f3-cac1-49a9-b833-3f8ab03054e6"",""projectId"":""bea99957-1862-4ad8-9558-57b91e42ce64""}","https://test12345.live/?participantId=BA228236C0AB473D9EE59D76B07DEA6A&assignmentId=3d1ff8f3-cac1-49a9-b833-3f8ab03054e6&projectId=bea99957-1862-4ad8-9558-57b91e42ce64","","null","<div style=""display: flex; justify-content: center; align-items: center;"">
                    <img src=""images/causal/causal_series_7/causal_series_7_d.jpg"" style=""width: 300px; height: 300px;"" />
                  </div>","null","",""
"","","","","","html-button-response","87","303704","0.0-63.0","BA228236C0AB473D9EE59D76B07DEA6A","BA228236C0AB473D9EE59D76B07DEA6A","3d1ff8f3-cac1-49a9-b833-3f8ab03054e6","bea99957-1862-4ad8-9558-57b91e42ce64","{""participantId"":""BA228236C0AB473D9EE59D76B07DEA6A"",""assignmentId"":""3d1ff8f3-cac1-49a9-b833-3f8ab03054e6"",""projectId"":""bea99957-1862-4ad8-9558-57b91e42ce64""}","https://test12345.live/?participantId=BA228236C0AB473D9EE59D76B07DEA6A&assignmentId=3d1ff8f3-cac1-49a9-b833-3f8ab03054e6&projectId=bea99957-1862-4ad8-9558-57b91e42ce64","","2801","Was there a person in the picture?","1","",""
"","","","","","survey-likert","88","309294","0.0-64.0","BA228236C0AB473D9EE59D76B07DEA6A","BA228236C0AB473D9EE59D76B07DEA6A","3d1ff8f3-cac1-49a9-b833-3f8ab03054e6","bea99957-1862-4ad8-9558-57b91e42ce64","{""participantId"":""BA228236C0AB473D9EE59D76B07DEA6A"",""assignmentId"":""3d1ff8f3-cac1-49a9-b833-3f8ab03054e6"",""projectId"":""bea99957-1862-4ad8-9558-57b91e42ce64""}","https://test12345.live/?participantId=BA228236C0AB473D9EE59D76B07DEA6A&assignmentId=3d1ff8f3-cac1-49a9-b833-3f8ab03054e6&projectId=bea99957-1862-4ad8-9558-57b91e42ce64","","5590","","{""Q0"":2}","","[0]"
"","","","","","html-button-response","89","310795","0.0-65.0","BA228236C0AB473D9EE59D76B07DEA6A","BA228236C0AB473D9EE59D76B07DEA6A","3d1ff8f3-cac1-49a9-b833-3f8ab03054e6","bea99957-1862-4ad8-9558-57b91e42ce64","{""participantId"":""BA228236C0AB473D9EE59D76B07DEA6A"",""assignmentId"":""3d1ff8f3-cac1-49a9-b833-3f8ab03054e6"",""projectId"":""bea99957-1862-4ad8-9558-57b91e42ce64""}","https://test12345.live/?participantId=BA228236C0AB473D9EE59D76B07DEA6A&assignmentId=3d1ff8f3-cac1-49a9-b833-3f8ab03054e6&projectId=bea99957-1862-4ad8-9558-57b91e42ce64","","1500","
    <div style=""display: flex; justify-content: center; align-items: center;"">
      <img src=""images/red_deck_2.png"" style=""width: 300px; height: 300px; margin-right: 10px;"" />
      <img src=""images/blue_deck_1.png"" style=""width: 300px; height: 300px;"" />
    </div>","0","0",""
"","","","","","html-keyboard-response","90","313803","0.0-67.0-0.0","BA228236C0AB473D9EE59D76B07DEA6A","BA228236C0AB473D9EE59D76B07DEA6A","3d1ff8f3-cac1-49a9-b833-3f8ab03054e6","bea99957-1862-4ad8-9558-57b91e42ce64","{""participantId"":""BA228236C0AB473D9EE59D76B07DEA6A"",""assignmentId"":""3d1ff8f3-cac1-49a9-b833-3f8ab03054e6"",""projectId"":""bea99957-1862-4ad8-9558-57b91e42ce64""}","https://test12345.live/?participantId=BA228236C0AB473D9EE59D76B07DEA6A&assignmentId=3d1ff8f3-cac1-49a9-b833-3f8ab03054e6&projectId=bea99957-1862-4ad8-9558-57b91e42ce64","","null","<div style=""display: flex; justify-content: center; align-items: center;"">
                    <img src=""images/semantic/semantic_series_11/semantic_series_11_a.jpg"" style=""width: 300px; height: 300px;"" />
                  </div>","null","",""
"","","","","","html-keyboard-response","91","316805","0.0-67.0-1.0","BA228236C0AB473D9EE59D76B07DEA6A","BA228236C0AB473D9EE59D76B07DEA6A","3d1ff8f3-cac1-49a9-b833-3f8ab03054e6","bea99957-1862-4ad8-9558-57b91e42ce64","{""participantId"":""BA228236C0AB473D9EE59D76B07DEA6A"",""assignmentId"":""3d1ff8f3-cac1-49a9-b833-3f8ab03054e6"",""projectId"":""bea99957-1862-4ad8-9558-57b91e42ce64""}","https://test12345.live/?participantId=BA228236C0AB473D9EE59D76B07DEA6A&assignmentId=3d1ff8f3-cac1-49a9-b833-3f8ab03054e6&projectId=bea99957-1862-4ad8-9558-57b91e42ce64","","null","<div style=""display: flex; justify-content: center; align-items: center;"">
                    <img src=""images/semantic/semantic_series_11/semantic_series_11_b.jpg"" style=""width: 300px; height: 300px;"" />
                  </div>","null","",""
"","","","","","html-keyboard-response","92","319812","0.0-67.0-2.0","BA228236C0AB473D9EE59D76B07DEA6A","BA228236C0AB473D9EE59D76B07DEA6A","3d1ff8f3-cac1-49a9-b833-3f8ab03054e6","bea99957-1862-4ad8-9558-57b91e42ce64","{""participantId"":""BA228236C0AB473D9EE59D76B07DEA6A"",""assignmentId"":""3d1ff8f3-cac1-49a9-b833-3f8ab03054e6"",""projectId"":""bea99957-1862-4ad8-9558-57b91e42ce64""}","https://test12345.live/?participantId=BA228236C0AB473D9EE59D76B07DEA6A&assignmentId=3d1ff8f3-cac1-49a9-b833-3f8ab03054e6&projectId=bea99957-1862-4ad8-9558-57b91e42ce64","","null","<div style=""display: flex; justify-content: center; align-items: center;"">
                    <img src=""images/semantic/semantic_series_11/semantic_series_11_c.jpg"" style=""width: 300px; height: 300px;"" />
                  </div>","null","",""
"","","","","","html-keyboard-response","93","322827","0.0-67.0-3.0","BA228236C0AB473D9EE59D76B07DEA6A","BA228236C0AB473D9EE59D76B07DEA6A","3d1ff8f3-cac1-49a9-b833-3f8ab03054e6","bea99957-1862-4ad8-9558-57b91e42ce64","{""participantId"":""BA228236C0AB473D9EE59D76B07DEA6A"",""assignmentId"":""3d1ff8f3-cac1-49a9-b833-3f8ab03054e6"",""projectId"":""bea99957-1862-4ad8-9558-57b91e42ce64""}","https://test12345.live/?participantId=BA228236C0AB473D9EE59D76B07DEA6A&assignmentId=3d1ff8f3-cac1-49a9-b833-3f8ab03054e6&projectId=bea99957-1862-4ad8-9558-57b91e42ce64","","null","<div style=""display: flex; justify-content: center; align-items: center;"">
                    <img src=""images/semantic/semantic_series_11/semantic_series_11_d.jpg"" style=""width: 300px; height: 300px;"" />
                  </div>","null","",""
"","","","","","html-button-response","94","325600","0.0-68.0","BA228236C0AB473D9EE59D76B07DEA6A","BA228236C0AB473D9EE59D76B07DEA6A","3d1ff8f3-cac1-49a9-b833-3f8ab03054e6","bea99957-1862-4ad8-9558-57b91e42ce64","{""participantId"":""BA228236C0AB473D9EE59D76B07DEA6A"",""assignmentId"":""3d1ff8f3-cac1-49a9-b833-3f8ab03054e6"",""projectId"":""bea99957-1862-4ad8-9558-57b91e42ce64""}","https://test12345.live/?participantId=BA228236C0AB473D9EE59D76B07DEA6A&assignmentId=3d1ff8f3-cac1-49a9-b833-3f8ab03054e6&projectId=bea99957-1862-4ad8-9558-57b91e42ce64","","2771","Was there a person in the picture?","0","",""
"","","","","","survey-likert","95","328653","0.0-69.0","BA228236C0AB473D9EE59D76B07DEA6A","BA228236C0AB473D9EE59D76B07DEA6A","3d1ff8f3-cac1-49a9-b833-3f8ab03054e6","bea99957-1862-4ad8-9558-57b91e42ce64","{""participantId"":""BA228236C0AB473D9EE59D76B07DEA6A"",""assignmentId"":""3d1ff8f3-cac1-49a9-b833-3f8ab03054e6"",""projectId"":""bea99957-1862-4ad8-9558-57b91e42ce64""}","https://test12345.live/?participantId=BA228236C0AB473D9EE59D76B07DEA6A&assignmentId=3d1ff8f3-cac1-49a9-b833-3f8ab03054e6&projectId=bea99957-1862-4ad8-9558-57b91e42ce64","","3050","","{""Q0"":1}","","[0]"
"","","","","","html-button-response","96","366914","0.0-70.0","BA228236C0AB473D9EE59D76B07DEA6A","BA228236C0AB473D9EE59D76B07DEA6A","3d1ff8f3-cac1-49a9-b833-3f8ab03054e6","bea99957-1862-4ad8-9558-57b91e42ce64","{""participantId"":""BA228236C0AB473D9EE59D76B07DEA6A"",""assignmentId"":""3d1ff8f3-cac1-49a9-b833-3f8ab03054e6"",""projectId"":""bea99957-1862-4ad8-9558-57b91e42ce64""}","https://test12345.live/?participantId=BA228236C0AB473D9EE59D76B07DEA6A&assignmentId=3d1ff8f3-cac1-49a9-b833-3f8ab03054e6&projectId=bea99957-1862-4ad8-9558-57b91e42ce64","","38259","
    <div style=""display: flex; justify-content: center; align-items: center;"">
      <img src=""images/red_deck_2.png"" style=""width: 300px; height: 300px; margin-right: 10px;"" />
      <img src=""images/blue_deck_1.png"" style=""width: 300px; height: 300px;"" />
    </div>","1","1",""
"","","","","","html-keyboard-response","97","369935","0.0-71.0-0.0","BA228236C0AB473D9EE59D76B07DEA6A","BA228236C0AB473D9EE59D76B07DEA6A","3d1ff8f3-cac1-49a9-b833-3f8ab03054e6","bea99957-1862-4ad8-9558-57b91e42ce64","{""participantId"":""BA228236C0AB473D9EE59D76B07DEA6A"",""assignmentId"":""3d1ff8f3-cac1-49a9-b833-3f8ab03054e6"",""projectId"":""bea99957-1862-4ad8-9558-57b91e42ce64""}","https://test12345.live/?participantId=BA228236C0AB473D9EE59D76B07DEA6A&assignmentId=3d1ff8f3-cac1-49a9-b833-3f8ab03054e6&projectId=bea99957-1862-4ad8-9558-57b91e42ce64","","null","<div style=""display: flex; justify-content: center; align-items: center;"">
                    <img src=""images/causal/causal_series_13/causal_series_13_a.jpg"" style=""width: 300px; height: 300px;"" />
                  </div>","null","",""
"","","","","","html-keyboard-response","98","372938","0.0-71.0-1.0","BA228236C0AB473D9EE59D76B07DEA6A","BA228236C0AB473D9EE59D76B07DEA6A","3d1ff8f3-cac1-49a9-b833-3f8ab03054e6","bea99957-1862-4ad8-9558-57b91e42ce64","{""participantId"":""BA228236C0AB473D9EE59D76B07DEA6A"",""assignmentId"":""3d1ff8f3-cac1-49a9-b833-3f8ab03054e6"",""projectId"":""bea99957-1862-4ad8-9558-57b91e42ce64""}","https://test12345.live/?participantId=BA228236C0AB473D9EE59D76B07DEA6A&assignmentId=3d1ff8f3-cac1-49a9-b833-3f8ab03054e6&projectId=bea99957-1862-4ad8-9558-57b91e42ce64","","null","<div style=""display: flex; justify-content: center; align-items: center;"">
                    <img src=""images/causal/causal_series_13/causal_series_13_b.jpg"" style=""width: 300px; height: 300px;"" />
                  </div>","null","",""
"","","","","","html-keyboard-response","99","375959","0.0-71.0-2.0","BA228236C0AB473D9EE59D76B07DEA6A","BA228236C0AB473D9EE59D76B07DEA6A","3d1ff8f3-cac1-49a9-b833-3f8ab03054e6","bea99957-1862-4ad8-9558-57b91e42ce64","{""participantId"":""BA228236C0AB473D9EE59D76B07DEA6A"",""assignmentId"":""3d1ff8f3-cac1-49a9-b833-3f8ab03054e6"",""projectId"":""bea99957-1862-4ad8-9558-57b91e42ce64""}","https://test12345.live/?participantId=BA228236C0AB473D9EE59D76B07DEA6A&assignmentId=3d1ff8f3-cac1-49a9-b833-3f8ab03054e6&projectId=bea99957-1862-4ad8-9558-57b91e42ce64","","null","<div style=""display: flex; justify-content: center; align-items: center;"">
                    <img src=""images/causal/causal_series_13/causal_series_13_c.jpg"" style=""width: 300px; height: 300px;"" />
                  </div>","null","",""
"","","","","","html-keyboard-response","100","378968","0.0-71.0-3.0","BA228236C0AB473D9EE59D76B07DEA6A","BA228236C0AB473D9EE59D76B07DEA6A","3d1ff8f3-cac1-49a9-b833-3f8ab03054e6","bea99957-1862-4ad8-9558-57b91e42ce64","{""participantId"":""BA228236C0AB473D9EE59D76B07DEA6A"",""assignmentId"":""3d1ff8f3-cac1-49a9-b833-3f8ab03054e6"",""projectId"":""bea99957-1862-4ad8-9558-57b91e42ce64""}","https://test12345.live/?participantId=BA228236C0AB473D9EE59D76B07DEA6A&assignmentId=3d1ff8f3-cac1-49a9-b833-3f8ab03054e6&projectId=bea99957-1862-4ad8-9558-57b91e42ce64","","null","<div style=""display: flex; justify-content: center; align-items: center;"">
                    <img src=""images/causal/causal_series_13/causal_series_13_d.jpg"" style=""width: 300px; height: 300px;"" />
                  </div>","null","",""
"","","","","","html-button-response","101","380418","0.0-73.0","BA228236C0AB473D9EE59D76B07DEA6A","BA228236C0AB473D9EE59D76B07DEA6A","3d1ff8f3-cac1-49a9-b833-3f8ab03054e6","bea99957-1862-4ad8-9558-57b91e42ce64","{""participantId"":""BA228236C0AB473D9EE59D76B07DEA6A"",""assignmentId"":""3d1ff8f3-cac1-49a9-b833-3f8ab03054e6"",""projectId"":""bea99957-1862-4ad8-9558-57b91e42ce64""}","https://test12345.live/?participantId=BA228236C0AB473D9EE59D76B07DEA6A&assignmentId=3d1ff8f3-cac1-49a9-b833-3f8ab03054e6&projectId=bea99957-1862-4ad8-9558-57b91e42ce64","","1448","Was there a person in the picture?","0","",""
"","","","","","survey-likert","102","388065","0.0-74.0","BA228236C0AB473D9EE59D76B07DEA6A","BA228236C0AB473D9EE59D76B07DEA6A","3d1ff8f3-cac1-49a9-b833-3f8ab03054e6","bea99957-1862-4ad8-9558-57b91e42ce64","{""participantId"":""BA228236C0AB473D9EE59D76B07DEA6A"",""assignmentId"":""3d1ff8f3-cac1-49a9-b833-3f8ab03054e6"",""projectId"":""bea99957-1862-4ad8-9558-57b91e42ce64""}","https://test12345.live/?participantId=BA228236C0AB473D9EE59D76B07DEA6A&assignmentId=3d1ff8f3-cac1-49a9-b833-3f8ab03054e6&projectId=bea99957-1862-4ad8-9558-57b91e42ce64","","7645","","{""Q0"":1}","","[0]"
"","","","","","html-button-response","103","392714","0.0-75.0","BA228236C0AB473D9EE59D76B07DEA6A","BA228236C0AB473D9EE59D76B07DEA6A","3d1ff8f3-cac1-49a9-b833-3f8ab03054e6","bea99957-1862-4ad8-9558-57b91e42ce64","{""participantId"":""BA228236C0AB473D9EE59D76B07DEA6A"",""assignmentId"":""3d1ff8f3-cac1-49a9-b833-3f8ab03054e6"",""projectId"":""bea99957-1862-4ad8-9558-57b91e42ce64""}","https://test12345.live/?participantId=BA228236C0AB473D9EE59D76B07DEA6A&assignmentId=3d1ff8f3-cac1-49a9-b833-3f8ab03054e6&projectId=bea99957-1862-4ad8-9558-57b91e42ce64","","4647","
    <div style=""display: flex; justify-content: center; align-items: center;"">
      <img src=""images/red_deck_2.png"" style=""width: 300px; height: 300px; margin-right: 10px;"" />
      <img src=""images/blue_deck_1.png"" style=""width: 300px; height: 300px;"" />
    </div>","1","1",""
"","","","","","html-keyboard-response","104","395723","0.0-76.0-0.0","BA228236C0AB473D9EE59D76B07DEA6A","BA228236C0AB473D9EE59D76B07DEA6A","3d1ff8f3-cac1-49a9-b833-3f8ab03054e6","bea99957-1862-4ad8-9558-57b91e42ce64","{""participantId"":""BA228236C0AB473D9EE59D76B07DEA6A"",""assignmentId"":""3d1ff8f3-cac1-49a9-b833-3f8ab03054e6"",""projectId"":""bea99957-1862-4ad8-9558-57b91e42ce64""}","https://test12345.live/?participantId=BA228236C0AB473D9EE59D76B07DEA6A&assignmentId=3d1ff8f3-cac1-49a9-b833-3f8ab03054e6&projectId=bea99957-1862-4ad8-9558-57b91e42ce64","","null","<div style=""display: flex; justify-content: center; align-items: center;"">
                    <img src=""images/causal/causal_series_17/causal_series_17_a.jpg"" style=""width: 300px; height: 300px;"" />
                  </div>","null","",""
"","","","","","html-keyboard-response","105","398740","0.0-76.0-1.0","BA228236C0AB473D9EE59D76B07DEA6A","BA228236C0AB473D9EE59D76B07DEA6A","3d1ff8f3-cac1-49a9-b833-3f8ab03054e6","bea99957-1862-4ad8-9558-57b91e42ce64","{""participantId"":""BA228236C0AB473D9EE59D76B07DEA6A"",""assignmentId"":""3d1ff8f3-cac1-49a9-b833-3f8ab03054e6"",""projectId"":""bea99957-1862-4ad8-9558-57b91e42ce64""}","https://test12345.live/?participantId=BA228236C0AB473D9EE59D76B07DEA6A&assignmentId=3d1ff8f3-cac1-49a9-b833-3f8ab03054e6&projectId=bea99957-1862-4ad8-9558-57b91e42ce64","","null","<div style=""display: flex; justify-content: center; align-items: center;"">
                    <img src=""images/causal/causal_series_17/causal_series_17_b.jpg"" style=""width: 300px; height: 300px;"" />
                  </div>","null","",""
"","","","","","html-keyboard-response","106","401746","0.0-76.0-2.0","BA228236C0AB473D9EE59D76B07DEA6A","BA228236C0AB473D9EE59D76B07DEA6A","3d1ff8f3-cac1-49a9-b833-3f8ab03054e6","bea99957-1862-4ad8-9558-57b91e42ce64","{""participantId"":""BA228236C0AB473D9EE59D76B07DEA6A"",""assignmentId"":""3d1ff8f3-cac1-49a9-b833-3f8ab03054e6"",""projectId"":""bea99957-1862-4ad8-9558-57b91e42ce64""}","https://test12345.live/?participantId=BA228236C0AB473D9EE59D76B07DEA6A&assignmentId=3d1ff8f3-cac1-49a9-b833-3f8ab03054e6&projectId=bea99957-1862-4ad8-9558-57b91e42ce64","","null","<div style=""display: flex; justify-content: center; align-items: center;"">
                    <img src=""images/causal/causal_series_17/causal_series_17_c.jpg"" style=""width: 300px; height: 300px;"" />
                  </div>","null","",""
"","","","","","html-keyboard-response","107","404762","0.0-76.0-3.0","BA228236C0AB473D9EE59D76B07DEA6A","BA228236C0AB473D9EE59D76B07DEA6A","3d1ff8f3-cac1-49a9-b833-3f8ab03054e6","bea99957-1862-4ad8-9558-57b91e42ce64","{""participantId"":""BA228236C0AB473D9EE59D76B07DEA6A"",""assignmentId"":""3d1ff8f3-cac1-49a9-b833-3f8ab03054e6"",""projectId"":""bea99957-1862-4ad8-9558-57b91e42ce64""}","https://test12345.live/?participantId=BA228236C0AB473D9EE59D76B07DEA6A&assignmentId=3d1ff8f3-cac1-49a9-b833-3f8ab03054e6&projectId=bea99957-1862-4ad8-9558-57b91e42ce64","","null","<div style=""display: flex; justify-content: center; align-items: center;"">
                    <img src=""images/causal/causal_series_17/causal_series_17_d.jpg"" style=""width: 300px; height: 300px;"" />
                  </div>","null","",""
"","","","","","html-button-response","108","407804","0.0-78.0","BA228236C0AB473D9EE59D76B07DEA6A","BA228236C0AB473D9EE59D76B07DEA6A","3d1ff8f3-cac1-49a9-b833-3f8ab03054e6","bea99957-1862-4ad8-9558-57b91e42ce64","{""participantId"":""BA228236C0AB473D9EE59D76B07DEA6A"",""assignmentId"":""3d1ff8f3-cac1-49a9-b833-3f8ab03054e6"",""projectId"":""bea99957-1862-4ad8-9558-57b91e42ce64""}","https://test12345.live/?participantId=BA228236C0AB473D9EE59D76B07DEA6A&assignmentId=3d1ff8f3-cac1-49a9-b833-3f8ab03054e6&projectId=bea99957-1862-4ad8-9558-57b91e42ce64","","3033","Was there a person in the picture?","0","",""
"","","","","","survey-likert","109","410534","0.0-79.0","BA228236C0AB473D9EE59D76B07DEA6A","BA228236C0AB473D9EE59D76B07DEA6A","3d1ff8f3-cac1-49a9-b833-3f8ab03054e6","bea99957-1862-4ad8-9558-57b91e42ce64","{""participantId"":""BA228236C0AB473D9EE59D76B07DEA6A"",""assignmentId"":""3d1ff8f3-cac1-49a9-b833-3f8ab03054e6"",""projectId"":""bea99957-1862-4ad8-9558-57b91e42ce64""}","https://test12345.live/?participantId=BA228236C0AB473D9EE59D76B07DEA6A&assignmentId=3d1ff8f3-cac1-49a9-b833-3f8ab03054e6&projectId=bea99957-1862-4ad8-9558-57b91e42ce64","","2728","","{""Q0"":3}","","[0]"
"","","","","","html-button-response","110","413900","0.0-80.0","BA228236C0AB473D9EE59D76B07DEA6A","BA228236C0AB473D9EE59D76B07DEA6A","3d1ff8f3-cac1-49a9-b833-3f8ab03054e6","bea99957-1862-4ad8-9558-57b91e42ce64","{""participantId"":""BA228236C0AB473D9EE59D76B07DEA6A"",""assignmentId"":""3d1ff8f3-cac1-49a9-b833-3f8ab03054e6"",""projectId"":""bea99957-1862-4ad8-9558-57b91e42ce64""}","https://test12345.live/?participantId=BA228236C0AB473D9EE59D76B07DEA6A&assignmentId=3d1ff8f3-cac1-49a9-b833-3f8ab03054e6&projectId=bea99957-1862-4ad8-9558-57b91e42ce64","","3365","
    <div style=""display: flex; justify-content: center; align-items: center;"">
      <img src=""images/red_deck_2.png"" style=""width: 300px; height: 300px; margin-right: 10px;"" />
      <img src=""images/blue_deck_1.png"" style=""width: 300px; height: 300px;"" />
    </div>","0","0",""
"","","","","","html-keyboard-response","111","416918","0.0-82.0-0.0","BA228236C0AB473D9EE59D76B07DEA6A","BA228236C0AB473D9EE59D76B07DEA6A","3d1ff8f3-cac1-49a9-b833-3f8ab03054e6","bea99957-1862-4ad8-9558-57b91e42ce64","{""participantId"":""BA228236C0AB473D9EE59D76B07DEA6A"",""assignmentId"":""3d1ff8f3-cac1-49a9-b833-3f8ab03054e6"",""projectId"":""bea99957-1862-4ad8-9558-57b91e42ce64""}","https://test12345.live/?participantId=BA228236C0AB473D9EE59D76B07DEA6A&assignmentId=3d1ff8f3-cac1-49a9-b833-3f8ab03054e6&projectId=bea99957-1862-4ad8-9558-57b91e42ce64","","null","<div style=""display: flex; justify-content: center; align-items: center;"">
                    <img src=""images/semantic/semantic_series_16/semantic_series_16_a.jpg"" style=""width: 300px; height: 300px;"" />
                  </div>","null","",""
"","","","","","html-keyboard-response","112","419932","0.0-82.0-1.0","BA228236C0AB473D9EE59D76B07DEA6A","BA228236C0AB473D9EE59D76B07DEA6A","3d1ff8f3-cac1-49a9-b833-3f8ab03054e6","bea99957-1862-4ad8-9558-57b91e42ce64","{""participantId"":""BA228236C0AB473D9EE59D76B07DEA6A"",""assignmentId"":""3d1ff8f3-cac1-49a9-b833-3f8ab03054e6"",""projectId"":""bea99957-1862-4ad8-9558-57b91e42ce64""}","https://test12345.live/?participantId=BA228236C0AB473D9EE59D76B07DEA6A&assignmentId=3d1ff8f3-cac1-49a9-b833-3f8ab03054e6&projectId=bea99957-1862-4ad8-9558-57b91e42ce64","","null","<div style=""display: flex; justify-content: center; align-items: center;"">
                    <img src=""images/semantic/semantic_series_16/semantic_series_16_b.jpg"" style=""width: 300px; height: 300px;"" />
                  </div>","null","",""
"","","","","","html-keyboard-response","113","422937","0.0-82.0-2.0","BA228236C0AB473D9EE59D76B07DEA6A","BA228236C0AB473D9EE59D76B07DEA6A","3d1ff8f3-cac1-49a9-b833-3f8ab03054e6","bea99957-1862-4ad8-9558-57b91e42ce64","{""participantId"":""BA228236C0AB473D9EE59D76B07DEA6A"",""assignmentId"":""3d1ff8f3-cac1-49a9-b833-3f8ab03054e6"",""projectId"":""bea99957-1862-4ad8-9558-57b91e42ce64""}","https://test12345.live/?participantId=BA228236C0AB473D9EE59D76B07DEA6A&assignmentId=3d1ff8f3-cac1-49a9-b833-3f8ab03054e6&projectId=bea99957-1862-4ad8-9558-57b91e42ce64","","null","<div style=""display: flex; justify-content: center; align-items: center;"">
                    <img src=""images/semantic/semantic_series_16/semantic_series_16_c.jpg"" style=""width: 300px; height: 300px;"" />
                  </div>","null","",""
"","","","","","html-keyboard-response","114","425948","0.0-82.0-3.0","BA228236C0AB473D9EE59D76B07DEA6A","BA228236C0AB473D9EE59D76B07DEA6A","3d1ff8f3-cac1-49a9-b833-3f8ab03054e6","bea99957-1862-4ad8-9558-57b91e42ce64","{""participantId"":""BA228236C0AB473D9EE59D76B07DEA6A"",""assignmentId"":""3d1ff8f3-cac1-49a9-b833-3f8ab03054e6"",""projectId"":""bea99957-1862-4ad8-9558-57b91e42ce64""}","https://test12345.live/?participantId=BA228236C0AB473D9EE59D76B07DEA6A&assignmentId=3d1ff8f3-cac1-49a9-b833-3f8ab03054e6&projectId=bea99957-1862-4ad8-9558-57b91e42ce64","","null","<div style=""display: flex; justify-content: center; align-items: center;"">
                    <img src=""images/semantic/semantic_series_16/semantic_series_16_d.jpg"" style=""width: 300px; height: 300px;"" />
                  </div>","null","",""
"","","","","","html-button-response","115","437197","0.0-83.0","BA228236C0AB473D9EE59D76B07DEA6A","BA228236C0AB473D9EE59D76B07DEA6A","3d1ff8f3-cac1-49a9-b833-3f8ab03054e6","bea99957-1862-4ad8-9558-57b91e42ce64","{""participantId"":""BA228236C0AB473D9EE59D76B07DEA6A"",""assignmentId"":""3d1ff8f3-cac1-49a9-b833-3f8ab03054e6"",""projectId"":""bea99957-1862-4ad8-9558-57b91e42ce64""}","https://test12345.live/?participantId=BA228236C0AB473D9EE59D76B07DEA6A&assignmentId=3d1ff8f3-cac1-49a9-b833-3f8ab03054e6&projectId=bea99957-1862-4ad8-9558-57b91e42ce64","","11248","Was there a person in the picture?","0","",""
"","","","","","survey-likert","116","439695","0.0-84.0","BA228236C0AB473D9EE59D76B07DEA6A","BA228236C0AB473D9EE59D76B07DEA6A","3d1ff8f3-cac1-49a9-b833-3f8ab03054e6","bea99957-1862-4ad8-9558-57b91e42ce64","{""participantId"":""BA228236C0AB473D9EE59D76B07DEA6A"",""assignmentId"":""3d1ff8f3-cac1-49a9-b833-3f8ab03054e6"",""projectId"":""bea99957-1862-4ad8-9558-57b91e42ce64""}","https://test12345.live/?participantId=BA228236C0AB473D9EE59D76B07DEA6A&assignmentId=3d1ff8f3-cac1-49a9-b833-3f8ab03054e6&projectId=bea99957-1862-4ad8-9558-57b91e42ce64","","2496","","{""Q0"":0}","","[0]"
"","","","","","html-button-response","117","441498","0.0-85.0","BA228236C0AB473D9EE59D76B07DEA6A","BA228236C0AB473D9EE59D76B07DEA6A","3d1ff8f3-cac1-49a9-b833-3f8ab03054e6","bea99957-1862-4ad8-9558-57b91e42ce64","{""participantId"":""BA228236C0AB473D9EE59D76B07DEA6A"",""assignmentId"":""3d1ff8f3-cac1-49a9-b833-3f8ab03054e6"",""projectId"":""bea99957-1862-4ad8-9558-57b91e42ce64""}","https://test12345.live/?participantId=BA228236C0AB473D9EE59D76B07DEA6A&assignmentId=3d1ff8f3-cac1-49a9-b833-3f8ab03054e6&projectId=bea99957-1862-4ad8-9558-57b91e42ce64","","1801","
    <div style=""display: flex; justify-content: center; align-items: center;"">
      <img src=""images/red_deck_2.png"" style=""width: 300px; height: 300px; margin-right: 10px;"" />
      <img src=""images/blue_deck_1.png"" style=""width: 300px; height: 300px;"" />
    </div>","0","0",""
"","","","","","html-keyboard-response","118","444510","0.0-87.0-0.0","BA228236C0AB473D9EE59D76B07DEA6A","BA228236C0AB473D9EE59D76B07DEA6A","3d1ff8f3-cac1-49a9-b833-3f8ab03054e6","bea99957-1862-4ad8-9558-57b91e42ce64","{""participantId"":""BA228236C0AB473D9EE59D76B07DEA6A"",""assignmentId"":""3d1ff8f3-cac1-49a9-b833-3f8ab03054e6"",""projectId"":""bea99957-1862-4ad8-9558-57b91e42ce64""}","https://test12345.live/?participantId=BA228236C0AB473D9EE59D76B07DEA6A&assignmentId=3d1ff8f3-cac1-49a9-b833-3f8ab03054e6&projectId=bea99957-1862-4ad8-9558-57b91e42ce64","","null","<div style=""display: flex; justify-content: center; align-items: center;"">
                    <img src=""images/semantic/semantic_series_15/semantic_series_15_a.jpg"" style=""width: 300px; height: 300px;"" />
                  </div>","null","",""
"","","","","","html-keyboard-response","119","447524","0.0-87.0-1.0","BA228236C0AB473D9EE59D76B07DEA6A","BA228236C0AB473D9EE59D76B07DEA6A","3d1ff8f3-cac1-49a9-b833-3f8ab03054e6","bea99957-1862-4ad8-9558-57b91e42ce64","{""participantId"":""BA228236C0AB473D9EE59D76B07DEA6A"",""assignmentId"":""3d1ff8f3-cac1-49a9-b833-3f8ab03054e6"",""projectId"":""bea99957-1862-4ad8-9558-57b91e42ce64""}","https://test12345.live/?participantId=BA228236C0AB473D9EE59D76B07DEA6A&assignmentId=3d1ff8f3-cac1-49a9-b833-3f8ab03054e6&projectId=bea99957-1862-4ad8-9558-57b91e42ce64","","null","<div style=""display: flex; justify-content: center; align-items: center;"">
                    <img src=""images/semantic/semantic_series_15/semantic_series_15_b.jpg"" style=""width: 300px; height: 300px;"" />
                  </div>","null","",""
"","","","","","html-keyboard-response","120","450541","0.0-87.0-2.0","BA228236C0AB473D9EE59D76B07DEA6A","BA228236C0AB473D9EE59D76B07DEA6A","3d1ff8f3-cac1-49a9-b833-3f8ab03054e6","bea99957-1862-4ad8-9558-57b91e42ce64","{""participantId"":""BA228236C0AB473D9EE59D76B07DEA6A"",""assignmentId"":""3d1ff8f3-cac1-49a9-b833-3f8ab03054e6"",""projectId"":""bea99957-1862-4ad8-9558-57b91e42ce64""}","https://test12345.live/?participantId=BA228236C0AB473D9EE59D76B07DEA6A&assignmentId=3d1ff8f3-cac1-49a9-b833-3f8ab03054e6&projectId=bea99957-1862-4ad8-9558-57b91e42ce64","","null","<div style=""display: flex; justify-content: center; align-items: center;"">
                    <img src=""images/semantic/semantic_series_15/semantic_series_15_c.jpg"" style=""width: 300px; height: 300px;"" />
                  </div>","null","",""
"","","","","","html-keyboard-response","121","453549","0.0-87.0-3.0","BA228236C0AB473D9EE59D76B07DEA6A","BA228236C0AB473D9EE59D76B07DEA6A","3d1ff8f3-cac1-49a9-b833-3f8ab03054e6","bea99957-1862-4ad8-9558-57b91e42ce64","{""participantId"":""BA228236C0AB473D9EE59D76B07DEA6A"",""assignmentId"":""3d1ff8f3-cac1-49a9-b833-3f8ab03054e6"",""projectId"":""bea99957-1862-4ad8-9558-57b91e42ce64""}","https://test12345.live/?participantId=BA228236C0AB473D9EE59D76B07DEA6A&assignmentId=3d1ff8f3-cac1-49a9-b833-3f8ab03054e6&projectId=bea99957-1862-4ad8-9558-57b91e42ce64","","null","<div style=""display: flex; justify-content: center; align-items: center;"">
                    <img src=""images/semantic/semantic_series_15/semantic_series_15_d.jpg"" style=""width: 300px; height: 300px;"" />
                  </div>","null","",""
"","","","","","html-button-response","122","460847","0.0-88.0","BA228236C0AB473D9EE59D76B07DEA6A","BA228236C0AB473D9EE59D76B07DEA6A","3d1ff8f3-cac1-49a9-b833-3f8ab03054e6","bea99957-1862-4ad8-9558-57b91e42ce64","{""participantId"":""BA228236C0AB473D9EE59D76B07DEA6A"",""assignmentId"":""3d1ff8f3-cac1-49a9-b833-3f8ab03054e6"",""projectId"":""bea99957-1862-4ad8-9558-57b91e42ce64""}","https://test12345.live/?participantId=BA228236C0AB473D9EE59D76B07DEA6A&assignmentId=3d1ff8f3-cac1-49a9-b833-3f8ab03054e6&projectId=bea99957-1862-4ad8-9558-57b91e42ce64","","7297","Was there a person in the picture?","0","",""
"","","","","","survey-likert","123","463221","0.0-89.0","BA228236C0AB473D9EE59D76B07DEA6A","BA228236C0AB473D9EE59D76B07DEA6A","3d1ff8f3-cac1-49a9-b833-3f8ab03054e6","bea99957-1862-4ad8-9558-57b91e42ce64","{""participantId"":""BA228236C0AB473D9EE59D76B07DEA6A"",""assignmentId"":""3d1ff8f3-cac1-49a9-b833-3f8ab03054e6"",""projectId"":""bea99957-1862-4ad8-9558-57b91e42ce64""}","https://test12345.live/?participantId=BA228236C0AB473D9EE59D76B07DEA6A&assignmentId=3d1ff8f3-cac1-49a9-b833-3f8ab03054e6&projectId=bea99957-1862-4ad8-9558-57b91e42ce64","","2371","","{""Q0"":2}","","[0]"
"","","","","","html-button-response","124","465812","0.0-90.0","BA228236C0AB473D9EE59D76B07DEA6A","BA228236C0AB473D9EE59D76B07DEA6A","3d1ff8f3-cac1-49a9-b833-3f8ab03054e6","bea99957-1862-4ad8-9558-57b91e42ce64","{""participantId"":""BA228236C0AB473D9EE59D76B07DEA6A"",""assignmentId"":""3d1ff8f3-cac1-49a9-b833-3f8ab03054e6"",""projectId"":""bea99957-1862-4ad8-9558-57b91e42ce64""}","https://test12345.live/?participantId=BA228236C0AB473D9EE59D76B07DEA6A&assignmentId=3d1ff8f3-cac1-49a9-b833-3f8ab03054e6&projectId=bea99957-1862-4ad8-9558-57b91e42ce64","","2588","
    <div style=""display: flex; justify-content: center; align-items: center;"">
      <img src=""images/red_deck_2.png"" style=""width: 300px; height: 300px; margin-right: 10px;"" />
      <img src=""images/blue_deck_1.png"" style=""width: 300px; height: 300px;"" />
    </div>","1","1",""
"","","","","","html-keyboard-response","125","468820","0.0-91.0-0.0","BA228236C0AB473D9EE59D76B07DEA6A","BA228236C0AB473D9EE59D76B07DEA6A","3d1ff8f3-cac1-49a9-b833-3f8ab03054e6","bea99957-1862-4ad8-9558-57b91e42ce64","{""participantId"":""BA228236C0AB473D9EE59D76B07DEA6A"",""assignmentId"":""3d1ff8f3-cac1-49a9-b833-3f8ab03054e6"",""projectId"":""bea99957-1862-4ad8-9558-57b91e42ce64""}","https://test12345.live/?participantId=BA228236C0AB473D9EE59D76B07DEA6A&assignmentId=3d1ff8f3-cac1-49a9-b833-3f8ab03054e6&projectId=bea99957-1862-4ad8-9558-57b91e42ce64","","null","<div style=""display: flex; justify-content: center; align-items: center;"">
                    <img src=""images/causal/causal_series_9/causal_series_9_a.jpg"" style=""width: 300px; height: 300px;"" />
                  </div>","null","",""
"","","","","","html-keyboard-response","126","471837","0.0-91.0-1.0","BA228236C0AB473D9EE59D76B07DEA6A","BA228236C0AB473D9EE59D76B07DEA6A","3d1ff8f3-cac1-49a9-b833-3f8ab03054e6","bea99957-1862-4ad8-9558-57b91e42ce64","{""participantId"":""BA228236C0AB473D9EE59D76B07DEA6A"",""assignmentId"":""3d1ff8f3-cac1-49a9-b833-3f8ab03054e6"",""projectId"":""bea99957-1862-4ad8-9558-57b91e42ce64""}","https://test12345.live/?participantId=BA228236C0AB473D9EE59D76B07DEA6A&assignmentId=3d1ff8f3-cac1-49a9-b833-3f8ab03054e6&projectId=bea99957-1862-4ad8-9558-57b91e42ce64","","null","<div style=""display: flex; justify-content: center; align-items: center;"">
                    <img src=""images/causal/causal_series_9/causal_series_9_b.jpg"" style=""width: 300px; height: 300px;"" />
                  </div>","null","",""
"","","","","","html-keyboard-response","127","474849","0.0-91.0-2.0","BA228236C0AB473D9EE59D76B07DEA6A","BA228236C0AB473D9EE59D76B07DEA6A","3d1ff8f3-cac1-49a9-b833-3f8ab03054e6","bea99957-1862-4ad8-9558-57b91e42ce64","{""participantId"":""BA228236C0AB473D9EE59D76B07DEA6A"",""assignmentId"":""3d1ff8f3-cac1-49a9-b833-3f8ab03054e6"",""projectId"":""bea99957-1862-4ad8-9558-57b91e42ce64""}","https://test12345.live/?participantId=BA228236C0AB473D9EE59D76B07DEA6A&assignmentId=3d1ff8f3-cac1-49a9-b833-3f8ab03054e6&projectId=bea99957-1862-4ad8-9558-57b91e42ce64","","null","<div style=""display: flex; justify-content: center; align-items: center;"">
                    <img src=""images/causal/causal_series_9/causal_series_9_c.jpg"" style=""width: 300px; height: 300px;"" />
                  </div>","null","",""
"","","","","","html-keyboard-response","128","477855","0.0-91.0-3.0","BA228236C0AB473D9EE59D76B07DEA6A","BA228236C0AB473D9EE59D76B07DEA6A","3d1ff8f3-cac1-49a9-b833-3f8ab03054e6","bea99957-1862-4ad8-9558-57b91e42ce64","{""participantId"":""BA228236C0AB473D9EE59D76B07DEA6A"",""assignmentId"":""3d1ff8f3-cac1-49a9-b833-3f8ab03054e6"",""projectId"":""bea99957-1862-4ad8-9558-57b91e42ce64""}","https://test12345.live/?participantId=BA228236C0AB473D9EE59D76B07DEA6A&assignmentId=3d1ff8f3-cac1-49a9-b833-3f8ab03054e6&projectId=bea99957-1862-4ad8-9558-57b91e42ce64","","null","<div style=""display: flex; justify-content: center; align-items: center;"">
                    <img src=""images/causal/causal_series_9/causal_series_9_d.jpg"" style=""width: 300px; height: 300px;"" />
                  </div>","null","",""
"","","","","","html-button-response","129","481071","0.0-93.0","BA228236C0AB473D9EE59D76B07DEA6A","BA228236C0AB473D9EE59D76B07DEA6A","3d1ff8f3-cac1-49a9-b833-3f8ab03054e6","bea99957-1862-4ad8-9558-57b91e42ce64","{""participantId"":""BA228236C0AB473D9EE59D76B07DEA6A"",""assignmentId"":""3d1ff8f3-cac1-49a9-b833-3f8ab03054e6"",""projectId"":""bea99957-1862-4ad8-9558-57b91e42ce64""}","https://test12345.live/?participantId=BA228236C0AB473D9EE59D76B07DEA6A&assignmentId=3d1ff8f3-cac1-49a9-b833-3f8ab03054e6&projectId=bea99957-1862-4ad8-9558-57b91e42ce64","","3211","Was there a person in the picture?","1","",""
"","","","","","survey-likert","130","484596","0.0-94.0","BA228236C0AB473D9EE59D76B07DEA6A","BA228236C0AB473D9EE59D76B07DEA6A","3d1ff8f3-cac1-49a9-b833-3f8ab03054e6","bea99957-1862-4ad8-9558-57b91e42ce64","{""participantId"":""BA228236C0AB473D9EE59D76B07DEA6A"",""assignmentId"":""3d1ff8f3-cac1-49a9-b833-3f8ab03054e6"",""projectId"":""bea99957-1862-4ad8-9558-57b91e42ce64""}","https://test12345.live/?participantId=BA228236C0AB473D9EE59D76B07DEA6A&assignmentId=3d1ff8f3-cac1-49a9-b833-3f8ab03054e6&projectId=bea99957-1862-4ad8-9558-57b91e42ce64","","3522","","{""Q0"":2}","","[0]"
"","","","","","survey-text","131","530861","0.0-95.0","BA228236C0AB473D9EE59D76B07DEA6A","BA228236C0AB473D9EE59D76B07DEA6A","3d1ff8f3-cac1-49a9-b833-3f8ab03054e6","bea99957-1862-4ad8-9558-57b91e42ce64","{""participantId"":""BA228236C0AB473D9EE59D76B07DEA6A"",""assignmentId"":""3d1ff8f3-cac1-49a9-b833-3f8ab03054e6"",""projectId"":""bea99957-1862-4ad8-9558-57b91e42ce64""}","https://test12345.live/?participantId=BA228236C0AB473D9EE59D76B07DEA6A&assignmentId=3d1ff8f3-cac1-49a9-b833-3f8ab03054e6&projectId=bea99957-1862-4ad8-9558-57b91e42ce64","","46253","","{""Q0"":""red cards were primarily people doing things and the blue deck were animated with a little bit of humor""}","",""
