"success","timeout","failed_images","failed_audio","failed_video","trial_type","trial_index","time_elapsed","internal_node_id","subject_id","study_id","session_id","view_history","rt","stimulus","response","choice"
"true","false","[]","[]","[]","preload","0","9756","0.0-0.0","B1D35171EB9140CCAA5A6097771C9EB8","940e4c0d-0d44-4d46-8d6f-6909f7981d25","5479079d-2186-49b2-89e2-e3afab6abcc2","","","","",""
"","","","","","instructions","1","12069","0.0-1.0","B1D35171EB9140CCAA5A6097771C9EB8","940e4c0d-0d44-4d46-8d6f-6909f7981d25","5479079d-2186-49b2-89e2-e3afab6abcc2","[{""page_index"":0,""viewing_time"":2312}]","2312","","",""
"","","","","","instructions","2","14728","0.0-2.0","B1D35171EB9140CCAA5A6097771C9EB8","940e4c0d-0d44-4d46-8d6f-6909f7981d25","5479079d-2186-49b2-89e2-e3afab6abcc2","[{""page_index"":0,""viewing_time"":2658}]","2658","","",""
"true","","","","","fullscreen","3","36971","0.0-3.0","B1D35171EB9140CCAA5A6097771C9EB8","940e4c0d-0d44-4d46-8d6f-6909f7981d25","5479079d-2186-49b2-89e2-e3afab6abcc2","","21229","","",""
"","","","","","instructions","4","68992","0.0-4.0","B1D35171EB9140CCAA5A6097771C9EB8","940e4c0d-0d44-4d46-8d6f-6909f7981d25","5479079d-2186-49b2-89e2-e3afab6abcc2","[{""page_index"":0,""viewing_time"":32019}]","32019","","",""
"","","","","","html-keyboard-response","5","71997","0.0-5.0","B1D35171EB9140CCAA5A6097771C9EB8","940e4c0d-0d44-4d46-8d6f-6909f7981d25","5479079d-2186-49b2-89e2-e3afab6abcc2","","null","<div style=""display: flex; justify-content: center; align-items: center;"">
                <img src=""images/causal/causal_series_13/causal_series_13_a.jpg"" style=""width: 300px; height: 300px;"" />
              </div>","null",""
"","","","","","html-keyboard-response","6","74999","0.0-6.0","B1D35171EB9140CCAA5A6097771C9EB8","940e4c0d-0d44-4d46-8d6f-6909f7981d25","5479079d-2186-49b2-89e2-e3afab6abcc2","","null","<div style=""display: flex; justify-content: center; align-items: center;"">
                <img src=""images/causal/causal_series_13/causal_series_13_b.jpg"" style=""width: 300px; height: 300px;"" />
              </div>","null",""
"","","","","","html-keyboard-response","7","78008","0.0-7.0","B1D35171EB9140CCAA5A6097771C9EB8","940e4c0d-0d44-4d46-8d6f-6909f7981d25","5479079d-2186-49b2-89e2-e3afab6abcc2","","null","<div style=""display: flex; justify-content: center; align-items: center;"">
                <img src=""images/causal/causal_series_13/causal_series_13_c.jpg"" style=""width: 300px; height: 300px;"" />
              </div>","null",""
"","","","","","html-button-response","8","80290","0.0-8.0","B1D35171EB9140CCAA5A6097771C9EB8","940e4c0d-0d44-4d46-8d6f-6909f7981d25","5479079d-2186-49b2-89e2-e3afab6abcc2","","2281","
    <div style=""display: flex; justify-content: center; align-items: center;"">
      <img src=""images/blue_deck_1.png"" style=""width: 300px; height: 300px; margin-right: 10px;"" />
      <img src=""images/red_deck_2.png"" style=""width: 300px; height: 300px;"" />
    </div>","1","1"
"","","","","","html-keyboard-response","9","83305","0.0-9.0-1.0-0.0","B1D35171EB9140CCAA5A6097771C9EB8","940e4c0d-0d44-4d46-8d6f-6909f7981d25","5479079d-2186-49b2-89e2-e3afab6abcc2","","null","<div style=""display: flex; justify-content: center; align-items: center;"">
                <img src=""images/semantic/semantic_series_13/semantic_series_13_d.jpg"" style=""width: 300px; height: 300px;"" />
              </div>","null",""
"","","","","","html-keyboard-response","10","86309","0.0-10.0","B1D35171EB9140CCAA5A6097771C9EB8","940e4c0d-0d44-4d46-8d6f-6909f7981d25","5479079d-2186-49b2-89e2-e3afab6abcc2","","null","<div style=""display: flex; justify-content: center; align-items: center;"">
                <img src=""images/other/blank.jpg"" style=""width: 300px; height: 300px;"" />
              </div>","null",""
"","","","","","html-keyboard-response","11","89323","0.0-11.0","B1D35171EB9140CCAA5A6097771C9EB8","940e4c0d-0d44-4d46-8d6f-6909f7981d25","5479079d-2186-49b2-89e2-e3afab6abcc2","","null","<div style=""display: flex; justify-content: center; align-items: center;"">
                <img src=""images/causal/causal_series_11/causal_series_11_a.jpg"" style=""width: 300px; height: 300px;"" />
              </div>","null",""
"","","","","","html-keyboard-response","12","92338","0.0-12.0","B1D35171EB9140CCAA5A6097771C9EB8","940e4c0d-0d44-4d46-8d6f-6909f7981d25","5479079d-2186-49b2-89e2-e3afab6abcc2","","null","<div style=""display: flex; justify-content: center; align-items: center;"">
                <img src=""images/causal/causal_series_11/causal_series_11_b.jpg"" style=""width: 300px; height: 300px;"" />
              </div>","null",""
"","","","","","html-keyboard-response","13","95343","0.0-13.0","B1D35171EB9140CCAA5A6097771C9EB8","940e4c0d-0d44-4d46-8d6f-6909f7981d25","5479079d-2186-49b2-89e2-e3afab6abcc2","","null","<div style=""display: flex; justify-content: center; align-items: center;"">
                <img src=""images/causal/causal_series_11/causal_series_11_c.jpg"" style=""width: 300px; height: 300px;"" />
              </div>","null",""
"","","","","","html-button-response","14","96578","0.0-14.0","B1D35171EB9140CCAA5A6097771C9EB8","940e4c0d-0d44-4d46-8d6f-6909f7981d25","5479079d-2186-49b2-89e2-e3afab6abcc2","","1234","
    <div style=""display: flex; justify-content: center; align-items: center;"">
      <img src=""images/blue_deck_1.png"" style=""width: 300px; height: 300px; margin-right: 10px;"" />
      <img src=""images/red_deck_2.png"" style=""width: 300px; height: 300px;"" />
    </div>","0","0"
"","","","","","html-keyboard-response","15","99587","0.0-15.0-0.0-0.0","B1D35171EB9140CCAA5A6097771C9EB8","940e4c0d-0d44-4d46-8d6f-6909f7981d25","5479079d-2186-49b2-89e2-e3afab6abcc2","","null","<div style=""display: flex; justify-content: center; align-items: center;"">
                <img src=""images/causal/causal_series_11/causal_series_11_d.jpg"" style=""width: 300px; height: 300px;"" />
              </div>","null",""
"","","","","","html-keyboard-response","16","102591","0.0-16.0","B1D35171EB9140CCAA5A6097771C9EB8","940e4c0d-0d44-4d46-8d6f-6909f7981d25","5479079d-2186-49b2-89e2-e3afab6abcc2","","null","<div style=""display: flex; justify-content: center; align-items: center;"">
                <img src=""images/other/blank.jpg"" style=""width: 300px; height: 300px;"" />
              </div>","null",""
"","","","","","html-keyboard-response","17","105596","0.0-17.0","B1D35171EB9140CCAA5A6097771C9EB8","940e4c0d-0d44-4d46-8d6f-6909f7981d25","5479079d-2186-49b2-89e2-e3afab6abcc2","","null","<div style=""display: flex; justify-content: center; align-items: center;"">
                <img src=""images/causal/causal_series_10/causal_series_10_a.jpg"" style=""width: 300px; height: 300px;"" />
              </div>","null",""
"","","","","","html-keyboard-response","18","108609","0.0-18.0","B1D35171EB9140CCAA5A6097771C9EB8","940e4c0d-0d44-4d46-8d6f-6909f7981d25","5479079d-2186-49b2-89e2-e3afab6abcc2","","null","<div style=""display: flex; justify-content: center; align-items: center;"">
                <img src=""images/causal/causal_series_10/causal_series_10_b.jpg"" style=""width: 300px; height: 300px;"" />
              </div>","null",""
"","","","","","html-keyboard-response","19","111623","0.0-19.0","B1D35171EB9140CCAA5A6097771C9EB8","940e4c0d-0d44-4d46-8d6f-6909f7981d25","5479079d-2186-49b2-89e2-e3afab6abcc2","","null","<div style=""display: flex; justify-content: center; align-items: center;"">
                <img src=""images/causal/causal_series_10/causal_series_10_c.jpg"" style=""width: 300px; height: 300px;"" />
              </div>","null",""
"","","","","","html-button-response","20","112693","0.0-20.0","B1D35171EB9140CCAA5A6097771C9EB8","940e4c0d-0d44-4d46-8d6f-6909f7981d25","5479079d-2186-49b2-89e2-e3afab6abcc2","","1070","
    <div style=""display: flex; justify-content: center; align-items: center;"">
      <img src=""images/blue_deck_1.png"" style=""width: 300px; height: 300px; margin-right: 10px;"" />
      <img src=""images/red_deck_2.png"" style=""width: 300px; height: 300px;"" />
    </div>","1","1"
"","","","","","html-keyboard-response","21","115699","0.0-21.0-1.0-0.0","B1D35171EB9140CCAA5A6097771C9EB8","940e4c0d-0d44-4d46-8d6f-6909f7981d25","5479079d-2186-49b2-89e2-e3afab6abcc2","","null","<div style=""display: flex; justify-content: center; align-items: center;"">
                <img src=""images/semantic/semantic_series_10/semantic_series_10_d.jpg"" style=""width: 300px; height: 300px;"" />
              </div>","null",""
"","","","","","html-keyboard-response","22","118709","0.0-22.0","B1D35171EB9140CCAA5A6097771C9EB8","940e4c0d-0d44-4d46-8d6f-6909f7981d25","5479079d-2186-49b2-89e2-e3afab6abcc2","","null","<div style=""display: flex; justify-content: center; align-items: center;"">
                <img src=""images/other/blank.jpg"" style=""width: 300px; height: 300px;"" />
              </div>","null",""
"","","","","","html-keyboard-response","23","121723","0.0-23.0","B1D35171EB9140CCAA5A6097771C9EB8","940e4c0d-0d44-4d46-8d6f-6909f7981d25","5479079d-2186-49b2-89e2-e3afab6abcc2","","null","<div style=""display: flex; justify-content: center; align-items: center;"">
                <img src=""images/causal/causal_series_5/causal_series_5_a.jpg"" style=""width: 300px; height: 300px;"" />
              </div>","null",""
"","","","","","html-keyboard-response","24","124735","0.0-24.0","B1D35171EB9140CCAA5A6097771C9EB8","940e4c0d-0d44-4d46-8d6f-6909f7981d25","5479079d-2186-49b2-89e2-e3afab6abcc2","","null","<div style=""display: flex; justify-content: center; align-items: center;"">
                <img src=""images/causal/causal_series_5/causal_series_5_b.jpg"" style=""width: 300px; height: 300px;"" />
              </div>","null",""
"","","","","","html-keyboard-response","25","127748","0.0-25.0","B1D35171EB9140CCAA5A6097771C9EB8","940e4c0d-0d44-4d46-8d6f-6909f7981d25","5479079d-2186-49b2-89e2-e3afab6abcc2","","null","<div style=""display: flex; justify-content: center; align-items: center;"">
                <img src=""images/causal/causal_series_5/causal_series_5_c.jpg"" style=""width: 300px; height: 300px;"" />
              </div>","null",""
"","","","","","html-button-response","26","129107","0.0-26.0","B1D35171EB9140CCAA5A6097771C9EB8","940e4c0d-0d44-4d46-8d6f-6909f7981d25","5479079d-2186-49b2-89e2-e3afab6abcc2","","1358","
    <div style=""display: flex; justify-content: center; align-items: center;"">
      <img src=""images/blue_deck_1.png"" style=""width: 300px; height: 300px; margin-right: 10px;"" />
      <img src=""images/red_deck_2.png"" style=""width: 300px; height: 300px;"" />
    </div>","0","0"
"","","","","","html-keyboard-response","27","132114","0.0-27.0-0.0-0.0","B1D35171EB9140CCAA5A6097771C9EB8","940e4c0d-0d44-4d46-8d6f-6909f7981d25","5479079d-2186-49b2-89e2-e3afab6abcc2","","null","<div style=""display: flex; justify-content: center; align-items: center;"">
                <img src=""images/causal/causal_series_5/causal_series_5_d.jpg"" style=""width: 300px; height: 300px;"" />
              </div>","null",""
"","","","","","html-keyboard-response","28","135117","0.0-28.0","B1D35171EB9140CCAA5A6097771C9EB8","940e4c0d-0d44-4d46-8d6f-6909f7981d25","5479079d-2186-49b2-89e2-e3afab6abcc2","","null","<div style=""display: flex; justify-content: center; align-items: center;"">
                <img src=""images/other/blank.jpg"" style=""width: 300px; height: 300px;"" />
              </div>","null",""
"","","","","","html-keyboard-response","29","138127","0.0-29.0","B1D35171EB9140CCAA5A6097771C9EB8","940e4c0d-0d44-4d46-8d6f-6909f7981d25","5479079d-2186-49b2-89e2-e3afab6abcc2","","null","<div style=""display: flex; justify-content: center; align-items: center;"">
                <img src=""images/causal/causal_series_2/causal_series_2_a.jpg"" style=""width: 300px; height: 300px;"" />
              </div>","null",""
"","","","","","html-keyboard-response","30","141130","0.0-30.0","B1D35171EB9140CCAA5A6097771C9EB8","940e4c0d-0d44-4d46-8d6f-6909f7981d25","5479079d-2186-49b2-89e2-e3afab6abcc2","","null","<div style=""display: flex; justify-content: center; align-items: center;"">
                <img src=""images/causal/causal_series_2/causal_series_2_b.jpg"" style=""width: 300px; height: 300px;"" />
              </div>","null",""
"","","","","","html-keyboard-response","31","144134","0.0-31.0","B1D35171EB9140CCAA5A6097771C9EB8","940e4c0d-0d44-4d46-8d6f-6909f7981d25","5479079d-2186-49b2-89e2-e3afab6abcc2","","null","<div style=""display: flex; justify-content: center; align-items: center;"">
                <img src=""images/causal/causal_series_2/causal_series_2_c.jpg"" style=""width: 300px; height: 300px;"" />
              </div>","null",""
"","","","","","html-button-response","32","145327","0.0-32.0","B1D35171EB9140CCAA5A6097771C9EB8","940e4c0d-0d44-4d46-8d6f-6909f7981d25","5479079d-2186-49b2-89e2-e3afab6abcc2","","1192","
    <div style=""display: flex; justify-content: center; align-items: center;"">
      <img src=""images/blue_deck_1.png"" style=""width: 300px; height: 300px; margin-right: 10px;"" />
      <img src=""images/red_deck_2.png"" style=""width: 300px; height: 300px;"" />
    </div>","1","1"
"","","","","","html-keyboard-response","33","148334","0.0-33.0-1.0-0.0","B1D35171EB9140CCAA5A6097771C9EB8","940e4c0d-0d44-4d46-8d6f-6909f7981d25","5479079d-2186-49b2-89e2-e3afab6abcc2","","null","<div style=""display: flex; justify-content: center; align-items: center;"">
                <img src=""images/semantic/semantic_series_2/semantic_series_2_d.jpg"" style=""width: 300px; height: 300px;"" />
              </div>","null",""
"","","","","","html-keyboard-response","34","151338","0.0-34.0","B1D35171EB9140CCAA5A6097771C9EB8","940e4c0d-0d44-4d46-8d6f-6909f7981d25","5479079d-2186-49b2-89e2-e3afab6abcc2","","null","<div style=""display: flex; justify-content: center; align-items: center;"">
                <img src=""images/other/blank.jpg"" style=""width: 300px; height: 300px;"" />
              </div>","null",""
"","","","","","html-keyboard-response","35","154351","0.0-35.0","B1D35171EB9140CCAA5A6097771C9EB8","940e4c0d-0d44-4d46-8d6f-6909f7981d25","5479079d-2186-49b2-89e2-e3afab6abcc2","","null","<div style=""display: flex; justify-content: center; align-items: center;"">
                <img src=""images/causal/causal_series_12/causal_series_12_a.jpg"" style=""width: 300px; height: 300px;"" />
              </div>","null",""
"","","","","","html-keyboard-response","36","157358","0.0-36.0","B1D35171EB9140CCAA5A6097771C9EB8","940e4c0d-0d44-4d46-8d6f-6909f7981d25","5479079d-2186-49b2-89e2-e3afab6abcc2","","null","<div style=""display: flex; justify-content: center; align-items: center;"">
                <img src=""images/causal/causal_series_12/causal_series_12_b.jpg"" style=""width: 300px; height: 300px;"" />
              </div>","null",""
"","","","","","html-keyboard-response","37","160369","0.0-37.0","B1D35171EB9140CCAA5A6097771C9EB8","940e4c0d-0d44-4d46-8d6f-6909f7981d25","5479079d-2186-49b2-89e2-e3afab6abcc2","","null","<div style=""display: flex; justify-content: center; align-items: center;"">
                <img src=""images/causal/causal_series_12/causal_series_12_c.jpg"" style=""width: 300px; height: 300px;"" />
              </div>","null",""
"","","","","","html-button-response","38","161537","0.0-38.0","B1D35171EB9140CCAA5A6097771C9EB8","940e4c0d-0d44-4d46-8d6f-6909f7981d25","5479079d-2186-49b2-89e2-e3afab6abcc2","","1168","
    <div style=""display: flex; justify-content: center; align-items: center;"">
      <img src=""images/blue_deck_1.png"" style=""width: 300px; height: 300px; margin-right: 10px;"" />
      <img src=""images/red_deck_2.png"" style=""width: 300px; height: 300px;"" />
    </div>","0","0"
"","","","","","html-keyboard-response","39","164540","0.0-39.0-0.0-0.0","B1D35171EB9140CCAA5A6097771C9EB8","940e4c0d-0d44-4d46-8d6f-6909f7981d25","5479079d-2186-49b2-89e2-e3afab6abcc2","","null","<div style=""display: flex; justify-content: center; align-items: center;"">
                <img src=""images/causal/causal_series_12/causal_series_12_d.jpg"" style=""width: 300px; height: 300px;"" />
              </div>","null",""
"","","","","","html-keyboard-response","40","167549","0.0-40.0","B1D35171EB9140CCAA5A6097771C9EB8","940e4c0d-0d44-4d46-8d6f-6909f7981d25","5479079d-2186-49b2-89e2-e3afab6abcc2","","null","<div style=""display: flex; justify-content: center; align-items: center;"">
                <img src=""images/other/blank.jpg"" style=""width: 300px; height: 300px;"" />
              </div>","null",""
"","","","","","html-keyboard-response","41","170559","0.0-41.0","B1D35171EB9140CCAA5A6097771C9EB8","940e4c0d-0d44-4d46-8d6f-6909f7981d25","5479079d-2186-49b2-89e2-e3afab6abcc2","","null","<div style=""display: flex; justify-content: center; align-items: center;"">
                <img src=""images/causal/causal_series_8/causal_series_8_a.jpg"" style=""width: 300px; height: 300px;"" />
              </div>","null",""
"","","","","","html-keyboard-response","42","173570","0.0-42.0","B1D35171EB9140CCAA5A6097771C9EB8","940e4c0d-0d44-4d46-8d6f-6909f7981d25","5479079d-2186-49b2-89e2-e3afab6abcc2","","null","<div style=""display: flex; justify-content: center; align-items: center;"">
                <img src=""images/causal/causal_series_8/causal_series_8_b.jpg"" style=""width: 300px; height: 300px;"" />
              </div>","null",""
"","","","","","html-keyboard-response","43","176583","0.0-43.0","B1D35171EB9140CCAA5A6097771C9EB8","940e4c0d-0d44-4d46-8d6f-6909f7981d25","5479079d-2186-49b2-89e2-e3afab6abcc2","","null","<div style=""display: flex; justify-content: center; align-items: center;"">
                <img src=""images/causal/causal_series_8/causal_series_8_c.jpg"" style=""width: 300px; height: 300px;"" />
              </div>","null",""
"","","","","","html-button-response","44","179375","0.0-44.0","B1D35171EB9140CCAA5A6097771C9EB8","940e4c0d-0d44-4d46-8d6f-6909f7981d25","5479079d-2186-49b2-89e2-e3afab6abcc2","","2792","
    <div style=""display: flex; justify-content: center; align-items: center;"">
      <img src=""images/blue_deck_1.png"" style=""width: 300px; height: 300px; margin-right: 10px;"" />
      <img src=""images/red_deck_2.png"" style=""width: 300px; height: 300px;"" />
    </div>","1","1"
"","","","","","html-keyboard-response","45","182378","0.0-45.0-1.0-0.0","B1D35171EB9140CCAA5A6097771C9EB8","940e4c0d-0d44-4d46-8d6f-6909f7981d25","5479079d-2186-49b2-89e2-e3afab6abcc2","","null","<div style=""display: flex; justify-content: center; align-items: center;"">
                <img src=""images/semantic/semantic_series_8/semantic_series_8_d.jpg"" style=""width: 300px; height: 300px;"" />
              </div>","null",""
"","","","","","html-keyboard-response","46","185381","0.0-46.0","B1D35171EB9140CCAA5A6097771C9EB8","940e4c0d-0d44-4d46-8d6f-6909f7981d25","5479079d-2186-49b2-89e2-e3afab6abcc2","","null","<div style=""display: flex; justify-content: center; align-items: center;"">
                <img src=""images/other/blank.jpg"" style=""width: 300px; height: 300px;"" />
              </div>","null",""
"","","","","","html-keyboard-response","47","188387","0.0-47.0","B1D35171EB9140CCAA5A6097771C9EB8","940e4c0d-0d44-4d46-8d6f-6909f7981d25","5479079d-2186-49b2-89e2-e3afab6abcc2","","null","<div style=""display: flex; justify-content: center; align-items: center;"">
                <img src=""images/causal/causal_series_15/causal_series_15_a.jpg"" style=""width: 300px; height: 300px;"" />
              </div>","null",""
"","","","","","html-keyboard-response","48","191393","0.0-48.0","B1D35171EB9140CCAA5A6097771C9EB8","940e4c0d-0d44-4d46-8d6f-6909f7981d25","5479079d-2186-49b2-89e2-e3afab6abcc2","","null","<div style=""display: flex; justify-content: center; align-items: center;"">
                <img src=""images/causal/causal_series_15/causal_series_15_b.jpg"" style=""width: 300px; height: 300px;"" />
              </div>","null",""
"","","","","","html-keyboard-response","49","194396","0.0-49.0","B1D35171EB9140CCAA5A6097771C9EB8","940e4c0d-0d44-4d46-8d6f-6909f7981d25","5479079d-2186-49b2-89e2-e3afab6abcc2","","null","<div style=""display: flex; justify-content: center; align-items: center;"">
                <img src=""images/causal/causal_series_15/causal_series_15_c.jpg"" style=""width: 300px; height: 300px;"" />
              </div>","null",""
"","","","","","html-button-response","50","195648","0.0-50.0","B1D35171EB9140CCAA5A6097771C9EB8","940e4c0d-0d44-4d46-8d6f-6909f7981d25","5479079d-2186-49b2-89e2-e3afab6abcc2","","1251","
    <div style=""display: flex; justify-content: center; align-items: center;"">
      <img src=""images/blue_deck_1.png"" style=""width: 300px; height: 300px; margin-right: 10px;"" />
      <img src=""images/red_deck_2.png"" style=""width: 300px; height: 300px;"" />
    </div>","0","0"
"","","","","","html-keyboard-response","51","198650","0.0-51.0-0.0-0.0","B1D35171EB9140CCAA5A6097771C9EB8","940e4c0d-0d44-4d46-8d6f-6909f7981d25","5479079d-2186-49b2-89e2-e3afab6abcc2","","null","<div style=""display: flex; justify-content: center; align-items: center;"">
                <img src=""images/causal/causal_series_15/causal_series_15_d.jpg"" style=""width: 300px; height: 300px;"" />
              </div>","null",""
"","","","","","html-keyboard-response","52","201652","0.0-52.0","B1D35171EB9140CCAA5A6097771C9EB8","940e4c0d-0d44-4d46-8d6f-6909f7981d25","5479079d-2186-49b2-89e2-e3afab6abcc2","","null","<div style=""display: flex; justify-content: center; align-items: center;"">
                <img src=""images/other/blank.jpg"" style=""width: 300px; height: 300px;"" />
              </div>","null",""
"","","","","","html-keyboard-response","53","204653","0.0-53.0","B1D35171EB9140CCAA5A6097771C9EB8","940e4c0d-0d44-4d46-8d6f-6909f7981d25","5479079d-2186-49b2-89e2-e3afab6abcc2","","null","<div style=""display: flex; justify-content: center; align-items: center;"">
                <img src=""images/causal/causal_series_3/causal_series_3_a.jpg"" style=""width: 300px; height: 300px;"" />
              </div>","null",""
"","","","","","html-keyboard-response","54","207655","0.0-54.0","B1D35171EB9140CCAA5A6097771C9EB8","940e4c0d-0d44-4d46-8d6f-6909f7981d25","5479079d-2186-49b2-89e2-e3afab6abcc2","","null","<div style=""display: flex; justify-content: center; align-items: center;"">
                <img src=""images/causal/causal_series_3/causal_series_3_b.jpg"" style=""width: 300px; height: 300px;"" />
              </div>","null",""
"","","","","","html-keyboard-response","55","210662","0.0-55.0","B1D35171EB9140CCAA5A6097771C9EB8","940e4c0d-0d44-4d46-8d6f-6909f7981d25","5479079d-2186-49b2-89e2-e3afab6abcc2","","null","<div style=""display: flex; justify-content: center; align-items: center;"">
                <img src=""images/causal/causal_series_3/causal_series_3_c.jpg"" style=""width: 300px; height: 300px;"" />
              </div>","null",""
"","","","","","html-button-response","56","211649","0.0-56.0","B1D35171EB9140CCAA5A6097771C9EB8","940e4c0d-0d44-4d46-8d6f-6909f7981d25","5479079d-2186-49b2-89e2-e3afab6abcc2","","987","
    <div style=""display: flex; justify-content: center; align-items: center;"">
      <img src=""images/blue_deck_1.png"" style=""width: 300px; height: 300px; margin-right: 10px;"" />
      <img src=""images/red_deck_2.png"" style=""width: 300px; height: 300px;"" />
    </div>","0","0"
"","","","","","html-keyboard-response","57","214651","0.0-57.0-0.0-0.0","B1D35171EB9140CCAA5A6097771C9EB8","940e4c0d-0d44-4d46-8d6f-6909f7981d25","5479079d-2186-49b2-89e2-e3afab6abcc2","","null","<div style=""display: flex; justify-content: center; align-items: center;"">
                <img src=""images/causal/causal_series_3/causal_series_3_d.jpg"" style=""width: 300px; height: 300px;"" />
              </div>","null",""
"","","","","","html-keyboard-response","58","217659","0.0-58.0","B1D35171EB9140CCAA5A6097771C9EB8","940e4c0d-0d44-4d46-8d6f-6909f7981d25","5479079d-2186-49b2-89e2-e3afab6abcc2","","null","<div style=""display: flex; justify-content: center; align-items: center;"">
                <img src=""images/other/blank.jpg"" style=""width: 300px; height: 300px;"" />
              </div>","null",""
"","","","","","html-keyboard-response","59","220660","0.0-59.0","B1D35171EB9140CCAA5A6097771C9EB8","940e4c0d-0d44-4d46-8d6f-6909f7981d25","5479079d-2186-49b2-89e2-e3afab6abcc2","","null","<div style=""display: flex; justify-content: center; align-items: center;"">
                <img src=""images/causal/causal_series_17/causal_series_17_a.jpg"" style=""width: 300px; height: 300px;"" />
              </div>","null",""
"","","","","","html-keyboard-response","60","223662","0.0-60.0","B1D35171EB9140CCAA5A6097771C9EB8","940e4c0d-0d44-4d46-8d6f-6909f7981d25","5479079d-2186-49b2-89e2-e3afab6abcc2","","null","<div style=""display: flex; justify-content: center; align-items: center;"">
                <img src=""images/causal/causal_series_17/causal_series_17_b.jpg"" style=""width: 300px; height: 300px;"" />
              </div>","null",""
"","","","","","html-keyboard-response","61","226672","0.0-61.0","B1D35171EB9140CCAA5A6097771C9EB8","940e4c0d-0d44-4d46-8d6f-6909f7981d25","5479079d-2186-49b2-89e2-e3afab6abcc2","","null","<div style=""display: flex; justify-content: center; align-items: center;"">
                <img src=""images/causal/causal_series_17/causal_series_17_c.jpg"" style=""width: 300px; height: 300px;"" />
              </div>","null",""
"","","","","","html-button-response","62","227561","0.0-62.0","B1D35171EB9140CCAA5A6097771C9EB8","940e4c0d-0d44-4d46-8d6f-6909f7981d25","5479079d-2186-49b2-89e2-e3afab6abcc2","","888","
    <div style=""display: flex; justify-content: center; align-items: center;"">
      <img src=""images/blue_deck_1.png"" style=""width: 300px; height: 300px; margin-right: 10px;"" />
      <img src=""images/red_deck_2.png"" style=""width: 300px; height: 300px;"" />
    </div>","1","1"
"","","","","","html-keyboard-response","63","230566","0.0-63.0-1.0-0.0","B1D35171EB9140CCAA5A6097771C9EB8","940e4c0d-0d44-4d46-8d6f-6909f7981d25","5479079d-2186-49b2-89e2-e3afab6abcc2","","null","<div style=""display: flex; justify-content: center; align-items: center;"">
                <img src=""images/semantic/semantic_series_17/semantic_series_17_d.jpg"" style=""width: 300px; height: 300px;"" />
              </div>","null",""
"","","","","","html-keyboard-response","64","233582","0.0-64.0","B1D35171EB9140CCAA5A6097771C9EB8","940e4c0d-0d44-4d46-8d6f-6909f7981d25","5479079d-2186-49b2-89e2-e3afab6abcc2","","null","<div style=""display: flex; justify-content: center; align-items: center;"">
                <img src=""images/other/blank.jpg"" style=""width: 300px; height: 300px;"" />
              </div>","null",""
"","","","","","html-keyboard-response","65","236587","0.0-65.0","B1D35171EB9140CCAA5A6097771C9EB8","940e4c0d-0d44-4d46-8d6f-6909f7981d25","5479079d-2186-49b2-89e2-e3afab6abcc2","","null","<div style=""display: flex; justify-content: center; align-items: center;"">
                <img src=""images/causal/causal_series_14/causal_series_14_a.jpg"" style=""width: 300px; height: 300px;"" />
              </div>","null",""
"","","","","","html-keyboard-response","66","239600","0.0-66.0","B1D35171EB9140CCAA5A6097771C9EB8","940e4c0d-0d44-4d46-8d6f-6909f7981d25","5479079d-2186-49b2-89e2-e3afab6abcc2","","null","<div style=""display: flex; justify-content: center; align-items: center;"">
                <img src=""images/causal/causal_series_14/causal_series_14_b.jpg"" style=""width: 300px; height: 300px;"" />
              </div>","null",""
"","","","","","html-keyboard-response","67","242602","0.0-67.0","B1D35171EB9140CCAA5A6097771C9EB8","940e4c0d-0d44-4d46-8d6f-6909f7981d25","5479079d-2186-49b2-89e2-e3afab6abcc2","","null","<div style=""display: flex; justify-content: center; align-items: center;"">
                <img src=""images/causal/causal_series_14/causal_series_14_c.jpg"" style=""width: 300px; height: 300px;"" />
              </div>","null",""
"","","","","","html-button-response","68","245551","0.0-68.0","B1D35171EB9140CCAA5A6097771C9EB8","940e4c0d-0d44-4d46-8d6f-6909f7981d25","5479079d-2186-49b2-89e2-e3afab6abcc2","","2949","
    <div style=""display: flex; justify-content: center; align-items: center;"">
      <img src=""images/blue_deck_1.png"" style=""width: 300px; height: 300px; margin-right: 10px;"" />
      <img src=""images/red_deck_2.png"" style=""width: 300px; height: 300px;"" />
    </div>","1","1"
"","","","","","html-keyboard-response","69","248565","0.0-69.0-1.0-0.0","B1D35171EB9140CCAA5A6097771C9EB8","940e4c0d-0d44-4d46-8d6f-6909f7981d25","5479079d-2186-49b2-89e2-e3afab6abcc2","","null","<div style=""display: flex; justify-content: center; align-items: center;"">
                <img src=""images/semantic/semantic_series_14/semantic_series_14_d.jpg"" style=""width: 300px; height: 300px;"" />
              </div>","null",""
"","","","","","html-keyboard-response","70","251569","0.0-70.0","B1D35171EB9140CCAA5A6097771C9EB8","940e4c0d-0d44-4d46-8d6f-6909f7981d25","5479079d-2186-49b2-89e2-e3afab6abcc2","","null","<div style=""display: flex; justify-content: center; align-items: center;"">
                <img src=""images/other/blank.jpg"" style=""width: 300px; height: 300px;"" />
              </div>","null",""
"","","","","","html-keyboard-response","71","254581","0.0-71.0","B1D35171EB9140CCAA5A6097771C9EB8","940e4c0d-0d44-4d46-8d6f-6909f7981d25","5479079d-2186-49b2-89e2-e3afab6abcc2","","null","<div style=""display: flex; justify-content: center; align-items: center;"">
                <img src=""images/causal/causal_series_18/causal_series_18_a.jpg"" style=""width: 300px; height: 300px;"" />
              </div>","null",""
"","","","","","html-keyboard-response","72","257584","0.0-72.0","B1D35171EB9140CCAA5A6097771C9EB8","940e4c0d-0d44-4d46-8d6f-6909f7981d25","5479079d-2186-49b2-89e2-e3afab6abcc2","","null","<div style=""display: flex; justify-content: center; align-items: center;"">
                <img src=""images/causal/causal_series_18/causal_series_18_b.jpg"" style=""width: 300px; height: 300px;"" />
              </div>","null",""
"","","","","","html-keyboard-response","73","260585","0.0-73.0","B1D35171EB9140CCAA5A6097771C9EB8","940e4c0d-0d44-4d46-8d6f-6909f7981d25","5479079d-2186-49b2-89e2-e3afab6abcc2","","null","<div style=""display: flex; justify-content: center; align-items: center;"">
                <img src=""images/causal/causal_series_18/causal_series_18_c.jpg"" style=""width: 300px; height: 300px;"" />
              </div>","null",""
"","","","","","html-button-response","74","262418","0.0-74.0","B1D35171EB9140CCAA5A6097771C9EB8","940e4c0d-0d44-4d46-8d6f-6909f7981d25","5479079d-2186-49b2-89e2-e3afab6abcc2","","1833","
    <div style=""display: flex; justify-content: center; align-items: center;"">
      <img src=""images/blue_deck_1.png"" style=""width: 300px; height: 300px; margin-right: 10px;"" />
      <img src=""images/red_deck_2.png"" style=""width: 300px; height: 300px;"" />
    </div>","0","0"
"","","","","","html-keyboard-response","75","265421","0.0-75.0-0.0-0.0","B1D35171EB9140CCAA5A6097771C9EB8","940e4c0d-0d44-4d46-8d6f-6909f7981d25","5479079d-2186-49b2-89e2-e3afab6abcc2","","null","<div style=""display: flex; justify-content: center; align-items: center;"">
                <img src=""images/causal/causal_series_18/causal_series_18_d.jpg"" style=""width: 300px; height: 300px;"" />
              </div>","null",""
"","","","","","html-keyboard-response","76","268427","0.0-76.0","B1D35171EB9140CCAA5A6097771C9EB8","940e4c0d-0d44-4d46-8d6f-6909f7981d25","5479079d-2186-49b2-89e2-e3afab6abcc2","","null","<div style=""display: flex; justify-content: center; align-items: center;"">
                <img src=""images/other/blank.jpg"" style=""width: 300px; height: 300px;"" />
              </div>","null",""
"","","","","","html-keyboard-response","77","271431","0.0-77.0","B1D35171EB9140CCAA5A6097771C9EB8","940e4c0d-0d44-4d46-8d6f-6909f7981d25","5479079d-2186-49b2-89e2-e3afab6abcc2","","null","<div style=""display: flex; justify-content: center; align-items: center;"">
                <img src=""images/causal/causal_series_16/causal_series_16_a.jpg"" style=""width: 300px; height: 300px;"" />
              </div>","null",""
"","","","","","html-keyboard-response","78","274444","0.0-78.0","B1D35171EB9140CCAA5A6097771C9EB8","940e4c0d-0d44-4d46-8d6f-6909f7981d25","5479079d-2186-49b2-89e2-e3afab6abcc2","","null","<div style=""display: flex; justify-content: center; align-items: center;"">
                <img src=""images/causal/causal_series_16/causal_series_16_b.jpg"" style=""width: 300px; height: 300px;"" />
              </div>","null",""
"","","","","","html-keyboard-response","79","277458","0.0-79.0","B1D35171EB9140CCAA5A6097771C9EB8","940e4c0d-0d44-4d46-8d6f-6909f7981d25","5479079d-2186-49b2-89e2-e3afab6abcc2","","null","<div style=""display: flex; justify-content: center; align-items: center;"">
                <img src=""images/causal/causal_series_16/causal_series_16_c.jpg"" style=""width: 300px; height: 300px;"" />
              </div>","null",""
"","","","","","html-button-response","80","278369","0.0-80.0","B1D35171EB9140CCAA5A6097771C9EB8","940e4c0d-0d44-4d46-8d6f-6909f7981d25","5479079d-2186-49b2-89e2-e3afab6abcc2","","910","
    <div style=""display: flex; justify-content: center; align-items: center;"">
      <img src=""images/blue_deck_1.png"" style=""width: 300px; height: 300px; margin-right: 10px;"" />
      <img src=""images/red_deck_2.png"" style=""width: 300px; height: 300px;"" />
    </div>","0","0"
"","","","","","html-keyboard-response","81","281376","0.0-81.0-0.0-0.0","B1D35171EB9140CCAA5A6097771C9EB8","940e4c0d-0d44-4d46-8d6f-6909f7981d25","5479079d-2186-49b2-89e2-e3afab6abcc2","","null","<div style=""display: flex; justify-content: center; align-items: center;"">
                <img src=""images/causal/causal_series_16/causal_series_16_d.jpg"" style=""width: 300px; height: 300px;"" />
              </div>","null",""
"","","","","","html-keyboard-response","82","284385","0.0-82.0","B1D35171EB9140CCAA5A6097771C9EB8","940e4c0d-0d44-4d46-8d6f-6909f7981d25","5479079d-2186-49b2-89e2-e3afab6abcc2","","null","<div style=""display: flex; justify-content: center; align-items: center;"">
                <img src=""images/other/blank.jpg"" style=""width: 300px; height: 300px;"" />
              </div>","null",""
"","","","","","html-keyboard-response","83","287392","0.0-83.0","B1D35171EB9140CCAA5A6097771C9EB8","940e4c0d-0d44-4d46-8d6f-6909f7981d25","5479079d-2186-49b2-89e2-e3afab6abcc2","","null","<div style=""display: flex; justify-content: center; align-items: center;"">
                <img src=""images/causal/causal_series_1/causal_series_1_a.jpg"" style=""width: 300px; height: 300px;"" />
              </div>","null",""
"","","","","","html-keyboard-response","84","290402","0.0-84.0","B1D35171EB9140CCAA5A6097771C9EB8","940e4c0d-0d44-4d46-8d6f-6909f7981d25","5479079d-2186-49b2-89e2-e3afab6abcc2","","null","<div style=""display: flex; justify-content: center; align-items: center;"">
                <img src=""images/causal/causal_series_1/causal_series_1_b.jpg"" style=""width: 300px; height: 300px;"" />
              </div>","null",""
"","","","","","html-keyboard-response","85","293411","0.0-85.0","B1D35171EB9140CCAA5A6097771C9EB8","940e4c0d-0d44-4d46-8d6f-6909f7981d25","5479079d-2186-49b2-89e2-e3afab6abcc2","","null","<div style=""display: flex; justify-content: center; align-items: center;"">
                <img src=""images/causal/causal_series_1/causal_series_1_c.jpg"" style=""width: 300px; height: 300px;"" />
              </div>","null",""
"","","","","","html-button-response","86","294406","0.0-86.0","B1D35171EB9140CCAA5A6097771C9EB8","940e4c0d-0d44-4d46-8d6f-6909f7981d25","5479079d-2186-49b2-89e2-e3afab6abcc2","","995","
    <div style=""display: flex; justify-content: center; align-items: center;"">
      <img src=""images/blue_deck_1.png"" style=""width: 300px; height: 300px; margin-right: 10px;"" />
      <img src=""images/red_deck_2.png"" style=""width: 300px; height: 300px;"" />
    </div>","0","0"
"","","","","","html-keyboard-response","87","297413","0.0-87.0-0.0-0.0","B1D35171EB9140CCAA5A6097771C9EB8","940e4c0d-0d44-4d46-8d6f-6909f7981d25","5479079d-2186-49b2-89e2-e3afab6abcc2","","null","<div style=""display: flex; justify-content: center; align-items: center;"">
                <img src=""images/causal/causal_series_1/causal_series_1_d.jpg"" style=""width: 300px; height: 300px;"" />
              </div>","null",""
"","","","","","html-keyboard-response","88","300420","0.0-88.0","B1D35171EB9140CCAA5A6097771C9EB8","940e4c0d-0d44-4d46-8d6f-6909f7981d25","5479079d-2186-49b2-89e2-e3afab6abcc2","","null","<div style=""display: flex; justify-content: center; align-items: center;"">
                <img src=""images/other/blank.jpg"" style=""width: 300px; height: 300px;"" />
              </div>","null",""
"","","","","","html-keyboard-response","89","303431","0.0-89.0","B1D35171EB9140CCAA5A6097771C9EB8","940e4c0d-0d44-4d46-8d6f-6909f7981d25","5479079d-2186-49b2-89e2-e3afab6abcc2","","null","<div style=""display: flex; justify-content: center; align-items: center;"">
                <img src=""images/causal/causal_series_6/causal_series_6_a.jpg"" style=""width: 300px; height: 300px;"" />
              </div>","null",""
"","","","","","html-keyboard-response","90","306443","0.0-90.0","B1D35171EB9140CCAA5A6097771C9EB8","940e4c0d-0d44-4d46-8d6f-6909f7981d25","5479079d-2186-49b2-89e2-e3afab6abcc2","","null","<div style=""display: flex; justify-content: center; align-items: center;"">
                <img src=""images/causal/causal_series_6/causal_series_6_b.jpg"" style=""width: 300px; height: 300px;"" />
              </div>","null",""
"","","","","","html-keyboard-response","91","309449","0.0-91.0","B1D35171EB9140CCAA5A6097771C9EB8","940e4c0d-0d44-4d46-8d6f-6909f7981d25","5479079d-2186-49b2-89e2-e3afab6abcc2","","null","<div style=""display: flex; justify-content: center; align-items: center;"">
                <img src=""images/causal/causal_series_6/causal_series_6_c.jpg"" style=""width: 300px; height: 300px;"" />
              </div>","null",""
"","","","","","html-button-response","92","310420","0.0-92.0","B1D35171EB9140CCAA5A6097771C9EB8","940e4c0d-0d44-4d46-8d6f-6909f7981d25","5479079d-2186-49b2-89e2-e3afab6abcc2","","970","
    <div style=""display: flex; justify-content: center; align-items: center;"">
      <img src=""images/blue_deck_1.png"" style=""width: 300px; height: 300px; margin-right: 10px;"" />
      <img src=""images/red_deck_2.png"" style=""width: 300px; height: 300px;"" />
    </div>","1","1"
"","","","","","html-keyboard-response","93","313428","0.0-93.0-1.0-0.0","B1D35171EB9140CCAA5A6097771C9EB8","940e4c0d-0d44-4d46-8d6f-6909f7981d25","5479079d-2186-49b2-89e2-e3afab6abcc2","","null","<div style=""display: flex; justify-content: center; align-items: center;"">
                <img src=""images/semantic/semantic_series_6/semantic_series_6_d.jpg"" style=""width: 300px; height: 300px;"" />
              </div>","null",""
"","","","","","html-keyboard-response","94","316443","0.0-94.0","B1D35171EB9140CCAA5A6097771C9EB8","940e4c0d-0d44-4d46-8d6f-6909f7981d25","5479079d-2186-49b2-89e2-e3afab6abcc2","","null","<div style=""display: flex; justify-content: center; align-items: center;"">
                <img src=""images/other/blank.jpg"" style=""width: 300px; height: 300px;"" />
              </div>","null",""
"","","","","","html-keyboard-response","95","319456","0.0-95.0","B1D35171EB9140CCAA5A6097771C9EB8","940e4c0d-0d44-4d46-8d6f-6909f7981d25","5479079d-2186-49b2-89e2-e3afab6abcc2","","null","<div style=""display: flex; justify-content: center; align-items: center;"">
                <img src=""images/causal/causal_series_9/causal_series_9_a.jpg"" style=""width: 300px; height: 300px;"" />
              </div>","null",""
"","","","","","html-keyboard-response","96","322458","0.0-96.0","B1D35171EB9140CCAA5A6097771C9EB8","940e4c0d-0d44-4d46-8d6f-6909f7981d25","5479079d-2186-49b2-89e2-e3afab6abcc2","","null","<div style=""display: flex; justify-content: center; align-items: center;"">
                <img src=""images/causal/causal_series_9/causal_series_9_b.jpg"" style=""width: 300px; height: 300px;"" />
              </div>","null",""
"","","","","","html-keyboard-response","97","325462","0.0-97.0","B1D35171EB9140CCAA5A6097771C9EB8","940e4c0d-0d44-4d46-8d6f-6909f7981d25","5479079d-2186-49b2-89e2-e3afab6abcc2","","null","<div style=""display: flex; justify-content: center; align-items: center;"">
                <img src=""images/causal/causal_series_9/causal_series_9_c.jpg"" style=""width: 300px; height: 300px;"" />
              </div>","null",""
"","","","","","html-button-response","98","326571","0.0-98.0","B1D35171EB9140CCAA5A6097771C9EB8","940e4c0d-0d44-4d46-8d6f-6909f7981d25","5479079d-2186-49b2-89e2-e3afab6abcc2","","1109","
    <div style=""display: flex; justify-content: center; align-items: center;"">
      <img src=""images/blue_deck_1.png"" style=""width: 300px; height: 300px; margin-right: 10px;"" />
      <img src=""images/red_deck_2.png"" style=""width: 300px; height: 300px;"" />
    </div>","0","0"
"","","","","","html-keyboard-response","99","329577","0.0-99.0-0.0-0.0","B1D35171EB9140CCAA5A6097771C9EB8","940e4c0d-0d44-4d46-8d6f-6909f7981d25","5479079d-2186-49b2-89e2-e3afab6abcc2","","null","<div style=""display: flex; justify-content: center; align-items: center;"">
                <img src=""images/causal/causal_series_9/causal_series_9_d.jpg"" style=""width: 300px; height: 300px;"" />
              </div>","null",""
"","","","","","html-keyboard-response","100","332591","0.0-100.0","B1D35171EB9140CCAA5A6097771C9EB8","940e4c0d-0d44-4d46-8d6f-6909f7981d25","5479079d-2186-49b2-89e2-e3afab6abcc2","","null","<div style=""display: flex; justify-content: center; align-items: center;"">
                <img src=""images/other/blank.jpg"" style=""width: 300px; height: 300px;"" />
              </div>","null",""
"","","","","","html-keyboard-response","101","335605","0.0-101.0","B1D35171EB9140CCAA5A6097771C9EB8","940e4c0d-0d44-4d46-8d6f-6909f7981d25","5479079d-2186-49b2-89e2-e3afab6abcc2","","null","<div style=""display: flex; justify-content: center; align-items: center;"">
                <img src=""images/causal/causal_series_7/causal_series_7_a.jpg"" style=""width: 300px; height: 300px;"" />
              </div>","null",""
"","","","","","html-keyboard-response","102","338617","0.0-102.0","B1D35171EB9140CCAA5A6097771C9EB8","940e4c0d-0d44-4d46-8d6f-6909f7981d25","5479079d-2186-49b2-89e2-e3afab6abcc2","","null","<div style=""display: flex; justify-content: center; align-items: center;"">
                <img src=""images/causal/causal_series_7/causal_series_7_b.jpg"" style=""width: 300px; height: 300px;"" />
              </div>","null",""
"","","","","","html-keyboard-response","103","341627","0.0-103.0","B1D35171EB9140CCAA5A6097771C9EB8","940e4c0d-0d44-4d46-8d6f-6909f7981d25","5479079d-2186-49b2-89e2-e3afab6abcc2","","null","<div style=""display: flex; justify-content: center; align-items: center;"">
                <img src=""images/causal/causal_series_7/causal_series_7_c.jpg"" style=""width: 300px; height: 300px;"" />
              </div>","null",""
"","","","","","html-button-response","104","343125","0.0-104.0","B1D35171EB9140CCAA5A6097771C9EB8","940e4c0d-0d44-4d46-8d6f-6909f7981d25","5479079d-2186-49b2-89e2-e3afab6abcc2","","1497","
    <div style=""display: flex; justify-content: center; align-items: center;"">
      <img src=""images/blue_deck_1.png"" style=""width: 300px; height: 300px; margin-right: 10px;"" />
      <img src=""images/red_deck_2.png"" style=""width: 300px; height: 300px;"" />
    </div>","1","1"
"","","","","","html-keyboard-response","105","346139","0.0-105.0-1.0-0.0","B1D35171EB9140CCAA5A6097771C9EB8","940e4c0d-0d44-4d46-8d6f-6909f7981d25","5479079d-2186-49b2-89e2-e3afab6abcc2","","null","<div style=""display: flex; justify-content: center; align-items: center;"">
                <img src=""images/semantic/semantic_series_7/semantic_series_7_d.jpg"" style=""width: 300px; height: 300px;"" />
              </div>","null",""
"","","","","","html-keyboard-response","106","349140","0.0-106.0","B1D35171EB9140CCAA5A6097771C9EB8","940e4c0d-0d44-4d46-8d6f-6909f7981d25","5479079d-2186-49b2-89e2-e3afab6abcc2","","null","<div style=""display: flex; justify-content: center; align-items: center;"">
                <img src=""images/other/blank.jpg"" style=""width: 300px; height: 300px;"" />
              </div>","null",""
"","","","","","html-keyboard-response","107","352148","0.0-107.0","B1D35171EB9140CCAA5A6097771C9EB8","940e4c0d-0d44-4d46-8d6f-6909f7981d25","5479079d-2186-49b2-89e2-e3afab6abcc2","","null","<div style=""display: flex; justify-content: center; align-items: center;"">
                <img src=""images/causal/causal_series_4/causal_series_4_a.jpg"" style=""width: 300px; height: 300px;"" />
              </div>","null",""
"","","","","","html-keyboard-response","108","355152","0.0-108.0","B1D35171EB9140CCAA5A6097771C9EB8","940e4c0d-0d44-4d46-8d6f-6909f7981d25","5479079d-2186-49b2-89e2-e3afab6abcc2","","null","<div style=""display: flex; justify-content: center; align-items: center;"">
                <img src=""images/causal/causal_series_4/causal_series_4_b.jpg"" style=""width: 300px; height: 300px;"" />
              </div>","null",""
"","","","","","html-keyboard-response","109","358163","0.0-109.0","B1D35171EB9140CCAA5A6097771C9EB8","940e4c0d-0d44-4d46-8d6f-6909f7981d25","5479079d-2186-49b2-89e2-e3afab6abcc2","","null","<div style=""display: flex; justify-content: center; align-items: center;"">
                <img src=""images/causal/causal_series_4/causal_series_4_c.jpg"" style=""width: 300px; height: 300px;"" />
              </div>","null",""
"","","","","","html-button-response","110","359877","0.0-110.0","B1D35171EB9140CCAA5A6097771C9EB8","940e4c0d-0d44-4d46-8d6f-6909f7981d25","5479079d-2186-49b2-89e2-e3afab6abcc2","","1713","
    <div style=""display: flex; justify-content: center; align-items: center;"">
      <img src=""images/blue_deck_1.png"" style=""width: 300px; height: 300px; margin-right: 10px;"" />
      <img src=""images/red_deck_2.png"" style=""width: 300px; height: 300px;"" />
    </div>","0","0"
"","","","","","html-keyboard-response","111","362886","0.0-111.0-0.0-0.0","B1D35171EB9140CCAA5A6097771C9EB8","940e4c0d-0d44-4d46-8d6f-6909f7981d25","5479079d-2186-49b2-89e2-e3afab6abcc2","","null","<div style=""display: flex; justify-content: center; align-items: center;"">
                <img src=""images/causal/causal_series_4/causal_series_4_d.jpg"" style=""width: 300px; height: 300px;"" />
              </div>","null",""
"","","","","","html-keyboard-response","112","365894","0.0-112.0","B1D35171EB9140CCAA5A6097771C9EB8","940e4c0d-0d44-4d46-8d6f-6909f7981d25","5479079d-2186-49b2-89e2-e3afab6abcc2","","null","<div style=""display: flex; justify-content: center; align-items: center;"">
                <img src=""images/other/blank.jpg"" style=""width: 300px; height: 300px;"" />
              </div>","null",""
"","","","","","survey-text","113","379305","0.0-113.0","B1D35171EB9140CCAA5A6097771C9EB8","940e4c0d-0d44-4d46-8d6f-6909f7981d25","5479079d-2186-49b2-89e2-e3afab6abcc2","","13408","","{""Q0"":""I don't feel there is any difference asides their color""}",""
"","","","","","survey-text","114","386825","0.0-114.0","B1D35171EB9140CCAA5A6097771C9EB8","940e4c0d-0d44-4d46-8d6f-6909f7981d25","5479079d-2186-49b2-89e2-e3afab6abcc2","","7517","","{""Q0"":""neither was interesting""}",""
"","","","","","html-button-response","115","396727","0.0-115.0","B1D35171EB9140CCAA5A6097771C9EB8","940e4c0d-0d44-4d46-8d6f-6909f7981d25","5479079d-2186-49b2-89e2-e3afab6abcc2","","9902","Which color deck does the fourth image continue the story from the series?","1",""
"","","","","","html-button-response","116","398440","0.0-116.0","B1D35171EB9140CCAA5A6097771C9EB8","940e4c0d-0d44-4d46-8d6f-6909f7981d25","5479079d-2186-49b2-89e2-e3afab6abcc2","","1712","Which color deck does the fourth image not follow the story from the series?","1",""
"","","","","","survey-text","117","405105","0.0-117.0","B1D35171EB9140CCAA5A6097771C9EB8","940e4c0d-0d44-4d46-8d6f-6909f7981d25","5479079d-2186-49b2-89e2-e3afab6abcc2","","6662","","{""Q0"":""female"",""Q1"":""21""}",""
"","","","","","instructions","118","408178","0.0-118.0","B1D35171EB9140CCAA5A6097771C9EB8","940e4c0d-0d44-4d46-8d6f-6909f7981d25","5479079d-2186-49b2-89e2-e3afab6abcc2","[{""page_index"":0,""viewing_time"":3073}]","3073","","",""
