"success","timeout","failed_images","failed_audio","failed_video","trial_type","trial_index","time_elapsed","internal_node_id","subject","subject_id","study_id","session_id","urlvar","current_url","view_history","rt","stimulus","response","choice","question_order"
"true","false","[]","[]","[]","preload","0","10492","0.0-0.0","12701B4AD25343918D991BAA397622EE","12701B4AD25343918D991BAA397622EE","aacbc993-6319-4683-a097-6c4054cab8f9","bea99957-1862-4ad8-9558-57b91e42ce64","{""participantId"":""12701B4AD25343918D991BAA397622EE"",""assignmentId"":""aacbc993-6319-4683-a097-6c4054cab8f9"",""projectId"":""bea99957-1862-4ad8-9558-57b91e42ce64""}","https://test12345.live/?participantId=12701B4AD25343918D991BAA397622EE&assignmentId=aacbc993-6319-4683-a097-6c4054cab8f9&projectId=bea99957-1862-4ad8-9558-57b91e42ce64","","","","","",""
"","","","","","instructions","1","397054","0.0-1.0","12701B4AD25343918D991BAA397622EE","12701B4AD25343918D991BAA397622EE","aacbc993-6319-4683-a097-6c4054cab8f9","bea99957-1862-4ad8-9558-57b91e42ce64","{""participantId"":""12701B4AD25343918D991BAA397622EE"",""assignmentId"":""aacbc993-6319-4683-a097-6c4054cab8f9"",""projectId"":""bea99957-1862-4ad8-9558-57b91e42ce64""}","https://test12345.live/?participantId=12701B4AD25343918D991BAA397622EE&assignmentId=aacbc993-6319-4683-a097-6c4054cab8f9&projectId=bea99957-1862-4ad8-9558-57b91e42ce64","[{""page_index"":0,""viewing_time"":386560}]","386561","","","",""
"","","","","","instructions","2","408261","0.0-2.0","12701B4AD25343918D991BAA397622EE","12701B4AD25343918D991BAA397622EE","aacbc993-6319-4683-a097-6c4054cab8f9","bea99957-1862-4ad8-9558-57b91e42ce64","{""participantId"":""12701B4AD25343918D991BAA397622EE"",""assignmentId"":""aacbc993-6319-4683-a097-6c4054cab8f9"",""projectId"":""bea99957-1862-4ad8-9558-57b91e42ce64""}","https://test12345.live/?participantId=12701B4AD25343918D991BAA397622EE&assignmentId=aacbc993-6319-4683-a097-6c4054cab8f9&projectId=bea99957-1862-4ad8-9558-57b91e42ce64","[{""page_index"":0,""viewing_time"":11206}]","11206","","","",""
"true","","","","","fullscreen","3","410562","0.0-3.0","12701B4AD25343918D991BAA397622EE","12701B4AD25343918D991BAA397622EE","aacbc993-6319-4683-a097-6c4054cab8f9","bea99957-1862-4ad8-9558-57b91e42ce64","{""participantId"":""12701B4AD25343918D991BAA397622EE"",""assignmentId"":""aacbc993-6319-4683-a097-6c4054cab8f9"",""projectId"":""bea99957-1862-4ad8-9558-57b91e42ce64""}","https://test12345.live/?participantId=12701B4AD25343918D991BAA397622EE&assignmentId=aacbc993-6319-4683-a097-6c4054cab8f9&projectId=bea99957-1862-4ad8-9558-57b91e42ce64","","1285","","","",""
"","","","","","instructions","4","412075","0.0-4.0","12701B4AD25343918D991BAA397622EE","12701B4AD25343918D991BAA397622EE","aacbc993-6319-4683-a097-6c4054cab8f9","bea99957-1862-4ad8-9558-57b91e42ce64","{""participantId"":""12701B4AD25343918D991BAA397622EE"",""assignmentId"":""aacbc993-6319-4683-a097-6c4054cab8f9"",""projectId"":""bea99957-1862-4ad8-9558-57b91e42ce64""}","https://test12345.live/?participantId=12701B4AD25343918D991BAA397622EE&assignmentId=aacbc993-6319-4683-a097-6c4054cab8f9&projectId=bea99957-1862-4ad8-9558-57b91e42ce64","[{""page_index"":0,""viewing_time"":1511}]","1511","","","",""
"","","","","","html-button-response","5","415429","0.0-5.0","12701B4AD25343918D991BAA397622EE","12701B4AD25343918D991BAA397622EE","aacbc993-6319-4683-a097-6c4054cab8f9","bea99957-1862-4ad8-9558-57b91e42ce64","{""participantId"":""12701B4AD25343918D991BAA397622EE"",""assignmentId"":""aacbc993-6319-4683-a097-6c4054cab8f9"",""projectId"":""bea99957-1862-4ad8-9558-57b91e42ce64""}","https://test12345.live/?participantId=12701B4AD25343918D991BAA397622EE&assignmentId=aacbc993-6319-4683-a097-6c4054cab8f9&projectId=bea99957-1862-4ad8-9558-57b91e42ce64","","3352","
    <div style=""display: flex; justify-content: center; align-items: center;"">
      <img src=""images/red_deck_2.png"" style=""width: 300px; height: 300px; margin-right: 10px;"" />
      <img src=""images/blue_deck_1.png"" style=""width: 300px; height: 300px;"" />
    </div>","1","1",""
"","","","","","html-keyboard-response","6","418440","0.0-6.0-0.0","12701B4AD25343918D991BAA397622EE","12701B4AD25343918D991BAA397622EE","aacbc993-6319-4683-a097-6c4054cab8f9","bea99957-1862-4ad8-9558-57b91e42ce64","{""participantId"":""12701B4AD25343918D991BAA397622EE"",""assignmentId"":""aacbc993-6319-4683-a097-6c4054cab8f9"",""projectId"":""bea99957-1862-4ad8-9558-57b91e42ce64""}","https://test12345.live/?participantId=12701B4AD25343918D991BAA397622EE&assignmentId=aacbc993-6319-4683-a097-6c4054cab8f9&projectId=bea99957-1862-4ad8-9558-57b91e42ce64","","null","<div style=""display: flex; justify-content: center; align-items: center;"">
                    <img src=""images/causal/causal_series_15/causal_series_15_a.jpg"" style=""width: 300px; height: 300px;"" />
                  </div>","null","",""
"","","","","","html-keyboard-response","7","421453","0.0-6.0-1.0","12701B4AD25343918D991BAA397622EE","12701B4AD25343918D991BAA397622EE","aacbc993-6319-4683-a097-6c4054cab8f9","bea99957-1862-4ad8-9558-57b91e42ce64","{""participantId"":""12701B4AD25343918D991BAA397622EE"",""assignmentId"":""aacbc993-6319-4683-a097-6c4054cab8f9"",""projectId"":""bea99957-1862-4ad8-9558-57b91e42ce64""}","https://test12345.live/?participantId=12701B4AD25343918D991BAA397622EE&assignmentId=aacbc993-6319-4683-a097-6c4054cab8f9&projectId=bea99957-1862-4ad8-9558-57b91e42ce64","","null","<div style=""display: flex; justify-content: center; align-items: center;"">
                    <img src=""images/causal/causal_series_15/causal_series_15_b.jpg"" style=""width: 300px; height: 300px;"" />
                  </div>","null","",""
"","","","","","html-keyboard-response","8","424468","0.0-6.0-2.0","12701B4AD25343918D991BAA397622EE","12701B4AD25343918D991BAA397622EE","aacbc993-6319-4683-a097-6c4054cab8f9","bea99957-1862-4ad8-9558-57b91e42ce64","{""participantId"":""12701B4AD25343918D991BAA397622EE"",""assignmentId"":""aacbc993-6319-4683-a097-6c4054cab8f9"",""projectId"":""bea99957-1862-4ad8-9558-57b91e42ce64""}","https://test12345.live/?participantId=12701B4AD25343918D991BAA397622EE&assignmentId=aacbc993-6319-4683-a097-6c4054cab8f9&projectId=bea99957-1862-4ad8-9558-57b91e42ce64","","null","<div style=""display: flex; justify-content: center; align-items: center;"">
                    <img src=""images/causal/causal_series_15/causal_series_15_c.jpg"" style=""width: 300px; height: 300px;"" />
                  </div>","null","",""
"","","","","","html-keyboard-response","9","427471","0.0-6.0-3.0","12701B4AD25343918D991BAA397622EE","12701B4AD25343918D991BAA397622EE","aacbc993-6319-4683-a097-6c4054cab8f9","bea99957-1862-4ad8-9558-57b91e42ce64","{""participantId"":""12701B4AD25343918D991BAA397622EE"",""assignmentId"":""aacbc993-6319-4683-a097-6c4054cab8f9"",""projectId"":""bea99957-1862-4ad8-9558-57b91e42ce64""}","https://test12345.live/?participantId=12701B4AD25343918D991BAA397622EE&assignmentId=aacbc993-6319-4683-a097-6c4054cab8f9&projectId=bea99957-1862-4ad8-9558-57b91e42ce64","","null","<div style=""display: flex; justify-content: center; align-items: center;"">
                    <img src=""images/causal/causal_series_15/causal_series_15_d.jpg"" style=""width: 300px; height: 300px;"" />
                  </div>","null","",""
"","","","","","html-button-response","10","432534","0.0-8.0","12701B4AD25343918D991BAA397622EE","12701B4AD25343918D991BAA397622EE","aacbc993-6319-4683-a097-6c4054cab8f9","bea99957-1862-4ad8-9558-57b91e42ce64","{""participantId"":""12701B4AD25343918D991BAA397622EE"",""assignmentId"":""aacbc993-6319-4683-a097-6c4054cab8f9"",""projectId"":""bea99957-1862-4ad8-9558-57b91e42ce64""}","https://test12345.live/?participantId=12701B4AD25343918D991BAA397622EE&assignmentId=aacbc993-6319-4683-a097-6c4054cab8f9&projectId=bea99957-1862-4ad8-9558-57b91e42ce64","","5062","Was there a person in the picture?","0","",""
"","","","","","survey-likert","11","436139","0.0-9.0","12701B4AD25343918D991BAA397622EE","12701B4AD25343918D991BAA397622EE","aacbc993-6319-4683-a097-6c4054cab8f9","bea99957-1862-4ad8-9558-57b91e42ce64","{""participantId"":""12701B4AD25343918D991BAA397622EE"",""assignmentId"":""aacbc993-6319-4683-a097-6c4054cab8f9"",""projectId"":""bea99957-1862-4ad8-9558-57b91e42ce64""}","https://test12345.live/?participantId=12701B4AD25343918D991BAA397622EE&assignmentId=aacbc993-6319-4683-a097-6c4054cab8f9&projectId=bea99957-1862-4ad8-9558-57b91e42ce64","","3602","","{""Q0"":4}","","[0]"
"","","","","","html-button-response","12","438082","0.0-10.0","12701B4AD25343918D991BAA397622EE","12701B4AD25343918D991BAA397622EE","aacbc993-6319-4683-a097-6c4054cab8f9","bea99957-1862-4ad8-9558-57b91e42ce64","{""participantId"":""12701B4AD25343918D991BAA397622EE"",""assignmentId"":""aacbc993-6319-4683-a097-6c4054cab8f9"",""projectId"":""bea99957-1862-4ad8-9558-57b91e42ce64""}","https://test12345.live/?participantId=12701B4AD25343918D991BAA397622EE&assignmentId=aacbc993-6319-4683-a097-6c4054cab8f9&projectId=bea99957-1862-4ad8-9558-57b91e42ce64","","1940","
    <div style=""display: flex; justify-content: center; align-items: center;"">
      <img src=""images/red_deck_2.png"" style=""width: 300px; height: 300px; margin-right: 10px;"" />
      <img src=""images/blue_deck_1.png"" style=""width: 300px; height: 300px;"" />
    </div>","1","1",""
"","","","","","html-keyboard-response","13","441086","0.0-11.0-0.0","12701B4AD25343918D991BAA397622EE","12701B4AD25343918D991BAA397622EE","aacbc993-6319-4683-a097-6c4054cab8f9","bea99957-1862-4ad8-9558-57b91e42ce64","{""participantId"":""12701B4AD25343918D991BAA397622EE"",""assignmentId"":""aacbc993-6319-4683-a097-6c4054cab8f9"",""projectId"":""bea99957-1862-4ad8-9558-57b91e42ce64""}","https://test12345.live/?participantId=12701B4AD25343918D991BAA397622EE&assignmentId=aacbc993-6319-4683-a097-6c4054cab8f9&projectId=bea99957-1862-4ad8-9558-57b91e42ce64","","null","<div style=""display: flex; justify-content: center; align-items: center;"">
                    <img src=""images/causal/causal_series_8/causal_series_8_a.jpg"" style=""width: 300px; height: 300px;"" />
                  </div>","null","",""
"","","","","","html-keyboard-response","14","444089","0.0-11.0-1.0","12701B4AD25343918D991BAA397622EE","12701B4AD25343918D991BAA397622EE","aacbc993-6319-4683-a097-6c4054cab8f9","bea99957-1862-4ad8-9558-57b91e42ce64","{""participantId"":""12701B4AD25343918D991BAA397622EE"",""assignmentId"":""aacbc993-6319-4683-a097-6c4054cab8f9"",""projectId"":""bea99957-1862-4ad8-9558-57b91e42ce64""}","https://test12345.live/?participantId=12701B4AD25343918D991BAA397622EE&assignmentId=aacbc993-6319-4683-a097-6c4054cab8f9&projectId=bea99957-1862-4ad8-9558-57b91e42ce64","","null","<div style=""display: flex; justify-content: center; align-items: center;"">
                    <img src=""images/causal/causal_series_8/causal_series_8_b.jpg"" style=""width: 300px; height: 300px;"" />
                  </div>","null","",""
"","","","","","html-keyboard-response","15","447626","0.0-11.0-2.0","12701B4AD25343918D991BAA397622EE","12701B4AD25343918D991BAA397622EE","aacbc993-6319-4683-a097-6c4054cab8f9","bea99957-1862-4ad8-9558-57b91e42ce64","{""participantId"":""12701B4AD25343918D991BAA397622EE"",""assignmentId"":""aacbc993-6319-4683-a097-6c4054cab8f9"",""projectId"":""bea99957-1862-4ad8-9558-57b91e42ce64""}","https://test12345.live/?participantId=12701B4AD25343918D991BAA397622EE&assignmentId=aacbc993-6319-4683-a097-6c4054cab8f9&projectId=bea99957-1862-4ad8-9558-57b91e42ce64","","null","<div style=""display: flex; justify-content: center; align-items: center;"">
                    <img src=""images/causal/causal_series_8/causal_series_8_c.jpg"" style=""width: 300px; height: 300px;"" />
                  </div>","null","",""
"","","","","","html-keyboard-response","16","451624","0.0-11.0-3.0","12701B4AD25343918D991BAA397622EE","12701B4AD25343918D991BAA397622EE","aacbc993-6319-4683-a097-6c4054cab8f9","bea99957-1862-4ad8-9558-57b91e42ce64","{""participantId"":""12701B4AD25343918D991BAA397622EE"",""assignmentId"":""aacbc993-6319-4683-a097-6c4054cab8f9"",""projectId"":""bea99957-1862-4ad8-9558-57b91e42ce64""}","https://test12345.live/?participantId=12701B4AD25343918D991BAA397622EE&assignmentId=aacbc993-6319-4683-a097-6c4054cab8f9&projectId=bea99957-1862-4ad8-9558-57b91e42ce64","","null","<div style=""display: flex; justify-content: center; align-items: center;"">
                    <img src=""images/causal/causal_series_8/causal_series_8_d.jpg"" style=""width: 300px; height: 300px;"" />
                  </div>","null","",""
"","","","","","html-button-response","17","467185","0.0-13.0","12701B4AD25343918D991BAA397622EE","12701B4AD25343918D991BAA397622EE","aacbc993-6319-4683-a097-6c4054cab8f9","bea99957-1862-4ad8-9558-57b91e42ce64","{""participantId"":""12701B4AD25343918D991BAA397622EE"",""assignmentId"":""aacbc993-6319-4683-a097-6c4054cab8f9"",""projectId"":""bea99957-1862-4ad8-9558-57b91e42ce64""}","https://test12345.live/?participantId=12701B4AD25343918D991BAA397622EE&assignmentId=aacbc993-6319-4683-a097-6c4054cab8f9&projectId=bea99957-1862-4ad8-9558-57b91e42ce64","","15559","Was there a person in the picture?","1","",""
"","","","","","survey-likert","18","473465","0.0-14.0","12701B4AD25343918D991BAA397622EE","12701B4AD25343918D991BAA397622EE","aacbc993-6319-4683-a097-6c4054cab8f9","bea99957-1862-4ad8-9558-57b91e42ce64","{""participantId"":""12701B4AD25343918D991BAA397622EE"",""assignmentId"":""aacbc993-6319-4683-a097-6c4054cab8f9"",""projectId"":""bea99957-1862-4ad8-9558-57b91e42ce64""}","https://test12345.live/?participantId=12701B4AD25343918D991BAA397622EE&assignmentId=aacbc993-6319-4683-a097-6c4054cab8f9&projectId=bea99957-1862-4ad8-9558-57b91e42ce64","","6278","","{""Q0"":4}","","[0]"
"","","","","","html-button-response","19","476566","0.0-15.0","12701B4AD25343918D991BAA397622EE","12701B4AD25343918D991BAA397622EE","aacbc993-6319-4683-a097-6c4054cab8f9","bea99957-1862-4ad8-9558-57b91e42ce64","{""participantId"":""12701B4AD25343918D991BAA397622EE"",""assignmentId"":""aacbc993-6319-4683-a097-6c4054cab8f9"",""projectId"":""bea99957-1862-4ad8-9558-57b91e42ce64""}","https://test12345.live/?participantId=12701B4AD25343918D991BAA397622EE&assignmentId=aacbc993-6319-4683-a097-6c4054cab8f9&projectId=bea99957-1862-4ad8-9558-57b91e42ce64","","3098","
    <div style=""display: flex; justify-content: center; align-items: center;"">
      <img src=""images/red_deck_2.png"" style=""width: 300px; height: 300px; margin-right: 10px;"" />
      <img src=""images/blue_deck_1.png"" style=""width: 300px; height: 300px;"" />
    </div>","1","1",""
"","","","","","html-keyboard-response","20","479577","0.0-16.0-0.0","12701B4AD25343918D991BAA397622EE","12701B4AD25343918D991BAA397622EE","aacbc993-6319-4683-a097-6c4054cab8f9","bea99957-1862-4ad8-9558-57b91e42ce64","{""participantId"":""12701B4AD25343918D991BAA397622EE"",""assignmentId"":""aacbc993-6319-4683-a097-6c4054cab8f9"",""projectId"":""bea99957-1862-4ad8-9558-57b91e42ce64""}","https://test12345.live/?participantId=12701B4AD25343918D991BAA397622EE&assignmentId=aacbc993-6319-4683-a097-6c4054cab8f9&projectId=bea99957-1862-4ad8-9558-57b91e42ce64","","null","<div style=""display: flex; justify-content: center; align-items: center;"">
                    <img src=""images/causal/causal_series_1/causal_series_1_a.jpg"" style=""width: 300px; height: 300px;"" />
                  </div>","null","",""
"","","","","","html-keyboard-response","21","482586","0.0-16.0-1.0","12701B4AD25343918D991BAA397622EE","12701B4AD25343918D991BAA397622EE","aacbc993-6319-4683-a097-6c4054cab8f9","bea99957-1862-4ad8-9558-57b91e42ce64","{""participantId"":""12701B4AD25343918D991BAA397622EE"",""assignmentId"":""aacbc993-6319-4683-a097-6c4054cab8f9"",""projectId"":""bea99957-1862-4ad8-9558-57b91e42ce64""}","https://test12345.live/?participantId=12701B4AD25343918D991BAA397622EE&assignmentId=aacbc993-6319-4683-a097-6c4054cab8f9&projectId=bea99957-1862-4ad8-9558-57b91e42ce64","","null","<div style=""display: flex; justify-content: center; align-items: center;"">
                    <img src=""images/causal/causal_series_1/causal_series_1_b.jpg"" style=""width: 300px; height: 300px;"" />
                  </div>","null","",""
"","","","","","html-keyboard-response","22","485590","0.0-16.0-2.0","12701B4AD25343918D991BAA397622EE","12701B4AD25343918D991BAA397622EE","aacbc993-6319-4683-a097-6c4054cab8f9","bea99957-1862-4ad8-9558-57b91e42ce64","{""participantId"":""12701B4AD25343918D991BAA397622EE"",""assignmentId"":""aacbc993-6319-4683-a097-6c4054cab8f9"",""projectId"":""bea99957-1862-4ad8-9558-57b91e42ce64""}","https://test12345.live/?participantId=12701B4AD25343918D991BAA397622EE&assignmentId=aacbc993-6319-4683-a097-6c4054cab8f9&projectId=bea99957-1862-4ad8-9558-57b91e42ce64","","null","<div style=""display: flex; justify-content: center; align-items: center;"">
                    <img src=""images/causal/causal_series_1/causal_series_1_c.jpg"" style=""width: 300px; height: 300px;"" />
                  </div>","null","",""
"","","","","","html-keyboard-response","23","488601","0.0-16.0-3.0","12701B4AD25343918D991BAA397622EE","12701B4AD25343918D991BAA397622EE","aacbc993-6319-4683-a097-6c4054cab8f9","bea99957-1862-4ad8-9558-57b91e42ce64","{""participantId"":""12701B4AD25343918D991BAA397622EE"",""assignmentId"":""aacbc993-6319-4683-a097-6c4054cab8f9"",""projectId"":""bea99957-1862-4ad8-9558-57b91e42ce64""}","https://test12345.live/?participantId=12701B4AD25343918D991BAA397622EE&assignmentId=aacbc993-6319-4683-a097-6c4054cab8f9&projectId=bea99957-1862-4ad8-9558-57b91e42ce64","","null","<div style=""display: flex; justify-content: center; align-items: center;"">
                    <img src=""images/causal/causal_series_1/causal_series_1_d.jpg"" style=""width: 300px; height: 300px;"" />
                  </div>","null","",""
"","","","","","html-button-response","24","492800","0.0-18.0","12701B4AD25343918D991BAA397622EE","12701B4AD25343918D991BAA397622EE","aacbc993-6319-4683-a097-6c4054cab8f9","bea99957-1862-4ad8-9558-57b91e42ce64","{""participantId"":""12701B4AD25343918D991BAA397622EE"",""assignmentId"":""aacbc993-6319-4683-a097-6c4054cab8f9"",""projectId"":""bea99957-1862-4ad8-9558-57b91e42ce64""}","https://test12345.live/?participantId=12701B4AD25343918D991BAA397622EE&assignmentId=aacbc993-6319-4683-a097-6c4054cab8f9&projectId=bea99957-1862-4ad8-9558-57b91e42ce64","","4197","Was there a person in the picture?","1","",""
"","","","","","survey-likert","25","500058","0.0-19.0","12701B4AD25343918D991BAA397622EE","12701B4AD25343918D991BAA397622EE","aacbc993-6319-4683-a097-6c4054cab8f9","bea99957-1862-4ad8-9558-57b91e42ce64","{""participantId"":""12701B4AD25343918D991BAA397622EE"",""assignmentId"":""aacbc993-6319-4683-a097-6c4054cab8f9"",""projectId"":""bea99957-1862-4ad8-9558-57b91e42ce64""}","https://test12345.live/?participantId=12701B4AD25343918D991BAA397622EE&assignmentId=aacbc993-6319-4683-a097-6c4054cab8f9&projectId=bea99957-1862-4ad8-9558-57b91e42ce64","","7258","","{""Q0"":4}","","[0]"
"","","","","","html-button-response","26","503951","0.0-20.0","12701B4AD25343918D991BAA397622EE","12701B4AD25343918D991BAA397622EE","aacbc993-6319-4683-a097-6c4054cab8f9","bea99957-1862-4ad8-9558-57b91e42ce64","{""participantId"":""12701B4AD25343918D991BAA397622EE"",""assignmentId"":""aacbc993-6319-4683-a097-6c4054cab8f9"",""projectId"":""bea99957-1862-4ad8-9558-57b91e42ce64""}","https://test12345.live/?participantId=12701B4AD25343918D991BAA397622EE&assignmentId=aacbc993-6319-4683-a097-6c4054cab8f9&projectId=bea99957-1862-4ad8-9558-57b91e42ce64","","3889","
    <div style=""display: flex; justify-content: center; align-items: center;"">
      <img src=""images/red_deck_2.png"" style=""width: 300px; height: 300px; margin-right: 10px;"" />
      <img src=""images/blue_deck_1.png"" style=""width: 300px; height: 300px;"" />
    </div>","0","0",""
"","","","","","html-keyboard-response","27","506954","0.0-22.0-0.0","12701B4AD25343918D991BAA397622EE","12701B4AD25343918D991BAA397622EE","aacbc993-6319-4683-a097-6c4054cab8f9","bea99957-1862-4ad8-9558-57b91e42ce64","{""participantId"":""12701B4AD25343918D991BAA397622EE"",""assignmentId"":""aacbc993-6319-4683-a097-6c4054cab8f9"",""projectId"":""bea99957-1862-4ad8-9558-57b91e42ce64""}","https://test12345.live/?participantId=12701B4AD25343918D991BAA397622EE&assignmentId=aacbc993-6319-4683-a097-6c4054cab8f9&projectId=bea99957-1862-4ad8-9558-57b91e42ce64","","null","<div style=""display: flex; justify-content: center; align-items: center;"">
                    <img src=""images/semantic/semantic_series_13/semantic_series_13_a.jpg"" style=""width: 300px; height: 300px;"" />
                  </div>","null","",""
"","","","","","html-keyboard-response","28","509965","0.0-22.0-1.0","12701B4AD25343918D991BAA397622EE","12701B4AD25343918D991BAA397622EE","aacbc993-6319-4683-a097-6c4054cab8f9","bea99957-1862-4ad8-9558-57b91e42ce64","{""participantId"":""12701B4AD25343918D991BAA397622EE"",""assignmentId"":""aacbc993-6319-4683-a097-6c4054cab8f9"",""projectId"":""bea99957-1862-4ad8-9558-57b91e42ce64""}","https://test12345.live/?participantId=12701B4AD25343918D991BAA397622EE&assignmentId=aacbc993-6319-4683-a097-6c4054cab8f9&projectId=bea99957-1862-4ad8-9558-57b91e42ce64","","null","<div style=""display: flex; justify-content: center; align-items: center;"">
                    <img src=""images/semantic/semantic_series_13/semantic_series_13_b.jpg"" style=""width: 300px; height: 300px;"" />
                  </div>","null","",""
"","","","","","html-keyboard-response","29","512974","0.0-22.0-2.0","12701B4AD25343918D991BAA397622EE","12701B4AD25343918D991BAA397622EE","aacbc993-6319-4683-a097-6c4054cab8f9","bea99957-1862-4ad8-9558-57b91e42ce64","{""participantId"":""12701B4AD25343918D991BAA397622EE"",""assignmentId"":""aacbc993-6319-4683-a097-6c4054cab8f9"",""projectId"":""bea99957-1862-4ad8-9558-57b91e42ce64""}","https://test12345.live/?participantId=12701B4AD25343918D991BAA397622EE&assignmentId=aacbc993-6319-4683-a097-6c4054cab8f9&projectId=bea99957-1862-4ad8-9558-57b91e42ce64","","null","<div style=""display: flex; justify-content: center; align-items: center;"">
                    <img src=""images/semantic/semantic_series_13/semantic_series_13_c.jpg"" style=""width: 300px; height: 300px;"" />
                  </div>","null","",""
"","","","","","html-keyboard-response","30","515977","0.0-22.0-3.0","12701B4AD25343918D991BAA397622EE","12701B4AD25343918D991BAA397622EE","aacbc993-6319-4683-a097-6c4054cab8f9","bea99957-1862-4ad8-9558-57b91e42ce64","{""participantId"":""12701B4AD25343918D991BAA397622EE"",""assignmentId"":""aacbc993-6319-4683-a097-6c4054cab8f9"",""projectId"":""bea99957-1862-4ad8-9558-57b91e42ce64""}","https://test12345.live/?participantId=12701B4AD25343918D991BAA397622EE&assignmentId=aacbc993-6319-4683-a097-6c4054cab8f9&projectId=bea99957-1862-4ad8-9558-57b91e42ce64","","null","<div style=""display: flex; justify-content: center; align-items: center;"">
                    <img src=""images/semantic/semantic_series_13/semantic_series_13_d.jpg"" style=""width: 300px; height: 300px;"" />
                  </div>","null","",""
"","","","","","html-button-response","31","521128","0.0-23.0","12701B4AD25343918D991BAA397622EE","12701B4AD25343918D991BAA397622EE","aacbc993-6319-4683-a097-6c4054cab8f9","bea99957-1862-4ad8-9558-57b91e42ce64","{""participantId"":""12701B4AD25343918D991BAA397622EE"",""assignmentId"":""aacbc993-6319-4683-a097-6c4054cab8f9"",""projectId"":""bea99957-1862-4ad8-9558-57b91e42ce64""}","https://test12345.live/?participantId=12701B4AD25343918D991BAA397622EE&assignmentId=aacbc993-6319-4683-a097-6c4054cab8f9&projectId=bea99957-1862-4ad8-9558-57b91e42ce64","","5149","Was there a person in the picture?","0","",""
"","","","","","survey-likert","32","528209","0.0-24.0","12701B4AD25343918D991BAA397622EE","12701B4AD25343918D991BAA397622EE","aacbc993-6319-4683-a097-6c4054cab8f9","bea99957-1862-4ad8-9558-57b91e42ce64","{""participantId"":""12701B4AD25343918D991BAA397622EE"",""assignmentId"":""aacbc993-6319-4683-a097-6c4054cab8f9"",""projectId"":""bea99957-1862-4ad8-9558-57b91e42ce64""}","https://test12345.live/?participantId=12701B4AD25343918D991BAA397622EE&assignmentId=aacbc993-6319-4683-a097-6c4054cab8f9&projectId=bea99957-1862-4ad8-9558-57b91e42ce64","","7079","","{""Q0"":4}","","[0]"
"","","","","","html-button-response","33","531871","0.0-25.0","12701B4AD25343918D991BAA397622EE","12701B4AD25343918D991BAA397622EE","aacbc993-6319-4683-a097-6c4054cab8f9","bea99957-1862-4ad8-9558-57b91e42ce64","{""participantId"":""12701B4AD25343918D991BAA397622EE"",""assignmentId"":""aacbc993-6319-4683-a097-6c4054cab8f9"",""projectId"":""bea99957-1862-4ad8-9558-57b91e42ce64""}","https://test12345.live/?participantId=12701B4AD25343918D991BAA397622EE&assignmentId=aacbc993-6319-4683-a097-6c4054cab8f9&projectId=bea99957-1862-4ad8-9558-57b91e42ce64","","3659","
    <div style=""display: flex; justify-content: center; align-items: center;"">
      <img src=""images/red_deck_2.png"" style=""width: 300px; height: 300px; margin-right: 10px;"" />
      <img src=""images/blue_deck_1.png"" style=""width: 300px; height: 300px;"" />
    </div>","0","0",""
"","","","","","html-keyboard-response","34","534886","0.0-27.0-0.0","12701B4AD25343918D991BAA397622EE","12701B4AD25343918D991BAA397622EE","aacbc993-6319-4683-a097-6c4054cab8f9","bea99957-1862-4ad8-9558-57b91e42ce64","{""participantId"":""12701B4AD25343918D991BAA397622EE"",""assignmentId"":""aacbc993-6319-4683-a097-6c4054cab8f9"",""projectId"":""bea99957-1862-4ad8-9558-57b91e42ce64""}","https://test12345.live/?participantId=12701B4AD25343918D991BAA397622EE&assignmentId=aacbc993-6319-4683-a097-6c4054cab8f9&projectId=bea99957-1862-4ad8-9558-57b91e42ce64","","null","<div style=""display: flex; justify-content: center; align-items: center;"">
                    <img src=""images/semantic/semantic_series_1/semantic_series_1_a.jpg"" style=""width: 300px; height: 300px;"" />
                  </div>","null","",""
"","","","","","html-keyboard-response","35","537898","0.0-27.0-1.0","12701B4AD25343918D991BAA397622EE","12701B4AD25343918D991BAA397622EE","aacbc993-6319-4683-a097-6c4054cab8f9","bea99957-1862-4ad8-9558-57b91e42ce64","{""participantId"":""12701B4AD25343918D991BAA397622EE"",""assignmentId"":""aacbc993-6319-4683-a097-6c4054cab8f9"",""projectId"":""bea99957-1862-4ad8-9558-57b91e42ce64""}","https://test12345.live/?participantId=12701B4AD25343918D991BAA397622EE&assignmentId=aacbc993-6319-4683-a097-6c4054cab8f9&projectId=bea99957-1862-4ad8-9558-57b91e42ce64","","null","<div style=""display: flex; justify-content: center; align-items: center;"">
                    <img src=""images/semantic/semantic_series_1/semantic_series_1_b.jpg"" style=""width: 300px; height: 300px;"" />
                  </div>","null","",""
"","","","","","html-keyboard-response","36","540907","0.0-27.0-2.0","12701B4AD25343918D991BAA397622EE","12701B4AD25343918D991BAA397622EE","aacbc993-6319-4683-a097-6c4054cab8f9","bea99957-1862-4ad8-9558-57b91e42ce64","{""participantId"":""12701B4AD25343918D991BAA397622EE"",""assignmentId"":""aacbc993-6319-4683-a097-6c4054cab8f9"",""projectId"":""bea99957-1862-4ad8-9558-57b91e42ce64""}","https://test12345.live/?participantId=12701B4AD25343918D991BAA397622EE&assignmentId=aacbc993-6319-4683-a097-6c4054cab8f9&projectId=bea99957-1862-4ad8-9558-57b91e42ce64","","null","<div style=""display: flex; justify-content: center; align-items: center;"">
                    <img src=""images/semantic/semantic_series_1/semantic_series_1_c.jpg"" style=""width: 300px; height: 300px;"" />
                  </div>","null","",""
"","","","","","html-keyboard-response","37","543922","0.0-27.0-3.0","12701B4AD25343918D991BAA397622EE","12701B4AD25343918D991BAA397622EE","aacbc993-6319-4683-a097-6c4054cab8f9","bea99957-1862-4ad8-9558-57b91e42ce64","{""participantId"":""12701B4AD25343918D991BAA397622EE"",""assignmentId"":""aacbc993-6319-4683-a097-6c4054cab8f9"",""projectId"":""bea99957-1862-4ad8-9558-57b91e42ce64""}","https://test12345.live/?participantId=12701B4AD25343918D991BAA397622EE&assignmentId=aacbc993-6319-4683-a097-6c4054cab8f9&projectId=bea99957-1862-4ad8-9558-57b91e42ce64","","null","<div style=""display: flex; justify-content: center; align-items: center;"">
                    <img src=""images/semantic/semantic_series_1/semantic_series_1_d.jpg"" style=""width: 300px; height: 300px;"" />
                  </div>","null","",""
"","","","","","html-button-response","38","552979","0.0-28.0","12701B4AD25343918D991BAA397622EE","12701B4AD25343918D991BAA397622EE","aacbc993-6319-4683-a097-6c4054cab8f9","bea99957-1862-4ad8-9558-57b91e42ce64","{""participantId"":""12701B4AD25343918D991BAA397622EE"",""assignmentId"":""aacbc993-6319-4683-a097-6c4054cab8f9"",""projectId"":""bea99957-1862-4ad8-9558-57b91e42ce64""}","https://test12345.live/?participantId=12701B4AD25343918D991BAA397622EE&assignmentId=aacbc993-6319-4683-a097-6c4054cab8f9&projectId=bea99957-1862-4ad8-9558-57b91e42ce64","","9056","Was there a person in the picture?","0","",""
"","","","","","survey-likert","39","566995","0.0-29.0","12701B4AD25343918D991BAA397622EE","12701B4AD25343918D991BAA397622EE","aacbc993-6319-4683-a097-6c4054cab8f9","bea99957-1862-4ad8-9558-57b91e42ce64","{""participantId"":""12701B4AD25343918D991BAA397622EE"",""assignmentId"":""aacbc993-6319-4683-a097-6c4054cab8f9"",""projectId"":""bea99957-1862-4ad8-9558-57b91e42ce64""}","https://test12345.live/?participantId=12701B4AD25343918D991BAA397622EE&assignmentId=aacbc993-6319-4683-a097-6c4054cab8f9&projectId=bea99957-1862-4ad8-9558-57b91e42ce64","","14014","","{""Q0"":4}","","[0]"
"","","","","","html-button-response","40","571135","0.0-30.0","12701B4AD25343918D991BAA397622EE","12701B4AD25343918D991BAA397622EE","aacbc993-6319-4683-a097-6c4054cab8f9","bea99957-1862-4ad8-9558-57b91e42ce64","{""participantId"":""12701B4AD25343918D991BAA397622EE"",""assignmentId"":""aacbc993-6319-4683-a097-6c4054cab8f9"",""projectId"":""bea99957-1862-4ad8-9558-57b91e42ce64""}","https://test12345.live/?participantId=12701B4AD25343918D991BAA397622EE&assignmentId=aacbc993-6319-4683-a097-6c4054cab8f9&projectId=bea99957-1862-4ad8-9558-57b91e42ce64","","4137","
    <div style=""display: flex; justify-content: center; align-items: center;"">
      <img src=""images/red_deck_2.png"" style=""width: 300px; height: 300px; margin-right: 10px;"" />
      <img src=""images/blue_deck_1.png"" style=""width: 300px; height: 300px;"" />
    </div>","0","0",""
"","","","","","html-keyboard-response","41","574148","0.0-32.0-0.0","12701B4AD25343918D991BAA397622EE","12701B4AD25343918D991BAA397622EE","aacbc993-6319-4683-a097-6c4054cab8f9","bea99957-1862-4ad8-9558-57b91e42ce64","{""participantId"":""12701B4AD25343918D991BAA397622EE"",""assignmentId"":""aacbc993-6319-4683-a097-6c4054cab8f9"",""projectId"":""bea99957-1862-4ad8-9558-57b91e42ce64""}","https://test12345.live/?participantId=12701B4AD25343918D991BAA397622EE&assignmentId=aacbc993-6319-4683-a097-6c4054cab8f9&projectId=bea99957-1862-4ad8-9558-57b91e42ce64","","null","<div style=""display: flex; justify-content: center; align-items: center;"">
                    <img src=""images/semantic/semantic_series_9/semantic_series_9_a.jpg"" style=""width: 300px; height: 300px;"" />
                  </div>","null","",""
"","","","","","html-keyboard-response","42","577154","0.0-32.0-1.0","12701B4AD25343918D991BAA397622EE","12701B4AD25343918D991BAA397622EE","aacbc993-6319-4683-a097-6c4054cab8f9","bea99957-1862-4ad8-9558-57b91e42ce64","{""participantId"":""12701B4AD25343918D991BAA397622EE"",""assignmentId"":""aacbc993-6319-4683-a097-6c4054cab8f9"",""projectId"":""bea99957-1862-4ad8-9558-57b91e42ce64""}","https://test12345.live/?participantId=12701B4AD25343918D991BAA397622EE&assignmentId=aacbc993-6319-4683-a097-6c4054cab8f9&projectId=bea99957-1862-4ad8-9558-57b91e42ce64","","null","<div style=""display: flex; justify-content: center; align-items: center;"">
                    <img src=""images/semantic/semantic_series_9/semantic_series_9_b.jpg"" style=""width: 300px; height: 300px;"" />
                  </div>","null","",""
"","","","","","html-keyboard-response","43","580160","0.0-32.0-2.0","12701B4AD25343918D991BAA397622EE","12701B4AD25343918D991BAA397622EE","aacbc993-6319-4683-a097-6c4054cab8f9","bea99957-1862-4ad8-9558-57b91e42ce64","{""participantId"":""12701B4AD25343918D991BAA397622EE"",""assignmentId"":""aacbc993-6319-4683-a097-6c4054cab8f9"",""projectId"":""bea99957-1862-4ad8-9558-57b91e42ce64""}","https://test12345.live/?participantId=12701B4AD25343918D991BAA397622EE&assignmentId=aacbc993-6319-4683-a097-6c4054cab8f9&projectId=bea99957-1862-4ad8-9558-57b91e42ce64","","null","<div style=""display: flex; justify-content: center; align-items: center;"">
                    <img src=""images/semantic/semantic_series_9/semantic_series_9_c.jpg"" style=""width: 300px; height: 300px;"" />
                  </div>","null","",""
"","","","","","html-keyboard-response","44","583175","0.0-32.0-3.0","12701B4AD25343918D991BAA397622EE","12701B4AD25343918D991BAA397622EE","aacbc993-6319-4683-a097-6c4054cab8f9","bea99957-1862-4ad8-9558-57b91e42ce64","{""participantId"":""12701B4AD25343918D991BAA397622EE"",""assignmentId"":""aacbc993-6319-4683-a097-6c4054cab8f9"",""projectId"":""bea99957-1862-4ad8-9558-57b91e42ce64""}","https://test12345.live/?participantId=12701B4AD25343918D991BAA397622EE&assignmentId=aacbc993-6319-4683-a097-6c4054cab8f9&projectId=bea99957-1862-4ad8-9558-57b91e42ce64","","null","<div style=""display: flex; justify-content: center; align-items: center;"">
                    <img src=""images/semantic/semantic_series_9/semantic_series_9_d.jpg"" style=""width: 300px; height: 300px;"" />
                  </div>","null","",""
"","","","","","html-button-response","45","587007","0.0-33.0","12701B4AD25343918D991BAA397622EE","12701B4AD25343918D991BAA397622EE","aacbc993-6319-4683-a097-6c4054cab8f9","bea99957-1862-4ad8-9558-57b91e42ce64","{""participantId"":""12701B4AD25343918D991BAA397622EE"",""assignmentId"":""aacbc993-6319-4683-a097-6c4054cab8f9"",""projectId"":""bea99957-1862-4ad8-9558-57b91e42ce64""}","https://test12345.live/?participantId=12701B4AD25343918D991BAA397622EE&assignmentId=aacbc993-6319-4683-a097-6c4054cab8f9&projectId=bea99957-1862-4ad8-9558-57b91e42ce64","","3831","Was there a person in the picture?","1","",""
"","","","","","survey-likert","46","595165","0.0-34.0","12701B4AD25343918D991BAA397622EE","12701B4AD25343918D991BAA397622EE","aacbc993-6319-4683-a097-6c4054cab8f9","bea99957-1862-4ad8-9558-57b91e42ce64","{""participantId"":""12701B4AD25343918D991BAA397622EE"",""assignmentId"":""aacbc993-6319-4683-a097-6c4054cab8f9"",""projectId"":""bea99957-1862-4ad8-9558-57b91e42ce64""}","https://test12345.live/?participantId=12701B4AD25343918D991BAA397622EE&assignmentId=aacbc993-6319-4683-a097-6c4054cab8f9&projectId=bea99957-1862-4ad8-9558-57b91e42ce64","","8155","","{""Q0"":4}","","[0]"
"","","","","","html-button-response","47","596880","0.0-35.0","12701B4AD25343918D991BAA397622EE","12701B4AD25343918D991BAA397622EE","aacbc993-6319-4683-a097-6c4054cab8f9","bea99957-1862-4ad8-9558-57b91e42ce64","{""participantId"":""12701B4AD25343918D991BAA397622EE"",""assignmentId"":""aacbc993-6319-4683-a097-6c4054cab8f9"",""projectId"":""bea99957-1862-4ad8-9558-57b91e42ce64""}","https://test12345.live/?participantId=12701B4AD25343918D991BAA397622EE&assignmentId=aacbc993-6319-4683-a097-6c4054cab8f9&projectId=bea99957-1862-4ad8-9558-57b91e42ce64","","1712","
    <div style=""display: flex; justify-content: center; align-items: center;"">
      <img src=""images/red_deck_2.png"" style=""width: 300px; height: 300px; margin-right: 10px;"" />
      <img src=""images/blue_deck_1.png"" style=""width: 300px; height: 300px;"" />
    </div>","0","0",""
"","","","","","html-keyboard-response","48","599894","0.0-37.0-0.0","12701B4AD25343918D991BAA397622EE","12701B4AD25343918D991BAA397622EE","aacbc993-6319-4683-a097-6c4054cab8f9","bea99957-1862-4ad8-9558-57b91e42ce64","{""participantId"":""12701B4AD25343918D991BAA397622EE"",""assignmentId"":""aacbc993-6319-4683-a097-6c4054cab8f9"",""projectId"":""bea99957-1862-4ad8-9558-57b91e42ce64""}","https://test12345.live/?participantId=12701B4AD25343918D991BAA397622EE&assignmentId=aacbc993-6319-4683-a097-6c4054cab8f9&projectId=bea99957-1862-4ad8-9558-57b91e42ce64","","null","<div style=""display: flex; justify-content: center; align-items: center;"">
                    <img src=""images/semantic/semantic_series_12/semantic_series_12_a.jpg"" style=""width: 300px; height: 300px;"" />
                  </div>","null","",""
"","","","","","html-keyboard-response","49","602896","0.0-37.0-1.0","12701B4AD25343918D991BAA397622EE","12701B4AD25343918D991BAA397622EE","aacbc993-6319-4683-a097-6c4054cab8f9","bea99957-1862-4ad8-9558-57b91e42ce64","{""participantId"":""12701B4AD25343918D991BAA397622EE"",""assignmentId"":""aacbc993-6319-4683-a097-6c4054cab8f9"",""projectId"":""bea99957-1862-4ad8-9558-57b91e42ce64""}","https://test12345.live/?participantId=12701B4AD25343918D991BAA397622EE&assignmentId=aacbc993-6319-4683-a097-6c4054cab8f9&projectId=bea99957-1862-4ad8-9558-57b91e42ce64","","null","<div style=""display: flex; justify-content: center; align-items: center;"">
                    <img src=""images/semantic/semantic_series_12/semantic_series_12_b.jpg"" style=""width: 300px; height: 300px;"" />
                  </div>","null","",""
"","","","","","html-keyboard-response","50","605901","0.0-37.0-2.0","12701B4AD25343918D991BAA397622EE","12701B4AD25343918D991BAA397622EE","aacbc993-6319-4683-a097-6c4054cab8f9","bea99957-1862-4ad8-9558-57b91e42ce64","{""participantId"":""12701B4AD25343918D991BAA397622EE"",""assignmentId"":""aacbc993-6319-4683-a097-6c4054cab8f9"",""projectId"":""bea99957-1862-4ad8-9558-57b91e42ce64""}","https://test12345.live/?participantId=12701B4AD25343918D991BAA397622EE&assignmentId=aacbc993-6319-4683-a097-6c4054cab8f9&projectId=bea99957-1862-4ad8-9558-57b91e42ce64","","null","<div style=""display: flex; justify-content: center; align-items: center;"">
                    <img src=""images/semantic/semantic_series_12/semantic_series_12_c.jpg"" style=""width: 300px; height: 300px;"" />
                  </div>","null","",""
"","","","","","html-keyboard-response","51","608904","0.0-37.0-3.0","12701B4AD25343918D991BAA397622EE","12701B4AD25343918D991BAA397622EE","aacbc993-6319-4683-a097-6c4054cab8f9","bea99957-1862-4ad8-9558-57b91e42ce64","{""participantId"":""12701B4AD25343918D991BAA397622EE"",""assignmentId"":""aacbc993-6319-4683-a097-6c4054cab8f9"",""projectId"":""bea99957-1862-4ad8-9558-57b91e42ce64""}","https://test12345.live/?participantId=12701B4AD25343918D991BAA397622EE&assignmentId=aacbc993-6319-4683-a097-6c4054cab8f9&projectId=bea99957-1862-4ad8-9558-57b91e42ce64","","null","<div style=""display: flex; justify-content: center; align-items: center;"">
                    <img src=""images/semantic/semantic_series_12/semantic_series_12_d.jpg"" style=""width: 300px; height: 300px;"" />
                  </div>","null","",""
"","","","","","html-button-response","52","619980","0.0-38.0","12701B4AD25343918D991BAA397622EE","12701B4AD25343918D991BAA397622EE","aacbc993-6319-4683-a097-6c4054cab8f9","bea99957-1862-4ad8-9558-57b91e42ce64","{""participantId"":""12701B4AD25343918D991BAA397622EE"",""assignmentId"":""aacbc993-6319-4683-a097-6c4054cab8f9"",""projectId"":""bea99957-1862-4ad8-9558-57b91e42ce64""}","https://test12345.live/?participantId=12701B4AD25343918D991BAA397622EE&assignmentId=aacbc993-6319-4683-a097-6c4054cab8f9&projectId=bea99957-1862-4ad8-9558-57b91e42ce64","","11074","Was there a person in the picture?","1","",""
"","","","","","survey-likert","53","628596","0.0-39.0","12701B4AD25343918D991BAA397622EE","12701B4AD25343918D991BAA397622EE","aacbc993-6319-4683-a097-6c4054cab8f9","bea99957-1862-4ad8-9558-57b91e42ce64","{""participantId"":""12701B4AD25343918D991BAA397622EE"",""assignmentId"":""aacbc993-6319-4683-a097-6c4054cab8f9"",""projectId"":""bea99957-1862-4ad8-9558-57b91e42ce64""}","https://test12345.live/?participantId=12701B4AD25343918D991BAA397622EE&assignmentId=aacbc993-6319-4683-a097-6c4054cab8f9&projectId=bea99957-1862-4ad8-9558-57b91e42ce64","","8613","","{""Q0"":4}","","[0]"
"","","","","","html-button-response","54","630985","0.0-40.0","12701B4AD25343918D991BAA397622EE","12701B4AD25343918D991BAA397622EE","aacbc993-6319-4683-a097-6c4054cab8f9","bea99957-1862-4ad8-9558-57b91e42ce64","{""participantId"":""12701B4AD25343918D991BAA397622EE"",""assignmentId"":""aacbc993-6319-4683-a097-6c4054cab8f9"",""projectId"":""bea99957-1862-4ad8-9558-57b91e42ce64""}","https://test12345.live/?participantId=12701B4AD25343918D991BAA397622EE&assignmentId=aacbc993-6319-4683-a097-6c4054cab8f9&projectId=bea99957-1862-4ad8-9558-57b91e42ce64","","2386","
    <div style=""display: flex; justify-content: center; align-items: center;"">
      <img src=""images/red_deck_2.png"" style=""width: 300px; height: 300px; margin-right: 10px;"" />
      <img src=""images/blue_deck_1.png"" style=""width: 300px; height: 300px;"" />
    </div>","0","0",""
"","","","","","html-keyboard-response","55","634001","0.0-42.0-0.0","12701B4AD25343918D991BAA397622EE","12701B4AD25343918D991BAA397622EE","aacbc993-6319-4683-a097-6c4054cab8f9","bea99957-1862-4ad8-9558-57b91e42ce64","{""participantId"":""12701B4AD25343918D991BAA397622EE"",""assignmentId"":""aacbc993-6319-4683-a097-6c4054cab8f9"",""projectId"":""bea99957-1862-4ad8-9558-57b91e42ce64""}","https://test12345.live/?participantId=12701B4AD25343918D991BAA397622EE&assignmentId=aacbc993-6319-4683-a097-6c4054cab8f9&projectId=bea99957-1862-4ad8-9558-57b91e42ce64","","null","<div style=""display: flex; justify-content: center; align-items: center;"">
                    <img src=""images/semantic/semantic_series_18/semantic_series_18_a.jpg"" style=""width: 300px; height: 300px;"" />
                  </div>","null","",""
"","","","","","html-keyboard-response","56","637007","0.0-42.0-1.0","12701B4AD25343918D991BAA397622EE","12701B4AD25343918D991BAA397622EE","aacbc993-6319-4683-a097-6c4054cab8f9","bea99957-1862-4ad8-9558-57b91e42ce64","{""participantId"":""12701B4AD25343918D991BAA397622EE"",""assignmentId"":""aacbc993-6319-4683-a097-6c4054cab8f9"",""projectId"":""bea99957-1862-4ad8-9558-57b91e42ce64""}","https://test12345.live/?participantId=12701B4AD25343918D991BAA397622EE&assignmentId=aacbc993-6319-4683-a097-6c4054cab8f9&projectId=bea99957-1862-4ad8-9558-57b91e42ce64","","null","<div style=""display: flex; justify-content: center; align-items: center;"">
                    <img src=""images/semantic/semantic_series_18/semantic_series_18_b.jpg"" style=""width: 300px; height: 300px;"" />
                  </div>","null","",""
"","","","","","html-keyboard-response","57","640020","0.0-42.0-2.0","12701B4AD25343918D991BAA397622EE","12701B4AD25343918D991BAA397622EE","aacbc993-6319-4683-a097-6c4054cab8f9","bea99957-1862-4ad8-9558-57b91e42ce64","{""participantId"":""12701B4AD25343918D991BAA397622EE"",""assignmentId"":""aacbc993-6319-4683-a097-6c4054cab8f9"",""projectId"":""bea99957-1862-4ad8-9558-57b91e42ce64""}","https://test12345.live/?participantId=12701B4AD25343918D991BAA397622EE&assignmentId=aacbc993-6319-4683-a097-6c4054cab8f9&projectId=bea99957-1862-4ad8-9558-57b91e42ce64","","null","<div style=""display: flex; justify-content: center; align-items: center;"">
                    <img src=""images/semantic/semantic_series_18/semantic_series_18_c.jpg"" style=""width: 300px; height: 300px;"" />
                  </div>","null","",""
"","","","","","html-keyboard-response","58","643027","0.0-42.0-3.0","12701B4AD25343918D991BAA397622EE","12701B4AD25343918D991BAA397622EE","aacbc993-6319-4683-a097-6c4054cab8f9","bea99957-1862-4ad8-9558-57b91e42ce64","{""participantId"":""12701B4AD25343918D991BAA397622EE"",""assignmentId"":""aacbc993-6319-4683-a097-6c4054cab8f9"",""projectId"":""bea99957-1862-4ad8-9558-57b91e42ce64""}","https://test12345.live/?participantId=12701B4AD25343918D991BAA397622EE&assignmentId=aacbc993-6319-4683-a097-6c4054cab8f9&projectId=bea99957-1862-4ad8-9558-57b91e42ce64","","null","<div style=""display: flex; justify-content: center; align-items: center;"">
                    <img src=""images/semantic/semantic_series_18/semantic_series_18_d.jpg"" style=""width: 300px; height: 300px;"" />
                  </div>","null","",""
"","","","","","html-button-response","59","646745","0.0-43.0","12701B4AD25343918D991BAA397622EE","12701B4AD25343918D991BAA397622EE","aacbc993-6319-4683-a097-6c4054cab8f9","bea99957-1862-4ad8-9558-57b91e42ce64","{""participantId"":""12701B4AD25343918D991BAA397622EE"",""assignmentId"":""aacbc993-6319-4683-a097-6c4054cab8f9"",""projectId"":""bea99957-1862-4ad8-9558-57b91e42ce64""}","https://test12345.live/?participantId=12701B4AD25343918D991BAA397622EE&assignmentId=aacbc993-6319-4683-a097-6c4054cab8f9&projectId=bea99957-1862-4ad8-9558-57b91e42ce64","","3717","Was there a person in the picture?","1","",""
"","","","","","survey-likert","60","654533","0.0-44.0","12701B4AD25343918D991BAA397622EE","12701B4AD25343918D991BAA397622EE","aacbc993-6319-4683-a097-6c4054cab8f9","bea99957-1862-4ad8-9558-57b91e42ce64","{""participantId"":""12701B4AD25343918D991BAA397622EE"",""assignmentId"":""aacbc993-6319-4683-a097-6c4054cab8f9"",""projectId"":""bea99957-1862-4ad8-9558-57b91e42ce64""}","https://test12345.live/?participantId=12701B4AD25343918D991BAA397622EE&assignmentId=aacbc993-6319-4683-a097-6c4054cab8f9&projectId=bea99957-1862-4ad8-9558-57b91e42ce64","","7785","","{""Q0"":4}","","[0]"
"","","","","","html-button-response","61","659641","0.0-45.0","12701B4AD25343918D991BAA397622EE","12701B4AD25343918D991BAA397622EE","aacbc993-6319-4683-a097-6c4054cab8f9","bea99957-1862-4ad8-9558-57b91e42ce64","{""participantId"":""12701B4AD25343918D991BAA397622EE"",""assignmentId"":""aacbc993-6319-4683-a097-6c4054cab8f9"",""projectId"":""bea99957-1862-4ad8-9558-57b91e42ce64""}","https://test12345.live/?participantId=12701B4AD25343918D991BAA397622EE&assignmentId=aacbc993-6319-4683-a097-6c4054cab8f9&projectId=bea99957-1862-4ad8-9558-57b91e42ce64","","5106","
    <div style=""display: flex; justify-content: center; align-items: center;"">
      <img src=""images/red_deck_2.png"" style=""width: 300px; height: 300px; margin-right: 10px;"" />
      <img src=""images/blue_deck_1.png"" style=""width: 300px; height: 300px;"" />
    </div>","0","0",""
"","","","","","html-keyboard-response","62","662658","0.0-47.0-0.0","12701B4AD25343918D991BAA397622EE","12701B4AD25343918D991BAA397622EE","aacbc993-6319-4683-a097-6c4054cab8f9","bea99957-1862-4ad8-9558-57b91e42ce64","{""participantId"":""12701B4AD25343918D991BAA397622EE"",""assignmentId"":""aacbc993-6319-4683-a097-6c4054cab8f9"",""projectId"":""bea99957-1862-4ad8-9558-57b91e42ce64""}","https://test12345.live/?participantId=12701B4AD25343918D991BAA397622EE&assignmentId=aacbc993-6319-4683-a097-6c4054cab8f9&projectId=bea99957-1862-4ad8-9558-57b91e42ce64","","null","<div style=""display: flex; justify-content: center; align-items: center;"">
                    <img src=""images/semantic/semantic_series_11/semantic_series_11_a.jpg"" style=""width: 300px; height: 300px;"" />
                  </div>","null","",""
"","","","","","html-keyboard-response","63","665665","0.0-47.0-1.0","12701B4AD25343918D991BAA397622EE","12701B4AD25343918D991BAA397622EE","aacbc993-6319-4683-a097-6c4054cab8f9","bea99957-1862-4ad8-9558-57b91e42ce64","{""participantId"":""12701B4AD25343918D991BAA397622EE"",""assignmentId"":""aacbc993-6319-4683-a097-6c4054cab8f9"",""projectId"":""bea99957-1862-4ad8-9558-57b91e42ce64""}","https://test12345.live/?participantId=12701B4AD25343918D991BAA397622EE&assignmentId=aacbc993-6319-4683-a097-6c4054cab8f9&projectId=bea99957-1862-4ad8-9558-57b91e42ce64","","null","<div style=""display: flex; justify-content: center; align-items: center;"">
                    <img src=""images/semantic/semantic_series_11/semantic_series_11_b.jpg"" style=""width: 300px; height: 300px;"" />
                  </div>","null","",""
"","","","","","html-keyboard-response","64","668673","0.0-47.0-2.0","12701B4AD25343918D991BAA397622EE","12701B4AD25343918D991BAA397622EE","aacbc993-6319-4683-a097-6c4054cab8f9","bea99957-1862-4ad8-9558-57b91e42ce64","{""participantId"":""12701B4AD25343918D991BAA397622EE"",""assignmentId"":""aacbc993-6319-4683-a097-6c4054cab8f9"",""projectId"":""bea99957-1862-4ad8-9558-57b91e42ce64""}","https://test12345.live/?participantId=12701B4AD25343918D991BAA397622EE&assignmentId=aacbc993-6319-4683-a097-6c4054cab8f9&projectId=bea99957-1862-4ad8-9558-57b91e42ce64","","null","<div style=""display: flex; justify-content: center; align-items: center;"">
                    <img src=""images/semantic/semantic_series_11/semantic_series_11_c.jpg"" style=""width: 300px; height: 300px;"" />
                  </div>","null","",""
"","","","","","html-keyboard-response","65","671682","0.0-47.0-3.0","12701B4AD25343918D991BAA397622EE","12701B4AD25343918D991BAA397622EE","aacbc993-6319-4683-a097-6c4054cab8f9","bea99957-1862-4ad8-9558-57b91e42ce64","{""participantId"":""12701B4AD25343918D991BAA397622EE"",""assignmentId"":""aacbc993-6319-4683-a097-6c4054cab8f9"",""projectId"":""bea99957-1862-4ad8-9558-57b91e42ce64""}","https://test12345.live/?participantId=12701B4AD25343918D991BAA397622EE&assignmentId=aacbc993-6319-4683-a097-6c4054cab8f9&projectId=bea99957-1862-4ad8-9558-57b91e42ce64","","null","<div style=""display: flex; justify-content: center; align-items: center;"">
                    <img src=""images/semantic/semantic_series_11/semantic_series_11_d.jpg"" style=""width: 300px; height: 300px;"" />
                  </div>","null","",""
"","","","","","html-button-response","66","674066","0.0-48.0","12701B4AD25343918D991BAA397622EE","12701B4AD25343918D991BAA397622EE","aacbc993-6319-4683-a097-6c4054cab8f9","bea99957-1862-4ad8-9558-57b91e42ce64","{""participantId"":""12701B4AD25343918D991BAA397622EE"",""assignmentId"":""aacbc993-6319-4683-a097-6c4054cab8f9"",""projectId"":""bea99957-1862-4ad8-9558-57b91e42ce64""}","https://test12345.live/?participantId=12701B4AD25343918D991BAA397622EE&assignmentId=aacbc993-6319-4683-a097-6c4054cab8f9&projectId=bea99957-1862-4ad8-9558-57b91e42ce64","","2383","Was there a person in the picture?","0","",""
"","","","","","survey-likert","67","719301","0.0-49.0","12701B4AD25343918D991BAA397622EE","12701B4AD25343918D991BAA397622EE","aacbc993-6319-4683-a097-6c4054cab8f9","bea99957-1862-4ad8-9558-57b91e42ce64","{""participantId"":""12701B4AD25343918D991BAA397622EE"",""assignmentId"":""aacbc993-6319-4683-a097-6c4054cab8f9"",""projectId"":""bea99957-1862-4ad8-9558-57b91e42ce64""}","https://test12345.live/?participantId=12701B4AD25343918D991BAA397622EE&assignmentId=aacbc993-6319-4683-a097-6c4054cab8f9&projectId=bea99957-1862-4ad8-9558-57b91e42ce64","","45233","","{""Q0"":4}","","[0]"
"","","","","","html-button-response","68","720952","0.0-50.0","12701B4AD25343918D991BAA397622EE","12701B4AD25343918D991BAA397622EE","aacbc993-6319-4683-a097-6c4054cab8f9","bea99957-1862-4ad8-9558-57b91e42ce64","{""participantId"":""12701B4AD25343918D991BAA397622EE"",""assignmentId"":""aacbc993-6319-4683-a097-6c4054cab8f9"",""projectId"":""bea99957-1862-4ad8-9558-57b91e42ce64""}","https://test12345.live/?participantId=12701B4AD25343918D991BAA397622EE&assignmentId=aacbc993-6319-4683-a097-6c4054cab8f9&projectId=bea99957-1862-4ad8-9558-57b91e42ce64","","1649","
    <div style=""display: flex; justify-content: center; align-items: center;"">
      <img src=""images/red_deck_2.png"" style=""width: 300px; height: 300px; margin-right: 10px;"" />
      <img src=""images/blue_deck_1.png"" style=""width: 300px; height: 300px;"" />
    </div>","1","1",""
"","","","","","html-keyboard-response","69","723967","0.0-51.0-0.0","12701B4AD25343918D991BAA397622EE","12701B4AD25343918D991BAA397622EE","aacbc993-6319-4683-a097-6c4054cab8f9","bea99957-1862-4ad8-9558-57b91e42ce64","{""participantId"":""12701B4AD25343918D991BAA397622EE"",""assignmentId"":""aacbc993-6319-4683-a097-6c4054cab8f9"",""projectId"":""bea99957-1862-4ad8-9558-57b91e42ce64""}","https://test12345.live/?participantId=12701B4AD25343918D991BAA397622EE&assignmentId=aacbc993-6319-4683-a097-6c4054cab8f9&projectId=bea99957-1862-4ad8-9558-57b91e42ce64","","null","<div style=""display: flex; justify-content: center; align-items: center;"">
                    <img src=""images/causal/causal_series_5/causal_series_5_a.jpg"" style=""width: 300px; height: 300px;"" />
                  </div>","null","",""
"","","","","","html-keyboard-response","70","726978","0.0-51.0-1.0","12701B4AD25343918D991BAA397622EE","12701B4AD25343918D991BAA397622EE","aacbc993-6319-4683-a097-6c4054cab8f9","bea99957-1862-4ad8-9558-57b91e42ce64","{""participantId"":""12701B4AD25343918D991BAA397622EE"",""assignmentId"":""aacbc993-6319-4683-a097-6c4054cab8f9"",""projectId"":""bea99957-1862-4ad8-9558-57b91e42ce64""}","https://test12345.live/?participantId=12701B4AD25343918D991BAA397622EE&assignmentId=aacbc993-6319-4683-a097-6c4054cab8f9&projectId=bea99957-1862-4ad8-9558-57b91e42ce64","","null","<div style=""display: flex; justify-content: center; align-items: center;"">
                    <img src=""images/causal/causal_series_5/causal_series_5_b.jpg"" style=""width: 300px; height: 300px;"" />
                  </div>","null","",""
"","","","","","html-keyboard-response","71","729991","0.0-51.0-2.0","12701B4AD25343918D991BAA397622EE","12701B4AD25343918D991BAA397622EE","aacbc993-6319-4683-a097-6c4054cab8f9","bea99957-1862-4ad8-9558-57b91e42ce64","{""participantId"":""12701B4AD25343918D991BAA397622EE"",""assignmentId"":""aacbc993-6319-4683-a097-6c4054cab8f9"",""projectId"":""bea99957-1862-4ad8-9558-57b91e42ce64""}","https://test12345.live/?participantId=12701B4AD25343918D991BAA397622EE&assignmentId=aacbc993-6319-4683-a097-6c4054cab8f9&projectId=bea99957-1862-4ad8-9558-57b91e42ce64","","null","<div style=""display: flex; justify-content: center; align-items: center;"">
                    <img src=""images/causal/causal_series_5/causal_series_5_c.jpg"" style=""width: 300px; height: 300px;"" />
                  </div>","null","",""
"","","","","","html-keyboard-response","72","732996","0.0-51.0-3.0","12701B4AD25343918D991BAA397622EE","12701B4AD25343918D991BAA397622EE","aacbc993-6319-4683-a097-6c4054cab8f9","bea99957-1862-4ad8-9558-57b91e42ce64","{""participantId"":""12701B4AD25343918D991BAA397622EE"",""assignmentId"":""aacbc993-6319-4683-a097-6c4054cab8f9"",""projectId"":""bea99957-1862-4ad8-9558-57b91e42ce64""}","https://test12345.live/?participantId=12701B4AD25343918D991BAA397622EE&assignmentId=aacbc993-6319-4683-a097-6c4054cab8f9&projectId=bea99957-1862-4ad8-9558-57b91e42ce64","","null","<div style=""display: flex; justify-content: center; align-items: center;"">
                    <img src=""images/causal/causal_series_5/causal_series_5_d.jpg"" style=""width: 300px; height: 300px;"" />
                  </div>","null","",""
"","","","","","html-button-response","73","743946","0.0-53.0","12701B4AD25343918D991BAA397622EE","12701B4AD25343918D991BAA397622EE","aacbc993-6319-4683-a097-6c4054cab8f9","bea99957-1862-4ad8-9558-57b91e42ce64","{""participantId"":""12701B4AD25343918D991BAA397622EE"",""assignmentId"":""aacbc993-6319-4683-a097-6c4054cab8f9"",""projectId"":""bea99957-1862-4ad8-9558-57b91e42ce64""}","https://test12345.live/?participantId=12701B4AD25343918D991BAA397622EE&assignmentId=aacbc993-6319-4683-a097-6c4054cab8f9&projectId=bea99957-1862-4ad8-9558-57b91e42ce64","","10947","Was there a person in the picture?","1","",""
"","","","","","survey-likert","74","753212","0.0-54.0","12701B4AD25343918D991BAA397622EE","12701B4AD25343918D991BAA397622EE","aacbc993-6319-4683-a097-6c4054cab8f9","bea99957-1862-4ad8-9558-57b91e42ce64","{""participantId"":""12701B4AD25343918D991BAA397622EE"",""assignmentId"":""aacbc993-6319-4683-a097-6c4054cab8f9"",""projectId"":""bea99957-1862-4ad8-9558-57b91e42ce64""}","https://test12345.live/?participantId=12701B4AD25343918D991BAA397622EE&assignmentId=aacbc993-6319-4683-a097-6c4054cab8f9&projectId=bea99957-1862-4ad8-9558-57b91e42ce64","","9264","","{""Q0"":4}","","[0]"
"","","","","","html-button-response","75","770480","0.0-55.0","12701B4AD25343918D991BAA397622EE","12701B4AD25343918D991BAA397622EE","aacbc993-6319-4683-a097-6c4054cab8f9","bea99957-1862-4ad8-9558-57b91e42ce64","{""participantId"":""12701B4AD25343918D991BAA397622EE"",""assignmentId"":""aacbc993-6319-4683-a097-6c4054cab8f9"",""projectId"":""bea99957-1862-4ad8-9558-57b91e42ce64""}","https://test12345.live/?participantId=12701B4AD25343918D991BAA397622EE&assignmentId=aacbc993-6319-4683-a097-6c4054cab8f9&projectId=bea99957-1862-4ad8-9558-57b91e42ce64","","17265","
    <div style=""display: flex; justify-content: center; align-items: center;"">
      <img src=""images/red_deck_2.png"" style=""width: 300px; height: 300px; margin-right: 10px;"" />
      <img src=""images/blue_deck_1.png"" style=""width: 300px; height: 300px;"" />
    </div>","1","1",""
"","","","","","html-keyboard-response","76","773481","0.0-56.0-0.0","12701B4AD25343918D991BAA397622EE","12701B4AD25343918D991BAA397622EE","aacbc993-6319-4683-a097-6c4054cab8f9","bea99957-1862-4ad8-9558-57b91e42ce64","{""participantId"":""12701B4AD25343918D991BAA397622EE"",""assignmentId"":""aacbc993-6319-4683-a097-6c4054cab8f9"",""projectId"":""bea99957-1862-4ad8-9558-57b91e42ce64""}","https://test12345.live/?participantId=12701B4AD25343918D991BAA397622EE&assignmentId=aacbc993-6319-4683-a097-6c4054cab8f9&projectId=bea99957-1862-4ad8-9558-57b91e42ce64","","null","<div style=""display: flex; justify-content: center; align-items: center;"">
                    <img src=""images/causal/causal_series_2/causal_series_2_a.jpg"" style=""width: 300px; height: 300px;"" />
                  </div>","null","",""
"","","","","","html-keyboard-response","77","776483","0.0-56.0-1.0","12701B4AD25343918D991BAA397622EE","12701B4AD25343918D991BAA397622EE","aacbc993-6319-4683-a097-6c4054cab8f9","bea99957-1862-4ad8-9558-57b91e42ce64","{""participantId"":""12701B4AD25343918D991BAA397622EE"",""assignmentId"":""aacbc993-6319-4683-a097-6c4054cab8f9"",""projectId"":""bea99957-1862-4ad8-9558-57b91e42ce64""}","https://test12345.live/?participantId=12701B4AD25343918D991BAA397622EE&assignmentId=aacbc993-6319-4683-a097-6c4054cab8f9&projectId=bea99957-1862-4ad8-9558-57b91e42ce64","","null","<div style=""display: flex; justify-content: center; align-items: center;"">
                    <img src=""images/causal/causal_series_2/causal_series_2_b.jpg"" style=""width: 300px; height: 300px;"" />
                  </div>","null","",""
"","","","","","html-keyboard-response","78","779486","0.0-56.0-2.0","12701B4AD25343918D991BAA397622EE","12701B4AD25343918D991BAA397622EE","aacbc993-6319-4683-a097-6c4054cab8f9","bea99957-1862-4ad8-9558-57b91e42ce64","{""participantId"":""12701B4AD25343918D991BAA397622EE"",""assignmentId"":""aacbc993-6319-4683-a097-6c4054cab8f9"",""projectId"":""bea99957-1862-4ad8-9558-57b91e42ce64""}","https://test12345.live/?participantId=12701B4AD25343918D991BAA397622EE&assignmentId=aacbc993-6319-4683-a097-6c4054cab8f9&projectId=bea99957-1862-4ad8-9558-57b91e42ce64","","null","<div style=""display: flex; justify-content: center; align-items: center;"">
                    <img src=""images/causal/causal_series_2/causal_series_2_c.jpg"" style=""width: 300px; height: 300px;"" />
                  </div>","null","",""
"","","","","","html-keyboard-response","79","782488","0.0-56.0-3.0","12701B4AD25343918D991BAA397622EE","12701B4AD25343918D991BAA397622EE","aacbc993-6319-4683-a097-6c4054cab8f9","bea99957-1862-4ad8-9558-57b91e42ce64","{""participantId"":""12701B4AD25343918D991BAA397622EE"",""assignmentId"":""aacbc993-6319-4683-a097-6c4054cab8f9"",""projectId"":""bea99957-1862-4ad8-9558-57b91e42ce64""}","https://test12345.live/?participantId=12701B4AD25343918D991BAA397622EE&assignmentId=aacbc993-6319-4683-a097-6c4054cab8f9&projectId=bea99957-1862-4ad8-9558-57b91e42ce64","","null","<div style=""display: flex; justify-content: center; align-items: center;"">
                    <img src=""images/causal/causal_series_2/causal_series_2_d.jpg"" style=""width: 300px; height: 300px;"" />
                  </div>","null","",""
"","","","","","html-button-response","80","796528","0.0-58.0","12701B4AD25343918D991BAA397622EE","12701B4AD25343918D991BAA397622EE","aacbc993-6319-4683-a097-6c4054cab8f9","bea99957-1862-4ad8-9558-57b91e42ce64","{""participantId"":""12701B4AD25343918D991BAA397622EE"",""assignmentId"":""aacbc993-6319-4683-a097-6c4054cab8f9"",""projectId"":""bea99957-1862-4ad8-9558-57b91e42ce64""}","https://test12345.live/?participantId=12701B4AD25343918D991BAA397622EE&assignmentId=aacbc993-6319-4683-a097-6c4054cab8f9&projectId=bea99957-1862-4ad8-9558-57b91e42ce64","","14038","Was there a person in the picture?","1","",""
"","","","","","survey-likert","81","802577","0.0-59.0","12701B4AD25343918D991BAA397622EE","12701B4AD25343918D991BAA397622EE","aacbc993-6319-4683-a097-6c4054cab8f9","bea99957-1862-4ad8-9558-57b91e42ce64","{""participantId"":""12701B4AD25343918D991BAA397622EE"",""assignmentId"":""aacbc993-6319-4683-a097-6c4054cab8f9"",""projectId"":""bea99957-1862-4ad8-9558-57b91e42ce64""}","https://test12345.live/?participantId=12701B4AD25343918D991BAA397622EE&assignmentId=aacbc993-6319-4683-a097-6c4054cab8f9&projectId=bea99957-1862-4ad8-9558-57b91e42ce64","","6046","","{""Q0"":4}","","[0]"
"","","","","","html-button-response","82","806727","0.0-60.0","12701B4AD25343918D991BAA397622EE","12701B4AD25343918D991BAA397622EE","aacbc993-6319-4683-a097-6c4054cab8f9","bea99957-1862-4ad8-9558-57b91e42ce64","{""participantId"":""12701B4AD25343918D991BAA397622EE"",""assignmentId"":""aacbc993-6319-4683-a097-6c4054cab8f9"",""projectId"":""bea99957-1862-4ad8-9558-57b91e42ce64""}","https://test12345.live/?participantId=12701B4AD25343918D991BAA397622EE&assignmentId=aacbc993-6319-4683-a097-6c4054cab8f9&projectId=bea99957-1862-4ad8-9558-57b91e42ce64","","4148","
    <div style=""display: flex; justify-content: center; align-items: center;"">
      <img src=""images/red_deck_2.png"" style=""width: 300px; height: 300px; margin-right: 10px;"" />
      <img src=""images/blue_deck_1.png"" style=""width: 300px; height: 300px;"" />
    </div>","1","1",""
"","","","","","html-keyboard-response","83","809739","0.0-61.0-0.0","12701B4AD25343918D991BAA397622EE","12701B4AD25343918D991BAA397622EE","aacbc993-6319-4683-a097-6c4054cab8f9","bea99957-1862-4ad8-9558-57b91e42ce64","{""participantId"":""12701B4AD25343918D991BAA397622EE"",""assignmentId"":""aacbc993-6319-4683-a097-6c4054cab8f9"",""projectId"":""bea99957-1862-4ad8-9558-57b91e42ce64""}","https://test12345.live/?participantId=12701B4AD25343918D991BAA397622EE&assignmentId=aacbc993-6319-4683-a097-6c4054cab8f9&projectId=bea99957-1862-4ad8-9558-57b91e42ce64","","null","<div style=""display: flex; justify-content: center; align-items: center;"">
                    <img src=""images/causal/causal_series_13/causal_series_13_a.jpg"" style=""width: 300px; height: 300px;"" />
                  </div>","null","",""
"","","","","","html-keyboard-response","84","812745","0.0-61.0-1.0","12701B4AD25343918D991BAA397622EE","12701B4AD25343918D991BAA397622EE","aacbc993-6319-4683-a097-6c4054cab8f9","bea99957-1862-4ad8-9558-57b91e42ce64","{""participantId"":""12701B4AD25343918D991BAA397622EE"",""assignmentId"":""aacbc993-6319-4683-a097-6c4054cab8f9"",""projectId"":""bea99957-1862-4ad8-9558-57b91e42ce64""}","https://test12345.live/?participantId=12701B4AD25343918D991BAA397622EE&assignmentId=aacbc993-6319-4683-a097-6c4054cab8f9&projectId=bea99957-1862-4ad8-9558-57b91e42ce64","","null","<div style=""display: flex; justify-content: center; align-items: center;"">
                    <img src=""images/causal/causal_series_13/causal_series_13_b.jpg"" style=""width: 300px; height: 300px;"" />
                  </div>","null","",""
"","","","","","html-keyboard-response","85","815753","0.0-61.0-2.0","12701B4AD25343918D991BAA397622EE","12701B4AD25343918D991BAA397622EE","aacbc993-6319-4683-a097-6c4054cab8f9","bea99957-1862-4ad8-9558-57b91e42ce64","{""participantId"":""12701B4AD25343918D991BAA397622EE"",""assignmentId"":""aacbc993-6319-4683-a097-6c4054cab8f9"",""projectId"":""bea99957-1862-4ad8-9558-57b91e42ce64""}","https://test12345.live/?participantId=12701B4AD25343918D991BAA397622EE&assignmentId=aacbc993-6319-4683-a097-6c4054cab8f9&projectId=bea99957-1862-4ad8-9558-57b91e42ce64","","null","<div style=""display: flex; justify-content: center; align-items: center;"">
                    <img src=""images/causal/causal_series_13/causal_series_13_c.jpg"" style=""width: 300px; height: 300px;"" />
                  </div>","null","",""
"","","","","","html-keyboard-response","86","818757","0.0-61.0-3.0","12701B4AD25343918D991BAA397622EE","12701B4AD25343918D991BAA397622EE","aacbc993-6319-4683-a097-6c4054cab8f9","bea99957-1862-4ad8-9558-57b91e42ce64","{""participantId"":""12701B4AD25343918D991BAA397622EE"",""assignmentId"":""aacbc993-6319-4683-a097-6c4054cab8f9"",""projectId"":""bea99957-1862-4ad8-9558-57b91e42ce64""}","https://test12345.live/?participantId=12701B4AD25343918D991BAA397622EE&assignmentId=aacbc993-6319-4683-a097-6c4054cab8f9&projectId=bea99957-1862-4ad8-9558-57b91e42ce64","","null","<div style=""display: flex; justify-content: center; align-items: center;"">
                    <img src=""images/causal/causal_series_13/causal_series_13_d.jpg"" style=""width: 300px; height: 300px;"" />
                  </div>","null","",""
"","","","","","html-button-response","87","836482","0.0-63.0","12701B4AD25343918D991BAA397622EE","12701B4AD25343918D991BAA397622EE","aacbc993-6319-4683-a097-6c4054cab8f9","bea99957-1862-4ad8-9558-57b91e42ce64","{""participantId"":""12701B4AD25343918D991BAA397622EE"",""assignmentId"":""aacbc993-6319-4683-a097-6c4054cab8f9"",""projectId"":""bea99957-1862-4ad8-9558-57b91e42ce64""}","https://test12345.live/?participantId=12701B4AD25343918D991BAA397622EE&assignmentId=aacbc993-6319-4683-a097-6c4054cab8f9&projectId=bea99957-1862-4ad8-9558-57b91e42ce64","","17723","Was there a person in the picture?","0","",""
"","","","","","survey-likert","88","845018","0.0-64.0","12701B4AD25343918D991BAA397622EE","12701B4AD25343918D991BAA397622EE","aacbc993-6319-4683-a097-6c4054cab8f9","bea99957-1862-4ad8-9558-57b91e42ce64","{""participantId"":""12701B4AD25343918D991BAA397622EE"",""assignmentId"":""aacbc993-6319-4683-a097-6c4054cab8f9"",""projectId"":""bea99957-1862-4ad8-9558-57b91e42ce64""}","https://test12345.live/?participantId=12701B4AD25343918D991BAA397622EE&assignmentId=aacbc993-6319-4683-a097-6c4054cab8f9&projectId=bea99957-1862-4ad8-9558-57b91e42ce64","","8535","","{""Q0"":4}","","[0]"
"","","","","","html-button-response","89","846859","0.0-65.0","12701B4AD25343918D991BAA397622EE","12701B4AD25343918D991BAA397622EE","aacbc993-6319-4683-a097-6c4054cab8f9","bea99957-1862-4ad8-9558-57b91e42ce64","{""participantId"":""12701B4AD25343918D991BAA397622EE"",""assignmentId"":""aacbc993-6319-4683-a097-6c4054cab8f9"",""projectId"":""bea99957-1862-4ad8-9558-57b91e42ce64""}","https://test12345.live/?participantId=12701B4AD25343918D991BAA397622EE&assignmentId=aacbc993-6319-4683-a097-6c4054cab8f9&projectId=bea99957-1862-4ad8-9558-57b91e42ce64","","1838","
    <div style=""display: flex; justify-content: center; align-items: center;"">
      <img src=""images/red_deck_2.png"" style=""width: 300px; height: 300px; margin-right: 10px;"" />
      <img src=""images/blue_deck_1.png"" style=""width: 300px; height: 300px;"" />
    </div>","1","1",""
"","","","","","html-keyboard-response","90","849868","0.0-66.0-0.0","12701B4AD25343918D991BAA397622EE","12701B4AD25343918D991BAA397622EE","aacbc993-6319-4683-a097-6c4054cab8f9","bea99957-1862-4ad8-9558-57b91e42ce64","{""participantId"":""12701B4AD25343918D991BAA397622EE"",""assignmentId"":""aacbc993-6319-4683-a097-6c4054cab8f9"",""projectId"":""bea99957-1862-4ad8-9558-57b91e42ce64""}","https://test12345.live/?participantId=12701B4AD25343918D991BAA397622EE&assignmentId=aacbc993-6319-4683-a097-6c4054cab8f9&projectId=bea99957-1862-4ad8-9558-57b91e42ce64","","null","<div style=""display: flex; justify-content: center; align-items: center;"">
                    <img src=""images/causal/causal_series_11/causal_series_11_a.jpg"" style=""width: 300px; height: 300px;"" />
                  </div>","null","",""
"","","","","","html-keyboard-response","91","852873","0.0-66.0-1.0","12701B4AD25343918D991BAA397622EE","12701B4AD25343918D991BAA397622EE","aacbc993-6319-4683-a097-6c4054cab8f9","bea99957-1862-4ad8-9558-57b91e42ce64","{""participantId"":""12701B4AD25343918D991BAA397622EE"",""assignmentId"":""aacbc993-6319-4683-a097-6c4054cab8f9"",""projectId"":""bea99957-1862-4ad8-9558-57b91e42ce64""}","https://test12345.live/?participantId=12701B4AD25343918D991BAA397622EE&assignmentId=aacbc993-6319-4683-a097-6c4054cab8f9&projectId=bea99957-1862-4ad8-9558-57b91e42ce64","","null","<div style=""display: flex; justify-content: center; align-items: center;"">
                    <img src=""images/causal/causal_series_11/causal_series_11_b.jpg"" style=""width: 300px; height: 300px;"" />
                  </div>","null","",""
"","","","","","html-keyboard-response","92","855881","0.0-66.0-2.0","12701B4AD25343918D991BAA397622EE","12701B4AD25343918D991BAA397622EE","aacbc993-6319-4683-a097-6c4054cab8f9","bea99957-1862-4ad8-9558-57b91e42ce64","{""participantId"":""12701B4AD25343918D991BAA397622EE"",""assignmentId"":""aacbc993-6319-4683-a097-6c4054cab8f9"",""projectId"":""bea99957-1862-4ad8-9558-57b91e42ce64""}","https://test12345.live/?participantId=12701B4AD25343918D991BAA397622EE&assignmentId=aacbc993-6319-4683-a097-6c4054cab8f9&projectId=bea99957-1862-4ad8-9558-57b91e42ce64","","null","<div style=""display: flex; justify-content: center; align-items: center;"">
                    <img src=""images/causal/causal_series_11/causal_series_11_c.jpg"" style=""width: 300px; height: 300px;"" />
                  </div>","null","",""
"","","","","","html-keyboard-response","93","858889","0.0-66.0-3.0","12701B4AD25343918D991BAA397622EE","12701B4AD25343918D991BAA397622EE","aacbc993-6319-4683-a097-6c4054cab8f9","bea99957-1862-4ad8-9558-57b91e42ce64","{""participantId"":""12701B4AD25343918D991BAA397622EE"",""assignmentId"":""aacbc993-6319-4683-a097-6c4054cab8f9"",""projectId"":""bea99957-1862-4ad8-9558-57b91e42ce64""}","https://test12345.live/?participantId=12701B4AD25343918D991BAA397622EE&assignmentId=aacbc993-6319-4683-a097-6c4054cab8f9&projectId=bea99957-1862-4ad8-9558-57b91e42ce64","","null","<div style=""display: flex; justify-content: center; align-items: center;"">
                    <img src=""images/causal/causal_series_11/causal_series_11_d.jpg"" style=""width: 300px; height: 300px;"" />
                  </div>","null","",""
"","","","","","html-button-response","94","863131","0.0-68.0","12701B4AD25343918D991BAA397622EE","12701B4AD25343918D991BAA397622EE","aacbc993-6319-4683-a097-6c4054cab8f9","bea99957-1862-4ad8-9558-57b91e42ce64","{""participantId"":""12701B4AD25343918D991BAA397622EE"",""assignmentId"":""aacbc993-6319-4683-a097-6c4054cab8f9"",""projectId"":""bea99957-1862-4ad8-9558-57b91e42ce64""}","https://test12345.live/?participantId=12701B4AD25343918D991BAA397622EE&assignmentId=aacbc993-6319-4683-a097-6c4054cab8f9&projectId=bea99957-1862-4ad8-9558-57b91e42ce64","","4241","Was there a person in the picture?","0","",""
"","","","","","survey-likert","95","874029","0.0-69.0","12701B4AD25343918D991BAA397622EE","12701B4AD25343918D991BAA397622EE","aacbc993-6319-4683-a097-6c4054cab8f9","bea99957-1862-4ad8-9558-57b91e42ce64","{""participantId"":""12701B4AD25343918D991BAA397622EE"",""assignmentId"":""aacbc993-6319-4683-a097-6c4054cab8f9"",""projectId"":""bea99957-1862-4ad8-9558-57b91e42ce64""}","https://test12345.live/?participantId=12701B4AD25343918D991BAA397622EE&assignmentId=aacbc993-6319-4683-a097-6c4054cab8f9&projectId=bea99957-1862-4ad8-9558-57b91e42ce64","","10896","","{""Q0"":4}","","[0]"
"","","","","","html-button-response","96","921361","0.0-70.0","12701B4AD25343918D991BAA397622EE","12701B4AD25343918D991BAA397622EE","aacbc993-6319-4683-a097-6c4054cab8f9","bea99957-1862-4ad8-9558-57b91e42ce64","{""participantId"":""12701B4AD25343918D991BAA397622EE"",""assignmentId"":""aacbc993-6319-4683-a097-6c4054cab8f9"",""projectId"":""bea99957-1862-4ad8-9558-57b91e42ce64""}","https://test12345.live/?participantId=12701B4AD25343918D991BAA397622EE&assignmentId=aacbc993-6319-4683-a097-6c4054cab8f9&projectId=bea99957-1862-4ad8-9558-57b91e42ce64","","47329","
    <div style=""display: flex; justify-content: center; align-items: center;"">
      <img src=""images/red_deck_2.png"" style=""width: 300px; height: 300px; margin-right: 10px;"" />
      <img src=""images/blue_deck_1.png"" style=""width: 300px; height: 300px;"" />
    </div>","0","0",""
"","","","","","html-keyboard-response","97","924368","0.0-72.0-0.0","12701B4AD25343918D991BAA397622EE","12701B4AD25343918D991BAA397622EE","aacbc993-6319-4683-a097-6c4054cab8f9","bea99957-1862-4ad8-9558-57b91e42ce64","{""participantId"":""12701B4AD25343918D991BAA397622EE"",""assignmentId"":""aacbc993-6319-4683-a097-6c4054cab8f9"",""projectId"":""bea99957-1862-4ad8-9558-57b91e42ce64""}","https://test12345.live/?participantId=12701B4AD25343918D991BAA397622EE&assignmentId=aacbc993-6319-4683-a097-6c4054cab8f9&projectId=bea99957-1862-4ad8-9558-57b91e42ce64","","null","<div style=""display: flex; justify-content: center; align-items: center;"">
                    <img src=""images/semantic/semantic_series_3/semantic_series_3_a.jpg"" style=""width: 300px; height: 300px;"" />
                  </div>","null","",""
"","","","","","html-keyboard-response","98","927377","0.0-72.0-1.0","12701B4AD25343918D991BAA397622EE","12701B4AD25343918D991BAA397622EE","aacbc993-6319-4683-a097-6c4054cab8f9","bea99957-1862-4ad8-9558-57b91e42ce64","{""participantId"":""12701B4AD25343918D991BAA397622EE"",""assignmentId"":""aacbc993-6319-4683-a097-6c4054cab8f9"",""projectId"":""bea99957-1862-4ad8-9558-57b91e42ce64""}","https://test12345.live/?participantId=12701B4AD25343918D991BAA397622EE&assignmentId=aacbc993-6319-4683-a097-6c4054cab8f9&projectId=bea99957-1862-4ad8-9558-57b91e42ce64","","null","<div style=""display: flex; justify-content: center; align-items: center;"">
                    <img src=""images/semantic/semantic_series_3/semantic_series_3_b.jpg"" style=""width: 300px; height: 300px;"" />
                  </div>","null","",""
"","","","","","html-keyboard-response","99","930385","0.0-72.0-2.0","12701B4AD25343918D991BAA397622EE","12701B4AD25343918D991BAA397622EE","aacbc993-6319-4683-a097-6c4054cab8f9","bea99957-1862-4ad8-9558-57b91e42ce64","{""participantId"":""12701B4AD25343918D991BAA397622EE"",""assignmentId"":""aacbc993-6319-4683-a097-6c4054cab8f9"",""projectId"":""bea99957-1862-4ad8-9558-57b91e42ce64""}","https://test12345.live/?participantId=12701B4AD25343918D991BAA397622EE&assignmentId=aacbc993-6319-4683-a097-6c4054cab8f9&projectId=bea99957-1862-4ad8-9558-57b91e42ce64","","null","<div style=""display: flex; justify-content: center; align-items: center;"">
                    <img src=""images/semantic/semantic_series_3/semantic_series_3_c.jpg"" style=""width: 300px; height: 300px;"" />
                  </div>","null","",""
"","","","","","html-keyboard-response","100","933400","0.0-72.0-3.0","12701B4AD25343918D991BAA397622EE","12701B4AD25343918D991BAA397622EE","aacbc993-6319-4683-a097-6c4054cab8f9","bea99957-1862-4ad8-9558-57b91e42ce64","{""participantId"":""12701B4AD25343918D991BAA397622EE"",""assignmentId"":""aacbc993-6319-4683-a097-6c4054cab8f9"",""projectId"":""bea99957-1862-4ad8-9558-57b91e42ce64""}","https://test12345.live/?participantId=12701B4AD25343918D991BAA397622EE&assignmentId=aacbc993-6319-4683-a097-6c4054cab8f9&projectId=bea99957-1862-4ad8-9558-57b91e42ce64","","null","<div style=""display: flex; justify-content: center; align-items: center;"">
                    <img src=""images/semantic/semantic_series_3/semantic_series_3_d.jpg"" style=""width: 300px; height: 300px;"" />
                  </div>","null","",""
"","","","","","html-button-response","101","977161","0.0-73.0","12701B4AD25343918D991BAA397622EE","12701B4AD25343918D991BAA397622EE","aacbc993-6319-4683-a097-6c4054cab8f9","bea99957-1862-4ad8-9558-57b91e42ce64","{""participantId"":""12701B4AD25343918D991BAA397622EE"",""assignmentId"":""aacbc993-6319-4683-a097-6c4054cab8f9"",""projectId"":""bea99957-1862-4ad8-9558-57b91e42ce64""}","https://test12345.live/?participantId=12701B4AD25343918D991BAA397622EE&assignmentId=aacbc993-6319-4683-a097-6c4054cab8f9&projectId=bea99957-1862-4ad8-9558-57b91e42ce64","","43760","Was there a person in the picture?","0","",""
"","","","","","survey-likert","102","985735","0.0-74.0","12701B4AD25343918D991BAA397622EE","12701B4AD25343918D991BAA397622EE","aacbc993-6319-4683-a097-6c4054cab8f9","bea99957-1862-4ad8-9558-57b91e42ce64","{""participantId"":""12701B4AD25343918D991BAA397622EE"",""assignmentId"":""aacbc993-6319-4683-a097-6c4054cab8f9"",""projectId"":""bea99957-1862-4ad8-9558-57b91e42ce64""}","https://test12345.live/?participantId=12701B4AD25343918D991BAA397622EE&assignmentId=aacbc993-6319-4683-a097-6c4054cab8f9&projectId=bea99957-1862-4ad8-9558-57b91e42ce64","","8571","","{""Q0"":4}","","[0]"
"","","","","","html-button-response","103","993275","0.0-75.0","12701B4AD25343918D991BAA397622EE","12701B4AD25343918D991BAA397622EE","aacbc993-6319-4683-a097-6c4054cab8f9","bea99957-1862-4ad8-9558-57b91e42ce64","{""participantId"":""12701B4AD25343918D991BAA397622EE"",""assignmentId"":""aacbc993-6319-4683-a097-6c4054cab8f9"",""projectId"":""bea99957-1862-4ad8-9558-57b91e42ce64""}","https://test12345.live/?participantId=12701B4AD25343918D991BAA397622EE&assignmentId=aacbc993-6319-4683-a097-6c4054cab8f9&projectId=bea99957-1862-4ad8-9558-57b91e42ce64","","7537","
    <div style=""display: flex; justify-content: center; align-items: center;"">
      <img src=""images/red_deck_2.png"" style=""width: 300px; height: 300px; margin-right: 10px;"" />
      <img src=""images/blue_deck_1.png"" style=""width: 300px; height: 300px;"" />
    </div>","1","1",""
"","","","","","html-keyboard-response","104","996288","0.0-76.0-0.0","12701B4AD25343918D991BAA397622EE","12701B4AD25343918D991BAA397622EE","aacbc993-6319-4683-a097-6c4054cab8f9","bea99957-1862-4ad8-9558-57b91e42ce64","{""participantId"":""12701B4AD25343918D991BAA397622EE"",""assignmentId"":""aacbc993-6319-4683-a097-6c4054cab8f9"",""projectId"":""bea99957-1862-4ad8-9558-57b91e42ce64""}","https://test12345.live/?participantId=12701B4AD25343918D991BAA397622EE&assignmentId=aacbc993-6319-4683-a097-6c4054cab8f9&projectId=bea99957-1862-4ad8-9558-57b91e42ce64","","null","<div style=""display: flex; justify-content: center; align-items: center;"">
                    <img src=""images/causal/causal_series_17/causal_series_17_a.jpg"" style=""width: 300px; height: 300px;"" />
                  </div>","null","",""
"","","","","","html-keyboard-response","105","999293","0.0-76.0-1.0","12701B4AD25343918D991BAA397622EE","12701B4AD25343918D991BAA397622EE","aacbc993-6319-4683-a097-6c4054cab8f9","bea99957-1862-4ad8-9558-57b91e42ce64","{""participantId"":""12701B4AD25343918D991BAA397622EE"",""assignmentId"":""aacbc993-6319-4683-a097-6c4054cab8f9"",""projectId"":""bea99957-1862-4ad8-9558-57b91e42ce64""}","https://test12345.live/?participantId=12701B4AD25343918D991BAA397622EE&assignmentId=aacbc993-6319-4683-a097-6c4054cab8f9&projectId=bea99957-1862-4ad8-9558-57b91e42ce64","","null","<div style=""display: flex; justify-content: center; align-items: center;"">
                    <img src=""images/causal/causal_series_17/causal_series_17_b.jpg"" style=""width: 300px; height: 300px;"" />
                  </div>","null","",""
"","","","","","html-keyboard-response","106","1002299","0.0-76.0-2.0","12701B4AD25343918D991BAA397622EE","12701B4AD25343918D991BAA397622EE","aacbc993-6319-4683-a097-6c4054cab8f9","bea99957-1862-4ad8-9558-57b91e42ce64","{""participantId"":""12701B4AD25343918D991BAA397622EE"",""assignmentId"":""aacbc993-6319-4683-a097-6c4054cab8f9"",""projectId"":""bea99957-1862-4ad8-9558-57b91e42ce64""}","https://test12345.live/?participantId=12701B4AD25343918D991BAA397622EE&assignmentId=aacbc993-6319-4683-a097-6c4054cab8f9&projectId=bea99957-1862-4ad8-9558-57b91e42ce64","","null","<div style=""display: flex; justify-content: center; align-items: center;"">
                    <img src=""images/causal/causal_series_17/causal_series_17_c.jpg"" style=""width: 300px; height: 300px;"" />
                  </div>","null","",""
"","","","","","html-keyboard-response","107","1005308","0.0-76.0-3.0","12701B4AD25343918D991BAA397622EE","12701B4AD25343918D991BAA397622EE","aacbc993-6319-4683-a097-6c4054cab8f9","bea99957-1862-4ad8-9558-57b91e42ce64","{""participantId"":""12701B4AD25343918D991BAA397622EE"",""assignmentId"":""aacbc993-6319-4683-a097-6c4054cab8f9"",""projectId"":""bea99957-1862-4ad8-9558-57b91e42ce64""}","https://test12345.live/?participantId=12701B4AD25343918D991BAA397622EE&assignmentId=aacbc993-6319-4683-a097-6c4054cab8f9&projectId=bea99957-1862-4ad8-9558-57b91e42ce64","","null","<div style=""display: flex; justify-content: center; align-items: center;"">
                    <img src=""images/causal/causal_series_17/causal_series_17_d.jpg"" style=""width: 300px; height: 300px;"" />
                  </div>","null","",""
"","","","","","html-button-response","108","1006835","0.0-78.0","12701B4AD25343918D991BAA397622EE","12701B4AD25343918D991BAA397622EE","aacbc993-6319-4683-a097-6c4054cab8f9","bea99957-1862-4ad8-9558-57b91e42ce64","{""participantId"":""12701B4AD25343918D991BAA397622EE"",""assignmentId"":""aacbc993-6319-4683-a097-6c4054cab8f9"",""projectId"":""bea99957-1862-4ad8-9558-57b91e42ce64""}","https://test12345.live/?participantId=12701B4AD25343918D991BAA397622EE&assignmentId=aacbc993-6319-4683-a097-6c4054cab8f9&projectId=bea99957-1862-4ad8-9558-57b91e42ce64","","1526","Was there a person in the picture?","0","",""
"","","","","","survey-likert","109","1010115","0.0-79.0","12701B4AD25343918D991BAA397622EE","12701B4AD25343918D991BAA397622EE","aacbc993-6319-4683-a097-6c4054cab8f9","bea99957-1862-4ad8-9558-57b91e42ce64","{""participantId"":""12701B4AD25343918D991BAA397622EE"",""assignmentId"":""aacbc993-6319-4683-a097-6c4054cab8f9"",""projectId"":""bea99957-1862-4ad8-9558-57b91e42ce64""}","https://test12345.live/?participantId=12701B4AD25343918D991BAA397622EE&assignmentId=aacbc993-6319-4683-a097-6c4054cab8f9&projectId=bea99957-1862-4ad8-9558-57b91e42ce64","","3278","","{""Q0"":4}","","[0]"
"","","","","","html-button-response","110","1012049","0.0-80.0","12701B4AD25343918D991BAA397622EE","12701B4AD25343918D991BAA397622EE","aacbc993-6319-4683-a097-6c4054cab8f9","bea99957-1862-4ad8-9558-57b91e42ce64","{""participantId"":""12701B4AD25343918D991BAA397622EE"",""assignmentId"":""aacbc993-6319-4683-a097-6c4054cab8f9"",""projectId"":""bea99957-1862-4ad8-9558-57b91e42ce64""}","https://test12345.live/?participantId=12701B4AD25343918D991BAA397622EE&assignmentId=aacbc993-6319-4683-a097-6c4054cab8f9&projectId=bea99957-1862-4ad8-9558-57b91e42ce64","","1932","
    <div style=""display: flex; justify-content: center; align-items: center;"">
      <img src=""images/red_deck_2.png"" style=""width: 300px; height: 300px; margin-right: 10px;"" />
      <img src=""images/blue_deck_1.png"" style=""width: 300px; height: 300px;"" />
    </div>","0","0",""
"","","","","","html-keyboard-response","111","1015056","0.0-82.0-0.0","12701B4AD25343918D991BAA397622EE","12701B4AD25343918D991BAA397622EE","aacbc993-6319-4683-a097-6c4054cab8f9","bea99957-1862-4ad8-9558-57b91e42ce64","{""participantId"":""12701B4AD25343918D991BAA397622EE"",""assignmentId"":""aacbc993-6319-4683-a097-6c4054cab8f9"",""projectId"":""bea99957-1862-4ad8-9558-57b91e42ce64""}","https://test12345.live/?participantId=12701B4AD25343918D991BAA397622EE&assignmentId=aacbc993-6319-4683-a097-6c4054cab8f9&projectId=bea99957-1862-4ad8-9558-57b91e42ce64","","null","<div style=""display: flex; justify-content: center; align-items: center;"">
                    <img src=""images/semantic/semantic_series_4/semantic_series_4_a.jpg"" style=""width: 300px; height: 300px;"" />
                  </div>","null","",""
"","","","","","html-keyboard-response","112","1018072","0.0-82.0-1.0","12701B4AD25343918D991BAA397622EE","12701B4AD25343918D991BAA397622EE","aacbc993-6319-4683-a097-6c4054cab8f9","bea99957-1862-4ad8-9558-57b91e42ce64","{""participantId"":""12701B4AD25343918D991BAA397622EE"",""assignmentId"":""aacbc993-6319-4683-a097-6c4054cab8f9"",""projectId"":""bea99957-1862-4ad8-9558-57b91e42ce64""}","https://test12345.live/?participantId=12701B4AD25343918D991BAA397622EE&assignmentId=aacbc993-6319-4683-a097-6c4054cab8f9&projectId=bea99957-1862-4ad8-9558-57b91e42ce64","","null","<div style=""display: flex; justify-content: center; align-items: center;"">
                    <img src=""images/semantic/semantic_series_4/semantic_series_4_b.jpg"" style=""width: 300px; height: 300px;"" />
                  </div>","null","",""
"","","","","","html-keyboard-response","113","1021082","0.0-82.0-2.0","12701B4AD25343918D991BAA397622EE","12701B4AD25343918D991BAA397622EE","aacbc993-6319-4683-a097-6c4054cab8f9","bea99957-1862-4ad8-9558-57b91e42ce64","{""participantId"":""12701B4AD25343918D991BAA397622EE"",""assignmentId"":""aacbc993-6319-4683-a097-6c4054cab8f9"",""projectId"":""bea99957-1862-4ad8-9558-57b91e42ce64""}","https://test12345.live/?participantId=12701B4AD25343918D991BAA397622EE&assignmentId=aacbc993-6319-4683-a097-6c4054cab8f9&projectId=bea99957-1862-4ad8-9558-57b91e42ce64","","null","<div style=""display: flex; justify-content: center; align-items: center;"">
                    <img src=""images/semantic/semantic_series_4/semantic_series_4_c.jpg"" style=""width: 300px; height: 300px;"" />
                  </div>","null","",""
"","","","","","html-keyboard-response","114","1024096","0.0-82.0-3.0","12701B4AD25343918D991BAA397622EE","12701B4AD25343918D991BAA397622EE","aacbc993-6319-4683-a097-6c4054cab8f9","bea99957-1862-4ad8-9558-57b91e42ce64","{""participantId"":""12701B4AD25343918D991BAA397622EE"",""assignmentId"":""aacbc993-6319-4683-a097-6c4054cab8f9"",""projectId"":""bea99957-1862-4ad8-9558-57b91e42ce64""}","https://test12345.live/?participantId=12701B4AD25343918D991BAA397622EE&assignmentId=aacbc993-6319-4683-a097-6c4054cab8f9&projectId=bea99957-1862-4ad8-9558-57b91e42ce64","","null","<div style=""display: flex; justify-content: center; align-items: center;"">
                    <img src=""images/semantic/semantic_series_4/semantic_series_4_d.jpg"" style=""width: 300px; height: 300px;"" />
                  </div>","null","",""
"","","","","","html-button-response","115","1025668","0.0-83.0","12701B4AD25343918D991BAA397622EE","12701B4AD25343918D991BAA397622EE","aacbc993-6319-4683-a097-6c4054cab8f9","bea99957-1862-4ad8-9558-57b91e42ce64","{""participantId"":""12701B4AD25343918D991BAA397622EE"",""assignmentId"":""aacbc993-6319-4683-a097-6c4054cab8f9"",""projectId"":""bea99957-1862-4ad8-9558-57b91e42ce64""}","https://test12345.live/?participantId=12701B4AD25343918D991BAA397622EE&assignmentId=aacbc993-6319-4683-a097-6c4054cab8f9&projectId=bea99957-1862-4ad8-9558-57b91e42ce64","","1571","Was there a person in the picture?","1","",""
"","","","","","survey-likert","116","1028616","0.0-84.0","12701B4AD25343918D991BAA397622EE","12701B4AD25343918D991BAA397622EE","aacbc993-6319-4683-a097-6c4054cab8f9","bea99957-1862-4ad8-9558-57b91e42ce64","{""participantId"":""12701B4AD25343918D991BAA397622EE"",""assignmentId"":""aacbc993-6319-4683-a097-6c4054cab8f9"",""projectId"":""bea99957-1862-4ad8-9558-57b91e42ce64""}","https://test12345.live/?participantId=12701B4AD25343918D991BAA397622EE&assignmentId=aacbc993-6319-4683-a097-6c4054cab8f9&projectId=bea99957-1862-4ad8-9558-57b91e42ce64","","2947","","{""Q0"":4}","","[0]"
"","","","","","html-button-response","117","1029823","0.0-85.0","12701B4AD25343918D991BAA397622EE","12701B4AD25343918D991BAA397622EE","aacbc993-6319-4683-a097-6c4054cab8f9","bea99957-1862-4ad8-9558-57b91e42ce64","{""participantId"":""12701B4AD25343918D991BAA397622EE"",""assignmentId"":""aacbc993-6319-4683-a097-6c4054cab8f9"",""projectId"":""bea99957-1862-4ad8-9558-57b91e42ce64""}","https://test12345.live/?participantId=12701B4AD25343918D991BAA397622EE&assignmentId=aacbc993-6319-4683-a097-6c4054cab8f9&projectId=bea99957-1862-4ad8-9558-57b91e42ce64","","1205","
    <div style=""display: flex; justify-content: center; align-items: center;"">
      <img src=""images/red_deck_2.png"" style=""width: 300px; height: 300px; margin-right: 10px;"" />
      <img src=""images/blue_deck_1.png"" style=""width: 300px; height: 300px;"" />
    </div>","1","1",""
"","","","","","html-keyboard-response","118","1032840","0.0-86.0-0.0","12701B4AD25343918D991BAA397622EE","12701B4AD25343918D991BAA397622EE","aacbc993-6319-4683-a097-6c4054cab8f9","bea99957-1862-4ad8-9558-57b91e42ce64","{""participantId"":""12701B4AD25343918D991BAA397622EE"",""assignmentId"":""aacbc993-6319-4683-a097-6c4054cab8f9"",""projectId"":""bea99957-1862-4ad8-9558-57b91e42ce64""}","https://test12345.live/?participantId=12701B4AD25343918D991BAA397622EE&assignmentId=aacbc993-6319-4683-a097-6c4054cab8f9&projectId=bea99957-1862-4ad8-9558-57b91e42ce64","","null","<div style=""display: flex; justify-content: center; align-items: center;"">
                    <img src=""images/causal/causal_series_4/causal_series_4_a.jpg"" style=""width: 300px; height: 300px;"" />
                  </div>","null","",""
"","","","","","html-keyboard-response","119","1035848","0.0-86.0-1.0","12701B4AD25343918D991BAA397622EE","12701B4AD25343918D991BAA397622EE","aacbc993-6319-4683-a097-6c4054cab8f9","bea99957-1862-4ad8-9558-57b91e42ce64","{""participantId"":""12701B4AD25343918D991BAA397622EE"",""assignmentId"":""aacbc993-6319-4683-a097-6c4054cab8f9"",""projectId"":""bea99957-1862-4ad8-9558-57b91e42ce64""}","https://test12345.live/?participantId=12701B4AD25343918D991BAA397622EE&assignmentId=aacbc993-6319-4683-a097-6c4054cab8f9&projectId=bea99957-1862-4ad8-9558-57b91e42ce64","","null","<div style=""display: flex; justify-content: center; align-items: center;"">
                    <img src=""images/causal/causal_series_4/causal_series_4_b.jpg"" style=""width: 300px; height: 300px;"" />
                  </div>","null","",""
"","","","","","html-keyboard-response","120","1038854","0.0-86.0-2.0","12701B4AD25343918D991BAA397622EE","12701B4AD25343918D991BAA397622EE","aacbc993-6319-4683-a097-6c4054cab8f9","bea99957-1862-4ad8-9558-57b91e42ce64","{""participantId"":""12701B4AD25343918D991BAA397622EE"",""assignmentId"":""aacbc993-6319-4683-a097-6c4054cab8f9"",""projectId"":""bea99957-1862-4ad8-9558-57b91e42ce64""}","https://test12345.live/?participantId=12701B4AD25343918D991BAA397622EE&assignmentId=aacbc993-6319-4683-a097-6c4054cab8f9&projectId=bea99957-1862-4ad8-9558-57b91e42ce64","","null","<div style=""display: flex; justify-content: center; align-items: center;"">
                    <img src=""images/causal/causal_series_4/causal_series_4_c.jpg"" style=""width: 300px; height: 300px;"" />
                  </div>","null","",""
"","","","","","html-keyboard-response","121","1041859","0.0-86.0-3.0","12701B4AD25343918D991BAA397622EE","12701B4AD25343918D991BAA397622EE","aacbc993-6319-4683-a097-6c4054cab8f9","bea99957-1862-4ad8-9558-57b91e42ce64","{""participantId"":""12701B4AD25343918D991BAA397622EE"",""assignmentId"":""aacbc993-6319-4683-a097-6c4054cab8f9"",""projectId"":""bea99957-1862-4ad8-9558-57b91e42ce64""}","https://test12345.live/?participantId=12701B4AD25343918D991BAA397622EE&assignmentId=aacbc993-6319-4683-a097-6c4054cab8f9&projectId=bea99957-1862-4ad8-9558-57b91e42ce64","","null","<div style=""display: flex; justify-content: center; align-items: center;"">
                    <img src=""images/causal/causal_series_4/causal_series_4_d.jpg"" style=""width: 300px; height: 300px;"" />
                  </div>","null","",""
"","","","","","html-button-response","122","1044138","0.0-88.0","12701B4AD25343918D991BAA397622EE","12701B4AD25343918D991BAA397622EE","aacbc993-6319-4683-a097-6c4054cab8f9","bea99957-1862-4ad8-9558-57b91e42ce64","{""participantId"":""12701B4AD25343918D991BAA397622EE"",""assignmentId"":""aacbc993-6319-4683-a097-6c4054cab8f9"",""projectId"":""bea99957-1862-4ad8-9558-57b91e42ce64""}","https://test12345.live/?participantId=12701B4AD25343918D991BAA397622EE&assignmentId=aacbc993-6319-4683-a097-6c4054cab8f9&projectId=bea99957-1862-4ad8-9558-57b91e42ce64","","2276","Was there a person in the picture?","1","",""
"","","","","","survey-likert","123","1046862","0.0-89.0","12701B4AD25343918D991BAA397622EE","12701B4AD25343918D991BAA397622EE","aacbc993-6319-4683-a097-6c4054cab8f9","bea99957-1862-4ad8-9558-57b91e42ce64","{""participantId"":""12701B4AD25343918D991BAA397622EE"",""assignmentId"":""aacbc993-6319-4683-a097-6c4054cab8f9"",""projectId"":""bea99957-1862-4ad8-9558-57b91e42ce64""}","https://test12345.live/?participantId=12701B4AD25343918D991BAA397622EE&assignmentId=aacbc993-6319-4683-a097-6c4054cab8f9&projectId=bea99957-1862-4ad8-9558-57b91e42ce64","","2723","","{""Q0"":4}","","[0]"
"","","","","","html-button-response","124","1048545","0.0-90.0","12701B4AD25343918D991BAA397622EE","12701B4AD25343918D991BAA397622EE","aacbc993-6319-4683-a097-6c4054cab8f9","bea99957-1862-4ad8-9558-57b91e42ce64","{""participantId"":""12701B4AD25343918D991BAA397622EE"",""assignmentId"":""aacbc993-6319-4683-a097-6c4054cab8f9"",""projectId"":""bea99957-1862-4ad8-9558-57b91e42ce64""}","https://test12345.live/?participantId=12701B4AD25343918D991BAA397622EE&assignmentId=aacbc993-6319-4683-a097-6c4054cab8f9&projectId=bea99957-1862-4ad8-9558-57b91e42ce64","","1682","
    <div style=""display: flex; justify-content: center; align-items: center;"">
      <img src=""images/red_deck_2.png"" style=""width: 300px; height: 300px; margin-right: 10px;"" />
      <img src=""images/blue_deck_1.png"" style=""width: 300px; height: 300px;"" />
    </div>","0","0",""
"","","","","","html-keyboard-response","125","1051559","0.0-92.0-0.0","12701B4AD25343918D991BAA397622EE","12701B4AD25343918D991BAA397622EE","aacbc993-6319-4683-a097-6c4054cab8f9","bea99957-1862-4ad8-9558-57b91e42ce64","{""participantId"":""12701B4AD25343918D991BAA397622EE"",""assignmentId"":""aacbc993-6319-4683-a097-6c4054cab8f9"",""projectId"":""bea99957-1862-4ad8-9558-57b91e42ce64""}","https://test12345.live/?participantId=12701B4AD25343918D991BAA397622EE&assignmentId=aacbc993-6319-4683-a097-6c4054cab8f9&projectId=bea99957-1862-4ad8-9558-57b91e42ce64","","null","<div style=""display: flex; justify-content: center; align-items: center;"">
                    <img src=""images/semantic/semantic_series_10/semantic_series_10_a.jpg"" style=""width: 300px; height: 300px;"" />
                  </div>","null","",""
"","","","","","html-keyboard-response","126","1054573","0.0-92.0-1.0","12701B4AD25343918D991BAA397622EE","12701B4AD25343918D991BAA397622EE","aacbc993-6319-4683-a097-6c4054cab8f9","bea99957-1862-4ad8-9558-57b91e42ce64","{""participantId"":""12701B4AD25343918D991BAA397622EE"",""assignmentId"":""aacbc993-6319-4683-a097-6c4054cab8f9"",""projectId"":""bea99957-1862-4ad8-9558-57b91e42ce64""}","https://test12345.live/?participantId=12701B4AD25343918D991BAA397622EE&assignmentId=aacbc993-6319-4683-a097-6c4054cab8f9&projectId=bea99957-1862-4ad8-9558-57b91e42ce64","","null","<div style=""display: flex; justify-content: center; align-items: center;"">
                    <img src=""images/semantic/semantic_series_10/semantic_series_10_b.jpg"" style=""width: 300px; height: 300px;"" />
                  </div>","null","",""
"","","","","","html-keyboard-response","127","1057585","0.0-92.0-2.0","12701B4AD25343918D991BAA397622EE","12701B4AD25343918D991BAA397622EE","aacbc993-6319-4683-a097-6c4054cab8f9","bea99957-1862-4ad8-9558-57b91e42ce64","{""participantId"":""12701B4AD25343918D991BAA397622EE"",""assignmentId"":""aacbc993-6319-4683-a097-6c4054cab8f9"",""projectId"":""bea99957-1862-4ad8-9558-57b91e42ce64""}","https://test12345.live/?participantId=12701B4AD25343918D991BAA397622EE&assignmentId=aacbc993-6319-4683-a097-6c4054cab8f9&projectId=bea99957-1862-4ad8-9558-57b91e42ce64","","null","<div style=""display: flex; justify-content: center; align-items: center;"">
                    <img src=""images/semantic/semantic_series_10/semantic_series_10_c.jpg"" style=""width: 300px; height: 300px;"" />
                  </div>","null","",""
"","","","","","html-keyboard-response","128","1060591","0.0-92.0-3.0","12701B4AD25343918D991BAA397622EE","12701B4AD25343918D991BAA397622EE","aacbc993-6319-4683-a097-6c4054cab8f9","bea99957-1862-4ad8-9558-57b91e42ce64","{""participantId"":""12701B4AD25343918D991BAA397622EE"",""assignmentId"":""aacbc993-6319-4683-a097-6c4054cab8f9"",""projectId"":""bea99957-1862-4ad8-9558-57b91e42ce64""}","https://test12345.live/?participantId=12701B4AD25343918D991BAA397622EE&assignmentId=aacbc993-6319-4683-a097-6c4054cab8f9&projectId=bea99957-1862-4ad8-9558-57b91e42ce64","","null","<div style=""display: flex; justify-content: center; align-items: center;"">
                    <img src=""images/semantic/semantic_series_10/semantic_series_10_d.jpg"" style=""width: 300px; height: 300px;"" />
                  </div>","null","",""
"","","","","","html-button-response","129","1061817","0.0-93.0","12701B4AD25343918D991BAA397622EE","12701B4AD25343918D991BAA397622EE","aacbc993-6319-4683-a097-6c4054cab8f9","bea99957-1862-4ad8-9558-57b91e42ce64","{""participantId"":""12701B4AD25343918D991BAA397622EE"",""assignmentId"":""aacbc993-6319-4683-a097-6c4054cab8f9"",""projectId"":""bea99957-1862-4ad8-9558-57b91e42ce64""}","https://test12345.live/?participantId=12701B4AD25343918D991BAA397622EE&assignmentId=aacbc993-6319-4683-a097-6c4054cab8f9&projectId=bea99957-1862-4ad8-9558-57b91e42ce64","","1225","Was there a person in the picture?","1","",""
"","","","","","survey-likert","130","1063882","0.0-94.0","12701B4AD25343918D991BAA397622EE","12701B4AD25343918D991BAA397622EE","aacbc993-6319-4683-a097-6c4054cab8f9","bea99957-1862-4ad8-9558-57b91e42ce64","{""participantId"":""12701B4AD25343918D991BAA397622EE"",""assignmentId"":""aacbc993-6319-4683-a097-6c4054cab8f9"",""projectId"":""bea99957-1862-4ad8-9558-57b91e42ce64""}","https://test12345.live/?participantId=12701B4AD25343918D991BAA397622EE&assignmentId=aacbc993-6319-4683-a097-6c4054cab8f9&projectId=bea99957-1862-4ad8-9558-57b91e42ce64","","2064","","{""Q0"":4}","","[0]"
"","","","","","survey-text","131","1130110","0.0-95.0","12701B4AD25343918D991BAA397622EE","12701B4AD25343918D991BAA397622EE","aacbc993-6319-4683-a097-6c4054cab8f9","bea99957-1862-4ad8-9558-57b91e42ce64","{""participantId"":""12701B4AD25343918D991BAA397622EE"",""assignmentId"":""aacbc993-6319-4683-a097-6c4054cab8f9"",""projectId"":""bea99957-1862-4ad8-9558-57b91e42ce64""}","https://test12345.live/?participantId=12701B4AD25343918D991BAA397622EE&assignmentId=aacbc993-6319-4683-a097-6c4054cab8f9&projectId=bea99957-1862-4ad8-9558-57b91e42ce64","","66224","","{""Q0"":""i cannot tell, they were alternating with the kind of content""}","",""
