"success","timeout","failed_images","failed_audio","failed_video","trial_type","trial_index","time_elapsed","internal_node_id","subject_id","study_id","session_id","view_history","rt","stimulus","response","choice"
"true","false","[]","[]","[]","preload","0","738","0.0-0.0","44CF16D8EA6C4ADCAECDF2736019767D","bd3e6f5d-9886-4b71-ae3c-44dd6f7f6f88","58046770-4c03-4bc2-b4bc-e7359011db5d","","","","",""
"","","","","","instructions","1","3648","0.0-1.0","44CF16D8EA6C4ADCAECDF2736019767D","bd3e6f5d-9886-4b71-ae3c-44dd6f7f6f88","58046770-4c03-4bc2-b4bc-e7359011db5d","[{""page_index"":0,""viewing_time"":2908}]","2909","","",""
"","","","","","instructions","2","12308","0.0-2.0","44CF16D8EA6C4ADCAECDF2736019767D","bd3e6f5d-9886-4b71-ae3c-44dd6f7f6f88","58046770-4c03-4bc2-b4bc-e7359011db5d","[{""page_index"":0,""viewing_time"":8655}]","8656","","",""
"true","","","","","fullscreen","3","15773","0.0-3.0","44CF16D8EA6C4ADCAECDF2736019767D","bd3e6f5d-9886-4b71-ae3c-44dd6f7f6f88","58046770-4c03-4bc2-b4bc-e7359011db5d","","2415","","",""
"","","","","","instructions","4","33103","0.0-4.0","44CF16D8EA6C4ADCAECDF2736019767D","bd3e6f5d-9886-4b71-ae3c-44dd6f7f6f88","58046770-4c03-4bc2-b4bc-e7359011db5d","[{""page_index"":0,""viewing_time"":17328}]","17329","","",""
"","","","","","html-keyboard-response","5","36104","0.0-5.0","44CF16D8EA6C4ADCAECDF2736019767D","bd3e6f5d-9886-4b71-ae3c-44dd6f7f6f88","58046770-4c03-4bc2-b4bc-e7359011db5d","","null","<div style=""display: flex; justify-content: center; align-items: center;"">
                <img src=""images/causal/causal_series_8/causal_series_8_a.jpg"" style=""width: 300px; height: 300px;"" />
              </div>","null",""
"","","","","","html-keyboard-response","6","39106","0.0-6.0","44CF16D8EA6C4ADCAECDF2736019767D","bd3e6f5d-9886-4b71-ae3c-44dd6f7f6f88","58046770-4c03-4bc2-b4bc-e7359011db5d","","null","<div style=""display: flex; justify-content: center; align-items: center;"">
                <img src=""images/causal/causal_series_8/causal_series_8_b.jpg"" style=""width: 300px; height: 300px;"" />
              </div>","null",""
"","","","","","html-keyboard-response","7","42108","0.0-7.0","44CF16D8EA6C4ADCAECDF2736019767D","bd3e6f5d-9886-4b71-ae3c-44dd6f7f6f88","58046770-4c03-4bc2-b4bc-e7359011db5d","","null","<div style=""display: flex; justify-content: center; align-items: center;"">
                <img src=""images/causal/causal_series_8/causal_series_8_c.jpg"" style=""width: 300px; height: 300px;"" />
              </div>","null",""
"","","","","","html-button-response","8","49076","0.0-8.0","44CF16D8EA6C4ADCAECDF2736019767D","bd3e6f5d-9886-4b71-ae3c-44dd6f7f6f88","58046770-4c03-4bc2-b4bc-e7359011db5d","","6966","
    <div style=""display: flex; justify-content: center; align-items: center;"">
      <img src=""images/red_deck_2.png"" style=""width: 300px; height: 300px; margin-right: 10px;"" />
      <img src=""images/blue_deck_1.png"" style=""width: 300px; height: 300px;"" />
    </div>","0","0"
"","","","","","html-keyboard-response","9","52077","0.0-9.0-0.0-0.0","44CF16D8EA6C4ADCAECDF2736019767D","bd3e6f5d-9886-4b71-ae3c-44dd6f7f6f88","58046770-4c03-4bc2-b4bc-e7359011db5d","","null","<div style=""display: flex; justify-content: center; align-items: center;"">
                <img src=""images/causal/causal_series_8/causal_series_8_d.jpg"" style=""width: 300px; height: 300px;"" />
              </div>","null",""
"","","","","","html-keyboard-response","10","55080","0.0-10.0","44CF16D8EA6C4ADCAECDF2736019767D","bd3e6f5d-9886-4b71-ae3c-44dd6f7f6f88","58046770-4c03-4bc2-b4bc-e7359011db5d","","null","<div style=""display: flex; justify-content: center; align-items: center;"">
                <img src=""images/other/blank.jpg"" style=""width: 300px; height: 300px;"" />
              </div>","null",""
"","","","","","html-keyboard-response","11","58080","0.0-11.0","44CF16D8EA6C4ADCAECDF2736019767D","bd3e6f5d-9886-4b71-ae3c-44dd6f7f6f88","58046770-4c03-4bc2-b4bc-e7359011db5d","","null","<div style=""display: flex; justify-content: center; align-items: center;"">
                <img src=""images/causal/causal_series_14/causal_series_14_a.jpg"" style=""width: 300px; height: 300px;"" />
              </div>","null",""
"","","","","","html-keyboard-response","12","61080","0.0-12.0","44CF16D8EA6C4ADCAECDF2736019767D","bd3e6f5d-9886-4b71-ae3c-44dd6f7f6f88","58046770-4c03-4bc2-b4bc-e7359011db5d","","null","<div style=""display: flex; justify-content: center; align-items: center;"">
                <img src=""images/causal/causal_series_14/causal_series_14_b.jpg"" style=""width: 300px; height: 300px;"" />
              </div>","null",""
"","","","","","html-keyboard-response","13","64080","0.0-13.0","44CF16D8EA6C4ADCAECDF2736019767D","bd3e6f5d-9886-4b71-ae3c-44dd6f7f6f88","58046770-4c03-4bc2-b4bc-e7359011db5d","","null","<div style=""display: flex; justify-content: center; align-items: center;"">
                <img src=""images/causal/causal_series_14/causal_series_14_c.jpg"" style=""width: 300px; height: 300px;"" />
              </div>","null",""
"","","","","","html-button-response","14","66822","0.0-14.0","44CF16D8EA6C4ADCAECDF2736019767D","bd3e6f5d-9886-4b71-ae3c-44dd6f7f6f88","58046770-4c03-4bc2-b4bc-e7359011db5d","","2740","
    <div style=""display: flex; justify-content: center; align-items: center;"">
      <img src=""images/red_deck_2.png"" style=""width: 300px; height: 300px; margin-right: 10px;"" />
      <img src=""images/blue_deck_1.png"" style=""width: 300px; height: 300px;"" />
    </div>","1","1"
"","","","","","html-keyboard-response","15","69824","0.0-15.0-1.0-0.0","44CF16D8EA6C4ADCAECDF2736019767D","bd3e6f5d-9886-4b71-ae3c-44dd6f7f6f88","58046770-4c03-4bc2-b4bc-e7359011db5d","","null","<div style=""display: flex; justify-content: center; align-items: center;"">
                <img src=""images/semantic/semantic_series_13/semantic_series_13_d.jpg"" style=""width: 300px; height: 300px;"" />
              </div>","null",""
"","","","","","html-keyboard-response","16","72825","0.0-16.0","44CF16D8EA6C4ADCAECDF2736019767D","bd3e6f5d-9886-4b71-ae3c-44dd6f7f6f88","58046770-4c03-4bc2-b4bc-e7359011db5d","","null","<div style=""display: flex; justify-content: center; align-items: center;"">
                <img src=""images/other/blank.jpg"" style=""width: 300px; height: 300px;"" />
              </div>","null",""
"","","","","","html-keyboard-response","17","75826","0.0-17.0","44CF16D8EA6C4ADCAECDF2736019767D","bd3e6f5d-9886-4b71-ae3c-44dd6f7f6f88","58046770-4c03-4bc2-b4bc-e7359011db5d","","null","<div style=""display: flex; justify-content: center; align-items: center;"">
                <img src=""images/causal/causal_series_13/causal_series_13_a.jpg"" style=""width: 300px; height: 300px;"" />
              </div>","null",""
"","","","","","html-keyboard-response","18","78827","0.0-18.0","44CF16D8EA6C4ADCAECDF2736019767D","bd3e6f5d-9886-4b71-ae3c-44dd6f7f6f88","58046770-4c03-4bc2-b4bc-e7359011db5d","","null","<div style=""display: flex; justify-content: center; align-items: center;"">
                <img src=""images/causal/causal_series_13/causal_series_13_b.jpg"" style=""width: 300px; height: 300px;"" />
              </div>","null",""
"","","","","","html-keyboard-response","19","81828","0.0-19.0","44CF16D8EA6C4ADCAECDF2736019767D","bd3e6f5d-9886-4b71-ae3c-44dd6f7f6f88","58046770-4c03-4bc2-b4bc-e7359011db5d","","null","<div style=""display: flex; justify-content: center; align-items: center;"">
                <img src=""images/causal/causal_series_13/causal_series_13_c.jpg"" style=""width: 300px; height: 300px;"" />
              </div>","null",""
"","","","","","html-button-response","20","84281","0.0-20.0","44CF16D8EA6C4ADCAECDF2736019767D","bd3e6f5d-9886-4b71-ae3c-44dd6f7f6f88","58046770-4c03-4bc2-b4bc-e7359011db5d","","2452","
    <div style=""display: flex; justify-content: center; align-items: center;"">
      <img src=""images/red_deck_2.png"" style=""width: 300px; height: 300px; margin-right: 10px;"" />
      <img src=""images/blue_deck_1.png"" style=""width: 300px; height: 300px;"" />
    </div>","0","0"
"","","","","","html-keyboard-response","21","87283","0.0-21.0-0.0-0.0","44CF16D8EA6C4ADCAECDF2736019767D","bd3e6f5d-9886-4b71-ae3c-44dd6f7f6f88","58046770-4c03-4bc2-b4bc-e7359011db5d","","null","<div style=""display: flex; justify-content: center; align-items: center;"">
                <img src=""images/causal/causal_series_13/causal_series_13_d.jpg"" style=""width: 300px; height: 300px;"" />
              </div>","null",""
"","","","","","html-keyboard-response","22","90283","0.0-22.0","44CF16D8EA6C4ADCAECDF2736019767D","bd3e6f5d-9886-4b71-ae3c-44dd6f7f6f88","58046770-4c03-4bc2-b4bc-e7359011db5d","","null","<div style=""display: flex; justify-content: center; align-items: center;"">
                <img src=""images/other/blank.jpg"" style=""width: 300px; height: 300px;"" />
              </div>","null",""
"","","","","","html-keyboard-response","23","93284","0.0-23.0","44CF16D8EA6C4ADCAECDF2736019767D","bd3e6f5d-9886-4b71-ae3c-44dd6f7f6f88","58046770-4c03-4bc2-b4bc-e7359011db5d","","null","<div style=""display: flex; justify-content: center; align-items: center;"">
                <img src=""images/causal/causal_series_7/causal_series_7_a.jpg"" style=""width: 300px; height: 300px;"" />
              </div>","null",""
"","","","","","html-keyboard-response","24","96285","0.0-24.0","44CF16D8EA6C4ADCAECDF2736019767D","bd3e6f5d-9886-4b71-ae3c-44dd6f7f6f88","58046770-4c03-4bc2-b4bc-e7359011db5d","","null","<div style=""display: flex; justify-content: center; align-items: center;"">
                <img src=""images/causal/causal_series_7/causal_series_7_b.jpg"" style=""width: 300px; height: 300px;"" />
              </div>","null",""
"","","","","","html-keyboard-response","25","99286","0.0-25.0","44CF16D8EA6C4ADCAECDF2736019767D","bd3e6f5d-9886-4b71-ae3c-44dd6f7f6f88","58046770-4c03-4bc2-b4bc-e7359011db5d","","null","<div style=""display: flex; justify-content: center; align-items: center;"">
                <img src=""images/causal/causal_series_7/causal_series_7_c.jpg"" style=""width: 300px; height: 300px;"" />
              </div>","null",""
"","","","","","html-button-response","26","101492","0.0-26.0","44CF16D8EA6C4ADCAECDF2736019767D","bd3e6f5d-9886-4b71-ae3c-44dd6f7f6f88","58046770-4c03-4bc2-b4bc-e7359011db5d","","2204","
    <div style=""display: flex; justify-content: center; align-items: center;"">
      <img src=""images/red_deck_2.png"" style=""width: 300px; height: 300px; margin-right: 10px;"" />
      <img src=""images/blue_deck_1.png"" style=""width: 300px; height: 300px;"" />
    </div>","1","1"
"","","","","","html-keyboard-response","27","104494","0.0-27.0-1.0-0.0","44CF16D8EA6C4ADCAECDF2736019767D","bd3e6f5d-9886-4b71-ae3c-44dd6f7f6f88","58046770-4c03-4bc2-b4bc-e7359011db5d","","null","<div style=""display: flex; justify-content: center; align-items: center;"">
                <img src=""images/semantic/semantic_series_6/semantic_series_6_d.jpg"" style=""width: 300px; height: 300px;"" />
              </div>","null",""
"","","","","","html-keyboard-response","28","107494","0.0-28.0","44CF16D8EA6C4ADCAECDF2736019767D","bd3e6f5d-9886-4b71-ae3c-44dd6f7f6f88","58046770-4c03-4bc2-b4bc-e7359011db5d","","null","<div style=""display: flex; justify-content: center; align-items: center;"">
                <img src=""images/other/blank.jpg"" style=""width: 300px; height: 300px;"" />
              </div>","null",""
"","","","","","html-keyboard-response","29","110494","0.0-29.0","44CF16D8EA6C4ADCAECDF2736019767D","bd3e6f5d-9886-4b71-ae3c-44dd6f7f6f88","58046770-4c03-4bc2-b4bc-e7359011db5d","","null","<div style=""display: flex; justify-content: center; align-items: center;"">
                <img src=""images/causal/causal_series_2/causal_series_2_a.jpg"" style=""width: 300px; height: 300px;"" />
              </div>","null",""
"","","","","","html-keyboard-response","30","113496","0.0-30.0","44CF16D8EA6C4ADCAECDF2736019767D","bd3e6f5d-9886-4b71-ae3c-44dd6f7f6f88","58046770-4c03-4bc2-b4bc-e7359011db5d","","null","<div style=""display: flex; justify-content: center; align-items: center;"">
                <img src=""images/causal/causal_series_2/causal_series_2_b.jpg"" style=""width: 300px; height: 300px;"" />
              </div>","null",""
"","","","","","html-keyboard-response","31","116497","0.0-31.0","44CF16D8EA6C4ADCAECDF2736019767D","bd3e6f5d-9886-4b71-ae3c-44dd6f7f6f88","58046770-4c03-4bc2-b4bc-e7359011db5d","","null","<div style=""display: flex; justify-content: center; align-items: center;"">
                <img src=""images/causal/causal_series_2/causal_series_2_c.jpg"" style=""width: 300px; height: 300px;"" />
              </div>","null",""
"","","","","","html-button-response","32","118552","0.0-32.0","44CF16D8EA6C4ADCAECDF2736019767D","bd3e6f5d-9886-4b71-ae3c-44dd6f7f6f88","58046770-4c03-4bc2-b4bc-e7359011db5d","","2053","
    <div style=""display: flex; justify-content: center; align-items: center;"">
      <img src=""images/red_deck_2.png"" style=""width: 300px; height: 300px; margin-right: 10px;"" />
      <img src=""images/blue_deck_1.png"" style=""width: 300px; height: 300px;"" />
    </div>","0","0"
"","","","","","html-keyboard-response","33","121553","0.0-33.0-0.0-0.0","44CF16D8EA6C4ADCAECDF2736019767D","bd3e6f5d-9886-4b71-ae3c-44dd6f7f6f88","58046770-4c03-4bc2-b4bc-e7359011db5d","","null","<div style=""display: flex; justify-content: center; align-items: center;"">
                <img src=""images/causal/causal_series_2/causal_series_2_d.jpg"" style=""width: 300px; height: 300px;"" />
              </div>","null",""
"","","","","","html-keyboard-response","34","124555","0.0-34.0","44CF16D8EA6C4ADCAECDF2736019767D","bd3e6f5d-9886-4b71-ae3c-44dd6f7f6f88","58046770-4c03-4bc2-b4bc-e7359011db5d","","null","<div style=""display: flex; justify-content: center; align-items: center;"">
                <img src=""images/other/blank.jpg"" style=""width: 300px; height: 300px;"" />
              </div>","null",""
"","","","","","html-keyboard-response","35","127555","0.0-35.0","44CF16D8EA6C4ADCAECDF2736019767D","bd3e6f5d-9886-4b71-ae3c-44dd6f7f6f88","58046770-4c03-4bc2-b4bc-e7359011db5d","","null","<div style=""display: flex; justify-content: center; align-items: center;"">
                <img src=""images/causal/causal_series_18/causal_series_18_a.jpg"" style=""width: 300px; height: 300px;"" />
              </div>","null",""
"","","","","","html-keyboard-response","36","130557","0.0-36.0","44CF16D8EA6C4ADCAECDF2736019767D","bd3e6f5d-9886-4b71-ae3c-44dd6f7f6f88","58046770-4c03-4bc2-b4bc-e7359011db5d","","null","<div style=""display: flex; justify-content: center; align-items: center;"">
                <img src=""images/causal/causal_series_18/causal_series_18_b.jpg"" style=""width: 300px; height: 300px;"" />
              </div>","null",""
"","","","","","html-keyboard-response","37","133560","0.0-37.0","44CF16D8EA6C4ADCAECDF2736019767D","bd3e6f5d-9886-4b71-ae3c-44dd6f7f6f88","58046770-4c03-4bc2-b4bc-e7359011db5d","","null","<div style=""display: flex; justify-content: center; align-items: center;"">
                <img src=""images/causal/causal_series_18/causal_series_18_c.jpg"" style=""width: 300px; height: 300px;"" />
              </div>","null",""
"","","","","","html-button-response","38","135834","0.0-38.0","44CF16D8EA6C4ADCAECDF2736019767D","bd3e6f5d-9886-4b71-ae3c-44dd6f7f6f88","58046770-4c03-4bc2-b4bc-e7359011db5d","","2272","
    <div style=""display: flex; justify-content: center; align-items: center;"">
      <img src=""images/red_deck_2.png"" style=""width: 300px; height: 300px; margin-right: 10px;"" />
      <img src=""images/blue_deck_1.png"" style=""width: 300px; height: 300px;"" />
    </div>","1","1"
"","","","","","html-keyboard-response","39","138836","0.0-39.0-1.0-0.0","44CF16D8EA6C4ADCAECDF2736019767D","bd3e6f5d-9886-4b71-ae3c-44dd6f7f6f88","58046770-4c03-4bc2-b4bc-e7359011db5d","","null","<div style=""display: flex; justify-content: center; align-items: center;"">
                <img src=""images/semantic/semantic_series_17/semantic_series_17_d.jpg"" style=""width: 300px; height: 300px;"" />
              </div>","null",""
"","","","","","html-keyboard-response","40","141837","0.0-40.0","44CF16D8EA6C4ADCAECDF2736019767D","bd3e6f5d-9886-4b71-ae3c-44dd6f7f6f88","58046770-4c03-4bc2-b4bc-e7359011db5d","","null","<div style=""display: flex; justify-content: center; align-items: center;"">
                <img src=""images/other/blank.jpg"" style=""width: 300px; height: 300px;"" />
              </div>","null",""
"","","","","","html-keyboard-response","41","144838","0.0-41.0","44CF16D8EA6C4ADCAECDF2736019767D","bd3e6f5d-9886-4b71-ae3c-44dd6f7f6f88","58046770-4c03-4bc2-b4bc-e7359011db5d","","null","<div style=""display: flex; justify-content: center; align-items: center;"">
                <img src=""images/causal/causal_series_16/causal_series_16_a.jpg"" style=""width: 300px; height: 300px;"" />
              </div>","null",""
"","","","","","html-keyboard-response","42","147840","0.0-42.0","44CF16D8EA6C4ADCAECDF2736019767D","bd3e6f5d-9886-4b71-ae3c-44dd6f7f6f88","58046770-4c03-4bc2-b4bc-e7359011db5d","","null","<div style=""display: flex; justify-content: center; align-items: center;"">
                <img src=""images/causal/causal_series_16/causal_series_16_b.jpg"" style=""width: 300px; height: 300px;"" />
              </div>","null",""
"","","","","","html-keyboard-response","43","150840","0.0-43.0","44CF16D8EA6C4ADCAECDF2736019767D","bd3e6f5d-9886-4b71-ae3c-44dd6f7f6f88","58046770-4c03-4bc2-b4bc-e7359011db5d","","null","<div style=""display: flex; justify-content: center; align-items: center;"">
                <img src=""images/causal/causal_series_16/causal_series_16_c.jpg"" style=""width: 300px; height: 300px;"" />
              </div>","null",""
"","","","","","html-button-response","44","152612","0.0-44.0","44CF16D8EA6C4ADCAECDF2736019767D","bd3e6f5d-9886-4b71-ae3c-44dd6f7f6f88","58046770-4c03-4bc2-b4bc-e7359011db5d","","1771","
    <div style=""display: flex; justify-content: center; align-items: center;"">
      <img src=""images/red_deck_2.png"" style=""width: 300px; height: 300px; margin-right: 10px;"" />
      <img src=""images/blue_deck_1.png"" style=""width: 300px; height: 300px;"" />
    </div>","0","0"
"","","","","","html-keyboard-response","45","155614","0.0-45.0-0.0-0.0","44CF16D8EA6C4ADCAECDF2736019767D","bd3e6f5d-9886-4b71-ae3c-44dd6f7f6f88","58046770-4c03-4bc2-b4bc-e7359011db5d","","null","<div style=""display: flex; justify-content: center; align-items: center;"">
                <img src=""images/causal/causal_series_16/causal_series_16_d.jpg"" style=""width: 300px; height: 300px;"" />
              </div>","null",""
"","","","","","html-keyboard-response","46","158615","0.0-46.0","44CF16D8EA6C4ADCAECDF2736019767D","bd3e6f5d-9886-4b71-ae3c-44dd6f7f6f88","58046770-4c03-4bc2-b4bc-e7359011db5d","","null","<div style=""display: flex; justify-content: center; align-items: center;"">
                <img src=""images/other/blank.jpg"" style=""width: 300px; height: 300px;"" />
              </div>","null",""
"","","","","","html-keyboard-response","47","161615","0.0-47.0","44CF16D8EA6C4ADCAECDF2736019767D","bd3e6f5d-9886-4b71-ae3c-44dd6f7f6f88","58046770-4c03-4bc2-b4bc-e7359011db5d","","null","<div style=""display: flex; justify-content: center; align-items: center;"">
                <img src=""images/causal/causal_series_3/causal_series_3_a.jpg"" style=""width: 300px; height: 300px;"" />
              </div>","null",""
"","","","","","html-keyboard-response","48","164616","0.0-48.0","44CF16D8EA6C4ADCAECDF2736019767D","bd3e6f5d-9886-4b71-ae3c-44dd6f7f6f88","58046770-4c03-4bc2-b4bc-e7359011db5d","","null","<div style=""display: flex; justify-content: center; align-items: center;"">
                <img src=""images/causal/causal_series_3/causal_series_3_b.jpg"" style=""width: 300px; height: 300px;"" />
              </div>","null",""
"","","","","","html-keyboard-response","49","167616","0.0-49.0","44CF16D8EA6C4ADCAECDF2736019767D","bd3e6f5d-9886-4b71-ae3c-44dd6f7f6f88","58046770-4c03-4bc2-b4bc-e7359011db5d","","null","<div style=""display: flex; justify-content: center; align-items: center;"">
                <img src=""images/causal/causal_series_3/causal_series_3_c.jpg"" style=""width: 300px; height: 300px;"" />
              </div>","null",""
"","","","","","html-button-response","50","169692","0.0-50.0","44CF16D8EA6C4ADCAECDF2736019767D","bd3e6f5d-9886-4b71-ae3c-44dd6f7f6f88","58046770-4c03-4bc2-b4bc-e7359011db5d","","2074","
    <div style=""display: flex; justify-content: center; align-items: center;"">
      <img src=""images/red_deck_2.png"" style=""width: 300px; height: 300px; margin-right: 10px;"" />
      <img src=""images/blue_deck_1.png"" style=""width: 300px; height: 300px;"" />
    </div>","1","1"
"","","","","","html-keyboard-response","51","172694","0.0-51.0-1.0-0.0","44CF16D8EA6C4ADCAECDF2736019767D","bd3e6f5d-9886-4b71-ae3c-44dd6f7f6f88","58046770-4c03-4bc2-b4bc-e7359011db5d","","null","<div style=""display: flex; justify-content: center; align-items: center;"">
                <img src=""images/semantic/semantic_series_2/semantic_series_2_d.jpg"" style=""width: 300px; height: 300px;"" />
              </div>","null",""
"","","","","","html-keyboard-response","52","175695","0.0-52.0","44CF16D8EA6C4ADCAECDF2736019767D","bd3e6f5d-9886-4b71-ae3c-44dd6f7f6f88","58046770-4c03-4bc2-b4bc-e7359011db5d","","null","<div style=""display: flex; justify-content: center; align-items: center;"">
                <img src=""images/other/blank.jpg"" style=""width: 300px; height: 300px;"" />
              </div>","null",""
"","","","","","html-keyboard-response","53","178695","0.0-53.0","44CF16D8EA6C4ADCAECDF2736019767D","bd3e6f5d-9886-4b71-ae3c-44dd6f7f6f88","58046770-4c03-4bc2-b4bc-e7359011db5d","","null","<div style=""display: flex; justify-content: center; align-items: center;"">
                <img src=""images/causal/causal_series_11/causal_series_11_a.jpg"" style=""width: 300px; height: 300px;"" />
              </div>","null",""
"","","","","","html-keyboard-response","54","181695","0.0-54.0","44CF16D8EA6C4ADCAECDF2736019767D","bd3e6f5d-9886-4b71-ae3c-44dd6f7f6f88","58046770-4c03-4bc2-b4bc-e7359011db5d","","null","<div style=""display: flex; justify-content: center; align-items: center;"">
                <img src=""images/causal/causal_series_11/causal_series_11_b.jpg"" style=""width: 300px; height: 300px;"" />
              </div>","null",""
"","","","","","html-keyboard-response","55","184695","0.0-55.0","44CF16D8EA6C4ADCAECDF2736019767D","bd3e6f5d-9886-4b71-ae3c-44dd6f7f6f88","58046770-4c03-4bc2-b4bc-e7359011db5d","","null","<div style=""display: flex; justify-content: center; align-items: center;"">
                <img src=""images/causal/causal_series_11/causal_series_11_c.jpg"" style=""width: 300px; height: 300px;"" />
              </div>","null",""
"","","","","","html-button-response","56","186545","0.0-56.0","44CF16D8EA6C4ADCAECDF2736019767D","bd3e6f5d-9886-4b71-ae3c-44dd6f7f6f88","58046770-4c03-4bc2-b4bc-e7359011db5d","","1848","
    <div style=""display: flex; justify-content: center; align-items: center;"">
      <img src=""images/red_deck_2.png"" style=""width: 300px; height: 300px; margin-right: 10px;"" />
      <img src=""images/blue_deck_1.png"" style=""width: 300px; height: 300px;"" />
    </div>","0","0"
"","","","","","html-keyboard-response","57","189546","0.0-57.0-0.0-0.0","44CF16D8EA6C4ADCAECDF2736019767D","bd3e6f5d-9886-4b71-ae3c-44dd6f7f6f88","58046770-4c03-4bc2-b4bc-e7359011db5d","","null","<div style=""display: flex; justify-content: center; align-items: center;"">
                <img src=""images/causal/causal_series_11/causal_series_11_d.jpg"" style=""width: 300px; height: 300px;"" />
              </div>","null",""
"","","","","","html-keyboard-response","58","192547","0.0-58.0","44CF16D8EA6C4ADCAECDF2736019767D","bd3e6f5d-9886-4b71-ae3c-44dd6f7f6f88","58046770-4c03-4bc2-b4bc-e7359011db5d","","null","<div style=""display: flex; justify-content: center; align-items: center;"">
                <img src=""images/other/blank.jpg"" style=""width: 300px; height: 300px;"" />
              </div>","null",""
"","","","","","html-keyboard-response","59","195548","0.0-59.0","44CF16D8EA6C4ADCAECDF2736019767D","bd3e6f5d-9886-4b71-ae3c-44dd6f7f6f88","58046770-4c03-4bc2-b4bc-e7359011db5d","","null","<div style=""display: flex; justify-content: center; align-items: center;"">
                <img src=""images/causal/causal_series_15/causal_series_15_a.jpg"" style=""width: 300px; height: 300px;"" />
              </div>","null",""
"","","","","","html-keyboard-response","60","198550","0.0-60.0","44CF16D8EA6C4ADCAECDF2736019767D","bd3e6f5d-9886-4b71-ae3c-44dd6f7f6f88","58046770-4c03-4bc2-b4bc-e7359011db5d","","null","<div style=""display: flex; justify-content: center; align-items: center;"">
                <img src=""images/causal/causal_series_15/causal_series_15_b.jpg"" style=""width: 300px; height: 300px;"" />
              </div>","null",""
"","","","","","html-keyboard-response","61","201551","0.0-61.0","44CF16D8EA6C4ADCAECDF2736019767D","bd3e6f5d-9886-4b71-ae3c-44dd6f7f6f88","58046770-4c03-4bc2-b4bc-e7359011db5d","","null","<div style=""display: flex; justify-content: center; align-items: center;"">
                <img src=""images/causal/causal_series_15/causal_series_15_c.jpg"" style=""width: 300px; height: 300px;"" />
              </div>","null",""
"","","","","","html-button-response","62","224072","0.0-62.0","44CF16D8EA6C4ADCAECDF2736019767D","bd3e6f5d-9886-4b71-ae3c-44dd6f7f6f88","58046770-4c03-4bc2-b4bc-e7359011db5d","","22517","
    <div style=""display: flex; justify-content: center; align-items: center;"">
      <img src=""images/red_deck_2.png"" style=""width: 300px; height: 300px; margin-right: 10px;"" />
      <img src=""images/blue_deck_1.png"" style=""width: 300px; height: 300px;"" />
    </div>","0","0"
"","","","","","html-keyboard-response","63","227075","0.0-63.0-0.0-0.0","44CF16D8EA6C4ADCAECDF2736019767D","bd3e6f5d-9886-4b71-ae3c-44dd6f7f6f88","58046770-4c03-4bc2-b4bc-e7359011db5d","","null","<div style=""display: flex; justify-content: center; align-items: center;"">
                <img src=""images/causal/causal_series_15/causal_series_15_d.jpg"" style=""width: 300px; height: 300px;"" />
              </div>","null",""
"","","","","","html-keyboard-response","64","230075","0.0-64.0","44CF16D8EA6C4ADCAECDF2736019767D","bd3e6f5d-9886-4b71-ae3c-44dd6f7f6f88","58046770-4c03-4bc2-b4bc-e7359011db5d","","null","<div style=""display: flex; justify-content: center; align-items: center;"">
                <img src=""images/other/blank.jpg"" style=""width: 300px; height: 300px;"" />
              </div>","null",""
"","","","","","html-keyboard-response","65","233075","0.0-65.0","44CF16D8EA6C4ADCAECDF2736019767D","bd3e6f5d-9886-4b71-ae3c-44dd6f7f6f88","58046770-4c03-4bc2-b4bc-e7359011db5d","","null","<div style=""display: flex; justify-content: center; align-items: center;"">
                <img src=""images/causal/causal_series_9/causal_series_9_a.jpg"" style=""width: 300px; height: 300px;"" />
              </div>","null",""
"","","","","","html-keyboard-response","66","236076","0.0-66.0","44CF16D8EA6C4ADCAECDF2736019767D","bd3e6f5d-9886-4b71-ae3c-44dd6f7f6f88","58046770-4c03-4bc2-b4bc-e7359011db5d","","null","<div style=""display: flex; justify-content: center; align-items: center;"">
                <img src=""images/causal/causal_series_9/causal_series_9_b.jpg"" style=""width: 300px; height: 300px;"" />
              </div>","null",""
"","","","","","html-keyboard-response","67","239077","0.0-67.0","44CF16D8EA6C4ADCAECDF2736019767D","bd3e6f5d-9886-4b71-ae3c-44dd6f7f6f88","58046770-4c03-4bc2-b4bc-e7359011db5d","","null","<div style=""display: flex; justify-content: center; align-items: center;"">
                <img src=""images/causal/causal_series_9/causal_series_9_c.jpg"" style=""width: 300px; height: 300px;"" />
              </div>","null",""
"","","","","","html-button-response","68","240843","0.0-68.0","44CF16D8EA6C4ADCAECDF2736019767D","bd3e6f5d-9886-4b71-ae3c-44dd6f7f6f88","58046770-4c03-4bc2-b4bc-e7359011db5d","","1764","
    <div style=""display: flex; justify-content: center; align-items: center;"">
      <img src=""images/red_deck_2.png"" style=""width: 300px; height: 300px; margin-right: 10px;"" />
      <img src=""images/blue_deck_1.png"" style=""width: 300px; height: 300px;"" />
    </div>","1","1"
"","","","","","html-keyboard-response","69","243845","0.0-69.0-1.0-0.0","44CF16D8EA6C4ADCAECDF2736019767D","bd3e6f5d-9886-4b71-ae3c-44dd6f7f6f88","58046770-4c03-4bc2-b4bc-e7359011db5d","","null","<div style=""display: flex; justify-content: center; align-items: center;"">
                <img src=""images/semantic/semantic_series_8/semantic_series_8_d.jpg"" style=""width: 300px; height: 300px;"" />
              </div>","null",""
"","","","","","html-keyboard-response","70","246845","0.0-70.0","44CF16D8EA6C4ADCAECDF2736019767D","bd3e6f5d-9886-4b71-ae3c-44dd6f7f6f88","58046770-4c03-4bc2-b4bc-e7359011db5d","","null","<div style=""display: flex; justify-content: center; align-items: center;"">
                <img src=""images/other/blank.jpg"" style=""width: 300px; height: 300px;"" />
              </div>","null",""
"","","","","","html-keyboard-response","71","249846","0.0-71.0","44CF16D8EA6C4ADCAECDF2736019767D","bd3e6f5d-9886-4b71-ae3c-44dd6f7f6f88","58046770-4c03-4bc2-b4bc-e7359011db5d","","null","<div style=""display: flex; justify-content: center; align-items: center;"">
                <img src=""images/causal/causal_series_6/causal_series_6_a.jpg"" style=""width: 300px; height: 300px;"" />
              </div>","null",""
"","","","","","html-keyboard-response","72","252846","0.0-72.0","44CF16D8EA6C4ADCAECDF2736019767D","bd3e6f5d-9886-4b71-ae3c-44dd6f7f6f88","58046770-4c03-4bc2-b4bc-e7359011db5d","","null","<div style=""display: flex; justify-content: center; align-items: center;"">
                <img src=""images/causal/causal_series_6/causal_series_6_b.jpg"" style=""width: 300px; height: 300px;"" />
              </div>","null",""
"","","","","","html-keyboard-response","73","255847","0.0-73.0","44CF16D8EA6C4ADCAECDF2736019767D","bd3e6f5d-9886-4b71-ae3c-44dd6f7f6f88","58046770-4c03-4bc2-b4bc-e7359011db5d","","null","<div style=""display: flex; justify-content: center; align-items: center;"">
                <img src=""images/causal/causal_series_6/causal_series_6_c.jpg"" style=""width: 300px; height: 300px;"" />
              </div>","null",""
"","","","","","html-button-response","74","262015","0.0-74.0","44CF16D8EA6C4ADCAECDF2736019767D","bd3e6f5d-9886-4b71-ae3c-44dd6f7f6f88","58046770-4c03-4bc2-b4bc-e7359011db5d","","6167","
    <div style=""display: flex; justify-content: center; align-items: center;"">
      <img src=""images/red_deck_2.png"" style=""width: 300px; height: 300px; margin-right: 10px;"" />
      <img src=""images/blue_deck_1.png"" style=""width: 300px; height: 300px;"" />
    </div>","1","1"
"","","","","","html-keyboard-response","75","265017","0.0-75.0-1.0-0.0","44CF16D8EA6C4ADCAECDF2736019767D","bd3e6f5d-9886-4b71-ae3c-44dd6f7f6f88","58046770-4c03-4bc2-b4bc-e7359011db5d","","null","<div style=""display: flex; justify-content: center; align-items: center;"">
                <img src=""images/semantic/semantic_series_5/semantic_series_5_d.jpg"" style=""width: 300px; height: 300px;"" />
              </div>","null",""
"","","","","","html-keyboard-response","76","268019","0.0-76.0","44CF16D8EA6C4ADCAECDF2736019767D","bd3e6f5d-9886-4b71-ae3c-44dd6f7f6f88","58046770-4c03-4bc2-b4bc-e7359011db5d","","null","<div style=""display: flex; justify-content: center; align-items: center;"">
                <img src=""images/other/blank.jpg"" style=""width: 300px; height: 300px;"" />
              </div>","null",""
"","","","","","html-keyboard-response","77","271019","0.0-77.0","44CF16D8EA6C4ADCAECDF2736019767D","bd3e6f5d-9886-4b71-ae3c-44dd6f7f6f88","58046770-4c03-4bc2-b4bc-e7359011db5d","","null","<div style=""display: flex; justify-content: center; align-items: center;"">
                <img src=""images/causal/causal_series_10/causal_series_10_a.jpg"" style=""width: 300px; height: 300px;"" />
              </div>","null",""
"","","","","","html-keyboard-response","78","274019","0.0-78.0","44CF16D8EA6C4ADCAECDF2736019767D","bd3e6f5d-9886-4b71-ae3c-44dd6f7f6f88","58046770-4c03-4bc2-b4bc-e7359011db5d","","null","<div style=""display: flex; justify-content: center; align-items: center;"">
                <img src=""images/causal/causal_series_10/causal_series_10_b.jpg"" style=""width: 300px; height: 300px;"" />
              </div>","null",""
"","","","","","html-keyboard-response","79","277020","0.0-79.0","44CF16D8EA6C4ADCAECDF2736019767D","bd3e6f5d-9886-4b71-ae3c-44dd6f7f6f88","58046770-4c03-4bc2-b4bc-e7359011db5d","","null","<div style=""display: flex; justify-content: center; align-items: center;"">
                <img src=""images/causal/causal_series_10/causal_series_10_c.jpg"" style=""width: 300px; height: 300px;"" />
              </div>","null",""
"","","","","","html-button-response","80","278985","0.0-80.0","44CF16D8EA6C4ADCAECDF2736019767D","bd3e6f5d-9886-4b71-ae3c-44dd6f7f6f88","58046770-4c03-4bc2-b4bc-e7359011db5d","","1965","
    <div style=""display: flex; justify-content: center; align-items: center;"">
      <img src=""images/red_deck_2.png"" style=""width: 300px; height: 300px; margin-right: 10px;"" />
      <img src=""images/blue_deck_1.png"" style=""width: 300px; height: 300px;"" />
    </div>","0","0"
"","","","","","html-keyboard-response","81","281987","0.0-81.0-0.0-0.0","44CF16D8EA6C4ADCAECDF2736019767D","bd3e6f5d-9886-4b71-ae3c-44dd6f7f6f88","58046770-4c03-4bc2-b4bc-e7359011db5d","","null","<div style=""display: flex; justify-content: center; align-items: center;"">
                <img src=""images/causal/causal_series_10/causal_series_10_d.jpg"" style=""width: 300px; height: 300px;"" />
              </div>","null",""
"","","","","","html-keyboard-response","82","284988","0.0-82.0","44CF16D8EA6C4ADCAECDF2736019767D","bd3e6f5d-9886-4b71-ae3c-44dd6f7f6f88","58046770-4c03-4bc2-b4bc-e7359011db5d","","null","<div style=""display: flex; justify-content: center; align-items: center;"">
                <img src=""images/other/blank.jpg"" style=""width: 300px; height: 300px;"" />
              </div>","null",""
"","","","","","html-keyboard-response","83","287989","0.0-83.0","44CF16D8EA6C4ADCAECDF2736019767D","bd3e6f5d-9886-4b71-ae3c-44dd6f7f6f88","58046770-4c03-4bc2-b4bc-e7359011db5d","","null","<div style=""display: flex; justify-content: center; align-items: center;"">
                <img src=""images/causal/causal_series_4/causal_series_4_a.jpg"" style=""width: 300px; height: 300px;"" />
              </div>","null",""
"","","","","","html-keyboard-response","84","290990","0.0-84.0","44CF16D8EA6C4ADCAECDF2736019767D","bd3e6f5d-9886-4b71-ae3c-44dd6f7f6f88","58046770-4c03-4bc2-b4bc-e7359011db5d","","null","<div style=""display: flex; justify-content: center; align-items: center;"">
                <img src=""images/causal/causal_series_4/causal_series_4_b.jpg"" style=""width: 300px; height: 300px;"" />
              </div>","null",""
"","","","","","html-keyboard-response","85","293991","0.0-85.0","44CF16D8EA6C4ADCAECDF2736019767D","bd3e6f5d-9886-4b71-ae3c-44dd6f7f6f88","58046770-4c03-4bc2-b4bc-e7359011db5d","","null","<div style=""display: flex; justify-content: center; align-items: center;"">
                <img src=""images/causal/causal_series_4/causal_series_4_c.jpg"" style=""width: 300px; height: 300px;"" />
              </div>","null",""
"","","","","","html-button-response","86","295313","0.0-86.0","44CF16D8EA6C4ADCAECDF2736019767D","bd3e6f5d-9886-4b71-ae3c-44dd6f7f6f88","58046770-4c03-4bc2-b4bc-e7359011db5d","","1320","
    <div style=""display: flex; justify-content: center; align-items: center;"">
      <img src=""images/red_deck_2.png"" style=""width: 300px; height: 300px; margin-right: 10px;"" />
      <img src=""images/blue_deck_1.png"" style=""width: 300px; height: 300px;"" />
    </div>","0","0"
"","","","","","html-keyboard-response","87","298314","0.0-87.0-0.0-0.0","44CF16D8EA6C4ADCAECDF2736019767D","bd3e6f5d-9886-4b71-ae3c-44dd6f7f6f88","58046770-4c03-4bc2-b4bc-e7359011db5d","","null","<div style=""display: flex; justify-content: center; align-items: center;"">
                <img src=""images/causal/causal_series_4/causal_series_4_d.jpg"" style=""width: 300px; height: 300px;"" />
              </div>","null",""
"","","","","","html-keyboard-response","88","301315","0.0-88.0","44CF16D8EA6C4ADCAECDF2736019767D","bd3e6f5d-9886-4b71-ae3c-44dd6f7f6f88","58046770-4c03-4bc2-b4bc-e7359011db5d","","null","<div style=""display: flex; justify-content: center; align-items: center;"">
                <img src=""images/other/blank.jpg"" style=""width: 300px; height: 300px;"" />
              </div>","null",""
"","","","","","html-keyboard-response","89","304316","0.0-89.0","44CF16D8EA6C4ADCAECDF2736019767D","bd3e6f5d-9886-4b71-ae3c-44dd6f7f6f88","58046770-4c03-4bc2-b4bc-e7359011db5d","","null","<div style=""display: flex; justify-content: center; align-items: center;"">
                <img src=""images/causal/causal_series_17/causal_series_17_a.jpg"" style=""width: 300px; height: 300px;"" />
              </div>","null",""
"","","","","","html-keyboard-response","90","307319","0.0-90.0","44CF16D8EA6C4ADCAECDF2736019767D","bd3e6f5d-9886-4b71-ae3c-44dd6f7f6f88","58046770-4c03-4bc2-b4bc-e7359011db5d","","null","<div style=""display: flex; justify-content: center; align-items: center;"">
                <img src=""images/causal/causal_series_17/causal_series_17_b.jpg"" style=""width: 300px; height: 300px;"" />
              </div>","null",""
"","","","","","html-keyboard-response","91","310320","0.0-91.0","44CF16D8EA6C4ADCAECDF2736019767D","bd3e6f5d-9886-4b71-ae3c-44dd6f7f6f88","58046770-4c03-4bc2-b4bc-e7359011db5d","","null","<div style=""display: flex; justify-content: center; align-items: center;"">
                <img src=""images/causal/causal_series_17/causal_series_17_c.jpg"" style=""width: 300px; height: 300px;"" />
              </div>","null",""
"","","","","","html-button-response","92","311985","0.0-92.0","44CF16D8EA6C4ADCAECDF2736019767D","bd3e6f5d-9886-4b71-ae3c-44dd6f7f6f88","58046770-4c03-4bc2-b4bc-e7359011db5d","","1663","
    <div style=""display: flex; justify-content: center; align-items: center;"">
      <img src=""images/red_deck_2.png"" style=""width: 300px; height: 300px; margin-right: 10px;"" />
      <img src=""images/blue_deck_1.png"" style=""width: 300px; height: 300px;"" />
    </div>","1","1"
"","","","","","html-keyboard-response","93","314986","0.0-93.0-1.0-0.0","44CF16D8EA6C4ADCAECDF2736019767D","bd3e6f5d-9886-4b71-ae3c-44dd6f7f6f88","58046770-4c03-4bc2-b4bc-e7359011db5d","","null","<div style=""display: flex; justify-content: center; align-items: center;"">
                <img src=""images/semantic/semantic_series_16/semantic_series_16_d.jpg"" style=""width: 300px; height: 300px;"" />
              </div>","null",""
"","","","","","html-keyboard-response","94","317988","0.0-94.0","44CF16D8EA6C4ADCAECDF2736019767D","bd3e6f5d-9886-4b71-ae3c-44dd6f7f6f88","58046770-4c03-4bc2-b4bc-e7359011db5d","","null","<div style=""display: flex; justify-content: center; align-items: center;"">
                <img src=""images/other/blank.jpg"" style=""width: 300px; height: 300px;"" />
              </div>","null",""
"","","","","","html-keyboard-response","95","320989","0.0-95.0","44CF16D8EA6C4ADCAECDF2736019767D","bd3e6f5d-9886-4b71-ae3c-44dd6f7f6f88","58046770-4c03-4bc2-b4bc-e7359011db5d","","null","<div style=""display: flex; justify-content: center; align-items: center;"">
                <img src=""images/causal/causal_series_5/causal_series_5_a.jpg"" style=""width: 300px; height: 300px;"" />
              </div>","null",""
"","","","","","html-keyboard-response","96","323990","0.0-96.0","44CF16D8EA6C4ADCAECDF2736019767D","bd3e6f5d-9886-4b71-ae3c-44dd6f7f6f88","58046770-4c03-4bc2-b4bc-e7359011db5d","","null","<div style=""display: flex; justify-content: center; align-items: center;"">
                <img src=""images/causal/causal_series_5/causal_series_5_b.jpg"" style=""width: 300px; height: 300px;"" />
              </div>","null",""
"","","","","","html-keyboard-response","97","326991","0.0-97.0","44CF16D8EA6C4ADCAECDF2736019767D","bd3e6f5d-9886-4b71-ae3c-44dd6f7f6f88","58046770-4c03-4bc2-b4bc-e7359011db5d","","null","<div style=""display: flex; justify-content: center; align-items: center;"">
                <img src=""images/causal/causal_series_5/causal_series_5_c.jpg"" style=""width: 300px; height: 300px;"" />
              </div>","null",""
"","","","","","html-button-response","98","328546","0.0-98.0","44CF16D8EA6C4ADCAECDF2736019767D","bd3e6f5d-9886-4b71-ae3c-44dd6f7f6f88","58046770-4c03-4bc2-b4bc-e7359011db5d","","1554","
    <div style=""display: flex; justify-content: center; align-items: center;"">
      <img src=""images/red_deck_2.png"" style=""width: 300px; height: 300px; margin-right: 10px;"" />
      <img src=""images/blue_deck_1.png"" style=""width: 300px; height: 300px;"" />
    </div>","0","0"
"","","","","","html-keyboard-response","99","331548","0.0-99.0-0.0-0.0","44CF16D8EA6C4ADCAECDF2736019767D","bd3e6f5d-9886-4b71-ae3c-44dd6f7f6f88","58046770-4c03-4bc2-b4bc-e7359011db5d","","null","<div style=""display: flex; justify-content: center; align-items: center;"">
                <img src=""images/causal/causal_series_5/causal_series_5_d.jpg"" style=""width: 300px; height: 300px;"" />
              </div>","null",""
"","","","","","html-keyboard-response","100","334548","0.0-100.0","44CF16D8EA6C4ADCAECDF2736019767D","bd3e6f5d-9886-4b71-ae3c-44dd6f7f6f88","58046770-4c03-4bc2-b4bc-e7359011db5d","","null","<div style=""display: flex; justify-content: center; align-items: center;"">
                <img src=""images/other/blank.jpg"" style=""width: 300px; height: 300px;"" />
              </div>","null",""
"","","","","","html-keyboard-response","101","337551","0.0-101.0","44CF16D8EA6C4ADCAECDF2736019767D","bd3e6f5d-9886-4b71-ae3c-44dd6f7f6f88","58046770-4c03-4bc2-b4bc-e7359011db5d","","null","<div style=""display: flex; justify-content: center; align-items: center;"">
                <img src=""images/causal/causal_series_1/causal_series_1_a.jpg"" style=""width: 300px; height: 300px;"" />
              </div>","null",""
"","","","","","html-keyboard-response","102","340552","0.0-102.0","44CF16D8EA6C4ADCAECDF2736019767D","bd3e6f5d-9886-4b71-ae3c-44dd6f7f6f88","58046770-4c03-4bc2-b4bc-e7359011db5d","","null","<div style=""display: flex; justify-content: center; align-items: center;"">
                <img src=""images/causal/causal_series_1/causal_series_1_b.jpg"" style=""width: 300px; height: 300px;"" />
              </div>","null",""
"","","","","","html-keyboard-response","103","343553","0.0-103.0","44CF16D8EA6C4ADCAECDF2736019767D","bd3e6f5d-9886-4b71-ae3c-44dd6f7f6f88","58046770-4c03-4bc2-b4bc-e7359011db5d","","null","<div style=""display: flex; justify-content: center; align-items: center;"">
                <img src=""images/causal/causal_series_1/causal_series_1_c.jpg"" style=""width: 300px; height: 300px;"" />
              </div>","null",""
"","","","","","html-button-response","104","364745","0.0-104.0","44CF16D8EA6C4ADCAECDF2736019767D","bd3e6f5d-9886-4b71-ae3c-44dd6f7f6f88","58046770-4c03-4bc2-b4bc-e7359011db5d","","21191","
    <div style=""display: flex; justify-content: center; align-items: center;"">
      <img src=""images/red_deck_2.png"" style=""width: 300px; height: 300px; margin-right: 10px;"" />
      <img src=""images/blue_deck_1.png"" style=""width: 300px; height: 300px;"" />
    </div>","0","0"
"","","","","","html-keyboard-response","105","367747","0.0-105.0-0.0-0.0","44CF16D8EA6C4ADCAECDF2736019767D","bd3e6f5d-9886-4b71-ae3c-44dd6f7f6f88","58046770-4c03-4bc2-b4bc-e7359011db5d","","null","<div style=""display: flex; justify-content: center; align-items: center;"">
                <img src=""images/causal/causal_series_1/causal_series_1_d.jpg"" style=""width: 300px; height: 300px;"" />
              </div>","null",""
"","","","","","html-keyboard-response","106","370749","0.0-106.0","44CF16D8EA6C4ADCAECDF2736019767D","bd3e6f5d-9886-4b71-ae3c-44dd6f7f6f88","58046770-4c03-4bc2-b4bc-e7359011db5d","","null","<div style=""display: flex; justify-content: center; align-items: center;"">
                <img src=""images/other/blank.jpg"" style=""width: 300px; height: 300px;"" />
              </div>","null",""
"","","","","","html-keyboard-response","107","373750","0.0-107.0","44CF16D8EA6C4ADCAECDF2736019767D","bd3e6f5d-9886-4b71-ae3c-44dd6f7f6f88","58046770-4c03-4bc2-b4bc-e7359011db5d","","null","<div style=""display: flex; justify-content: center; align-items: center;"">
                <img src=""images/causal/causal_series_12/causal_series_12_a.jpg"" style=""width: 300px; height: 300px;"" />
              </div>","null",""
"","","","","","html-keyboard-response","108","376750","0.0-108.0","44CF16D8EA6C4ADCAECDF2736019767D","bd3e6f5d-9886-4b71-ae3c-44dd6f7f6f88","58046770-4c03-4bc2-b4bc-e7359011db5d","","null","<div style=""display: flex; justify-content: center; align-items: center;"">
                <img src=""images/causal/causal_series_12/causal_series_12_b.jpg"" style=""width: 300px; height: 300px;"" />
              </div>","null",""
"","","","","","html-keyboard-response","109","379750","0.0-109.0","44CF16D8EA6C4ADCAECDF2736019767D","bd3e6f5d-9886-4b71-ae3c-44dd6f7f6f88","58046770-4c03-4bc2-b4bc-e7359011db5d","","null","<div style=""display: flex; justify-content: center; align-items: center;"">
                <img src=""images/causal/causal_series_12/causal_series_12_c.jpg"" style=""width: 300px; height: 300px;"" />
              </div>","null",""
"","","","","","html-button-response","110","381784","0.0-110.0","44CF16D8EA6C4ADCAECDF2736019767D","bd3e6f5d-9886-4b71-ae3c-44dd6f7f6f88","58046770-4c03-4bc2-b4bc-e7359011db5d","","2033","
    <div style=""display: flex; justify-content: center; align-items: center;"">
      <img src=""images/red_deck_2.png"" style=""width: 300px; height: 300px; margin-right: 10px;"" />
      <img src=""images/blue_deck_1.png"" style=""width: 300px; height: 300px;"" />
    </div>","0","0"
"","","","","","html-keyboard-response","111","384785","0.0-111.0-0.0-0.0","44CF16D8EA6C4ADCAECDF2736019767D","bd3e6f5d-9886-4b71-ae3c-44dd6f7f6f88","58046770-4c03-4bc2-b4bc-e7359011db5d","","null","<div style=""display: flex; justify-content: center; align-items: center;"">
                <img src=""images/causal/causal_series_12/causal_series_12_d.jpg"" style=""width: 300px; height: 300px;"" />
              </div>","null",""
"","","","","","html-keyboard-response","112","387786","0.0-112.0","44CF16D8EA6C4ADCAECDF2736019767D","bd3e6f5d-9886-4b71-ae3c-44dd6f7f6f88","58046770-4c03-4bc2-b4bc-e7359011db5d","","null","<div style=""display: flex; justify-content: center; align-items: center;"">
                <img src=""images/other/blank.jpg"" style=""width: 300px; height: 300px;"" />
              </div>","null",""
"","","","","","survey-text","113","395140","0.0-113.0","44CF16D8EA6C4ADCAECDF2736019767D","bd3e6f5d-9886-4b71-ae3c-44dd6f7f6f88","58046770-4c03-4bc2-b4bc-e7359011db5d","","7344","","{""Q0"":""""}",""
"","","","","","survey-text","114","404723","0.0-114.0","44CF16D8EA6C4ADCAECDF2736019767D","bd3e6f5d-9886-4b71-ae3c-44dd6f7f6f88","58046770-4c03-4bc2-b4bc-e7359011db5d","","9564","","{""Q0"":""red""}",""
"","","","","","html-button-response","115","411110","0.0-115.0","44CF16D8EA6C4ADCAECDF2736019767D","bd3e6f5d-9886-4b71-ae3c-44dd6f7f6f88","58046770-4c03-4bc2-b4bc-e7359011db5d","","6386","Which color deck does the fourth image continue the story from the series?","0",""
"","","","","","html-button-response","116","420761","0.0-116.0","44CF16D8EA6C4ADCAECDF2736019767D","bd3e6f5d-9886-4b71-ae3c-44dd6f7f6f88","58046770-4c03-4bc2-b4bc-e7359011db5d","","9649","Which color deck does the fourth image not follow the story from the series?","1",""
"","","","","","survey-text","117","444971","0.0-117.0","44CF16D8EA6C4ADCAECDF2736019767D","bd3e6f5d-9886-4b71-ae3c-44dd6f7f6f88","58046770-4c03-4bc2-b4bc-e7359011db5d","","24199","","{""Q0"":"" FEMALE"",""Q1"":""35""}",""
"","","","","","instructions","118","455800","0.0-118.0","44CF16D8EA6C4ADCAECDF2736019767D","bd3e6f5d-9886-4b71-ae3c-44dd6f7f6f88","58046770-4c03-4bc2-b4bc-e7359011db5d","[{""page_index"":0,""viewing_time"":10827}]","10828","","",""
