"success","timeout","failed_images","failed_audio","failed_video","trial_type","trial_index","time_elapsed","internal_node_id","subject_id","study_id","session_id","view_history","rt","stimulus","response","choice"
"true","false","[]","[]","[]","preload","0","954","0.0-0.0","A699A5BD5CAF498BB628DCFC0E454DED","9176ea99-57d0-452d-a66c-0177e49e213c","60874837-17fe-43d8-ba5e-75a805c652dd","","","","",""
"","","","","","instructions","1","7449","0.0-1.0","A699A5BD5CAF498BB628DCFC0E454DED","9176ea99-57d0-452d-a66c-0177e49e213c","60874837-17fe-43d8-ba5e-75a805c652dd","[{""page_index"":0,""viewing_time"":6494}]","6494","","",""
"","","","","","instructions","2","10070","0.0-2.0","A699A5BD5CAF498BB628DCFC0E454DED","9176ea99-57d0-452d-a66c-0177e49e213c","60874837-17fe-43d8-ba5e-75a805c652dd","[{""page_index"":0,""viewing_time"":2621}]","2621","","",""
"true","","","","","fullscreen","3","12101","0.0-3.0","A699A5BD5CAF498BB628DCFC0E454DED","9176ea99-57d0-452d-a66c-0177e49e213c","60874837-17fe-43d8-ba5e-75a805c652dd","","1028","","",""
"","","","","","instructions","4","19787","0.0-4.0","A699A5BD5CAF498BB628DCFC0E454DED","9176ea99-57d0-452d-a66c-0177e49e213c","60874837-17fe-43d8-ba5e-75a805c652dd","[{""page_index"":0,""viewing_time"":7686}]","7686","","",""
"","","","","","html-keyboard-response","5","22791","0.0-5.0","A699A5BD5CAF498BB628DCFC0E454DED","9176ea99-57d0-452d-a66c-0177e49e213c","60874837-17fe-43d8-ba5e-75a805c652dd","","null","<div style=""display: flex; justify-content: center; align-items: center;"">
                <img src=""images/causal/causal_series_7/causal_series_7_a.jpg"" style=""width: 300px; height: 300px;"" />
              </div>","null",""
"","","","","","html-keyboard-response","6","25794","0.0-6.0","A699A5BD5CAF498BB628DCFC0E454DED","9176ea99-57d0-452d-a66c-0177e49e213c","60874837-17fe-43d8-ba5e-75a805c652dd","","null","<div style=""display: flex; justify-content: center; align-items: center;"">
                <img src=""images/causal/causal_series_7/causal_series_7_b.jpg"" style=""width: 300px; height: 300px;"" />
              </div>","null",""
"","","","","","html-keyboard-response","7","28799","0.0-7.0","A699A5BD5CAF498BB628DCFC0E454DED","9176ea99-57d0-452d-a66c-0177e49e213c","60874837-17fe-43d8-ba5e-75a805c652dd","","null","<div style=""display: flex; justify-content: center; align-items: center;"">
                <img src=""images/causal/causal_series_7/causal_series_7_c.jpg"" style=""width: 300px; height: 300px;"" />
              </div>","null",""
"","","","","","html-button-response","8","30952","0.0-8.0","A699A5BD5CAF498BB628DCFC0E454DED","9176ea99-57d0-452d-a66c-0177e49e213c","60874837-17fe-43d8-ba5e-75a805c652dd","","2149","
    <div style=""display: flex; justify-content: center; align-items: center;"">
      <img src=""images/red_deck_2.png"" style=""width: 300px; height: 300px; margin-right: 10px;"" />
      <img src=""images/blue_deck_1.png"" style=""width: 300px; height: 300px;"" />
    </div>","1","1"
"","","","","","html-keyboard-response","9","33955","0.0-9.0-1.0-0.0","A699A5BD5CAF498BB628DCFC0E454DED","9176ea99-57d0-452d-a66c-0177e49e213c","60874837-17fe-43d8-ba5e-75a805c652dd","","null","<div style=""display: flex; justify-content: center; align-items: center;"">
                <img src=""images/semantic/semantic_series_6/semantic_series_6_d.jpg"" style=""width: 300px; height: 300px;"" />
              </div>","null",""
"","","","","","html-keyboard-response","10","36958","0.0-10.0","A699A5BD5CAF498BB628DCFC0E454DED","9176ea99-57d0-452d-a66c-0177e49e213c","60874837-17fe-43d8-ba5e-75a805c652dd","","null","<div style=""display: flex; justify-content: center; align-items: center;"">
                <img src=""images/other/blank.jpg"" style=""width: 300px; height: 300px;"" />
              </div>","null",""
"","","","","","html-keyboard-response","11","39962","0.0-11.0","A699A5BD5CAF498BB628DCFC0E454DED","9176ea99-57d0-452d-a66c-0177e49e213c","60874837-17fe-43d8-ba5e-75a805c652dd","","null","<div style=""display: flex; justify-content: center; align-items: center;"">
                <img src=""images/causal/causal_series_13/causal_series_13_a.jpg"" style=""width: 300px; height: 300px;"" />
              </div>","null",""
"","","","","","html-keyboard-response","12","42966","0.0-12.0","A699A5BD5CAF498BB628DCFC0E454DED","9176ea99-57d0-452d-a66c-0177e49e213c","60874837-17fe-43d8-ba5e-75a805c652dd","","null","<div style=""display: flex; justify-content: center; align-items: center;"">
                <img src=""images/causal/causal_series_13/causal_series_13_b.jpg"" style=""width: 300px; height: 300px;"" />
              </div>","null",""
"","","","","","html-keyboard-response","13","45969","0.0-13.0","A699A5BD5CAF498BB628DCFC0E454DED","9176ea99-57d0-452d-a66c-0177e49e213c","60874837-17fe-43d8-ba5e-75a805c652dd","","null","<div style=""display: flex; justify-content: center; align-items: center;"">
                <img src=""images/causal/causal_series_13/causal_series_13_c.jpg"" style=""width: 300px; height: 300px;"" />
              </div>","null",""
"","","","","","html-button-response","14","46666","0.0-14.0","A699A5BD5CAF498BB628DCFC0E454DED","9176ea99-57d0-452d-a66c-0177e49e213c","60874837-17fe-43d8-ba5e-75a805c652dd","","695","
    <div style=""display: flex; justify-content: center; align-items: center;"">
      <img src=""images/red_deck_2.png"" style=""width: 300px; height: 300px; margin-right: 10px;"" />
      <img src=""images/blue_deck_1.png"" style=""width: 300px; height: 300px;"" />
    </div>","0","0"
"","","","","","html-keyboard-response","15","49668","0.0-15.0-0.0-0.0","A699A5BD5CAF498BB628DCFC0E454DED","9176ea99-57d0-452d-a66c-0177e49e213c","60874837-17fe-43d8-ba5e-75a805c652dd","","null","<div style=""display: flex; justify-content: center; align-items: center;"">
                <img src=""images/causal/causal_series_13/causal_series_13_d.jpg"" style=""width: 300px; height: 300px;"" />
              </div>","null",""
"","","","","","html-keyboard-response","16","52672","0.0-16.0","A699A5BD5CAF498BB628DCFC0E454DED","9176ea99-57d0-452d-a66c-0177e49e213c","60874837-17fe-43d8-ba5e-75a805c652dd","","null","<div style=""display: flex; justify-content: center; align-items: center;"">
                <img src=""images/other/blank.jpg"" style=""width: 300px; height: 300px;"" />
              </div>","null",""
"","","","","","html-keyboard-response","17","55676","0.0-17.0","A699A5BD5CAF498BB628DCFC0E454DED","9176ea99-57d0-452d-a66c-0177e49e213c","60874837-17fe-43d8-ba5e-75a805c652dd","","null","<div style=""display: flex; justify-content: center; align-items: center;"">
                <img src=""images/causal/causal_series_16/causal_series_16_a.jpg"" style=""width: 300px; height: 300px;"" />
              </div>","null",""
"","","","","","html-keyboard-response","18","58679","0.0-18.0","A699A5BD5CAF498BB628DCFC0E454DED","9176ea99-57d0-452d-a66c-0177e49e213c","60874837-17fe-43d8-ba5e-75a805c652dd","","null","<div style=""display: flex; justify-content: center; align-items: center;"">
                <img src=""images/causal/causal_series_16/causal_series_16_b.jpg"" style=""width: 300px; height: 300px;"" />
              </div>","null",""
"","","","","","html-keyboard-response","19","61683","0.0-19.0","A699A5BD5CAF498BB628DCFC0E454DED","9176ea99-57d0-452d-a66c-0177e49e213c","60874837-17fe-43d8-ba5e-75a805c652dd","","null","<div style=""display: flex; justify-content: center; align-items: center;"">
                <img src=""images/causal/causal_series_16/causal_series_16_c.jpg"" style=""width: 300px; height: 300px;"" />
              </div>","null",""
"","","","","","html-button-response","20","62199","0.0-20.0","A699A5BD5CAF498BB628DCFC0E454DED","9176ea99-57d0-452d-a66c-0177e49e213c","60874837-17fe-43d8-ba5e-75a805c652dd","","516","
    <div style=""display: flex; justify-content: center; align-items: center;"">
      <img src=""images/red_deck_2.png"" style=""width: 300px; height: 300px; margin-right: 10px;"" />
      <img src=""images/blue_deck_1.png"" style=""width: 300px; height: 300px;"" />
    </div>","0","0"
"","","","","","html-keyboard-response","21","65202","0.0-21.0-0.0-0.0","A699A5BD5CAF498BB628DCFC0E454DED","9176ea99-57d0-452d-a66c-0177e49e213c","60874837-17fe-43d8-ba5e-75a805c652dd","","null","<div style=""display: flex; justify-content: center; align-items: center;"">
                <img src=""images/causal/causal_series_16/causal_series_16_d.jpg"" style=""width: 300px; height: 300px;"" />
              </div>","null",""
"","","","","","html-keyboard-response","22","68206","0.0-22.0","A699A5BD5CAF498BB628DCFC0E454DED","9176ea99-57d0-452d-a66c-0177e49e213c","60874837-17fe-43d8-ba5e-75a805c652dd","","null","<div style=""display: flex; justify-content: center; align-items: center;"">
                <img src=""images/other/blank.jpg"" style=""width: 300px; height: 300px;"" />
              </div>","null",""
"","","","","","html-keyboard-response","23","71210","0.0-23.0","A699A5BD5CAF498BB628DCFC0E454DED","9176ea99-57d0-452d-a66c-0177e49e213c","60874837-17fe-43d8-ba5e-75a805c652dd","","null","<div style=""display: flex; justify-content: center; align-items: center;"">
                <img src=""images/causal/causal_series_5/causal_series_5_a.jpg"" style=""width: 300px; height: 300px;"" />
              </div>","null",""
"","","","","","html-keyboard-response","24","74213","0.0-24.0","A699A5BD5CAF498BB628DCFC0E454DED","9176ea99-57d0-452d-a66c-0177e49e213c","60874837-17fe-43d8-ba5e-75a805c652dd","","null","<div style=""display: flex; justify-content: center; align-items: center;"">
                <img src=""images/causal/causal_series_5/causal_series_5_b.jpg"" style=""width: 300px; height: 300px;"" />
              </div>","null",""
"","","","","","html-keyboard-response","25","77217","0.0-25.0","A699A5BD5CAF498BB628DCFC0E454DED","9176ea99-57d0-452d-a66c-0177e49e213c","60874837-17fe-43d8-ba5e-75a805c652dd","","null","<div style=""display: flex; justify-content: center; align-items: center;"">
                <img src=""images/causal/causal_series_5/causal_series_5_c.jpg"" style=""width: 300px; height: 300px;"" />
              </div>","null",""
"","","","","","html-button-response","26","78090","0.0-26.0","A699A5BD5CAF498BB628DCFC0E454DED","9176ea99-57d0-452d-a66c-0177e49e213c","60874837-17fe-43d8-ba5e-75a805c652dd","","871","
    <div style=""display: flex; justify-content: center; align-items: center;"">
      <img src=""images/red_deck_2.png"" style=""width: 300px; height: 300px; margin-right: 10px;"" />
      <img src=""images/blue_deck_1.png"" style=""width: 300px; height: 300px;"" />
    </div>","1","1"
"","","","","","html-keyboard-response","27","81093","0.0-27.0-1.0-0.0","A699A5BD5CAF498BB628DCFC0E454DED","9176ea99-57d0-452d-a66c-0177e49e213c","60874837-17fe-43d8-ba5e-75a805c652dd","","null","<div style=""display: flex; justify-content: center; align-items: center;"">
                <img src=""images/semantic/semantic_series_4/semantic_series_4_d.jpg"" style=""width: 300px; height: 300px;"" />
              </div>","null",""
"","","","","","html-keyboard-response","28","84095","0.0-28.0","A699A5BD5CAF498BB628DCFC0E454DED","9176ea99-57d0-452d-a66c-0177e49e213c","60874837-17fe-43d8-ba5e-75a805c652dd","","null","<div style=""display: flex; justify-content: center; align-items: center;"">
                <img src=""images/other/blank.jpg"" style=""width: 300px; height: 300px;"" />
              </div>","null",""
"","","","","","html-keyboard-response","29","87099","0.0-29.0","A699A5BD5CAF498BB628DCFC0E454DED","9176ea99-57d0-452d-a66c-0177e49e213c","60874837-17fe-43d8-ba5e-75a805c652dd","","null","<div style=""display: flex; justify-content: center; align-items: center;"">
                <img src=""images/causal/causal_series_3/causal_series_3_a.jpg"" style=""width: 300px; height: 300px;"" />
              </div>","null",""
"","","","","","html-keyboard-response","30","90103","0.0-30.0","A699A5BD5CAF498BB628DCFC0E454DED","9176ea99-57d0-452d-a66c-0177e49e213c","60874837-17fe-43d8-ba5e-75a805c652dd","","null","<div style=""display: flex; justify-content: center; align-items: center;"">
                <img src=""images/causal/causal_series_3/causal_series_3_b.jpg"" style=""width: 300px; height: 300px;"" />
              </div>","null",""
"","","","","","html-keyboard-response","31","93106","0.0-31.0","A699A5BD5CAF498BB628DCFC0E454DED","9176ea99-57d0-452d-a66c-0177e49e213c","60874837-17fe-43d8-ba5e-75a805c652dd","","null","<div style=""display: flex; justify-content: center; align-items: center;"">
                <img src=""images/causal/causal_series_3/causal_series_3_c.jpg"" style=""width: 300px; height: 300px;"" />
              </div>","null",""
"","","","","","html-button-response","32","94150","0.0-32.0","A699A5BD5CAF498BB628DCFC0E454DED","9176ea99-57d0-452d-a66c-0177e49e213c","60874837-17fe-43d8-ba5e-75a805c652dd","","1042","
    <div style=""display: flex; justify-content: center; align-items: center;"">
      <img src=""images/red_deck_2.png"" style=""width: 300px; height: 300px; margin-right: 10px;"" />
      <img src=""images/blue_deck_1.png"" style=""width: 300px; height: 300px;"" />
    </div>","1","1"
"","","","","","html-keyboard-response","33","97153","0.0-33.0-1.0-0.0","A699A5BD5CAF498BB628DCFC0E454DED","9176ea99-57d0-452d-a66c-0177e49e213c","60874837-17fe-43d8-ba5e-75a805c652dd","","null","<div style=""display: flex; justify-content: center; align-items: center;"">
                <img src=""images/semantic/semantic_series_2/semantic_series_2_d.jpg"" style=""width: 300px; height: 300px;"" />
              </div>","null",""
"","","","","","html-keyboard-response","34","100157","0.0-34.0","A699A5BD5CAF498BB628DCFC0E454DED","9176ea99-57d0-452d-a66c-0177e49e213c","60874837-17fe-43d8-ba5e-75a805c652dd","","null","<div style=""display: flex; justify-content: center; align-items: center;"">
                <img src=""images/other/blank.jpg"" style=""width: 300px; height: 300px;"" />
              </div>","null",""
"","","","","","html-keyboard-response","35","103159","0.0-35.0","A699A5BD5CAF498BB628DCFC0E454DED","9176ea99-57d0-452d-a66c-0177e49e213c","60874837-17fe-43d8-ba5e-75a805c652dd","","null","<div style=""display: flex; justify-content: center; align-items: center;"">
                <img src=""images/causal/causal_series_8/causal_series_8_a.jpg"" style=""width: 300px; height: 300px;"" />
              </div>","null",""
"","","","","","html-keyboard-response","36","106163","0.0-36.0","A699A5BD5CAF498BB628DCFC0E454DED","9176ea99-57d0-452d-a66c-0177e49e213c","60874837-17fe-43d8-ba5e-75a805c652dd","","null","<div style=""display: flex; justify-content: center; align-items: center;"">
                <img src=""images/causal/causal_series_8/causal_series_8_b.jpg"" style=""width: 300px; height: 300px;"" />
              </div>","null",""
"","","","","","html-keyboard-response","37","109167","0.0-37.0","A699A5BD5CAF498BB628DCFC0E454DED","9176ea99-57d0-452d-a66c-0177e49e213c","60874837-17fe-43d8-ba5e-75a805c652dd","","null","<div style=""display: flex; justify-content: center; align-items: center;"">
                <img src=""images/causal/causal_series_8/causal_series_8_c.jpg"" style=""width: 300px; height: 300px;"" />
              </div>","null",""
"","","","","","html-button-response","38","110336","0.0-38.0","A699A5BD5CAF498BB628DCFC0E454DED","9176ea99-57d0-452d-a66c-0177e49e213c","60874837-17fe-43d8-ba5e-75a805c652dd","","1166","
    <div style=""display: flex; justify-content: center; align-items: center;"">
      <img src=""images/red_deck_2.png"" style=""width: 300px; height: 300px; margin-right: 10px;"" />
      <img src=""images/blue_deck_1.png"" style=""width: 300px; height: 300px;"" />
    </div>","0","0"
"","","","","","html-keyboard-response","39","113338","0.0-39.0-0.0-0.0","A699A5BD5CAF498BB628DCFC0E454DED","9176ea99-57d0-452d-a66c-0177e49e213c","60874837-17fe-43d8-ba5e-75a805c652dd","","null","<div style=""display: flex; justify-content: center; align-items: center;"">
                <img src=""images/causal/causal_series_8/causal_series_8_d.jpg"" style=""width: 300px; height: 300px;"" />
              </div>","null",""
"","","","","","html-keyboard-response","40","116341","0.0-40.0","A699A5BD5CAF498BB628DCFC0E454DED","9176ea99-57d0-452d-a66c-0177e49e213c","60874837-17fe-43d8-ba5e-75a805c652dd","","null","<div style=""display: flex; justify-content: center; align-items: center;"">
                <img src=""images/other/blank.jpg"" style=""width: 300px; height: 300px;"" />
              </div>","null",""
"","","","","","html-keyboard-response","41","119344","0.0-41.0","A699A5BD5CAF498BB628DCFC0E454DED","9176ea99-57d0-452d-a66c-0177e49e213c","60874837-17fe-43d8-ba5e-75a805c652dd","","null","<div style=""display: flex; justify-content: center; align-items: center;"">
                <img src=""images/causal/causal_series_18/causal_series_18_a.jpg"" style=""width: 300px; height: 300px;"" />
              </div>","null",""
"","","","","","html-keyboard-response","42","122348","0.0-42.0","A699A5BD5CAF498BB628DCFC0E454DED","9176ea99-57d0-452d-a66c-0177e49e213c","60874837-17fe-43d8-ba5e-75a805c652dd","","null","<div style=""display: flex; justify-content: center; align-items: center;"">
                <img src=""images/causal/causal_series_18/causal_series_18_b.jpg"" style=""width: 300px; height: 300px;"" />
              </div>","null",""
"","","","","","html-keyboard-response","43","125351","0.0-43.0","A699A5BD5CAF498BB628DCFC0E454DED","9176ea99-57d0-452d-a66c-0177e49e213c","60874837-17fe-43d8-ba5e-75a805c652dd","","null","<div style=""display: flex; justify-content: center; align-items: center;"">
                <img src=""images/causal/causal_series_18/causal_series_18_c.jpg"" style=""width: 300px; height: 300px;"" />
              </div>","null",""
"","","","","","html-button-response","44","128051","0.0-44.0","A699A5BD5CAF498BB628DCFC0E454DED","9176ea99-57d0-452d-a66c-0177e49e213c","60874837-17fe-43d8-ba5e-75a805c652dd","","2699","
    <div style=""display: flex; justify-content: center; align-items: center;"">
      <img src=""images/red_deck_2.png"" style=""width: 300px; height: 300px; margin-right: 10px;"" />
      <img src=""images/blue_deck_1.png"" style=""width: 300px; height: 300px;"" />
    </div>","1","1"
"","","","","","html-keyboard-response","45","131053","0.0-45.0-1.0-0.0","A699A5BD5CAF498BB628DCFC0E454DED","9176ea99-57d0-452d-a66c-0177e49e213c","60874837-17fe-43d8-ba5e-75a805c652dd","","null","<div style=""display: flex; justify-content: center; align-items: center;"">
                <img src=""images/semantic/semantic_series_17/semantic_series_17_d.jpg"" style=""width: 300px; height: 300px;"" />
              </div>","null",""
"","","","","","html-keyboard-response","46","134055","0.0-46.0","A699A5BD5CAF498BB628DCFC0E454DED","9176ea99-57d0-452d-a66c-0177e49e213c","60874837-17fe-43d8-ba5e-75a805c652dd","","null","<div style=""display: flex; justify-content: center; align-items: center;"">
                <img src=""images/other/blank.jpg"" style=""width: 300px; height: 300px;"" />
              </div>","null",""
"","","","","","html-keyboard-response","47","137059","0.0-47.0","A699A5BD5CAF498BB628DCFC0E454DED","9176ea99-57d0-452d-a66c-0177e49e213c","60874837-17fe-43d8-ba5e-75a805c652dd","","null","<div style=""display: flex; justify-content: center; align-items: center;"">
                <img src=""images/causal/causal_series_11/causal_series_11_a.jpg"" style=""width: 300px; height: 300px;"" />
              </div>","null",""
"","","","","","html-keyboard-response","48","140063","0.0-48.0","A699A5BD5CAF498BB628DCFC0E454DED","9176ea99-57d0-452d-a66c-0177e49e213c","60874837-17fe-43d8-ba5e-75a805c652dd","","null","<div style=""display: flex; justify-content: center; align-items: center;"">
                <img src=""images/causal/causal_series_11/causal_series_11_b.jpg"" style=""width: 300px; height: 300px;"" />
              </div>","null",""
"","","","","","html-keyboard-response","49","143065","0.0-49.0","A699A5BD5CAF498BB628DCFC0E454DED","9176ea99-57d0-452d-a66c-0177e49e213c","60874837-17fe-43d8-ba5e-75a805c652dd","","null","<div style=""display: flex; justify-content: center; align-items: center;"">
                <img src=""images/causal/causal_series_11/causal_series_11_c.jpg"" style=""width: 300px; height: 300px;"" />
              </div>","null",""
"","","","","","html-button-response","50","143798","0.0-50.0","A699A5BD5CAF498BB628DCFC0E454DED","9176ea99-57d0-452d-a66c-0177e49e213c","60874837-17fe-43d8-ba5e-75a805c652dd","","732","
    <div style=""display: flex; justify-content: center; align-items: center;"">
      <img src=""images/red_deck_2.png"" style=""width: 300px; height: 300px; margin-right: 10px;"" />
      <img src=""images/blue_deck_1.png"" style=""width: 300px; height: 300px;"" />
    </div>","0","0"
"","","","","","html-keyboard-response","51","146800","0.0-51.0-0.0-0.0","A699A5BD5CAF498BB628DCFC0E454DED","9176ea99-57d0-452d-a66c-0177e49e213c","60874837-17fe-43d8-ba5e-75a805c652dd","","null","<div style=""display: flex; justify-content: center; align-items: center;"">
                <img src=""images/causal/causal_series_11/causal_series_11_d.jpg"" style=""width: 300px; height: 300px;"" />
              </div>","null",""
"","","","","","html-keyboard-response","52","149802","0.0-52.0","A699A5BD5CAF498BB628DCFC0E454DED","9176ea99-57d0-452d-a66c-0177e49e213c","60874837-17fe-43d8-ba5e-75a805c652dd","","null","<div style=""display: flex; justify-content: center; align-items: center;"">
                <img src=""images/other/blank.jpg"" style=""width: 300px; height: 300px;"" />
              </div>","null",""
"","","","","","html-keyboard-response","53","152806","0.0-53.0","A699A5BD5CAF498BB628DCFC0E454DED","9176ea99-57d0-452d-a66c-0177e49e213c","60874837-17fe-43d8-ba5e-75a805c652dd","","null","<div style=""display: flex; justify-content: center; align-items: center;"">
                <img src=""images/causal/causal_series_9/causal_series_9_a.jpg"" style=""width: 300px; height: 300px;"" />
              </div>","null",""
"","","","","","html-keyboard-response","54","155809","0.0-54.0","A699A5BD5CAF498BB628DCFC0E454DED","9176ea99-57d0-452d-a66c-0177e49e213c","60874837-17fe-43d8-ba5e-75a805c652dd","","null","<div style=""display: flex; justify-content: center; align-items: center;"">
                <img src=""images/causal/causal_series_9/causal_series_9_b.jpg"" style=""width: 300px; height: 300px;"" />
              </div>","null",""
"","","","","","html-keyboard-response","55","158811","0.0-55.0","A699A5BD5CAF498BB628DCFC0E454DED","9176ea99-57d0-452d-a66c-0177e49e213c","60874837-17fe-43d8-ba5e-75a805c652dd","","null","<div style=""display: flex; justify-content: center; align-items: center;"">
                <img src=""images/causal/causal_series_9/causal_series_9_c.jpg"" style=""width: 300px; height: 300px;"" />
              </div>","null",""
"","","","","","html-button-response","56","159658","0.0-56.0","A699A5BD5CAF498BB628DCFC0E454DED","9176ea99-57d0-452d-a66c-0177e49e213c","60874837-17fe-43d8-ba5e-75a805c652dd","","845","
    <div style=""display: flex; justify-content: center; align-items: center;"">
      <img src=""images/red_deck_2.png"" style=""width: 300px; height: 300px; margin-right: 10px;"" />
      <img src=""images/blue_deck_1.png"" style=""width: 300px; height: 300px;"" />
    </div>","1","1"
"","","","","","html-keyboard-response","57","162660","0.0-57.0-1.0-0.0","A699A5BD5CAF498BB628DCFC0E454DED","9176ea99-57d0-452d-a66c-0177e49e213c","60874837-17fe-43d8-ba5e-75a805c652dd","","null","<div style=""display: flex; justify-content: center; align-items: center;"">
                <img src=""images/semantic/semantic_series_8/semantic_series_8_d.jpg"" style=""width: 300px; height: 300px;"" />
              </div>","null",""
"","","","","","html-keyboard-response","58","165663","0.0-58.0","A699A5BD5CAF498BB628DCFC0E454DED","9176ea99-57d0-452d-a66c-0177e49e213c","60874837-17fe-43d8-ba5e-75a805c652dd","","null","<div style=""display: flex; justify-content: center; align-items: center;"">
                <img src=""images/other/blank.jpg"" style=""width: 300px; height: 300px;"" />
              </div>","null",""
"","","","","","html-keyboard-response","59","168664","0.0-59.0","A699A5BD5CAF498BB628DCFC0E454DED","9176ea99-57d0-452d-a66c-0177e49e213c","60874837-17fe-43d8-ba5e-75a805c652dd","","null","<div style=""display: flex; justify-content: center; align-items: center;"">
                <img src=""images/causal/causal_series_12/causal_series_12_a.jpg"" style=""width: 300px; height: 300px;"" />
              </div>","null",""
"","","","","","html-keyboard-response","60","171667","0.0-60.0","A699A5BD5CAF498BB628DCFC0E454DED","9176ea99-57d0-452d-a66c-0177e49e213c","60874837-17fe-43d8-ba5e-75a805c652dd","","null","<div style=""display: flex; justify-content: center; align-items: center;"">
                <img src=""images/causal/causal_series_12/causal_series_12_b.jpg"" style=""width: 300px; height: 300px;"" />
              </div>","null",""
"","","","","","html-keyboard-response","61","174670","0.0-61.0","A699A5BD5CAF498BB628DCFC0E454DED","9176ea99-57d0-452d-a66c-0177e49e213c","60874837-17fe-43d8-ba5e-75a805c652dd","","null","<div style=""display: flex; justify-content: center; align-items: center;"">
                <img src=""images/causal/causal_series_12/causal_series_12_c.jpg"" style=""width: 300px; height: 300px;"" />
              </div>","null",""
"","","","","","html-button-response","62","175379","0.0-62.0","A699A5BD5CAF498BB628DCFC0E454DED","9176ea99-57d0-452d-a66c-0177e49e213c","60874837-17fe-43d8-ba5e-75a805c652dd","","708","
    <div style=""display: flex; justify-content: center; align-items: center;"">
      <img src=""images/red_deck_2.png"" style=""width: 300px; height: 300px; margin-right: 10px;"" />
      <img src=""images/blue_deck_1.png"" style=""width: 300px; height: 300px;"" />
    </div>","1","1"
"","","","","","html-keyboard-response","63","178382","0.0-63.0-1.0-0.0","A699A5BD5CAF498BB628DCFC0E454DED","9176ea99-57d0-452d-a66c-0177e49e213c","60874837-17fe-43d8-ba5e-75a805c652dd","","null","<div style=""display: flex; justify-content: center; align-items: center;"">
                <img src=""images/semantic/semantic_series_11/semantic_series_11_d.jpg"" style=""width: 300px; height: 300px;"" />
              </div>","null",""
"","","","","","html-keyboard-response","64","181385","0.0-64.0","A699A5BD5CAF498BB628DCFC0E454DED","9176ea99-57d0-452d-a66c-0177e49e213c","60874837-17fe-43d8-ba5e-75a805c652dd","","null","<div style=""display: flex; justify-content: center; align-items: center;"">
                <img src=""images/other/blank.jpg"" style=""width: 300px; height: 300px;"" />
              </div>","null",""
"","","","","","html-keyboard-response","65","184389","0.0-65.0","A699A5BD5CAF498BB628DCFC0E454DED","9176ea99-57d0-452d-a66c-0177e49e213c","60874837-17fe-43d8-ba5e-75a805c652dd","","null","<div style=""display: flex; justify-content: center; align-items: center;"">
                <img src=""images/causal/causal_series_15/causal_series_15_a.jpg"" style=""width: 300px; height: 300px;"" />
              </div>","null",""
"","","","","","html-keyboard-response","66","187392","0.0-66.0","A699A5BD5CAF498BB628DCFC0E454DED","9176ea99-57d0-452d-a66c-0177e49e213c","60874837-17fe-43d8-ba5e-75a805c652dd","","null","<div style=""display: flex; justify-content: center; align-items: center;"">
                <img src=""images/causal/causal_series_15/causal_series_15_b.jpg"" style=""width: 300px; height: 300px;"" />
              </div>","null",""
"","","","","","html-keyboard-response","67","190395","0.0-67.0","A699A5BD5CAF498BB628DCFC0E454DED","9176ea99-57d0-452d-a66c-0177e49e213c","60874837-17fe-43d8-ba5e-75a805c652dd","","null","<div style=""display: flex; justify-content: center; align-items: center;"">
                <img src=""images/causal/causal_series_15/causal_series_15_c.jpg"" style=""width: 300px; height: 300px;"" />
              </div>","null",""
"","","","","","html-button-response","68","191437","0.0-68.0","A699A5BD5CAF498BB628DCFC0E454DED","9176ea99-57d0-452d-a66c-0177e49e213c","60874837-17fe-43d8-ba5e-75a805c652dd","","1040","
    <div style=""display: flex; justify-content: center; align-items: center;"">
      <img src=""images/red_deck_2.png"" style=""width: 300px; height: 300px; margin-right: 10px;"" />
      <img src=""images/blue_deck_1.png"" style=""width: 300px; height: 300px;"" />
    </div>","0","0"
"","","","","","html-keyboard-response","69","194440","0.0-69.0-0.0-0.0","A699A5BD5CAF498BB628DCFC0E454DED","9176ea99-57d0-452d-a66c-0177e49e213c","60874837-17fe-43d8-ba5e-75a805c652dd","","null","<div style=""display: flex; justify-content: center; align-items: center;"">
                <img src=""images/causal/causal_series_15/causal_series_15_d.jpg"" style=""width: 300px; height: 300px;"" />
              </div>","null",""
"","","","","","html-keyboard-response","70","197443","0.0-70.0","A699A5BD5CAF498BB628DCFC0E454DED","9176ea99-57d0-452d-a66c-0177e49e213c","60874837-17fe-43d8-ba5e-75a805c652dd","","null","<div style=""display: flex; justify-content: center; align-items: center;"">
                <img src=""images/other/blank.jpg"" style=""width: 300px; height: 300px;"" />
              </div>","null",""
"","","","","","html-keyboard-response","71","200446","0.0-71.0","A699A5BD5CAF498BB628DCFC0E454DED","9176ea99-57d0-452d-a66c-0177e49e213c","60874837-17fe-43d8-ba5e-75a805c652dd","","null","<div style=""display: flex; justify-content: center; align-items: center;"">
                <img src=""images/causal/causal_series_14/causal_series_14_a.jpg"" style=""width: 300px; height: 300px;"" />
              </div>","null",""
"","","","","","html-keyboard-response","72","203449","0.0-72.0","A699A5BD5CAF498BB628DCFC0E454DED","9176ea99-57d0-452d-a66c-0177e49e213c","60874837-17fe-43d8-ba5e-75a805c652dd","","null","<div style=""display: flex; justify-content: center; align-items: center;"">
                <img src=""images/causal/causal_series_14/causal_series_14_b.jpg"" style=""width: 300px; height: 300px;"" />
              </div>","null",""
"","","","","","html-keyboard-response","73","206453","0.0-73.0","A699A5BD5CAF498BB628DCFC0E454DED","9176ea99-57d0-452d-a66c-0177e49e213c","60874837-17fe-43d8-ba5e-75a805c652dd","","null","<div style=""display: flex; justify-content: center; align-items: center;"">
                <img src=""images/causal/causal_series_14/causal_series_14_c.jpg"" style=""width: 300px; height: 300px;"" />
              </div>","null",""
"","","","","","html-button-response","74","208392","0.0-74.0","A699A5BD5CAF498BB628DCFC0E454DED","9176ea99-57d0-452d-a66c-0177e49e213c","60874837-17fe-43d8-ba5e-75a805c652dd","","1937","
    <div style=""display: flex; justify-content: center; align-items: center;"">
      <img src=""images/red_deck_2.png"" style=""width: 300px; height: 300px; margin-right: 10px;"" />
      <img src=""images/blue_deck_1.png"" style=""width: 300px; height: 300px;"" />
    </div>","0","0"
"","","","","","html-keyboard-response","75","211394","0.0-75.0-0.0-0.0","A699A5BD5CAF498BB628DCFC0E454DED","9176ea99-57d0-452d-a66c-0177e49e213c","60874837-17fe-43d8-ba5e-75a805c652dd","","null","<div style=""display: flex; justify-content: center; align-items: center;"">
                <img src=""images/causal/causal_series_14/causal_series_14_d.jpg"" style=""width: 300px; height: 300px;"" />
              </div>","null",""
"","","","","","html-keyboard-response","76","214398","0.0-76.0","A699A5BD5CAF498BB628DCFC0E454DED","9176ea99-57d0-452d-a66c-0177e49e213c","60874837-17fe-43d8-ba5e-75a805c652dd","","null","<div style=""display: flex; justify-content: center; align-items: center;"">
                <img src=""images/other/blank.jpg"" style=""width: 300px; height: 300px;"" />
              </div>","null",""
"","","","","","html-keyboard-response","77","217402","0.0-77.0","A699A5BD5CAF498BB628DCFC0E454DED","9176ea99-57d0-452d-a66c-0177e49e213c","60874837-17fe-43d8-ba5e-75a805c652dd","","null","<div style=""display: flex; justify-content: center; align-items: center;"">
                <img src=""images/causal/causal_series_4/causal_series_4_a.jpg"" style=""width: 300px; height: 300px;"" />
              </div>","null",""
"","","","","","html-keyboard-response","78","220406","0.0-78.0","A699A5BD5CAF498BB628DCFC0E454DED","9176ea99-57d0-452d-a66c-0177e49e213c","60874837-17fe-43d8-ba5e-75a805c652dd","","null","<div style=""display: flex; justify-content: center; align-items: center;"">
                <img src=""images/causal/causal_series_4/causal_series_4_b.jpg"" style=""width: 300px; height: 300px;"" />
              </div>","null",""
"","","","","","html-keyboard-response","79","223409","0.0-79.0","A699A5BD5CAF498BB628DCFC0E454DED","9176ea99-57d0-452d-a66c-0177e49e213c","60874837-17fe-43d8-ba5e-75a805c652dd","","null","<div style=""display: flex; justify-content: center; align-items: center;"">
                <img src=""images/causal/causal_series_4/causal_series_4_c.jpg"" style=""width: 300px; height: 300px;"" />
              </div>","null",""
"","","","","","html-button-response","80","224377","0.0-80.0","A699A5BD5CAF498BB628DCFC0E454DED","9176ea99-57d0-452d-a66c-0177e49e213c","60874837-17fe-43d8-ba5e-75a805c652dd","","965","
    <div style=""display: flex; justify-content: center; align-items: center;"">
      <img src=""images/red_deck_2.png"" style=""width: 300px; height: 300px; margin-right: 10px;"" />
      <img src=""images/blue_deck_1.png"" style=""width: 300px; height: 300px;"" />
    </div>","0","0"
"","","","","","html-keyboard-response","81","227379","0.0-81.0-0.0-0.0","A699A5BD5CAF498BB628DCFC0E454DED","9176ea99-57d0-452d-a66c-0177e49e213c","60874837-17fe-43d8-ba5e-75a805c652dd","","null","<div style=""display: flex; justify-content: center; align-items: center;"">
                <img src=""images/causal/causal_series_4/causal_series_4_d.jpg"" style=""width: 300px; height: 300px;"" />
              </div>","null",""
"","","","","","html-keyboard-response","82","230383","0.0-82.0","A699A5BD5CAF498BB628DCFC0E454DED","9176ea99-57d0-452d-a66c-0177e49e213c","60874837-17fe-43d8-ba5e-75a805c652dd","","null","<div style=""display: flex; justify-content: center; align-items: center;"">
                <img src=""images/other/blank.jpg"" style=""width: 300px; height: 300px;"" />
              </div>","null",""
"","","","","","html-keyboard-response","83","233385","0.0-83.0","A699A5BD5CAF498BB628DCFC0E454DED","9176ea99-57d0-452d-a66c-0177e49e213c","60874837-17fe-43d8-ba5e-75a805c652dd","","null","<div style=""display: flex; justify-content: center; align-items: center;"">
                <img src=""images/causal/causal_series_1/causal_series_1_a.jpg"" style=""width: 300px; height: 300px;"" />
              </div>","null",""
"","","","","","html-keyboard-response","84","236388","0.0-84.0","A699A5BD5CAF498BB628DCFC0E454DED","9176ea99-57d0-452d-a66c-0177e49e213c","60874837-17fe-43d8-ba5e-75a805c652dd","","null","<div style=""display: flex; justify-content: center; align-items: center;"">
                <img src=""images/causal/causal_series_1/causal_series_1_b.jpg"" style=""width: 300px; height: 300px;"" />
              </div>","null",""
"","","","","","html-keyboard-response","85","239390","0.0-85.0","A699A5BD5CAF498BB628DCFC0E454DED","9176ea99-57d0-452d-a66c-0177e49e213c","60874837-17fe-43d8-ba5e-75a805c652dd","","null","<div style=""display: flex; justify-content: center; align-items: center;"">
                <img src=""images/causal/causal_series_1/causal_series_1_c.jpg"" style=""width: 300px; height: 300px;"" />
              </div>","null",""
"","","","","","html-button-response","86","241262","0.0-86.0","A699A5BD5CAF498BB628DCFC0E454DED","9176ea99-57d0-452d-a66c-0177e49e213c","60874837-17fe-43d8-ba5e-75a805c652dd","","1870","
    <div style=""display: flex; justify-content: center; align-items: center;"">
      <img src=""images/red_deck_2.png"" style=""width: 300px; height: 300px; margin-right: 10px;"" />
      <img src=""images/blue_deck_1.png"" style=""width: 300px; height: 300px;"" />
    </div>","0","0"
"","","","","","html-keyboard-response","87","244265","0.0-87.0-0.0-0.0","A699A5BD5CAF498BB628DCFC0E454DED","9176ea99-57d0-452d-a66c-0177e49e213c","60874837-17fe-43d8-ba5e-75a805c652dd","","null","<div style=""display: flex; justify-content: center; align-items: center;"">
                <img src=""images/causal/causal_series_1/causal_series_1_d.jpg"" style=""width: 300px; height: 300px;"" />
              </div>","null",""
"","","","","","html-keyboard-response","88","247267","0.0-88.0","A699A5BD5CAF498BB628DCFC0E454DED","9176ea99-57d0-452d-a66c-0177e49e213c","60874837-17fe-43d8-ba5e-75a805c652dd","","null","<div style=""display: flex; justify-content: center; align-items: center;"">
                <img src=""images/other/blank.jpg"" style=""width: 300px; height: 300px;"" />
              </div>","null",""
"","","","","","html-keyboard-response","89","250271","0.0-89.0","A699A5BD5CAF498BB628DCFC0E454DED","9176ea99-57d0-452d-a66c-0177e49e213c","60874837-17fe-43d8-ba5e-75a805c652dd","","null","<div style=""display: flex; justify-content: center; align-items: center;"">
                <img src=""images/causal/causal_series_6/causal_series_6_a.jpg"" style=""width: 300px; height: 300px;"" />
              </div>","null",""
"","","","","","html-keyboard-response","90","253273","0.0-90.0","A699A5BD5CAF498BB628DCFC0E454DED","9176ea99-57d0-452d-a66c-0177e49e213c","60874837-17fe-43d8-ba5e-75a805c652dd","","null","<div style=""display: flex; justify-content: center; align-items: center;"">
                <img src=""images/causal/causal_series_6/causal_series_6_b.jpg"" style=""width: 300px; height: 300px;"" />
              </div>","null",""
"","","","","","html-keyboard-response","91","256276","0.0-91.0","A699A5BD5CAF498BB628DCFC0E454DED","9176ea99-57d0-452d-a66c-0177e49e213c","60874837-17fe-43d8-ba5e-75a805c652dd","","null","<div style=""display: flex; justify-content: center; align-items: center;"">
                <img src=""images/causal/causal_series_6/causal_series_6_c.jpg"" style=""width: 300px; height: 300px;"" />
              </div>","null",""
"","","","","","html-button-response","92","257211","0.0-92.0","A699A5BD5CAF498BB628DCFC0E454DED","9176ea99-57d0-452d-a66c-0177e49e213c","60874837-17fe-43d8-ba5e-75a805c652dd","","932","
    <div style=""display: flex; justify-content: center; align-items: center;"">
      <img src=""images/red_deck_2.png"" style=""width: 300px; height: 300px; margin-right: 10px;"" />
      <img src=""images/blue_deck_1.png"" style=""width: 300px; height: 300px;"" />
    </div>","1","1"
"","","","","","html-keyboard-response","93","260214","0.0-93.0-1.0-0.0","A699A5BD5CAF498BB628DCFC0E454DED","9176ea99-57d0-452d-a66c-0177e49e213c","60874837-17fe-43d8-ba5e-75a805c652dd","","null","<div style=""display: flex; justify-content: center; align-items: center;"">
                <img src=""images/semantic/semantic_series_5/semantic_series_5_d.jpg"" style=""width: 300px; height: 300px;"" />
              </div>","null",""
"","","","","","html-keyboard-response","94","263218","0.0-94.0","A699A5BD5CAF498BB628DCFC0E454DED","9176ea99-57d0-452d-a66c-0177e49e213c","60874837-17fe-43d8-ba5e-75a805c652dd","","null","<div style=""display: flex; justify-content: center; align-items: center;"">
                <img src=""images/other/blank.jpg"" style=""width: 300px; height: 300px;"" />
              </div>","null",""
"","","","","","html-keyboard-response","95","266220","0.0-95.0","A699A5BD5CAF498BB628DCFC0E454DED","9176ea99-57d0-452d-a66c-0177e49e213c","60874837-17fe-43d8-ba5e-75a805c652dd","","null","<div style=""display: flex; justify-content: center; align-items: center;"">
                <img src=""images/causal/causal_series_17/causal_series_17_a.jpg"" style=""width: 300px; height: 300px;"" />
              </div>","null",""
"","","","","","html-keyboard-response","96","269224","0.0-96.0","A699A5BD5CAF498BB628DCFC0E454DED","9176ea99-57d0-452d-a66c-0177e49e213c","60874837-17fe-43d8-ba5e-75a805c652dd","","null","<div style=""display: flex; justify-content: center; align-items: center;"">
                <img src=""images/causal/causal_series_17/causal_series_17_b.jpg"" style=""width: 300px; height: 300px;"" />
              </div>","null",""
"","","","","","html-keyboard-response","97","272227","0.0-97.0","A699A5BD5CAF498BB628DCFC0E454DED","9176ea99-57d0-452d-a66c-0177e49e213c","60874837-17fe-43d8-ba5e-75a805c652dd","","null","<div style=""display: flex; justify-content: center; align-items: center;"">
                <img src=""images/causal/causal_series_17/causal_series_17_c.jpg"" style=""width: 300px; height: 300px;"" />
              </div>","null",""
"","","","","","html-button-response","98","274326","0.0-98.0","A699A5BD5CAF498BB628DCFC0E454DED","9176ea99-57d0-452d-a66c-0177e49e213c","60874837-17fe-43d8-ba5e-75a805c652dd","","2097","
    <div style=""display: flex; justify-content: center; align-items: center;"">
      <img src=""images/red_deck_2.png"" style=""width: 300px; height: 300px; margin-right: 10px;"" />
      <img src=""images/blue_deck_1.png"" style=""width: 300px; height: 300px;"" />
    </div>","0","0"
"","","","","","html-keyboard-response","99","277329","0.0-99.0-0.0-0.0","A699A5BD5CAF498BB628DCFC0E454DED","9176ea99-57d0-452d-a66c-0177e49e213c","60874837-17fe-43d8-ba5e-75a805c652dd","","null","<div style=""display: flex; justify-content: center; align-items: center;"">
                <img src=""images/causal/causal_series_17/causal_series_17_d.jpg"" style=""width: 300px; height: 300px;"" />
              </div>","null",""
"","","","","","html-keyboard-response","100","280332","0.0-100.0","A699A5BD5CAF498BB628DCFC0E454DED","9176ea99-57d0-452d-a66c-0177e49e213c","60874837-17fe-43d8-ba5e-75a805c652dd","","null","<div style=""display: flex; justify-content: center; align-items: center;"">
                <img src=""images/other/blank.jpg"" style=""width: 300px; height: 300px;"" />
              </div>","null",""
"","","","","","html-keyboard-response","101","283334","0.0-101.0","A699A5BD5CAF498BB628DCFC0E454DED","9176ea99-57d0-452d-a66c-0177e49e213c","60874837-17fe-43d8-ba5e-75a805c652dd","","null","<div style=""display: flex; justify-content: center; align-items: center;"">
                <img src=""images/causal/causal_series_2/causal_series_2_a.jpg"" style=""width: 300px; height: 300px;"" />
              </div>","null",""
"","","","","","html-keyboard-response","102","286336","0.0-102.0","A699A5BD5CAF498BB628DCFC0E454DED","9176ea99-57d0-452d-a66c-0177e49e213c","60874837-17fe-43d8-ba5e-75a805c652dd","","null","<div style=""display: flex; justify-content: center; align-items: center;"">
                <img src=""images/causal/causal_series_2/causal_series_2_b.jpg"" style=""width: 300px; height: 300px;"" />
              </div>","null",""
"","","","","","html-keyboard-response","103","289338","0.0-103.0","A699A5BD5CAF498BB628DCFC0E454DED","9176ea99-57d0-452d-a66c-0177e49e213c","60874837-17fe-43d8-ba5e-75a805c652dd","","null","<div style=""display: flex; justify-content: center; align-items: center;"">
                <img src=""images/causal/causal_series_2/causal_series_2_c.jpg"" style=""width: 300px; height: 300px;"" />
              </div>","null",""
"","","","","","html-button-response","104","290494","0.0-104.0","A699A5BD5CAF498BB628DCFC0E454DED","9176ea99-57d0-452d-a66c-0177e49e213c","60874837-17fe-43d8-ba5e-75a805c652dd","","1154","
    <div style=""display: flex; justify-content: center; align-items: center;"">
      <img src=""images/red_deck_2.png"" style=""width: 300px; height: 300px; margin-right: 10px;"" />
      <img src=""images/blue_deck_1.png"" style=""width: 300px; height: 300px;"" />
    </div>","1","1"
"","","","","","html-keyboard-response","105","293497","0.0-105.0-1.0-0.0","A699A5BD5CAF498BB628DCFC0E454DED","9176ea99-57d0-452d-a66c-0177e49e213c","60874837-17fe-43d8-ba5e-75a805c652dd","","null","<div style=""display: flex; justify-content: center; align-items: center;"">
                <img src=""images/semantic/semantic_series_1/semantic_series_1_d.jpg"" style=""width: 300px; height: 300px;"" />
              </div>","null",""
"","","","","","html-keyboard-response","106","296500","0.0-106.0","A699A5BD5CAF498BB628DCFC0E454DED","9176ea99-57d0-452d-a66c-0177e49e213c","60874837-17fe-43d8-ba5e-75a805c652dd","","null","<div style=""display: flex; justify-content: center; align-items: center;"">
                <img src=""images/other/blank.jpg"" style=""width: 300px; height: 300px;"" />
              </div>","null",""
"","","","","","html-keyboard-response","107","299502","0.0-107.0","A699A5BD5CAF498BB628DCFC0E454DED","9176ea99-57d0-452d-a66c-0177e49e213c","60874837-17fe-43d8-ba5e-75a805c652dd","","null","<div style=""display: flex; justify-content: center; align-items: center;"">
                <img src=""images/causal/causal_series_10/causal_series_10_a.jpg"" style=""width: 300px; height: 300px;"" />
              </div>","null",""
"","","","","","html-keyboard-response","108","302505","0.0-108.0","A699A5BD5CAF498BB628DCFC0E454DED","9176ea99-57d0-452d-a66c-0177e49e213c","60874837-17fe-43d8-ba5e-75a805c652dd","","null","<div style=""display: flex; justify-content: center; align-items: center;"">
                <img src=""images/causal/causal_series_10/causal_series_10_b.jpg"" style=""width: 300px; height: 300px;"" />
              </div>","null",""
"","","","","","html-keyboard-response","109","305507","0.0-109.0","A699A5BD5CAF498BB628DCFC0E454DED","9176ea99-57d0-452d-a66c-0177e49e213c","60874837-17fe-43d8-ba5e-75a805c652dd","","null","<div style=""display: flex; justify-content: center; align-items: center;"">
                <img src=""images/causal/causal_series_10/causal_series_10_c.jpg"" style=""width: 300px; height: 300px;"" />
              </div>","null",""
"","","","","","html-button-response","110","308538","0.0-110.0","A699A5BD5CAF498BB628DCFC0E454DED","9176ea99-57d0-452d-a66c-0177e49e213c","60874837-17fe-43d8-ba5e-75a805c652dd","","3030","
    <div style=""display: flex; justify-content: center; align-items: center;"">
      <img src=""images/red_deck_2.png"" style=""width: 300px; height: 300px; margin-right: 10px;"" />
      <img src=""images/blue_deck_1.png"" style=""width: 300px; height: 300px;"" />
    </div>","0","0"
"","","","","","html-keyboard-response","111","311541","0.0-111.0-0.0-0.0","A699A5BD5CAF498BB628DCFC0E454DED","9176ea99-57d0-452d-a66c-0177e49e213c","60874837-17fe-43d8-ba5e-75a805c652dd","","null","<div style=""display: flex; justify-content: center; align-items: center;"">
                <img src=""images/causal/causal_series_10/causal_series_10_d.jpg"" style=""width: 300px; height: 300px;"" />
              </div>","null",""
"","","","","","html-keyboard-response","112","314543","0.0-112.0","A699A5BD5CAF498BB628DCFC0E454DED","9176ea99-57d0-452d-a66c-0177e49e213c","60874837-17fe-43d8-ba5e-75a805c652dd","","null","<div style=""display: flex; justify-content: center; align-items: center;"">
                <img src=""images/other/blank.jpg"" style=""width: 300px; height: 300px;"" />
              </div>","null",""
"","","","","","survey-text","113","349410","0.0-113.0","A699A5BD5CAF498BB628DCFC0E454DED","9176ea99-57d0-452d-a66c-0177e49e213c","60874837-17fe-43d8-ba5e-75a805c652dd","","34864","","{""Q0"":""The red seemed more connected to the story while the blue was a new story.""}",""
"","","","","","survey-text","114","351714","0.0-114.0","A699A5BD5CAF498BB628DCFC0E454DED","9176ea99-57d0-452d-a66c-0177e49e213c","60874837-17fe-43d8-ba5e-75a805c652dd","","2302","","{""Q0"":""Red""}",""
"","","","","","html-button-response","115","355831","0.0-115.0","A699A5BD5CAF498BB628DCFC0E454DED","9176ea99-57d0-452d-a66c-0177e49e213c","60874837-17fe-43d8-ba5e-75a805c652dd","","4117","Which color deck does the fourth image continue the story from the series?","1",""
"","","","","","html-button-response","116","356825","0.0-116.0","A699A5BD5CAF498BB628DCFC0E454DED","9176ea99-57d0-452d-a66c-0177e49e213c","60874837-17fe-43d8-ba5e-75a805c652dd","","993","Which color deck does the fourth image not follow the story from the series?","0",""
"","","","","","survey-text","117","362417","0.0-117.0","A699A5BD5CAF498BB628DCFC0E454DED","9176ea99-57d0-452d-a66c-0177e49e213c","60874837-17fe-43d8-ba5e-75a805c652dd","","5590","","{""Q0"":""Female"",""Q1"":""32""}",""
"","","","","","instructions","118","364346","0.0-118.0","A699A5BD5CAF498BB628DCFC0E454DED","9176ea99-57d0-452d-a66c-0177e49e213c","60874837-17fe-43d8-ba5e-75a805c652dd","[{""page_index"":0,""viewing_time"":1928}]","1928","","",""
