"success","timeout","failed_images","failed_audio","failed_video","trial_type","trial_index","time_elapsed","internal_node_id","subject_id","study_id","session_id","view_history","rt","stimulus","response","choice"
"true","false","[]","[]","[]","preload","0","47534","0.0-0.0","872E23FBC78B443CA4793405A619B555","5a63c236-b7e0-47f5-a7d5-512d6052b104","60874837-17fe-43d8-ba5e-75a805c652dd","","","","",""
"","","","","","instructions","1","49398","0.0-1.0","872E23FBC78B443CA4793405A619B555","5a63c236-b7e0-47f5-a7d5-512d6052b104","60874837-17fe-43d8-ba5e-75a805c652dd","[{""page_index"":0,""viewing_time"":1861}]","1862","","",""
"","","","","","instructions","2","58014","0.0-2.0","872E23FBC78B443CA4793405A619B555","5a63c236-b7e0-47f5-a7d5-512d6052b104","60874837-17fe-43d8-ba5e-75a805c652dd","[{""page_index"":0,""viewing_time"":8604}]","8615","","",""
"true","","","","","fullscreen","3","62649","0.0-3.0","872E23FBC78B443CA4793405A619B555","5a63c236-b7e0-47f5-a7d5-512d6052b104","60874837-17fe-43d8-ba5e-75a805c652dd","","3632","","",""
"","","","","","instructions","4","71757","0.0-4.0","872E23FBC78B443CA4793405A619B555","5a63c236-b7e0-47f5-a7d5-512d6052b104","60874837-17fe-43d8-ba5e-75a805c652dd","[{""page_index"":0,""viewing_time"":9107}]","9107","","",""
"","","","","","html-keyboard-response","5","74759","0.0-5.0","872E23FBC78B443CA4793405A619B555","5a63c236-b7e0-47f5-a7d5-512d6052b104","60874837-17fe-43d8-ba5e-75a805c652dd","","null","<div style=""display: flex; justify-content: center; align-items: center;"">
                <img src=""images/causal/causal_series_17/causal_series_17_a.jpg"" style=""width: 300px; height: 300px;"" />
              </div>","null",""
"","","","","","html-keyboard-response","6","77762","0.0-6.0","872E23FBC78B443CA4793405A619B555","5a63c236-b7e0-47f5-a7d5-512d6052b104","60874837-17fe-43d8-ba5e-75a805c652dd","","null","<div style=""display: flex; justify-content: center; align-items: center;"">
                <img src=""images/causal/causal_series_17/causal_series_17_b.jpg"" style=""width: 300px; height: 300px;"" />
              </div>","null",""
"","","","","","html-keyboard-response","7","80763","0.0-7.0","872E23FBC78B443CA4793405A619B555","5a63c236-b7e0-47f5-a7d5-512d6052b104","60874837-17fe-43d8-ba5e-75a805c652dd","","null","<div style=""display: flex; justify-content: center; align-items: center;"">
                <img src=""images/causal/causal_series_17/causal_series_17_c.jpg"" style=""width: 300px; height: 300px;"" />
              </div>","null",""
"","","","","","html-button-response","8","84174","0.0-8.0","872E23FBC78B443CA4793405A619B555","5a63c236-b7e0-47f5-a7d5-512d6052b104","60874837-17fe-43d8-ba5e-75a805c652dd","","3409","
    <div style=""display: flex; justify-content: center; align-items: center;"">
      <img src=""images/red_deck_2.png"" style=""width: 300px; height: 300px; margin-right: 10px;"" />
      <img src=""images/blue_deck_1.png"" style=""width: 300px; height: 300px;"" />
    </div>","1","1"
"","","","","","html-keyboard-response","9","87176","0.0-9.0-1.0-0.0","872E23FBC78B443CA4793405A619B555","5a63c236-b7e0-47f5-a7d5-512d6052b104","60874837-17fe-43d8-ba5e-75a805c652dd","","null","<div style=""display: flex; justify-content: center; align-items: center;"">
                <img src=""images/semantic/semantic_series_16/semantic_series_16_d.jpg"" style=""width: 300px; height: 300px;"" />
              </div>","null",""
"","","","","","html-keyboard-response","10","90179","0.0-10.0","872E23FBC78B443CA4793405A619B555","5a63c236-b7e0-47f5-a7d5-512d6052b104","60874837-17fe-43d8-ba5e-75a805c652dd","","null","<div style=""display: flex; justify-content: center; align-items: center;"">
                <img src=""images/other/blank.jpg"" style=""width: 300px; height: 300px;"" />
              </div>","null",""
"","","","","","html-keyboard-response","11","93182","0.0-11.0","872E23FBC78B443CA4793405A619B555","5a63c236-b7e0-47f5-a7d5-512d6052b104","60874837-17fe-43d8-ba5e-75a805c652dd","","null","<div style=""display: flex; justify-content: center; align-items: center;"">
                <img src=""images/causal/causal_series_12/causal_series_12_a.jpg"" style=""width: 300px; height: 300px;"" />
              </div>","null",""
"","","","","","html-keyboard-response","12","96183","0.0-12.0","872E23FBC78B443CA4793405A619B555","5a63c236-b7e0-47f5-a7d5-512d6052b104","60874837-17fe-43d8-ba5e-75a805c652dd","","null","<div style=""display: flex; justify-content: center; align-items: center;"">
                <img src=""images/causal/causal_series_12/causal_series_12_b.jpg"" style=""width: 300px; height: 300px;"" />
              </div>","null",""
"","","","","","html-keyboard-response","13","99185","0.0-13.0","872E23FBC78B443CA4793405A619B555","5a63c236-b7e0-47f5-a7d5-512d6052b104","60874837-17fe-43d8-ba5e-75a805c652dd","","null","<div style=""display: flex; justify-content: center; align-items: center;"">
                <img src=""images/causal/causal_series_12/causal_series_12_c.jpg"" style=""width: 300px; height: 300px;"" />
              </div>","null",""
"","","","","","html-button-response","14","100952","0.0-14.0","872E23FBC78B443CA4793405A619B555","5a63c236-b7e0-47f5-a7d5-512d6052b104","60874837-17fe-43d8-ba5e-75a805c652dd","","1765","
    <div style=""display: flex; justify-content: center; align-items: center;"">
      <img src=""images/red_deck_2.png"" style=""width: 300px; height: 300px; margin-right: 10px;"" />
      <img src=""images/blue_deck_1.png"" style=""width: 300px; height: 300px;"" />
    </div>","0","0"
"","","","","","html-keyboard-response","15","103955","0.0-15.0-0.0-0.0","872E23FBC78B443CA4793405A619B555","5a63c236-b7e0-47f5-a7d5-512d6052b104","60874837-17fe-43d8-ba5e-75a805c652dd","","null","<div style=""display: flex; justify-content: center; align-items: center;"">
                <img src=""images/causal/causal_series_12/causal_series_12_d.jpg"" style=""width: 300px; height: 300px;"" />
              </div>","null",""
"","","","","","html-keyboard-response","16","106957","0.0-16.0","872E23FBC78B443CA4793405A619B555","5a63c236-b7e0-47f5-a7d5-512d6052b104","60874837-17fe-43d8-ba5e-75a805c652dd","","null","<div style=""display: flex; justify-content: center; align-items: center;"">
                <img src=""images/other/blank.jpg"" style=""width: 300px; height: 300px;"" />
              </div>","null",""
"","","","","","html-keyboard-response","17","109960","0.0-17.0","872E23FBC78B443CA4793405A619B555","5a63c236-b7e0-47f5-a7d5-512d6052b104","60874837-17fe-43d8-ba5e-75a805c652dd","","null","<div style=""display: flex; justify-content: center; align-items: center;"">
                <img src=""images/causal/causal_series_15/causal_series_15_a.jpg"" style=""width: 300px; height: 300px;"" />
              </div>","null",""
"","","","","","html-keyboard-response","18","112963","0.0-18.0","872E23FBC78B443CA4793405A619B555","5a63c236-b7e0-47f5-a7d5-512d6052b104","60874837-17fe-43d8-ba5e-75a805c652dd","","null","<div style=""display: flex; justify-content: center; align-items: center;"">
                <img src=""images/causal/causal_series_15/causal_series_15_b.jpg"" style=""width: 300px; height: 300px;"" />
              </div>","null",""
"","","","","","html-keyboard-response","19","115965","0.0-19.0","872E23FBC78B443CA4793405A619B555","5a63c236-b7e0-47f5-a7d5-512d6052b104","60874837-17fe-43d8-ba5e-75a805c652dd","","null","<div style=""display: flex; justify-content: center; align-items: center;"">
                <img src=""images/causal/causal_series_15/causal_series_15_c.jpg"" style=""width: 300px; height: 300px;"" />
              </div>","null",""
"","","","","","html-button-response","20","117063","0.0-20.0","872E23FBC78B443CA4793405A619B555","5a63c236-b7e0-47f5-a7d5-512d6052b104","60874837-17fe-43d8-ba5e-75a805c652dd","","1096","
    <div style=""display: flex; justify-content: center; align-items: center;"">
      <img src=""images/red_deck_2.png"" style=""width: 300px; height: 300px; margin-right: 10px;"" />
      <img src=""images/blue_deck_1.png"" style=""width: 300px; height: 300px;"" />
    </div>","1","1"
"","","","","","html-keyboard-response","21","120065","0.0-21.0-1.0-0.0","872E23FBC78B443CA4793405A619B555","5a63c236-b7e0-47f5-a7d5-512d6052b104","60874837-17fe-43d8-ba5e-75a805c652dd","","null","<div style=""display: flex; justify-content: center; align-items: center;"">
                <img src=""images/semantic/semantic_series_14/semantic_series_14_d.jpg"" style=""width: 300px; height: 300px;"" />
              </div>","null",""
"","","","","","html-keyboard-response","22","123068","0.0-22.0","872E23FBC78B443CA4793405A619B555","5a63c236-b7e0-47f5-a7d5-512d6052b104","60874837-17fe-43d8-ba5e-75a805c652dd","","null","<div style=""display: flex; justify-content: center; align-items: center;"">
                <img src=""images/other/blank.jpg"" style=""width: 300px; height: 300px;"" />
              </div>","null",""
"","","","","","html-keyboard-response","23","126070","0.0-23.0","872E23FBC78B443CA4793405A619B555","5a63c236-b7e0-47f5-a7d5-512d6052b104","60874837-17fe-43d8-ba5e-75a805c652dd","","null","<div style=""display: flex; justify-content: center; align-items: center;"">
                <img src=""images/causal/causal_series_13/causal_series_13_a.jpg"" style=""width: 300px; height: 300px;"" />
              </div>","null",""
"","","","","","html-keyboard-response","24","129073","0.0-24.0","872E23FBC78B443CA4793405A619B555","5a63c236-b7e0-47f5-a7d5-512d6052b104","60874837-17fe-43d8-ba5e-75a805c652dd","","null","<div style=""display: flex; justify-content: center; align-items: center;"">
                <img src=""images/causal/causal_series_13/causal_series_13_b.jpg"" style=""width: 300px; height: 300px;"" />
              </div>","null",""
"","","","","","html-keyboard-response","25","132075","0.0-25.0","872E23FBC78B443CA4793405A619B555","5a63c236-b7e0-47f5-a7d5-512d6052b104","60874837-17fe-43d8-ba5e-75a805c652dd","","null","<div style=""display: flex; justify-content: center; align-items: center;"">
                <img src=""images/causal/causal_series_13/causal_series_13_c.jpg"" style=""width: 300px; height: 300px;"" />
              </div>","null",""
"","","","","","html-button-response","26","133691","0.0-26.0","872E23FBC78B443CA4793405A619B555","5a63c236-b7e0-47f5-a7d5-512d6052b104","60874837-17fe-43d8-ba5e-75a805c652dd","","1614","
    <div style=""display: flex; justify-content: center; align-items: center;"">
      <img src=""images/red_deck_2.png"" style=""width: 300px; height: 300px; margin-right: 10px;"" />
      <img src=""images/blue_deck_1.png"" style=""width: 300px; height: 300px;"" />
    </div>","0","0"
"","","","","","html-keyboard-response","27","136694","0.0-27.0-0.0-0.0","872E23FBC78B443CA4793405A619B555","5a63c236-b7e0-47f5-a7d5-512d6052b104","60874837-17fe-43d8-ba5e-75a805c652dd","","null","<div style=""display: flex; justify-content: center; align-items: center;"">
                <img src=""images/causal/causal_series_13/causal_series_13_d.jpg"" style=""width: 300px; height: 300px;"" />
              </div>","null",""
"","","","","","html-keyboard-response","28","139697","0.0-28.0","872E23FBC78B443CA4793405A619B555","5a63c236-b7e0-47f5-a7d5-512d6052b104","60874837-17fe-43d8-ba5e-75a805c652dd","","null","<div style=""display: flex; justify-content: center; align-items: center;"">
                <img src=""images/other/blank.jpg"" style=""width: 300px; height: 300px;"" />
              </div>","null",""
"","","","","","html-keyboard-response","29","142699","0.0-29.0","872E23FBC78B443CA4793405A619B555","5a63c236-b7e0-47f5-a7d5-512d6052b104","60874837-17fe-43d8-ba5e-75a805c652dd","","null","<div style=""display: flex; justify-content: center; align-items: center;"">
                <img src=""images/causal/causal_series_9/causal_series_9_a.jpg"" style=""width: 300px; height: 300px;"" />
              </div>","null",""
"","","","","","html-keyboard-response","30","145702","0.0-30.0","872E23FBC78B443CA4793405A619B555","5a63c236-b7e0-47f5-a7d5-512d6052b104","60874837-17fe-43d8-ba5e-75a805c652dd","","null","<div style=""display: flex; justify-content: center; align-items: center;"">
                <img src=""images/causal/causal_series_9/causal_series_9_b.jpg"" style=""width: 300px; height: 300px;"" />
              </div>","null",""
"","","","","","html-keyboard-response","31","148704","0.0-31.0","872E23FBC78B443CA4793405A619B555","5a63c236-b7e0-47f5-a7d5-512d6052b104","60874837-17fe-43d8-ba5e-75a805c652dd","","null","<div style=""display: flex; justify-content: center; align-items: center;"">
                <img src=""images/causal/causal_series_9/causal_series_9_c.jpg"" style=""width: 300px; height: 300px;"" />
              </div>","null",""
"","","","","","html-button-response","32","150336","0.0-32.0","872E23FBC78B443CA4793405A619B555","5a63c236-b7e0-47f5-a7d5-512d6052b104","60874837-17fe-43d8-ba5e-75a805c652dd","","1630","
    <div style=""display: flex; justify-content: center; align-items: center;"">
      <img src=""images/red_deck_2.png"" style=""width: 300px; height: 300px; margin-right: 10px;"" />
      <img src=""images/blue_deck_1.png"" style=""width: 300px; height: 300px;"" />
    </div>","1","1"
"","","","","","html-keyboard-response","33","153339","0.0-33.0-1.0-0.0","872E23FBC78B443CA4793405A619B555","5a63c236-b7e0-47f5-a7d5-512d6052b104","60874837-17fe-43d8-ba5e-75a805c652dd","","null","<div style=""display: flex; justify-content: center; align-items: center;"">
                <img src=""images/semantic/semantic_series_8/semantic_series_8_d.jpg"" style=""width: 300px; height: 300px;"" />
              </div>","null",""
"","","","","","html-keyboard-response","34","156342","0.0-34.0","872E23FBC78B443CA4793405A619B555","5a63c236-b7e0-47f5-a7d5-512d6052b104","60874837-17fe-43d8-ba5e-75a805c652dd","","null","<div style=""display: flex; justify-content: center; align-items: center;"">
                <img src=""images/other/blank.jpg"" style=""width: 300px; height: 300px;"" />
              </div>","null",""
"","","","","","html-keyboard-response","35","159345","0.0-35.0","872E23FBC78B443CA4793405A619B555","5a63c236-b7e0-47f5-a7d5-512d6052b104","60874837-17fe-43d8-ba5e-75a805c652dd","","null","<div style=""display: flex; justify-content: center; align-items: center;"">
                <img src=""images/causal/causal_series_2/causal_series_2_a.jpg"" style=""width: 300px; height: 300px;"" />
              </div>","null",""
"","","","","","html-keyboard-response","36","162347","0.0-36.0","872E23FBC78B443CA4793405A619B555","5a63c236-b7e0-47f5-a7d5-512d6052b104","60874837-17fe-43d8-ba5e-75a805c652dd","","null","<div style=""display: flex; justify-content: center; align-items: center;"">
                <img src=""images/causal/causal_series_2/causal_series_2_b.jpg"" style=""width: 300px; height: 300px;"" />
              </div>","null",""
"","","","","","html-keyboard-response","37","165350","0.0-37.0","872E23FBC78B443CA4793405A619B555","5a63c236-b7e0-47f5-a7d5-512d6052b104","60874837-17fe-43d8-ba5e-75a805c652dd","","null","<div style=""display: flex; justify-content: center; align-items: center;"">
                <img src=""images/causal/causal_series_2/causal_series_2_c.jpg"" style=""width: 300px; height: 300px;"" />
              </div>","null",""
"","","","","","html-button-response","38","166948","0.0-38.0","872E23FBC78B443CA4793405A619B555","5a63c236-b7e0-47f5-a7d5-512d6052b104","60874837-17fe-43d8-ba5e-75a805c652dd","","1596","
    <div style=""display: flex; justify-content: center; align-items: center;"">
      <img src=""images/red_deck_2.png"" style=""width: 300px; height: 300px; margin-right: 10px;"" />
      <img src=""images/blue_deck_1.png"" style=""width: 300px; height: 300px;"" />
    </div>","0","0"
"","","","","","html-keyboard-response","39","169949","0.0-39.0-0.0-0.0","872E23FBC78B443CA4793405A619B555","5a63c236-b7e0-47f5-a7d5-512d6052b104","60874837-17fe-43d8-ba5e-75a805c652dd","","null","<div style=""display: flex; justify-content: center; align-items: center;"">
                <img src=""images/causal/causal_series_2/causal_series_2_d.jpg"" style=""width: 300px; height: 300px;"" />
              </div>","null",""
"","","","","","html-keyboard-response","40","172952","0.0-40.0","872E23FBC78B443CA4793405A619B555","5a63c236-b7e0-47f5-a7d5-512d6052b104","60874837-17fe-43d8-ba5e-75a805c652dd","","null","<div style=""display: flex; justify-content: center; align-items: center;"">
                <img src=""images/other/blank.jpg"" style=""width: 300px; height: 300px;"" />
              </div>","null",""
"","","","","","html-keyboard-response","41","175955","0.0-41.0","872E23FBC78B443CA4793405A619B555","5a63c236-b7e0-47f5-a7d5-512d6052b104","60874837-17fe-43d8-ba5e-75a805c652dd","","null","<div style=""display: flex; justify-content: center; align-items: center;"">
                <img src=""images/causal/causal_series_16/causal_series_16_a.jpg"" style=""width: 300px; height: 300px;"" />
              </div>","null",""
"","","","","","html-keyboard-response","42","178957","0.0-42.0","872E23FBC78B443CA4793405A619B555","5a63c236-b7e0-47f5-a7d5-512d6052b104","60874837-17fe-43d8-ba5e-75a805c652dd","","null","<div style=""display: flex; justify-content: center; align-items: center;"">
                <img src=""images/causal/causal_series_16/causal_series_16_b.jpg"" style=""width: 300px; height: 300px;"" />
              </div>","null",""
"","","","","","html-keyboard-response","43","181959","0.0-43.0","872E23FBC78B443CA4793405A619B555","5a63c236-b7e0-47f5-a7d5-512d6052b104","60874837-17fe-43d8-ba5e-75a805c652dd","","null","<div style=""display: flex; justify-content: center; align-items: center;"">
                <img src=""images/causal/causal_series_16/causal_series_16_c.jpg"" style=""width: 300px; height: 300px;"" />
              </div>","null",""
"","","","","","html-button-response","44","183141","0.0-44.0","872E23FBC78B443CA4793405A619B555","5a63c236-b7e0-47f5-a7d5-512d6052b104","60874837-17fe-43d8-ba5e-75a805c652dd","","1180","
    <div style=""display: flex; justify-content: center; align-items: center;"">
      <img src=""images/red_deck_2.png"" style=""width: 300px; height: 300px; margin-right: 10px;"" />
      <img src=""images/blue_deck_1.png"" style=""width: 300px; height: 300px;"" />
    </div>","0","0"
"","","","","","html-keyboard-response","45","186144","0.0-45.0-0.0-0.0","872E23FBC78B443CA4793405A619B555","5a63c236-b7e0-47f5-a7d5-512d6052b104","60874837-17fe-43d8-ba5e-75a805c652dd","","null","<div style=""display: flex; justify-content: center; align-items: center;"">
                <img src=""images/causal/causal_series_16/causal_series_16_d.jpg"" style=""width: 300px; height: 300px;"" />
              </div>","null",""
"","","","","","html-keyboard-response","46","189147","0.0-46.0","872E23FBC78B443CA4793405A619B555","5a63c236-b7e0-47f5-a7d5-512d6052b104","60874837-17fe-43d8-ba5e-75a805c652dd","","null","<div style=""display: flex; justify-content: center; align-items: center;"">
                <img src=""images/other/blank.jpg"" style=""width: 300px; height: 300px;"" />
              </div>","null",""
"","","","","","html-keyboard-response","47","192150","0.0-47.0","872E23FBC78B443CA4793405A619B555","5a63c236-b7e0-47f5-a7d5-512d6052b104","60874837-17fe-43d8-ba5e-75a805c652dd","","null","<div style=""display: flex; justify-content: center; align-items: center;"">
                <img src=""images/causal/causal_series_4/causal_series_4_a.jpg"" style=""width: 300px; height: 300px;"" />
              </div>","null",""
"","","","","","html-keyboard-response","48","195151","0.0-48.0","872E23FBC78B443CA4793405A619B555","5a63c236-b7e0-47f5-a7d5-512d6052b104","60874837-17fe-43d8-ba5e-75a805c652dd","","null","<div style=""display: flex; justify-content: center; align-items: center;"">
                <img src=""images/causal/causal_series_4/causal_series_4_b.jpg"" style=""width: 300px; height: 300px;"" />
              </div>","null",""
"","","","","","html-keyboard-response","49","198153","0.0-49.0","872E23FBC78B443CA4793405A619B555","5a63c236-b7e0-47f5-a7d5-512d6052b104","60874837-17fe-43d8-ba5e-75a805c652dd","","null","<div style=""display: flex; justify-content: center; align-items: center;"">
                <img src=""images/causal/causal_series_4/causal_series_4_c.jpg"" style=""width: 300px; height: 300px;"" />
              </div>","null",""
"","","","","","html-button-response","50","199819","0.0-50.0","872E23FBC78B443CA4793405A619B555","5a63c236-b7e0-47f5-a7d5-512d6052b104","60874837-17fe-43d8-ba5e-75a805c652dd","","1665","
    <div style=""display: flex; justify-content: center; align-items: center;"">
      <img src=""images/red_deck_2.png"" style=""width: 300px; height: 300px; margin-right: 10px;"" />
      <img src=""images/blue_deck_1.png"" style=""width: 300px; height: 300px;"" />
    </div>","0","0"
"","","","","","html-keyboard-response","51","202822","0.0-51.0-0.0-0.0","872E23FBC78B443CA4793405A619B555","5a63c236-b7e0-47f5-a7d5-512d6052b104","60874837-17fe-43d8-ba5e-75a805c652dd","","null","<div style=""display: flex; justify-content: center; align-items: center;"">
                <img src=""images/causal/causal_series_4/causal_series_4_d.jpg"" style=""width: 300px; height: 300px;"" />
              </div>","null",""
"","","","","","html-keyboard-response","52","205824","0.0-52.0","872E23FBC78B443CA4793405A619B555","5a63c236-b7e0-47f5-a7d5-512d6052b104","60874837-17fe-43d8-ba5e-75a805c652dd","","null","<div style=""display: flex; justify-content: center; align-items: center;"">
                <img src=""images/other/blank.jpg"" style=""width: 300px; height: 300px;"" />
              </div>","null",""
"","","","","","html-keyboard-response","53","208826","0.0-53.0","872E23FBC78B443CA4793405A619B555","5a63c236-b7e0-47f5-a7d5-512d6052b104","60874837-17fe-43d8-ba5e-75a805c652dd","","null","<div style=""display: flex; justify-content: center; align-items: center;"">
                <img src=""images/causal/causal_series_8/causal_series_8_a.jpg"" style=""width: 300px; height: 300px;"" />
              </div>","null",""
"","","","","","html-keyboard-response","54","211829","0.0-54.0","872E23FBC78B443CA4793405A619B555","5a63c236-b7e0-47f5-a7d5-512d6052b104","60874837-17fe-43d8-ba5e-75a805c652dd","","null","<div style=""display: flex; justify-content: center; align-items: center;"">
                <img src=""images/causal/causal_series_8/causal_series_8_b.jpg"" style=""width: 300px; height: 300px;"" />
              </div>","null",""
"","","","","","html-keyboard-response","55","214831","0.0-55.0","872E23FBC78B443CA4793405A619B555","5a63c236-b7e0-47f5-a7d5-512d6052b104","60874837-17fe-43d8-ba5e-75a805c652dd","","null","<div style=""display: flex; justify-content: center; align-items: center;"">
                <img src=""images/causal/causal_series_8/causal_series_8_c.jpg"" style=""width: 300px; height: 300px;"" />
              </div>","null",""
"","","","","","html-button-response","56","216147","0.0-56.0","872E23FBC78B443CA4793405A619B555","5a63c236-b7e0-47f5-a7d5-512d6052b104","60874837-17fe-43d8-ba5e-75a805c652dd","","1315","
    <div style=""display: flex; justify-content: center; align-items: center;"">
      <img src=""images/red_deck_2.png"" style=""width: 300px; height: 300px; margin-right: 10px;"" />
      <img src=""images/blue_deck_1.png"" style=""width: 300px; height: 300px;"" />
    </div>","1","1"
"","","","","","html-keyboard-response","57","219149","0.0-57.0-1.0-0.0","872E23FBC78B443CA4793405A619B555","5a63c236-b7e0-47f5-a7d5-512d6052b104","60874837-17fe-43d8-ba5e-75a805c652dd","","null","<div style=""display: flex; justify-content: center; align-items: center;"">
                <img src=""images/semantic/semantic_series_7/semantic_series_7_d.jpg"" style=""width: 300px; height: 300px;"" />
              </div>","null",""
"","","","","","html-keyboard-response","58","222152","0.0-58.0","872E23FBC78B443CA4793405A619B555","5a63c236-b7e0-47f5-a7d5-512d6052b104","60874837-17fe-43d8-ba5e-75a805c652dd","","null","<div style=""display: flex; justify-content: center; align-items: center;"">
                <img src=""images/other/blank.jpg"" style=""width: 300px; height: 300px;"" />
              </div>","null",""
"","","","","","html-keyboard-response","59","225154","0.0-59.0","872E23FBC78B443CA4793405A619B555","5a63c236-b7e0-47f5-a7d5-512d6052b104","60874837-17fe-43d8-ba5e-75a805c652dd","","null","<div style=""display: flex; justify-content: center; align-items: center;"">
                <img src=""images/causal/causal_series_18/causal_series_18_a.jpg"" style=""width: 300px; height: 300px;"" />
              </div>","null",""
"","","","","","html-keyboard-response","60","228156","0.0-60.0","872E23FBC78B443CA4793405A619B555","5a63c236-b7e0-47f5-a7d5-512d6052b104","60874837-17fe-43d8-ba5e-75a805c652dd","","null","<div style=""display: flex; justify-content: center; align-items: center;"">
                <img src=""images/causal/causal_series_18/causal_series_18_b.jpg"" style=""width: 300px; height: 300px;"" />
              </div>","null",""
"","","","","","html-keyboard-response","61","231158","0.0-61.0","872E23FBC78B443CA4793405A619B555","5a63c236-b7e0-47f5-a7d5-512d6052b104","60874837-17fe-43d8-ba5e-75a805c652dd","","null","<div style=""display: flex; justify-content: center; align-items: center;"">
                <img src=""images/causal/causal_series_18/causal_series_18_c.jpg"" style=""width: 300px; height: 300px;"" />
              </div>","null",""
"","","","","","html-button-response","62","232792","0.0-62.0","872E23FBC78B443CA4793405A619B555","5a63c236-b7e0-47f5-a7d5-512d6052b104","60874837-17fe-43d8-ba5e-75a805c652dd","","1632","
    <div style=""display: flex; justify-content: center; align-items: center;"">
      <img src=""images/red_deck_2.png"" style=""width: 300px; height: 300px; margin-right: 10px;"" />
      <img src=""images/blue_deck_1.png"" style=""width: 300px; height: 300px;"" />
    </div>","0","0"
"","","","","","html-keyboard-response","63","235794","0.0-63.0-0.0-0.0","872E23FBC78B443CA4793405A619B555","5a63c236-b7e0-47f5-a7d5-512d6052b104","60874837-17fe-43d8-ba5e-75a805c652dd","","null","<div style=""display: flex; justify-content: center; align-items: center;"">
                <img src=""images/causal/causal_series_18/causal_series_18_d.jpg"" style=""width: 300px; height: 300px;"" />
              </div>","null",""
"","","","","","html-keyboard-response","64","238796","0.0-64.0","872E23FBC78B443CA4793405A619B555","5a63c236-b7e0-47f5-a7d5-512d6052b104","60874837-17fe-43d8-ba5e-75a805c652dd","","null","<div style=""display: flex; justify-content: center; align-items: center;"">
                <img src=""images/other/blank.jpg"" style=""width: 300px; height: 300px;"" />
              </div>","null",""
"","","","","","html-keyboard-response","65","241798","0.0-65.0","872E23FBC78B443CA4793405A619B555","5a63c236-b7e0-47f5-a7d5-512d6052b104","60874837-17fe-43d8-ba5e-75a805c652dd","","null","<div style=""display: flex; justify-content: center; align-items: center;"">
                <img src=""images/causal/causal_series_6/causal_series_6_a.jpg"" style=""width: 300px; height: 300px;"" />
              </div>","null",""
"","","","","","html-keyboard-response","66","244801","0.0-66.0","872E23FBC78B443CA4793405A619B555","5a63c236-b7e0-47f5-a7d5-512d6052b104","60874837-17fe-43d8-ba5e-75a805c652dd","","null","<div style=""display: flex; justify-content: center; align-items: center;"">
                <img src=""images/causal/causal_series_6/causal_series_6_b.jpg"" style=""width: 300px; height: 300px;"" />
              </div>","null",""
"","","","","","html-keyboard-response","67","247803","0.0-67.0","872E23FBC78B443CA4793405A619B555","5a63c236-b7e0-47f5-a7d5-512d6052b104","60874837-17fe-43d8-ba5e-75a805c652dd","","null","<div style=""display: flex; justify-content: center; align-items: center;"">
                <img src=""images/causal/causal_series_6/causal_series_6_c.jpg"" style=""width: 300px; height: 300px;"" />
              </div>","null",""
"","","","","","html-button-response","68","249353","0.0-68.0","872E23FBC78B443CA4793405A619B555","5a63c236-b7e0-47f5-a7d5-512d6052b104","60874837-17fe-43d8-ba5e-75a805c652dd","","1548","
    <div style=""display: flex; justify-content: center; align-items: center;"">
      <img src=""images/red_deck_2.png"" style=""width: 300px; height: 300px; margin-right: 10px;"" />
      <img src=""images/blue_deck_1.png"" style=""width: 300px; height: 300px;"" />
    </div>","0","0"
"","","","","","html-keyboard-response","69","252355","0.0-69.0-0.0-0.0","872E23FBC78B443CA4793405A619B555","5a63c236-b7e0-47f5-a7d5-512d6052b104","60874837-17fe-43d8-ba5e-75a805c652dd","","null","<div style=""display: flex; justify-content: center; align-items: center;"">
                <img src=""images/causal/causal_series_6/causal_series_6_d.jpg"" style=""width: 300px; height: 300px;"" />
              </div>","null",""
"","","","","","html-keyboard-response","70","255357","0.0-70.0","872E23FBC78B443CA4793405A619B555","5a63c236-b7e0-47f5-a7d5-512d6052b104","60874837-17fe-43d8-ba5e-75a805c652dd","","null","<div style=""display: flex; justify-content: center; align-items: center;"">
                <img src=""images/other/blank.jpg"" style=""width: 300px; height: 300px;"" />
              </div>","null",""
"","","","","","html-keyboard-response","71","258360","0.0-71.0","872E23FBC78B443CA4793405A619B555","5a63c236-b7e0-47f5-a7d5-512d6052b104","60874837-17fe-43d8-ba5e-75a805c652dd","","null","<div style=""display: flex; justify-content: center; align-items: center;"">
                <img src=""images/causal/causal_series_11/causal_series_11_a.jpg"" style=""width: 300px; height: 300px;"" />
              </div>","null",""
"","","","","","html-keyboard-response","72","261362","0.0-72.0","872E23FBC78B443CA4793405A619B555","5a63c236-b7e0-47f5-a7d5-512d6052b104","60874837-17fe-43d8-ba5e-75a805c652dd","","null","<div style=""display: flex; justify-content: center; align-items: center;"">
                <img src=""images/causal/causal_series_11/causal_series_11_b.jpg"" style=""width: 300px; height: 300px;"" />
              </div>","null",""
"","","","","","html-keyboard-response","73","264364","0.0-73.0","872E23FBC78B443CA4793405A619B555","5a63c236-b7e0-47f5-a7d5-512d6052b104","60874837-17fe-43d8-ba5e-75a805c652dd","","null","<div style=""display: flex; justify-content: center; align-items: center;"">
                <img src=""images/causal/causal_series_11/causal_series_11_c.jpg"" style=""width: 300px; height: 300px;"" />
              </div>","null",""
"","","","","","html-button-response","74","265329","0.0-74.0","872E23FBC78B443CA4793405A619B555","5a63c236-b7e0-47f5-a7d5-512d6052b104","60874837-17fe-43d8-ba5e-75a805c652dd","","964","
    <div style=""display: flex; justify-content: center; align-items: center;"">
      <img src=""images/red_deck_2.png"" style=""width: 300px; height: 300px; margin-right: 10px;"" />
      <img src=""images/blue_deck_1.png"" style=""width: 300px; height: 300px;"" />
    </div>","1","1"
"","","","","","html-keyboard-response","75","268332","0.0-75.0-1.0-0.0","872E23FBC78B443CA4793405A619B555","5a63c236-b7e0-47f5-a7d5-512d6052b104","60874837-17fe-43d8-ba5e-75a805c652dd","","null","<div style=""display: flex; justify-content: center; align-items: center;"">
                <img src=""images/semantic/semantic_series_10/semantic_series_10_d.jpg"" style=""width: 300px; height: 300px;"" />
              </div>","null",""
"","","","","","html-keyboard-response","76","271335","0.0-76.0","872E23FBC78B443CA4793405A619B555","5a63c236-b7e0-47f5-a7d5-512d6052b104","60874837-17fe-43d8-ba5e-75a805c652dd","","null","<div style=""display: flex; justify-content: center; align-items: center;"">
                <img src=""images/other/blank.jpg"" style=""width: 300px; height: 300px;"" />
              </div>","null",""
"","","","","","html-keyboard-response","77","274337","0.0-77.0","872E23FBC78B443CA4793405A619B555","5a63c236-b7e0-47f5-a7d5-512d6052b104","60874837-17fe-43d8-ba5e-75a805c652dd","","null","<div style=""display: flex; justify-content: center; align-items: center;"">
                <img src=""images/causal/causal_series_3/causal_series_3_a.jpg"" style=""width: 300px; height: 300px;"" />
              </div>","null",""
"","","","","","html-keyboard-response","78","277339","0.0-78.0","872E23FBC78B443CA4793405A619B555","5a63c236-b7e0-47f5-a7d5-512d6052b104","60874837-17fe-43d8-ba5e-75a805c652dd","","null","<div style=""display: flex; justify-content: center; align-items: center;"">
                <img src=""images/causal/causal_series_3/causal_series_3_b.jpg"" style=""width: 300px; height: 300px;"" />
              </div>","null",""
"","","","","","html-keyboard-response","79","280341","0.0-79.0","872E23FBC78B443CA4793405A619B555","5a63c236-b7e0-47f5-a7d5-512d6052b104","60874837-17fe-43d8-ba5e-75a805c652dd","","null","<div style=""display: flex; justify-content: center; align-items: center;"">
                <img src=""images/causal/causal_series_3/causal_series_3_c.jpg"" style=""width: 300px; height: 300px;"" />
              </div>","null",""
"","","","","","html-button-response","80","281056","0.0-80.0","872E23FBC78B443CA4793405A619B555","5a63c236-b7e0-47f5-a7d5-512d6052b104","60874837-17fe-43d8-ba5e-75a805c652dd","","711","
    <div style=""display: flex; justify-content: center; align-items: center;"">
      <img src=""images/red_deck_2.png"" style=""width: 300px; height: 300px; margin-right: 10px;"" />
      <img src=""images/blue_deck_1.png"" style=""width: 300px; height: 300px;"" />
    </div>","1","1"
"","","","","","html-keyboard-response","81","284059","0.0-81.0-1.0-0.0","872E23FBC78B443CA4793405A619B555","5a63c236-b7e0-47f5-a7d5-512d6052b104","60874837-17fe-43d8-ba5e-75a805c652dd","","null","<div style=""display: flex; justify-content: center; align-items: center;"">
                <img src=""images/semantic/semantic_series_2/semantic_series_2_d.jpg"" style=""width: 300px; height: 300px;"" />
              </div>","null",""
"","","","","","html-keyboard-response","82","287061","0.0-82.0","872E23FBC78B443CA4793405A619B555","5a63c236-b7e0-47f5-a7d5-512d6052b104","60874837-17fe-43d8-ba5e-75a805c652dd","","null","<div style=""display: flex; justify-content: center; align-items: center;"">
                <img src=""images/other/blank.jpg"" style=""width: 300px; height: 300px;"" />
              </div>","null",""
"","","","","","html-keyboard-response","83","290064","0.0-83.0","872E23FBC78B443CA4793405A619B555","5a63c236-b7e0-47f5-a7d5-512d6052b104","60874837-17fe-43d8-ba5e-75a805c652dd","","null","<div style=""display: flex; justify-content: center; align-items: center;"">
                <img src=""images/causal/causal_series_5/causal_series_5_a.jpg"" style=""width: 300px; height: 300px;"" />
              </div>","null",""
"","","","","","html-keyboard-response","84","293066","0.0-84.0","872E23FBC78B443CA4793405A619B555","5a63c236-b7e0-47f5-a7d5-512d6052b104","60874837-17fe-43d8-ba5e-75a805c652dd","","null","<div style=""display: flex; justify-content: center; align-items: center;"">
                <img src=""images/causal/causal_series_5/causal_series_5_b.jpg"" style=""width: 300px; height: 300px;"" />
              </div>","null",""
"","","","","","html-keyboard-response","85","296068","0.0-85.0","872E23FBC78B443CA4793405A619B555","5a63c236-b7e0-47f5-a7d5-512d6052b104","60874837-17fe-43d8-ba5e-75a805c652dd","","null","<div style=""display: flex; justify-content: center; align-items: center;"">
                <img src=""images/causal/causal_series_5/causal_series_5_c.jpg"" style=""width: 300px; height: 300px;"" />
              </div>","null",""
"","","","","","html-button-response","86","297015","0.0-86.0","872E23FBC78B443CA4793405A619B555","5a63c236-b7e0-47f5-a7d5-512d6052b104","60874837-17fe-43d8-ba5e-75a805c652dd","","946","
    <div style=""display: flex; justify-content: center; align-items: center;"">
      <img src=""images/red_deck_2.png"" style=""width: 300px; height: 300px; margin-right: 10px;"" />
      <img src=""images/blue_deck_1.png"" style=""width: 300px; height: 300px;"" />
    </div>","0","0"
"","","","","","html-keyboard-response","87","300017","0.0-87.0-0.0-0.0","872E23FBC78B443CA4793405A619B555","5a63c236-b7e0-47f5-a7d5-512d6052b104","60874837-17fe-43d8-ba5e-75a805c652dd","","null","<div style=""display: flex; justify-content: center; align-items: center;"">
                <img src=""images/causal/causal_series_5/causal_series_5_d.jpg"" style=""width: 300px; height: 300px;"" />
              </div>","null",""
"","","","","","html-keyboard-response","88","303019","0.0-88.0","872E23FBC78B443CA4793405A619B555","5a63c236-b7e0-47f5-a7d5-512d6052b104","60874837-17fe-43d8-ba5e-75a805c652dd","","null","<div style=""display: flex; justify-content: center; align-items: center;"">
                <img src=""images/other/blank.jpg"" style=""width: 300px; height: 300px;"" />
              </div>","null",""
"","","","","","html-keyboard-response","89","306021","0.0-89.0","872E23FBC78B443CA4793405A619B555","5a63c236-b7e0-47f5-a7d5-512d6052b104","60874837-17fe-43d8-ba5e-75a805c652dd","","null","<div style=""display: flex; justify-content: center; align-items: center;"">
                <img src=""images/causal/causal_series_7/causal_series_7_a.jpg"" style=""width: 300px; height: 300px;"" />
              </div>","null",""
"","","","","","html-keyboard-response","90","309024","0.0-90.0","872E23FBC78B443CA4793405A619B555","5a63c236-b7e0-47f5-a7d5-512d6052b104","60874837-17fe-43d8-ba5e-75a805c652dd","","null","<div style=""display: flex; justify-content: center; align-items: center;"">
                <img src=""images/causal/causal_series_7/causal_series_7_b.jpg"" style=""width: 300px; height: 300px;"" />
              </div>","null",""
"","","","","","html-keyboard-response","91","312026","0.0-91.0","872E23FBC78B443CA4793405A619B555","5a63c236-b7e0-47f5-a7d5-512d6052b104","60874837-17fe-43d8-ba5e-75a805c652dd","","null","<div style=""display: flex; justify-content: center; align-items: center;"">
                <img src=""images/causal/causal_series_7/causal_series_7_c.jpg"" style=""width: 300px; height: 300px;"" />
              </div>","null",""
"","","","","","html-button-response","92","313878","0.0-92.0","872E23FBC78B443CA4793405A619B555","5a63c236-b7e0-47f5-a7d5-512d6052b104","60874837-17fe-43d8-ba5e-75a805c652dd","","1851","
    <div style=""display: flex; justify-content: center; align-items: center;"">
      <img src=""images/red_deck_2.png"" style=""width: 300px; height: 300px; margin-right: 10px;"" />
      <img src=""images/blue_deck_1.png"" style=""width: 300px; height: 300px;"" />
    </div>","1","1"
"","","","","","html-keyboard-response","93","316880","0.0-93.0-1.0-0.0","872E23FBC78B443CA4793405A619B555","5a63c236-b7e0-47f5-a7d5-512d6052b104","60874837-17fe-43d8-ba5e-75a805c652dd","","null","<div style=""display: flex; justify-content: center; align-items: center;"">
                <img src=""images/semantic/semantic_series_6/semantic_series_6_d.jpg"" style=""width: 300px; height: 300px;"" />
              </div>","null",""
"","","","","","html-keyboard-response","94","319881","0.0-94.0","872E23FBC78B443CA4793405A619B555","5a63c236-b7e0-47f5-a7d5-512d6052b104","60874837-17fe-43d8-ba5e-75a805c652dd","","null","<div style=""display: flex; justify-content: center; align-items: center;"">
                <img src=""images/other/blank.jpg"" style=""width: 300px; height: 300px;"" />
              </div>","null",""
"","","","","","html-keyboard-response","95","322883","0.0-95.0","872E23FBC78B443CA4793405A619B555","5a63c236-b7e0-47f5-a7d5-512d6052b104","60874837-17fe-43d8-ba5e-75a805c652dd","","null","<div style=""display: flex; justify-content: center; align-items: center;"">
                <img src=""images/causal/causal_series_10/causal_series_10_a.jpg"" style=""width: 300px; height: 300px;"" />
              </div>","null",""
"","","","","","html-keyboard-response","96","325886","0.0-96.0","872E23FBC78B443CA4793405A619B555","5a63c236-b7e0-47f5-a7d5-512d6052b104","60874837-17fe-43d8-ba5e-75a805c652dd","","null","<div style=""display: flex; justify-content: center; align-items: center;"">
                <img src=""images/causal/causal_series_10/causal_series_10_b.jpg"" style=""width: 300px; height: 300px;"" />
              </div>","null",""
"","","","","","html-keyboard-response","97","328889","0.0-97.0","872E23FBC78B443CA4793405A619B555","5a63c236-b7e0-47f5-a7d5-512d6052b104","60874837-17fe-43d8-ba5e-75a805c652dd","","null","<div style=""display: flex; justify-content: center; align-items: center;"">
                <img src=""images/causal/causal_series_10/causal_series_10_c.jpg"" style=""width: 300px; height: 300px;"" />
              </div>","null",""
"","","","","","html-button-response","98","330054","0.0-98.0","872E23FBC78B443CA4793405A619B555","5a63c236-b7e0-47f5-a7d5-512d6052b104","60874837-17fe-43d8-ba5e-75a805c652dd","","1164","
    <div style=""display: flex; justify-content: center; align-items: center;"">
      <img src=""images/red_deck_2.png"" style=""width: 300px; height: 300px; margin-right: 10px;"" />
      <img src=""images/blue_deck_1.png"" style=""width: 300px; height: 300px;"" />
    </div>","1","1"
"","","","","","html-keyboard-response","99","333056","0.0-99.0-1.0-0.0","872E23FBC78B443CA4793405A619B555","5a63c236-b7e0-47f5-a7d5-512d6052b104","60874837-17fe-43d8-ba5e-75a805c652dd","","null","<div style=""display: flex; justify-content: center; align-items: center;"">
                <img src=""images/semantic/semantic_series_9/semantic_series_9_d.jpg"" style=""width: 300px; height: 300px;"" />
              </div>","null",""
"","","","","","html-keyboard-response","100","336058","0.0-100.0","872E23FBC78B443CA4793405A619B555","5a63c236-b7e0-47f5-a7d5-512d6052b104","60874837-17fe-43d8-ba5e-75a805c652dd","","null","<div style=""display: flex; justify-content: center; align-items: center;"">
                <img src=""images/other/blank.jpg"" style=""width: 300px; height: 300px;"" />
              </div>","null",""
"","","","","","html-keyboard-response","101","339061","0.0-101.0","872E23FBC78B443CA4793405A619B555","5a63c236-b7e0-47f5-a7d5-512d6052b104","60874837-17fe-43d8-ba5e-75a805c652dd","","null","<div style=""display: flex; justify-content: center; align-items: center;"">
                <img src=""images/causal/causal_series_1/causal_series_1_a.jpg"" style=""width: 300px; height: 300px;"" />
              </div>","null",""
"","","","","","html-keyboard-response","102","342063","0.0-102.0","872E23FBC78B443CA4793405A619B555","5a63c236-b7e0-47f5-a7d5-512d6052b104","60874837-17fe-43d8-ba5e-75a805c652dd","","null","<div style=""display: flex; justify-content: center; align-items: center;"">
                <img src=""images/causal/causal_series_1/causal_series_1_b.jpg"" style=""width: 300px; height: 300px;"" />
              </div>","null",""
"","","","","","html-keyboard-response","103","345064","0.0-103.0","872E23FBC78B443CA4793405A619B555","5a63c236-b7e0-47f5-a7d5-512d6052b104","60874837-17fe-43d8-ba5e-75a805c652dd","","null","<div style=""display: flex; justify-content: center; align-items: center;"">
                <img src=""images/causal/causal_series_1/causal_series_1_c.jpg"" style=""width: 300px; height: 300px;"" />
              </div>","null",""
"","","","","","html-button-response","104","345847","0.0-104.0","872E23FBC78B443CA4793405A619B555","5a63c236-b7e0-47f5-a7d5-512d6052b104","60874837-17fe-43d8-ba5e-75a805c652dd","","781","
    <div style=""display: flex; justify-content: center; align-items: center;"">
      <img src=""images/red_deck_2.png"" style=""width: 300px; height: 300px; margin-right: 10px;"" />
      <img src=""images/blue_deck_1.png"" style=""width: 300px; height: 300px;"" />
    </div>","0","0"
"","","","","","html-keyboard-response","105","348849","0.0-105.0-0.0-0.0","872E23FBC78B443CA4793405A619B555","5a63c236-b7e0-47f5-a7d5-512d6052b104","60874837-17fe-43d8-ba5e-75a805c652dd","","null","<div style=""display: flex; justify-content: center; align-items: center;"">
                <img src=""images/causal/causal_series_1/causal_series_1_d.jpg"" style=""width: 300px; height: 300px;"" />
              </div>","null",""
"","","","","","html-keyboard-response","106","351852","0.0-106.0","872E23FBC78B443CA4793405A619B555","5a63c236-b7e0-47f5-a7d5-512d6052b104","60874837-17fe-43d8-ba5e-75a805c652dd","","null","<div style=""display: flex; justify-content: center; align-items: center;"">
                <img src=""images/other/blank.jpg"" style=""width: 300px; height: 300px;"" />
              </div>","null",""
"","","","","","html-keyboard-response","107","354854","0.0-107.0","872E23FBC78B443CA4793405A619B555","5a63c236-b7e0-47f5-a7d5-512d6052b104","60874837-17fe-43d8-ba5e-75a805c652dd","","null","<div style=""display: flex; justify-content: center; align-items: center;"">
                <img src=""images/causal/causal_series_14/causal_series_14_a.jpg"" style=""width: 300px; height: 300px;"" />
              </div>","null",""
"","","","","","html-keyboard-response","108","357856","0.0-108.0","872E23FBC78B443CA4793405A619B555","5a63c236-b7e0-47f5-a7d5-512d6052b104","60874837-17fe-43d8-ba5e-75a805c652dd","","null","<div style=""display: flex; justify-content: center; align-items: center;"">
                <img src=""images/causal/causal_series_14/causal_series_14_b.jpg"" style=""width: 300px; height: 300px;"" />
              </div>","null",""
"","","","","","html-keyboard-response","109","360859","0.0-109.0","872E23FBC78B443CA4793405A619B555","5a63c236-b7e0-47f5-a7d5-512d6052b104","60874837-17fe-43d8-ba5e-75a805c652dd","","null","<div style=""display: flex; justify-content: center; align-items: center;"">
                <img src=""images/causal/causal_series_14/causal_series_14_c.jpg"" style=""width: 300px; height: 300px;"" />
              </div>","null",""
"","","","","","html-button-response","110","361472","0.0-110.0","872E23FBC78B443CA4793405A619B555","5a63c236-b7e0-47f5-a7d5-512d6052b104","60874837-17fe-43d8-ba5e-75a805c652dd","","612","
    <div style=""display: flex; justify-content: center; align-items: center;"">
      <img src=""images/red_deck_2.png"" style=""width: 300px; height: 300px; margin-right: 10px;"" />
      <img src=""images/blue_deck_1.png"" style=""width: 300px; height: 300px;"" />
    </div>","0","0"
"","","","","","html-keyboard-response","111","364475","0.0-111.0-0.0-0.0","872E23FBC78B443CA4793405A619B555","5a63c236-b7e0-47f5-a7d5-512d6052b104","60874837-17fe-43d8-ba5e-75a805c652dd","","null","<div style=""display: flex; justify-content: center; align-items: center;"">
                <img src=""images/causal/causal_series_14/causal_series_14_d.jpg"" style=""width: 300px; height: 300px;"" />
              </div>","null",""
"","","","","","html-keyboard-response","112","367476","0.0-112.0","872E23FBC78B443CA4793405A619B555","5a63c236-b7e0-47f5-a7d5-512d6052b104","60874837-17fe-43d8-ba5e-75a805c652dd","","null","<div style=""display: flex; justify-content: center; align-items: center;"">
                <img src=""images/other/blank.jpg"" style=""width: 300px; height: 300px;"" />
              </div>","null",""
"","","","","","survey-text","113","400901","0.0-113.0","872E23FBC78B443CA4793405A619B555","5a63c236-b7e0-47f5-a7d5-512d6052b104","60874837-17fe-43d8-ba5e-75a805c652dd","","33379","","{""Q0"":""I think when you select the red set of cards, the story continues chronologically, whereas with the other one it starts a random story.""}",""
"","","","","","survey-text","114","405912","0.0-114.0","872E23FBC78B443CA4793405A619B555","5a63c236-b7e0-47f5-a7d5-512d6052b104","60874837-17fe-43d8-ba5e-75a805c652dd","","5001","","{""Q0"":""The red one""}",""
"","","","","","html-button-response","115","415435","0.0-115.0","872E23FBC78B443CA4793405A619B555","5a63c236-b7e0-47f5-a7d5-512d6052b104","60874837-17fe-43d8-ba5e-75a805c652dd","","9521","Which color deck does the fourth image continue the story from the series?","1",""
"","","","","","html-button-response","116","417892","0.0-116.0","872E23FBC78B443CA4793405A619B555","5a63c236-b7e0-47f5-a7d5-512d6052b104","60874837-17fe-43d8-ba5e-75a805c652dd","","2455","Which color deck does the fourth image not follow the story from the series?","0",""
"","","","","","survey-text","117","423794","0.0-117.0","872E23FBC78B443CA4793405A619B555","5a63c236-b7e0-47f5-a7d5-512d6052b104","60874837-17fe-43d8-ba5e-75a805c652dd","","5891","","{""Q0"":""Male"",""Q1"":""32""}",""
"","","","","","instructions","118","434637","0.0-118.0","872E23FBC78B443CA4793405A619B555","5a63c236-b7e0-47f5-a7d5-512d6052b104","60874837-17fe-43d8-ba5e-75a805c652dd","[{""page_index"":0,""viewing_time"":10842}]","10842","","",""
