"success","timeout","failed_images","failed_audio","failed_video","trial_type","trial_index","time_elapsed","internal_node_id","subject_id","study_id","session_id","view_history","rt","stimulus","response","choice"
"true","false","[]","[]","[]","preload","0","18059","0.0-0.0","A57FCC953F3D48B993832F20BD986772","addf4069-dbbf-4f4a-a1b8-98475f0beb03","92e08bb8-2bb0-463c-bc98-cd72da82565c","","","","",""
"","","","","","instructions","1","83269","0.0-1.0","A57FCC953F3D48B993832F20BD986772","addf4069-dbbf-4f4a-a1b8-98475f0beb03","92e08bb8-2bb0-463c-bc98-cd72da82565c","[{""page_index"":0,""viewing_time"":65211}]","65212","","",""
"","","","","","instructions","2","123795","0.0-2.0","A57FCC953F3D48B993832F20BD986772","addf4069-dbbf-4f4a-a1b8-98475f0beb03","92e08bb8-2bb0-463c-bc98-cd72da82565c","[{""page_index"":0,""viewing_time"":40526}]","40526","","",""
"true","","","","","fullscreen","3","126471","0.0-3.0","A57FCC953F3D48B993832F20BD986772","addf4069-dbbf-4f4a-a1b8-98475f0beb03","92e08bb8-2bb0-463c-bc98-cd72da82565c","","1673","","",""
"","","","","","instructions","4","134210","0.0-4.0","A57FCC953F3D48B993832F20BD986772","addf4069-dbbf-4f4a-a1b8-98475f0beb03","92e08bb8-2bb0-463c-bc98-cd72da82565c","[{""page_index"":0,""viewing_time"":7739}]","7739","","",""
"","","","","","html-keyboard-response","5","137216","0.0-5.0","A57FCC953F3D48B993832F20BD986772","addf4069-dbbf-4f4a-a1b8-98475f0beb03","92e08bb8-2bb0-463c-bc98-cd72da82565c","","null","<div style=""display: flex; justify-content: center; align-items: center;"">
                <img src=""images/causal/causal_series_16/causal_series_16_a.jpg"" style=""width: 300px; height: 300px;"" />
              </div>","null",""
"","","","","","html-keyboard-response","6","140226","0.0-6.0","A57FCC953F3D48B993832F20BD986772","addf4069-dbbf-4f4a-a1b8-98475f0beb03","92e08bb8-2bb0-463c-bc98-cd72da82565c","","null","<div style=""display: flex; justify-content: center; align-items: center;"">
                <img src=""images/causal/causal_series_16/causal_series_16_b.jpg"" style=""width: 300px; height: 300px;"" />
              </div>","null",""
"","","","","","html-keyboard-response","7","143231","0.0-7.0","A57FCC953F3D48B993832F20BD986772","addf4069-dbbf-4f4a-a1b8-98475f0beb03","92e08bb8-2bb0-463c-bc98-cd72da82565c","","null","<div style=""display: flex; justify-content: center; align-items: center;"">
                <img src=""images/causal/causal_series_16/causal_series_16_c.jpg"" style=""width: 300px; height: 300px;"" />
              </div>","null",""
"","","","","","html-button-response","8","144960","0.0-8.0","A57FCC953F3D48B993832F20BD986772","addf4069-dbbf-4f4a-a1b8-98475f0beb03","92e08bb8-2bb0-463c-bc98-cd72da82565c","","1728","
    <div style=""display: flex; justify-content: center; align-items: center;"">
      <img src=""images/blue_deck_1.png"" style=""width: 300px; height: 300px; margin-right: 10px;"" />
      <img src=""images/red_deck_2.png"" style=""width: 300px; height: 300px;"" />
    </div>","0","0"
"","","","","","html-keyboard-response","9","147971","0.0-9.0-0.0-0.0","A57FCC953F3D48B993832F20BD986772","addf4069-dbbf-4f4a-a1b8-98475f0beb03","92e08bb8-2bb0-463c-bc98-cd72da82565c","","null","<div style=""display: flex; justify-content: center; align-items: center;"">
                <img src=""images/causal/causal_series_16/causal_series_16_d.jpg"" style=""width: 300px; height: 300px;"" />
              </div>","null",""
"","","","","","html-keyboard-response","10","150975","0.0-10.0","A57FCC953F3D48B993832F20BD986772","addf4069-dbbf-4f4a-a1b8-98475f0beb03","92e08bb8-2bb0-463c-bc98-cd72da82565c","","null","<div style=""display: flex; justify-content: center; align-items: center;"">
                <img src=""images/other/blank.jpg"" style=""width: 300px; height: 300px;"" />
              </div>","null",""
"","","","","","html-keyboard-response","11","153977","0.0-11.0","A57FCC953F3D48B993832F20BD986772","addf4069-dbbf-4f4a-a1b8-98475f0beb03","92e08bb8-2bb0-463c-bc98-cd72da82565c","","null","<div style=""display: flex; justify-content: center; align-items: center;"">
                <img src=""images/causal/causal_series_18/causal_series_18_a.jpg"" style=""width: 300px; height: 300px;"" />
              </div>","null",""
"","","","","","html-keyboard-response","12","156985","0.0-12.0","A57FCC953F3D48B993832F20BD986772","addf4069-dbbf-4f4a-a1b8-98475f0beb03","92e08bb8-2bb0-463c-bc98-cd72da82565c","","null","<div style=""display: flex; justify-content: center; align-items: center;"">
                <img src=""images/causal/causal_series_18/causal_series_18_b.jpg"" style=""width: 300px; height: 300px;"" />
              </div>","null",""
"","","","","","html-keyboard-response","13","160001","0.0-13.0","A57FCC953F3D48B993832F20BD986772","addf4069-dbbf-4f4a-a1b8-98475f0beb03","92e08bb8-2bb0-463c-bc98-cd72da82565c","","null","<div style=""display: flex; justify-content: center; align-items: center;"">
                <img src=""images/causal/causal_series_18/causal_series_18_c.jpg"" style=""width: 300px; height: 300px;"" />
              </div>","null",""
"","","","","","html-button-response","14","162152","0.0-14.0","A57FCC953F3D48B993832F20BD986772","addf4069-dbbf-4f4a-a1b8-98475f0beb03","92e08bb8-2bb0-463c-bc98-cd72da82565c","","2149","
    <div style=""display: flex; justify-content: center; align-items: center;"">
      <img src=""images/blue_deck_1.png"" style=""width: 300px; height: 300px; margin-right: 10px;"" />
      <img src=""images/red_deck_2.png"" style=""width: 300px; height: 300px;"" />
    </div>","1","1"
"","","","","","html-keyboard-response","15","165167","0.0-15.0-1.0-0.0","A57FCC953F3D48B993832F20BD986772","addf4069-dbbf-4f4a-a1b8-98475f0beb03","92e08bb8-2bb0-463c-bc98-cd72da82565c","","null","<div style=""display: flex; justify-content: center; align-items: center;"">
                <img src=""images/semantic/semantic_series_17/semantic_series_17_d.jpg"" style=""width: 300px; height: 300px;"" />
              </div>","null",""
"","","","","","html-keyboard-response","16","168181","0.0-16.0","A57FCC953F3D48B993832F20BD986772","addf4069-dbbf-4f4a-a1b8-98475f0beb03","92e08bb8-2bb0-463c-bc98-cd72da82565c","","null","<div style=""display: flex; justify-content: center; align-items: center;"">
                <img src=""images/other/blank.jpg"" style=""width: 300px; height: 300px;"" />
              </div>","null",""
"","","","","","html-keyboard-response","17","171188","0.0-17.0","A57FCC953F3D48B993832F20BD986772","addf4069-dbbf-4f4a-a1b8-98475f0beb03","92e08bb8-2bb0-463c-bc98-cd72da82565c","","null","<div style=""display: flex; justify-content: center; align-items: center;"">
                <img src=""images/causal/causal_series_12/causal_series_12_a.jpg"" style=""width: 300px; height: 300px;"" />
              </div>","null",""
"","","","","","html-keyboard-response","18","174204","0.0-18.0","A57FCC953F3D48B993832F20BD986772","addf4069-dbbf-4f4a-a1b8-98475f0beb03","92e08bb8-2bb0-463c-bc98-cd72da82565c","","null","<div style=""display: flex; justify-content: center; align-items: center;"">
                <img src=""images/causal/causal_series_12/causal_series_12_b.jpg"" style=""width: 300px; height: 300px;"" />
              </div>","null",""
"","","","","","html-keyboard-response","19","177207","0.0-19.0","A57FCC953F3D48B993832F20BD986772","addf4069-dbbf-4f4a-a1b8-98475f0beb03","92e08bb8-2bb0-463c-bc98-cd72da82565c","","null","<div style=""display: flex; justify-content: center; align-items: center;"">
                <img src=""images/causal/causal_series_12/causal_series_12_c.jpg"" style=""width: 300px; height: 300px;"" />
              </div>","null",""
"","","","","","html-button-response","20","180506","0.0-20.0","A57FCC953F3D48B993832F20BD986772","addf4069-dbbf-4f4a-a1b8-98475f0beb03","92e08bb8-2bb0-463c-bc98-cd72da82565c","","3298","
    <div style=""display: flex; justify-content: center; align-items: center;"">
      <img src=""images/blue_deck_1.png"" style=""width: 300px; height: 300px; margin-right: 10px;"" />
      <img src=""images/red_deck_2.png"" style=""width: 300px; height: 300px;"" />
    </div>","1","1"
"","","","","","html-keyboard-response","21","183517","0.0-21.0-1.0-0.0","A57FCC953F3D48B993832F20BD986772","addf4069-dbbf-4f4a-a1b8-98475f0beb03","92e08bb8-2bb0-463c-bc98-cd72da82565c","","null","<div style=""display: flex; justify-content: center; align-items: center;"">
                <img src=""images/semantic/semantic_series_11/semantic_series_11_d.jpg"" style=""width: 300px; height: 300px;"" />
              </div>","null",""
"","","","","","html-keyboard-response","22","186525","0.0-22.0","A57FCC953F3D48B993832F20BD986772","addf4069-dbbf-4f4a-a1b8-98475f0beb03","92e08bb8-2bb0-463c-bc98-cd72da82565c","","null","<div style=""display: flex; justify-content: center; align-items: center;"">
                <img src=""images/other/blank.jpg"" style=""width: 300px; height: 300px;"" />
              </div>","null",""
"","","","","","html-keyboard-response","23","189528","0.0-23.0","A57FCC953F3D48B993832F20BD986772","addf4069-dbbf-4f4a-a1b8-98475f0beb03","92e08bb8-2bb0-463c-bc98-cd72da82565c","","null","<div style=""display: flex; justify-content: center; align-items: center;"">
                <img src=""images/causal/causal_series_17/causal_series_17_a.jpg"" style=""width: 300px; height: 300px;"" />
              </div>","null",""
"","","","","","html-keyboard-response","24","192530","0.0-24.0","A57FCC953F3D48B993832F20BD986772","addf4069-dbbf-4f4a-a1b8-98475f0beb03","92e08bb8-2bb0-463c-bc98-cd72da82565c","","null","<div style=""display: flex; justify-content: center; align-items: center;"">
                <img src=""images/causal/causal_series_17/causal_series_17_b.jpg"" style=""width: 300px; height: 300px;"" />
              </div>","null",""
"","","","","","html-keyboard-response","25","195532","0.0-25.0","A57FCC953F3D48B993832F20BD986772","addf4069-dbbf-4f4a-a1b8-98475f0beb03","92e08bb8-2bb0-463c-bc98-cd72da82565c","","null","<div style=""display: flex; justify-content: center; align-items: center;"">
                <img src=""images/causal/causal_series_17/causal_series_17_c.jpg"" style=""width: 300px; height: 300px;"" />
              </div>","null",""
"","","","","","html-button-response","26","197385","0.0-26.0","A57FCC953F3D48B993832F20BD986772","addf4069-dbbf-4f4a-a1b8-98475f0beb03","92e08bb8-2bb0-463c-bc98-cd72da82565c","","1851","
    <div style=""display: flex; justify-content: center; align-items: center;"">
      <img src=""images/blue_deck_1.png"" style=""width: 300px; height: 300px; margin-right: 10px;"" />
      <img src=""images/red_deck_2.png"" style=""width: 300px; height: 300px;"" />
    </div>","0","0"
"","","","","","html-keyboard-response","27","200391","0.0-27.0-0.0-0.0","A57FCC953F3D48B993832F20BD986772","addf4069-dbbf-4f4a-a1b8-98475f0beb03","92e08bb8-2bb0-463c-bc98-cd72da82565c","","null","<div style=""display: flex; justify-content: center; align-items: center;"">
                <img src=""images/causal/causal_series_17/causal_series_17_d.jpg"" style=""width: 300px; height: 300px;"" />
              </div>","null",""
"","","","","","html-keyboard-response","28","203405","0.0-28.0","A57FCC953F3D48B993832F20BD986772","addf4069-dbbf-4f4a-a1b8-98475f0beb03","92e08bb8-2bb0-463c-bc98-cd72da82565c","","null","<div style=""display: flex; justify-content: center; align-items: center;"">
                <img src=""images/other/blank.jpg"" style=""width: 300px; height: 300px;"" />
              </div>","null",""
"","","","","","html-keyboard-response","29","206407","0.0-29.0","A57FCC953F3D48B993832F20BD986772","addf4069-dbbf-4f4a-a1b8-98475f0beb03","92e08bb8-2bb0-463c-bc98-cd72da82565c","","null","<div style=""display: flex; justify-content: center; align-items: center;"">
                <img src=""images/causal/causal_series_2/causal_series_2_a.jpg"" style=""width: 300px; height: 300px;"" />
              </div>","null",""
"","","","","","html-keyboard-response","30","209416","0.0-30.0","A57FCC953F3D48B993832F20BD986772","addf4069-dbbf-4f4a-a1b8-98475f0beb03","92e08bb8-2bb0-463c-bc98-cd72da82565c","","null","<div style=""display: flex; justify-content: center; align-items: center;"">
                <img src=""images/causal/causal_series_2/causal_series_2_b.jpg"" style=""width: 300px; height: 300px;"" />
              </div>","null",""
"","","","","","html-keyboard-response","31","212423","0.0-31.0","A57FCC953F3D48B993832F20BD986772","addf4069-dbbf-4f4a-a1b8-98475f0beb03","92e08bb8-2bb0-463c-bc98-cd72da82565c","","null","<div style=""display: flex; justify-content: center; align-items: center;"">
                <img src=""images/causal/causal_series_2/causal_series_2_c.jpg"" style=""width: 300px; height: 300px;"" />
              </div>","null",""
"","","","","","html-button-response","32","214333","0.0-32.0","A57FCC953F3D48B993832F20BD986772","addf4069-dbbf-4f4a-a1b8-98475f0beb03","92e08bb8-2bb0-463c-bc98-cd72da82565c","","1909","
    <div style=""display: flex; justify-content: center; align-items: center;"">
      <img src=""images/blue_deck_1.png"" style=""width: 300px; height: 300px; margin-right: 10px;"" />
      <img src=""images/red_deck_2.png"" style=""width: 300px; height: 300px;"" />
    </div>","0","0"
"","","","","","html-keyboard-response","33","217346","0.0-33.0-0.0-0.0","A57FCC953F3D48B993832F20BD986772","addf4069-dbbf-4f4a-a1b8-98475f0beb03","92e08bb8-2bb0-463c-bc98-cd72da82565c","","null","<div style=""display: flex; justify-content: center; align-items: center;"">
                <img src=""images/causal/causal_series_2/causal_series_2_d.jpg"" style=""width: 300px; height: 300px;"" />
              </div>","null",""
"","","","","","html-keyboard-response","34","220350","0.0-34.0","A57FCC953F3D48B993832F20BD986772","addf4069-dbbf-4f4a-a1b8-98475f0beb03","92e08bb8-2bb0-463c-bc98-cd72da82565c","","null","<div style=""display: flex; justify-content: center; align-items: center;"">
                <img src=""images/other/blank.jpg"" style=""width: 300px; height: 300px;"" />
              </div>","null",""
"","","","","","html-keyboard-response","35","223363","0.0-35.0","A57FCC953F3D48B993832F20BD986772","addf4069-dbbf-4f4a-a1b8-98475f0beb03","92e08bb8-2bb0-463c-bc98-cd72da82565c","","null","<div style=""display: flex; justify-content: center; align-items: center;"">
                <img src=""images/causal/causal_series_4/causal_series_4_a.jpg"" style=""width: 300px; height: 300px;"" />
              </div>","null",""
"","","","","","html-keyboard-response","36","226373","0.0-36.0","A57FCC953F3D48B993832F20BD986772","addf4069-dbbf-4f4a-a1b8-98475f0beb03","92e08bb8-2bb0-463c-bc98-cd72da82565c","","null","<div style=""display: flex; justify-content: center; align-items: center;"">
                <img src=""images/causal/causal_series_4/causal_series_4_b.jpg"" style=""width: 300px; height: 300px;"" />
              </div>","null",""
"","","","","","html-keyboard-response","37","229377","0.0-37.0","A57FCC953F3D48B993832F20BD986772","addf4069-dbbf-4f4a-a1b8-98475f0beb03","92e08bb8-2bb0-463c-bc98-cd72da82565c","","null","<div style=""display: flex; justify-content: center; align-items: center;"">
                <img src=""images/causal/causal_series_4/causal_series_4_c.jpg"" style=""width: 300px; height: 300px;"" />
              </div>","null",""
"","","","","","html-button-response","38","232069","0.0-38.0","A57FCC953F3D48B993832F20BD986772","addf4069-dbbf-4f4a-a1b8-98475f0beb03","92e08bb8-2bb0-463c-bc98-cd72da82565c","","2691","
    <div style=""display: flex; justify-content: center; align-items: center;"">
      <img src=""images/blue_deck_1.png"" style=""width: 300px; height: 300px; margin-right: 10px;"" />
      <img src=""images/red_deck_2.png"" style=""width: 300px; height: 300px;"" />
    </div>","0","0"
"","","","","","html-keyboard-response","39","235077","0.0-39.0-0.0-0.0","A57FCC953F3D48B993832F20BD986772","addf4069-dbbf-4f4a-a1b8-98475f0beb03","92e08bb8-2bb0-463c-bc98-cd72da82565c","","null","<div style=""display: flex; justify-content: center; align-items: center;"">
                <img src=""images/causal/causal_series_4/causal_series_4_d.jpg"" style=""width: 300px; height: 300px;"" />
              </div>","null",""
"","","","","","html-keyboard-response","40","238080","0.0-40.0","A57FCC953F3D48B993832F20BD986772","addf4069-dbbf-4f4a-a1b8-98475f0beb03","92e08bb8-2bb0-463c-bc98-cd72da82565c","","null","<div style=""display: flex; justify-content: center; align-items: center;"">
                <img src=""images/other/blank.jpg"" style=""width: 300px; height: 300px;"" />
              </div>","null",""
"","","","","","html-keyboard-response","41","241093","0.0-41.0","A57FCC953F3D48B993832F20BD986772","addf4069-dbbf-4f4a-a1b8-98475f0beb03","92e08bb8-2bb0-463c-bc98-cd72da82565c","","null","<div style=""display: flex; justify-content: center; align-items: center;"">
                <img src=""images/causal/causal_series_9/causal_series_9_a.jpg"" style=""width: 300px; height: 300px;"" />
              </div>","null",""
"","","","","","html-keyboard-response","42","244097","0.0-42.0","A57FCC953F3D48B993832F20BD986772","addf4069-dbbf-4f4a-a1b8-98475f0beb03","92e08bb8-2bb0-463c-bc98-cd72da82565c","","null","<div style=""display: flex; justify-content: center; align-items: center;"">
                <img src=""images/causal/causal_series_9/causal_series_9_b.jpg"" style=""width: 300px; height: 300px;"" />
              </div>","null",""
"","","","","","html-keyboard-response","43","247098","0.0-43.0","A57FCC953F3D48B993832F20BD986772","addf4069-dbbf-4f4a-a1b8-98475f0beb03","92e08bb8-2bb0-463c-bc98-cd72da82565c","","null","<div style=""display: flex; justify-content: center; align-items: center;"">
                <img src=""images/causal/causal_series_9/causal_series_9_c.jpg"" style=""width: 300px; height: 300px;"" />
              </div>","null",""
"","","","","","html-button-response","44","248542","0.0-44.0","A57FCC953F3D48B993832F20BD986772","addf4069-dbbf-4f4a-a1b8-98475f0beb03","92e08bb8-2bb0-463c-bc98-cd72da82565c","","1443","
    <div style=""display: flex; justify-content: center; align-items: center;"">
      <img src=""images/blue_deck_1.png"" style=""width: 300px; height: 300px; margin-right: 10px;"" />
      <img src=""images/red_deck_2.png"" style=""width: 300px; height: 300px;"" />
    </div>","1","1"
"","","","","","html-keyboard-response","45","251552","0.0-45.0-1.0-0.0","A57FCC953F3D48B993832F20BD986772","addf4069-dbbf-4f4a-a1b8-98475f0beb03","92e08bb8-2bb0-463c-bc98-cd72da82565c","","null","<div style=""display: flex; justify-content: center; align-items: center;"">
                <img src=""images/semantic/semantic_series_8/semantic_series_8_d.jpg"" style=""width: 300px; height: 300px;"" />
              </div>","null",""
"","","","","","html-keyboard-response","46","254563","0.0-46.0","A57FCC953F3D48B993832F20BD986772","addf4069-dbbf-4f4a-a1b8-98475f0beb03","92e08bb8-2bb0-463c-bc98-cd72da82565c","","null","<div style=""display: flex; justify-content: center; align-items: center;"">
                <img src=""images/other/blank.jpg"" style=""width: 300px; height: 300px;"" />
              </div>","null",""
"","","","","","html-keyboard-response","47","257570","0.0-47.0","A57FCC953F3D48B993832F20BD986772","addf4069-dbbf-4f4a-a1b8-98475f0beb03","92e08bb8-2bb0-463c-bc98-cd72da82565c","","null","<div style=""display: flex; justify-content: center; align-items: center;"">
                <img src=""images/causal/causal_series_15/causal_series_15_a.jpg"" style=""width: 300px; height: 300px;"" />
              </div>","null",""
"","","","","","html-keyboard-response","48","260577","0.0-48.0","A57FCC953F3D48B993832F20BD986772","addf4069-dbbf-4f4a-a1b8-98475f0beb03","92e08bb8-2bb0-463c-bc98-cd72da82565c","","null","<div style=""display: flex; justify-content: center; align-items: center;"">
                <img src=""images/causal/causal_series_15/causal_series_15_b.jpg"" style=""width: 300px; height: 300px;"" />
              </div>","null",""
"","","","","","html-keyboard-response","49","263578","0.0-49.0","A57FCC953F3D48B993832F20BD986772","addf4069-dbbf-4f4a-a1b8-98475f0beb03","92e08bb8-2bb0-463c-bc98-cd72da82565c","","null","<div style=""display: flex; justify-content: center; align-items: center;"">
                <img src=""images/causal/causal_series_15/causal_series_15_c.jpg"" style=""width: 300px; height: 300px;"" />
              </div>","null",""
"","","","","","html-button-response","50","264259","0.0-50.0","A57FCC953F3D48B993832F20BD986772","addf4069-dbbf-4f4a-a1b8-98475f0beb03","92e08bb8-2bb0-463c-bc98-cd72da82565c","","680","
    <div style=""display: flex; justify-content: center; align-items: center;"">
      <img src=""images/blue_deck_1.png"" style=""width: 300px; height: 300px; margin-right: 10px;"" />
      <img src=""images/red_deck_2.png"" style=""width: 300px; height: 300px;"" />
    </div>","0","0"
"","","","","","html-keyboard-response","51","267264","0.0-51.0-0.0-0.0","A57FCC953F3D48B993832F20BD986772","addf4069-dbbf-4f4a-a1b8-98475f0beb03","92e08bb8-2bb0-463c-bc98-cd72da82565c","","null","<div style=""display: flex; justify-content: center; align-items: center;"">
                <img src=""images/causal/causal_series_15/causal_series_15_d.jpg"" style=""width: 300px; height: 300px;"" />
              </div>","null",""
"","","","","","html-keyboard-response","52","270273","0.0-52.0","A57FCC953F3D48B993832F20BD986772","addf4069-dbbf-4f4a-a1b8-98475f0beb03","92e08bb8-2bb0-463c-bc98-cd72da82565c","","null","<div style=""display: flex; justify-content: center; align-items: center;"">
                <img src=""images/other/blank.jpg"" style=""width: 300px; height: 300px;"" />
              </div>","null",""
"","","","","","html-keyboard-response","53","273280","0.0-53.0","A57FCC953F3D48B993832F20BD986772","addf4069-dbbf-4f4a-a1b8-98475f0beb03","92e08bb8-2bb0-463c-bc98-cd72da82565c","","null","<div style=""display: flex; justify-content: center; align-items: center;"">
                <img src=""images/causal/causal_series_1/causal_series_1_a.jpg"" style=""width: 300px; height: 300px;"" />
              </div>","null",""
"","","","","","html-keyboard-response","54","276296","0.0-54.0","A57FCC953F3D48B993832F20BD986772","addf4069-dbbf-4f4a-a1b8-98475f0beb03","92e08bb8-2bb0-463c-bc98-cd72da82565c","","null","<div style=""display: flex; justify-content: center; align-items: center;"">
                <img src=""images/causal/causal_series_1/causal_series_1_b.jpg"" style=""width: 300px; height: 300px;"" />
              </div>","null",""
"","","","","","html-keyboard-response","55","279310","0.0-55.0","A57FCC953F3D48B993832F20BD986772","addf4069-dbbf-4f4a-a1b8-98475f0beb03","92e08bb8-2bb0-463c-bc98-cd72da82565c","","null","<div style=""display: flex; justify-content: center; align-items: center;"">
                <img src=""images/causal/causal_series_1/causal_series_1_c.jpg"" style=""width: 300px; height: 300px;"" />
              </div>","null",""
"","","","","","html-button-response","56","279899","0.0-56.0","A57FCC953F3D48B993832F20BD986772","addf4069-dbbf-4f4a-a1b8-98475f0beb03","92e08bb8-2bb0-463c-bc98-cd72da82565c","","588","
    <div style=""display: flex; justify-content: center; align-items: center;"">
      <img src=""images/blue_deck_1.png"" style=""width: 300px; height: 300px; margin-right: 10px;"" />
      <img src=""images/red_deck_2.png"" style=""width: 300px; height: 300px;"" />
    </div>","1","1"
"","","","","","html-keyboard-response","57","282904","0.0-57.0-1.0-0.0","A57FCC953F3D48B993832F20BD986772","addf4069-dbbf-4f4a-a1b8-98475f0beb03","92e08bb8-2bb0-463c-bc98-cd72da82565c","","null","<div style=""display: flex; justify-content: center; align-items: center;"">
                <img src=""images/semantic/semantic_series_18/semantic_series_18_d.jpg"" style=""width: 300px; height: 300px;"" />
              </div>","null",""
"","","","","","html-keyboard-response","58","285905","0.0-58.0","A57FCC953F3D48B993832F20BD986772","addf4069-dbbf-4f4a-a1b8-98475f0beb03","92e08bb8-2bb0-463c-bc98-cd72da82565c","","null","<div style=""display: flex; justify-content: center; align-items: center;"">
                <img src=""images/other/blank.jpg"" style=""width: 300px; height: 300px;"" />
              </div>","null",""
"","","","","","html-keyboard-response","59","288918","0.0-59.0","A57FCC953F3D48B993832F20BD986772","addf4069-dbbf-4f4a-a1b8-98475f0beb03","92e08bb8-2bb0-463c-bc98-cd72da82565c","","null","<div style=""display: flex; justify-content: center; align-items: center;"">
                <img src=""images/causal/causal_series_7/causal_series_7_a.jpg"" style=""width: 300px; height: 300px;"" />
              </div>","null",""
"","","","","","html-keyboard-response","60","291927","0.0-60.0","A57FCC953F3D48B993832F20BD986772","addf4069-dbbf-4f4a-a1b8-98475f0beb03","92e08bb8-2bb0-463c-bc98-cd72da82565c","","null","<div style=""display: flex; justify-content: center; align-items: center;"">
                <img src=""images/causal/causal_series_7/causal_series_7_b.jpg"" style=""width: 300px; height: 300px;"" />
              </div>","null",""
"","","","","","html-keyboard-response","61","294933","0.0-61.0","A57FCC953F3D48B993832F20BD986772","addf4069-dbbf-4f4a-a1b8-98475f0beb03","92e08bb8-2bb0-463c-bc98-cd72da82565c","","null","<div style=""display: flex; justify-content: center; align-items: center;"">
                <img src=""images/causal/causal_series_7/causal_series_7_c.jpg"" style=""width: 300px; height: 300px;"" />
              </div>","null",""
"","","","","","html-button-response","62","296580","0.0-62.0","A57FCC953F3D48B993832F20BD986772","addf4069-dbbf-4f4a-a1b8-98475f0beb03","92e08bb8-2bb0-463c-bc98-cd72da82565c","","1645","
    <div style=""display: flex; justify-content: center; align-items: center;"">
      <img src=""images/blue_deck_1.png"" style=""width: 300px; height: 300px; margin-right: 10px;"" />
      <img src=""images/red_deck_2.png"" style=""width: 300px; height: 300px;"" />
    </div>","0","0"
"","","","","","html-keyboard-response","63","299595","0.0-63.0-0.0-0.0","A57FCC953F3D48B993832F20BD986772","addf4069-dbbf-4f4a-a1b8-98475f0beb03","92e08bb8-2bb0-463c-bc98-cd72da82565c","","null","<div style=""display: flex; justify-content: center; align-items: center;"">
                <img src=""images/causal/causal_series_7/causal_series_7_d.jpg"" style=""width: 300px; height: 300px;"" />
              </div>","null",""
"","","","","","html-keyboard-response","64","302604","0.0-64.0","A57FCC953F3D48B993832F20BD986772","addf4069-dbbf-4f4a-a1b8-98475f0beb03","92e08bb8-2bb0-463c-bc98-cd72da82565c","","null","<div style=""display: flex; justify-content: center; align-items: center;"">
                <img src=""images/other/blank.jpg"" style=""width: 300px; height: 300px;"" />
              </div>","null",""
"","","","","","html-keyboard-response","65","305607","0.0-65.0","A57FCC953F3D48B993832F20BD986772","addf4069-dbbf-4f4a-a1b8-98475f0beb03","92e08bb8-2bb0-463c-bc98-cd72da82565c","","null","<div style=""display: flex; justify-content: center; align-items: center;"">
                <img src=""images/causal/causal_series_6/causal_series_6_a.jpg"" style=""width: 300px; height: 300px;"" />
              </div>","null",""
"","","","","","html-keyboard-response","66","308609","0.0-66.0","A57FCC953F3D48B993832F20BD986772","addf4069-dbbf-4f4a-a1b8-98475f0beb03","92e08bb8-2bb0-463c-bc98-cd72da82565c","","null","<div style=""display: flex; justify-content: center; align-items: center;"">
                <img src=""images/causal/causal_series_6/causal_series_6_b.jpg"" style=""width: 300px; height: 300px;"" />
              </div>","null",""
"","","","","","html-keyboard-response","67","311625","0.0-67.0","A57FCC953F3D48B993832F20BD986772","addf4069-dbbf-4f4a-a1b8-98475f0beb03","92e08bb8-2bb0-463c-bc98-cd72da82565c","","null","<div style=""display: flex; justify-content: center; align-items: center;"">
                <img src=""images/causal/causal_series_6/causal_series_6_c.jpg"" style=""width: 300px; height: 300px;"" />
              </div>","null",""
"","","","","","html-button-response","68","312211","0.0-68.0","A57FCC953F3D48B993832F20BD986772","addf4069-dbbf-4f4a-a1b8-98475f0beb03","92e08bb8-2bb0-463c-bc98-cd72da82565c","","585","
    <div style=""display: flex; justify-content: center; align-items: center;"">
      <img src=""images/blue_deck_1.png"" style=""width: 300px; height: 300px; margin-right: 10px;"" />
      <img src=""images/red_deck_2.png"" style=""width: 300px; height: 300px;"" />
    </div>","0","0"
"","","","","","html-keyboard-response","69","315217","0.0-69.0-0.0-0.0","A57FCC953F3D48B993832F20BD986772","addf4069-dbbf-4f4a-a1b8-98475f0beb03","92e08bb8-2bb0-463c-bc98-cd72da82565c","","null","<div style=""display: flex; justify-content: center; align-items: center;"">
                <img src=""images/causal/causal_series_6/causal_series_6_d.jpg"" style=""width: 300px; height: 300px;"" />
              </div>","null",""
"","","","","","html-keyboard-response","70","318222","0.0-70.0","A57FCC953F3D48B993832F20BD986772","addf4069-dbbf-4f4a-a1b8-98475f0beb03","92e08bb8-2bb0-463c-bc98-cd72da82565c","","null","<div style=""display: flex; justify-content: center; align-items: center;"">
                <img src=""images/other/blank.jpg"" style=""width: 300px; height: 300px;"" />
              </div>","null",""
"","","","","","html-keyboard-response","71","321236","0.0-71.0","A57FCC953F3D48B993832F20BD986772","addf4069-dbbf-4f4a-a1b8-98475f0beb03","92e08bb8-2bb0-463c-bc98-cd72da82565c","","null","<div style=""display: flex; justify-content: center; align-items: center;"">
                <img src=""images/causal/causal_series_10/causal_series_10_a.jpg"" style=""width: 300px; height: 300px;"" />
              </div>","null",""
"","","","","","html-keyboard-response","72","324235","0.0-72.0","A57FCC953F3D48B993832F20BD986772","addf4069-dbbf-4f4a-a1b8-98475f0beb03","92e08bb8-2bb0-463c-bc98-cd72da82565c","","null","<div style=""display: flex; justify-content: center; align-items: center;"">
                <img src=""images/causal/causal_series_10/causal_series_10_b.jpg"" style=""width: 300px; height: 300px;"" />
              </div>","null",""
"","","","","","html-keyboard-response","73","327243","0.0-73.0","A57FCC953F3D48B993832F20BD986772","addf4069-dbbf-4f4a-a1b8-98475f0beb03","92e08bb8-2bb0-463c-bc98-cd72da82565c","","null","<div style=""display: flex; justify-content: center; align-items: center;"">
                <img src=""images/causal/causal_series_10/causal_series_10_c.jpg"" style=""width: 300px; height: 300px;"" />
              </div>","null",""
"","","","","","html-button-response","74","328120","0.0-74.0","A57FCC953F3D48B993832F20BD986772","addf4069-dbbf-4f4a-a1b8-98475f0beb03","92e08bb8-2bb0-463c-bc98-cd72da82565c","","876","
    <div style=""display: flex; justify-content: center; align-items: center;"">
      <img src=""images/blue_deck_1.png"" style=""width: 300px; height: 300px; margin-right: 10px;"" />
      <img src=""images/red_deck_2.png"" style=""width: 300px; height: 300px;"" />
    </div>","1","1"
"","","","","","html-keyboard-response","75","331130","0.0-75.0-1.0-0.0","A57FCC953F3D48B993832F20BD986772","addf4069-dbbf-4f4a-a1b8-98475f0beb03","92e08bb8-2bb0-463c-bc98-cd72da82565c","","null","<div style=""display: flex; justify-content: center; align-items: center;"">
                <img src=""images/semantic/semantic_series_9/semantic_series_9_d.jpg"" style=""width: 300px; height: 300px;"" />
              </div>","null",""
"","","","","","html-keyboard-response","76","334145","0.0-76.0","A57FCC953F3D48B993832F20BD986772","addf4069-dbbf-4f4a-a1b8-98475f0beb03","92e08bb8-2bb0-463c-bc98-cd72da82565c","","null","<div style=""display: flex; justify-content: center; align-items: center;"">
                <img src=""images/other/blank.jpg"" style=""width: 300px; height: 300px;"" />
              </div>","null",""
"","","","","","html-keyboard-response","77","337156","0.0-77.0","A57FCC953F3D48B993832F20BD986772","addf4069-dbbf-4f4a-a1b8-98475f0beb03","92e08bb8-2bb0-463c-bc98-cd72da82565c","","null","<div style=""display: flex; justify-content: center; align-items: center;"">
                <img src=""images/causal/causal_series_14/causal_series_14_a.jpg"" style=""width: 300px; height: 300px;"" />
              </div>","null",""
"","","","","","html-keyboard-response","78","340158","0.0-78.0","A57FCC953F3D48B993832F20BD986772","addf4069-dbbf-4f4a-a1b8-98475f0beb03","92e08bb8-2bb0-463c-bc98-cd72da82565c","","null","<div style=""display: flex; justify-content: center; align-items: center;"">
                <img src=""images/causal/causal_series_14/causal_series_14_b.jpg"" style=""width: 300px; height: 300px;"" />
              </div>","null",""
"","","","","","html-keyboard-response","79","343167","0.0-79.0","A57FCC953F3D48B993832F20BD986772","addf4069-dbbf-4f4a-a1b8-98475f0beb03","92e08bb8-2bb0-463c-bc98-cd72da82565c","","null","<div style=""display: flex; justify-content: center; align-items: center;"">
                <img src=""images/causal/causal_series_14/causal_series_14_c.jpg"" style=""width: 300px; height: 300px;"" />
              </div>","null",""
"","","","","","html-button-response","80","343920","0.0-80.0","A57FCC953F3D48B993832F20BD986772","addf4069-dbbf-4f4a-a1b8-98475f0beb03","92e08bb8-2bb0-463c-bc98-cd72da82565c","","752","
    <div style=""display: flex; justify-content: center; align-items: center;"">
      <img src=""images/blue_deck_1.png"" style=""width: 300px; height: 300px; margin-right: 10px;"" />
      <img src=""images/red_deck_2.png"" style=""width: 300px; height: 300px;"" />
    </div>","0","0"
"","","","","","html-keyboard-response","81","346924","0.0-81.0-0.0-0.0","A57FCC953F3D48B993832F20BD986772","addf4069-dbbf-4f4a-a1b8-98475f0beb03","92e08bb8-2bb0-463c-bc98-cd72da82565c","","null","<div style=""display: flex; justify-content: center; align-items: center;"">
                <img src=""images/causal/causal_series_14/causal_series_14_d.jpg"" style=""width: 300px; height: 300px;"" />
              </div>","null",""
"","","","","","html-keyboard-response","82","349935","0.0-82.0","A57FCC953F3D48B993832F20BD986772","addf4069-dbbf-4f4a-a1b8-98475f0beb03","92e08bb8-2bb0-463c-bc98-cd72da82565c","","null","<div style=""display: flex; justify-content: center; align-items: center;"">
                <img src=""images/other/blank.jpg"" style=""width: 300px; height: 300px;"" />
              </div>","null",""
"","","","","","html-keyboard-response","83","352936","0.0-83.0","A57FCC953F3D48B993832F20BD986772","addf4069-dbbf-4f4a-a1b8-98475f0beb03","92e08bb8-2bb0-463c-bc98-cd72da82565c","","null","<div style=""display: flex; justify-content: center; align-items: center;"">
                <img src=""images/causal/causal_series_5/causal_series_5_a.jpg"" style=""width: 300px; height: 300px;"" />
              </div>","null",""
"","","","","","html-keyboard-response","84","355938","0.0-84.0","A57FCC953F3D48B993832F20BD986772","addf4069-dbbf-4f4a-a1b8-98475f0beb03","92e08bb8-2bb0-463c-bc98-cd72da82565c","","null","<div style=""display: flex; justify-content: center; align-items: center;"">
                <img src=""images/causal/causal_series_5/causal_series_5_b.jpg"" style=""width: 300px; height: 300px;"" />
              </div>","null",""
"","","","","","html-keyboard-response","85","358948","0.0-85.0","A57FCC953F3D48B993832F20BD986772","addf4069-dbbf-4f4a-a1b8-98475f0beb03","92e08bb8-2bb0-463c-bc98-cd72da82565c","","null","<div style=""display: flex; justify-content: center; align-items: center;"">
                <img src=""images/causal/causal_series_5/causal_series_5_c.jpg"" style=""width: 300px; height: 300px;"" />
              </div>","null",""
"","","","","","html-button-response","86","360784","0.0-86.0","A57FCC953F3D48B993832F20BD986772","addf4069-dbbf-4f4a-a1b8-98475f0beb03","92e08bb8-2bb0-463c-bc98-cd72da82565c","","1835","
    <div style=""display: flex; justify-content: center; align-items: center;"">
      <img src=""images/blue_deck_1.png"" style=""width: 300px; height: 300px; margin-right: 10px;"" />
      <img src=""images/red_deck_2.png"" style=""width: 300px; height: 300px;"" />
    </div>","1","1"
"","","","","","html-keyboard-response","87","363792","0.0-87.0-1.0-0.0","A57FCC953F3D48B993832F20BD986772","addf4069-dbbf-4f4a-a1b8-98475f0beb03","92e08bb8-2bb0-463c-bc98-cd72da82565c","","null","<div style=""display: flex; justify-content: center; align-items: center;"">
                <img src=""images/semantic/semantic_series_4/semantic_series_4_d.jpg"" style=""width: 300px; height: 300px;"" />
              </div>","null",""
"","","","","","html-keyboard-response","88","366796","0.0-88.0","A57FCC953F3D48B993832F20BD986772","addf4069-dbbf-4f4a-a1b8-98475f0beb03","92e08bb8-2bb0-463c-bc98-cd72da82565c","","null","<div style=""display: flex; justify-content: center; align-items: center;"">
                <img src=""images/other/blank.jpg"" style=""width: 300px; height: 300px;"" />
              </div>","null",""
"","","","","","html-keyboard-response","89","369800","0.0-89.0","A57FCC953F3D48B993832F20BD986772","addf4069-dbbf-4f4a-a1b8-98475f0beb03","92e08bb8-2bb0-463c-bc98-cd72da82565c","","null","<div style=""display: flex; justify-content: center; align-items: center;"">
                <img src=""images/causal/causal_series_3/causal_series_3_a.jpg"" style=""width: 300px; height: 300px;"" />
              </div>","null",""
"","","","","","html-keyboard-response","90","372806","0.0-90.0","A57FCC953F3D48B993832F20BD986772","addf4069-dbbf-4f4a-a1b8-98475f0beb03","92e08bb8-2bb0-463c-bc98-cd72da82565c","","null","<div style=""display: flex; justify-content: center; align-items: center;"">
                <img src=""images/causal/causal_series_3/causal_series_3_b.jpg"" style=""width: 300px; height: 300px;"" />
              </div>","null",""
"","","","","","html-keyboard-response","91","375821","0.0-91.0","A57FCC953F3D48B993832F20BD986772","addf4069-dbbf-4f4a-a1b8-98475f0beb03","92e08bb8-2bb0-463c-bc98-cd72da82565c","","null","<div style=""display: flex; justify-content: center; align-items: center;"">
                <img src=""images/causal/causal_series_3/causal_series_3_c.jpg"" style=""width: 300px; height: 300px;"" />
              </div>","null",""
"","","","","","html-button-response","92","381784","0.0-92.0","A57FCC953F3D48B993832F20BD986772","addf4069-dbbf-4f4a-a1b8-98475f0beb03","92e08bb8-2bb0-463c-bc98-cd72da82565c","","5961","
    <div style=""display: flex; justify-content: center; align-items: center;"">
      <img src=""images/blue_deck_1.png"" style=""width: 300px; height: 300px; margin-right: 10px;"" />
      <img src=""images/red_deck_2.png"" style=""width: 300px; height: 300px;"" />
    </div>","0","0"
"","","","","","html-keyboard-response","93","384782","0.0-93.0-0.0-0.0","A57FCC953F3D48B993832F20BD986772","addf4069-dbbf-4f4a-a1b8-98475f0beb03","92e08bb8-2bb0-463c-bc98-cd72da82565c","","null","<div style=""display: flex; justify-content: center; align-items: center;"">
                <img src=""images/causal/causal_series_3/causal_series_3_d.jpg"" style=""width: 300px; height: 300px;"" />
              </div>","null",""
"","","","","","html-keyboard-response","94","387789","0.0-94.0","A57FCC953F3D48B993832F20BD986772","addf4069-dbbf-4f4a-a1b8-98475f0beb03","92e08bb8-2bb0-463c-bc98-cd72da82565c","","null","<div style=""display: flex; justify-content: center; align-items: center;"">
                <img src=""images/other/blank.jpg"" style=""width: 300px; height: 300px;"" />
              </div>","null",""
"","","","","","html-keyboard-response","95","390792","0.0-95.0","A57FCC953F3D48B993832F20BD986772","addf4069-dbbf-4f4a-a1b8-98475f0beb03","92e08bb8-2bb0-463c-bc98-cd72da82565c","","null","<div style=""display: flex; justify-content: center; align-items: center;"">
                <img src=""images/causal/causal_series_8/causal_series_8_a.jpg"" style=""width: 300px; height: 300px;"" />
              </div>","null",""
"","","","","","html-keyboard-response","96","393805","0.0-96.0","A57FCC953F3D48B993832F20BD986772","addf4069-dbbf-4f4a-a1b8-98475f0beb03","92e08bb8-2bb0-463c-bc98-cd72da82565c","","null","<div style=""display: flex; justify-content: center; align-items: center;"">
                <img src=""images/causal/causal_series_8/causal_series_8_b.jpg"" style=""width: 300px; height: 300px;"" />
              </div>","null",""
"","","","","","html-keyboard-response","97","396809","0.0-97.0","A57FCC953F3D48B993832F20BD986772","addf4069-dbbf-4f4a-a1b8-98475f0beb03","92e08bb8-2bb0-463c-bc98-cd72da82565c","","null","<div style=""display: flex; justify-content: center; align-items: center;"">
                <img src=""images/causal/causal_series_8/causal_series_8_c.jpg"" style=""width: 300px; height: 300px;"" />
              </div>","null",""
"","","","","","html-button-response","98","397806","0.0-98.0","A57FCC953F3D48B993832F20BD986772","addf4069-dbbf-4f4a-a1b8-98475f0beb03","92e08bb8-2bb0-463c-bc98-cd72da82565c","","996","
    <div style=""display: flex; justify-content: center; align-items: center;"">
      <img src=""images/blue_deck_1.png"" style=""width: 300px; height: 300px; margin-right: 10px;"" />
      <img src=""images/red_deck_2.png"" style=""width: 300px; height: 300px;"" />
    </div>","1","1"
"","","","","","html-keyboard-response","99","400811","0.0-99.0-1.0-0.0","A57FCC953F3D48B993832F20BD986772","addf4069-dbbf-4f4a-a1b8-98475f0beb03","92e08bb8-2bb0-463c-bc98-cd72da82565c","","null","<div style=""display: flex; justify-content: center; align-items: center;"">
                <img src=""images/semantic/semantic_series_7/semantic_series_7_d.jpg"" style=""width: 300px; height: 300px;"" />
              </div>","null",""
"","","","","","html-keyboard-response","100","403826","0.0-100.0","A57FCC953F3D48B993832F20BD986772","addf4069-dbbf-4f4a-a1b8-98475f0beb03","92e08bb8-2bb0-463c-bc98-cd72da82565c","","null","<div style=""display: flex; justify-content: center; align-items: center;"">
                <img src=""images/other/blank.jpg"" style=""width: 300px; height: 300px;"" />
              </div>","null",""
"","","","","","html-keyboard-response","101","406829","0.0-101.0","A57FCC953F3D48B993832F20BD986772","addf4069-dbbf-4f4a-a1b8-98475f0beb03","92e08bb8-2bb0-463c-bc98-cd72da82565c","","null","<div style=""display: flex; justify-content: center; align-items: center;"">
                <img src=""images/causal/causal_series_11/causal_series_11_a.jpg"" style=""width: 300px; height: 300px;"" />
              </div>","null",""
"","","","","","html-keyboard-response","102","409839","0.0-102.0","A57FCC953F3D48B993832F20BD986772","addf4069-dbbf-4f4a-a1b8-98475f0beb03","92e08bb8-2bb0-463c-bc98-cd72da82565c","","null","<div style=""display: flex; justify-content: center; align-items: center;"">
                <img src=""images/causal/causal_series_11/causal_series_11_b.jpg"" style=""width: 300px; height: 300px;"" />
              </div>","null",""
"","","","","","html-keyboard-response","103","412842","0.0-103.0","A57FCC953F3D48B993832F20BD986772","addf4069-dbbf-4f4a-a1b8-98475f0beb03","92e08bb8-2bb0-463c-bc98-cd72da82565c","","null","<div style=""display: flex; justify-content: center; align-items: center;"">
                <img src=""images/causal/causal_series_11/causal_series_11_c.jpg"" style=""width: 300px; height: 300px;"" />
              </div>","null",""
"","","","","","html-button-response","104","414582","0.0-104.0","A57FCC953F3D48B993832F20BD986772","addf4069-dbbf-4f4a-a1b8-98475f0beb03","92e08bb8-2bb0-463c-bc98-cd72da82565c","","1739","
    <div style=""display: flex; justify-content: center; align-items: center;"">
      <img src=""images/blue_deck_1.png"" style=""width: 300px; height: 300px; margin-right: 10px;"" />
      <img src=""images/red_deck_2.png"" style=""width: 300px; height: 300px;"" />
    </div>","1","1"
"","","","","","html-keyboard-response","105","417597","0.0-105.0-1.0-0.0","A57FCC953F3D48B993832F20BD986772","addf4069-dbbf-4f4a-a1b8-98475f0beb03","92e08bb8-2bb0-463c-bc98-cd72da82565c","","null","<div style=""display: flex; justify-content: center; align-items: center;"">
                <img src=""images/semantic/semantic_series_10/semantic_series_10_d.jpg"" style=""width: 300px; height: 300px;"" />
              </div>","null",""
"","","","","","html-keyboard-response","106","420608","0.0-106.0","A57FCC953F3D48B993832F20BD986772","addf4069-dbbf-4f4a-a1b8-98475f0beb03","92e08bb8-2bb0-463c-bc98-cd72da82565c","","null","<div style=""display: flex; justify-content: center; align-items: center;"">
                <img src=""images/other/blank.jpg"" style=""width: 300px; height: 300px;"" />
              </div>","null",""
"","","","","","html-keyboard-response","107","423614","0.0-107.0","A57FCC953F3D48B993832F20BD986772","addf4069-dbbf-4f4a-a1b8-98475f0beb03","92e08bb8-2bb0-463c-bc98-cd72da82565c","","null","<div style=""display: flex; justify-content: center; align-items: center;"">
                <img src=""images/causal/causal_series_13/causal_series_13_a.jpg"" style=""width: 300px; height: 300px;"" />
              </div>","null",""
"","","","","","html-keyboard-response","108","426617","0.0-108.0","A57FCC953F3D48B993832F20BD986772","addf4069-dbbf-4f4a-a1b8-98475f0beb03","92e08bb8-2bb0-463c-bc98-cd72da82565c","","null","<div style=""display: flex; justify-content: center; align-items: center;"">
                <img src=""images/causal/causal_series_13/causal_series_13_b.jpg"" style=""width: 300px; height: 300px;"" />
              </div>","null",""
"","","","","","html-keyboard-response","109","429630","0.0-109.0","A57FCC953F3D48B993832F20BD986772","addf4069-dbbf-4f4a-a1b8-98475f0beb03","92e08bb8-2bb0-463c-bc98-cd72da82565c","","null","<div style=""display: flex; justify-content: center; align-items: center;"">
                <img src=""images/causal/causal_series_13/causal_series_13_c.jpg"" style=""width: 300px; height: 300px;"" />
              </div>","null",""
"","","","","","html-button-response","110","430558","0.0-110.0","A57FCC953F3D48B993832F20BD986772","addf4069-dbbf-4f4a-a1b8-98475f0beb03","92e08bb8-2bb0-463c-bc98-cd72da82565c","","927","
    <div style=""display: flex; justify-content: center; align-items: center;"">
      <img src=""images/blue_deck_1.png"" style=""width: 300px; height: 300px; margin-right: 10px;"" />
      <img src=""images/red_deck_2.png"" style=""width: 300px; height: 300px;"" />
    </div>","1","1"
"","","","","","html-keyboard-response","111","433565","0.0-111.0-1.0-0.0","A57FCC953F3D48B993832F20BD986772","addf4069-dbbf-4f4a-a1b8-98475f0beb03","92e08bb8-2bb0-463c-bc98-cd72da82565c","","null","<div style=""display: flex; justify-content: center; align-items: center;"">
                <img src=""images/semantic/semantic_series_12/semantic_series_12_d.jpg"" style=""width: 300px; height: 300px;"" />
              </div>","null",""
"","","","","","html-keyboard-response","112","436571","0.0-112.0","A57FCC953F3D48B993832F20BD986772","addf4069-dbbf-4f4a-a1b8-98475f0beb03","92e08bb8-2bb0-463c-bc98-cd72da82565c","","null","<div style=""display: flex; justify-content: center; align-items: center;"">
                <img src=""images/other/blank.jpg"" style=""width: 300px; height: 300px;"" />
              </div>","null",""
"","","","","","survey-text","113","510298","0.0-113.0","A57FCC953F3D48B993832F20BD986772","addf4069-dbbf-4f4a-a1b8-98475f0beb03","92e08bb8-2bb0-463c-bc98-cd72da82565c","","73728","","{""Q0"":""Both decks were differently colored. One was red and the other was blue ""}",""
"","","","","","survey-text","114","520170","0.0-114.0","A57FCC953F3D48B993832F20BD986772","addf4069-dbbf-4f4a-a1b8-98475f0beb03","92e08bb8-2bb0-463c-bc98-cd72da82565c","","9870","","{""Q0"":""the red one""}",""
"","","","","","html-button-response","115","525642","0.0-115.0","A57FCC953F3D48B993832F20BD986772","addf4069-dbbf-4f4a-a1b8-98475f0beb03","92e08bb8-2bb0-463c-bc98-cd72da82565c","","5471","Which color deck does the fourth image continue the story from the series?","1",""
"","","","","","html-button-response","116","528833","0.0-116.0","A57FCC953F3D48B993832F20BD986772","addf4069-dbbf-4f4a-a1b8-98475f0beb03","92e08bb8-2bb0-463c-bc98-cd72da82565c","","3190","Which color deck does the fourth image not follow the story from the series?","0",""
"","","","","","survey-text","117","544433","0.0-117.0","A57FCC953F3D48B993832F20BD986772","addf4069-dbbf-4f4a-a1b8-98475f0beb03","92e08bb8-2bb0-463c-bc98-cd72da82565c","","15597","","{""Q0"":""Female"",""Q1"":""35""}",""
"","","","","","instructions","118","556289","0.0-118.0","A57FCC953F3D48B993832F20BD986772","addf4069-dbbf-4f4a-a1b8-98475f0beb03","92e08bb8-2bb0-463c-bc98-cd72da82565c","[{""page_index"":0,""viewing_time"":11855}]","11855","","",""
