"success","timeout","failed_images","failed_audio","failed_video","trial_type","trial_index","time_elapsed","internal_node_id","subject","audio_id","rt","device_id","view_history","stimulus","response","estimated_stimulus_onset"
"true","false","[]","[]","[]","preload","0","9","0.0-0.0","zuhgtge60rggv5l","zuhgtge60rggv5l-2024-03-20-05-16-58","","","","","",""
"true","","","","","fullscreen","1","3236","0.0-1.0","zuhgtge60rggv5l","zuhgtge60rggv5l-2024-03-20-05-16-58","2222","","","","",""
"","","","","","initialize-microphone","2","6570","0.0-2.0","zuhgtge60rggv5l","zuhgtge60rggv5l-2024-03-20-05-16-58","","30dd22ab2b37206c966e6cc1697da94970f6bc28a96247bad18d1b2142137ac5","","","",""
"","","","","","instructions","3","10209","0.0-3.0","zuhgtge60rggv5l","zuhgtge60rggv5l-2024-03-20-05-16-58","3638","","[{""page_index"":0,""viewing_time"":2077},{""page_index"":1,""viewing_time"":1560}]","","",""
"","","","","","image-button-response","4","14713","0.0-4.0-0.0","zuhgtge60rggv5l","zuhgtge60rggv5l-2024-03-20-05-16-58","null","","","images/instructions/movie_1.png","null",""
"","","","","","image-button-response","5","15858","0.0-4.0-1.0","zuhgtge60rggv5l","zuhgtge60rggv5l-2024-03-20-05-16-58","1142","","","images/instructions/movie_1.png","1",""
"","","","","","image-button-response","6","17665","0.0-4.0-2.0","zuhgtge60rggv5l","zuhgtge60rggv5l-2024-03-20-05-16-58","null","","","[]","null",""
"","","","","","image-button-response","7","22177","0.0-4.0-0.1","zuhgtge60rggv5l","zuhgtge60rggv5l-2024-03-20-05-16-58","null","","","images/instructions/movie_2.png","null",""
"","","","","","image-button-response","8","23041","0.0-4.0-1.1","zuhgtge60rggv5l","zuhgtge60rggv5l-2024-03-20-05-16-58","863","","","images/instructions/movie_2.png","1",""
"","","","","","image-button-response","9","24851","0.0-4.0-2.1","zuhgtge60rggv5l","zuhgtge60rggv5l-2024-03-20-05-16-58","null","","","[]","null",""
"","","","","","image-button-response","10","29361","0.0-4.0-0.2","zuhgtge60rggv5l","zuhgtge60rggv5l-2024-03-20-05-16-58","null","","","images/instructions/movie_3.png","null",""
"","","","","","image-button-response","11","30176","0.0-4.0-1.2","zuhgtge60rggv5l","zuhgtge60rggv5l-2024-03-20-05-16-58","814","","","images/instructions/movie_3.png","1",""
"","","","","","image-button-response","12","31991","0.0-4.0-2.2","zuhgtge60rggv5l","zuhgtge60rggv5l-2024-03-20-05-16-58","null","","","[]","null",""
"","","","","","image-button-response","13","36504","0.0-4.0-0.3","zuhgtge60rggv5l","zuhgtge60rggv5l-2024-03-20-05-16-58","null","","","images/instructions/movie_4.png","null",""
"","","","","","image-button-response","14","37275","0.0-4.0-1.3","zuhgtge60rggv5l","zuhgtge60rggv5l-2024-03-20-05-16-58","770","","","images/instructions/movie_4.png","1",""
"","","","","","image-button-response","15","39082","0.0-4.0-2.3","zuhgtge60rggv5l","zuhgtge60rggv5l-2024-03-20-05-16-58","null","","","[]","null",""
"","","","","","instructions","16","40889","0.0-5.0","zuhgtge60rggv5l","zuhgtge60rggv5l-2024-03-20-05-16-58","1807","","[{""page_index"":0,""viewing_time"":1254},{""page_index"":1,""viewing_time"":553}]","","",""
"","","","","","html-audio-response","17","42521","0.0-6.0","zuhgtge60rggv5l","zuhgtge60rggv5l-2024-03-20-05-16-58","875","","","<span style=""color: red; font-size: 24px""> NOW RECORDING</span>
        <p>Please say out loud the list of the actions you saw. The actions can be said in any order.</p>","GkXfo59ChoEBQveBAULygQRC84EIQoKEd2VibUKHgQRChYECGFOAZwH/////////FUmpZpkq17GDD0JATYCGQ2hyb21lV0GGQ2hyb21lFlSua7+uvdeBAXPFh1maaubD982DgQKGhkFfT1BVU2Oik09wdXNIZWFkAQEAAIC7AAAAAADhjbWERzuAAJ+BAWJkgSAfQ7Z1Af/////////ngQCjRJqBAACA+4P+N/4mf3ByJMkI7Hz5SSBF7KpsCZfx2VPoX5Achf1Sr8ORlcxIx9l9hKHU0rAslgyhr87nfLpVWlH2gpZd/mWcYm96NSigdJ5bACj2pioV1AL85PIiavNjm0p8opARSXPvQpfkEeE8HttcwIV6B2odL9Y9bljesF4i1VgxkS1iRrYQFrvgYttaA+mXVRAmmFdPZEU51q7m5eynXUMJJcvWFQEUUDmgZPZApan3+9i5sl1qvLtmioROcDC450Cxib1vJLJMQr454fpK4NIYDKNiHWdkt2m5odFS23qEfQAAAAAAAAAAAAA+UANhOmve/Sp4AgwpkVxduv20Wc3EjiwHPfm/u4WKmeV8GusWLNMv6qasol3zqY/1LdLTN4eADQwZAFv8wPt/z08mO/YT9Hh1gcq1dJTU58uV8l6KPXoZZpbx/XbKNgenluvf5es4LYJa36JESdiJGxyi/w+Idt5ySR7+hach2DoZpe55Uv2Q40lAud0T1zyVwGGprB+MRnLiL3YBDKepCCVTfSn1HdIjIopXfyfu+APGngsZEf/bjg+U4qyhU6uPIw8i4QA3Sk7vnvogDA0se3cft4r0m5pKu752jB303+cZvfB9vsvY6VfOBd2gS1/fXEPpcot/cq0Njl/7eTjxuHdYceLqnQOyAmMjV5LrruBEqGHz/3n+KqAtMk8L8AQI1gg3CxSUZ3T/NJeSW0i2BXSiMKX1n2UuYcu4XlnngN6V3AhulpPdAdusa5fizgmOUZcW/78T9doxDoKO/D4u9ZQEYhW8S4+h9Wyt/DgXDffrxPJfiSezdegDKzRyzgsjAHYiZqm7EBJoRwZXlMQVIAjZXgxWwuB0aNvUpRYU1p6bzs5IjtioHX5rlNJ9oeJgNPVzs7axUZxPnzUt1Q/HgtR4FcgZC3s7H/2jQMwSoVnce0WZUhVTWDbc8/bdmjOSW42pnsEKxkbex85da39xd5shDNywkd7EjvlRsPVIy/i/4E5UIna6i1bnItnipymCpkopKvoTw6duyu+y74gHfd1fsVInbLgSO0ZyII+EOK2MTwmlMl1HH1FO9qIgULN2jnvvGrSiEyZp0HhQpByu+t4KEoNG9zZhC7T7nqcrK2ePMb/g15b/uIJ9Cf3Jx4k2QwDAeDsI2mIbPdxJ/wL2xNM+hQ3gujFMzWLxolrn4yS207YM21nLdfPG2FM93WGFK1GxTcItAp/26iM/L+I6pXTUYObmDwhAVGGv5vfq9yj0MNtxe0q0SODWeT4QFUbdVoIX2LpoI2yy9uSFc4C2YF8D5W13ch0qQTo0KLNum/kJwZbU2IAGRI0Uu+rARNHC5GjLMwRhvlxqKrppDT2/dat0vLH5dUy39q9B5bcp9bo9zHG5nYodI4dNx93pk1KU3/7OlGX0NNTvyBG4/UsknSTpulXf/yYFPQqFduwpehXAZt2PAd72DL/kh61rWaICAa1WQ3BBmEGaY1GuhcdjiP8zMP53v8okFeO4UuD+6H4h0hi1QzdCD0QylytQFkaJymplsfvRxkBiBQhXeKOQAArxNLDrPupUN91whaNDcoEAO4D7g/8J/QlTMKSfuXfC+I1JpjRXm5Csbg6sGdVXaD8DCG95SSJOIXiHq/b4PS3ll1mJio+wT+U7MUgsstw1NfGBkzPFzvkdPw85/sAKC1OIiNGgEAQRj7qGstvlC1VDhzGbbMNXM1iTkrMdtcD76jWjJp/o5GiCJWYYd4QFapZg1+Sd27L7nyvH8Wl3cXkoyGKJM2Qer+AYOsW9smWR8jdUXbLMtU60+o5LE86gQdbBGREHnT1W625Vvx/nGSm4cl5jG0NMHniPBB0pC975gV1EGhYzu7TbgwD/WOlfmV18mZzbnwX9GYYY4KQuPZ13NUSqYLXgYhFwfTNmhu5yQmV30Jdx6c4KU5loHR+VJTQ/tslXsShx23QZ9tHnuWicVOuJrDP/OoIwKchAG7mnY/cpTWCcDITI+kiMqDvwpUi6jsAH2CB4A7ShrR6V6wRTTOpDp5oLs9ky7Qh0f9wqdSoY8WXfcVYGKxtofDguwffv5qjk/3uD44JTbFLinQ4xArtfx+S4dU5FiXF1/gPwBrnMCe0uLDT4w0tolzIKWScWA5oc+OwDROweeMQsoDAYUcActHmSaf9AuWbOAzQP0X/lNttlJJb8hNjejHfuN1gWfqZsPmKrTs2ZjfTv172dUZH0NHXTIV3o3eb9ud/hs+vYOxzIudWmYVDTZpiJ9E4Wh45EBXJbTVM4etYdcG+RNj1snYl2LFBw9OofUfz7TUl4t6GEx5+qfhAZfm1599VAJGMNW9pYv62hmeQx+slAuPNDeNwqptBbK9t78VQH+QGDrcVFbag25tMvTDaGoCwCimPIDxsdKBkMzwDNINxLzZQky+qXyhNGy4J9pIN7mFNf33e0+CjWaQ4Qvr1R6O5ds8BDL0G5LlS3eUJvQzaWI7lM7WANNYmLH+Elo3l4kOOrmJnzkhz9NQ/BP8KkPPTi6cAVyA8BnBWIkb7W2nGl8j52e7yRw3Lj5xewHUMVgPQmvR/kgbdervURkw+sfk/EowIYhpgBYz/a95DQVGu0hylF4y24hlLtcOIghD8I/w5KgotIdprf4rBBF5pihM5QzwYhBdibLIdxdyyyZXOOdtv8zj2O7sc7mqmyeJGoOWxZ/9kpmXUUSbORAmBDTeY0vnaangcjELvQMqBL5cZSn2Jq4+1BBOT7OwcVS+ZztaNDe4EAeID7g/0K/grxl5tIk/RJyR2hsxevEH87leGcvF8APP45Wc8YexMJKgshBKZ2f+WzSRLjpUJ4UVdb2bWBX46x67VtILpj7e7irHWSWQJV5zfbe3j2JpcX3zNLFJB9IRRJop+piC7b9WhyCYsLKZ+ZHqwnYdTdJx7xg70/QJMIHizcYu+8o+dxQXb1H1aUBLkUmgeMiE3hA8Z8+tE0eNaV4wDL1yktLJ7IGWv13R5H16uQvjZYGAF4hdq6EW65XqKh74vhRjJnzHVIzEwivpdC+P/H6An92R2S10+zKLGh3mu/n/aazGPB9oaZhT3i+NzGxfUYFzMMj+OP/G5Cx53VW0Wyn+8bLYfnUETI5S4TmVCLf+QhWgFaNRN9t/Xe45NpuNnD0LmahZJpgrzjtltkGPn8GJcStWHUNCXMc9NlibxWf4SVi6P5Z1Q4eK/mEPIGM0nRRsIo3Sr4fp+DsJ9w/ipzYF8BVp0yk+KZUQnVP9m4m7GHHnf3aJqrKntoqC265OR4gDeUBDgNezooc8pz4fE4qQx6rEmVi6ge8sHJ1kBWY+AEKKs5z+BfK2F/GV+xgn7cp7A0EFq+WajpduDXosXXukkwQkkXP0Rmq1VraDjIgoaaEGEQFLmHeL8DZZjpFGPY+3uGh6ooLH7jRxp9JPOA5m48PbsZFAQzXECKqR4VBHXAP5n2kFyk1ta/5Wwvsu+/KYApCKgz7o1hbRjeBuUggvhjQUliyCLiECRtCPubVOja0LUrlRz/Y5nLcjy7kIjb1Ia97dhTmdicsCos5UqeHj60qQmTd/Q3uTtCTlIRWtW/m/UKWpDb+KB+14D8pnvv4ZfLMj3LRvErkMKt8haFMtCvNDYhw1XEcpVa2Q9qi9cFvSASe9Xs0UE470N7ilBbJCOyRrjISAe1S3peOuTjJQY3/HmUNLKBVkZ73XVpTwOIKipXObIuAX2YLlbLPxPkIdE/JNhFkNoBCn+AST5LwuNbruDH7AoIhXKKpiX7XqY0VAFAePkQrfoS18kMQ0wX3xBWZ8DFhA4PyLdBoWq1E4FNOpPdoUYUtqSXDTygLNoDfR77MrNdHcMvWnZEY8cuGr7I7OtMEb8if2kBAzgwyprHFPMrXvl8hhrifODPHkTKTFDTjnfR/8007wzIDlAzJbLXnB+ZMQDwqrTYVPQDF7J/l4Nsy6NDoYEAtID7g/0L/gzvuHS4T1x6T2ddEzRgJ71ilEAyuYpCZDls+TyVayBczqTUtPvhEN0RWLFMEnfvmsx+A0TiUIaEykPAFd86kGpiW1pmhBGp0iyOV3Xvm9Q9Nncqq1L3S7/WXg7jUyjcN97lUJIsb8Hfjh1DKuK6ts+DtIs7bsTj7MHKULXLLeTdsRbvjCU3SXhM4UoOJwGhMb2QwIwSgxfVC/8s6JRmCOp9E+HiEj60OwAYVCcsv8cbj0tUPis257T4eSj1hGkpHf5SXqjq3CsBxQKnWcYy0zCU35WOTlpJMVKoYuKDqpFdW3xCWyBia+7Ky04IhLrtprcoIe5Vos71vGc8SVD9sN5NYoSJVZElQ4IR3pBaZftM9pThX2GbhlaXmcHnaw3u1IFk3g4ZNuVohcjwCS5kPaTeHpZtVb3VW+u4cGmwj93pfOyMjfx9rWT+DUq0+2PfUh54l8IcFXswcSbpADMtF60GHw9QhYCPLBd+yfI770jdsk3fEbWnzfodKl5F3vf0rBMXFyRQsBvb8h9Jjlr5ZVeEGXTpCKETeJ3q0zBNvfNTHBhVJ+4HulLoNJ8s09NjpSb8RaY65UA+CrQ+P8TtOQ7w8d3xohLGXvYO148IQwVScQxyzklsHtHYmnp6TcMx3dsQt29V4x5aVWdFgCDWK1yNVvZF+5Du+veRTPkQkgwd+5VBunRNA9kq2TonbHAIwmfLe+iIqhLsFMGPnQpznYg/fD8ajWgCPmY0ImUWhEwRbcjxkkQruIdccPJ+LVS53CLobAPQiPxnqKQTXFgc2Bft0/cDdmsVue/jS2MadY+cCQJgG4l3p0Y99QikduJCdenzT72/+Lfr0tM5Yqj+g3lTZZ7Mtjb/Rxxc13iGhi1LSN9nVKaGILFRpHTyrDuWHGRGgmitH0XHMOrEE7Ss9NzmahJI095b8lKYFPtsNitinVCO5og/t10q7YMMQbInbjZxzkQ+G2caDzg87r/LrPl9cjY2hi4F3HWuTG0Gt2CaK+AA5Q3+1UeVsWjnrsUlhW4XHMTcnNNNLyxOvfLkUTjTn3n5F/PArWTVAw4ok53PN1/IrCvCLM2MmSx+qFFinij8WXzEJhdxFadkeYj2ojaWJjzox9IgS7h65v1J5cRxuiSKlgb2I2GERFj4GwUz6grCVLAjEe8TB+h5KgYzacZAlOZFeWejxX4YtkexohYD7p1PjKl0PjC0rR9dlG/2nYkQzA/o8BW9o0PGgQDwgPsD8ZePRTev0VGQ7pUT4ZV8Idcbqg7KpTHAx10mZMlUmr48C2iV33I1YxN5R+adjPd9Rk3Lbg52dexPdAO5k5fYDQRC7BT+neKA5mSi+laQvJA3nHgtDzLG8mePgv2MF9zTSMN/aeRmhr+BpPRUfo4mLdu/yoUeiGmYQkLFzumMvWhYQMoQA3Qgmhpt9DmZEz85OM4RUCYJC01mxkvz7b+/bKeu53fnfMK8OCewHaHNpHIyUjiR4rVzoJGS3uAyre+aRXKwZxzhQwKS0LD3plMbKUxCbSfNNRagTGl/l3x28T04GbfM48s5WI+q2yfneqLCth8g6DT5lTXze9+j+eMdisS/JxO5nR3DnZw4WtTo/Lcwtk/HeRw3BzFc/LzqU4yw7fIBWV7zc8YaNWSjxvAOsFpdbB1PwDTEiYnODwMQFb7vxR4uSWc77/Il46JJ/BGUEJkKVoTuggtHL+nHYbYIhmTyXGm6BMcOcSt9hfAQl/TWFIyutQcE0YLyt8Ea1gOI8w5E41R+YK62cRCcLUrAZxOQ6xI1nvjHTC3AOV6ZY7jW4rgYxBEBe2aV1YpN+mxF0CEPgoU6pbW1XjyLsXRegRCnVl7eyEIA30uIaaGKyGtyY3nePk2EE+N2WxntAjSlJ1sO/ME8Kngdp3+r6aWsYfzgTNOjqUpNMaB9yCqtBHbTBbdzA5V8DweGAbFPtumGO4rSDlB/Sd7TMrTLKmLXUEPoL3hk38spHRfurhiMf+edCldy9yoV9Nrv19UuUDdLVG/5HikLWPYT5br4U3xmOCwbS4aoquyVIQijCGaNH80pVpw3mjqbUomxRH7WLpfr6PZWET+KS+94fTIlgWGVwT1NVTOSZgSpsyfunUd8NZVT/5m3fD6xB2xnYiLmjGTJmO8mNywDMmfjE19NnsodDzZENWJqi8x3In8Y2Gv39+1zFkU2UqPQb128UnpKTMb+RE1ZlJ0ZNfXgMT0cfUnJ4tO0tF3V2TSrKMEeiZ6x2iZJ8NIv6pexymXCw0mhYRWIyAe/wOjiUMjE25y0ioXTqhhkwd1k2AmDO7w8ShMsNq5SdkjNHU8IkMFc3WROqI3cP1bz5+M2MC0O969ECwAohN7qNxI3v09AWMd11rOd6eGpBpwRw3nkOjsqeL8ZSBQLecZsnon6zwpmMMrW6OVkPZaXuvB+EHpcnDTbwA6m4E19pANaGycsgExskefqBqN59xa1sg2UxnyyXpaLf8dvhY7TDh4OofwckkF10TmXJgNIQp2TJcsv3uW/Cvm9Pohoo0PGgQEsgPsDUzHnjRE95XHnMIglBQv71nQTiePr2lP5k1tIyVIbaR8aC/FqDXX4KLatfYHhIogiVNvDegupNrsnolQkdCoho9Uz8H664gnXl6hvcROcEJ3q8zkvN7davXiAXd8R1gulnJYCstRzacfoHr9n9/cvJP7T9tp175KoH1YNfj4yRKYvwvLmUF9iqXxsd4R8cY1lt4WYFs7DmxYJDafLvSPzbx1ZtLCcwpfXesn7/OsaQ5HtcoFDHIQr1b32XgMix1aq3inRcW4TLr45mcfFaF7ix4e2zuuhvwfmk8NrJ4/caIPt7qQ96sTVxbe8q2Fj6BxTKRa9j8iTo1EZuYJ5J+w6Wc94ddFjiZhI+ShPau9etU78uZEBNCnMu41Ydl6zKmrCjfJnq1HbIf8KgQaUWIvVt0HI29dWqiThkhQlz5fqDITv9Gw2H0tmHm5Xtav/uCVK2fe8dcD7FkXswoWzLhdoL6oo6KqYyknrkle3pUpXdtI511GFsmZ9o4GoXIurt4S6cfxKrDbmB3Nk3sbIrU+7Mdezk78bwYFEsvZSCK6Jl3ntUqInlm/yOgiw0O7AN/2IZdthXmPOFp7hm7LW6mN1Q7qVd0W6KtcAxoVhnZIBCF4aiEyIutkuvVcd7zf0gR+e6u1VLO/hGaF/9HcJxzzU573TWNV/mjB2zz1tW8ybkso1piIj9zY9sSyd5Jfk9icdhzWjmXPkqLJrsQQaLBdR556vHNkZkr/OrdT1QO8nVju7Z+jx1sL9SnAI57pGRr+EQR61xPsapbp35QWjToAh0q0xNfRF/bOj/1c9k5XHmdyZMGKG5I6+suDWymOESTS1byjL3mfLzZHQ0Kseqsq1yfJGiuC9ftpHxiQJQqpvEcaZcvXy1rDj0PR4dBRyNMmI/GG1jav7p1wNIO72YFs0uuhPaKQ3DzI7d+C0fm45Z0qNhMEPy+SDNNLN7PD4tqJB+q3tozRXg+GziBbBzE8gHkLsV2vAE9Iw0OJ9Qq+3AylVzQYutwqd7IhDnMgdZr6ZRS4jOzMc88llCb6lfCjzBnKddH8/lJei6TajdvPtw+lm4y8YNabGv3osBb2Y0kzRefmyRJ9kKyBXgN0KctP4XcwqS0rO1UQE/F1LWJxG8pi9lsyWOqYlcP66024sptq58l2gGy5X7RrXV3VvOn7c0WPX0G7L04FTdDDvK8Ctb2SFAecBGzC3dkTPuCW7QH9TqNkHcHoyF6ESi9Pju1lGmmFaMKhwNl7G/Regv2FvP5bdC9ccJQAQFRCtFMWak6XGo0PGgQFngPsD78RkCWsVbRdDQxj8joAq7FPBSsQhqn+RNwSf5Hi07jO0Q5BoUVWHZ95yVbZVND6Rgayg7DgKyNQ1x4JFy67/NEW76EICHeGDHeDDfI0sTlYANckh9iGzdOiozkTT22RUr8x/2WxS4WBcz3faBmPlpZiMbEUD4wsRCIoCExucXmh+tDoPQQcWnJVOGt2x14jLjf99+7aZsk+mRobKJHEl3SKxD7NZRaxQC2u/CB/Sgs9oyJ9Tm9j+iDNuyixWkqyw29+MSv6E/hSPCQVw5Vw88h2XxWO3fvM9dwFF8UT3aJMYTWeop/IDtFa6PiCCJ7JTNode9DYronYAxqIzoClFXq20k5YqURSP0wr04PbOxS18Rz5IacmvZs49iAG6092XuOjs7eWG1MLAgMAR1D/bDwXqE7ibTkX5ZlhxkR/BdcVa5RuGD5uvc6rnjsye+5jeBqH+ySjjYKY70Zn0lP6FT1kwKiQ5UkLez2S8rxy+LmU/vXLGwWRz1hASK6kIZvN++8UX7DvwxDrDMqHESnGJhmvpaPuswzizwo8QJuyaQiNF2O11w/sKbdlEspRmkJwNYj1F4vjX5EeCricnfqqb0doWP9icch2ACB2mYTdUdZg8ppeG7k+5wk7I+NOhltkiv3KOC6Sx05wMNE4bHO7n1jgpRTQkFtMfvayneE0gaX2dOSMvS1XOXYLV3IuCdQBRrkj0Re/4xIB1+4eo5VgcCrU8G6VzEmpRHJ4Z4iL723GmzIx4vBgb0Rqf22n7H9TSDEbXfT5Gtu7EFIBMQKnjmgR4Y3cKYl9ADVZKfOcUZrLs2TTuWXJp+SNUqRcxPDtKfL5UrYdgsLa5W6OHnYmwbj8pf0Q2ww1qljai4lgQbJPqwv90/DXX/z5udiGXeAvDEC9wMPYTkim5n208jbPoIGgtG1D4IcvWnHaNEIWYv5YLWIdJDxD9DQJUd/qshVx+8MO/dqV4bgBVE7s4oXkKUx0rEqwE9hLYCJAgRIe+M+mZJOUQQqVOLW0QZ/9TI8xyG6VlKAkHyRnox7/spCDPpKVU1G/jF/NUu7wWuT2i+DVZvPcJMT7R+PBGDrysk5BtrrSkGjla3u1rHXpeawS96HCpv1zj4Au3xc+2XJcl69Oeo6lrSAIU80bdIwYDIl69hRYTq+neA1ssySc0lGZ6UqryM1Yr9e9Rhs0xFlkXe9kQwU4Td5Oe9PPzmbWgE+eaPzntyA2OUhf/mZT3rXH2xxdbJE+xeHn9UE6UnMNdiHl+ul2nISv08aLrbkBy2IJ+o0PKgQGkgPuD/BH9EVFP8XrVGtKknNn9hgkJPie6XmIqoJdwTI3zGgTQ8wFrEOHOlSQkFk1XDhBQWBis+T8T5APDIKP81WUMtnz7wsiCbyEA5Ut6Yey7KI34wyRPN1QZfXqwGfLK9IJc11r7PVvhpQEmBFFwhRN4sbgLe3B5pN/U4pFUcpOFQNVpBFpDBgAPXrY5UGj4srS2IrlyuZ2wcpSEn3PTMm79oakAggi+ZpEujdIwDcUFeZDRqB94mzPvfkKpkG1QGOU9PAka1CpOLHvO0q9YPyOFfugzBJfjJUS1hplNTRjStI7bpADYDuww95DiofREMI/ScN7gl6UJjCKAO1+exCTH35SBwYcbrr4f0LfPSM6ERTLLPoEzG7o1e3zWpivablEy/3GNp6a3wZep+mshQ5cv5w62timfNvYH8ejawl1qjAmXkSq88VQMNyqFNeorov5pgyMIXxHco5c3/+drM5NmFxdvvaJjmW1vgjn3WPDSXzIw1MHDVQHQBcL2I8dePf/peJ0AJx8bOYrhnqYBT+7W4OE+umQ3EEx+ORP/zwM9tCoDMeiQF7/Pq1FbsplLZtMRk5wurGWBAY6Rav/N3Pd2IidU6hyZ+2xgL2bSdGVSIk50fq16rsuzsWMo2LlmbXPUo0lxRAeC1+Y7n/8EV63Tm5Tp8Ug72Ib1FdDIwoFSr9R6miRqWKSCImhUT7BCVUBmU/kiyIBQnq2dLUG274/cDAoNsTUVLJbZf2Nk2Vo41SgNPPLEtJrOMM7yu6t2JOOKcqXgCt9gQ/Uxm4RN383Ph6/F1zGDQohNTe1MnJGZsL9k7KCS3k6wK8+UpDUhFc8Mb6OB73qQFz5AR23iyNlK9+TvQ9XEQ40CM4szRX4x388kLwbvAWM/oqGt55UIRWuA455Rv9HHv8Jyo+PK04IvX/HytXUb5sWXPNVLg9dgwKh09/ZxI/2Tv55LY0oWhfRT8Q4v1wrPIAgOZoZSppoJ07qujPXfDqFBvCPG4Q9NPApov2tK+KBA79S3pW4x/Wh0acC9gHvoUEUQd9446Us5G7WM4Eok1OA9wV77QJQmQwOZGSEROCgJaqLhxiMT4TG6fu4yYDZXoRvvZa3VGiocLusQIUV046GEaIwXBl4udwto5dFoUeRTiCaaLFrngGhrQKOImCJhOnXhQ1NzacYE3o2K1yhWUPR6XnxxJ8QzR7b/FYZY6y5m6lDTjCwnEYhKThrCie2cIzNFNiV62YY5ivfkCWojAF0H1m0DrajMJ+2xoZpBIfUqaLJjs8G6i3KFYyMBKaNDxoEB4ID7A1HRBUTzcWHPdtHzr29OXE4WF0UhV4PwDD7jkc2DGfOV6Ig/5+3INAarRDyP8AgEuUd+Uq4ImfckpeD0hgRcbhuNd3dc5Q2l2hq2xsF+cS89tfcESHtuzAgaOQqPxzutqKYMt/4fRcwfb/wkbfQGdZviqySCdG3HuSz6lruUpj6VrzGEMg1G/Cpf3mksaOfgYMxDyovQTodk7JXs2F03qmt+9FqvB332imDh0Xa2Jyw90iLeRcYenbexqcdWQ02dScCUCMvo4BZfYBgb81pXfRDgIc+s8yr9ePS7voZp2jzU09kt7gCaal0CGwv47MDoVPo3bSRYYmNUJbieNFXdPHbtzVL7QyMZS8lc9Jl+t2miqX8evhbpRcbLz8ykh7ilrhZOZ7wEXefciW8bBmfOqkxq0XP6CC0EXpQKzCQ5RjGvUySe8fnHOHdd20pqT4JkTEheBfyBkF4FeA4Wf/pObvNdWM0aCZaM83WWwYFXwg4QG+m+Dc+ddHmnUOSGAC2V/nRVPgODWot3sKYZyU6qCRWp1zsZk0MeNrq4lOOgYSwYBArvNOeRZG6ACTiMEdQbhWzvXV3wFiLKP/cOh+EeZf30Xh5e2oj3I0/dVtNsuwkVGjASGXju+NPrdd20vyaqZl//rEaZTdMkw9DiucTySRtzKaAusO90oPrUbhZfywR2ObDGOCiUTIVVnNyKeypao5RJRfDgQlBnK/rHiXf2peIAHFKIk6W1KWlxz/Hi054yD2V/uJSNYWjLJ6O1AM/qgZTV46USJvtak1qXqqfN30exLHHa8BkKsuE9nnt+wpAO+mryreC7FOnKh9n2dw8CZT5ARbKCQR4BgNT8rSSuusI/ffDh3WGdlrUEcjtcxg6kP495riyUjarXEf5gyCY8ZJxLeLORsiDHJX2vFHC9iqmlxp27nljzwrB4RgTjASOzqzbUS212BVtUUrDl24ummN/k64Aj0c6Y4S9VzBdW4uogoG46Ta61gmt822MvkgIHchClq0snVRZz95gyHBvznIGpAHeLiLN6mMkX3Oj4Wi4yWGtqM6JRwM4XpvFPZD5XcGzx2nrmNEZCpDwoOqecyAOGciR9yCU2d5ILsz83ukmQBD/AxE1OS2aiJdhEjiBFh5aomtNDDRRA4QdviSaMtpqJP3TrNRTtmdE5f400K6RrfQqWIAaH/4zyGZTXWea2oWoA2PYyFbewfUbcRuzTbMYhtNEF0lvLxEMWal4H3d/zggDn3TXOwVnA+qQC47OmMJQDm0T0u2B3IOh3W/xatqNDxoECG4D7A/FiU1yFCLqXRGOoyUoqo3KeigPsMRi09EPAglqpcasC/A7GkrJbmO6eDDMW5sq9H7VbdOPZP2dhU+nNShWQE5wK2GkM9IqNkzNihxS7MBhKUa08gWQS9Q8AX0bBh+HH7hkuNpFNtfV3/5MCa0ht25UWYynAKgPTvJOEMdS53VPa9uM/Iw1/X560+6FixuXtvHFk9UBkNEQyVjaOn0rcDRozn2UIUK/NKDDd5vHv0lpMLBEwS+BGdmVGR6Ft0O7qULaAT3AuTjuC8WK4JerVVXhzv4poggFmNTlyjKzGoU6p1SNJn0zEyeHCl60C59bWJDktk7/SClurW0j0FyISS+NZHJZHKTrxuK0OzsUafjDUI0l/km8lRTDhx0Zmgi+gcc4UiGsJ9AM2BuNEFOOlGcwucpea0ZgJQvPvSTxJAHPAUxaEQOSmHICtPaAd26zA3Xzq0ocdQ4CMOMK8FUUXpZ3V1iEaMjCgFq9cUDkq1TExR2bmRdaPnEfUjM57F8+R6fzq/9TLKo4vOqaPBgUQk+aRsSew89/hzVLuDwjP4HmqDSPPNQjZBbkiVqyC9aACDvScsvK3GT0MhRTNnuQAy9AMyM1b4wovf1KahS6fuj1ZVTx/fcOpH48nMNuTJuy8eHkb2ryHup47X/ayeAlh2GWQflDEbrhdCrHvZJbwKE6GXiRAN3fIlis7Td84CDGZoy1N7ubpR0rBpgO+J6OqULDZ6e3JcFI4rFroOnKmsgJ0CkDYIvwXh4++Ec4fuRPMtgFBLN3ZjS1kqMvvi1uBWwvK0Jne10eDPFmqEtbKEA66OnUAXCj3Qzv8H23KquVZcuPHF8eYfNWBVRCFZ58g4b89ZaMVSCpyHykBL0wemffuQ8sMdCM8U4ePdkAUJWAyrOrIu6O4s4jryoyhIbmQPiKo+2s8yAFWx/ZveN3PUGuzGGuGGOdcVTrZ8JmaSDioEOeztm869tV28gIEhVAyt0OZc8dexQoXLsrEDYIiaxZZPlTsn0bpMb44HG6XvgjfnaKZ35/u6izaHXMtRnTk9kXzamIBbwCAxHWWRAzic5ed0GAdTP/H+4A/E9MVtOeyw6oeyO6cjefz5xGR2zfGR64LPFI+MIORwhIgKOByLgvcPvxdYQlARTXRBb0Kc7TY14dOqeabIiPjn7+74aSXNeXOeYoA0cXEfEehjvl2lUBhFNDP1qYfdzdX+7AsO9slN8I3QBOBVIpZXKjOyXe62G++Oy8OQeaikQqwaNYEaBH5sWdtmH8eMO/wjufJVCeewqNDxoECWID7A0AX9wZFWV0ptLEj+jJLC2yque+j2wruiJLvbOPfGYiLy8QPDC9I0g7+cZ4WbJqdHZ6ttbOjsTq4+vV3Cz5WiVqi7gTqBBNt36uUmAkwbHjraSRBNxSXaJWH4C6zjEq2L7dFTNrIZPD+yzyyYruNo7e+1sh8FBDKx+eGzjtnpdE+hQbyW8Hs1510wZrd2/IONovhYPhQ2xXqNc6H72tC1IOEaq+1EQTrXwBxuJG1rRHS8Yv0JLv/93v1cbPMqEwa0vORjGaZoUPC9m/E0jo8av15UpBGJweu+R1lKzQyVHz5m+S3YEms7xV2Ga3AYF389YmHeJfXXm+31G1WhqBQgjnkqckLKAgcwP/zGFIWF1apiiVhvnCUVqbLkttNA3XAj8Tlyt5AsQSQOAAj9/6DlQj9Pz3KktBQAnZQWXZlRF6gQGtihIk5BGZtgo+pIcldbLXRRqFZcvMzsb8aSPbKQ3uuR1+OZeA06rpTJnwAHPLHKsloIxkB3u6eoliFP4JMak9kj48TW8VpcCq+L2M44+v+cAcWBLWlgh1FBCBl1N7CqF3oi6dnXll+uQUcpFOetsxlGjUmcznNyd1DkHTjFoa30aTN8xFGwu/qdotY8QrrjIkXg64YTTvoYRVM9K/hcvw3g29Nl3xdJCubQDlG2v0jsHfPouttxweACJyuNhQjLU12JvErzRWBPAGKkxjmmz11kAUzOH2Sh/NZcyJYyZ/1hJ96laXeX2juzK0RrqdPuEvdnqWL8J91piKDKWLlFp9usmWBe5tdzCxFSIYXV8Y+krFQp5Zq5RiXdlFT4Vlx269iaT8QWQ8JbQBIeHM9OAvWOulq9oGn3czD+oJcmqlTJ1ztAALcK8bCHfnjX3wccRIFX0F8lxTVAVL87GGiYYvA9fGWxWDklqAlY0DZCb9wcM24GPC+BQ+wZ13Tw0p7Bg0krCo7BsPNb4HYPSZ146XppqJnhyZw6Vunb/plYEeRSawq/kHoDlrd0/DhtRUnaaWmMCK15PoyCkRJ97TxePBI1I3g8YUYL6QLPY+BpYNDq9fk+z2qMlxgffbbKUvdAE/EM01jpZVgtIM0/rQmenC5F/ZPH6mdd3kc8CHBmBHzV1U+1ya3lgTDyRewzuIdRwYU5uajpjvBILh1myzvRcyVL2dxVJ24ylK3qxVPTd95/qVH38/8KHwX787op+huQ8Jitc9/qXhGmA+Ny9AuNmcIyQ5/VTvo4tc7XwFHCmPGfxXQXySaZ2URz/1Sr5zwP9l/YiQ1bqP4wKCLNOkCpaNDxoECk4D7A+/krK9y+yjSnV/c8jO1dINXNgOfGHxQuRm/ssuUbZKUeWD9uIB+CCJ+wQn70+f4uoTlL78rMh+zBFeHuIocjR5MctVgJ3tMooeFCM26SmCQiNz2jOE0JvgiZdjyqL5L9peTwl8S9oUvmBX5DMNaFvKkTWr1X3/1ZvNVxeWJqcYQa3IP+PjC0uhqZLGlNFhVCLMUGcrgCELJCwGVfiyoRSFteYsqNVW1Tea/XObuoewpVczkiQ3Dp2sQkVL2UYtQcmp2FOX9Glm5xmFcz+BMmU6kuDVt6owBUhqPOA+iU7afs+/jNyAHs3TBIRvxKqAED/dRw/TY7A9aiHOv40CQDDLFwb0bVMpyxGMWFcprc+mmOaTlAxRdX3pKopbwXXCCIVc+EUlOj+pGM0BPnlZPu+M7UuvPaGK5AVgDClnlu6W48VN3FySXNVil5rW8qqC+Vr3Plfrfgxlz4Sg1z2psQsdN5GOIlSRfUY6vNK5G/Pwm5DeDMCbsjZIte3s43B15XQAwDHoOUuVjHyMJlP41u5Xf+OqKGJ9/EqBmKK4wBUFjxNsL2uSVKnyyTqhWHX67pUVSlyVJhEY+qvNTncf/pq/Lat8Olg9osc2Aix72RRPMgolnDY08m7GbaIjvDFSd7PjWFtnKiUjxggJ81Zhoa9zb9tHsF2A0SllU4CS80sBvR3bBo4TDg9Am2Z3XGxezuqAagsY9fZCfo+G/0pyKXsFRMfeoQQspVFo6xQwyfFamQtKaA5th+RRZULMa0kwDf0fGdmhb3ptIKXEJSXGloIVgJntzaMptddz6WJaP7Pj2gYfGmH5s2nVTYI331GRjqjgo8IG80Clj6Y6yGBr2JbpDvbP3DCKJg2Fihh1HHc73TT5vS1GeKLenumMISAZ8G45nJty9yAQ2OJ584Gg4kJ3PgbeTMM3r+zwrELYrTcRoB47TZXk0EW8lD2YCnfOQczA1jbVw/wnh567w7efpzXl2GieeyeORsw1oTlfwpA1U3JVzyhGItutaksaUXLl+2E5lrjT+SScAG7U5X4zwofoIFnE4rNaEIMHswvalMicCinfmvndCtN3cV4xCy6Iw3G99i30lAq56iq+RpwtBaEVstLUry24+bxxnJAlNBuNDnFI1uXuZUx5YGSd44NBvVxdcLKgGhD0c7iZMXt0xIXVljUCeMcTh9lKWzoUhBCMsQr6AO9hod0sF9W8dF3pVjjrp56d81/yGZZw0I2jaaFOOnrngUQNxvZBkIi9gt0kVtM+xxs8k0BMwLtB3VbHkVaNDxoECz4D7A1LT+rcxPvjPLPcpUwluJJ32YxfkqjGkBIYsR8zl3oUEh1Y4QcbXg0p3bYHCCItgTVjn3aTFK1L8+13Vp9oMYKIbSTBVFvKR0OK3jhp8hGiZKeKnarVwmkcPjs0PZxrTgXsSFy0oK0bPlYoH0rFz8iVBW6WE3Mm/K8HmdJaGzpFsjAmBxyo0p+VT/6etV8Rve3Ea2cJ3TwPOb+XL5jf5anWo8omLKzDSvDjPADmcBuXhkC34ddUW4znemAc18l9R1N/f/hKthWAh9poEEaNxNHAhvPixOOQ8Soo8IgV5Aizoi/LIFMd0FApUk4dDxIIQJhhOyAZIAX20b8iavimlISM6LfXsERohnEpyuhnHYSEbVXKlATcCKFKov2TDWy41C9zIYFKK4CXSysz21BvNIoTrahYx3HJlHUPVhr7Mfumz7+JJ/kZ6TTNF3EX/pS/z3ZafqXMwL0yAamtXdpNUJhQBffzO4rLAvsVD07iZ8qv3biVnbRFEek3rbmwNzualR5uiPx/cEITa1yQuCbDECtlt3Rr5Kf4z4rOVLqaO0UiQXdXieJF82uDGVFhIImv1KB7PB69u7TWvu/tDSEn9MVhNlGLIlBATvkxKNhHne3UZtp7KV0bwaFX4AyRYnnxKTECoI6t/Ol0N7Y4JJU9x2qZzdMH7Uo4m3d+R/seCYooNP2/pHpQDCGSYV9mF17S1r4Lp1Y/tmeJmjpc8FoifMahlsSHorqezrllFWJh9NGD44VgZEGOGodbGutPnteQ7tCI78EVAfI0ecFXMynSFyZhy2h5naCRtpCm4YZc14qf/cjBSOspvIrCFSxLsTa69UwU3KVm+QCkunSRX4Z/Ul8PxmThxgbc6cL3VnSC7Efv6bslxRqo/0nrJ1rv1Y8++A5w7gYu47IVXHVBaiRX6jlOqYZBwYZyPCozr/XtsQxkbaF994Pwg6sy0PpTjOnwB4gmA7Gw1BY9gylVz3x432cB+LIGhHmsRpjttPIRev2RNMnio3io360noDf50+MEiOphEbNiLC5VMzOOTQEMTLnkUG8EVgIgqWFUE9H0ZtJxf0Bntkqa3GDl1q//pSzpl3IgMj3+se/a4TJ2YUWuKJp4y9vsnaiHA+vUBKyWytheBSoorPYVT0xHJdmK00kFwXqrKaPwoxn0fe2ZtlS5dVbaaI0v6UHp+HxymBRxt91wnq9jrdz5pK8UaGz/ZfIGcVLQyTg8pdSt6wpHyA1WG5CgHMxHXAm/l2pwt6TJ++HSu8l8ipYGcrSdiO0U9qgNXvKNEV4EDC4D7g/wR/Dbvv+KAvPWZiDqgQLVQgcaQ4mfGb9ERUq7sUWP34VU0LFirqbDVkovTWhD6Y1LeT6DldPKAOPWgeLmtzEFsy6V+hhj4U42d2DdMvmsSi2POTDnB63GwgzZB3N3FpIc6FWPCwlYqsYVs1y9Xz4Fd0+S2frUoZWJeNRJTu1kmOmkEwHGAJJ8Xo92bKk/FwfgInvn9Zn3NJwBgZ1xKDxsGY4zbhTK2Jyd5sayx1NZULhOsDRLszbxnnopodEnqKUstIBT29X0clY+rxxAo2sWi4yN2MKYFnul0natpOjr6em0+01XAkOPckWFO8IwInrw5kV1lkZSuDRugqGjdTtFAll6S0sudPyrv1o5fxVXusgFvGa8DfG8BPsTQcAS2OpeqNpK1rM9RhmFvPfR2pvnMCsGeJw7BAVJQUAI1xa7YZpaHxvQwyTC8KedmdWTT+rwnurkLVcyw/E1yDk6cV75BJ5wOm/XZOjjmbGqlD5jomXtfUEwD0uAc8O259nlJdHS26XB3kT6YW/bGCEtq/TXrKuQ6qRmoxozjB/K/CDJM8STHzpPic9Eb+9a4xv6D7zOW62T/63vPyfcPgGTVobkPuYBiOpcuUdhkgtfcvBtNGPeEUns2rNLF6AgVOi2AwDWZ+ndWaOShPjWZWs+/vCV5GuOjtmwlI779Lw+de3UUY62yJJRfyhPuvN6d3WfRvctOK1dFUvb26cS/NlLFPHYBwEnUeSIpKz4Gj8WeGM3UImD2tpAEZmySpoL+IjFGY2to3sVJI9McC1P5SjpZS8E8tPFUIIjwfISeXo2jEhtAmGFCx9dFvSQo+nynrACXfl9PS8ceJOaWg8BcthXWxIvQ9ZRRW07pZJ0qwNheW9Ehne3Hoqhufh7sxf7zwuWE62K4L3LkGWuL1k2Hjp99jHzsQ9M6Lmgwps+5KaXzxN8ZG4HX9/QBGpNzfDXFstkttJmsvkr145XSD/Mwt5Yruv3IgBfQ3EqXOKxL55DCi9ZjY4u91WMY0/9YDixJppRiJ7LKRtDa2HGE5KhHQM8d1IwQw3Pcy0OXxfJGzvfX7/NqZFBfbo0DPEpJYEie9UPBVkyIWxafPnkdaE97WWDVEaB1f67KXs1WfbIfZzxj2cGClh1FjHJdXq+GeFG64vzPDTyJ+nfRJ6iyOu09vANlbOyZHecpt2axVqe5HGIMwwW+QwL33s8mwlLvqfzkQOWVQsk1gt6vBhG2LU+aVWYFof/8PRrZ9ig6oTJtag4Yaho96BqBQMJ7523Ar6CV1+keoIQ8fXr/rqQLV8v9SxJyeWhylxa677EBomw4QMyaCMa/CAOow6tQkU3nrAjVgAcJdQEjZ4hVZP97h3e28Xq3hbcJZhB6HncAO+YUI7MeXzFOStmp8qx2LQTU7tb3PK8oiVHCOdzbxqVLisIH8zBJpb9ftv0DT9F6108iTQEE/vXfGTmAEHjZce2LqUJB0/3oI8OjQ6WBA0iA+4P+Dv4NPVIq36Q1mdAc8RO41Q5DxI+HTtod2TLM8zU8l9/RlQgeDHdLXDwvEBSdmM48GFdOjFkB3Hnui35EApuwmePQeuWAQmqPf0PLhWhzwkUfoF98dgPFRDqjLkRDZAah7pJeMT0mKkttlV56PZrRsxbzGvv5kgpGvrtKqbqFxuFMDQmAVGmsMaYeWIhNqNqo4ZFWTpWDm0c6RSI3wPJHRnwwWdRiTo5SG9dehl8usfzas24QgocA9QEbnoFACzbgKDqw0FsV1KgaCZSXrcN576BVs9aNgG6Oo3LmBLYFF91yYcMZq1jHm1Fj7E2a738b0u15AhPnF3HL8O031aiRdJ2FO4qe0fRRAlIlL0MABK+1bjSkfOMxffh1FM8VT7lfsJTvij67f3HRHjwZzcuQPepApyqYsPi80T0sIOH1KVQEBn3sZMAdrXUd/YZYZGPkJMh6Cea9v0stmUY0L/jqhT8KfLkUWNHO9+KfkvxPXmC46c+dzLx66J5bTBqUPXsAnRB98JQvGYLbrynO7UiHqgrAr6fCO20MVmqPSS0YEiGeyXQ7f7qx0HxUq8bfR1B/4HXREthlajSx8CheGByMH4vGzo3W21HRALciVnVq47XJZZIgTuY1CGaUPFis3QqKznhMMlZ53btGHEYC7Tyd+zXrsl2BjYEFUre/6LvcHyEg63u2+lQMY0782oB6OnoBDg0hiehmTUr4kAMZoDs81DFl+XDcaEx45xLnVe3DsN6EUVGSx1B1kEh8h1T3lWsX0hC09/a1+VKwd1uNhvv9eSz6PhB6/1RhZwRtsb0xmWmA1Ucby6T4z90o6vAGuxS5d7IXLTDLCw+Apb06Pm7PQbM43bURlzMNSbkpMTUMiLR/8rYUF4pQ2VMUluwJU7yrITLbCvtbju9oQ5v5qwVpAFMZBcJ8h5kqB07dDA3P10VXP+2ZBjfQRZhpWTLKmni2smXPPrzyeduX8+vQJD61F56DZZRUqkOGJ+87lG2VGho7UXEDOehCXmJHvtD/7M6R/2COukAw6uaUahJOU/PZ2dTPuSQTI9qMy0Nx23eRB7SmqEq5kHCn/MgW8tx2Qok8jpE6riCxGoAimM60ZXCFcRZG5WuzGNsjDEJXOWr0+OnNKrXaxFlBUita30ij0LIeaAgyJRInTLqSFc/LEquOzsBhamcJx6zEzQGYIUjFJe77OZSQuNs4V+XCAXA0D9TGqJewn+FqIRYebdm/g70=","2"
"","","","","","instructions","18","44729","0.0-7.0","zuhgtge60rggv5l","zuhgtge60rggv5l-2024-03-20-05-16-58","2206","","[{""page_index"":0,""viewing_time"":2206}]","","",""
"","","","","","image-button-response","19","49235","0.0-8.0-0.0","zuhgtge60rggv5l","zuhgtge60rggv5l-2024-03-20-05-16-58","null","","","images/stories/paris_story/paris_story_5.png","null",""
"","","","","","image-button-response","20","50841","0.0-8.0-1.0","zuhgtge60rggv5l","zuhgtge60rggv5l-2024-03-20-05-16-58","1605","","","images/stories/paris_story/paris_story_5.png","1",""
"","","","","","image-button-response","21","52646","0.0-8.0-2.0","zuhgtge60rggv5l","zuhgtge60rggv5l-2024-03-20-05-16-58","null","","","[]","null",""
"","","","","","image-button-response","22","57151","0.0-8.0-0.1","zuhgtge60rggv5l","zuhgtge60rggv5l-2024-03-20-05-16-58","null","","","images/stories/paris_story/paris_story_3.png","null",""
"","","","","","image-button-response","23","59859","0.0-8.0-1.1","zuhgtge60rggv5l","zuhgtge60rggv5l-2024-03-20-05-16-58","null","","","images/stories/paris_story/paris_story_3.png","null",""
"","","","","","image-button-response","24","61674","0.0-8.0-2.1","zuhgtge60rggv5l","zuhgtge60rggv5l-2024-03-20-05-16-58","null","","","[]","null",""
"","","","","","image-button-response","25","66180","0.0-8.0-0.2","zuhgtge60rggv5l","zuhgtge60rggv5l-2024-03-20-05-16-58","null","","","images/stories/paris_story/paris_story_8.png","null",""
"","","","","","image-button-response","26","68885","0.0-8.0-1.2","zuhgtge60rggv5l","zuhgtge60rggv5l-2024-03-20-05-16-58","null","","","images/stories/paris_story/paris_story_8.png","null",""
"","","","","","image-button-response","27","70947","0.0-8.0-2.2","zuhgtge60rggv5l","zuhgtge60rggv5l-2024-03-20-05-16-58","null","","","[]","null",""
"","","","","","image-button-response","28","75946","0.0-8.0-0.3","zuhgtge60rggv5l","zuhgtge60rggv5l-2024-03-20-05-16-58","null","","","images/stories/paris_story/paris_story_7.png","null",""
"","","","","","image-button-response","29","78952","0.0-8.0-1.3","zuhgtge60rggv5l","zuhgtge60rggv5l-2024-03-20-05-16-58","null","","","images/stories/paris_story/paris_story_7.png","null",""
"","","","","","image-button-response","30","80948","0.0-8.0-2.3","zuhgtge60rggv5l","zuhgtge60rggv5l-2024-03-20-05-16-58","null","","","[]","null",""
"","","","","","image-button-response","31","85959","0.0-8.0-0.4","zuhgtge60rggv5l","zuhgtge60rggv5l-2024-03-20-05-16-58","null","","","images/stories/paris_story/paris_story_1.png","null",""
"","","","","","image-button-response","32","88952","0.0-8.0-1.4","zuhgtge60rggv5l","zuhgtge60rggv5l-2024-03-20-05-16-58","null","","","images/stories/paris_story/paris_story_1.png","null",""
"","","","","","image-button-response","33","90946","0.0-8.0-2.4","zuhgtge60rggv5l","zuhgtge60rggv5l-2024-03-20-05-16-58","null","","","[]","null",""
"","","","","","image-button-response","34","95952","0.0-8.0-0.5","zuhgtge60rggv5l","zuhgtge60rggv5l-2024-03-20-05-16-58","null","","","images/stories/paris_story/paris_story_6.png","null",""
"","","","","","image-button-response","35","98949","0.0-8.0-1.5","zuhgtge60rggv5l","zuhgtge60rggv5l-2024-03-20-05-16-58","null","","","images/stories/paris_story/paris_story_6.png","null",""
"","","","","","image-button-response","36","100958","0.0-8.0-2.5","zuhgtge60rggv5l","zuhgtge60rggv5l-2024-03-20-05-16-58","null","","","[]","null",""
"","","","","","image-button-response","37","105955","0.0-8.0-0.6","zuhgtge60rggv5l","zuhgtge60rggv5l-2024-03-20-05-16-58","null","","","images/stories/paris_story/paris_story_10.png","null",""
"","","","","","image-button-response","38","108955","0.0-8.0-1.6","zuhgtge60rggv5l","zuhgtge60rggv5l-2024-03-20-05-16-58","null","","","images/stories/paris_story/paris_story_10.png","null",""
"","","","","","image-button-response","39","110951","0.0-8.0-2.6","zuhgtge60rggv5l","zuhgtge60rggv5l-2024-03-20-05-16-58","null","","","[]","null",""
"","","","","","image-button-response","40","115947","0.0-8.0-0.7","zuhgtge60rggv5l","zuhgtge60rggv5l-2024-03-20-05-16-58","null","","","images/stories/paris_story/paris_story_4.png","null",""
"","","","","","image-button-response","41","118945","0.0-8.0-1.7","zuhgtge60rggv5l","zuhgtge60rggv5l-2024-03-20-05-16-58","null","","","images/stories/paris_story/paris_story_4.png","null",""
"","","","","","image-button-response","42","120952","0.0-8.0-2.7","zuhgtge60rggv5l","zuhgtge60rggv5l-2024-03-20-05-16-58","null","","","[]","null",""
"","","","","","image-button-response","43","125956","0.0-8.0-0.8","zuhgtge60rggv5l","zuhgtge60rggv5l-2024-03-20-05-16-58","null","","","images/stories/paris_story/paris_story_9.png","null",""
"","","","","","image-button-response","44","128958","0.0-8.0-1.8","zuhgtge60rggv5l","zuhgtge60rggv5l-2024-03-20-05-16-58","null","","","images/stories/paris_story/paris_story_9.png","null",""
"","","","","","image-button-response","45","130960","0.0-8.0-2.8","zuhgtge60rggv5l","zuhgtge60rggv5l-2024-03-20-05-16-58","null","","","[]","null",""
"","","","","","image-button-response","46","135945","0.0-8.0-0.9","zuhgtge60rggv5l","zuhgtge60rggv5l-2024-03-20-05-16-58","null","","","images/stories/paris_story/paris_story_2.png","null",""
"","","","","","image-button-response","47","138945","0.0-8.0-1.9","zuhgtge60rggv5l","zuhgtge60rggv5l-2024-03-20-05-16-58","null","","","images/stories/paris_story/paris_story_2.png","null",""
"","","","","","image-button-response","48","140960","0.0-8.0-2.9","zuhgtge60rggv5l","zuhgtge60rggv5l-2024-03-20-05-16-58","null","","","[]","null",""
"","","","","","html-audio-response","49","151914","0.0-9.0","zuhgtge60rggv5l","zuhgtge60rggv5l-2024-03-20-05-16-58","1871","","","<span style=""color: red; font-size: 24px""> NOW RECORDING</span>
        <p>Please say out loud the list of the actions you saw. The actions can be said in any order.</p>","GkXfo59ChoEBQveBAULygQRC84EIQoKEd2VibUKHgQRChYECGFOAZwH/////////FUmpZpkq17GDD0JATYCGQ2hyb21lV0GGQ2hyb21lFlSua7+uvdeBAXPFh24DjWKV1cqDgQKGhkFfT1BVU2Oik09wdXNIZWFkAQEAAIC7AAAAAADhjbWERzuAAJ+BAWJkgSAfQ7Z1Af/////////ngQCjRCiBAACA+4P/Nf0KeMP1zJTa3vJrQ8Fc8qAHSL3G/lL+rHxunWoySajfaRkWmdBuGOsgdJrltignVmKH6iVJWR0zX36JC8jtFkAe0hy7D7cBQjy0GnfyvOeoPDi9r30zud9JjcQtv5HJL6odqxnzzc291tbZUdb4oK1RnWww7UrfDP4ffOB3KZ258FsKK85jx3Nb1TY54VKUWWi4OYVyk1/xdRhUQT7QlWu8ez6RX4OeUeRJNiuBqRDxOPaoWy5IOmAEi9nZaDCbZkTqeezIfHUsLQScFEOCjprrSLomtwAAAAAAAAAAAAwx7ZL+gZSvdD54eduzepr3kPYCjeb6V3fVF8T13HWu3tXboyqCQkO9ze5dYDxw4Si8OY0vbPvQs4HctWAXK1hy6NpJp7xt6/XH/lhMhlAKwU296R7RnLQRN/jHDSN7+UYM9Vqxwtv+3seavmEAQePpRW9U30SWsEja5PmW2I6QSlMjtUbVVHYFLHhHm/JspFsD0iGgzCutGSTlESPU8zRgTQCRd4wh9yfep5fa+6am6AjflmYGdXPzgGbB/kDNMT5zaYCC/ZIO8SpirzSd7c2SE7HJdmbcpJk99g1jpARjs4oOlWy5m0uHfIDkUcyeYkQAiIqrsXdbJQhbA/Kxcdk7TodBWf36SkdT/OeKxtEICu72gdSo95I+oFMDazO6jmxXWE7ZKNbMw9wX+37XE358zaOXBubvno8QDSkr24NKe4g9zBizzGo1OvOnP/Jw4ae8hw2hLrj1phbrxy/f1jCkJhBwnlXvCLY6uU9BPfUw4fEgOlf/DPz8nPOZntwk/Ooig/huYcn2P9FGCUa1oSx07h6Ke/49sGQwtplS1ezFDKflS3cHRx538WjKtv7MbE9umKd6Matk09bVdFop5ZCh9FmC4RhYpBDlra/B4SC0LEU5ZemC+jp4z1ZHYwSTGIqJYPe0D/JNWcqR5Xjg7+xGzhJjjUR2P+DZV847I2i77/wyjOQjIG5xgIH/t99fJiyQwzgWw7IP735K8Rr/IFSuvSDce9SvmP/AxxNUnWusi506VCQDoP3Uy1wlVPy6wczAz0XqcAZe9oej3aIBqlcsZnigdv/gdj+tqqfQGOw9o/7iuXpDWRA3BxN7Isz0bp34rq2wgDe4lW6DtX11kuDWK8tO5/OaJBB+wqrBAeJFjyBc3lNcZXHeS1Q9Y86MzAns3M8ulJdDZ7ivxjI422sIyYKnUp7qmRsDQcjYpQZ6U+uEj1UJlIhV170DZEkeBHFuZ8tiLA6YWjWG6Gc6OimYbVCsBByqe3x2rTAb9kHgPpSgGqPeJunUidEAIjF144sYXXHzPRs3vvNOEjoPDdJWxKmV1wr3tUSrx93IstYZ1/+uSQfvJaOsLXpHR3xNcOC9bifUgBg7/5M7KlEESBIt8aNDhIEAO4D7g/wL/AtCyjaB6iUHeRjf/dJzwc7NlUrX5E87chnyISoHpDTunUx6xBIgwTvoI4u+RUz/TVqXxJZgSuMJSJoaOBPVz1e6+BqIMq/OhtzLet/ysz8L/w20mDsQatVJXHMnpDhcuZN2Bv2G9X6b67RpA9JW1zpl8YcyR1B6XrkoB9JcpXbHZz4XM6i4FYOT4NxKVRG/JkvBv654MW4faxDD8GBq1g0UiYsysof7fW0PoPaipUuQ8IDxPEtB4y2X9okPpWtiCBnH5o0qzxzAiDrjoqqbp78lQ+UBMzAp1ojX18Mlj79UyOVGvUA5Nw+HetzTFCBKrpbnX95LGmwhohgOMAFXhZuwwjVrtimFvchnMXBlS5RPLfRF62V3CPrKrWpw2uQrcVPCGb1WMVPejj7SLAoxuBWfiNY/T6Mgs635ojtb9P+On/dr78bVEjy8C5zNPMaXoKtr4zTxVUYdRsgyknkGcZnJ2b0GNZqjjB/o9H4rhxq6tuz6w3vkwLfbV6rGlLrQCmVVIct4qukxMzwahDD/k0KM/HiOpEYskClN7YquoqD/Gr4uyv1vWro8Cwhja/cjnuURIVuGo/vxN+ifC7Itfal0szWHxXyC8mF63zo+AyzfO/2nJpXKGvxUktybm7XNaq6XIy1UO7M/nVLGrRbQIg719c/wfaMdTb2kScTTF3QWZMlIePoSAt9t6yOby1etUA/cOk8PgfWy0LyMTi17XdvTWcNKMU13X6EYYfDZpOf4H93yyHluJDxkgYZ67zRmXer47DKEa7n208O2rdi95k7oxRIITU53XTcLInFwlQfqiFMCow8KyX6tMh2wUjOUyTZcIFdUrSZy4FOTjOistJezkkxNt3wcDcv3nyzzy9rNS84/bZtjrekBxzRvE3xd044++HMF4nCUSI9hig6Hh8QuJyjvXv2wWoYUxjU981Q6Dwtb/g+JQK0PaydLnoXIA2DevmgkbTQs4LbV+/Ru+csmbiKl/t4CKUAYOmqk+v25wCAq5Sf87RAbkiDNzYV5GOOmQUjO8YveSn9RP3dKDTHb9UshbaundNMmzLYJ041EyB2kbn71KcdAB/91I5lyM/e1L2ppFpTwgRk91Zbp8BvHJP2lXuKEIRRwz9XybLNveMtKJfGuWjbbyxKboxCLf/P/pHPK5kKNDhmrGmrbspKBs9JJS7HHzLTlRaNDsoEAd4D7g/0M/w/E/dJmvGq1gItthbXNG2PI6nANyLmeSZlXK9KBiw23I8qT7cbHhpRHJEaXSMEDJ0mpt0r90rSmkWBPHKVqw5X5OKaz18pMDqEHxU4sV8ocDEvSlUwntrrCf+IjvJ8GERHRNReQqMK4Rtmmy9DQCClgleu2JtYZUAgPK80k+b0FvVfyNFhKvqoV+sHQuZntwapu/K7hBNR1yc/Ns1JjW+Z/M+Z8UuSAiXRz+QDV1MdePA4tTZKpUvnmUirc9JnwCUg0tCXtai+JLREGEC7y8Oj9YB7JPEuRB7xZb0zOKgxCzcHUtadvqivhXUHs2Qw9C0zcTWCphLMchc6BupMVguMZxSo5ZgJC4cklwWw4CgQONwoxFbc1LJZ3EWpMUft3gJfRypIb9nrXd7dyYOVCxP5w6peSJ/UbJKlhFCNEtuzjgOnPnuo6hnQNkQMg0oiJjnUaSM1GHQMcNrhGxoXKOxt+7QRMZlU291I1EEFTVm0Bgmx1lksvY1IgmXFLOJYR6ic/Z6LEtvTRT7CWTBGPQvrCbQA1M6PgfJ4YH7XCVj+dJ9bkG19fNLo2psBmwTfgheXG0hjgwxT+CuPMHRA4FWUuefT8xSTjmB2SHeF08LlvuQa1xMwHKq/QHGL7IoFtCtCHi+aTKHIv9iReC+a9QFdScZWCQGRspEC2PQ4iZHsHmcDhI0MZPtm2e0BZw1ambafOiWnoYQAPn5FDPZckAi/YGiPPfOaVDixmfNxB1sz+W0f6ecakerLHpNpMXXcCr/wadA+CvTg8gNTL0F6q9p3udABlauzMLS1JTKviNGrkIBY6al/CeZlGxTkhY4xVoLo0fRBz4sdeN9tIfLk4qrrvJo4c+AabOGr6bH6It0wEtv3BK0wOKtdkKwjplqSPZzbsji6qAWpk58++oMMZlY/pvucfb3v1VXh3zV4TU0s9uuCKGaywQtevuydaxCmHrvNf2k95Y1WdKTImKgRq/sgSIdpHYG0UYsQakbFV55+6rYPy7iGukMrMvCXUYI6GBQxMX8V8EBYJ075kmeweUzKhNIvHzmVuuFChQk/cfj6AVCMwrP6COC/75ArvdBPqJIjg6g6Usj4wppGeH53j/eH38tD4xqaqlH3YpMfizcADRrwyf0eQEQSlzWAF2WjSRS5jw92ckInfkYB5jLT9QUpEcEvKj3b9uJwHtEReTGSm9TTGUOfQSry+4CiozTWYAwWEON1ecNCn+m1PsAR5fOPc87O3nPmZ2UKjQ8aBALOA+wPFFkawOm7T8wQusCR5Uwh08PuOPyOWrzo1jbvC9jjhNdm6q9g77yg1hBSdY+2afaUDWFYStZXUs1+3gAktt5pnPEEr3UniJL9nAzBbVq1mBRt7v02tZi7A6FvUlmB7ZVCdm1ioFomG+eN8OKPnF+99ALPRfVcMD9YbO4392GDVArkf6WxnxyinxU9emRb8ic/smFs8+fRRwbwOhcI5pnbmBXcLthOSgqODNsB8SVNJXyfpjeM9P5WYi3SO70s2HqUOI2q5ev9a7L+LqDN6WuNfHtWjWNoUZEIHRDTjRcLvvSrRrP+VLeNadUfiAM3ZPT76PDVFlCeXFOBO4osRkLrHr+HTGJY84gAuQYn+TgM/Kx7Ax17jemQb+BJyTcUxUAe8mwVhDvqNwjdF1WvpWJ+41UAoKyFq+m4UidDD4qaFRMbpzJpm/d4gcBH5WU9QVG+5h1kbSLw74sEi1MZHptCqpc6gFgaaWnyuHgxa5u6juvxJoReOfPkz0M+x4PsRqnUB6HuX+x1o2UED8FniG75x7ioCkd1YA1xZbjUg5PUG8v8HROSCAGh4Bgh5u5CkIvy4TnKGlWEJmBe8kMcdLrZBFjVp2Zeb5S6R63A6Kpn1nFIWKMd0AEpQdcd7s34ZwmMPanmNGiOf4+RYAWekLBwbMP6FrC86B6B1NYiVsyImNWxEyUbOMxY6XWIOZ28ljzG5Ekmbn+F6jdzqum5sIqh/9KksF76UfcYch5NuEarbAw4nTnNuX7ARLKRajX9vMkdWoKX7jTSaRHJlZHOyV1sBnrljypJnr4b6+to4w1MjElbyilDFz9M52+NbmmhXo3J0VcoaGVvRvtDohckEU1lEwg1ZDSmDBqPXHMhaRSj4dS1betoh+m08g/Y1iU7W892bJaW+ycIHyJYH0RAuCeXVvPPqIYZRrb2aQ4cB0pT4s2d88Kbv4wKdEWEErFhL0ARNjciDOxTWsQ/nqHu9rl2himXBbRQFXRt5lZjJm0ypPxhKqi6CC8oNFViO+XxwgdjhlhxxmlhA6tPr2uQtDQ53O7dGJ8lXIdZX05Ri+V9O1UTQ4IaWIlsfOnlDzRvzJFk7plyFA2OlaRjf1DLPaRgDnTnJ437P0LrWczDuq+GGm0mGJeDrzkJqT801Wjjt/rqdU22WsEvuLmm3oh80n+NwxapY6naQoC8ffIzLGO0prewfM+kEBhRwHPLvk3UU5/1pO4F2Hqc0drmFmfwet4ZvjpctCzK3W8KBeX6vIkHI51UwiriPcMsGmXMPRuxXwUSjQ8aBAPCA+wPG6n9jes4tS/yapfbIFL7BlmQQPmPLJF/F1WKNRiNNli/MR7cJabiGFsblztXuDG6UEDphH59ge2gERdwKYIZwGOylK/5sJVwiBzT3hmALAYhhv6F53Vj3iQ2M7S1rjoL69WxUDRskP87H8/RR4+1La5cQHiQ93tOQBeHU0EgCGo32NcChHp+6Byd5spUzdQkxxqvmoOxUiM3vt38MkrNHxcySNnk1VBxDGGbgc+pNH4v1lLyWYyDAYFgmXFI0DAOdwAgSDkkFJ5EOgYKYsRjnnLOK3rpjF5r0pUd1wPSjVst/QYar3luGhMco6MmWkLNBu9lart1ZH+IEPyc0NqtZWLGpKrETpn81SJlsixrNWfukqJASGKm2Xxd87C2cXl6GQzmOfiyLsz/Whqb+P1HbMRV1b7k0+3peSM3CI3t1Rsbsx/src3GlbsuI2RmhlVUD1mUIgPmCLstlutXTQ0hc70wMYrWhke1igodzB7kCupOMPMNZ6Vf6zA05rfK9vnaHZu/EUtvUylKzSrTcnvVKTwuAPaMQ9q83RUlbyPiv9ABNnYK6XTDf679gQLu7dk3mPTggJnOFOy4XXhu2CGPAro50giQNGg6Cqx+yxTGfzkBBSKX/1lGbw/vBEiRfEynQ7W5AKfJb6/GHC/XkQODI+8ZdTaTXZ+HtHSgJllFbByaZLvfrtt9WmfcbZSh0iU2f2yCtbCnNrtzWjV+kq62I9MkgM66ZSIA1gT1vgq6lIX/PlmJxn84op+PnybR7ahoAsszioBNaEhqiDhdp0Pbp+cftyFgWbDiJc0AxfcdlzAGacTVcJDjRW64gkfcDjslSLzj+sGPyzkyK6oK+3vFFxup/d/cwSI8E+Hv8eKisBGP2nE63jsGL+zsAnd0kH5DYMjvWxUtUpgBVSTFq3kS0vzsTr4Aj/+GvxiPA8GihJ9TGzb7wRtlGMv7itB1FuhRVMI52whUuoK5u/trYgcmWul3/hi5zS1abYmo8fCs4EP665Z6pZ7J9x2pP5pyp9P3ETP2mP5fK5XpE3WIAS0J+WkkoYUkmnX1V/dvi4LmF/4OQm+hqxyD3RxSxTGE0h8bORtS9wZHahTbCR5fummRIb8MDdYmNpETpNesZqJl6uSPJwTOoiwWgzxU0s5beBHIVYanMx90CZusTlgbrENOZ637SfcXn0RXo6eX2j1SmMTycoGHBwYaxnrjcZ/KP1TeVvpekVweLbu5csspHAisH/FWmlAhANRPAU90DmdqsMAThUj7E7OO8Dws8/L6lDUajQ8aBASqA+wPFOpKovYZ55Gh9BW81QDAixTTMyJ7kAyBp4QTPGN8scgf0zdiz/8GG1TyiEd3PBrmQ/FJ37zQdSpH1ECrdkoFJ7Bn7dPJmAE24WYAd6iXzL3gn9//LTNNnBSViCV3rLlfMgv5Zjj3lTYBafIEAEf75otbmpSxqVtciV91ySyl5zP/KVepveIB1O5jqUYMcuisJtUsJf3crYeUiTTmdIhIngz17Fb/3vRkA3WcYObXihOSEIeuMLhtsh3vXdSFRIb3Ga4HUisHFWpE+w/xTZP6Q6u4SDgZjknsv3ZsMDzXw0w3g0OyGslHaghNzsaVp/SRcuUlyt3I2rYaZQFqlKReVclHEbSTIQ6SdoiiVnOcSs6hokF4FIVaMl247zffF+GLCCCC8SA/UgfJrmSM3joxQ6S03BxXN1hENIduLtY19RsHEqV60+WBi0WvLIpmZvT2bZKIih6TtaCxAFajIuSLaN+bDau0Z4lYJORyMkFZQ4egaH4fYMamio/59lrIQi8JmP2cKtb8RPAimeD0tti83EWq0bIczutawqS7WjaQzG1bXyiqlwH1arjJglo9zcTV8Ux03+MpPsnmtJzf0JYQ1A7RBKUN3a+VfGpQBtl3U6Tg7LISt2JH8XLY92xfPakXLtEbLNLf/Xhd5QZHMfhPNdv5qomlFoikseUCVSvK9ni/GbsKleJ3U6pd+Vm1sIcKf6Joe1soqKaZBtIARPYHZXNz2Euyam7uHXNS1xPITGbtRhOD7zNbfOBfwpeAOd1IkLLC/XZJFRHvDCrBbpe/bUz9Xnkrze6FMWH5kR6oRHjHEG7TG7fns994LVt6G+WdKK9EoSvXyFovz+RfbLAFFxRZGrbddyLfyFldWtZpE65PorbaFEbVO4PHs4rMlaAcXxN2JC1HCZ8DV1AG/TYqgaQ3yj8ssulYA+wZFfLPA50VG+WUmX6pNP5OGaTVVu4U2m0t4L9+RFUWhfECn0y46xtMc84lzIPbvDAMMdS1l5j0KIjtXOG8b+89ZyMz6qkB7ghZULqV/Jgg6cf+gM+erPbb+oSN6++xswPfD79DtwagmTYaz8A1e0KQIgCUaQpCTFX5+Oz8Lcw3D8KtoPWVYe+0TWdvlQhHw89yn3Hk/ITydU5xZtU/xte9wAhOCloGvFrqGaVsJw8EVxwwj5wRod+AgxMUudb6C9zGCvIH2Aj/mInhSPnBZYvUXfK85neOqI/lHoA9y/D9wAAx7OV28U/iLNVhcY6AXBYD/8xQlQg/BEJr54vOrDyjYiGEuqUKjQ8aBAWeA+wPG6emiKUtdKJuqA+Q521MUJmsZKAuJiHnVgLiiUvJaSFRSJ6ABQGdBqh+sGNTyDG92H2uAU5W9Y4x5qV8TPpLCxszqu5mXSzy9jYxTGdNdjIexshNpQGZlxdWuyMwfWPblV+nH2kaYTQq7SaMEhUv1socmhoB6EENgIjzBmsRngjfBxrZf8dRl90qiN/wcU5vVjxjt6RXWsiW4JkgucPJFHuzj6iRBjixUTJcNRAMtIK3lZ1LJTC4G0niQTsBGP7UEowRO07zTc3H1AU93+k7VE3CdZhpcpjGyTIN/wtVtFnHBhAtFVp5GtiZIjEFz76/ly54C6J2VIb15p3pfW6jd+RGpLRkLYGt70aTK0UVTHjemPEs0O9Jq1s2PgfA1o+HtCmzuYeOWLRWuTluGT4VivnZ4u5WSYnzEk3F/I9B9RsUZ/oAjNzfMHVlqionDUykNNk4EpYQjTLjk7UPmv7E1yaC2SO9pQSuu6tQbZ/D3yPqQOxT83HdoEi9nz9XrUkTkZ3+qM3rOrmbz0HK5g5esoAGEIuuLFwbb6pXftnjoudGUwP0nlc3RRMqn30plF/zI46YnleRZuh0Ga1EkjeIO37xLBR4aZVA28Olf9W9PvKUDwQ/G59p7uz1G7nAmhxw4hkTPI5zSMVnqS68jckppFInftg9SmBEAaylfkQX4omaxwVHA3uaV9X5WI4Ek0Seuwc0pvwDOQc7nfkdLahaHPDWzhjWYtOLVgVJOiZtRb5PKw5SneAtbZiJ7hIU1sDyRS8n0qxJrXG5pp2guvH9rr+/pcPygqouXSC+kK/N2sBBBRHw5+lvpDTfeHcdCRaUcu8b8Ygz1MQ0Pw4SbQXlGxRGFMkgWtA1AoWkjhMrrKB0lT9ZrHKivPFHVLxQRLJHSAsWuAUyd3oW6Z2WOLUZ8og+NaOpuQM99l2CvMg9SRI8KghBox6PzODMZrKsrmcUyPS8ELZsdiZR5zJl25FVYeH5Nx4+VpmFW6sgqIr8ZEQe7X6QpXsroSkroTuG4DpnyiGzMlyIh2WoQ0tKvz1Xsj1ArwPJjsi+kyA6V3z0MfudQcvzsboxs8kbOh2APp3t2DnpqD0mEblueon84VR3/msBQFQ0/ZoqGW5ryqlK5asxkt1S8gstc69seYlLUSVNlzPZwD2eOs6e3mWLKXH7XDFWPtRTjpIBQHz8xSd0DgqEcEdwDh5MeOsmjHvD7RL0P4hTbpV97Q+LdrBwy6P8DOMObhE/iv+mt0K0TN9eNT4+lzrCTXucRy4AFaIDl2USjQ8aBAaOA+wM88wbobDUocfnSnIxgZwS819WK/cmKbTp/tJRLHXJGXPY4tJIIvIC3uKWOoc8lw+3g/GCgFt0nJmgtaaXyjglAoeqKFIdhFE2Mr/t67pt45cXqpu/ej1mA7sXiRTRAiAQ8oeN/m3uizX0TTvE7KbEIp8+uqM0sNhvVzJFwn4ArYrL2tGTkc87IQ25NSqhIkeT2xOJ6aIYXmFVmteTe8lAAgLn3cIBNkAJQHFa6VxeOMetGv43RLnPTHGIbaynD0XDBhZUXah/Ldop5n9F81/AJEdTnF/o/2q9cjg93AxAKgs72EfXC+ninMiEjFuIWkkWVVldX/bxg88wlk4OydTCkc12C18RT8ln6HaqpBRZKBjeUlaHmMzKe4aRatZGjLTGLIkaML0BcAgwWjFDHrQKr8QRygn9zfT3DeiGRGDaKfNpmFY4jfkMW1FyFBBUJLvuccJzc2AWPIuXcF/EyAEEvdne6jUdftOMznSkBiv14l0NfA/C33W91w0JMm92BXwekZcjLUBqR9+yQ1hGV2efcpduWnIKSaqw3IxMU411q67XqLG3pRDxOmRXqvQ2XduocTWYG42IU8kfNJcq0jDrfKKZfWrvVFUu5ejhbnDna6OdN4He4nNl/z3/igid44gl977b0LHA9/JBUqNjhj66ruUhy+eek+SI5bHMoV+8PiKWCT4XxgQlPmEn+tvCwq+fCLiLa4DT2XvO5COxChS3ws9ik+JWI+Pqv49YdR5TcjCLrFHujuydpDz7iCHWcWcNBrBi2uXIgK9xJUzULCzzxZkioY+5b2ohlTzRMNMnN80EmPN+7F5VF+NtY8Dl6YgmrqhW5QW2j3/Gvp786MlqGUyoMakwOmufbeBRX+oPq+PlfpYQzKKHBbEdxKJsYLJtXuEB4V/F2oo1TGJEzrKCM792wYeF3B1NJ6gt1AvSFi+BR6AuVJpiic5rFv+GO12M3ItFcyFx03Y8gdBIhsaNDJM3thLw7IwXxYlFRug6C54jSCY8RMv9e4ipbPHmlp/1i1TapcEUiBdA5tHDc2LMrP2aBB7fnEGe37lsoIbaBbF6HKfyyVeM9lf85Nln2r2NLlChrl57JA8RD9P5rtOBv1HptlNwdojB4cSkpwz7UfjtLso5dLkCC4v7eMzRRDlpcVWnu+IL+EtnhWHVcOuLMbteYkvyqoes53Fyt3pAEdU7dpxlGyVAKg66UYnNLjS2CsmJ2KKxigTscFBhd0zn11mee3SGxKIS4PRbHnfmwJ0FhYzcivX9Bi9QRHUjoaX6jQ8aBAd+A+wPE/Um5B/t5EFQpUZSjEj9HL9VcwIZngSAysbLXc9JCZ0g/Eti9ooaG29zoVD8RZ9rL11byB1oiC79A8g5o2cfPYW6grSTkVLFwxlw8KNiMqFc0E/RHftbgH5FceQDi1jUs7YuO+qK8pfgcSlF4lQ+MwOwDFkSsLwm64LUfvwMDksIKWJqFru9d4B4dD0AzZIaUlORptNhLhNrVgNEFpt71hltjwBZS1qWxQr4JzsOG3gFLpeEuncEeuKUrgX5W8wa5cr/y+W8hM0PHNeV5+0sgQu4CRsQdRuv5o0XruhCjwsK6+rmkfNrcR8DxVZlXFGz+WRZXwEdiNL6512XJHlL9GzBL9zh7OovkJJc634A1TvvLCOPppAz1ql2cOUf3HSWhmjfQal+QFbbaJp/mEEiBMNxaTbk2cPbcklMlIJpVxcURCqD+iKaP7MeWrjomW4uhMj9llkYNF0oVBg2aqtla72Ue+Ni/U+2T/cnHG2N3MmBsWhO7OZ3neS/hQQ4YEsBVh0qABwTOjZQD4GpYGNRziNw5Ygkd2b+S2VxSCf09HfDBQ1LJDVDtZN5R0064IbWkucKpasMS4bVTmUnjBWqc1Rs9PTENF9df7F9qbQINuENsxSgpbMxFyorsCUHtgbqTmuFLoZMKL71Sss6j1uxTO1UN3u/QOEjYAtmGkBUGBnS0FV7IStjtzlKd+mrIzILVbR1Dh18C/uvUxW3gycLXGwNBE8mA/elHxt/C6/AMbiRQyKT71d1N1HtUu0NLAZQn1yyZlZmVFSe+gD9554ew/YReLGPXGv7MVBwu/o7vgP/dRo/BCL4hzMxi91LzUtXE0s63ra5rbPVZ3h0mNLVEPQ9KKuSqeakaL79WUSSKuO0GTHRCW3+iIb/MPHERt6feFNV511skAshJdaS1fCUFS8vkArVKGH3JWvsX/8bMY8BK5zw5+7ar8bG8aGuePYHWOmwlYUu4K81bh37PM+d7sO/EqWU/u6GUo/LqdAPCSvoT1PsKSajuatkecEod/hnZXcoupwkr5F7ARlAibr6MqEN3+8NZ8cA5a2lNFBnUb7MZDv+WtoG+1ICLrVazinzbryxb4/6WMer+58M+o6T46TOun5qLZq51/Af72XxupNGxQnmIcswOpVkWHte3Uev2tktJ9oMCaLVBceRcfjEknEDSZ215pd7o4r0TUgQcJwifICDzmMye5bfT04VXEniPzKCD7iDHS1p2z09BBIhhKKRBVrKDvGnpyoZrIKPw15RHJB+mESrZ5Sub2JIMMnSjQ8aBAhuA+wPacfdT+RIyTLzPZrnx+0UsQIJi0FCkFUmEfbLUDOVl89ZJ44lwAdQ7aW7oKmiukOIAywVJ4Awzm5x2QtAblfvOQSVC5oVW4fI26RtOaoq3tTiWqtGwY8WOGCHR1zdfMgVypmzkSmhM0hGyu/AezID4IzcPOra5K/TBEHMKL+giKUFYNgVR1oHEjoezPXjpyEyGjBLiS4Jr5KKwd8hrYFXPxaWDPu2eZUc6rKhc9ltz1LBo7rW7ijl1USHVpocT+SUilPzQv5ODxF3HueWFOAVjBiYLNVGQDxnAAu+3egN7J7o1YXsZPYQtNrDOV0knO/7eYAIkyGS5tZZJ8il5DM2lh2alKqsbEL7xRAe64jq+Bl7OOqQQNsYvzwYRJTUXdbA5yuPpC+Pl1tuoTAgzrQ0iQdUTBadFCAy4pcEgwuiqitpnRjPUWUOW7gZq0duvE6DmyZG6mF45cEmmoGcYWvgIYqiMeI6SN/12o92ewBw7rIc0yh2oU7ZiGsfKnYAzvKcTbLaLiyZjtlHV9L+OHz2RBnXq2BlzNoVgcy3kNnVbhhZw61dx2vbk+Mx5ke2Durt1hynvFSK/JaeCT3DXzg2PNgrZnGDlcpsr0MF4xOwlOv7aIi6vnjF5Hzmk4s+iRDUcGSl1zc5AG2uq1yk7pokX5qIXSuWBktu2QNU7RjAeOeiXAEpok3EQU2wJoU9M0lcAsimcpyH35P7rYpVpnLX7nSw22qE1tkipfgh94mkS4Al9+9HcfV/PAjj7gbTJFKxr/uI3sam/nb7niyYmQnAcyIfq8syICSJRaEHUD9/Uw9jufNNuhhOLVuwokCw27QxKwm69VvFt5qf/lI6Tx+qK2lbSarpTwP8pPShxW/1DLIHRe05mIMSjw1irFpPQheJL643KGMcUZUrmSjAH3xXe7PF64yh/uP2NNLnnAvQcVrQi4EqOxb3aPSJEHiT7UjlGD9OVt5kDuf5FXhlq2nBflAdK8loUKG6aekUAbqmGjYXCp3v4VEByyC0V89QSxHgU2yyCuRDDnBcCOX81Z9m1f95hYFRcv2pQ2QIAMqtnc4a+yq4oV01SXTNHkYZ/dqRUo5oPCUsV1csAhe+3Dvi/EnBrg3yqqf5MJyMjYvVfexQbh7DOiZbfFuPE2jqS+FCkJUtDn9epMEgj7PcgsuVe0op5KXJkUn7m5EpUs8ow4gvYCIxw7nQ+wBuCsUe5tFi9v7+0iBbS1f77WRVw4dxbuepHy5jJ2JoyCrnOvi8klq/rUaTB+Vx0Xsz+SsqL8oCjQ8aBAliA+wPaj1f2Yo1k7dG2pp9ZsL0LM6rqQUodp106LEcmEm5E9UWM9rFS61PaG721+uOdQQrE/9JQO6MOJLfogjopckBt0vlMgIoV931rSgwqajvTb9NQoANmmsP8XbVLXjX3J6HrTJhEf+1Pc2/ZzBIpk/4nH2upDVWS7Iz2Nt9aShPUwHFiEok4J4pGI4jwZ9tknWBocJBrAQCl2Xg0ENaCvcXBiY4G7jWK5DoIswesxb+ctcn2bgD4p82oSmLlKZsCQAq3Xj5lQc0a3SUOQLXQP62azWh4uWLGwzlnX1n4TwJXCK14F2fI6J8o0Oo+umrUFWz6kH+FeFsBUQRCX1zn5+8/uCwSurg3s83nHHLjREjIUQNFaW+riDcdg2Fxn/0LLol5tVC11DHE8epLm3bDtLtTHXfW45NHijrEz5DqCEraidw+/Ei3Ejdw3dr/5SBgMDeQCunVJy/ezfLdNcusvYJThuE+ATTRE+fH+mxDtokKVawlud0EJ2y6QB/iojjSjw7Fdq7GG9IEtKYefBP+B4+9qbriWInkjeeahpaHR63rx5QqYejCb/2jHYZNuJjHn4oVTZyrp9rOQx/UX4AbQI49tb7MWRqYE4HBbqQxx+0NG1TR0SXIsmOrftQwNXuTa2xxEDfv9jg7PlyKgCU7J2UMVCRdCf9YBQNkmyWAYejoCvR6h0+diW4Vdllabtd+cQgvY+kMLkTnuYhy4VPelts5st308o+Uwv0Gysv4WJH6W1PsZfHzIZ27QvF1xAc2djPOSxQ9VJVhcHTZ0dXZ0DDPkwbgPkUxkVeyKduBp2tfuMzT+y9s8u3h/5aMHPDYZA+1RhsZvQTR2X6tQVsuFvKK2lT6oaKhDgyCYPHPJc6wgNau0cy4Pa6EvJmVQA4I1y5sGeGGdI+5sVEmSS/jTM4YXsCZQKa7vttzq1hbZHDqquSBdFDFMx8R+LMkewYmOQkjiAZZETZw+J8m7KPgHqWHz716eXuErPaAZtaNIMwtIPCPFhFI4a3uR7qcGvB0BS5D6w5s/O6aLDx38f38UZR66iKRQYZwzc7Ye40+hlnWz+B1rQG6JiH9UDQuFHHg2TawFlLq57RZ9q64Tt/6H674P9Bn971lE0uT67MrdHH5ihUnVSvLxthkBnmqOJoeYUKPx1dGNqSazEKW8FHRW1W5HFizDJWXLOXIvXtIe2bmQQ5zgQmwNfqsf4KxIyXh/v10qzVw48fvSIdlERtX5Pl/D79Bhop+KWY1MOSfpUsf/aOU9QAGtsQxMNWJPVkTGomjQ8aBApOA+wPadY7PvTub4gTTeVBSvXJaONQDcNbqi5fa0DqoagRXAZ/M+R0YnWi4g9Nw1LOf2ke0MUcRQpIhh8crzqIw5GiBuL2l70aq3cp43hlkW2QmwdTh90sXMkmijpgHvvNbabXUx19HKMYQZPyZ9yREzG7rZFddoJO9iRXY8FmXWNbYIO7bgsFLORScr5GiUy2t8h2JFdhPSaAa9o3OXSW1Ze6RzI5/IqUoMvEYjUZai68b6brO3tqrFnD7oFz3mhi6FYDNQz8UGq2CJ1nmp/ZrvK5pSqVn3XcoRAnyS0c7i2HBpSi9Bd6o1orF41E54aZJiuygQ/g7SewwWTVjgT//u6J47FIJ5aanghzQKKGIrZnpBsdOnVzDblh5AVnlshjQB1UYU7hv82kpD+g/01lQ1j15LQFa65w79av0bQ0fxB1qidpl8U64I9XsBefrvk1kJXwZl/s1I4UI2/iuuqtoRJwLm9FHozzjKRPA4h/WVTAbw6L8/yB6K+EhJ2lWPvOoBP2RL4qNL39qdg++lGuRIpcpJnwJMJ1sUhdlRGWiC2XuqtArltbbGTcFhy0huUPs2rLbuVcrGEJHgvrx7lY8sasj4PzL7iLLe0QkjBhymxkV9T6UL3hYiQUJMizesWRu1yynwG/v5MPvcJGICTaLr0+DqLzyrE3pYJ/h9vMcbQt9oK3r9AuTtMtA5X6ZMAO3Nm5Qoclc/Zbcs3Lhr8Yv0vzhoKzDoi2l5gwM8RbZfUrbnSE1fdGvpSIA46U4CWULVK4w1WY5MvxPOjryP7Lf8IfbdcoQKSPaxBg0Y+90BFpk1bBFnVqDSwLjcRH8pWkdaQXcfPGzR9zD6OzAcjoxI/KI2le4Nh9zT8PVn961p4t3iuKlv0Wz80uN/aCbi36gaeTR/O65kJ84EJW7t9Mz0ncAlWgPEof+xfC/7kgPgDMKesKuN1eDnpkxn2EXCs3b5vf7PFb/rEYxv9MKb/3brDSPdcQUw8ESzXmyvpK4UTqKyyixX555x8i+u24EkuU0TahpcPIQdLTZMsDK0gVr2GPEYu5IidmbXvGEFYrYAsuapzhj/cdlZAPshcUMEpY8WdZGVw/yPlfKoXXilTvo8b9W6/qwis12CAev+AC7jhhqFfTo2e0+KrFf1LGOTlBnzVwTjR8h0i76PfvfU3Z5aGKRQn8LjTP39Lw6D4VUbiZXXWQcTcutZ/mwlJOoBSoqM4SrFN2hEPJFHLGMGS9Wm6ni2Bd4eBV4WmHQ3FL9w3guFfxrF0cLjeUwfGcxNqGhKoyjQ8aBAs+A+wPcQEKA/2Ld/0b9WsuprSFzUmN600UoC+/OMCK+lB9O+S9byBHSownkpxjVV53ycVon0LO87wpFSZ3jo4IpNj7o8r8HtN43rOnKL6rWDoEYA0kqgdOF9YSTRJOKCJpjgy6b4bO0v8AD+hhfL2ydzwA7F5IXQEkuG1qcaZjopCHAhG1B2AJq65/+KA8OhMOANmWJz/qaglwqjg/H0hvWxbX2kzBQGBKCQuPKftts6dMgqrgtbPQvEwYx+ijb+ptyaDuVTnhRCEJcb1V3ygGHPyccAV8k1a+WUwR8MK2oGknOfENAjf6O1wFMvE5UEVNEra4ddzQeB2UlL9LtGVD5amT8UGFLOWOlAzP93UPoHQgIKosiDoodfefYYvrxWkHN/ikkynVNu7qt9nHdhyT88dLzZZ84Ou/FxdnuN4t31/96jde7JHEzPYLP92wULnrRjJub740vCyxWxmjDNCvm9L1ZtqvTHa1aOII221UIk7VFEmxSEv3CwHH4cxjz3cg+I5om2Lt/ZAiyykg8wbiIQB1sQoK+5PJBJTWmu9vPgzLthkMg7VUslxmwexQATla9cu1nMW/XFx1Na/bo0ZGSrpV5EBfuafJYI2Ojl+Kut7Nw3FPVYon/cQNtnrSvSr6wxF7tp/fB3JR214osaPhaxbdSYV2JJUm9RqIdd/+W9EDD9NWZgqggoqEIHd6ir9MXcamHv354qKPRsvLHcKGopo+ZybIczS3Fj8I/KmJgKfR/+sWedzQ0l56g25Hyv33fZwYpqiuBgOdF5uFrYOxokxgtVYWnAbaby1X4Y1XxFD56LwnTTILEVKt2yHtP1RAMH6JY1P38n4nDEHM0GEh/M0qI2mtxWjmd/6ED+kEebL/jN6eoOElzDQYD2oUpxzEubjiZ6kFV0b7hwaxAT/jVUtnGc4L5rt33kd5SCQLW0AheZRgtlyIshxdKAXA66UmN8GgfpRojyqmf/IKHw+AyZdwWgH7F1DrWQrzYDWaFNOwfx5onCOGCfJTfVhVDmqhIDvq3fizjIEsFmyBuEyPojVOOzWtvhnmHz5iFiUTdq0Zjr30joqEJ0j0goV5N1igvmvKG8lvaVvXXLkch3El8ZTDVx0iHZ7Zfb5RLMz/odCIkKDyCQNfavBVh/fQq+r3HMiDVGMfjFxf/oHIWZdDmtOOyHnyK21IJDsSp79LwMwSO8K5q32nJi9n3bGEhT5K9d6BDDP2kh0x4i8Qo8jp4x3AuyZSf69wyW17qRTuyElHfXkeOlixdvMH9COtcKU+5uoqjQ8aBAwuA+wPaaalaEwLGuIF4z75XgIxRgdVUa/vyRkKhMCw3tAoCBubOd9J4HM55iXiEVo8ibsXLXenw0AuqImCNSGUs7Rc8qVqtzQ3EBuPROB8bx7XWWfQvn0Po0fNZTlumKG4e+7R9eKponnkIz2BJpHbDSpAIdhxYP1ewH7UGAHMKCX5NOspHdUa4W+ST6Bt9dhDdV2pSxxakDE7ZbyIJHRGXbrY2NFs0/I8Ux8xY4kEmwaXM750nObZBJA1bB4RrcuNJvcG7SJ5BGKYZZcIWbwfXzi43ntd2btVamuJ5m+H3c7hYs/vbAjKssy5xDFRFnUcYmFinQdPYbcwaFTVGuAWVSMhGSjISTOqToNcXvEJcgv6a//iOSPbUr8vUid8/T9XJyxNVNckrbIAZFXs1A3/d7LpT+KqGR83/BR3/oj6Q3atCjkKr6q6uM8EmIBhupGqvba3P4haWGCVMimkRR6ONlQc5XHuRNwJdzzXYOu0jOXgoTzFSgnBWNZMLpV5gCRgtuPwl98Ws4xgv3cKpf8lwFyAqnl/CbIyvcy9OOQH+B8fAT7OV2LfIPNJVYn91n1AkvfPEzSkTDz5qHsz/08anTctaLl/O4Iic+w5swnd2r1T+jzj64rII7Ua0TC88Q0MqSESXKamjDnmRquVmDjXlr6qM5kYShh/Bw0lLlbQ9lrw7YK92vyt18oqGf0tMW4h2NF6o6Gc551FjnQH+/HC88g6YwhzuGp364WsJDYORQWtpOd3IJRojYiMSbrJxlFeX0kXULOqJPKJ8OevbAFAonellxdC6DWy7ed/AYTZAqcoCTUeMd42z2TEwd8K4Ut0PWLcuoAt1pDZQnyQu2Rp1+J4CxTj7Y2fbcufCNCvKC5xNSSOSC6VMYucRjQXdLy00i2xgOArEeMS+aLtWdyKl81MXblDG0DJwV8Uyshp14jv4DhXfOLtz5J2Lmn51/FK36el3AiTA4gzAuR8h2oIr6R9SrKCUBmqIIErVUJN2FRnPJ8SNMjBGkNKcvygomctsJeqqmhC/dhHz4Rx2USYFeXukvaPRHAjGMjFfOm0RMlH/O23a0VYvI5Sdsn7MQe/LmVEW4EEKkb2lKzYhDrIrgD9ufVosk7GiBDU+/PRz3pBmGxtIj3T0KTwhEX44DQErjajF82q8mAL6OBvoyDyWe0lQeaGCMjsO9uXM480GwzwpyMwlFGs9wCau6UUWr+XYCysC3Qj+m7VORFOpKl5ugULn2ONMqY5zOerr0OToz+CKye1aaoI4xMBj4xfD8VA9cUWjQ8aBA0eA+wPE9g+no2vl5bdd/BCoq6WMD8UiXU51ypfKM2UjkYcEzRydFfY0TGFb6m0CiogDohbHCoUnX61eUgyHWSZdm+J1/Dk2pGpdAViiEPAXLpYlM0qXEJPYmnXHlOU/R9D29Ve+bXLOAmjIRO4baAAvMy/KFXxtPGyjZyak22t49giB4PhIgyb975uFaQzG8f95R/owd3AtjRZShfDxHLOekWlUIStijVBetfwOxx9K0mDTnhTLQDkQqpPEaVCqsTue7r6B7yhzbxR0hGhqOrl0h7KwziGLo456Sl68N8ATjEFohEbSUMeHyDq163Uy9ADHYlxQIj3DoOwhJag4utFZSmUlalulwdFz3ywKnTDbbWVpB1TL6MoLCX+HvhlX3NWIdG2R/sCSOHYd7HguiYd94zSB6YczhTyG/FH0c21Jp8bRRsUQ3dBI0LVEUDcGfk1dWEx8H98L9K065qAXeSpTOoSiiutVdT4EUa+2e+0jnt7Phh6YOvBFN09QsXlxQ6SHzxDqeIzuZ8p1BKvmTgZpkwGGlZcSIG1/zKMeypZTksU5NHVSyJbfIyQ8aksfy78h9YNOc8ABo2T3xcq2VbvCrncnJmFJbwVT6GT0iv4nGoHAAu/BD6kkQsPB4n9TWryOXgMKVQNavKS8zuhxHJ78fDrv0SBayf9IE/vfPBgPq6SjqqEN2/O5oHHgVW4mQuOpdUPc0mEm6PHvV1jUFQDEiPSvouDM/xUXa1VwmE428GIrfpPBHVXrxJbRgoJbP5McPK+cETq1jIljdu+Q2R9TfdZbSFAg0MmOpnUWLMXKVdKNL815k5Y+nv6IQXwJQunXG1/t3lleZPLif8yqJkN28a1Gxu1gSC/qrCO6OhQ1fWaY9ZWHz4eHq+ECuLgrYwqqJNpaNtGV95OGIjoMedTArgHsssnGCbXs8S+9RFL0v8OhUYA4xs6nverkRHPiEDZRaOxzkwjTAt7vZSAYhhPZ3X3lk9ZwYXlCMcpRNQfjQbpN58GvBCGOJpQrgd4P4qvWqgqjLNzQvHIbnKLd0vkQDjeponSCA+Ead+yI8HYj+Dj2OUO//uWWZEsUqB3ITSlssJjRuCZFCtl3NDA79vYUFAUsNsXneNR3CskV+PkpFcLHeI1g3/BRLAusXVfayj44Zf6/ppwuuKzvL+pagqgGRL1F0/mhPk3eu8Jj0NNvU0LYSoMK+OiMs82hs53N0DBiL1HVtbG2nqraeSYRyZ1wHbrzdgT4WmHcGuy310HZRZlCyLCBEDI8GnMF5QcyOIizdUSjQ8aBA4OA+wPFFPTF2DhYHekwMn9SgqUMYE9qmsZRVy3yh8OCRIGl8CD1nBBtJcF/WhhtrYyVoLnDTlPzXGpuVtiilwT7ktUL/uggMxnnzOKOclxqVZaJm8dVYHQIrOldmD6XpQgtU9JCqQqDDg7UV4ljPaceZjf3cqKJcJc5bcimn8kWKuqCUuI2uNWb31Nh8ECBVyb9cSzlkxqWpZZEUyh8yfaCIXUMoqpFx1btVSu+HA/gkCIRtQfxILs+7OLhA3Bu6oWSmyAMWOzH8iBsAq4RaX01OmfVUk5n4hhE420ZaVDDyq0SP61FfD/Nj+Dk2rKVHyecFfRrEFd7zPjemAg7gA1vNDm17LIxGlMQdSZMDIjHDhR61LfsGnD2rlAdu9eLy3jIiLQxbCg9Y2NdTli47El/8RUU7GKfrORR+Fl3Yi84V4utRMGxraAO/svB8+RBAA/iTOL014LYk8zx4v457KW/f76/5gxpqtCPKTmHsU7nvSpJTlveJS9cl974pUH2R/gcGzIqiYjaun0E8dVlxwhvzwzG0QTLpWTMulVWDgyXfhXRizZhiPLFota2YWtq3Of7vBTGxi3lUo4VduaYtxCNeiyqSp/ds5eKKfI5Yr/J4L5+b0UZ0Q7ASnwCiT+44vBf28pnVb+m+xNDhjkrbHJVq6fRVjxQ3yQvjQ67tbmMcostNi+u4ms7J2kooeX931NjSNEnoEq6OqNVY8IyIcMx8aOM3UW6XtECifFPkqM0VAp/a0l0DCFJuWlHQ+0oEbmK0w1pWO1enMbskIhiRl08EXx74oaJUQkBmiKtFv6iD43KFybR+6IBq5bfd7WqDEx2wZBdfYCL8SbcEdxjh0CGogFExSAmNj/I+gqBga9I4GAvXN6W0P1Kcdn6J+2RyECtIUb7PHdhqsJW9HsJd8drK3Q8cY6uSfnATfcGZDijQGgV4fpe3Sksbv2qJQ3ssb8xR20hjKAhq1TTy+ZB7kizXFfeM8bmRyrmDJJ0NIjWHPe75GsPQtj8uGsad38uiKUstN+6J48DDUjSvvr59uxsWf6583xjuNqh3JyePPlIG3yCfPwqsqC0JBMaqy+GFd8m6oVmkLnoGBu6h6j45zxl8Jz697tzbNBunsYytRVHG33dwcb19WTrbDVNt8vEdCkCciLaeyHcZo9zZDtK3/0IdP869vpqlvwJ3hdoh7x6YFq8J3zF9PpOkD2a6jU/dr46qaMtKf1OdXvezF89YyfDaYhp2aXbAbYLjrdBEzYJzVFlHtgJkXZ9OKVu35uVMMQ/OUajQ8aBA7+A+wPFFNXl8Q1exp5shS7N8QtyBCOmbNuwbCfDLMzDG9eWvG3M0wkN6GfdYwSHlDYS9PLmkpmlq5eDV+BE8CCLoc/5kbwNfpBjdUvlzxEtP2zzLrXwEAn3xxuzr+23cNJWuXNTjbCblgvCxFqjcVdaMET3+zsFoKKtkfQls4WVY2RO5e88UQSTWEpL/mkelY5+kkmWkNqcNd3lTBDUItZk39B7vnvgeW2Vz0cFlAH8d11d5rKBkkXwk1mtLrMPZehYbczfW4uCASTjkmPnk1rW1rTX/BhfEi77JGoNr65jJT1awqsLjtItlPkdvtQLR3g5i7BMJsEgPcmnNvOEChYR6As3NDmZtmwsLxa13icwT4i0OwhWWKS5jrQfTXcE2g5eEU0DIUspggTGQNdJ2edjaJXOKrUNTes66Vx0SAzSr0mpRsU47awbV/MUcRv7XLi2Jg9EEq00MHWW4QkrwGuZZHLe6FkuhJAHJ4z81WrghSmVPDDl3auuNFqy+mQp0hOeshRb+sUpjbzuZfSlg0GAcmymd4Dj05E+fnU6qlPKRTgt/upBVhAh0HQ4I86OY+7Y4SunazWa91Gd+FZOMSODLQjk5IwfTkmlq6CfXEk0H+NYLBukYva8V7H/aDlbgl4wrZUR2cUe3R9HLO+ik16VsPDRZuqZlOzks0D89cJBwvp1JwxdRegAJZ3inoIY5kQvKa3pA5SiwwEiaFYjQTTKJau3xAq9HfY1+G/ffS0TItX0yO7k5RVXMV4TuAi2SA6aH4x+NXZmMKB7aK25yn2hGS0zPBBzUEfDF2fgEomgkMNu2R37M4HM2cSCCt1ViOUFfPjH/1r6z/vUxplAEFR5vylHxRVL4zFb3XYATAQmZF65H3VdaqK1yEHWB4CMRLz+H8QTWNQMVS6Vm4uQ1xWix3+Q3ySHd9EJ0TOG/9+ffo0j3gFrt71XNgq69LC6Si8Wo+hupIYvX9OFO1g/OI3P95HaPIm9x4zn0DTg+9UjbaS6cKKL9iuxwY3c7jMGtoMyoP/FLE3uPPFoMV2WegohCqpEurkQmUaYeSLEWz9zicOJZ/J/h4a54wRqOC8xwGv/+rpnieVEGCWg+R1but5ALLsFJ+j/olPiDVZC6uSJAY5Hs7MCG6lMyaaIaHjRsirte+yu3btzqYGImDCGNl7xSLWcu193k5H4e7t5OQR93yaeZIxkQqQ2rBJtMyfn7Pq5yV5azsxzjaYF3o9RuwKiUIGXWCQsSSp/tAY5yelSOa951S9p26VUfPQOGLQyHDL1ZUSjQ8aBA/uA+wPFGkTp6pY+Ax/+N2k61zD/5BHN2yvSE1KnuBqobO6uEwFMbiouM7NLSevy7YN90Glm6huVmlJel93cdr4QT71MTbnORXXM9IPmqfGjPHbUP5bn0iC5n1aVR+T1RHmzUg5TgkdiA2nDxCfD58VvfptGyWa3fsXee16DCTHDGO5C6zh37NHhGcdfLuT3iaHdqqfkRsFyC7gPHu/3nDjbe9lhUpj7sa3AF24nFo3fX4Ok5nF/pCSyZIeFsKx2P3bl2MvwD0pyQBpP4r2xqZ6fJvyeIj/7MAYq0FwPPl4ZMVyzOxbPpmESgFXopAZ0xoNPdIYbNMC1IaYgd3f/54cR6T4XQRaIoQakXUllAcMM1bOTFeSqrq0IEAqc5Nx6/SkAFzBnBcyXnbKSImNCq+tFC0c1IX3GPjqj+BGn7dFaEXe1QsT/XjZi+/rCzbIC9VAfCt7IPJ2b1P+zvjRwwVj1jN+XLbO7WHWDpT3MAUhfKni+khmbPzQwa/BIJFU6P6f4DmGalN0eEm9Yg0QQRqFXKEdfKQ6ptThvwlFM4oeS/nB/AoWBIU6pyPMadaWTS83hH4KYJFv0ReIR+N14pkqQnuVSTzLxErxRnRNoOcgtXkwVNe6KxAtMBhB631gLQ4GXZkWp8TqbBy8ApCktWJxs9t68h+E9X1eYvFTzjIIsRSPrMzwTKKsVe/JtWcmF53IM/36AsuYwYASfiGnzKvQevbbA6ktroUsJLTqqftsHkwoD8r7eEZTiFt5z5uhhkIfc51zQaXOSxKmfZXxTJ0FUSgEq/EtxTWt7EHp77f/5H7Ub5CzhKAQqMSb0+KFR68+JYWrEtViISirhdUyQkkzkeaVGxvV9R5mToSlBLkgYjgdPkVkxX4h1IAc+AVX4wRF0mtw9ABzc0iiJnkqgK0FAeL0M4xC+ZULdA83Pp/7vTHYovSl7hw5HnFL1jJQ0Rj1ErSCmBfrFAqbUARKsmZhuyEtx6LEUEM4FA5H6jkBBYsjhrlnfqOB+68RuYEUra86FFrHrdMC+n7fSTdzlwUR5XiCLsYbZCiyRbc1JE0TKXEXO7gtJeD+AOHIzTCfgMpKuZscB2r4M5opkJ9qfaHycjCtHzekb7NGUolB5ahV47Ucn7FJB4sluUNcYxwuHf7FxVDw59qncuBGxnakZjlaccgzq7FdWY/GsWbt0ce/0LoUzYDyeJuKDRa0IHtBbEJeo3GuwOaYBQg9imgMtjMfRkCKy8VjteWh8PwverAEOESc3hS7nNcYFjOUKIY3LKY5VFUSjQ8aBBDeA+wPFAmeBSVBG+gqQ8BU7GWGqoTxkULmN2W5u5DPtLLztsPh4inuJNL7IpZdGXhufe8J3O35qDFL7lXCdlBBFzskkMZcAH98+Px65UcAx10uv9rg+YumVqXQqU0rvBgTQ8dK0KLd3JYfkye1+faMo6d2EbcF+sP2gYugzCtk7c1fWsUYnvkeILzV+ey3+NPbZRoqhb+4+7RytLFFSlU9BXmYz5ZFVekzUnHY+EpFFwjTSZZv4W7oMjFZ6ulklDibrq4fm5VOGM7QoiOYj0YmhIIkAQvOOa8MVRJYM5S22i0a6haU3utoJc0yZcaHnOwmttb3MRs55j4ZNVh+Rx77kP45eEXDFcPCoutEZt72p6NpXH1X86f+8jnjWGqYDlQkMiT8Dqnff2Jxh7rgp9aL+N+4pDSMAcioOaeRVakawITvRRMI1FoLKlSIll7fKuQxJRMJDHYatE4QKUiHclJ72uztAdU3q4yRotSkdaujVoF3szggXYpuCPX+1n2YfUiNJ/4xYNt/B1DJivjsGSkWAyeclAgkTtYqZ4mHJVX2dHd3AmLpZlvKlorY8xW70ee0Oy5KGQ2gqwKx/Ppkzarmw6gRn5KbE/r+r/wGgVw5EDWoqy8pcnovtV0biKyPGyLMDEJfXYo9HB/HC4VMheKuG7CL0hVGxIwcxko4ubskVcZ56Z903OIrD8h6mfqDeP7cmXlod+rccAhi1NKnAg/HsEr7rLQ7DrEFyO1QE3+g2qvH1ZgWMv6kWCfs53pf9lcAkpICWCB6Wn8wYXQiDKsLBFonCO2/yZNylrukwQ2+VKdCK09E+3JuUvRRQHqfDakDedcneY3N23L3o/dpU1Wj3w+FExRDGpLgZdVpl35lkkYPAN+BHL38kL7x69fzr+Ux13o808N0T83RTW70ExpLDrhmk/awpiwDgRbIajbOIxQCeo424UWlUWanS9T7e2fNyEcZS/wXytTgw5VagdsrJX6eoRBbwJePrAU8a+a1Lv2ZOXka+ww7aKwo+ag0wCuEwrMHs/8regg1lqqS+mEGf8NJWZned+Wwl8WSn1NyMqIvZWaz7x9A0WuMM/N50KX3QVLDMuQSWbbFDb0tb+l6Q0Qe839l4xV4Vmk2RbErj4ZVZd8trj68NksXiEYUIPU0uifLXnIYd0ZaKQwKAsEr2p9fT3vgCq0bc8HFQj8iFpaP9tFs66TS1kIjtucA3UjaHpfVuM73/aHTD/cc1jdnNWJifGGn8cXgrhd0gDRw5t+C7cKGe+4v5/vJmZUc9amHOuUSjQ8aBBHOA+wPFOH9jIHE4Uu+LyvuM+baoDZ9E/5cJUusQxkA00uQO1okyp4BkUCxSeDvOTyUu5qiYSZmwhuj8w82XeGpu408ldPFKVAHlsrKzzZF9FCur11orLHZrvPMlsyDA2dP/VuuaU3m097prhC89cY0vqC1rsF+dhTo5x/PZfc6Hnsz0PtBXQY/P48dC4V1BvoPoM2NCvdzdA7f/72ogw+d740A0R+kwIpH2FqwKzu59v3OFlRe5TMSZKzWTAMbh9xHNX8PhjlZ1QY7bWW10ZiYbJhWtEsOLELSoWQQxCXwI+9zlzxTh+5VXAVvRVnaIR8OsYwKtgX7sz8pqxpltSXbVNjSwtHlznwHQH2F/yF0ljPp/a4l16IevF0evXtybpVPkzl8VWg+OCsVpg+7Q3uulrSA4v/UGilK68g+OWFkNta9tRcU4gKzgH8zpNsg8o0iSTBW7U7t5w6Mu4gdQ2ZIeYtjHk3KmNSmkddg+g+qO33Fm5Vop3rcgB5AmxxzxsIxemdeoamjpxt+DLOz8HKmrCk1x90NdHrG5kK06fqClnq50PGMPmwqBPzIXFll6j/OKycRYXejDdwZgSc3cwz+Y4JN4r00NstdiWCOiJYV1YRVSPy3SUtfp3Pt4uQmr4gTIVtauNRK98nzHVxFBVsVtlaaxTWhQV/EdtRxBbigENXYRiaQQBF2UFjnPHvS52ACVItm4uukFjTqMTy1t0btYaFTyhuZMo4z5qRvV2uz5l+I1Avo1ADShcuxQX1W3vk/5yVNZ/6q5aRTiYfnUqu0rjodCzXgk2Z70gmDeXFPRAAfaE4VT5hY4kxnk2jY/bS+3qYKas5gbWZu13KVzojyrX21GxROAIInbkZ5v3CNyC1OBkhR8ec4PYHuw67mOQf3vjPt4DbQyvN+spH8HKRm4aP3D+U2FlA6Cx3zWQtU4o3VlUEMFj8PwpOVAoxxKy8keEhcUriJJJMKZcXZYtPvWCXdPR2evGs/h3PFHAp5SymB5BJWR+Ur6iYUorjFj5wY91aW76+x69NmNjCK6DsVCeAr+zZt4ui6FiMj7/8W3yEZJXTPj+mlJBQtWnhuGCzs3tfdyy6vbW22NBLaDUf8Tv9/5U9waW8AYVdFVmEyLfywNpnWoUgONzzG82Rlde+qL5PzlBzocG2CwX40yXK0n6E1XKxJHJnkEH9jQtI/yXuyg4M8qt+H5BfOsKBwtJwsTQUjcWuSMea/Bl5ZCnDAp+T5mgOAat+EKh4hs3fYQ8hxbaX8XZ3kK12MM/ZF0WdqVuUijQ8aBBK+A+wM8vjIhR9jUxdMi8auiEPP29IyNYfrOXgTg1jHOKL5QWIi3tcE6hkkEtLao/+GkbaRX0F/Vi8FtG/L8s/s5UFeB0GAQ87m9idjg/J7iJeMWy84iVVWgk1OMeCIYh1q3Ol+0IyTBFIZ30+NKpDsiYa1VfiHQu2btZqD4rlGYxD2N1SAtRP3oW53nevg6s5Ywk6LfKaGOpcxwHnYMIIqnouPMxuzU8dn1saMRKkX2HX+vveAT5QCFe9xfT3pAsWYaYKQYPVEL/vGWX+OL3RKLUqS5vbWlvT/bd/Y8wMShMXXdNWK/nnD+y+o1QjHPIB9o9D/qyv85ToBUxrKa5QmaxQIAbaOu8zE5MMNs+3pXHKAhcuc36a2SLaGX5CGFCGqnGxvIFBInSbwLIsBLMbFBdb3TvS30solRb6CAfeDTpYJuL1OXpHwAGdbTPQu9uzkDcp1fQU0VPsMMuZFjT7k9kxeIxgpOx0COLPMHXGQ6SsEPhhKpQx2/Iw+cZtaf8LmOgik1CZKYLYiquQgF0zNxZ6NANO0ySSEMZNp3KZJwIFTqYB//uRAG8ttuZyJ5X6sgnMoQTApCQ2fPA+HvBZyestpH9nwf7wQBmjIplDsUPbRDjVrjk46iZ986dRsxRKlnYu0364VzvH8QUqmp2/hpDfiasrcibENAhTYcqCnJN0GExHGapK9A0zWfEYu2H/HIJqLvNeq6c8qZVK3eACbWfIl1p2GnC94T9tnNlUeSCGXMj25GSYF2WwGBCBI+m66C2VeMqX/OpnWVm1OGtKSpUu+DIOsQDPo8QSQrQIQHpCw0Jl6+0TyhNBKYRzWuhbVt8L2rIemwVflrwTs14h3na25MUymS8d5ae/PGKRALEaoM3WmMTDpGys1VoyxED+5pbxbOOT/I944MKTvpcoGONKfV7KkqIMkob2r+GHlwUPxNS05VQHIIoS9otnpGbe0b8NTDCELnP0wzgDJGc40EyEYv0/Xl9MiZ3jmSISOu05qJ9W2cIckS3Y8B+Gp2DZ6bphmJTxSv6J5hyQrNRKnsF7tMl6/1651ki+pDjCMmQ6gvjy+WJHOqVFWKxFmImqhUYgo/7Yn8IAHs0RI3E/sgjAZT6dW0VXypZY7y4yuldBQ60S/I8aWwRl+qMcaT4c2O07Mn+gVpprsN9vIMDOmrEozjQzQVv5IPPmIhvTq84iwvM2N5CAASt12RiBslueZamyMOFqeTPEmWVTka7NfbnUQk9ozOCZTSkMy1JwjCw9elLSqiwTXJxlqZA1Fp/wDnB5+jQ8aBBOuA+wPaZzLAmHShiwBqoEw3Y6tCrYTRxI/1rC6OTUcQDabpGXCZ+D1XJQMxvQDvzzHTfLq9pkV8vnhiaDt6RCAWfDdgBrI02eBHojtihEfe1D4KWTwGnrTVW/6CUlGAMwEyRRBG45R//kwX0sosFiajoGn02DJ5L02nwOabllHrBp2Qbez4VTbq2WIKV7e8o08XwkRBPrfBqMpWzrBNabHhSh5nS/l5Mc4Svt6eiiPIvVsw/y2xUNO6/n9wmdhMGKhTFSaIG1OGVXDEsIW2MOT5pPaMUaPtD6+DrD69ayQ/9ULEhdWTiFLFOS0k05nS+irdpsPm7Ads1zWmafbhhUB16FYadAyeaSWKoLOXsj/X5akjdU00P/n8FAY4k/iZcx989MsykHAP0RkKFVM5m0QdzgiHoaLg9s47rfgFwfycUdr6idpX4zt9cu9ToXZvkC8sTK/kSLdAfRSom+cVyewVML/ABQX+651fYVB6O/PH1jRmJ7bgN/XUiwsphtXAuSF8oo+0miZzQU7q0V6eoqeL5THcFj3Fx5tItEmsKTI/wPYvczwZ5kHIDxZwMeKZca0H0Z2KdZa9/X/8xHsryR6TFzlNXxDjD9oBI7AWbXyShofzXN5+tBHL0ZNgLcrkacPW1VonkC/VZppIB1cDzEXP1FCCJlDSvu34ooRxbSgyIkm1r+pjqSaXAU5yI6mmJIgt4MBeKke8fzOQGqvjAUSJRw/qbTFZj2sdiBs9ynpRWjGz/Azbs1yacpv4W9RTYDp9/V7vEeOXeMD+e+eVG6CZQl2xM/4kezrVkz6PCx75lmFk62Oy+5NlzLC4rEkllRo8OVjSQAQamOXG36FfPfcOU2KI10jOnD/d9KrK0swq717QfMsa7hNhtjO45oV07RrlbWbL69WAzl4NRvg44bRTn85V3zJvNxsH/wFIyWGZxgN93vdTIqFZ75gEiHj2DoPu4CB+5H5Zvq5N4i50H/mzAm+wf3j8G20uLt4KvuEUztuo1dkeCOcOUrZIp1hnsxYFpKExupVo/Cb1nbQGOGhHUPX/oMlePlSdfgXHcx29XfL4KzOGa267tVca0GVBUNhq1MlQVtD1gQ2qB5y3s2IxTpdswemEDKfEnTjbJxTFWQ39Z2uNhoXqRCWEE1ReS4bvffof8sBBaR4/JagUBK4T2OmPXO+MtaxlPyQ2/lyMdBuAhzK9QCnzKQlj0zddlLRb15zby6q6apzIIi3EfYe9eh7ah5AgvrJMSpgZu95BYPg1RfT4E5fM+egDU4frWsYgSomjQ8aBBSeA+wPaZj9511ICuBGRSeejGQZRt+KE1YyOD++xGS/WM38NTJdR16Xt6AxOlCAo/2SRzF6mKMAkaLTJMvvfHbN2eQAMM6pPYguEUGDeUejDHGEjWT4BGSmRY9ps8qDZXgUOSAx59WPnKxa2DT8hqmZ8FS5sNLyZu4/FFcVJ9oZ+rCGEWIcwweqrm5i8DqdXPzsBgblbNle63knWxZ3i4dQmAHVCBsFGkL3Dqwfen2fLqFI/+uMfurgGSlC1hWAH7QZtQTwG1QCzBTJVWjBCe88D2i3YZfGiGC5zgwkH2LlfL0VLh5HN/cn920ULTO0IRcjW5gaenk9QFvgYuGL734xDshSnaSWACEt5hbnT1Zsm9mrBkGlAIzh3/0uUHoUlWW8XQ2Y45pT0TCJsRAwFSRx/DoYmDkSvV9s+yEIC8RAKaW7SjNpvJr6rCkFRMfRQ6uDdyGQ1tUlzApnX4+L/1+RFcozw7+D/afSxlS0K4GFVq3QB48HpsnjKwXKWiFdE/eP7hGTrIOJu+WjLMbxl2cfTu6t2ayyzepMvAbqDuINlgoPeFzf3udRHzFcggrIw7wql54gfRknkYPmSHkchj5FOyB6l1mZVPPAICLpTHPVKx3pHL3EWBMp8K/rY47roi16AhgytksNjN//wyAcDX/9dxebfE1cYLul/z5j07bKvDpD2oHS+1f2wN+nfr90TzK77nbqXwBt1TrpTFD5FjOyt5cJeglA5ikLMrLYQ5ryj36+Wq4D+otL6i3Oe9C22Uadj8j917mHwK+Qy6Ba+8wK21E5oHky2R0OtiYP4/9KUNKOu8CV8LVVQLJijL6IdpjR6ZMHM6XWDxJXz3yJ1J4oKB7qK2mhk5hOPSra5phUlieCKcy/5gfk8i2s8jrqopusijykiAGQ5SP6jmTBJ9fsYlkbrsn766d44YKe15tmVD24mHsRl/48+qKQeqAYJ0jTLhtSo0U0N9+WPgoz0K3PWwUj353bGmA+oQogw7B91FYvpc+DXeHP52LwOkCMM7J+gIMF5mtciX63x6+jx6G1DUrky34z6ft10oA0MkIgQ8z/6ZJ2fNTImpbpgK+JWpazh/HMpUhzaSJ2h576S7FkIwKeF/9Yw2vrqBYto0Z8tCmg6fIMv6ltHP1QjpWUx/lgcVOjUKEnwe1Dj/IhaDNM1UnCLKbtf/ZUOPr4p2b3niePWsH0iArqZqc/PDvEdwcbNZVGf9Siepy7yMFMNJKWit8r4H1m85gjLdUtdl1UUmeXFvlbjfJfLLgYLvx5dMZ/ZaoajQ8aBBWOA+wPaaywEeqIUxNYUU1WT9ROX6d7Di1ITEDvSIeI/2F/zUq7EnvJqfCdvzhLE9vgbWYMrMwc1rwiKCkRo8FSlVNT4Z6qNwLLbMbv5OfHSR2O1JTAJiiKODI5SLMi3W7hOTABz3vtnbslECElF/RBzlKc5w1u1CmExEkf/GDIFNe65rymfVMhAgbYrP6wjmBxvAHJ/Oi++AjjI3t2l4dFqVap5rdgWX60itHU6ddyfJwJZIGY2ur9Rj9tL5PEbz3gwhWgGYwRlO0ELt4xld5wNYpCDTbncpFSt9YTUiQCB7GJ6VaUkI+Qf2/DtcAT2gw05KaY+29IdG2h0gD1A0QE7SuCZuC02vORAVeIlxRSfVYJmOUjz3dIhbZQhyHXzpC3sQ06r/9V/Pl26J4AT3BeLgX47Ip2QzrG84+z6GnMF579SiNpwF11/cWg2pSrgTFyKuaj2sTs9/XA8eMoO4APx5RnHTrGWo+MWV2q28ZEUg0KVMkHE6PayCKQbVOtZNJZ+fOA0mlnin1sdNKqvtXU1Vf0LDUtmyc6FNovPAu6+61HnplzQxO8rlHNpWbL8k+CJO+kDEm/SPwsPlkmXCRvgGv8+5fo8Kbp4nZqWvF/K/FiQLOF+JUcWFZTh1UUoK5Hfq4VELZQaCgVpohwCDxrlE6GMW5ip5HAoigp+h+FSWpA7RBqVuekJEfG99vyIIwkqVhnJRhn//Cvj4D61ycyi71dZpK7v/lAPnoxDu/WDnT3xcqL1XjjUhUdmWlJKr6EasSYn9FU87nwxTS2+EVE6A54awIU0Hsp/QIehtOmjNF2qM6yFLtkX2cje+KUU5HsKd91O0JHEQ9W3IbEyFL0R9xqQ2mon8yG9hOJ77lj8E23KTtZzIByrh+9ZEuTm1Lplx1K9AbmyEQ65dwvN7EBh7DOoQop4RqLT7M+0YwhXwxlf14knHBWfva2onWhTNuOIQYxhe30zk684adn4OutIqx6m2F64AuZlVJkGCo0y8IhAuw56JsxrWI0ZtJTAjfdSQWBXH+lzxTdP2IM/I3ANIEti9TVnKrLYicSCGzXmj1yvUUP9ePZzxmMafzk4lV3qq5IgqG6bGTbk8My5vT3cZl8GiCSV1p4ed6gp0ixQ80hK2qyIPaT0lg+/WF1OU719WsP/rVyGI9kLgSb7JLWrR9zjAFa6KceXPp0dEQGn0xLYMKGb6aWoZg3YszoQHCTsReUMxEv0ncGj0+vxADCFJu7UCy6wWfSKlDNJx2hrnn2zgDigtRdDQ9DIyszWQ/IlEoKjQ8aBBZ+A+wM8361G0HgFLdNMqJC0fklj3t2n7VBMf3V6LpIK10oPfl1bDRClEhMahrwCTKb/gVpJLpzzCyQLRX6LsFN2GAMpPRqhhcKinVWUxyUkvUFWP1Iw9daGk4O0C8Z/1gMoDybPFbgqiS0EZg7LxgiUGr+9MWO5IpLTtxfq0Zq4lYDdMVyo8B6f7/+Pi9O4kiJjyAEvsffPgU1yvYxixGHKWw5ZrbLYySP5Va3vZi3lrIowtS2ZLFOIwJPqNNnb162vNRHIBDnysGHRhfhrWnuwaSU6Tdw+kr2m3EkJL532S1t83ia8v+oP0LF56yVNOx3aEn7OlTNTbeRnCKcp+VaUMPvSRo1c33svR+3PgInilMckd4DsXXqfXXNePUHlfDZkyJxmxdua6fwVnNHtMVF0bSrnJLv9V+x1L33Yv1Udp9z4ezwfoD8bKaXJ8iheXQFyi6oXDT9crVgJ2ol6dekbWUoOOF0i2a5iIF1qjO8To0J6dy1CTBf/nI0r2tGpL59XfTJRO5VYAt2G8kvP8tdyaNTCypNuqsG94g9QQcZHnMU/qGHvNBC+b1DyXEFHummhg0Y/LwLzT5/pZEXzhV6zM3quPhnK+wppTTt/J1bxhB3XTY8viWBoPrMIybwkng2hfwZujaU0N2teflhz9bm8fq3XQdil5ghAf1xf4dEBugJXW2HBMXKg2046dHqatMf5SNvvdG2o+lEdSSjy6amdDyEnSAcHaDaskQY4ojX6Yx16sMyLM6ke37R5FTxin8gGh9hOtnzOWFkDzKcixOPXkS7BVR+Gkh+wAUVwsBE3xe3baKZ0A58ZU9z8hbN1rBAx+Ir4/H3CzQGSnP2fkXc3/sg+2nGkmeHz6di66FfAIGBtG8V1gf18nKcCGV7uNc7vKGxpAvaaQD5o6W4nSAG6MogvbyiMR4aohGPM3pUileCoJrXW4UaUxLwyMc0RTCBd2fHseEgVZdJ1ecaHBmBVqtUG1oOUEk0BwWnG3/yAfDRsnozcFyH1rMohNADWEkoflxry12qq5QUoWxS6qA/oEIjYstxQY7VZshzHm/4K5JmNkrJQkK4FO/Z9cNu8qVWdYjs/To58Rk8kKplgmO4sRmpitPc+RnMIw4EFDt87MiobtbK5ytEdtjAC7ZHrAkLw/fbJl+GHMMsOKUSSgvNNvryULgcs1hUSNvG562wYkec7TEbAJq7PKC9uYx2umrxDkReM7q11oHoZnOrv6MImERDUUUTcVKpKl2R4dT91bCziT/aQB/Yz5fG6ItWPMKF62o6jQ8aBBduA+wPcPv0B3ET88QKe05NBzqq2fbCoMa9eAEGSWpEc0y6R9AYwle+qLpXhoIrByb0UwyYVYoyajjORXqjRx//6I2nzB73is5TNMvaIW2ctZlTWj/uwi1ehqJ+Kc1I8scIBugzc39q6h+a+u6ArHDFOIURwBa3xdvemHSaj4bfI58JpnAoXHR07LlkqBbYTn+bp2xzUXoa5jHtOMJ82AUr+BbhObzxVISUHI6ddTZCk5ILoNZXgsiONbgbUMue2HIr1qpP3dcLXrqxZhB1sUnHVhxTxOsTdqgpylcsQHfPWXD7nUl7Fm8k5nNLh7BpZep6r/j3x9+N5ymiEXseRnWXYrmOz5s5QLKyRN8g0dzDzpuPrf0Cg6O0VPf/AmoYKnwV07dg36Ju9okOYEHJb2lwG9ZnsPJaSh7YUsNxjMOC8DIb6itpqk4zVke2Pz4VWgWxnWxON9janYK66MoQYZWSl+6DBR+AaycF0elUYs7tbWRpJhfqL7Uyl+qEJNukoOxNz+3W8cEzpZMJJ0SeY9xSdULEv44piz6/4Pb637fMzxW0ONhl1j0b7aN5iUkRPMexuYs9CQ+D0tHHCGH3DSjytbvkiehhw098lRFYxk3MdTbx3CYxEl4OeniHpgJuKsJ0DeVU/VUkVPya35ZrgoNRTCABBfdObvESwYPH9U01CbcfOtd3uJXcEkSdKAIDm7jQR3eiZEYXACgIMsIg0NoJt5T3W9thsjwkm63DOMizmpw/69tMM/1Ons5zwGcDM5U2NUmmRdtOa6zyZpakGBkUVAlI920fC4usOmKNBsdEwppAsbakmsolR8M1hN3TAqU6kvjLHkYmTdFPU+MqK/HcxzzqJ2o+93Cge1kG+AKrK/ROwW6scBc9HOptwEKb8Fn7TWK84IE4eK/YkBYuMn7KwVTBROk+yNsVirdnaDXBxKmpQwp1RCBSyg5ov9513717hZbovC9DJ7AC/JC7MYhBQD60vIbkdfyBGV82WMFxW9wAO5NZ+QgXw0o/3PIGInYeAma2uUXu7tVq/ra7OHhxfIAISQYiruG5WQ3c0JqGP5+0gH9Yp85WIdLSypUpmH82lVnJtMZoN9iQq2drcNej2zENW3iVH3XPzTW23r5ifTA3QgC5qhmzTVRDXP5hEv5T9F64h7h2d7yMmBvPHZE62OdUOphBLPQqhrVfmLV1cZxm2J/LtlHxyotAF2w0iBh1Yxm54Tqg9TXsoSIFb4GreIvvENZ5R9jmeUFYMymqmVtvQaYWLGoqUu8mZuioPaPN7MoqjQ8aBBheA+wPa9dKf8k4ENQkumPAdOs7wchvTSZYsLBw+CURxWza6+DKbY21h9sJHnJFOTOLN0PJJvUa+t9wfgpxY41gJtgDs5x4DTdij3NrqRRIaoE1vG0H2FjeffLTtecomRD2gBhrbwdU0bUMfAJvm8NDaHfDinWnpuhozQ0TGJU06S3gRGL+JPh9cDQa7eXxCvr0kBHnUBPve9FdnAwPuF9C5xeaYkoC7GMfjnkJ5DZlkgO4zWbVCvJvNJWtn3FMtFDUtN4wPmHpTy/GCqjW6c6Mj8+udBTerj8Xf94djvj4LdmD68n1UWEef/KRegNKG+xNcgq9UnYGRz4w2Ou4yp/dpmSfFHeVOo/io6lLl56RHwU+LS8QVmjWV/PjM81+OyB0ea2BN1imGy1LVWfcYb/lPQeoZVIuVGm+Z4bMaJjQDNXQ6idpMlH7kLSDSXl79VucwjVdzrPO1sTHwPArwsIK3IjV5KhNw6qMgiH3xpKDtAmJK5xUm4Y0Z/dtzYTZf0R0nD5I2Gszr8gcQZf/VzOIOCH0X3+IC1dTjx1cFtnjkeWSVpKmclfQyXg33S9l4xOu4BSczyCJ1lAKWIS8a7TupUSMiMeoRmzxKBzZMB5hnAzex/81a++vcWIw3v96QFyoDa9rHOacoK/HHPxHG089WtQoBPKCtFip7Yn4a56BIvl58c6QD0LLURUxJNzbAwd5K7H2/xDRaOCCqwxuw4cPsgOe4eVyP1GlTe59+f4R3Hni55kI3uRXdH7XU6aA8MsCiuxuXEE8f/AHuGUwCS+Y4mD61PvTXl43Kz2xne65+gLKUev2s4RgwseMC+JEm6zHtBW0V2mBCrVPG/NhLTf0VBOKMUwklTXkojfCLYvaOt6r0dJkodn37kO/0gi0zAInHu+VFGq06Uooyafh87SBe/IwA041s4FKkNNaS0ru+DKzocWAhhpij/uu9CCgYdG8wM26OVn33GdYCzAPDtVtaTIcmtDAzHttV3gsGEZuIw511MYwS0Kj8XVaUCiCHP1tdcd2r32wwsw2VxCA4fuTzu15C59C+HysspOoCGJFTo7pKdbCHmlbSsmHd4QTZzVpS3yBDtKFqXVCSby2xmGbkJv1Nj+t0cABjrBMfef8vV7/O8OioqMF83+6Be+xO+L3wXfYKGt+BBauuSEP/4GnK+3IITwcCKC9OP3kn0tKy9BiQWuspE0NGaoZD2VVMyrR1qjBbwVDZ6qQh4ZmywnzJn5ogzcisE8dZ77g5DsTmTrmOB7c02Za/NGNj9y7Q9rkQHXSjQ8aBBlOA+wPFFgWldAG56siLgezRpcCBUGaNdVNP0PctHn/ic3tovlKLkMBMi+eWlGXuEggHWDXIm6vU+OxK42M2NdaTAuzwXgiJY9XTiUoazYHisxK+9M6xQXg+HgE2yErZlCmy6tfmpsZO96a11yrLxww2ezjs+2tD5twAs6IkxrmLI4JGWh5f/+epHPNoXNS8n6NqwEYWCtm01CSp7Vu3uYAOluBV7GqC9s+kHzWBVM3j7erxzZD9c5djUOXQpIA18oD/ooucsEhuldWvAsjKT3FtW/Oy90aoaEFVKom48p1lfS3wYWYRWkgaUmBxLUD9HV0HB6ZOmBSwPeQr3cWa7S4DXWdNS0Y8NOkmsWQpnmnpcejmnyL9fcDfAxvY5AtibXpayvhmEXl7OzyI1Gq5QGfijJCHWH+BfgTR8vdeFDTfN+nZRsUQ7g+8zbypLsKK/WDWGNe37Aapu0uUiPCCtIexk+Ufbn9nux9RYUGdEzrvWyiJP2J9/MPQi00o7FWrMITqGnNLkkQRiymlEbRW9Gamr7bDaCzIfEu5KQV9HPY02uGiOHRkNe5RxSnBP2kYdip5loB+OnjHbwOlArReMSdRyU76bDp3n9ETz2kU+F7ZK7yWQdw95XGILhmHdGLfpHoT2gf820FdFbNHTIt0Ro8g3sIJqSCy/BxqAxbrVHVBLLydQVQtiJTRrIW4lXoieonsTRRiMBCb0jrIm2sQgi0XffZWppdv7K6sXDiOEec+vHiCDQ2bmoknO0YkArG2rIBZ8IbnH3ZELCxUOqYCREwD1uBcnFhttMyqIEV3o72Ry4LYxaIIsKQZ3Mklx+UWj7SJZZ2ZVGzkwOtqf47IIFDABXFGxRT00gXbHwYlmNgq71vbiR874kE4Wri1PWgYou/Wc0YTVl5SPbUqBDYg+BwhAG4TiASjiROlF2CmFa6upkZxWn0nhWGPKvUJJE56MxLKaimaie8Z8BpZz/3Z8Rt+np7qaHD9Z2gMjGbKJ7C5m0EfeX+7VPoyaCIP1FujdH3EbxLYHZckEBdDG6rG6NPgz50O4tH3r2Ix91bvdTFmHueAN6tT6a27YAhom4Z7sb4CXTHi+9Sfw6ixISdUWBkY+0XC3ikmMpVPtYBe6B5tVvQE4Z+qud88MkCt9+PsR967GhKDelntMVEwb43pjmBMQJp4yXJu+k46Umo6rZ86zg9rZKo1letN73lNy67qLLx3HoFurez1QoYXpFsApLhlY85Kv61fbgSsCFlAQJh3UOBO+kx1tOwb7msMMzHfkGXEiUSjQ8aBBo+A+wPFGf1MJTloOJoHu9QHlmnIwOsV4JhlJ9eokxzwDKQqjKrnMHIPasFSZ5+gwUBYEtgpzhAMAjZNj0L8/D4tpfl9BpOFU+EDBWXjiDLb9ByLMZZCTKb0JUxp6Q2PXUhOwIFQgeY7Cuq2KBDk1sUoK93eGWDtZjIc0MyhhMaH7Brw/OFHzGDgIwr+a5Ija2yghoI7elziErMvsHTAJS7Yzub91583pDZQGT6dMblLwY589QTRDx0rhe06egvXgSJFF/HkVaCmaYM9FIs/cnAYRDrpoqgJ+uohFD34dHjcjeQozFJdd5HVjnhD4kPInlb8WEHOQ4uJc9UGvlwhikEHpKA2RhDkDhoQ7ypidyBRXbITxNnQnT5WIOpn/uaZaXG9l/arXYZwjD1tY0t7ch7l1z1/rEbDNdPZ0V/dXnQhkvuJSMUWSnBlqoSzBd0CBO/DOiI0xYULXPQKtr751fTY7iEo7elbKhx7+QGPBk5ELjkboyaGGFwiurKnCWLo+5oWznLCOy+8l147RLxzVvqYhmDOO0TTt1StWwmsQkykXv3/CzhXLvGiMhxwbkCEE/Fbf+Cb15Cxi9aZ25RXPoX65IrQBeZb2X/taEoD4LecKgq5wgBmmDtMqmMeO7ZItCOvo/Ags4leSC95IGEi+yJTQ5cr+xigpkLyDKcI/wDIHMcIxZMY5M6SRXnbIHAoGgYgmaqaPLnRinCxCBGsE5f1FwilkgDzUAkVuZ4efcswfHOtf6kT4/xZ0fOJnclWDoWnB98pLbm6jMZmLxIE117FjzcUG3iniFqCYrBITdtxquRA5YnajnPyFl0NW6esYM+ZQ6QoYcqoLvrxWtV4rjpryvlGxP3SJGpcv+1fRtcM6I1jBxuIxcgpOA51C2ePPFDcACTFBDI1MEhCbvYIgSqowM5O9Otcuz6PKfwxpX+26h67V0+drjfp+/lt+N86Yfzmc29mhEuO2uBwiS4Gzejm55Isy1l9qSmDDnC78mkfS7IHSUaOK1JizDC/idfJh4UgtXU1yk/+mZ4oyVAvGDnd+SCpubREqKRMyh2rRnbxtsGLEQ1e3PwoAKHZDIW+mRsN6ZD6ITu30u9dkBvW9KgwNOQXkWCAUhJSYrSnrFppQ4JJuqPFb4myG+MxyOdQMXmGe+brWCrDu/i/RftW6BP1dOtB6fwgFHW3W/eIHBql24xpXz4vcFIGTAdq8In4aL0GhbWkCAaPjoH3ETS+gscWKZzg/r/Iat0020OXDIfnfD15xChsnjJxjfj29UEql9AyvUSjQ8uBBsuA+4P8EfwRxThigLAUtJ/HJzNSJWngw4DPyuv5GwEzmhIvMOIIuccfjLySQVSu1OyGfmmv5dlStcLMDI+7QRGuKqztV37jmompH76Pq7kN0aQIZxW6S3ili7Z/lvTMB1o1f3YQ+DhJqDBjVhvK8Tl0CiRE1i7I+VOVHJonfiKxsTLxlYF7+3CMJrlqHEOOOgCnlpAwAcCxIYOYBkE7khSRO5JBI22MGHfK4vHUfu2qMrYL65o2ec3mGY0VgHwYucbsWPJkXu6g6v1hmvUBO8uKr8qpZU6+d0hlJeYK4uL6WJLFEE3sujfn4NqYxJ7VEW+RZCGN6VzdHv3aYdNORB5XlUX3FRzRSB/zkNImC6Ys2ZMxIXdOidu6lDTQiI4TdSR9Gey759jf3t64/vbmwnUYLPmXbJnb/F60S2mP5LXI6wkWL/L3lUTFEfJ8hHCAcSLJPZLIMFEJ+pfJ2+8NAOwSDYWdwEdJEikup2efSYDvim8rqgW7Qro+1jLfMM3IHt6Eb0hT7iCo9WobKdvCEtnWHZ6iwQT8Dr1+3EiStQnsXfJi3Uo8+aFMSUYnBsCruYZzCIUF01JurEpH57NFfE5vBmwTGgTr2/154ND64knGa+0YBhseS/uAj0DiFArUU5Gb0mToIVooBpA/8cTDHFgRE+xehdVwTCu3TrezVf/07R0lqKNjJszq+tIOaUvGjYDZnuOneEfb2JIJOcLQrO/Sf7vkUvTBVLi2D6y85qKi2cTOpeKz7FwY4/cEGSOiFtu/JSHAnUMn/vKcADJFLcq1lh1N6FXc6HfHwkSflHKD2kvQFQ9nZVuCQPiU7iVgH+PbipDiMgdejSHFQZqqe3/PakHaeCRNRcb1XfiljEB0S67ajOEWiuuJMmG8YX3g+dlsKtPGFbXjFWHryH0xzlun0Sp8YXktml+EXgjjVyUNSoJfVywC9W8aj+hzPG580cL9QPSaKtTP7F2ajU251fcKo4uA7CEY/dxjOdyMyKE1JL+38DE2xE1ocVhcc15tYGFf0mP6abA7q9OvuRcOrh6XqbfT11EjBWZYmVW2hCnlP30AO13DCrg9k+KMR+N7WyHDX4QPXT9hYsIqOdFBf/RwyAYmCHfj/oPJgPIdBMbvX9HBtEEkgTeSU4sl2NdXJYGzzUGHQpK5Z9X2uerMHrjJy8cI9Q7sun2T9gICKtDYEcvSIp1IKs6V7YA22t8oNFCj1WlXe8/5hriQb78oztjjSjO05Jm0jp7fqHu48gH8RxVpW2DyhxV34dPGqA7LwZilTWSljI7ZRKNDz4EHB4D7g/0R/hHCHNonnbexeSToGmKFcN0k0h1t5ov5IwnbkmA5qqa98CIGApV0W23P1nBC1Yp+cVc8Z5pPG7vllzoc7/n2xsXHvcu7oMulCL6EcWbsvYRHFhXXeulEUpJhlK/6VmtpojE0nW4cj+uoYhHW3YPl0eJ4AIWxrGb1EWzhO/QCi16CzUIgStQt333LylCEMTTFO/69zYTr2MJc4ipuG0wbNFmUt52ToRZiT1RbCHJZFSR4K9uI9ZxXK/tPXF76+pA9pl4+dIjtyfTWEv0ebuK+0HL8JKA52clmLwKFbNiX+Yv1UtjCLJUn0cvOKyTwMgqQXbFac8gJf3dpKH0lNLO9rGHQ2aI/fVPGPigkegeEq2ev2BBxm1rfA3nwi8bCRRr1hvNObsRWQQbP+hbbYgZFkhRrL+Vgeta1ulsF7nP+vSthxUTFE2FWp/1Lnda+LdEP11ikvr3iQuJlsfnhQekBI+ffRi3FV7ZsDwmg2C+EuPt8KVPaHXd3ztr0y9KgjeFyeXxoNpiMrTsj0MIN1i7EwhQBelwVBr9FlkZ+xEEJPjKfwtDtUMDbIdM31fB1jeiz/zt2k+STc1+jK52r/bs66BxV1tuEomVmISjNzIxHvrK56dvu6IkVSFIW0bV0MlgxbW0AJbvKc4Tcfqt6edUKsR3u3k875C1Uh3WVanGhNVBbY2bVc5jN91oGhxfErZZXYNEtQrMxT2j2b2rSXOsCo3Gk9HP8zN2ckGrVfGxU7wyD8Tnh/8m2sLeueExUestu6KM2d9iZiD0gUH9VaBq1GNNvIljyV0aPnYb3qQNAO6jzBkAehFF++NSw0y3Ez6yutivqoZ/JaLmjseHpa85Qtg8ZR7VGU5i7iyWY66wrb10i31mdp9Ko4LzHA5gfdrVkeRGkuWeqf0Er+LVARUaBrqperLfR/Jv9SPcXGg9+4bdY0UK1FcVO3P86ejHkn2gVhUiF2rI30+ATVcR+x/euIjbL7Q8V+UETUHbl/q4IRXSTSCQtvTv0CTVgcnmGKrOB1m3gFU04K9t3t2I/qC4zpCUeuYz9vkPmvbuUkjd/TT+b7FV3UHdCxzrq+2dYH/uq4OoPfZT4R0HIHmxTfFqDRQGbhWdpvCByFP5FH5akIA1urIsChBM1kP0tD5IuDmJ2GWMRxYKsTLpUWitcnHzjI8NLoHrkPRLnP8y93sqwhlPJah1JsoCIJDJW3L5+REPKRHC+94xSNllseb6wdshL/NYFsz5vNd5YKWJRAsEqxuX+yoVD3xPTF+c/PpXWOvi6qViYW1LrbaNDyYEHQ4D7g/0R/RHaZjWrAzgrc3hZell5QsVO4YIl58z197hff7YiP9YdNC49Kdy2Mn2eucFC3HBxu0n8FljSNUTobf4lCo5r7M3zJwaw/iL0wrL0USPJWIoVlDX/UrF+43z69sOeUgpFyHWi0P0/+Mnc2HDM4QV/ue16HyKpbPdj/lqEwXTbf2riNtmiSaN12vDgd93n6b8U833RpE3MfJfdiqYZ+Jgg66xPdSKELQ3xKP5LWH4TGK8WZW+wyA/El/caAdHAcLEjcgbl3V5cqFV4p5O3S4yDbrY/Iu3jFP8aXcnZX7WMIFTeX3JmTgOfikHfcEH0dSaR+x0ZR8SO8826vBMbKE1qodXNuiozkO0K0dz2DtCoW974VFMgBQ1ubOdW/3QZ0Ke/mHQL+HClSPCooST41Q2Z49Ecz44j779UddL8INsnd2kGsohTMeq1rjCJ76T/F0CqzuHt3cs92Cwf0Fr063K7IRF2Z8zzkUwMD9kOyT2EOz6RpUBoojv8bvtMbBAYK67orvGLZ6gb28/0LvfEhscoRxKJUdAErZj6E1YxIQuuPDG0Uu+RabwwdF4CajslGL3ByJQhgnmOIt5prulHmbsp7sbDnMGRVVhAwdO1pHZfTq8dvrx9QS+aDZmy0sQ5ZyJsZkwG0C7uMCJh405QQEZgyj6cRblYvQ1V1dAxYEnUF7Rn63knOFB3rTls/EKb0iCf625kS+GjhrX89+yX3Wb+wwqvsJi67dOjhj5WmQxYSNOIdQtQuIxIZaGvIDxKX+oQAmQxcJsfv/zku9bzLD/Z8hDMNpEECN5LgjE95rpYJ333mWi5FYi+4fhy2D4YGwJv4Y6JY3TYV/cJQ7L0a6EXc7kclXbFApprV8dpS1PtnLEfZKb8mbCJCCiaAq4mSoGKnHEY9WSv8pKkKBF+GExwKVGs27ELX9FJSOVKmujTXjRllyLtYDa8K7IIK+rS2NAxYHWGbzBOIZpcdaVDsYg2WMKrzPm7DL7XsXSG21aNZ+Ayao2fWa/TpGDa8ZmJfc7k4j8Vxw1qBQxfiDeoYXoctMssX8ltZDIjHYDe6+JnMU9sh2QbY8cgdCNfO8+qiNOi/MlfvgTD3+z4ox4D11vMrVViVuBAvFvZqQy5p4gyCtG/jcCmtkxGFmgUMVCpXieTFIGNPOzPWpn2M0U1XNjqE4pI0UrCRqPlf3HI87gIaUROAmCc1E1B0Jj2QCwtkmZKk0Y8PlUUkyja2uJR9SEMcYvHEHZrhRrfxtdYEOGWPRYB3eewETbCav3MYTkdjKJNRKNEcIEHf4D7g/4Q/DzFGXMyhDN7pYIwTajhET8s+F0pGmfzFkKjV1ZoarrFzUyFI8kdiZVxkUaQjWv4GWq1zX9BC1Cts3/sp0GgLCfuLlrGxCqn2+aRoAgsSPjvkq7hcwdm2rc6PvLgSDPJZ5PzDza11qSS4CzivgxDM9283GVManaRFkRFIjHxkG4KBLb3LRsf1GBc93IlBLS0UOAOSH1uzS3LphmykSIcuXHRhYJJDYJGGZNMVn+p4kqp8AW7l1Dsq2ejq+ZUj0VOSuql5olLFo/HpzgMdMKHp2pJZlR+6T6pZd6TMAf8SVdDMFCzbzJQyDO9jc95qSLbDwU+kxmPTEPgh4U5b+nmUHeou3FTLG2FugZA3U3C4LTeo0FXyVPjldA91NDYNj69oMyKD0fMbA4rEy9utadUd+HbuxcJ4nB4kGhlRt9+vUV0mgCchyGJHAbEJOwnacWbakN33gSn7qda7wQwxUSfhz5egLfEkQNJEPOwAHcTqAn4kZGcHrbY/bQ/jgSisDMGWxPbskpFSkZ+ctRsAQL326gcSwEc1aZXMByLvWaaKhL+9IXD9mvRiLabU/ps6aCSMpd/eA5Fnv4jBRHvHJKHA9Xe21hy8IG1VzPhc+SkVAmGHgin7HuyGl9SyrW+s7lKPL0uIoPWDoLVv5bMB6ERFrRe5xPfi3DWgch436e2Cx+KRfaC5yX7fb49OoisqsEENfknvKkE7u/j9ml9Vvx94aWF6Jqef4iS3+iShE/J0VFms5WZXJNr+UEvWjlLfvWQnsEQJuZdxFxb3Va8LxOQ4EGPH20AR3J6TJ8hckaCSsk4labJuszLqbyrxt5PG0gbjpqIt3bYpkk3nrDWqBDSpwe7gH92igxA1T62UNpY4Cxx3d89BUkkDIuhZ/amvWGEQuOnCvdZnC1qnBB1LiWvHEZCajAXZU2vWhsl90J3fBssgssnRnF2tcHbLlmEDGO+3PnKLMlhROSL9XKpN8Zjhxs9OyYT2/ANh2VRtKxUTHhYOK+14lG9rQQq+aqucoXe+wa9Qw7r6MpcEFiHSeGBo/Boh5yNKrG2fdRuMz6HPEiEWOskty1fnuUn6/nxYdDAAOTCedOeibYrTZr8TwQdxiJ5EN/Evj5dYEciPfBrPEElEDjKgSFtCIEA/X6anzTWKaUtAvgfJjEc85/EBCbGC7jWOJf5wfxxoUs/gNfdeVOwouwjNaEaheqyumFvr1rXos1pEUtrdFq3N3pOxGwcxsgTJHT/NdS5vMFeiKQTZCAP8g5DBlNJLzgO4AfubeKt0A2v0UokFJkGe6CvoGsHLN6oX7l8Y0Coteq3EZdAAOPDaxQgFTbOoohF6oPRxDphqtP0B9e5psRhp95hhYE0/RQFBG2e0DtJu0Dy7j9P+OEBHoYZSrMDIiyhr+Qtj8zzatU29hHO3W5sz2vbHj5KPF/Y0Xsnwj7Sf88oKoLbB10lA81qMQm3Tq7GYaVfQQ1t9IOp3xVUbN/RtaQBVNvqS5G/XPer7cURo0O3gQe7gPuD/w/+D0OSHvSJzrmk/BoBpZzlgPXvnbWRx6ZBJ7APMX5LRAlznFj8WZbwN5OYsW11WB1NFnqxeQSCwQCn/jkPk2p9tz6mckc/cOa0zGZDgXkiiZPFBxQsTmT8MuwRiGtWHl8r++JKoLI0aTR+1S13cTVIGoj4TthGSYRfIvk93T7YSDSEgGjhCWEfIVXbTyQNds2Suu/qdckQOHr6KoE4AtEfswZ0CNJr/7Alx490mrURwpBSOVmv1IkzYr5tNQwHg8QfHB+ulXj1udmjEVMuE9A9OAnHms/+TP6mGQrTiQysanUmTgqeeIbI8js0uW0FyF/IODZllcTwbJco/Aee6G98etEy1wy06zx3DtwHTNm7Y/bFec9cTQOesMt5cjTbXUoOZGxQP4Js67D9VAwom3NEU2stf5tjvV1qTjKrV9pj6HPCTRhuKeGilo9AD6bI/OM+76jSKWVryPztCFE//r8beuUVhb0bXMM/0LW8UpJj7VrlUauTIUTpMUMvdLeVo2urZgacl7AljBjAon9EgQPZDoszKauQMKa4evwjbIvMpq2bcAWciqgpOP99HK5dExfDJlDoBCel1ROWCQvw6A4FjT1NcwkqIKJSncYJD0ygi0brbP45XnTn/H6rvNC0HsqGC2v/CJZVpWsS5sV7uUEcnxGySCDiImm3ODoXJpV9+LhjW0KSXO8WsYzIvjEU0xa78Hb+OfMw0jx0zROvS5Lzu4SsKzkCJtpI3YaWTwPBOVVB7vnm4Qr9UA7TGtPdX2vdHT5ATMd6+PrOG/lnfCJ9OquOS/5BcsmuSGYnM/c7GpMWaFNhr1WArRFlI6zaDmY7yIPY8bKI2lK2C4pE67iQfqbAi53+cfSXtv0SVaEj2zWr08CeR1kSsfAX4SOKgkvQHVKw45n9ymlc4XqsALcK4HNxOTvcQCvsKyoU/OXT8P0FXxJcOSJIgzcjOoDHCXKh1pvTmjS/aVPzqjFsH1PMGGMFDBk4uaV9YjHM80EWEkyP5MF6+kghNXuKf2Pxz+UCzxfx9/oVeE5ydSGhTErSHTWWj6wfEpUK83R9EK+QfT3VTk51o9npyf7/6ms0Z7a5eCWnkoQuvvcXCL2h8399DvG/dd0NPsos+Uq+c3GmL9elG8GlvHxAyNRrcn7PMPBERrANsva5NB7Rjsvmev9GG62mb8z7Bf4tKC6wUG0Hk2Z5ieKCS4gc1/7doIgTNrjJTc9BACRF1MT4JcaVLI6x/8vK1k5gfwWocHEwVSqIo0RGgQf3gPuD/Q/9D1MKy79Dsnj4v5/kPg9NENo4S3ik41dULYwFL5XLhWNruFYSHzeTziZOIUXz7hrc0ayeBJRIUgT01FULb4hxbf9wmeojzidD73hAXXB434xYon486+RucEwfYLI+9xzTlgMTerZ16InKjNgksruubhYG9OopZAvZ8COHJimFYy5ThmJRSZuEDshmOkl37HnbJ0P/ZknPHfqOWDi2RmGZWn3FwMkv+hmsWpO2qwzb80ws7fgfRxKkNFrES0QqA5O8ZxVZ9wPqCmV5pX5gl9ZD6uNT8cod6sor/MM1SUhmhofG0AA3VF24UsGypsVjQjT8tybvICVOtCNC6qFVJ6d5LogoZDkp5c6V9qsJ14dTtHHex6J6fl+Bej3naNmeuKLpdnnWCojpGn6UGYMwzdxlXxe/a5P6BIo7LejFOmYED/cW0W6PHvjYMy37KUkH7LyKaNjDzVMxZF+6AvtFIGC85ftmm/fSXLa455dABgARAEntURIs10ORlr8b6D4apkclbfUTdsdfVb0BafAA6Cl6ZP0pesf6tSOzUP3kpEiypCIAFAKZ7qeZ321KQzSjSmjQ7bNxmDM4z0LFDdF9aHZ3pq9mo+1OwXnN1QGImGzYAZfO3fYCXOjZybh9VJgS3a5gcTYSaj9Y91CmJuewhuFr4hPDSYZEhVp6GqV0SwuReHb4at8XpUOSMGyuo653Jd7KOzNq31Ly2wwbfqoKbgmPXTyRcVbwauMD92wvjjE1sKLR8mJ0IJM4j2LOEOegB2eXgIoM+T13ocv3l10MErz6LNXZN4reU6QaEgDmzP9CGZlaDqYkxoJCtz7sswo2x1HyT7lCcK6ZLqfqGun1DKVDhGw+UlaMLGMdGOehTzULu9y5GcTfTm8hukh6HcJLSGsnfubvPt3EodileIz2kEktuRBd3bev/GGnEs73ipnF33sasVQ3U5IBuIYUCW1j2yavQ9OgoK1yid5Bc8qkgZn0CTaTABGJbHEItG3/7QyxCqQoxUlBkOSAhYD9aKW4FkaLZ/ZY8epbdJisfrfltp98wT+9A1ZSeP6+PNGDDxGMvx/AN3TNMhu43jr5z0LP/r13I9UVjkvt90qLq3zNmJu3Wa1hAcPPQ8g6GJ36AaquXt/nJ9oLzAoR5IdPCbSRAAGAfhfOVqlYWQ2dT4dovPwMXuuoZivxnuSI7KwMVSc2jdmKMhMHzy1uJSGd4MlFZDbvY+RnwlIq3ctM0ERsXSzP5NkK4sPkMZjnnU8r1pNmY/QB024o76v83PND5rjs5VqNnNkd4vyEsVHDqeOINP2V0nJctttLrUaceUm4NqaFPTbprg7zp0esOM//0t4VeUHejZAq0HtjPgHqV2zvmi6Kw0oajK4RPnt6WuttFadHnM9xxdwNG+Cwt1KdlfGP5H7Q+S5/2Nv8B+Lv8Sfab6gyivVCBHNh7kqf+ZdRDNijQ7GBCDOA+4P8EP4OWyFAlhLGpz2S2cmgctBGK3RobX+RYxNxrQDI59eLeN59ia8qmCIyD/FUmM73muiF1CHvZV6fpI4vwaOgtIyJuvtyGmUGH9M8ryH6SLkWRBMciOboFEfDsxCpMkFFMNHR+5t+wrkbEuBVm7oFWcEr6sEXuqpn3h6QF7+0mllpfSKOciAj9GVTMvnG8LlUF6j0q0jNyQifAwYEVOyNDcKs0Eonw6BzK0Owf5sWdrs10beyPsMqSxD4dbWFrHxZgDgd/4LHFFryitRY7lZZlTQbyOinbS5RRkeic15dVUzhkBIOROEteWoZCjzI6VkkrSIrHQZi1Wt/GrpR7N+NfudOsGEfg6KhyR3vUnxnr+w6s+/XvZ4N+ez4EFrUghWq9egaH+qumx6jhvyz/y0TV2++hg6q+PCzhU2uaDJzbz0MA/TCAEk5XICOWV9jXuR5hrmCUUoLO9+pcLbpQ2DTLNXk7yovvMSeiJUhAVWySfZMR16TxRqV9FqHIUJ3dDPPHCa9Bw4OIjNqEoW439Yglysei/ZjT7Kklt+lWynQ994ojwp/p5KQMn065K6QiI7EAlnde7dmGBnnUKfwU0l8jmjR8PXuTyDltYU00NNcfozkZYrYnQrLsrwp6ZFab89/6pIFM6Psa/5VJ3RCObShm7BaqjROhNKMg2yY/hFMKGt70iCwNfaoRDL/YZ3vnjEh4cr07Y7FRDrX4lv467lszkmLkMgP3SMgKc3B92a1PCoct70e9c7t4YNgQasRHoRl4ELHCfgWUj7bvO5BVI87/oDDxlSmkkhluq9ZGQcUrqKqIgEi9/m0TqUG5P2OQ+y4L0N8WbPG7HQ0/nsB9aERD1qIfadhyAJWs4Go+xpKJxzq1aKz5exTjaa4rA2ylNxlwnSWOT43K8Y21oaWw+wefj/aX+n6DMsZQjDGjl5Z2X/eRFttM158NZqAeRjosrBA7Xr2Al3kQbkqdexi9/EewLvwLXaWCdetfUFoHBRkMIZAEFLQQLTvaEKakpawRykRJIcguY3LwVscvYFnBCnfB8W35noeA6GU8J3jnkWh77L5GLcwnr55Pev4COcCQ66tmGUiMbyV1MMBulanCNUFXqwyyCi5jdJRYCCg0Bcxn5L/qWCRKaViKA2gz53feZo6zN8RbkeebSGph/7EM7VY+kMuUaNrMAfRdgloqkb5WWjSUQ/ZbPEmdRj1/gPs4LKO5WoxzksthtUjI1uNdxfLsbbtyj98t/64VUejQ7OBCG+A+4P/Dv0Pwi+/ICpK91F7a0f3Qf7MpW4A/kCJBBwoToBng4WNW/wlkdBHgrw2kuyv8eyLd73do6gs7nlO9yCIefCILiyNkHni2hsEubqwEJIuRfchdppPrHJALl7CPAxMSbWlK8ztCpisbXdjG1FhKB3/362j7vUckVBI0xQV5mX5umEOlR39B05ssIsuolTD3zc3gPEEfxXWvFZB24Qv3wqr+lYi6sDRnakXQYRfbFiY5CU9TtwGkP/Nw826Mkq9MReoXnOfKmLcirC9mZ7aZ8VV/BZCJdFY7VLiX/RpXtagYnwOasN9y9qpWfgavYvCD9BI303759wBgS7BVilrLLOafafzL/bp7MuQvDtnKNDQk0Muz1WkwR+Ymi2LOIAmjnE+1Hop3wK4V8XOW6/pXiel0Vx2ruNgFPjL5UTFOAuE9QthWFJcvX6mcD9rgd9Ws/7Pqsk7Pr+lUANRVNsVHi6WLGfwhKj2Om7Q9cVdKQUxJHwyf1QhFclg/f3T+UsvsnbY1FH3yR3hg1XKku0BEIYBTzU/PB00ix2eXlbvEDJYyua+qRqrlpmFlgVDcbBp9OZfS9JvOANbWIv1TXbjxKJdG7VAJYwLnLDcqaoPEeZKn+/jvInRtLcJ3V5cIAFTipofYEuKQRRqxtrHMYCdyMPFxH9kTE5WH0gEc5K8Lu8ns+7BFpiTDzLK0OlM8L20oD4HxtArvhuCgsPTBGhQMF9byXmjbdFDjXZUN5DX8oe+Wz5xuhxzH2iEq5Yvr9FTC2sMb+eMEflo9oeMI5/xo4+PlcWCLsjJ2z2Y7Px1XdwJCeQpuiH9r6PP1ZJwbNYZTtH5zblGxRDGpMc7QNZ9RETt7D0jBV6F3vmmhWjjjlP2F3knr/3RCmhmcRhTKa7SjptiNSypHM6sdfhN66EqiGV7p3hI7RgU5aTAgzYxLt/4P78xa3NrfI6GVsUQgSmhX0S0QCNU/lyGvkADVZhFr7+j7f0XgT8CYE0cSTXW5Wc1H6lDP5bti81HtwHeXZQs1EOnvp535ywWKxgueANanjSswc07XYizQwpC3Dwgl/bodPtfjFWu6GWaPyw1ecR+KoLfJZeCMeFtygYok4/zO8utyk1Y9rZ2EO8fzFXScn/qv9qmvTiS0/iiCEO+aLPF1Np9VGsngT5TIwXugbOvcPYBWtDOXP3l1gpVQsNAlwTRPDGBnvUNnrXZ71Jbwf74bXzulU4JCeiwxziRIak08+0J/3uuRuXWPlWzcYolRKNDtYEIq4D7g/wP/A/G6xqpjepyg1+Bk1C1mRN15lGpN9J6fF4ovmXa1VOsrwJM/43DTXPstY7Xi3wZoOGpoJKcxgIW9HQ6AGBXpwZDHGSqwRcXFJl5+wJ1F5vXv/WJHatMREKmUIywF6m+I886hnXCyqgbOZurW8wO23DMx93PffjjudthJV+w2x/wXtatSorJQhwv+Z9xx+JeM6xD/hgAE2M12w8WWsJMK89oEyDG/j2CfR01RqO684LZuBG+cxsW0Pw4bncXLiQxZ9ohTOuCnsrHofmTSc+CGLCqITZ+5ASlZtAyVqwXmFUX5SmWypJP4QH1I87j3HxzEDFIVnk1BGxQCbQkvFYWdZJIxuGV5SfV8NWz4MVqIozXQ+Kf2W9P/K44Ir7kKdQhxJ8Fi4cyxITjiIdzYE/7XT4BoDhCBZ72sUTCPzW39ZZdnsyX9HVBdU1k9eFTZJ58EkEE7wgp1Jwc0O6CpWC+SS2RTH1c8N9Al74aI7yjilhNWqz+RttcP/0EjI2elKccEKTFT3p1kqS/uOZpYPeqB1ZBlBIdklMuxLh04/U5lyy/sx4Lahmc7IcEZtQQ1OkCWTT1qXwUlud/64KFLBbCbkf3U1is7VbeaTdlzZbd8/T34FswEvQHyf6pnm6qPthro+0l/VpbJbwePyVZn59kGVS99NyGNQ2TkETW3Io4OZnfANIWrq4t73sAe50vEKz7ZGrDN7EiQaSNiEhYwipSNiRMJZyAKzWijssMS+olqDF4RqKi2XYGDdYp3miDn4AaC8GHecb3bf3I86EeJeeBLmDi2m24wL1o5C+yRjlKt1Rfunz+DercpnWn5q2HbYduTUbFE2FWtB2pKC99fms7xkPiK3EeOrTqP64QCNrElfrvXUfdalNm2eOG6PqdmD0BpdgCd0Lhca88NvPJ1pe6fA7DyZi94jpXUoTtzraKQnKLZ9hd0n7U2Ne8AXGJ9gq56L8u6z2jj6HkgTPjnf6rp7aoc4IlgMKb4/TU0yprU4RjgN5RSPhdDOnWvxHCnvAP8jAEqDi6RMEJE7qICjSJJ/yfY9OcF/yNrXQI95YY6F/C0sdmgpkw+vjrA9ffwEcbWf836GeFJrpls/PxewJWVZJ7e7L1MvbXKhPZNRvPNu5ILvgUpPm1aAaIMZl/IrBbv1k/8WNaXvO/VAy5Wku5pE10P0sMkVJkBhFsl7SNZ1czzhfidWnUYu4zPGelBjy2OiCz6q8Lo0c/ce1PgS3LwZ8EljbM00P4/MG7nUWjQ7SBCOeA+4P9D/wPU5OjIWvn6J1svXqvHKfMOmrJJ28WHgyKEfy1Pb0w03BddL+cWbhgRvpg7x0FCERm4iFSWDW/QVnuyJzoezFPbFKEtglSnudAQqvipTjTWy6F2QUBG+mH8ieTiXN8F39StNvpqKUsdAHK6h454qpgbYq5dovCA5M6cdo6wN91JmhRvn9wCyTVhS7j1zqKv7q5GOO6zA5E/X+GZ+WoC904rs3biJKAwaaN5X2coXXgFZXSwqreMUnVh5Tn1y1rhimi+7uhr0/EandkA+ZCjYMjoLCjXmfSHlQCw5LIhpT7DqoNdpnJnCTE9SJEcl8EC+bTRNU0tNSL42u/aOQChNJSSvAjK134wZ9bunWMd64ImalWvHVi7Jp/UfNcnM630QYYek7qA1TsM/6laWmMBv5yVLxXt24SSMR3XtpwQJxUCuWt7WN0BxU4bF3bvpXT8sGGHsl9B3xzn9GjW2uv2vFBswmjM4klIHtwWwwLnG/8c4fNteW8+5R89c08b8G7DnW3nprPY2m0CwSj5AN/05gapqFh+JawtB86L8VOo5+e2PZ24BHdFp+XpFZPxoZ3ShI9BBMKH7quaOvREuJyFO7JsaVVvvQ2Xm6ZhGRqim1dFiFPU78RutdEZ+dVf89mq3fOeKxpAwp9JuMZz1P2Y2lY0Jcu4d2342jcXHlg4tWsUTm4ETd7/fPaihhZGIRMCxhYbvHxpCR3Xb8FoQqAL/d9pXUIGgAXL6byZC2clPlytVH7cdN4CIY+gdOwEi9lnKHEnQ+BKFRRgSrBd503c41bQ28BkF3C299eKkEKFTkpIWaYRtA0GgtdNYLVeQbKovbahtprMWKGoHXMn6avgOSqjFejqwjLZtpNwYIikHtQHINyz3r0U0+p4Rwm/uIrNw7jQTI7b5Uq4kKR9c75e5wMZjSyp1p/fajubxv69NP/9ox7Y4V3upTnX3cnJBW+FHWl/O19/p9kzDaTPqzKhSXipFHai7st89YZIePEAHJZ0ArNdY5RIsM65WNcFRnHNNV72w4vsB2de85L8pNncTLYVJgqe0MFz+58YwfpEPTQ6ohcqQlIqpczbmVYDzCZaBD5IHIxE6SwbotnnU7fDz6D3KzaocGlTC3ox7WPo3phYLR0i7NouragDI7xQK9+wp+yF1d30tnHrtwllSzOqLcEEcAKVuXRcc3FM3pFzTAraZTKpOPtbeBPE4R7ugqQpPzs6oAYzPiQi/pgMujsvyNDRlroXs6mxnf1Yo2jQ6+BCSOA+4P+Dv4OQrJxXo37WNQASjAXpxg/0tfGuwLABHYmoi9mVmCKd/ElaFhPf45Rf+u5tS9O9n5SW7LoGD080TX8BWv5AUJ8IqgnpkwjXVDRwfG4UAj5D2O4TzZtz5BXy19sQw18Qpn3U7j9i5/qs/RTopl1/mgUUNAy24erpQTyJgdcP92IvJHYoZW6gj+9hQdakJFQhNQvh/OmLvGKRJkBh/BBcK7ArSqeStDh8lMZSE71rxzsVX8Q4jLCBADGmRd6vkAJ93cbKKsK/WVl7Nnbb88Q8MpBSv/kYFbujMNlN8VrQWH9El2SOcSW+keocy8BF48xj9ZWPqFcZUA03oSL8cpzZ8jE1wf+nsEk4SIPVMo7zC3umHKajHjhdS1/l12n5hdF6jJ9vHaXfq+VK+eVlyXwqcMOc4glg4HsSj1TWe+GzbQI/seVIz5ZaUJArqSo2CCU4HzgoApMjHeR5y4/SrpciS6fITMxlHwQVtFzDnHJzAwJmyx9s8mHmZ2DqKaguXkO8G1Jm8MqFwTcO0ahCO6ILi61zx2vxoQ5HghzFOR+tI82bsO9karP5+RlS05qOEnmO9q4CdVNgGf/q8c+K58BZbJodrdsBtzZhb/MOURInwyELeWQN4nB45G3FhZlLZo1fNuXi+rWlH7+B+Q1ldL5ixFm4S/hM3x79Dc1qz2EQCHhE7aMWVosgPN3VVKXvdsF6x8c0wx3aLGA53YFdPBhjCZ3M+09hCCgvGvKRToqaA4T/ur8HTh1wSXBGW9OVkYahhNm7/9iElUJQJJetWFVflDVu7nIJhooqpUKgls0HxzcwDd5WEroH/57L0sF3izaayzyyvqQ6Vx0NWihiFj+2GxtIvG5ZcnZXclYvPwkUwDFlyA6z/iZzSbq5VPNX3B4YPJp4NfAvo2nCbrXIk/6gawJCkK+2cbyxaXedQ/yk9lL/oXyMI4YOjMuJ2Samlj1v3fFTZdM3miKxuFcRnvsi4dCySLrsqxVOUrVeO/CcosoCwBwBnDvMUowYyYjz6+exOiijdzoqIbj8wSjKiGrwJcu8bdH2ETDzuL768jXoNbj4nu7bp1Bd1k1XjjT44FE/8ximSLRjVNTibu/WbD0jflYKjsfceBZwZtmR0HwWkaTcoIG8yD0oho4TjiQU1yEubZeQSxzJZ3Uc8VoA45JRMJhQR2nLSfyugjy40BW+Zvy0p07F8ruZYHhgOWCVAn6D65FGKQTQ6KMp6jBEAd+mU19Zh9DCwqMo0OzgQlfgPuD/Q/8D9prNZmlrqc8xRtp+4RI9toX6bZFHBZplp3zAuyIaxrPve/ObJqpnfeiJTPPadC4Q8PHSPF6Qpd09nthZrkSCudHV5qtd3I5CNg2Ry3a0bDi8xqhHnFzK/z/1KPSb2Bv8TG0gYjEAJRSU/XH84o0swbgZG1Oi+pl8i1W8bKECrYN6EGWvX83pfBk8fhHXiOLnFL9bp9yHgCOfZftUNTU/pFmTWO8zg98tG3kJv62K77Rx/n3FeT/xqEnYcwI5oMdnOIhFl31xUkB7+EbTNu+yQliCFJAPxwZ6uJlGmvRbTZPGTQTkEU5L1tLwhuRwHWmsOKtN/D3pxMp1cP3ipi0bg6B15J7nJNzbHIo5UbGDqd98Z2RGs2cdItJJ4jQ4cmDrP4FTY4qzxSCEfD5JTzlSllN7zRArEuJsojaVNmHbO42DZMNYC5N/4syUnem268RKIwZJm6dUDfrKL7t+gyIZ3tSyk6W2I7QO6Z0uGX40mOnotcIJ+vMGHPfCi0rkuKHD0CZHommJY6F7UuUROV6k2t606o2gn1VyJOYldeHxhmMAoK9okgYZSfxrwmhEP03WR3U9SD5OUsMTNfJN/wCTGUxm9om/CT96EzdBx23rITxY35zu/XWVMOj3Cbwd9ByI7j7GbcSDjE8LBxOftCBW51SJ1PYsq14OGd4ne1h0Ig97TjIxOcm33W373GjuhZZ508SZsqpPEQWt4UXjP8PsP/nXfOBXMNW0QDAeu1EJNbCDa09Kot+iSt6Odf4bxjvN2PmGUlPVR0SiQFGK0AjDQlslC6VSy9IGFAJz0IdfoJjSBok2JtZlwD49sz7FRzRcojXTGJ+lSmI9fHnbOp8U/ghfOKqnTZ9feu+YTeucpaQPj4dvOCglGOrCCeuP9LWd1tsms+holVLke/KyUMqSnOdqegHiZmdxIT0JNbz+jiBbmxkir7S7U95j7600PzMig5HcbDq7kNmjBr6OdPFbJyNjKOu205DBCommXnSl+CWaNl0HTBjzTYEgfaB6Ky/DQqVbuajvwXJuiS87N48P4qe2tDnCwIoDX4IiNxAm8xsyJSaURL8ulIkPgm4S9B5CaqNGQxJ5r4c6//f6PY9xnMJNUi/XmAsJ7N90vrpUOpSmZ3sM39riWAj0gc0on3B5zlOzrHjGDltKATOwQ4WwEsxmdU+hbNcNAlCcNjr7bHxAVDixEJIAFt07jH8yvEowxyx4yf+SNq+1QVONGbIvZ/XCLC0WEn5AoejQ7KBCZuA+4P/DvwP2m9HMVdlIt5+F8PXMDunepcqpc3A7/eYQJ9SQYkYOiD73wMl6isNW2SQqwqU1nW8OyN36azk63TuWI42eRwMR0wAXxL9QpgRS5x1fAEIeC8YMjWNaUwKT8FpxbHqPcbB5rPvSTayr/BPNMqJggSRA3SygR69+kbX0XunySg9pzT6aWBYOQhMHcNBy1ZCD8Tc549OdhvFAd4zMFOtCQQ7rJLp4SJTdq2QqPP3KWbOJU4a8mFlOwq++4dpoWPETDwt2UDqdRMzqYULg0RkR/wtXZ5YkAq1WZNN1APcsPdCBvdrtbsaWgMTtXrq/lvnwswV3MoiY9aWY7grW4TiTvPFXsmuJuykdHnbZSTwiRxIesv2XbRZTktZq1Jwk4HDlRTijI9uzBjOjmPjKubzITnOCXZx/hdG4oraah9nPoxMwsifMWCUd7b/72ZlOLS/vRoeqqogJ/Ul8E7/jlJzA1mHBbkOPVpNkBOJWra8uhN5xGcHziZNY3m8F+AyjoG5r/GZx5l/KupZ6dbXn+zmX5QxAaL01Ex7+6bpKCV5hvP6kkVLcg2NeSAzoYXIdpi5rYjffxDzkPZNHETKDivxd24CBzuIo1RggOk4kzxmoFVh4a2jXVStFyrsWO//ww7E6z2zTh1xbrnFPvjaFWU7lSaZCFGOL/N4ORvrd8j6ZAgDJoVDeBWtdOhoP9Sh0xyZ2lHQtLex2jDKY63BjsV7TdGt/ALgSbNDwAeHni2yJ7gmofhH7cKGmMYVfDtJQq/wbiCfABoeBzQ7oOPXK+dSeUaZ08MAEF7qtCUjwAL87SpsDBShjos83SfjsquRo12piopDvxuEBVhPErWKmiADn1FZLICPRbP/uaeDyLGZC1zeUQTivz+FjAkAuE2A3KULaFYySCbbEziTE48n8NAiaEzhq2Hzq51ZI3R/xcwQb0hf5aT4/Nzc/OJpmpboOuF8Qrf1qiLAkCx/UQm6jXjO9k+trSaEnjXeTJS81M6hpkMhjZDu54icOeigsd5SNQgydfeYqj8+uoxrJgWqwUf2ug6peyl8oq8hVEKooMXsaWJzpCV67aldMbJJTUrNzbvwumAhHL8JDVdY6GrfvELamiPnmWQ4ggn/0lLjBs/Xn82zm6+yZALWvCNs+WNEyLG6LXi1tAFBxwD0BsKWo8QEA+oqaeawfFnt482jhiw4kdbo32hU4i38ITQRaTS9OpgqwZWuZWk7Q77EdJ4sVJ6MWTr2nQgMXwZwQrcbo0O6gQnYgPuD/g//D8UWERXzwMx57hCPB9m5b/2gbvVMBAytdPZRXgBF6g62vUoTZ+oBV/dzwUzkc6LL/WE+qxAwvSNj/PvL3ScPlLdrKB7MbEY9yyhYlzKnEDMVVdZg2poTBS+s/iU773PVgvZj+DdxDYlODs8oMBHTwRRJ7bzIL2BQZiRcJXyAhZApnkeOMZ+OUb2/fghsyXjj1XynIwRe/HJjsHG3XK693csag7gC4FzFQnU+Imha0uqhACzWFlarKj0x41Tb34LQnLLXxw6OLqunZ/4H9ay8KGMCM1cdveqdWPfU2JIuKRc3BLQDNSkRfq/WIvh8eGHY5fnpj774OOj5NXDZJ0NlyP1xJaKHkcpBd9JkcnNLYPlLtaO2uD9DDurHHISRH+KHWw2MBnTQBz//opKQ0Tw0i777CA7FfO2hZPVHxP/J/VCsQUEJQJ0deXfQtwzB2n0/2xDORiu+hECDeSU5o/QIJN0yldPjk24XHhBwDhxB7dHoIy4PwBAJjpcgBA5eYrkjvvrpFQBdlW5YcfZ5GYOdHdSG64C2v0SzRYxPGXMPJcTHIEfK4Idpruy8t8/AcyXvnX4a+d2YqRkgYpzgCJIb0hIgG2lQZuN9u6/JNZibnKEh2JmJTaBQlYhSm84qVYaGRLxGLvul5kkrO9I8W9IGK4kxaXJkjxbLyLg2APZTrj6Z5Np530r5dqqJ6zccwVY/KQgMZiOsJFUh1Roj7Pc6oqSBLZSwpwEvaCCYTnCTBbjYXw9HXaGPws6as4hrGJWgmyq8w0CeFa3S7XcJdwrZO2Pt6RQ1mNHmlmF4D29dfkW79QbHtMd2yy+u/Yk1QCzTXG8aUY1ExvXpRieqdiZxWNOCc9NbK9tmLg+wNTLNVsliwSRGnaM+EVRO9UFzWu9FlZfRcJtqgEsRjt9ii/vlNpmk95FO3S6rRG1U4r21TlFZNPjYcctUEUpc6l9sPR/w5PjVOwbx3mVq4C4u9001Jzc1IGAIR+BZKqB4zaiHlf/ZV8+mqRq9XLoXwR0nr2ofTE6Np1F3HsfGxN8jMWTCIBLW2/YdQ09vrYQHArLxGXKn0Niyfughbcskn/NSr2RFx+tvPWP/q296EHdRc8X9g6KT9UWnCgFpAUFHxbx8Q5eMb4A3wXj22V6a1MdmDYYm71uXilYSPuKlDpEU/I3JCWdBTrmNM7z8MZkoc9aovKiB7TzrPAkT8iyYBu/K3yxotLD/eFoGyTw4USjPM0dfimombMAnaTd5P7bgEsY+F5lEo0O8gQoTgPuD/RD8EMUTQY203AMMBGar+nJPgRVEDfJaSsCb4eEQi+apuJKPzEzf8XX7y6upTAUOJ8j5BDX4ROcn64uRlOps4E6WqWAA+4EQGKihWiPHTNHiUGa/2y7gNp265ex6ElHTQzkIZar+rfLzoW6a4+44zs2/BkxrWkx44D/u88TxdWcuid6Rl5vusoAS3M7xJKxTU4Yo+yDBqr4NVZGjfqc3mPPvNZ5FaiRMelRsMaVwIodl4qTy/a7v5WebcsCT5v0IZq3itQJqj5lrSnFR8u4abgtQOFDL/eS6ov7nmln/BbtLG4rZWaMzt913UmC8tZC1zx1mcrTcyQh60pRGCLDFSWKQ+s/yIOIt/mNw2mBCWl/AGz3ZPbENmas0P1itsZkD+wIcPzJeoBfzqbBNXnR+4n6p2/qus+JjgNiwb8s+3NlExRDpZpNKhejlPm5asCKDcHVwO5j9DlaEg+TW7EmjxmD1lMNi0n+y6MXyw4Tw9bgBZGL7EDnSCsTa2r+ah57Up91L1oGkR21mVAqTpQrgp2k7EdT0Ngc5acA90Ml29Pifqhfe3kw6x+1I3LikuxmoYZ5GyFNry48nA10E4x5pQEA1e8dTUmGc0sqZACIJpXLKXAx5M0n2/wJWe1QRQEbGKltS0NFNXTpTKBqFUwGCH7Ez0scEJaj7OGPdtkJ5z7EvcNxz2lh/BG9NnHcwtyOsOzE+zVhK6TxvK3O82asbE6Ive5wOorRs7Sb5h7KQwTw36balm27exIRUz/tPutXdCnWZZZWit1LvjijbjKWggC6T7HZZqo5D9/nU1bA1ify9kgrM3lIUp0D62bD9rV+tmm8GinHy5H/QuY/dRsU432NFzgCW2tDH78WegX+U5ZjLNkHD8BavmL0jPLobkKMG5tquVdAB/fFGgBm4I/3jiUddeVI3YRzHxjbEGoTUDWKNvA+UCbPaDBy/zXQYsGU7zHG0OX0czl8tj6J5ifk1QIjQY8uE1FIaQ0sH//TatAuQJ4Qcmnu3+NCkEiCSugeCaIGDDmOw0FR6FCWQ4caGkBVvHEWVyXej6H+7S7QvmeUHASQvKJjFwwXkwKdLlk2l1REApaClgLl/nPRNDe/lC2sGhCNTXzVPzYjEWVg1xGjI90sZeGuYnyghctgfLGtnX49REs53VMT3jOAB6p0mAZgT6Dff6LDZfFrzS3/anXQy2q0H4gw+KbEWjkwelATKEfsKo8X4TNHNoLsa/eQuKS8LtySRK2Fv3MG9h3lG5KcNNDvXMUSjQ7SBCk+A+4P+D/4PPPbt3hVrqOtv6WrokIH/t4q5d5fw6U54GLBs0vkUmd3mRXR8e7JU/qC+rXowRNJYjbXrcqUb+bvE5U7HW7IikGS0gP8A22XxGXPmnWxiouFwv7qua4MybKv7GUm3sCAFBXvDYQUWSQyCyd6wc+MITf4SIli3MlXdiaH1/brnnhYLF1rW7AANRwE9umLzHOhPMa8s2gdtXF/m3H8FFKNNwVcba/nK2F2Ky6JD2VRfVueH4Zsl6gEVQBjvoW/f4G2V7lPB9sd8UkGdzynQznyyBp7ZPSCAAZDGhlIcx9wUV9X3g4IU0NEDjuGtSH8JYwP3ZhbUNRSNsGWe2353ofaUmWHAjGBu8YWOwGmax9nEzsoswyBjkODRuJo7NuzIH7tDSZ3INfq3uA1XJbYNS0GjanWYWXj3BcTOKflSqSxdUJdiWhzrm+6rvLxuuIhfQGjnzMcU9VruxCoZ3aZ5nMgUm1egcn0GQeY9HydT0hjlhgWhMtYgUKl9dIkwprCW+Sc86s9cS3etS0HesE4uHHVs59MbJSV03DqzDW45n60EQmQf04Ga7jsqeSIUPMlb5/NGdoAKRnnTxJ4Max02DvefYQUg4tC9xQHw5lRudIx7H6yd5OmWBcNFjELIymF8ICoOnZMR5mEkLXSM6Me2v95uTDutYvO+lJ/mtBfpkSWDX4sh9RTG72z/h4ptxavV03HU+jvwTL/4z4GLuGk3ftofqKFE74pJ75oP3LVpxuUIsI+Rjs9f8uob1d/wbPNFkhappMTFuxM+q7L+vJA+QhW2Khvx5Ks2Pt5RyllRaX6y6EIJVpAJYvEHL/x0jTJDtqqgqF2BwRrkjmUHYn73mvTgnEHYBETcq6h3qX/ByJqr7WNlz/yjMFXtAOJWxULyLwCmRgkRfMBxKcLOSMab+dn/ESd1kROdMRBS/PNwSIBoq4RR8Nq1y2MI6sRslDeRxjzcQDwne+Xd3rn7yfHpt+SwVCzE5yXS56bTZkZgfPe5rNRRfw07Ic1q8IkixHvKfkodBeVCC2O6eFTyJaEpozRqTwOHUKzgmlL97jEozcWvhosnCZz3ro1SjFGfQIKntMNxY/vF24/gvpxCDv8HxmNvlVZhaQ8JwavqnfNPNTF4IeRDC3XbMI9TnnMC/aSd7/fgihmVKOyiln5VUoLSB5WZ3ScZ9iwPsGCMQntSvnJKo/POEoTp+H3WGmUj94w13TcW70RYfrrTYXj1rRBLVPX2Nd9SK/7yekRoX/qjQ7iBCouA+4P8D/8PQ4zjL61VIRljWgWJ9zrmAY4iIbEjIy2Vy7b8ph1t8pl/3O6YSxKx4g/4ZSHHkQaywy4R/m5+NLrHRShUANlZANuOmCr4grIh3KG4pqUfZLpxnt/R5KrEEKwZ2m5Qk0kmFlONBtijiKHBxfxwB4N5POrMZUDXmn8BRRpTibRRlebJXdJenNJ9UGxzac37XqcBhwGpP16xGr+/v+TmhMnggq1pOIkqYPcCPyDIU2NTiT3qtL12wxTcOX2n+INN1+a6O+5oawaGgdv0AnGQ6Ac/W35us3Rt3S4yEJWc4OiB9imXY30nxaaJpOEKAWATMhYhUE9oWzBKBE2KgiAMRg5hGyNqwBqQ9Ow9zb2vuYa+W4nyt5RSxWCvZh2CJKS5triWSC/zZ1ezwrTgAX0bk+f7cOOPE7uCZ94ePsm8uLQrmU1TZzmzloJutHQge8ypDT4ntIKDV1VKA0DbLD6h8vp2V2j+7qs5d/sS7MEZ3sQmi1+fFQ3yFu9zZGAFk1LFpGNKDsw/Ux3zB02UERaS0elr5aFJ9lNmhxQax11g7sxd4LsmOXjV+pRJEOHUhtDng7xyhFzP3a9aqYL1sY5NyPpoUh+/FPGRpR/z/UiGD7Ebqp4gu45HAiUj5MD8q+AWOn4UIw1j6wDbONB/EbjtsiSNA/HrKMzixZ/yll7W2/mRjh29vbIbcKkdkX9gipf+qjdJUHZ516YJqDx+ygILw4uid0xUHAIj9wpHCq0OjE12HOwK3BfWMf+odddb5CdBQ4qvhsnqij1GeQdFamsrw/wfDNxJQv5ekpabgFjekE1Cr3b54HUJcC+D9bqHhUeN+8ONiszS2mf2v4GffE4vIYY95PArih8G97A6YpJAM0XgvcD7GvdgY4/ylICabmqHjPKn2R9bWhFePXZ/CVqj29St0Aedpe/EbSctlkyYUhSpiltGnvvPE0emLDsFzEHf+xRoKNmuG7UfyHT0+gV4pZ8wQsUfyZELP2jrJUIHIKI4SUT+J770mHz9Jw6JXsXz3Yn35UYD2o11AvyyauO5y6e1D4HQkuaOnzd1Rj3DCw7Bm9vYYOeMpKWpPxtxWNFNDYmC9h7Z/KAjlh5KiZ6HCqq1bY7lzntoVU5ISH9/ncFBRf9O3lmlyGzDqwjJpclbOyp9/xqEdfkEfYlXmVwQ5nMR0AO3UVspb5jMXL1CWmevAvPmpzkK01FrTjm/RII/pkoNxmeo7cNKPtS6CeNHWrjh4daGeaT2HuIbjQe+ipqJo0Q9gQrHgPuD/w/8D1MicNf/z4ILKDJ8vIUJTvhuWgNtIFXJdle2IjXQWmKvcZvWfTpKMUrmO5lLT29I4C2CnTjsPEgnMZmKWWW3P38vS2GdIgH92C/FpkX5SAL41vzDDDWGBgpDAndyZpUn1YiK8OXMzc4VPo5gysd9pvxrrFJjvmg29gBCla76MqL2KUaKc7K3vF2vUeJBflx95E1HNVzR0e9fR2d/KEAFXtWMnW9+3EznC1suu3ScQLhpycvPHQB83WY3ybEAiSC8/ywO9qMFp3szegEa5LAwLDMW6tQXQkLMtx3M3YWDPPeHEQ2cXAcxCpeq4JKOQfDIBPCHKzxo+6oKWcClmgEVaAdyHXGEZy8ua+Tsa9Fks3MqxVtrs1sXyTLy+a7bo/VK+Sjma6xLQHGggzu+zWQ7dpXDv6Ow4Xlo0Tv0bT6aMYYlEsJV86/TfRMoDujZfgDwUmowGKhIxESZk6P5GDAjxoOPw13fK6oDyC11sBCQLeWbwQjXtk5mzcwNyaoOoA/9OCwDF8CublZREZIe6oZg+Y0c8LqH03dITsN5zK9M9n7pPDlIjST9PUwak6ab7xYQpfiUIQ3Bh3lMtCrwZJDO19aOWbUerUi2TJ+rE0tfIpq1lcfT9NrUFQolm40ZUpzM+9/ePTAHXE5H5IEzradoR6+AmD11mB5UFAqeLgHHJ093Vgv7eG+fa4nAGy8unjnsiKomahBYPa5CHL7IgLAGfWBvFZONhqIb/hIEi5emjVKEIB3aFzdOcA2QJ/p4gIapQtX3GS09zoAt5Gc4Z0OHOEeL151L5H/PRUtE+NaJhw1H3SqSKk8V5kpnOU5Iu/evVyUMf9/jdNr+Al1j/2bNuVvhQt1YIMob0EKA4sCBa7dnv1B/4hKKNNClyEcxqC1r6p7clYWTSKi3Hkc7RL8uPBNYuevZcrW1HaGRxI+JntukpTGsC5YrnlnLwHJPvSWrhdyCiNefXr80J4qB5P91yPS5OoFd1VrvAxK5wjRjCE8JI7Gx9FcTwH0OVKe8l+z1SyuRwJc/nk10iBpk0OilFbg9BK8IKHrppbP5oFlnfOTxAxamLaKC6pUSlfxb4/vt2zIIkk6EmPtUs//tLsSfgIycmuo4PrFf8dqjFZAz6e81m4+RZI9XbqHxO5+TEbth+7HuksxUNWPCxNKtErLgl2gwCrIHDpIQ3Oflx6bh/6x9RbDed9C/5YH1OGDfCdB3lBs6AIapr33xTFTy9SzdTEX3pJv/NDDyfLNtzBbGa0lsU7KlX00q/hrrZPbe55JyOKOlbmhZ3CI+38iGgIP8PXmmOqnIvGAijpfpQ7ReR/L7xR/ZZFvojYbJTZPR17lxCyNqS9nYd1tucP1zD4oy5VCO/whcLvD+W7fZouyAZ584cpAdWXpffXWyS1ORjqPbjPu2NigbqTti7aS9HwCJYpL3yYqjQ9mBCwOA+4P8Gv4OWyS6H0BO+YpW4b9/+CSYpK/eTtmp91PU4T9kilnagrneflY0NRqCOPb7mEBfekHDdIp7qhfmUgXcvzdKIuHId9zP3FIlmoTqV+Ucke24jHnhmHtzNKYwt0S0gTNh+3jmsisvQfWC/qrSecjsgiutbzGgnHDfJ9AsuH7b4hfTH4TzudA+X9wt7mmUnneEaHsJDatszdDzkuQ4PKTAB9TSDN1FMnsDi6iAD/H8SO76t4GVyI7ei3W6tSY/buFbRE4UgSado0BbSdxwUBMMbuuTp9HAYf6tpFkl8d7iIWAvhdkANs1lQ9h/UUzQUFHMji0LmqDwHIXr9Jjgu9qy4DMmYgLtqlbAjHTyxUVS8KZtgglzXsIYlEYPiDPCHs/nFGLMWtfTb5klNUFiaBYe8XrfLC0YtLeDx0ZyEsCEplbQRk45jDx7Rrh17TRym0z9vbsntDn0BDZglGvRugdtoDs5lZNFLbU9bCuBINnP4Y90eZ/cJmOXIJYKAmpYuTuZqKodrgo6X8lcs4+qhYWgUiwrMxrk/96IcdwJGQIqepChtAykMoNn1jACLDbbRA1WbPxXEfMBDphg+qQwyv2UWyA2U8UUPjYwnKNOFSsqdEnwvM40+Ozkq6hrwqJyJK1hJnIAWQNKPgRGSEJkYWr9Pml2+vLgQFxra/PI+YNgL8kdeNgvBTcJSrNZ+Q9vCu7Jp9GRoHkmskeep87PP72olJ3QQsuZJVKGnhkkIFytV0j/7atcABoNVtphb2pCRbdDSVwGiVLfvcc3vsuRF8g4QMM3EQt6tYVCRg0jOZD9CsVCGcb9U7a3HXcIkBUIqAJeTUfpOLZeGkOWOMi77mOC5C6dyegjFeorSLRvALVHkrNApkL3u5fUmlmZ/Y89FI6fKBuoU8MCLfmJxLsAYXoNmeHqjxlDJXdWFETVnIqm1XGjLFOsPrAVQGvfVD+gOMGYz0h/OFLQqs2KqJYgqwKQtZQv2pCnOnWMpz8W96AbfqQnZt51kVaiT4jdFK0lnIzjCuK8VHBc1Tx+46tZPt3hREFeMlXNQGbJ5jmFbxMKiLwSvVGTDsiwYEXZsEv9mdTxgWlVoi3V0OmYfC/ogvBUcStSiHMM/ttK5e/pOevLfCYPEdaA3PY2Iso1vvlj9Hf0+UtEuy6Q5kaUMAgOYw7vjnM7z4wb839+Q4E4voDzoxY19hUwrUmDgeZEGivdkGUXB4ICAYOi2LHxRkIW02g2iEJYja774eLA6J6EXpKM+bXE4gm/Oh0yWmnNL6yi170nb5P7IdKI32K2p5xZdVPN3+RAo0O2gQtAgPuD/w7+D0Kpq+S8ytrfG301xJftQHPb050i0eRpjAfyuLnOF56XIcZr73agjg+jrPPYgc8Rpwmi+iIyi6910ZBlEWXOeNTzFk4WZmC/ufedXMnI6gOZpSBbZW4k94iYqbvXGzYFG5Pdmq0LSGoN6lmPrnErUVb+uMjJuhX8r5XAqIC3X7SYrFLjtl0+6krlpvi738mYBs1Yr+DqmL+KckHh8A+zheSQH/m15pW/0pLerwjmF+0E/ALe8zjG4Lu2BjOiP1Kn7zE7aIYi6/FSLY6ShXxbgHImjM0oaU7lG0p/12ekZInVrp646bm76+dgiJYwr/X7D4d0XF1aCERA5Yo810QG/OHj1wL88asGfH2LSwJ947LyvPSkNoV9wY/36rhylR9SrD4IjEKrs/aS0rYrOjIbGC9utDdG7Z4CUybVRJsxvw03H7fllNRn+PLWUZtclb2nXFN8k8itDMmrrK7b9Bal5B1Lm2p+1ArAIkuKBh/wy3AYbX7EZ6csxjB/bJHK1kQn981V9AvX9nzCgt3nP7xrojQ6wt+T/wmJ3rdUHgYXsTlVVPWL6DzYF7x+Vfmv68arNw6pI4jjDIB10lurnFqU9iLjOoUqTYz/UJ1W5wX5fPdLNDZMC6BuK7sRT04Yr3YLOEh3Q2S2H/GXj3CzSUNqQMlSrT9nIv7MObvxAblq/IhEB8gUq7/pSb8q/V6CN66jXiAyFLGP/q5S81uH+mWJWIXdae+xeDASeyNM/8fPleKsdnApgxVCoqxqsjIRFxOav9BsrxeIo63u1iTFzQ2Fvx8bIzDyWV4PYWFJz59+h6qN7CI6SRAjZ2x2lXWiRtcH3GY88uzQ4XTE6tGONMqIdxxSNHya2kx8eXpdRwosH9wBUZ1M24ZuInu5IdcNJP8hlE+Yzd9yt8krzwQFc/P8Y1oXDlSYTGgko5/Y4HBw+0iDy7gBfz2jd+9ljuNA/QLiAkJAL/Y8IALETaWbskRVmKtuBJ+FyeXi139mpIUUnW2c2xZnEBAIpMstUH/x70I5cFOuE1AAQYIJPTVsniwBExG/r+0DZaKDDEsBi32/FqWGAT4h0rlQr4SLBqRbzd45GU/UgM7THq1q1JnV2yrkwhVZKpVk2bEqxamCa817v0xBgh254x18Iw1zGw4aBm3GmJOVFwTkHk9qg2lnu6bTSgxwWBHFerSl6WhGGoedEj4PhIOeCPaCbwry2EGmR5jOhD8NXkvjO1auF9mrYP4vcv6h/8qeg1A9ACaSV3CjRGyBC3uA+4P/D/082msnGWDRt0o02vsKdegET2QGVoT0GFwdR3Iavfi9atYxIz8dzrAsxZsY1X/yoQCfj1WvHRRjXbOnhUTBEMX1k3F02xIiWSkdyBKItqbIEbQkvoKwlSFVle95yEQj7shLD0HwTwuyXQGbMDHJhsqj2mrzbY07wP0EtNAmemRpJ9Jvj6SraIH2h5MKS18fHRczqy/1Up2USQ3LP4OhP9Dvpz6E/DR5slRYUpS52matL967FxS9YEk6i8napE3DL/cf+jPdrMHK3AJOc/sjkBUQByejhLCUUg22VJh+NetPv0QUwOfvcbNJzFWG8OvYh/pzg3OeNR0z/pGjQrauFT91VQbe+uXIEJNs2SDjttp8N2NZ5qLPHIbdPaEfHenKcKBEImAF0r+4TkYSUvluoYw6ni3izrzrfH58xuqI3q0GdlLW8FLWZZ8eZQcgh3KiEDQD9bjWgAShDSw+EAZcZpsfIZQMJTQ5XdZDcgusW9u6LmomJ3amD/PlG72nZ24/DOnbemke2+HuLi56XrEmWKqw8/J8SHyYZKiku5BfrcVAnfCQ0VrzfP8ROtXJM7UIXTDYA1vgHSQFJ4Vye5L4xDLB5/0kMG9DlldOmgFYOTiChKkdrYi0G7F4dGP3ts+jEOqbVRP60qJFq534+bOFhQGB3qiRFjJOeSL9HvbXsrrTnTG4qgyrmUuqUTwE9Q/VYAJoyFTeo+jguIGy8z/2T/czOvRCS2AUZNpmAaQPe/nsiPLuNjzWLACoGFAGGvy1redM08P5KZAa+OrfUVEovqgr8BS3RGXHWL3L0BUt2heOkv61nz8ze6poWvB95Nh4ieFSPj5t/GbCLeeWrzO2PC5GXxauoWGG8DlLZ05c/medVRSSvfnSEVNs2FFvfDyXLZzGeAXGgdPhTXhdiADgjwPbydTiXH8/cvTGDRJkHb1idiFoDVSh9is2hDrrxha6k54QhKEGupxDFVXtxvbbC5hPIrJXOkZiva5sixkZ+CPbvzPSEgaQkHaEAaqB6OGwhrYScGta2anKSbshy98/aqYG0mSKDvVShOA2MiTGd5pqOh+eoZrcdz46hNwa1cFTDJ4fKufSCnfJ1qni53zCCsL4m626H02Xi8pbw+jJ7m78BNg2n7kBnLIDoihIGy2g5IkmiLDuuxCtl9o8c5/JjFfXtyI50y1tWd2UgbNt3xYzhkfN0PqZTXNATtZ9PYnYdm4R8ACglBY4qR8JyjfU3bm1QCQXb/14cliK/muN5DJ5Ep+zUdRctvFtdx74Rgkl4JuEqXP7KuxnW1vmqWHlqT7JjePXX0D2F9IPKRPBzNp3fOYM2+RrDUl9I0H0a+dTibHJQd9e61CD79JvERRaKV3cdXx9Rwknx1qjDT0LC77tvRX/SM5g9+Al/NcJgJ9VReOcb6l4RBpE2BkcgGhAInJ8IGMAS409IOT0RSSgBXdGGtT2CKk8ZS29YItAK602gVU/QDMsRixMX2aXZqsiSO/Ln3KIo0OsgQu3gPuD/w78Dtp3aGpN9KTF4ol66IIl9ANTauk0IBbtpMhXivdEfbrNmtQkrgOIaOaXRtuDOl97H4Dp0fjiXT8Qxbq5c9UIolcwXruTd1t+hwGs0xQybz/DXDtOUseDPT2KJ1gnGFzYMvzXLUwdMDBz6oWwmTmf3UghWkvjUxVp5uREvwQu3EpF+RPV/kWajGY6dLnLZv/5nrya+4peg52bGJkzWZeigABnBTNeqZyU7k3dnX7JdhDur1lqw244/fdiZLjeEQMsLoGgyZ/NqrgbZF92Nn8TwbESwDfWN5zCfH86SsAhwCLaD1JgzFP8w5VOMycNpcCNtn9ia+i3vsZ/S5PaW3Kt/9eC9/+JcBWOydLm1utjJmcPq8MGLkGGe5MHdZaOm+m994X4/WFqhPM4IO6NigFOjHVlv7EPCRqGQ5iIENFtsedEGkL7VmLvKYmLmrQPea8tQQDl72HbIykRGa63Fa35+Fmj2gRYr3NkT9efYDMyVu11mYdExHMw/qdHAfgtWvJ0lw6OLBNLCcDWMZSyCkB468S25ak6yowuN0qIrOphuEz1ofeW6+pCMfJbLBF0v1ZGMqw1TwXcoZrzBk4GAOtQ2qWXp35RyxtHVfAQjbN149FRYvXAS5VvDNRdlMM8+JPYifTp/gcj6MLWZlNfIm4uOlE1zlbl6nZxvKwc81PMW2sqijJI3F/oCBr+4qKSivvFQ+B06wBCLWeHxSDd+0FWxtHa/s5iUHEfn/HB7IkGku3NenxVtc+WEyLzwISysTeHFhPxXrHbqscYG+m1qFRMcBMhgV6jIq32PsC/LIKSusKJQhEGy+RKIquT9cNDwJvPC/3JIY1k7gbF8kaAqZ2Dj8lXnYg58c8aQ82SM+Ha3Ucn7REfjnXEn18Ap+OGn5XV44+OwAi0oF4ZNJduG0s15Ny3oevewOvZ91zSYkjTW9j7GWZhNudZAXt+cDmr8V6NOTLQNEbuVRMSUjrCny1Ij9YW6W0xoIGYZotfu6K+7UPJvBj4AghPgjnkdvJH8ZbYm0yZLyk8NKoxcxRY0KgLC++Tg+QCymm3jzTmwJXchSV2KTCD8qxrBZHMfmuVZkT9Va7dHQi8FCTVlPoS8CCvoMNzLVhAK/wXnEU+/H43mOEjfbWl4BPw2Vwcdx9QNjLdLlxP9KzVzE6J+gGCYQjFsdFtj03ZfaFWzAqwf8+b/NLO4tXkSNMwBwGrVKJiIybSqY5ztj9n19T7Q7pgmUmMj4xdDaNDtYEL84D7g/0P/A/Xu1P7GEk5ZVPQDwENruVnSfL2hCwYh46rrPaykkAZRbs269YXG/WRS7jiViTVYrEqQ3+aQy/zn7ByHssswBUJp2DRGQZjZetaY1GGrBDJGJbb0VIy4IGUksrydt+qqCX7/SEgAaVNAlytIXAXAPUQWNGzBKJ0zSaujTYG5+Cq+5U3DVPoiXicuHjAU8AHxVvm0wJZXYUHWKIA2r3iERJiGcvuFsJcrRicy3OszimCtUn6MJRRLPkK4yswvBWzk7CpSmF290j5b/LyKZuBtoIvT8EtfT0TQmSoeB4/YMU4FxjPTUSoq16Wh/ZGbTmotlcG3VsSTKkQvP7m6O5bv1RiKEQ+mPOAMFjiIbi/7AxgRZT/mearxM98cVNgRWF/0/I3td/AUYelg0Fb/Kq72zZxXv2AOQYsPwOH2mp5PnniJiAghjRQIIC+06Ie2hQ2Knl87178B1Pnz982UmQ/FNWjY+RezMigubuedsKfbmyqAZ6Ddgjqmv/fReNN+R++TM21xO2uEWr3UPFFBHtLKM5QXoo6rJgTcNBWErZkov93Linr380r1Gh4Eu688UKGgDNlPMAgpQfrS9S79Q4YOHDxbrstyA/cLhATxp35XyB8WMe1qQzdPtU8xyr863PWu3NRVjI4dmj4s3X5BWo7O/hJht2SrHGyerV9m2qvAjOXIii0/sAuO1b0fdSktCt0mIX3DeueaOEaxx70maO37C/M/mmjJWb1nqPPxnCH+10a5UwcIquNtyhVGSE3E4QfxZBRC6uPmT3Obdb23hfhogPDXTRmPfhJsm14ejpmB90ukvM6YdMMlzJgVc01Fe5rpuuG3Dlizf1BMu54bX53CaI2Z+U3teBUZLHCyJuFQOU/+rNfuWpp4yXCuaRGDQ0xmUuOfTV+4LWwulRJZMxGibtPafBf2XHamwrzH+OD2OHQZd4qRx8ez2+zyNijl2MX2ScjAcf+bzz0qPD09OV7km/7Z5eC8H/WLLVPkcaqHFiaJEhanuM+RB8Koc8LGcFk2ujEft+od99HHa/AfZtXHBv4ht/OgFu0VMyX/wZr2dp1ArV4nGpZ72HNZQlUqQaVdmwz2dP6VkiVW1hBjqEyEOu3/pURvu+7P0Lp+bRaAUTH2e3hhMdTBjjgILxP5WtCQ5Q51K5BTBWaj7Mgdz6ayEzpvRYdfNSKPoGkZWUIbwGbRohwKkqiagWYxhXaB795cYIeDJxuih4ufwZw+0k0tjvptfJcX4myc/MzM4ajQ/yBDC+A+4P/Df8iPUnUwETM7P9bsbFgdfhVM2FumIf9WEjNcS8VFlXoJb48iHcSzhTjskugJ3B7VPWpGfXUXczJ5j0/xMtLKPbXVS1oCHUWwIlp0CBsXU6LdP3Ox9sdWt+wUKqo39g8Z4l5FBe8wVCZO4xytc887gG6tgE4cKeQWW3fPGjk+kO2KuQ72fP7Dz0qNceKhkp+/lHm7O70MxCWv7NjDDTQUDqexz1UvJbCwGS/VKduvatMvCwpk7YeE/AtxA3BgWTR6pwau9AUDAKM5BoVIfcyN9VVVrpxi11NyORi2tzzsDykrcfD69iA7xOCudRNaZhdl+7zADRDWDAbWomGZWZRQ+zctsD5W5SsLFQC1WvFktq9oRGbn95wtG+REoxYQ9gH2qFqljHz4UurrJe1rJdQpaEmmAYLe3As2CqTHIwsavX5950O+E/iQxGNvf5F/5RH6Ku2d2ZwQ/cTd5pWkAmcMp73r0t4c0b0YGnzFB82hIxuDpO9yhloe/Rbgtd0iJLymn7RTNjDdQhB4TxXfWi8BdOy11bpneIaO9L1Gx2jNG7DAc4VH7OPE2Jsymh7jW+DC7JRSj+U/5lnDeXqNV0oW30zrzNaFS70loIUiLcd7VoyRJ6spTsStPmNLXslcKparKTOoZvfnaIQA3xz2bI0XAxqcDcFLFKmCAN9AOeYj+vwPfq/pheWnlvMpAQKG85GzU7fH+ZmoWgHqlw96yUcJtXXNimCVt+o2MU5LHIfymDJ7S4PL8vh2ZR9gqx0y9S04L1mptO4xwftYIUqfGvYLLsCMdMSdS+AGVKZSMINphAP7NVvn/NHPe8FDgkLuAeYeJMMQEHUfXx4AdpMBEdN35eY6QeyufzHR+nBCYGQe9yAhKtjuzsY1GNzcSj6HBBiV/vLFO2Rg2XJq/yKujbUHYe9jo6mjpnNHmMO2K5Tp/SZlQ8OX837Hia4Z2zezVAJ/NFVHzocBEsWxlYvgb+6/rGKSQx93KKgxQ7H3JNExQrv6SikxtX1hskCS3OicrRMveOMqtp6r29JP8T0uB0aBEUWq5Mj6wH3+HyQJ3AqyjQpEgPUcxv+whs8vVY24WtvApQd8Sic3WrRPla5zDZUYsZ2AXTxIo3HlaGGS0LG06J1m3rCEIzsp7sJJG8X9yasefaonj2ln2lJxGAcNyJgDMuz/XFypSvD7AdUqN4Aflpys/8ArK2HGnc1/e3spPGV6rxJ/30Kr70QJbJRHRIfRn+iWG5G5lHVoh84p43A4CKiMS3oAd9/luemvQOJtfGW7TB4ezIf6d9HYudPfFDAmYbFaj5K0YN7DRoODrTHNOyhpQ0GIGhVL9N7fhrer1ngBXkeqoqjQ6uBDGuA+wM9Zg0Glqy1YsZxDWRdAf4WeZSHpCIgy4Ds0O35prqEQASj9H8MdZMOVVUSiAGXNeJ5QkPsDEhzLRupKAhS/8t5mpTZSmDz04fBDG8kIyeU7pD04+MsQRIr+cYVdRcnftOLpiHDxechEQOdZrYHHvAua+Om6GBEq+N1VwcDLeGLAfqa20lDidDtJRNHiDscNpDaeDO2hyFKPkFMlXl6gRgRwFGZCAfGvd1DSi77EeO9++WWmt2omGEq3ef8frq9pwEowVqEvMr9UgBzoJqpQdMEZmWbxZs+9CgcySTcR0Rn9+lh6vQDYGjENpnO5wTWu0qL9COa0lRGrhzah5Ur5ooQVE4q23Vf5dBGLf60JqBADwHYAPyIYpMogCGQPII2vNpXszdYyNFKN7MRNOYLfhWXbM1svJq6atpSiwuoLCfCGlDKYo9SuFLgdsUQ5Ngb/f1bmUxKvFnn5XUi+KcdKXvJghXjfZX5v6N7itMX/J64U+JlU/nmj6Ew+ML1zHF9Ef2R/On0cT6Y2YBCeHnpLB9TZoqDKCV85X4zc+nfP1Aqvh/m/tfnKOA+OK+ap9W8sNtw9wbhDRNyT4LHbyROv0S+vh/FpHVjo+1lkdJ2OxGhphZhbZDztk6ZKGvcSQj9jGuUg6hXsUB3oX7b/KpbGNc51te+GaXphk7sGXsCCQFZe9jUqYw3iJtS6RtNHSydmjYFakzT8dyI6U4I+WHibk7HZEyiUwOShXxUtBmkoBnphhfUnvv8cZe0ILtZGUvit0XDFpWxYryUucdhgKbLN3kF/JPS0IzLtDVTmDnI7Rk/zTGpAXee43wdouclwXuG2lT5Ppb77pm6QrTwVSXvKiQLezdkLRlFFzDxohBfjLxf4dRyDV+SIK6Q7uH0c60PAL8xd5SU/YrM53iNVZc0e82K5wQMwCWrbskWmwpXcBQUOX0dC2dRZrhGIRRiUpdR+jNgsC3n1WYz1qwaLUlOOFUIum9ZEhVYB5R9nhAuTG0+9U/VSMu1zAVA7p/pit5UZSpnO3JNh89jce1sCZh0AdsWZxodb6PcihMz1m9Fn/EYAcHgAnNq76dPkJt6oDYu/O/FwDbejpXNnosYYQxfDzqD23NZq1VlfSBsisqZQhkBokGX9vwkiJ6DbWE0grAK1XhStz7Tt/AZOZYAUhzEHaSg8GAW18O+xM4oLKsizZOwTa6gGspFo69HOopPijWMljg+yTPzhAqL3XvHxbF/65kWN31RO4mjQ6+BDKeA+4P8D/8OQ5IkqIM2GIpqK6hN2IW7xQ9qzDLrY0ZLV6qOZ2u8aLqTpyLJpIjsQv4KqWRqPRGGReAxW3KXDYHlJBMxtTWANjXpNPjG9/Q8H4h0PXVtXniczfh1/hdzRCTm0Fo+wmL2Y3lZKC+TpG69ugQXvOHHn45CBfk3aeFHHOFjUhpr4qdwo5txuIRl7NUiGzsf42CENr1T5hf94PFLPc706hPIJjVc7b2R9dtamMBCalC24E8sPve4SVdNAyqQn6/l/ctcQq6ZhG3Kx8TbN4nhRKbSy8KrU1Cv0x+Ludo1QSCqr2u3AfRGmyDByk7zlU79Nd5Tym1elow7dBuVrfYeHsY9/GeZbUWycoNwuAbL3sw1ppZhMPjiiNKa7WdOg2dR4TAVfKTe