"success","timeout","failed_images","failed_audio","failed_video","trial_type","trial_index","time_elapsed","internal_node_id","subject_id","study_id","session_id","view_history","rt","stimulus","response","choice"
"true","false","[]","[]","[]","preload","0","7223","0.0-0.0","4CB0F81752844E8F8795EB414F7E187A","7ce2d586-c112-4def-91f4-b99094fd5eca","5479079d-2186-49b2-89e2-e3afab6abcc2","","","","",""
"","","","","","instructions","1","16791","0.0-1.0","4CB0F81752844E8F8795EB414F7E187A","7ce2d586-c112-4def-91f4-b99094fd5eca","5479079d-2186-49b2-89e2-e3afab6abcc2","[{""page_index"":0,""viewing_time"":9567}]","9567","","",""
"","","","","","instructions","2","21315","0.0-2.0","4CB0F81752844E8F8795EB414F7E187A","7ce2d586-c112-4def-91f4-b99094fd5eca","5479079d-2186-49b2-89e2-e3afab6abcc2","[{""page_index"":0,""viewing_time"":4521}]","4521","","",""
"true","","","","","fullscreen","3","24208","0.0-3.0","4CB0F81752844E8F8795EB414F7E187A","7ce2d586-c112-4def-91f4-b99094fd5eca","5479079d-2186-49b2-89e2-e3afab6abcc2","","1879","","",""
"","","","","","instructions","4","35682","0.0-4.0","4CB0F81752844E8F8795EB414F7E187A","7ce2d586-c112-4def-91f4-b99094fd5eca","5479079d-2186-49b2-89e2-e3afab6abcc2","[{""page_index"":0,""viewing_time"":11472}]","11472","","",""
"","","","","","html-keyboard-response","5","38692","0.0-5.0","4CB0F81752844E8F8795EB414F7E187A","7ce2d586-c112-4def-91f4-b99094fd5eca","5479079d-2186-49b2-89e2-e3afab6abcc2","","null","<div style=""display: flex; justify-content: center; align-items: center;"">
                <img src=""images/causal/causal_series_2/causal_series_2_a.jpg"" style=""width: 300px; height: 300px;"" />
              </div>","null",""
"","","","","","html-keyboard-response","6","41701","0.0-6.0","4CB0F81752844E8F8795EB414F7E187A","7ce2d586-c112-4def-91f4-b99094fd5eca","5479079d-2186-49b2-89e2-e3afab6abcc2","","null","<div style=""display: flex; justify-content: center; align-items: center;"">
                <img src=""images/causal/causal_series_2/causal_series_2_b.jpg"" style=""width: 300px; height: 300px;"" />
              </div>","null",""
"","","","","","html-keyboard-response","7","44704","0.0-7.0","4CB0F81752844E8F8795EB414F7E187A","7ce2d586-c112-4def-91f4-b99094fd5eca","5479079d-2186-49b2-89e2-e3afab6abcc2","","null","<div style=""display: flex; justify-content: center; align-items: center;"">
                <img src=""images/causal/causal_series_2/causal_series_2_c.jpg"" style=""width: 300px; height: 300px;"" />
              </div>","null",""
"","","","","","html-button-response","8","47863","0.0-8.0","4CB0F81752844E8F8795EB414F7E187A","7ce2d586-c112-4def-91f4-b99094fd5eca","5479079d-2186-49b2-89e2-e3afab6abcc2","","3156","
    <div style=""display: flex; justify-content: center; align-items: center;"">
      <img src=""images/blue_deck_1.png"" style=""width: 300px; height: 300px; margin-right: 10px;"" />
      <img src=""images/red_deck_2.png"" style=""width: 300px; height: 300px;"" />
    </div>","0","0"
"","","","","","html-keyboard-response","9","50867","0.0-9.0-0.0-0.0","4CB0F81752844E8F8795EB414F7E187A","7ce2d586-c112-4def-91f4-b99094fd5eca","5479079d-2186-49b2-89e2-e3afab6abcc2","","null","<div style=""display: flex; justify-content: center; align-items: center;"">
                <img src=""images/causal/causal_series_2/causal_series_2_d.jpg"" style=""width: 300px; height: 300px;"" />
              </div>","null",""
"","","","","","html-keyboard-response","10","53873","0.0-10.0","4CB0F81752844E8F8795EB414F7E187A","7ce2d586-c112-4def-91f4-b99094fd5eca","5479079d-2186-49b2-89e2-e3afab6abcc2","","null","<div style=""display: flex; justify-content: center; align-items: center;"">
                <img src=""images/other/blank.jpg"" style=""width: 300px; height: 300px;"" />
              </div>","null",""
"","","","","","html-keyboard-response","11","56881","0.0-11.0","4CB0F81752844E8F8795EB414F7E187A","7ce2d586-c112-4def-91f4-b99094fd5eca","5479079d-2186-49b2-89e2-e3afab6abcc2","","null","<div style=""display: flex; justify-content: center; align-items: center;"">
                <img src=""images/causal/causal_series_3/causal_series_3_a.jpg"" style=""width: 300px; height: 300px;"" />
              </div>","null",""
"","","","","","html-keyboard-response","12","59889","0.0-12.0","4CB0F81752844E8F8795EB414F7E187A","7ce2d586-c112-4def-91f4-b99094fd5eca","5479079d-2186-49b2-89e2-e3afab6abcc2","","null","<div style=""display: flex; justify-content: center; align-items: center;"">
                <img src=""images/causal/causal_series_3/causal_series_3_b.jpg"" style=""width: 300px; height: 300px;"" />
              </div>","null",""
"","","","","","html-keyboard-response","13","62906","0.0-13.0","4CB0F81752844E8F8795EB414F7E187A","7ce2d586-c112-4def-91f4-b99094fd5eca","5479079d-2186-49b2-89e2-e3afab6abcc2","","null","<div style=""display: flex; justify-content: center; align-items: center;"">
                <img src=""images/causal/causal_series_3/causal_series_3_c.jpg"" style=""width: 300px; height: 300px;"" />
              </div>","null",""
"","","","","","html-button-response","14","66676","0.0-14.0","4CB0F81752844E8F8795EB414F7E187A","7ce2d586-c112-4def-91f4-b99094fd5eca","5479079d-2186-49b2-89e2-e3afab6abcc2","","3769","
    <div style=""display: flex; justify-content: center; align-items: center;"">
      <img src=""images/blue_deck_1.png"" style=""width: 300px; height: 300px; margin-right: 10px;"" />
      <img src=""images/red_deck_2.png"" style=""width: 300px; height: 300px;"" />
    </div>","0","0"
"","","","","","html-keyboard-response","15","69678","0.0-15.0-0.0-0.0","4CB0F81752844E8F8795EB414F7E187A","7ce2d586-c112-4def-91f4-b99094fd5eca","5479079d-2186-49b2-89e2-e3afab6abcc2","","null","<div style=""display: flex; justify-content: center; align-items: center;"">
                <img src=""images/causal/causal_series_3/causal_series_3_d.jpg"" style=""width: 300px; height: 300px;"" />
              </div>","null",""
"","","","","","html-keyboard-response","16","72682","0.0-16.0","4CB0F81752844E8F8795EB414F7E187A","7ce2d586-c112-4def-91f4-b99094fd5eca","5479079d-2186-49b2-89e2-e3afab6abcc2","","null","<div style=""display: flex; justify-content: center; align-items: center;"">
                <img src=""images/other/blank.jpg"" style=""width: 300px; height: 300px;"" />
              </div>","null",""
"","","","","","html-keyboard-response","17","75685","0.0-17.0","4CB0F81752844E8F8795EB414F7E187A","7ce2d586-c112-4def-91f4-b99094fd5eca","5479079d-2186-49b2-89e2-e3afab6abcc2","","null","<div style=""display: flex; justify-content: center; align-items: center;"">
                <img src=""images/causal/causal_series_5/causal_series_5_a.jpg"" style=""width: 300px; height: 300px;"" />
              </div>","null",""
"","","","","","html-keyboard-response","18","78695","0.0-18.0","4CB0F81752844E8F8795EB414F7E187A","7ce2d586-c112-4def-91f4-b99094fd5eca","5479079d-2186-49b2-89e2-e3afab6abcc2","","null","<div style=""display: flex; justify-content: center; align-items: center;"">
                <img src=""images/causal/causal_series_5/causal_series_5_b.jpg"" style=""width: 300px; height: 300px;"" />
              </div>","null",""
"","","","","","html-keyboard-response","19","81711","0.0-19.0","4CB0F81752844E8F8795EB414F7E187A","7ce2d586-c112-4def-91f4-b99094fd5eca","5479079d-2186-49b2-89e2-e3afab6abcc2","","null","<div style=""display: flex; justify-content: center; align-items: center;"">
                <img src=""images/causal/causal_series_5/causal_series_5_c.jpg"" style=""width: 300px; height: 300px;"" />
              </div>","null",""
"","","","","","html-button-response","20","83055","0.0-20.0","4CB0F81752844E8F8795EB414F7E187A","7ce2d586-c112-4def-91f4-b99094fd5eca","5479079d-2186-49b2-89e2-e3afab6abcc2","","1343","
    <div style=""display: flex; justify-content: center; align-items: center;"">
      <img src=""images/blue_deck_1.png"" style=""width: 300px; height: 300px; margin-right: 10px;"" />
      <img src=""images/red_deck_2.png"" style=""width: 300px; height: 300px;"" />
    </div>","1","1"
"","","","","","html-keyboard-response","21","86070","0.0-21.0-1.0-0.0","4CB0F81752844E8F8795EB414F7E187A","7ce2d586-c112-4def-91f4-b99094fd5eca","5479079d-2186-49b2-89e2-e3afab6abcc2","","null","<div style=""display: flex; justify-content: center; align-items: center;"">
                <img src=""images/semantic/semantic_series_5/semantic_series_5_d.jpg"" style=""width: 300px; height: 300px;"" />
              </div>","null",""
"","","","","","html-keyboard-response","22","89074","0.0-22.0","4CB0F81752844E8F8795EB414F7E187A","7ce2d586-c112-4def-91f4-b99094fd5eca","5479079d-2186-49b2-89e2-e3afab6abcc2","","null","<div style=""display: flex; justify-content: center; align-items: center;"">
                <img src=""images/other/blank.jpg"" style=""width: 300px; height: 300px;"" />
              </div>","null",""
"","","","","","html-keyboard-response","23","92082","0.0-23.0","4CB0F81752844E8F8795EB414F7E187A","7ce2d586-c112-4def-91f4-b99094fd5eca","5479079d-2186-49b2-89e2-e3afab6abcc2","","null","<div style=""display: flex; justify-content: center; align-items: center;"">
                <img src=""images/causal/causal_series_12/causal_series_12_a.jpg"" style=""width: 300px; height: 300px;"" />
              </div>","null",""
"","","","","","html-keyboard-response","24","95087","0.0-24.0","4CB0F81752844E8F8795EB414F7E187A","7ce2d586-c112-4def-91f4-b99094fd5eca","5479079d-2186-49b2-89e2-e3afab6abcc2","","null","<div style=""display: flex; justify-content: center; align-items: center;"">
                <img src=""images/causal/causal_series_12/causal_series_12_b.jpg"" style=""width: 300px; height: 300px;"" />
              </div>","null",""
"","","","","","html-keyboard-response","25","98098","0.0-25.0","4CB0F81752844E8F8795EB414F7E187A","7ce2d586-c112-4def-91f4-b99094fd5eca","5479079d-2186-49b2-89e2-e3afab6abcc2","","null","<div style=""display: flex; justify-content: center; align-items: center;"">
                <img src=""images/causal/causal_series_12/causal_series_12_c.jpg"" style=""width: 300px; height: 300px;"" />
              </div>","null",""
"","","","","","html-button-response","26","99617","0.0-26.0","4CB0F81752844E8F8795EB414F7E187A","7ce2d586-c112-4def-91f4-b99094fd5eca","5479079d-2186-49b2-89e2-e3afab6abcc2","","1517","
    <div style=""display: flex; justify-content: center; align-items: center;"">
      <img src=""images/blue_deck_1.png"" style=""width: 300px; height: 300px; margin-right: 10px;"" />
      <img src=""images/red_deck_2.png"" style=""width: 300px; height: 300px;"" />
    </div>","1","1"
"","","","","","html-keyboard-response","27","102624","0.0-27.0-1.0-0.0","4CB0F81752844E8F8795EB414F7E187A","7ce2d586-c112-4def-91f4-b99094fd5eca","5479079d-2186-49b2-89e2-e3afab6abcc2","","null","<div style=""display: flex; justify-content: center; align-items: center;"">
                <img src=""images/semantic/semantic_series_12/semantic_series_12_d.jpg"" style=""width: 300px; height: 300px;"" />
              </div>","null",""
"","","","","","html-keyboard-response","28","105635","0.0-28.0","4CB0F81752844E8F8795EB414F7E187A","7ce2d586-c112-4def-91f4-b99094fd5eca","5479079d-2186-49b2-89e2-e3afab6abcc2","","null","<div style=""display: flex; justify-content: center; align-items: center;"">
                <img src=""images/other/blank.jpg"" style=""width: 300px; height: 300px;"" />
              </div>","null",""
"","","","","","html-keyboard-response","29","108641","0.0-29.0","4CB0F81752844E8F8795EB414F7E187A","7ce2d586-c112-4def-91f4-b99094fd5eca","5479079d-2186-49b2-89e2-e3afab6abcc2","","null","<div style=""display: flex; justify-content: center; align-items: center;"">
                <img src=""images/causal/causal_series_6/causal_series_6_a.jpg"" style=""width: 300px; height: 300px;"" />
              </div>","null",""
"","","","","","html-keyboard-response","30","111643","0.0-30.0","4CB0F81752844E8F8795EB414F7E187A","7ce2d586-c112-4def-91f4-b99094fd5eca","5479079d-2186-49b2-89e2-e3afab6abcc2","","null","<div style=""display: flex; justify-content: center; align-items: center;"">
                <img src=""images/causal/causal_series_6/causal_series_6_b.jpg"" style=""width: 300px; height: 300px;"" />
              </div>","null",""
"","","","","","html-keyboard-response","31","114645","0.0-31.0","4CB0F81752844E8F8795EB414F7E187A","7ce2d586-c112-4def-91f4-b99094fd5eca","5479079d-2186-49b2-89e2-e3afab6abcc2","","null","<div style=""display: flex; justify-content: center; align-items: center;"">
                <img src=""images/causal/causal_series_6/causal_series_6_c.jpg"" style=""width: 300px; height: 300px;"" />
              </div>","null",""
"","","","","","html-button-response","32","119664","0.0-32.0","4CB0F81752844E8F8795EB414F7E187A","7ce2d586-c112-4def-91f4-b99094fd5eca","5479079d-2186-49b2-89e2-e3afab6abcc2","","5018","
    <div style=""display: flex; justify-content: center; align-items: center;"">
      <img src=""images/blue_deck_1.png"" style=""width: 300px; height: 300px; margin-right: 10px;"" />
      <img src=""images/red_deck_2.png"" style=""width: 300px; height: 300px;"" />
    </div>","0","0"
"","","","","","html-keyboard-response","33","122678","0.0-33.0-0.0-0.0","4CB0F81752844E8F8795EB414F7E187A","7ce2d586-c112-4def-91f4-b99094fd5eca","5479079d-2186-49b2-89e2-e3afab6abcc2","","null","<div style=""display: flex; justify-content: center; align-items: center;"">
                <img src=""images/causal/causal_series_6/causal_series_6_d.jpg"" style=""width: 300px; height: 300px;"" />
              </div>","null",""
"","","","","","html-keyboard-response","34","125693","0.0-34.0","4CB0F81752844E8F8795EB414F7E187A","7ce2d586-c112-4def-91f4-b99094fd5eca","5479079d-2186-49b2-89e2-e3afab6abcc2","","null","<div style=""display: flex; justify-content: center; align-items: center;"">
                <img src=""images/other/blank.jpg"" style=""width: 300px; height: 300px;"" />
              </div>","null",""
"","","","","","html-keyboard-response","35","128708","0.0-35.0","4CB0F81752844E8F8795EB414F7E187A","7ce2d586-c112-4def-91f4-b99094fd5eca","5479079d-2186-49b2-89e2-e3afab6abcc2","","null","<div style=""display: flex; justify-content: center; align-items: center;"">
                <img src=""images/causal/causal_series_18/causal_series_18_a.jpg"" style=""width: 300px; height: 300px;"" />
              </div>","null",""
"","","","","","html-keyboard-response","36","131716","0.0-36.0","4CB0F81752844E8F8795EB414F7E187A","7ce2d586-c112-4def-91f4-b99094fd5eca","5479079d-2186-49b2-89e2-e3afab6abcc2","","null","<div style=""display: flex; justify-content: center; align-items: center;"">
                <img src=""images/causal/causal_series_18/causal_series_18_b.jpg"" style=""width: 300px; height: 300px;"" />
              </div>","null",""
"","","","","","html-keyboard-response","37","134732","0.0-37.0","4CB0F81752844E8F8795EB414F7E187A","7ce2d586-c112-4def-91f4-b99094fd5eca","5479079d-2186-49b2-89e2-e3afab6abcc2","","null","<div style=""display: flex; justify-content: center; align-items: center;"">
                <img src=""images/causal/causal_series_18/causal_series_18_c.jpg"" style=""width: 300px; height: 300px;"" />
              </div>","null",""
"","","","","","html-button-response","38","135950","0.0-38.0","4CB0F81752844E8F8795EB414F7E187A","7ce2d586-c112-4def-91f4-b99094fd5eca","5479079d-2186-49b2-89e2-e3afab6abcc2","","1218","
    <div style=""display: flex; justify-content: center; align-items: center;"">
      <img src=""images/blue_deck_1.png"" style=""width: 300px; height: 300px; margin-right: 10px;"" />
      <img src=""images/red_deck_2.png"" style=""width: 300px; height: 300px;"" />
    </div>","1","1"
"","","","","","html-keyboard-response","39","138963","0.0-39.0-1.0-0.0","4CB0F81752844E8F8795EB414F7E187A","7ce2d586-c112-4def-91f4-b99094fd5eca","5479079d-2186-49b2-89e2-e3afab6abcc2","","null","<div style=""display: flex; justify-content: center; align-items: center;"">
                <img src=""images/semantic/semantic_series_18/semantic_series_18_d.jpg"" style=""width: 300px; height: 300px;"" />
              </div>","null",""
"","","","","","html-keyboard-response","40","141979","0.0-40.0","4CB0F81752844E8F8795EB414F7E187A","7ce2d586-c112-4def-91f4-b99094fd5eca","5479079d-2186-49b2-89e2-e3afab6abcc2","","null","<div style=""display: flex; justify-content: center; align-items: center;"">
                <img src=""images/other/blank.jpg"" style=""width: 300px; height: 300px;"" />
              </div>","null",""
"","","","","","html-keyboard-response","41","144987","0.0-41.0","4CB0F81752844E8F8795EB414F7E187A","7ce2d586-c112-4def-91f4-b99094fd5eca","5479079d-2186-49b2-89e2-e3afab6abcc2","","null","<div style=""display: flex; justify-content: center; align-items: center;"">
                <img src=""images/causal/causal_series_15/causal_series_15_a.jpg"" style=""width: 300px; height: 300px;"" />
              </div>","null",""
"","","","","","html-keyboard-response","42","147993","0.0-42.0","4CB0F81752844E8F8795EB414F7E187A","7ce2d586-c112-4def-91f4-b99094fd5eca","5479079d-2186-49b2-89e2-e3afab6abcc2","","null","<div style=""display: flex; justify-content: center; align-items: center;"">
                <img src=""images/causal/causal_series_15/causal_series_15_b.jpg"" style=""width: 300px; height: 300px;"" />
              </div>","null",""
"","","","","","html-keyboard-response","43","151025","0.0-43.0","4CB0F81752844E8F8795EB414F7E187A","7ce2d586-c112-4def-91f4-b99094fd5eca","5479079d-2186-49b2-89e2-e3afab6abcc2","","null","<div style=""display: flex; justify-content: center; align-items: center;"">
                <img src=""images/causal/causal_series_15/causal_series_15_c.jpg"" style=""width: 300px; height: 300px;"" />
              </div>","null",""
"","","","","","html-button-response","44","152625","0.0-44.0","4CB0F81752844E8F8795EB414F7E187A","7ce2d586-c112-4def-91f4-b99094fd5eca","5479079d-2186-49b2-89e2-e3afab6abcc2","","1598","
    <div style=""display: flex; justify-content: center; align-items: center;"">
      <img src=""images/blue_deck_1.png"" style=""width: 300px; height: 300px; margin-right: 10px;"" />
      <img src=""images/red_deck_2.png"" style=""width: 300px; height: 300px;"" />
    </div>","0","0"
"","","","","","html-keyboard-response","45","155634","0.0-45.0-0.0-0.0","4CB0F81752844E8F8795EB414F7E187A","7ce2d586-c112-4def-91f4-b99094fd5eca","5479079d-2186-49b2-89e2-e3afab6abcc2","","null","<div style=""display: flex; justify-content: center; align-items: center;"">
                <img src=""images/causal/causal_series_15/causal_series_15_d.jpg"" style=""width: 300px; height: 300px;"" />
              </div>","null",""
"","","","","","html-keyboard-response","46","158637","0.0-46.0","4CB0F81752844E8F8795EB414F7E187A","7ce2d586-c112-4def-91f4-b99094fd5eca","5479079d-2186-49b2-89e2-e3afab6abcc2","","null","<div style=""display: flex; justify-content: center; align-items: center;"">
                <img src=""images/other/blank.jpg"" style=""width: 300px; height: 300px;"" />
              </div>","null",""
"","","","","","html-keyboard-response","47","161639","0.0-47.0","4CB0F81752844E8F8795EB414F7E187A","7ce2d586-c112-4def-91f4-b99094fd5eca","5479079d-2186-49b2-89e2-e3afab6abcc2","","null","<div style=""display: flex; justify-content: center; align-items: center;"">
                <img src=""images/causal/causal_series_7/causal_series_7_a.jpg"" style=""width: 300px; height: 300px;"" />
              </div>","null",""
"","","","","","html-keyboard-response","48","164655","0.0-48.0","4CB0F81752844E8F8795EB414F7E187A","7ce2d586-c112-4def-91f4-b99094fd5eca","5479079d-2186-49b2-89e2-e3afab6abcc2","","null","<div style=""display: flex; justify-content: center; align-items: center;"">
                <img src=""images/causal/causal_series_7/causal_series_7_b.jpg"" style=""width: 300px; height: 300px;"" />
              </div>","null",""
"","","","","","html-keyboard-response","49","167671","0.0-49.0","4CB0F81752844E8F8795EB414F7E187A","7ce2d586-c112-4def-91f4-b99094fd5eca","5479079d-2186-49b2-89e2-e3afab6abcc2","","null","<div style=""display: flex; justify-content: center; align-items: center;"">
                <img src=""images/causal/causal_series_7/causal_series_7_c.jpg"" style=""width: 300px; height: 300px;"" />
              </div>","null",""
"","","","","","html-button-response","50","168755","0.0-50.0","4CB0F81752844E8F8795EB414F7E187A","7ce2d586-c112-4def-91f4-b99094fd5eca","5479079d-2186-49b2-89e2-e3afab6abcc2","","1083","
    <div style=""display: flex; justify-content: center; align-items: center;"">
      <img src=""images/blue_deck_1.png"" style=""width: 300px; height: 300px; margin-right: 10px;"" />
      <img src=""images/red_deck_2.png"" style=""width: 300px; height: 300px;"" />
    </div>","0","0"
"","","","","","html-keyboard-response","51","171768","0.0-51.0-0.0-0.0","4CB0F81752844E8F8795EB414F7E187A","7ce2d586-c112-4def-91f4-b99094fd5eca","5479079d-2186-49b2-89e2-e3afab6abcc2","","null","<div style=""display: flex; justify-content: center; align-items: center;"">
                <img src=""images/causal/causal_series_7/causal_series_7_d.jpg"" style=""width: 300px; height: 300px;"" />
              </div>","null",""
"","","","","","html-keyboard-response","52","174771","0.0-52.0","4CB0F81752844E8F8795EB414F7E187A","7ce2d586-c112-4def-91f4-b99094fd5eca","5479079d-2186-49b2-89e2-e3afab6abcc2","","null","<div style=""display: flex; justify-content: center; align-items: center;"">
                <img src=""images/other/blank.jpg"" style=""width: 300px; height: 300px;"" />
              </div>","null",""
"","","","","","html-keyboard-response","53","177776","0.0-53.0","4CB0F81752844E8F8795EB414F7E187A","7ce2d586-c112-4def-91f4-b99094fd5eca","5479079d-2186-49b2-89e2-e3afab6abcc2","","null","<div style=""display: flex; justify-content: center; align-items: center;"">
                <img src=""images/causal/causal_series_17/causal_series_17_a.jpg"" style=""width: 300px; height: 300px;"" />
              </div>","null",""
"","","","","","html-keyboard-response","54","180783","0.0-54.0","4CB0F81752844E8F8795EB414F7E187A","7ce2d586-c112-4def-91f4-b99094fd5eca","5479079d-2186-49b2-89e2-e3afab6abcc2","","null","<div style=""display: flex; justify-content: center; align-items: center;"">
                <img src=""images/causal/causal_series_17/causal_series_17_b.jpg"" style=""width: 300px; height: 300px;"" />
              </div>","null",""
"","","","","","html-keyboard-response","55","183796","0.0-55.0","4CB0F81752844E8F8795EB414F7E187A","7ce2d586-c112-4def-91f4-b99094fd5eca","5479079d-2186-49b2-89e2-e3afab6abcc2","","null","<div style=""display: flex; justify-content: center; align-items: center;"">
                <img src=""images/causal/causal_series_17/causal_series_17_c.jpg"" style=""width: 300px; height: 300px;"" />
              </div>","null",""
"","","","","","html-button-response","56","185469","0.0-56.0","4CB0F81752844E8F8795EB414F7E187A","7ce2d586-c112-4def-91f4-b99094fd5eca","5479079d-2186-49b2-89e2-e3afab6abcc2","","1673","
    <div style=""display: flex; justify-content: center; align-items: center;"">
      <img src=""images/blue_deck_1.png"" style=""width: 300px; height: 300px; margin-right: 10px;"" />
      <img src=""images/red_deck_2.png"" style=""width: 300px; height: 300px;"" />
    </div>","1","1"
"","","","","","html-keyboard-response","57","188473","0.0-57.0-1.0-0.0","4CB0F81752844E8F8795EB414F7E187A","7ce2d586-c112-4def-91f4-b99094fd5eca","5479079d-2186-49b2-89e2-e3afab6abcc2","","null","<div style=""display: flex; justify-content: center; align-items: center;"">
                <img src=""images/semantic/semantic_series_17/semantic_series_17_d.jpg"" style=""width: 300px; height: 300px;"" />
              </div>","null",""
"","","","","","html-keyboard-response","58","191475","0.0-58.0","4CB0F81752844E8F8795EB414F7E187A","7ce2d586-c112-4def-91f4-b99094fd5eca","5479079d-2186-49b2-89e2-e3afab6abcc2","","null","<div style=""display: flex; justify-content: center; align-items: center;"">
                <img src=""images/other/blank.jpg"" style=""width: 300px; height: 300px;"" />
              </div>","null",""
"","","","","","html-keyboard-response","59","194487","0.0-59.0","4CB0F81752844E8F8795EB414F7E187A","7ce2d586-c112-4def-91f4-b99094fd5eca","5479079d-2186-49b2-89e2-e3afab6abcc2","","null","<div style=""display: flex; justify-content: center; align-items: center;"">
                <img src=""images/causal/causal_series_9/causal_series_9_a.jpg"" style=""width: 300px; height: 300px;"" />
              </div>","null",""
"","","","","","html-keyboard-response","60","197490","0.0-60.0","4CB0F81752844E8F8795EB414F7E187A","7ce2d586-c112-4def-91f4-b99094fd5eca","5479079d-2186-49b2-89e2-e3afab6abcc2","","null","<div style=""display: flex; justify-content: center; align-items: center;"">
                <img src=""images/causal/causal_series_9/causal_series_9_b.jpg"" style=""width: 300px; height: 300px;"" />
              </div>","null",""
"","","","","","html-keyboard-response","61","200503","0.0-61.0","4CB0F81752844E8F8795EB414F7E187A","7ce2d586-c112-4def-91f4-b99094fd5eca","5479079d-2186-49b2-89e2-e3afab6abcc2","","null","<div style=""display: flex; justify-content: center; align-items: center;"">
                <img src=""images/causal/causal_series_9/causal_series_9_c.jpg"" style=""width: 300px; height: 300px;"" />
              </div>","null",""
"","","","","","html-button-response","62","201721","0.0-62.0","4CB0F81752844E8F8795EB414F7E187A","7ce2d586-c112-4def-91f4-b99094fd5eca","5479079d-2186-49b2-89e2-e3afab6abcc2","","1217","
    <div style=""display: flex; justify-content: center; align-items: center;"">
      <img src=""images/blue_deck_1.png"" style=""width: 300px; height: 300px; margin-right: 10px;"" />
      <img src=""images/red_deck_2.png"" style=""width: 300px; height: 300px;"" />
    </div>","1","1"
"","","","","","html-keyboard-response","63","204739","0.0-63.0-1.0-0.0","4CB0F81752844E8F8795EB414F7E187A","7ce2d586-c112-4def-91f4-b99094fd5eca","5479079d-2186-49b2-89e2-e3afab6abcc2","","null","<div style=""display: flex; justify-content: center; align-items: center;"">
                <img src=""images/semantic/semantic_series_9/semantic_series_9_d.jpg"" style=""width: 300px; height: 300px;"" />
              </div>","null",""
"","","","","","html-keyboard-response","64","207747","0.0-64.0","4CB0F81752844E8F8795EB414F7E187A","7ce2d586-c112-4def-91f4-b99094fd5eca","5479079d-2186-49b2-89e2-e3afab6abcc2","","null","<div style=""display: flex; justify-content: center; align-items: center;"">
                <img src=""images/other/blank.jpg"" style=""width: 300px; height: 300px;"" />
              </div>","null",""
"","","","","","html-keyboard-response","65","210753","0.0-65.0","4CB0F81752844E8F8795EB414F7E187A","7ce2d586-c112-4def-91f4-b99094fd5eca","5479079d-2186-49b2-89e2-e3afab6abcc2","","null","<div style=""display: flex; justify-content: center; align-items: center;"">
                <img src=""images/causal/causal_series_1/causal_series_1_a.jpg"" style=""width: 300px; height: 300px;"" />
              </div>","null",""
"","","","","","html-keyboard-response","66","213757","0.0-66.0","4CB0F81752844E8F8795EB414F7E187A","7ce2d586-c112-4def-91f4-b99094fd5eca","5479079d-2186-49b2-89e2-e3afab6abcc2","","null","<div style=""display: flex; justify-content: center; align-items: center;"">
                <img src=""images/causal/causal_series_1/causal_series_1_b.jpg"" style=""width: 300px; height: 300px;"" />
              </div>","null",""
"","","","","","html-keyboard-response","67","216765","0.0-67.0","4CB0F81752844E8F8795EB414F7E187A","7ce2d586-c112-4def-91f4-b99094fd5eca","5479079d-2186-49b2-89e2-e3afab6abcc2","","null","<div style=""display: flex; justify-content: center; align-items: center;"">
                <img src=""images/causal/causal_series_1/causal_series_1_c.jpg"" style=""width: 300px; height: 300px;"" />
              </div>","null",""
"","","","","","html-button-response","68","217846","0.0-68.0","4CB0F81752844E8F8795EB414F7E187A","7ce2d586-c112-4def-91f4-b99094fd5eca","5479079d-2186-49b2-89e2-e3afab6abcc2","","1078","
    <div style=""display: flex; justify-content: center; align-items: center;"">
      <img src=""images/blue_deck_1.png"" style=""width: 300px; height: 300px; margin-right: 10px;"" />
      <img src=""images/red_deck_2.png"" style=""width: 300px; height: 300px;"" />
    </div>","1","1"
"","","","","","html-keyboard-response","69","220860","0.0-69.0-1.0-0.0","4CB0F81752844E8F8795EB414F7E187A","7ce2d586-c112-4def-91f4-b99094fd5eca","5479079d-2186-49b2-89e2-e3afab6abcc2","","null","<div style=""display: flex; justify-content: center; align-items: center;"">
                <img src=""images/semantic/semantic_series_1/semantic_series_1_d.jpg"" style=""width: 300px; height: 300px;"" />
              </div>","null",""
"","","","","","html-keyboard-response","70","223875","0.0-70.0","4CB0F81752844E8F8795EB414F7E187A","7ce2d586-c112-4def-91f4-b99094fd5eca","5479079d-2186-49b2-89e2-e3afab6abcc2","","null","<div style=""display: flex; justify-content: center; align-items: center;"">
                <img src=""images/other/blank.jpg"" style=""width: 300px; height: 300px;"" />
              </div>","null",""
"","","","","","html-keyboard-response","71","226878","0.0-71.0","4CB0F81752844E8F8795EB414F7E187A","7ce2d586-c112-4def-91f4-b99094fd5eca","5479079d-2186-49b2-89e2-e3afab6abcc2","","null","<div style=""display: flex; justify-content: center; align-items: center;"">
                <img src=""images/causal/causal_series_8/causal_series_8_a.jpg"" style=""width: 300px; height: 300px;"" />
              </div>","null",""
"","","","","","html-keyboard-response","72","229880","0.0-72.0","4CB0F81752844E8F8795EB414F7E187A","7ce2d586-c112-4def-91f4-b99094fd5eca","5479079d-2186-49b2-89e2-e3afab6abcc2","","null","<div style=""display: flex; justify-content: center; align-items: center;"">
                <img src=""images/causal/causal_series_8/causal_series_8_b.jpg"" style=""width: 300px; height: 300px;"" />
              </div>","null",""
"","","","","","html-keyboard-response","73","232882","0.0-73.0","4CB0F81752844E8F8795EB414F7E187A","7ce2d586-c112-4def-91f4-b99094fd5eca","5479079d-2186-49b2-89e2-e3afab6abcc2","","null","<div style=""display: flex; justify-content: center; align-items: center;"">
                <img src=""images/causal/causal_series_8/causal_series_8_c.jpg"" style=""width: 300px; height: 300px;"" />
              </div>","null",""
"","","","","","html-button-response","74","234334","0.0-74.0","4CB0F81752844E8F8795EB414F7E187A","7ce2d586-c112-4def-91f4-b99094fd5eca","5479079d-2186-49b2-89e2-e3afab6abcc2","","1449","
    <div style=""display: flex; justify-content: center; align-items: center;"">
      <img src=""images/blue_deck_1.png"" style=""width: 300px; height: 300px; margin-right: 10px;"" />
      <img src=""images/red_deck_2.png"" style=""width: 300px; height: 300px;"" />
    </div>","1","1"
"","","","","","html-keyboard-response","75","237353","0.0-75.0-1.0-0.0","4CB0F81752844E8F8795EB414F7E187A","7ce2d586-c112-4def-91f4-b99094fd5eca","5479079d-2186-49b2-89e2-e3afab6abcc2","","null","<div style=""display: flex; justify-content: center; align-items: center;"">
                <img src=""images/semantic/semantic_series_8/semantic_series_8_d.jpg"" style=""width: 300px; height: 300px;"" />
              </div>","null",""
"","","","","","html-keyboard-response","76","240362","0.0-76.0","4CB0F81752844E8F8795EB414F7E187A","7ce2d586-c112-4def-91f4-b99094fd5eca","5479079d-2186-49b2-89e2-e3afab6abcc2","","null","<div style=""display: flex; justify-content: center; align-items: center;"">
                <img src=""images/other/blank.jpg"" style=""width: 300px; height: 300px;"" />
              </div>","null",""
"","","","","","html-keyboard-response","77","243366","0.0-77.0","4CB0F81752844E8F8795EB414F7E187A","7ce2d586-c112-4def-91f4-b99094fd5eca","5479079d-2186-49b2-89e2-e3afab6abcc2","","null","<div style=""display: flex; justify-content: center; align-items: center;"">
                <img src=""images/causal/causal_series_11/causal_series_11_a.jpg"" style=""width: 300px; height: 300px;"" />
              </div>","null",""
"","","","","","html-keyboard-response","78","246375","0.0-78.0","4CB0F81752844E8F8795EB414F7E187A","7ce2d586-c112-4def-91f4-b99094fd5eca","5479079d-2186-49b2-89e2-e3afab6abcc2","","null","<div style=""display: flex; justify-content: center; align-items: center;"">
                <img src=""images/causal/causal_series_11/causal_series_11_b.jpg"" style=""width: 300px; height: 300px;"" />
              </div>","null",""
"","","","","","html-keyboard-response","79","249501","0.0-79.0","4CB0F81752844E8F8795EB414F7E187A","7ce2d586-c112-4def-91f4-b99094fd5eca","5479079d-2186-49b2-89e2-e3afab6abcc2","","null","<div style=""display: flex; justify-content: center; align-items: center;"">
                <img src=""images/causal/causal_series_11/causal_series_11_c.jpg"" style=""width: 300px; height: 300px;"" />
              </div>","null",""
"","","","","","html-button-response","80","250976","0.0-80.0","4CB0F81752844E8F8795EB414F7E187A","7ce2d586-c112-4def-91f4-b99094fd5eca","5479079d-2186-49b2-89e2-e3afab6abcc2","","1473","
    <div style=""display: flex; justify-content: center; align-items: center;"">
      <img src=""images/blue_deck_1.png"" style=""width: 300px; height: 300px; margin-right: 10px;"" />
      <img src=""images/red_deck_2.png"" style=""width: 300px; height: 300px;"" />
    </div>","1","1"
"","","","","","html-keyboard-response","81","253979","0.0-81.0-1.0-0.0","4CB0F81752844E8F8795EB414F7E187A","7ce2d586-c112-4def-91f4-b99094fd5eca","5479079d-2186-49b2-89e2-e3afab6abcc2","","null","<div style=""display: flex; justify-content: center; align-items: center;"">
                <img src=""images/semantic/semantic_series_11/semantic_series_11_d.jpg"" style=""width: 300px; height: 300px;"" />
              </div>","null",""
"","","","","","html-keyboard-response","82","256983","0.0-82.0","4CB0F81752844E8F8795EB414F7E187A","7ce2d586-c112-4def-91f4-b99094fd5eca","5479079d-2186-49b2-89e2-e3afab6abcc2","","null","<div style=""display: flex; justify-content: center; align-items: center;"">
                <img src=""images/other/blank.jpg"" style=""width: 300px; height: 300px;"" />
              </div>","null",""
"","","","","","html-keyboard-response","83","259986","0.0-83.0","4CB0F81752844E8F8795EB414F7E187A","7ce2d586-c112-4def-91f4-b99094fd5eca","5479079d-2186-49b2-89e2-e3afab6abcc2","","null","<div style=""display: flex; justify-content: center; align-items: center;"">
                <img src=""images/causal/causal_series_13/causal_series_13_a.jpg"" style=""width: 300px; height: 300px;"" />
              </div>","null",""
"","","","","","html-keyboard-response","84","262999","0.0-84.0","4CB0F81752844E8F8795EB414F7E187A","7ce2d586-c112-4def-91f4-b99094fd5eca","5479079d-2186-49b2-89e2-e3afab6abcc2","","null","<div style=""display: flex; justify-content: center; align-items: center;"">
                <img src=""images/causal/causal_series_13/causal_series_13_b.jpg"" style=""width: 300px; height: 300px;"" />
              </div>","null",""
"","","","","","html-keyboard-response","85","266014","0.0-85.0","4CB0F81752844E8F8795EB414F7E187A","7ce2d586-c112-4def-91f4-b99094fd5eca","5479079d-2186-49b2-89e2-e3afab6abcc2","","null","<div style=""display: flex; justify-content: center; align-items: center;"">
                <img src=""images/causal/causal_series_13/causal_series_13_c.jpg"" style=""width: 300px; height: 300px;"" />
              </div>","null",""
"","","","","","html-button-response","86","267619","0.0-86.0","4CB0F81752844E8F8795EB414F7E187A","7ce2d586-c112-4def-91f4-b99094fd5eca","5479079d-2186-49b2-89e2-e3afab6abcc2","","1601","
    <div style=""display: flex; justify-content: center; align-items: center;"">
      <img src=""images/blue_deck_1.png"" style=""width: 300px; height: 300px; margin-right: 10px;"" />
      <img src=""images/red_deck_2.png"" style=""width: 300px; height: 300px;"" />
    </div>","1","1"
"","","","","","html-keyboard-response","87","270637","0.0-87.0-1.0-0.0","4CB0F81752844E8F8795EB414F7E187A","7ce2d586-c112-4def-91f4-b99094fd5eca","5479079d-2186-49b2-89e2-e3afab6abcc2","","null","<div style=""display: flex; justify-content: center; align-items: center;"">
                <img src=""images/semantic/semantic_series_13/semantic_series_13_d.jpg"" style=""width: 300px; height: 300px;"" />
              </div>","null",""
"","","","","","html-keyboard-response","88","273653","0.0-88.0","4CB0F81752844E8F8795EB414F7E187A","7ce2d586-c112-4def-91f4-b99094fd5eca","5479079d-2186-49b2-89e2-e3afab6abcc2","","null","<div style=""display: flex; justify-content: center; align-items: center;"">
                <img src=""images/other/blank.jpg"" style=""width: 300px; height: 300px;"" />
              </div>","null",""
"","","","","","html-keyboard-response","89","276658","0.0-89.0","4CB0F81752844E8F8795EB414F7E187A","7ce2d586-c112-4def-91f4-b99094fd5eca","5479079d-2186-49b2-89e2-e3afab6abcc2","","null","<div style=""display: flex; justify-content: center; align-items: center;"">
                <img src=""images/causal/causal_series_14/causal_series_14_a.jpg"" style=""width: 300px; height: 300px;"" />
              </div>","null",""
"","","","","","html-keyboard-response","90","279697","0.0-90.0","4CB0F81752844E8F8795EB414F7E187A","7ce2d586-c112-4def-91f4-b99094fd5eca","5479079d-2186-49b2-89e2-e3afab6abcc2","","null","<div style=""display: flex; justify-content: center; align-items: center;"">
                <img src=""images/causal/causal_series_14/causal_series_14_b.jpg"" style=""width: 300px; height: 300px;"" />
              </div>","null",""
"","","","","","html-keyboard-response","91","282706","0.0-91.0","4CB0F81752844E8F8795EB414F7E187A","7ce2d586-c112-4def-91f4-b99094fd5eca","5479079d-2186-49b2-89e2-e3afab6abcc2","","null","<div style=""display: flex; justify-content: center; align-items: center;"">
                <img src=""images/causal/causal_series_14/causal_series_14_c.jpg"" style=""width: 300px; height: 300px;"" />
              </div>","null",""
"","","","","","html-button-response","92","284887","0.0-92.0","4CB0F81752844E8F8795EB414F7E187A","7ce2d586-c112-4def-91f4-b99094fd5eca","5479079d-2186-49b2-89e2-e3afab6abcc2","","2179","
    <div style=""display: flex; justify-content: center; align-items: center;"">
      <img src=""images/blue_deck_1.png"" style=""width: 300px; height: 300px; margin-right: 10px;"" />
      <img src=""images/red_deck_2.png"" style=""width: 300px; height: 300px;"" />
    </div>","0","0"
"","","","","","html-keyboard-response","93","287890","0.0-93.0-0.0-0.0","4CB0F81752844E8F8795EB414F7E187A","7ce2d586-c112-4def-91f4-b99094fd5eca","5479079d-2186-49b2-89e2-e3afab6abcc2","","null","<div style=""display: flex; justify-content: center; align-items: center;"">
                <img src=""images/causal/causal_series_14/causal_series_14_d.jpg"" style=""width: 300px; height: 300px;"" />
              </div>","null",""
"","","","","","html-keyboard-response","94","290893","0.0-94.0","4CB0F81752844E8F8795EB414F7E187A","7ce2d586-c112-4def-91f4-b99094fd5eca","5479079d-2186-49b2-89e2-e3afab6abcc2","","null","<div style=""display: flex; justify-content: center; align-items: center;"">
                <img src=""images/other/blank.jpg"" style=""width: 300px; height: 300px;"" />
              </div>","null",""
"","","","","","html-keyboard-response","95","293898","0.0-95.0","4CB0F81752844E8F8795EB414F7E187A","7ce2d586-c112-4def-91f4-b99094fd5eca","5479079d-2186-49b2-89e2-e3afab6abcc2","","null","<div style=""display: flex; justify-content: center; align-items: center;"">
                <img src=""images/causal/causal_series_16/causal_series_16_a.jpg"" style=""width: 300px; height: 300px;"" />
              </div>","null",""
"","","","","","html-keyboard-response","96","296914","0.0-96.0","4CB0F81752844E8F8795EB414F7E187A","7ce2d586-c112-4def-91f4-b99094fd5eca","5479079d-2186-49b2-89e2-e3afab6abcc2","","null","<div style=""display: flex; justify-content: center; align-items: center;"">
                <img src=""images/causal/causal_series_16/causal_series_16_b.jpg"" style=""width: 300px; height: 300px;"" />
              </div>","null",""
"","","","","","html-keyboard-response","97","300003","0.0-97.0","4CB0F81752844E8F8795EB414F7E187A","7ce2d586-c112-4def-91f4-b99094fd5eca","5479079d-2186-49b2-89e2-e3afab6abcc2","","null","<div style=""display: flex; justify-content: center; align-items: center;"">
                <img src=""images/causal/causal_series_16/causal_series_16_c.jpg"" style=""width: 300px; height: 300px;"" />
              </div>","null",""
"","","","","","html-button-response","98","301545","0.0-98.0","4CB0F81752844E8F8795EB414F7E187A","7ce2d586-c112-4def-91f4-b99094fd5eca","5479079d-2186-49b2-89e2-e3afab6abcc2","","1539","
    <div style=""display: flex; justify-content: center; align-items: center;"">
      <img src=""images/blue_deck_1.png"" style=""width: 300px; height: 300px; margin-right: 10px;"" />
      <img src=""images/red_deck_2.png"" style=""width: 300px; height: 300px;"" />
    </div>","0","0"
"","","","","","html-keyboard-response","99","304560","0.0-99.0-0.0-0.0","4CB0F81752844E8F8795EB414F7E187A","7ce2d586-c112-4def-91f4-b99094fd5eca","5479079d-2186-49b2-89e2-e3afab6abcc2","","null","<div style=""display: flex; justify-content: center; align-items: center;"">
                <img src=""images/causal/causal_series_16/causal_series_16_d.jpg"" style=""width: 300px; height: 300px;"" />
              </div>","null",""
"","","","","","html-keyboard-response","100","307562","0.0-100.0","4CB0F81752844E8F8795EB414F7E187A","7ce2d586-c112-4def-91f4-b99094fd5eca","5479079d-2186-49b2-89e2-e3afab6abcc2","","null","<div style=""display: flex; justify-content: center; align-items: center;"">
                <img src=""images/other/blank.jpg"" style=""width: 300px; height: 300px;"" />
              </div>","null",""
"","","","","","html-keyboard-response","101","310568","0.0-101.0","4CB0F81752844E8F8795EB414F7E187A","7ce2d586-c112-4def-91f4-b99094fd5eca","5479079d-2186-49b2-89e2-e3afab6abcc2","","null","<div style=""display: flex; justify-content: center; align-items: center;"">
                <img src=""images/causal/causal_series_4/causal_series_4_a.jpg"" style=""width: 300px; height: 300px;"" />
              </div>","null",""
"","","","","","html-keyboard-response","102","313574","0.0-102.0","4CB0F81752844E8F8795EB414F7E187A","7ce2d586-c112-4def-91f4-b99094fd5eca","5479079d-2186-49b2-89e2-e3afab6abcc2","","null","<div style=""display: flex; justify-content: center; align-items: center;"">
                <img src=""images/causal/causal_series_4/causal_series_4_b.jpg"" style=""width: 300px; height: 300px;"" />
              </div>","null",""
"","","","","","html-keyboard-response","103","316579","0.0-103.0","4CB0F81752844E8F8795EB414F7E187A","7ce2d586-c112-4def-91f4-b99094fd5eca","5479079d-2186-49b2-89e2-e3afab6abcc2","","null","<div style=""display: flex; justify-content: center; align-items: center;"">
                <img src=""images/causal/causal_series_4/causal_series_4_c.jpg"" style=""width: 300px; height: 300px;"" />
              </div>","null",""
"","","","","","html-button-response","104","318340","0.0-104.0","4CB0F81752844E8F8795EB414F7E187A","7ce2d586-c112-4def-91f4-b99094fd5eca","5479079d-2186-49b2-89e2-e3afab6abcc2","","1759","
    <div style=""display: flex; justify-content: center; align-items: center;"">
      <img src=""images/blue_deck_1.png"" style=""width: 300px; height: 300px; margin-right: 10px;"" />
      <img src=""images/red_deck_2.png"" style=""width: 300px; height: 300px;"" />
    </div>","1","1"
"","","","","","html-keyboard-response","105","321345","0.0-105.0-1.0-0.0","4CB0F81752844E8F8795EB414F7E187A","7ce2d586-c112-4def-91f4-b99094fd5eca","5479079d-2186-49b2-89e2-e3afab6abcc2","","null","<div style=""display: flex; justify-content: center; align-items: center;"">
                <img src=""images/semantic/semantic_series_4/semantic_series_4_d.jpg"" style=""width: 300px; height: 300px;"" />
              </div>","null",""
"","","","","","html-keyboard-response","106","324349","0.0-106.0","4CB0F81752844E8F8795EB414F7E187A","7ce2d586-c112-4def-91f4-b99094fd5eca","5479079d-2186-49b2-89e2-e3afab6abcc2","","null","<div style=""display: flex; justify-content: center; align-items: center;"">
                <img src=""images/other/blank.jpg"" style=""width: 300px; height: 300px;"" />
              </div>","null",""
"","","","","","html-keyboard-response","107","327397","0.0-107.0","4CB0F81752844E8F8795EB414F7E187A","7ce2d586-c112-4def-91f4-b99094fd5eca","5479079d-2186-49b2-89e2-e3afab6abcc2","","null","<div style=""display: flex; justify-content: center; align-items: center;"">
                <img src=""images/causal/causal_series_10/causal_series_10_a.jpg"" style=""width: 300px; height: 300px;"" />
              </div>","null",""
"","","","","","html-keyboard-response","108","330400","0.0-108.0","4CB0F81752844E8F8795EB414F7E187A","7ce2d586-c112-4def-91f4-b99094fd5eca","5479079d-2186-49b2-89e2-e3afab6abcc2","","null","<div style=""display: flex; justify-content: center; align-items: center;"">
                <img src=""images/causal/causal_series_10/causal_series_10_b.jpg"" style=""width: 300px; height: 300px;"" />
              </div>","null",""
"","","","","","html-keyboard-response","109","333406","0.0-109.0","4CB0F81752844E8F8795EB414F7E187A","7ce2d586-c112-4def-91f4-b99094fd5eca","5479079d-2186-49b2-89e2-e3afab6abcc2","","null","<div style=""display: flex; justify-content: center; align-items: center;"">
                <img src=""images/causal/causal_series_10/causal_series_10_c.jpg"" style=""width: 300px; height: 300px;"" />
              </div>","null",""
"","","","","","html-button-response","110","334567","0.0-110.0","4CB0F81752844E8F8795EB414F7E187A","7ce2d586-c112-4def-91f4-b99094fd5eca","5479079d-2186-49b2-89e2-e3afab6abcc2","","1158","
    <div style=""display: flex; justify-content: center; align-items: center;"">
      <img src=""images/blue_deck_1.png"" style=""width: 300px; height: 300px; margin-right: 10px;"" />
      <img src=""images/red_deck_2.png"" style=""width: 300px; height: 300px;"" />
    </div>","1","1"
"","","","","","html-keyboard-response","111","337571","0.0-111.0-1.0-0.0","4CB0F81752844E8F8795EB414F7E187A","7ce2d586-c112-4def-91f4-b99094fd5eca","5479079d-2186-49b2-89e2-e3afab6abcc2","","null","<div style=""display: flex; justify-content: center; align-items: center;"">
                <img src=""images/semantic/semantic_series_10/semantic_series_10_d.jpg"" style=""width: 300px; height: 300px;"" />
              </div>","null",""
"","","","","","html-keyboard-response","112","340572","0.0-112.0","4CB0F81752844E8F8795EB414F7E187A","7ce2d586-c112-4def-91f4-b99094fd5eca","5479079d-2186-49b2-89e2-e3afab6abcc2","","null","<div style=""display: flex; justify-content: center; align-items: center;"">
                <img src=""images/other/blank.jpg"" style=""width: 300px; height: 300px;"" />
              </div>","null",""
"","","","","","survey-text","113","396017","0.0-113.0","4CB0F81752844E8F8795EB414F7E187A","7ce2d586-c112-4def-91f4-b99094fd5eca","5479079d-2186-49b2-89e2-e3afab6abcc2","","55367","","{""Q0"":""I didn't notice any difference between the cards that were played. One deck is red, one is blue.""}",""
"","","","","","survey-text","114","404929","0.0-114.0","4CB0F81752844E8F8795EB414F7E187A","7ce2d586-c112-4def-91f4-b99094fd5eca","5479079d-2186-49b2-89e2-e3afab6abcc2","","8904","","{""Q0"":""Red""}",""
"","","","","","html-button-response","115","414263","0.0-115.0","4CB0F81752844E8F8795EB414F7E187A","7ce2d586-c112-4def-91f4-b99094fd5eca","5479079d-2186-49b2-89e2-e3afab6abcc2","","9332","Which color deck does the fourth image continue the story from the series?","0",""
"","","","","","html-button-response","116","417119","0.0-116.0","4CB0F81752844E8F8795EB414F7E187A","7ce2d586-c112-4def-91f4-b99094fd5eca","5479079d-2186-49b2-89e2-e3afab6abcc2","","2853","Which color deck does the fourth image not follow the story from the series?","1",""
"","","","","","survey-text","117","422851","0.0-117.0","4CB0F81752844E8F8795EB414F7E187A","7ce2d586-c112-4def-91f4-b99094fd5eca","5479079d-2186-49b2-89e2-e3afab6abcc2","","5702","","{""Q0"":""female"",""Q1"":""23""}",""
"","","","","","instructions","118","427486","0.0-118.0","4CB0F81752844E8F8795EB414F7E187A","7ce2d586-c112-4def-91f4-b99094fd5eca","5479079d-2186-49b2-89e2-e3afab6abcc2","[{""page_index"":0,""viewing_time"":4633}]","4633","","",""
