"success","timeout","failed_images","failed_audio","failed_video","trial_type","trial_index","time_elapsed","internal_node_id","view_history","rt","stimulus","response","choice","trial_name"
"true","false","[]","[]","[]","preload","0","108934","0.0-0.0","","","","","",""
"","","","","","instructions","1","115882","0.0-1.0","[{""page_index"":0,""viewing_time"":6942}]","6942","","","",""
"","","","","","instructions","2","123103","0.0-2.0","[{""page_index"":0,""viewing_time"":7221}]","7221","","","",""
"true","","","","","fullscreen","3","130935","0.0-3.0","","6811","","","",""
"","","","","","instructions","4","135026","0.0-4.0","[{""page_index"":0,""viewing_time"":4090}]","4091","","","",""
"","","","","","html-button-response","5","141972","0.0-5.0","","6944","
    <div style=""display: flex; justify-content: center; align-items: center; flex-direction: column;"">
      <div style=""display: flex; justify-content: center; align-items: center;"">
        <img src=""images/instructions/1.png"" style=""width: 300px; height: 300px; margin-right: 10px;"" />
        <img src=""images/instructions/2.png"" style=""width: 300px; height: 300px;"" />
      </div>
      <p>Does event 1 lead to event 2?</p>
    </div>","0","0",""
"","","","","","html-button-response","6","144711","0.0-6.0","","2737","
    <div style=""display: flex; justify-content: center; align-items: center; flex-direction: column;"">
      <div style=""display: flex; justify-content: center; align-items: center;"">
        <img src=""images/instructions/3.png"" style=""width: 300px; height: 300px; margin-right: 10px;"" />
        <img src=""images/instructions/4.png"" style=""width: 300px; height: 300px;"" />
      </div>
      <p>YES, event 1 does lead to event 2.</p>
    </div>","0","0",""
"","","","","","html-button-response","7","147297","0.0-7.0","","2584","
    <div style=""display: flex; justify-content: center; align-items: center; flex-direction: column;"">
      <div style=""display: flex; justify-content: center; align-items: center;"">
        <img src=""images/instructions/5.png"" style=""width: 300px; height: 300px; margin-right: 10px;"" />
        <img src=""images/instructions/6.png"" style=""width: 300px; height: 300px;"" />
      </div>
      <p>Does event 1 lead to event 2?</p>
    </div>","1","1",""
"","","","","","html-button-response","8","150637","0.0-8.0","","3338","
    <div style=""display: flex; justify-content: center; align-items: center; flex-direction: column;"">
      <div style=""display: flex; justify-content: center; align-items: center;"">
        <img src=""images/instructions/7.png"" style=""width: 300px; height: 300px; margin-right: 10px;"" />
        <img src=""images/instructions/8.png"" style=""width: 300px; height: 300px;"" />
      </div>
      <p>NO, event 1 does not lead to event 2.</p>
    </div>","0","0",""
"","","","","","instructions","9","152176","0.0-9.0","[{""page_index"":0,""viewing_time"":1538}]","1538","","","",""
"","","","","","html-button-response","10","155209","0.0-10.0","","3032","
    <div style=""display: flex; justify-content: center; align-items: center; flex-direction: column;"">
      <div style=""display: flex; justify-content: center; align-items: center;"">
        <img src=""images/semantic/semantic_8/1.png"" style=""width: 300px; height: 300px; margin-right: 10px;"" />
        <img src=""images/semantic/semantic_8/2.png"" style=""width: 300px; height: 300px;"" />
      </div>
      <p>Does event 1 lead to event 2?</p>
    </div>","0","0","semantic_8"
"","","","","","html-button-response","11","156970","0.0-11.0","","1760","
    <div style=""display: flex; justify-content: center; align-items: center; flex-direction: column;"">
      <div style=""display: flex; justify-content: center; align-items: center;"">
        <img src=""images/schematic/schematic_8/1.png"" style=""width: 300px; height: 300px; margin-right: 10px;"" />
        <img src=""images/schematic/schematic_8/2.png"" style=""width: 300px; height: 300px;"" />
      </div>
      <p>Does event 1 lead to event 2?</p>
    </div>","0","0","schematic_8"
"","","","","","html-button-response","12","158569","0.0-12.0","","1597","
    <div style=""display: flex; justify-content: center; align-items: center; flex-direction: column;"">
      <div style=""display: flex; justify-content: center; align-items: center;"">
        <img src=""images/semantic/semantic_7/1.png"" style=""width: 300px; height: 300px; margin-right: 10px;"" />
        <img src=""images/semantic/semantic_7/2.png"" style=""width: 300px; height: 300px;"" />
      </div>
      <p>Does event 1 lead to event 2?</p>
    </div>","0","0","semantic_7"
"","","","","","html-button-response","13","161980","0.0-13.0","","3410","
    <div style=""display: flex; justify-content: center; align-items: center; flex-direction: column;"">
      <div style=""display: flex; justify-content: center; align-items: center;"">
        <img src=""images/causal/causal_1/1.png"" style=""width: 300px; height: 300px; margin-right: 10px;"" />
        <img src=""images/causal/causal_1/2.png"" style=""width: 300px; height: 300px;"" />
      </div>
      <p>Does event 1 lead to event 2?</p>
    </div>","0","0","causal_1"
"","","","","","html-button-response","14","164891","0.0-14.0","","2910","
    <div style=""display: flex; justify-content: center; align-items: center; flex-direction: column;"">
      <div style=""display: flex; justify-content: center; align-items: center;"">
        <img src=""images/semantic/semantic_6/1.png"" style=""width: 300px; height: 300px; margin-right: 10px;"" />
        <img src=""images/semantic/semantic_6/2.png"" style=""width: 300px; height: 300px;"" />
      </div>
      <p>Does event 1 lead to event 2?</p>
    </div>","1","1","semantic_6"
"","","","","","html-button-response","15","172380","0.0-15.0","","7488","
    <div style=""display: flex; justify-content: center; align-items: center; flex-direction: column;"">
      <div style=""display: flex; justify-content: center; align-items: center;"">
        <img src=""images/semantic/semantic_3/1.png"" style=""width: 300px; height: 300px; margin-right: 10px;"" />
        <img src=""images/semantic/semantic_3/2.png"" style=""width: 300px; height: 300px;"" />
      </div>
      <p>Does event 1 lead to event 2?</p>
    </div>","0","0","semantic_3"
"","","","","","html-button-response","16","174487","0.0-16.0","","2105","
    <div style=""display: flex; justify-content: center; align-items: center; flex-direction: column;"">
      <div style=""display: flex; justify-content: center; align-items: center;"">
        <img src=""images/semantic/semantic_1/1.png"" style=""width: 300px; height: 300px; margin-right: 10px;"" />
        <img src=""images/semantic/semantic_1/2.png"" style=""width: 300px; height: 300px;"" />
      </div>
      <p>Does event 1 lead to event 2?</p>
    </div>","0","0","semantic_1"
"","","","","","html-button-response","17","177124","0.0-17.0","","2636","
    <div style=""display: flex; justify-content: center; align-items: center; flex-direction: column;"">
      <div style=""display: flex; justify-content: center; align-items: center;"">
        <img src=""images/causal/causal_8/1.png"" style=""width: 300px; height: 300px; margin-right: 10px;"" />
        <img src=""images/causal/causal_8/2.png"" style=""width: 300px; height: 300px;"" />
      </div>
      <p>Does event 1 lead to event 2?</p>
    </div>","0","0","causal_8"
"","","","","","html-button-response","18","177317","0.0-18.0","","192","
    <div style=""display: flex; justify-content: center; align-items: center; flex-direction: column;"">
      <div style=""display: flex; justify-content: center; align-items: center;"">
        <img src=""images/causal/causal_5/1.png"" style=""width: 300px; height: 300px; margin-right: 10px;"" />
        <img src=""images/causal/causal_5/2.png"" style=""width: 300px; height: 300px;"" />
      </div>
      <p>Does event 1 lead to event 2?</p>
    </div>","0","0","causal_5"
"","","","","","html-button-response","19","181653","0.0-19.0","","4335","
    <div style=""display: flex; justify-content: center; align-items: center; flex-direction: column;"">
      <div style=""display: flex; justify-content: center; align-items: center;"">
        <img src=""images/semantic/semantic_2/1.png"" style=""width: 300px; height: 300px; margin-right: 10px;"" />
        <img src=""images/semantic/semantic_2/2.png"" style=""width: 300px; height: 300px;"" />
      </div>
      <p>Does event 1 lead to event 2?</p>
    </div>","1","1","semantic_2"
"","","","","","html-button-response","20","184026","0.0-20.0","","2371","
    <div style=""display: flex; justify-content: center; align-items: center; flex-direction: column;"">
      <div style=""display: flex; justify-content: center; align-items: center;"">
        <img src=""images/schematic/schematic_2/1.png"" style=""width: 300px; height: 300px; margin-right: 10px;"" />
        <img src=""images/schematic/schematic_2/2.png"" style=""width: 300px; height: 300px;"" />
      </div>
      <p>Does event 1 lead to event 2?</p>
    </div>","0","0","schematic_2"
"","","","","","html-button-response","21","186021","0.0-21.0","","1994","
    <div style=""display: flex; justify-content: center; align-items: center; flex-direction: column;"">
      <div style=""display: flex; justify-content: center; align-items: center;"">
        <img src=""images/schematic/schematic_4/1.png"" style=""width: 300px; height: 300px; margin-right: 10px;"" />
        <img src=""images/schematic/schematic_4/2.png"" style=""width: 300px; height: 300px;"" />
      </div>
      <p>Does event 1 lead to event 2?</p>
    </div>","0","0","schematic_4"
"","","","","","html-button-response","22","190368","0.0-22.0","","4346","
    <div style=""display: flex; justify-content: center; align-items: center; flex-direction: column;"">
      <div style=""display: flex; justify-content: center; align-items: center;"">
        <img src=""images/causal/causal_7/1.png"" style=""width: 300px; height: 300px; margin-right: 10px;"" />
        <img src=""images/causal/causal_7/2.png"" style=""width: 300px; height: 300px;"" />
      </div>
      <p>Does event 1 lead to event 2?</p>
    </div>","0","0","causal_7"
"","","","","","html-button-response","23","194746","0.0-23.0","","4376","
    <div style=""display: flex; justify-content: center; align-items: center; flex-direction: column;"">
      <div style=""display: flex; justify-content: center; align-items: center;"">
        <img src=""images/schematic/schematic_6/1.png"" style=""width: 300px; height: 300px; margin-right: 10px;"" />
        <img src=""images/schematic/schematic_6/2.png"" style=""width: 300px; height: 300px;"" />
      </div>
      <p>Does event 1 lead to event 2?</p>
    </div>","0","0","schematic_6"
"","","","","","html-button-response","24","197179","0.0-24.0","","2431","
    <div style=""display: flex; justify-content: center; align-items: center; flex-direction: column;"">
      <div style=""display: flex; justify-content: center; align-items: center;"">
        <img src=""images/causal/causal_3/1.png"" style=""width: 300px; height: 300px; margin-right: 10px;"" />
        <img src=""images/causal/causal_3/2.png"" style=""width: 300px; height: 300px;"" />
      </div>
      <p>Does event 1 lead to event 2?</p>
    </div>","0","0","causal_3"
"","","","","","html-button-response","25","199042","0.0-25.0","","1862","
    <div style=""display: flex; justify-content: center; align-items: center; flex-direction: column;"">
      <div style=""display: flex; justify-content: center; align-items: center;"">
        <img src=""images/schematic/schematic_5/1.png"" style=""width: 300px; height: 300px; margin-right: 10px;"" />
        <img src=""images/schematic/schematic_5/2.png"" style=""width: 300px; height: 300px;"" />
      </div>
      <p>Does event 1 lead to event 2?</p>
    </div>","0","0","schematic_5"
"","","","","","html-button-response","26","201515","0.0-26.0","","2472","
    <div style=""display: flex; justify-content: center; align-items: center; flex-direction: column;"">
      <div style=""display: flex; justify-content: center; align-items: center;"">
        <img src=""images/schematic/schematic_1/1.png"" style=""width: 300px; height: 300px; margin-right: 10px;"" />
        <img src=""images/schematic/schematic_1/2.png"" style=""width: 300px; height: 300px;"" />
      </div>
      <p>Does event 1 lead to event 2?</p>
    </div>","0","0","schematic_1"
"","","","","","html-button-response","27","203857","0.0-27.0","","2341","
    <div style=""display: flex; justify-content: center; align-items: center; flex-direction: column;"">
      <div style=""display: flex; justify-content: center; align-items: center;"">
        <img src=""images/semantic/semantic_5/1.png"" style=""width: 300px; height: 300px; margin-right: 10px;"" />
        <img src=""images/semantic/semantic_5/2.png"" style=""width: 300px; height: 300px;"" />
      </div>
      <p>Does event 1 lead to event 2?</p>
    </div>","1","1","semantic_5"
"","","","","","html-button-response","28","207379","0.0-28.0","","3520","
    <div style=""display: flex; justify-content: center; align-items: center; flex-direction: column;"">
      <div style=""display: flex; justify-content: center; align-items: center;"">
        <img src=""images/semantic/semantic_4/1.png"" style=""width: 300px; height: 300px; margin-right: 10px;"" />
        <img src=""images/semantic/semantic_4/2.png"" style=""width: 300px; height: 300px;"" />
      </div>
      <p>Does event 1 lead to event 2?</p>
    </div>","0","0","semantic_4"
"","","","","","html-button-response","29","209587","0.0-29.0","","2207","
    <div style=""display: flex; justify-content: center; align-items: center; flex-direction: column;"">
      <div style=""display: flex; justify-content: center; align-items: center;"">
        <img src=""images/causal/causal_2/1.png"" style=""width: 300px; height: 300px; margin-right: 10px;"" />
        <img src=""images/causal/causal_2/2.png"" style=""width: 300px; height: 300px;"" />
      </div>
      <p>Does event 1 lead to event 2?</p>
    </div>","0","0","causal_2"
"","","","","","html-button-response","30","220848","0.0-30.0","","11260","
    <div style=""display: flex; justify-content: center; align-items: center; flex-direction: column;"">
      <div style=""display: flex; justify-content: center; align-items: center;"">
        <img src=""images/causal/causal_6/1.png"" style=""width: 300px; height: 300px; margin-right: 10px;"" />
        <img src=""images/causal/causal_6/2.png"" style=""width: 300px; height: 300px;"" />
      </div>
      <p>Does event 1 lead to event 2?</p>
    </div>","0","0","causal_6"
"","","","","","html-button-response","31","222976","0.0-31.0","","2126","
    <div style=""display: flex; justify-content: center; align-items: center; flex-direction: column;"">
      <div style=""display: flex; justify-content: center; align-items: center;"">
        <img src=""images/schematic/schematic_3/1.png"" style=""width: 300px; height: 300px; margin-right: 10px;"" />
        <img src=""images/schematic/schematic_3/2.png"" style=""width: 300px; height: 300px;"" />
      </div>
      <p>Does event 1 lead to event 2?</p>
    </div>","0","0","schematic_3"
"","","","","","html-button-response","32","225052","0.0-32.0","","2075","
    <div style=""display: flex; justify-content: center; align-items: center; flex-direction: column;"">
      <div style=""display: flex; justify-content: center; align-items: center;"">
        <img src=""images/schematic/schematic_7/1.png"" style=""width: 300px; height: 300px; margin-right: 10px;"" />
        <img src=""images/schematic/schematic_7/2.png"" style=""width: 300px; height: 300px;"" />
      </div>
      <p>Does event 1 lead to event 2?</p>
    </div>","0","0","schematic_7"
"","","","","","html-button-response","33","228426","0.0-33.0","","3373","
    <div style=""display: flex; justify-content: center; align-items: center; flex-direction: column;"">
      <div style=""display: flex; justify-content: center; align-items: center;"">
        <img src=""images/causal/causal_4/1.png"" style=""width: 300px; height: 300px; margin-right: 10px;"" />
        <img src=""images/causal/causal_4/2.png"" style=""width: 300px; height: 300px;"" />
      </div>
      <p>Does event 1 lead to event 2?</p>
    </div>","0","0","causal_4"
"","","","","","survey-text","34","244931","0.0-34.0","","16498","","{""Q0"":""Female"",""Q1"":""34""}","",""
"","","","","","instructions","35","262262","0.0-35.0","[{""page_index"":0,""viewing_time"":17331}]","17331","","","",""
"","","","","","survey-text","36","265987","0.0-36.0","","3723","","{""Q0"":""AJFHBG898""}","",""
