"success","timeout","failed_images","failed_audio","failed_video","trial_type","trial_index","time_elapsed","internal_node_id","subject","subject_id","study_id","session_id","urlvar","current_url","view_history","rt","stimulus","response","choice","question_order"
"true","false","[]","[]","[]","preload","0","794","0.0-0.0","AAE6A7BF55A54CA29822014110DEFF70","AAE6A7BF55A54CA29822014110DEFF70","2adc1140-0f29-4655-b370-9bc848e82e56","e622c465-ee29-4445-8260-1f3431e06587","{""participantId"":""AAE6A7BF55A54CA29822014110DEFF70"",""assignmentId"":""2adc1140-0f29-4655-b370-9bc848e82e56"",""projectId"":""e622c465-ee29-4445-8260-1f3431e06587""}","https://test12345.live/?participantId=AAE6A7BF55A54CA29822014110DEFF70&assignmentId=2adc1140-0f29-4655-b370-9bc848e82e56&projectId=e622c465-ee29-4445-8260-1f3431e06587","","","","","",""
"","","","","","instructions","1","12430","0.0-1.0","AAE6A7BF55A54CA29822014110DEFF70","AAE6A7BF55A54CA29822014110DEFF70","2adc1140-0f29-4655-b370-9bc848e82e56","e622c465-ee29-4445-8260-1f3431e06587","{""participantId"":""AAE6A7BF55A54CA29822014110DEFF70"",""assignmentId"":""2adc1140-0f29-4655-b370-9bc848e82e56"",""projectId"":""e622c465-ee29-4445-8260-1f3431e06587""}","https://test12345.live/?participantId=AAE6A7BF55A54CA29822014110DEFF70&assignmentId=2adc1140-0f29-4655-b370-9bc848e82e56&projectId=e622c465-ee29-4445-8260-1f3431e06587","[{""page_index"":0,""viewing_time"":11635}]","11636","","","",""
"","","","","","instructions","2","17824","0.0-2.0","AAE6A7BF55A54CA29822014110DEFF70","AAE6A7BF55A54CA29822014110DEFF70","2adc1140-0f29-4655-b370-9bc848e82e56","e622c465-ee29-4445-8260-1f3431e06587","{""participantId"":""AAE6A7BF55A54CA29822014110DEFF70"",""assignmentId"":""2adc1140-0f29-4655-b370-9bc848e82e56"",""projectId"":""e622c465-ee29-4445-8260-1f3431e06587""}","https://test12345.live/?participantId=AAE6A7BF55A54CA29822014110DEFF70&assignmentId=2adc1140-0f29-4655-b370-9bc848e82e56&projectId=e622c465-ee29-4445-8260-1f3431e06587","[{""page_index"":0,""viewing_time"":5393}]","5394","","","",""
"true","","","","","fullscreen","3","20866","0.0-3.0","AAE6A7BF55A54CA29822014110DEFF70","AAE6A7BF55A54CA29822014110DEFF70","2adc1140-0f29-4655-b370-9bc848e82e56","e622c465-ee29-4445-8260-1f3431e06587","{""participantId"":""AAE6A7BF55A54CA29822014110DEFF70"",""assignmentId"":""2adc1140-0f29-4655-b370-9bc848e82e56"",""projectId"":""e622c465-ee29-4445-8260-1f3431e06587""}","https://test12345.live/?participantId=AAE6A7BF55A54CA29822014110DEFF70&assignmentId=2adc1140-0f29-4655-b370-9bc848e82e56&projectId=e622c465-ee29-4445-8260-1f3431e06587","","2025","","","",""
"","","","","","instructions","4","27934","0.0-4.0","AAE6A7BF55A54CA29822014110DEFF70","AAE6A7BF55A54CA29822014110DEFF70","2adc1140-0f29-4655-b370-9bc848e82e56","e622c465-ee29-4445-8260-1f3431e06587","{""participantId"":""AAE6A7BF55A54CA29822014110DEFF70"",""assignmentId"":""2adc1140-0f29-4655-b370-9bc848e82e56"",""projectId"":""e622c465-ee29-4445-8260-1f3431e06587""}","https://test12345.live/?participantId=AAE6A7BF55A54CA29822014110DEFF70&assignmentId=2adc1140-0f29-4655-b370-9bc848e82e56&projectId=e622c465-ee29-4445-8260-1f3431e06587","[{""page_index"":0,""viewing_time"":7068}]","7068","","","",""
"","","","","","html-button-response","5","30983","0.0-5.0","AAE6A7BF55A54CA29822014110DEFF70","AAE6A7BF55A54CA29822014110DEFF70","2adc1140-0f29-4655-b370-9bc848e82e56","e622c465-ee29-4445-8260-1f3431e06587","{""participantId"":""AAE6A7BF55A54CA29822014110DEFF70"",""assignmentId"":""2adc1140-0f29-4655-b370-9bc848e82e56"",""projectId"":""e622c465-ee29-4445-8260-1f3431e06587""}","https://test12345.live/?participantId=AAE6A7BF55A54CA29822014110DEFF70&assignmentId=2adc1140-0f29-4655-b370-9bc848e82e56&projectId=e622c465-ee29-4445-8260-1f3431e06587","","3047","
    <div style=""display: flex; justify-content: center; align-items: center;"">
      <img src=""images/blue_deck_1.png"" style=""width: 300px; height: 300px; margin-right: 10px;"" />
      <img src=""images/red_deck_2.png"" style=""width: 300px; height: 300px;"" />
    </div>","0","0",""
"","","","","","html-keyboard-response","6","33985","0.0-6.0-0.0","AAE6A7BF55A54CA29822014110DEFF70","AAE6A7BF55A54CA29822014110DEFF70","2adc1140-0f29-4655-b370-9bc848e82e56","e622c465-ee29-4445-8260-1f3431e06587","{""participantId"":""AAE6A7BF55A54CA29822014110DEFF70"",""assignmentId"":""2adc1140-0f29-4655-b370-9bc848e82e56"",""projectId"":""e622c465-ee29-4445-8260-1f3431e06587""}","https://test12345.live/?participantId=AAE6A7BF55A54CA29822014110DEFF70&assignmentId=2adc1140-0f29-4655-b370-9bc848e82e56&projectId=e622c465-ee29-4445-8260-1f3431e06587","","null","<div style=""display: flex; justify-content: center; align-items: center;"">
                    <img src=""images/causal/causal_series_4/causal_series_4_a.jpg"" style=""width: 300px; height: 300px;"" />
                  </div>","null","",""
"","","","","","html-keyboard-response","7","36988","0.0-6.0-1.0","AAE6A7BF55A54CA29822014110DEFF70","AAE6A7BF55A54CA29822014110DEFF70","2adc1140-0f29-4655-b370-9bc848e82e56","e622c465-ee29-4445-8260-1f3431e06587","{""participantId"":""AAE6A7BF55A54CA29822014110DEFF70"",""assignmentId"":""2adc1140-0f29-4655-b370-9bc848e82e56"",""projectId"":""e622c465-ee29-4445-8260-1f3431e06587""}","https://test12345.live/?participantId=AAE6A7BF55A54CA29822014110DEFF70&assignmentId=2adc1140-0f29-4655-b370-9bc848e82e56&projectId=e622c465-ee29-4445-8260-1f3431e06587","","null","<div style=""display: flex; justify-content: center; align-items: center;"">
                    <img src=""images/causal/causal_series_4/causal_series_4_b.jpg"" style=""width: 300px; height: 300px;"" />
                  </div>","null","",""
"","","","","","html-keyboard-response","8","39989","0.0-6.0-2.0","AAE6A7BF55A54CA29822014110DEFF70","AAE6A7BF55A54CA29822014110DEFF70","2adc1140-0f29-4655-b370-9bc848e82e56","e622c465-ee29-4445-8260-1f3431e06587","{""participantId"":""AAE6A7BF55A54CA29822014110DEFF70"",""assignmentId"":""2adc1140-0f29-4655-b370-9bc848e82e56"",""projectId"":""e622c465-ee29-4445-8260-1f3431e06587""}","https://test12345.live/?participantId=AAE6A7BF55A54CA29822014110DEFF70&assignmentId=2adc1140-0f29-4655-b370-9bc848e82e56&projectId=e622c465-ee29-4445-8260-1f3431e06587","","null","<div style=""display: flex; justify-content: center; align-items: center;"">
                    <img src=""images/causal/causal_series_4/causal_series_4_c.jpg"" style=""width: 300px; height: 300px;"" />
                  </div>","null","",""
"","","","","","html-keyboard-response","9","42990","0.0-6.0-3.0","AAE6A7BF55A54CA29822014110DEFF70","AAE6A7BF55A54CA29822014110DEFF70","2adc1140-0f29-4655-b370-9bc848e82e56","e622c465-ee29-4445-8260-1f3431e06587","{""participantId"":""AAE6A7BF55A54CA29822014110DEFF70"",""assignmentId"":""2adc1140-0f29-4655-b370-9bc848e82e56"",""projectId"":""e622c465-ee29-4445-8260-1f3431e06587""}","https://test12345.live/?participantId=AAE6A7BF55A54CA29822014110DEFF70&assignmentId=2adc1140-0f29-4655-b370-9bc848e82e56&projectId=e622c465-ee29-4445-8260-1f3431e06587","","null","<div style=""display: flex; justify-content: center; align-items: center;"">
                    <img src=""images/causal/causal_series_4/causal_series_4_d.jpg"" style=""width: 300px; height: 300px;"" />
                  </div>","null","",""
"","","","","","html-button-response","10","47377","0.0-8.0","AAE6A7BF55A54CA29822014110DEFF70","AAE6A7BF55A54CA29822014110DEFF70","2adc1140-0f29-4655-b370-9bc848e82e56","e622c465-ee29-4445-8260-1f3431e06587","{""participantId"":""AAE6A7BF55A54CA29822014110DEFF70"",""assignmentId"":""2adc1140-0f29-4655-b370-9bc848e82e56"",""projectId"":""e622c465-ee29-4445-8260-1f3431e06587""}","https://test12345.live/?participantId=AAE6A7BF55A54CA29822014110DEFF70&assignmentId=2adc1140-0f29-4655-b370-9bc848e82e56&projectId=e622c465-ee29-4445-8260-1f3431e06587","","4386","Was there a person in the picture?","1","",""
"","","","","","survey-likert","11","50809","0.0-9.0","AAE6A7BF55A54CA29822014110DEFF70","AAE6A7BF55A54CA29822014110DEFF70","2adc1140-0f29-4655-b370-9bc848e82e56","e622c465-ee29-4445-8260-1f3431e06587","{""participantId"":""AAE6A7BF55A54CA29822014110DEFF70"",""assignmentId"":""2adc1140-0f29-4655-b370-9bc848e82e56"",""projectId"":""e622c465-ee29-4445-8260-1f3431e06587""}","https://test12345.live/?participantId=AAE6A7BF55A54CA29822014110DEFF70&assignmentId=2adc1140-0f29-4655-b370-9bc848e82e56&projectId=e622c465-ee29-4445-8260-1f3431e06587","","3429","","{""Q0"":3}","","[0]"
"","","","","","html-button-response","12","52402","0.0-10.0","AAE6A7BF55A54CA29822014110DEFF70","AAE6A7BF55A54CA29822014110DEFF70","2adc1140-0f29-4655-b370-9bc848e82e56","e622c465-ee29-4445-8260-1f3431e06587","{""participantId"":""AAE6A7BF55A54CA29822014110DEFF70"",""assignmentId"":""2adc1140-0f29-4655-b370-9bc848e82e56"",""projectId"":""e622c465-ee29-4445-8260-1f3431e06587""}","https://test12345.live/?participantId=AAE6A7BF55A54CA29822014110DEFF70&assignmentId=2adc1140-0f29-4655-b370-9bc848e82e56&projectId=e622c465-ee29-4445-8260-1f3431e06587","","1591","
    <div style=""display: flex; justify-content: center; align-items: center;"">
      <img src=""images/blue_deck_1.png"" style=""width: 300px; height: 300px; margin-right: 10px;"" />
      <img src=""images/red_deck_2.png"" style=""width: 300px; height: 300px;"" />
    </div>","1","1",""
"","","","","","html-keyboard-response","13","55403","0.0-12.0-0.0","AAE6A7BF55A54CA29822014110DEFF70","AAE6A7BF55A54CA29822014110DEFF70","2adc1140-0f29-4655-b370-9bc848e82e56","e622c465-ee29-4445-8260-1f3431e06587","{""participantId"":""AAE6A7BF55A54CA29822014110DEFF70"",""assignmentId"":""2adc1140-0f29-4655-b370-9bc848e82e56"",""projectId"":""e622c465-ee29-4445-8260-1f3431e06587""}","https://test12345.live/?participantId=AAE6A7BF55A54CA29822014110DEFF70&assignmentId=2adc1140-0f29-4655-b370-9bc848e82e56&projectId=e622c465-ee29-4445-8260-1f3431e06587","","null","<div style=""display: flex; justify-content: center; align-items: center;"">
                    <img src=""images/semantic/semantic_series_5/semantic_series_5_a.jpg"" style=""width: 300px; height: 300px;"" />
                  </div>","null","",""
"","","","","","html-keyboard-response","14","58405","0.0-12.0-1.0","AAE6A7BF55A54CA29822014110DEFF70","AAE6A7BF55A54CA29822014110DEFF70","2adc1140-0f29-4655-b370-9bc848e82e56","e622c465-ee29-4445-8260-1f3431e06587","{""participantId"":""AAE6A7BF55A54CA29822014110DEFF70"",""assignmentId"":""2adc1140-0f29-4655-b370-9bc848e82e56"",""projectId"":""e622c465-ee29-4445-8260-1f3431e06587""}","https://test12345.live/?participantId=AAE6A7BF55A54CA29822014110DEFF70&assignmentId=2adc1140-0f29-4655-b370-9bc848e82e56&projectId=e622c465-ee29-4445-8260-1f3431e06587","","null","<div style=""display: flex; justify-content: center; align-items: center;"">
                    <img src=""images/semantic/semantic_series_5/semantic_series_5_b.jpg"" style=""width: 300px; height: 300px;"" />
                  </div>","null","",""
"","","","","","html-keyboard-response","15","61407","0.0-12.0-2.0","AAE6A7BF55A54CA29822014110DEFF70","AAE6A7BF55A54CA29822014110DEFF70","2adc1140-0f29-4655-b370-9bc848e82e56","e622c465-ee29-4445-8260-1f3431e06587","{""participantId"":""AAE6A7BF55A54CA29822014110DEFF70"",""assignmentId"":""2adc1140-0f29-4655-b370-9bc848e82e56"",""projectId"":""e622c465-ee29-4445-8260-1f3431e06587""}","https://test12345.live/?participantId=AAE6A7BF55A54CA29822014110DEFF70&assignmentId=2adc1140-0f29-4655-b370-9bc848e82e56&projectId=e622c465-ee29-4445-8260-1f3431e06587","","null","<div style=""display: flex; justify-content: center; align-items: center;"">
                    <img src=""images/semantic/semantic_series_5/semantic_series_5_c.jpg"" style=""width: 300px; height: 300px;"" />
                  </div>","null","",""
"","","","","","html-keyboard-response","16","64409","0.0-12.0-3.0","AAE6A7BF55A54CA29822014110DEFF70","AAE6A7BF55A54CA29822014110DEFF70","2adc1140-0f29-4655-b370-9bc848e82e56","e622c465-ee29-4445-8260-1f3431e06587","{""participantId"":""AAE6A7BF55A54CA29822014110DEFF70"",""assignmentId"":""2adc1140-0f29-4655-b370-9bc848e82e56"",""projectId"":""e622c465-ee29-4445-8260-1f3431e06587""}","https://test12345.live/?participantId=AAE6A7BF55A54CA29822014110DEFF70&assignmentId=2adc1140-0f29-4655-b370-9bc848e82e56&projectId=e622c465-ee29-4445-8260-1f3431e06587","","null","<div style=""display: flex; justify-content: center; align-items: center;"">
                    <img src=""images/semantic/semantic_series_5/semantic_series_5_d.jpg"" style=""width: 300px; height: 300px;"" />
                  </div>","null","",""
"","","","","","html-button-response","17","66636","0.0-13.0","AAE6A7BF55A54CA29822014110DEFF70","AAE6A7BF55A54CA29822014110DEFF70","2adc1140-0f29-4655-b370-9bc848e82e56","e622c465-ee29-4445-8260-1f3431e06587","{""participantId"":""AAE6A7BF55A54CA29822014110DEFF70"",""assignmentId"":""2adc1140-0f29-4655-b370-9bc848e82e56"",""projectId"":""e622c465-ee29-4445-8260-1f3431e06587""}","https://test12345.live/?participantId=AAE6A7BF55A54CA29822014110DEFF70&assignmentId=2adc1140-0f29-4655-b370-9bc848e82e56&projectId=e622c465-ee29-4445-8260-1f3431e06587","","2226","Was there a person in the picture?","0","",""
"","","","","","survey-likert","18","70013","0.0-14.0","AAE6A7BF55A54CA29822014110DEFF70","AAE6A7BF55A54CA29822014110DEFF70","2adc1140-0f29-4655-b370-9bc848e82e56","e622c465-ee29-4445-8260-1f3431e06587","{""participantId"":""AAE6A7BF55A54CA29822014110DEFF70"",""assignmentId"":""2adc1140-0f29-4655-b370-9bc848e82e56"",""projectId"":""e622c465-ee29-4445-8260-1f3431e06587""}","https://test12345.live/?participantId=AAE6A7BF55A54CA29822014110DEFF70&assignmentId=2adc1140-0f29-4655-b370-9bc848e82e56&projectId=e622c465-ee29-4445-8260-1f3431e06587","","3375","","{""Q0"":3}","","[0]"
"","","","","","html-button-response","19","71218","0.0-15.0","AAE6A7BF55A54CA29822014110DEFF70","AAE6A7BF55A54CA29822014110DEFF70","2adc1140-0f29-4655-b370-9bc848e82e56","e622c465-ee29-4445-8260-1f3431e06587","{""participantId"":""AAE6A7BF55A54CA29822014110DEFF70"",""assignmentId"":""2adc1140-0f29-4655-b370-9bc848e82e56"",""projectId"":""e622c465-ee29-4445-8260-1f3431e06587""}","https://test12345.live/?participantId=AAE6A7BF55A54CA29822014110DEFF70&assignmentId=2adc1140-0f29-4655-b370-9bc848e82e56&projectId=e622c465-ee29-4445-8260-1f3431e06587","","1202","
    <div style=""display: flex; justify-content: center; align-items: center;"">
      <img src=""images/blue_deck_1.png"" style=""width: 300px; height: 300px; margin-right: 10px;"" />
      <img src=""images/red_deck_2.png"" style=""width: 300px; height: 300px;"" />
    </div>","0","0",""
"","","","","","html-keyboard-response","20","74220","0.0-16.0-0.0","AAE6A7BF55A54CA29822014110DEFF70","AAE6A7BF55A54CA29822014110DEFF70","2adc1140-0f29-4655-b370-9bc848e82e56","e622c465-ee29-4445-8260-1f3431e06587","{""participantId"":""AAE6A7BF55A54CA29822014110DEFF70"",""assignmentId"":""2adc1140-0f29-4655-b370-9bc848e82e56"",""projectId"":""e622c465-ee29-4445-8260-1f3431e06587""}","https://test12345.live/?participantId=AAE6A7BF55A54CA29822014110DEFF70&assignmentId=2adc1140-0f29-4655-b370-9bc848e82e56&projectId=e622c465-ee29-4445-8260-1f3431e06587","","null","<div style=""display: flex; justify-content: center; align-items: center;"">
                    <img src=""images/causal/causal_series_1/causal_series_1_a.jpg"" style=""width: 300px; height: 300px;"" />
                  </div>","null","",""
"","","","","","html-keyboard-response","21","77221","0.0-16.0-1.0","AAE6A7BF55A54CA29822014110DEFF70","AAE6A7BF55A54CA29822014110DEFF70","2adc1140-0f29-4655-b370-9bc848e82e56","e622c465-ee29-4445-8260-1f3431e06587","{""participantId"":""AAE6A7BF55A54CA29822014110DEFF70"",""assignmentId"":""2adc1140-0f29-4655-b370-9bc848e82e56"",""projectId"":""e622c465-ee29-4445-8260-1f3431e06587""}","https://test12345.live/?participantId=AAE6A7BF55A54CA29822014110DEFF70&assignmentId=2adc1140-0f29-4655-b370-9bc848e82e56&projectId=e622c465-ee29-4445-8260-1f3431e06587","","null","<div style=""display: flex; justify-content: center; align-items: center;"">
                    <img src=""images/causal/causal_series_1/causal_series_1_b.jpg"" style=""width: 300px; height: 300px;"" />
                  </div>","null","",""
"","","","","","html-keyboard-response","22","80222","0.0-16.0-2.0","AAE6A7BF55A54CA29822014110DEFF70","AAE6A7BF55A54CA29822014110DEFF70","2adc1140-0f29-4655-b370-9bc848e82e56","e622c465-ee29-4445-8260-1f3431e06587","{""participantId"":""AAE6A7BF55A54CA29822014110DEFF70"",""assignmentId"":""2adc1140-0f29-4655-b370-9bc848e82e56"",""projectId"":""e622c465-ee29-4445-8260-1f3431e06587""}","https://test12345.live/?participantId=AAE6A7BF55A54CA29822014110DEFF70&assignmentId=2adc1140-0f29-4655-b370-9bc848e82e56&projectId=e622c465-ee29-4445-8260-1f3431e06587","","null","<div style=""display: flex; justify-content: center; align-items: center;"">
                    <img src=""images/causal/causal_series_1/causal_series_1_c.jpg"" style=""width: 300px; height: 300px;"" />
                  </div>","null","",""
"","","","","","html-keyboard-response","23","83224","0.0-16.0-3.0","AAE6A7BF55A54CA29822014110DEFF70","AAE6A7BF55A54CA29822014110DEFF70","2adc1140-0f29-4655-b370-9bc848e82e56","e622c465-ee29-4445-8260-1f3431e06587","{""participantId"":""AAE6A7BF55A54CA29822014110DEFF70"",""assignmentId"":""2adc1140-0f29-4655-b370-9bc848e82e56"",""projectId"":""e622c465-ee29-4445-8260-1f3431e06587""}","https://test12345.live/?participantId=AAE6A7BF55A54CA29822014110DEFF70&assignmentId=2adc1140-0f29-4655-b370-9bc848e82e56&projectId=e622c465-ee29-4445-8260-1f3431e06587","","null","<div style=""display: flex; justify-content: center; align-items: center;"">
                    <img src=""images/causal/causal_series_1/causal_series_1_d.jpg"" style=""width: 300px; height: 300px;"" />
                  </div>","null","",""
"","","","","","html-button-response","24","88505","0.0-18.0","AAE6A7BF55A54CA29822014110DEFF70","AAE6A7BF55A54CA29822014110DEFF70","2adc1140-0f29-4655-b370-9bc848e82e56","e622c465-ee29-4445-8260-1f3431e06587","{""participantId"":""AAE6A7BF55A54CA29822014110DEFF70"",""assignmentId"":""2adc1140-0f29-4655-b370-9bc848e82e56"",""projectId"":""e622c465-ee29-4445-8260-1f3431e06587""}","https://test12345.live/?participantId=AAE6A7BF55A54CA29822014110DEFF70&assignmentId=2adc1140-0f29-4655-b370-9bc848e82e56&projectId=e622c465-ee29-4445-8260-1f3431e06587","","5280","Was there a person in the picture?","0","",""
"","","","","","survey-likert","25","91448","0.0-19.0","AAE6A7BF55A54CA29822014110DEFF70","AAE6A7BF55A54CA29822014110DEFF70","2adc1140-0f29-4655-b370-9bc848e82e56","e622c465-ee29-4445-8260-1f3431e06587","{""participantId"":""AAE6A7BF55A54CA29822014110DEFF70"",""assignmentId"":""2adc1140-0f29-4655-b370-9bc848e82e56"",""projectId"":""e622c465-ee29-4445-8260-1f3431e06587""}","https://test12345.live/?participantId=AAE6A7BF55A54CA29822014110DEFF70&assignmentId=2adc1140-0f29-4655-b370-9bc848e82e56&projectId=e622c465-ee29-4445-8260-1f3431e06587","","2942","","{""Q0"":1}","","[0]"
"","","","","","html-button-response","26","92336","0.0-20.0","AAE6A7BF55A54CA29822014110DEFF70","AAE6A7BF55A54CA29822014110DEFF70","2adc1140-0f29-4655-b370-9bc848e82e56","e622c465-ee29-4445-8260-1f3431e06587","{""participantId"":""AAE6A7BF55A54CA29822014110DEFF70"",""assignmentId"":""2adc1140-0f29-4655-b370-9bc848e82e56"",""projectId"":""e622c465-ee29-4445-8260-1f3431e06587""}","https://test12345.live/?participantId=AAE6A7BF55A54CA29822014110DEFF70&assignmentId=2adc1140-0f29-4655-b370-9bc848e82e56&projectId=e622c465-ee29-4445-8260-1f3431e06587","","887","
    <div style=""display: flex; justify-content: center; align-items: center;"">
      <img src=""images/blue_deck_1.png"" style=""width: 300px; height: 300px; margin-right: 10px;"" />
      <img src=""images/red_deck_2.png"" style=""width: 300px; height: 300px;"" />
    </div>","1","1",""
"","","","","","html-keyboard-response","27","95337","0.0-22.0-0.0","AAE6A7BF55A54CA29822014110DEFF70","AAE6A7BF55A54CA29822014110DEFF70","2adc1140-0f29-4655-b370-9bc848e82e56","e622c465-ee29-4445-8260-1f3431e06587","{""participantId"":""AAE6A7BF55A54CA29822014110DEFF70"",""assignmentId"":""2adc1140-0f29-4655-b370-9bc848e82e56"",""projectId"":""e622c465-ee29-4445-8260-1f3431e06587""}","https://test12345.live/?participantId=AAE6A7BF55A54CA29822014110DEFF70&assignmentId=2adc1140-0f29-4655-b370-9bc848e82e56&projectId=e622c465-ee29-4445-8260-1f3431e06587","","null","<div style=""display: flex; justify-content: center; align-items: center;"">
                    <img src=""images/semantic/semantic_series_10/semantic_series_10_a.jpg"" style=""width: 300px; height: 300px;"" />
                  </div>","null","",""
"","","","","","html-keyboard-response","28","98339","0.0-22.0-1.0","AAE6A7BF55A54CA29822014110DEFF70","AAE6A7BF55A54CA29822014110DEFF70","2adc1140-0f29-4655-b370-9bc848e82e56","e622c465-ee29-4445-8260-1f3431e06587","{""participantId"":""AAE6A7BF55A54CA29822014110DEFF70"",""assignmentId"":""2adc1140-0f29-4655-b370-9bc848e82e56"",""projectId"":""e622c465-ee29-4445-8260-1f3431e06587""}","https://test12345.live/?participantId=AAE6A7BF55A54CA29822014110DEFF70&assignmentId=2adc1140-0f29-4655-b370-9bc848e82e56&projectId=e622c465-ee29-4445-8260-1f3431e06587","","null","<div style=""display: flex; justify-content: center; align-items: center;"">
                    <img src=""images/semantic/semantic_series_10/semantic_series_10_b.jpg"" style=""width: 300px; height: 300px;"" />
                  </div>","null","",""
"","","","","","html-keyboard-response","29","101340","0.0-22.0-2.0","AAE6A7BF55A54CA29822014110DEFF70","AAE6A7BF55A54CA29822014110DEFF70","2adc1140-0f29-4655-b370-9bc848e82e56","e622c465-ee29-4445-8260-1f3431e06587","{""participantId"":""AAE6A7BF55A54CA29822014110DEFF70"",""assignmentId"":""2adc1140-0f29-4655-b370-9bc848e82e56"",""projectId"":""e622c465-ee29-4445-8260-1f3431e06587""}","https://test12345.live/?participantId=AAE6A7BF55A54CA29822014110DEFF70&assignmentId=2adc1140-0f29-4655-b370-9bc848e82e56&projectId=e622c465-ee29-4445-8260-1f3431e06587","","null","<div style=""display: flex; justify-content: center; align-items: center;"">
                    <img src=""images/semantic/semantic_series_10/semantic_series_10_c.jpg"" style=""width: 300px; height: 300px;"" />
                  </div>","null","",""
"","","","","","html-keyboard-response","30","104342","0.0-22.0-3.0","AAE6A7BF55A54CA29822014110DEFF70","AAE6A7BF55A54CA29822014110DEFF70","2adc1140-0f29-4655-b370-9bc848e82e56","e622c465-ee29-4445-8260-1f3431e06587","{""participantId"":""AAE6A7BF55A54CA29822014110DEFF70"",""assignmentId"":""2adc1140-0f29-4655-b370-9bc848e82e56"",""projectId"":""e622c465-ee29-4445-8260-1f3431e06587""}","https://test12345.live/?participantId=AAE6A7BF55A54CA29822014110DEFF70&assignmentId=2adc1140-0f29-4655-b370-9bc848e82e56&projectId=e622c465-ee29-4445-8260-1f3431e06587","","null","<div style=""display: flex; justify-content: center; align-items: center;"">
                    <img src=""images/semantic/semantic_series_10/semantic_series_10_d.jpg"" style=""width: 300px; height: 300px;"" />
                  </div>","null","",""
"","","","","","html-button-response","31","105856","0.0-23.0","AAE6A7BF55A54CA29822014110DEFF70","AAE6A7BF55A54CA29822014110DEFF70","2adc1140-0f29-4655-b370-9bc848e82e56","e622c465-ee29-4445-8260-1f3431e06587","{""participantId"":""AAE6A7BF55A54CA29822014110DEFF70"",""assignmentId"":""2adc1140-0f29-4655-b370-9bc848e82e56"",""projectId"":""e622c465-ee29-4445-8260-1f3431e06587""}","https://test12345.live/?participantId=AAE6A7BF55A54CA29822014110DEFF70&assignmentId=2adc1140-0f29-4655-b370-9bc848e82e56&projectId=e622c465-ee29-4445-8260-1f3431e06587","","1513","Was there a person in the picture?","1","",""
"","","","","","survey-likert","32","108136","0.0-24.0","AAE6A7BF55A54CA29822014110DEFF70","AAE6A7BF55A54CA29822014110DEFF70","2adc1140-0f29-4655-b370-9bc848e82e56","e622c465-ee29-4445-8260-1f3431e06587","{""participantId"":""AAE6A7BF55A54CA29822014110DEFF70"",""assignmentId"":""2adc1140-0f29-4655-b370-9bc848e82e56"",""projectId"":""e622c465-ee29-4445-8260-1f3431e06587""}","https://test12345.live/?participantId=AAE6A7BF55A54CA29822014110DEFF70&assignmentId=2adc1140-0f29-4655-b370-9bc848e82e56&projectId=e622c465-ee29-4445-8260-1f3431e06587","","2279","","{""Q0"":4}","","[0]"
"","","","","","html-button-response","33","109028","0.0-25.0","AAE6A7BF55A54CA29822014110DEFF70","AAE6A7BF55A54CA29822014110DEFF70","2adc1140-0f29-4655-b370-9bc848e82e56","e622c465-ee29-4445-8260-1f3431e06587","{""participantId"":""AAE6A7BF55A54CA29822014110DEFF70"",""assignmentId"":""2adc1140-0f29-4655-b370-9bc848e82e56"",""projectId"":""e622c465-ee29-4445-8260-1f3431e06587""}","https://test12345.live/?participantId=AAE6A7BF55A54CA29822014110DEFF70&assignmentId=2adc1140-0f29-4655-b370-9bc848e82e56&projectId=e622c465-ee29-4445-8260-1f3431e06587","","890","
    <div style=""display: flex; justify-content: center; align-items: center;"">
      <img src=""images/blue_deck_1.png"" style=""width: 300px; height: 300px; margin-right: 10px;"" />
      <img src=""images/red_deck_2.png"" style=""width: 300px; height: 300px;"" />
    </div>","0","0",""
"","","","","","html-keyboard-response","34","112030","0.0-26.0-0.0","AAE6A7BF55A54CA29822014110DEFF70","AAE6A7BF55A54CA29822014110DEFF70","2adc1140-0f29-4655-b370-9bc848e82e56","e622c465-ee29-4445-8260-1f3431e06587","{""participantId"":""AAE6A7BF55A54CA29822014110DEFF70"",""assignmentId"":""2adc1140-0f29-4655-b370-9bc848e82e56"",""projectId"":""e622c465-ee29-4445-8260-1f3431e06587""}","https://test12345.live/?participantId=AAE6A7BF55A54CA29822014110DEFF70&assignmentId=2adc1140-0f29-4655-b370-9bc848e82e56&projectId=e622c465-ee29-4445-8260-1f3431e06587","","null","<div style=""display: flex; justify-content: center; align-items: center;"">
                    <img src=""images/causal/causal_series_17/causal_series_17_a.jpg"" style=""width: 300px; height: 300px;"" />
                  </div>","null","",""
"","","","","","html-keyboard-response","35","115031","0.0-26.0-1.0","AAE6A7BF55A54CA29822014110DEFF70","AAE6A7BF55A54CA29822014110DEFF70","2adc1140-0f29-4655-b370-9bc848e82e56","e622c465-ee29-4445-8260-1f3431e06587","{""participantId"":""AAE6A7BF55A54CA29822014110DEFF70"",""assignmentId"":""2adc1140-0f29-4655-b370-9bc848e82e56"",""projectId"":""e622c465-ee29-4445-8260-1f3431e06587""}","https://test12345.live/?participantId=AAE6A7BF55A54CA29822014110DEFF70&assignmentId=2adc1140-0f29-4655-b370-9bc848e82e56&projectId=e622c465-ee29-4445-8260-1f3431e06587","","null","<div style=""display: flex; justify-content: center; align-items: center;"">
                    <img src=""images/causal/causal_series_17/causal_series_17_b.jpg"" style=""width: 300px; height: 300px;"" />
                  </div>","null","",""
"","","","","","html-keyboard-response","36","118032","0.0-26.0-2.0","AAE6A7BF55A54CA29822014110DEFF70","AAE6A7BF55A54CA29822014110DEFF70","2adc1140-0f29-4655-b370-9bc848e82e56","e622c465-ee29-4445-8260-1f3431e06587","{""participantId"":""AAE6A7BF55A54CA29822014110DEFF70"",""assignmentId"":""2adc1140-0f29-4655-b370-9bc848e82e56"",""projectId"":""e622c465-ee29-4445-8260-1f3431e06587""}","https://test12345.live/?participantId=AAE6A7BF55A54CA29822014110DEFF70&assignmentId=2adc1140-0f29-4655-b370-9bc848e82e56&projectId=e622c465-ee29-4445-8260-1f3431e06587","","null","<div style=""display: flex; justify-content: center; align-items: center;"">
                    <img src=""images/causal/causal_series_17/causal_series_17_c.jpg"" style=""width: 300px; height: 300px;"" />
                  </div>","null","",""
"","","","","","html-keyboard-response","37","121033","0.0-26.0-3.0","AAE6A7BF55A54CA29822014110DEFF70","AAE6A7BF55A54CA29822014110DEFF70","2adc1140-0f29-4655-b370-9bc848e82e56","e622c465-ee29-4445-8260-1f3431e06587","{""participantId"":""AAE6A7BF55A54CA29822014110DEFF70"",""assignmentId"":""2adc1140-0f29-4655-b370-9bc848e82e56"",""projectId"":""e622c465-ee29-4445-8260-1f3431e06587""}","https://test12345.live/?participantId=AAE6A7BF55A54CA29822014110DEFF70&assignmentId=2adc1140-0f29-4655-b370-9bc848e82e56&projectId=e622c465-ee29-4445-8260-1f3431e06587","","null","<div style=""display: flex; justify-content: center; align-items: center;"">
                    <img src=""images/causal/causal_series_17/causal_series_17_d.jpg"" style=""width: 300px; height: 300px;"" />
                  </div>","null","",""
"","","","","","html-button-response","38","123216","0.0-28.0","AAE6A7BF55A54CA29822014110DEFF70","AAE6A7BF55A54CA29822014110DEFF70","2adc1140-0f29-4655-b370-9bc848e82e56","e622c465-ee29-4445-8260-1f3431e06587","{""participantId"":""AAE6A7BF55A54CA29822014110DEFF70"",""assignmentId"":""2adc1140-0f29-4655-b370-9bc848e82e56"",""projectId"":""e622c465-ee29-4445-8260-1f3431e06587""}","https://test12345.live/?participantId=AAE6A7BF55A54CA29822014110DEFF70&assignmentId=2adc1140-0f29-4655-b370-9bc848e82e56&projectId=e622c465-ee29-4445-8260-1f3431e06587","","2182","Was there a person in the picture?","0","",""
"","","","","","survey-likert","39","125990","0.0-29.0","AAE6A7BF55A54CA29822014110DEFF70","AAE6A7BF55A54CA29822014110DEFF70","2adc1140-0f29-4655-b370-9bc848e82e56","e622c465-ee29-4445-8260-1f3431e06587","{""participantId"":""AAE6A7BF55A54CA29822014110DEFF70"",""assignmentId"":""2adc1140-0f29-4655-b370-9bc848e82e56"",""projectId"":""e622c465-ee29-4445-8260-1f3431e06587""}","https://test12345.live/?participantId=AAE6A7BF55A54CA29822014110DEFF70&assignmentId=2adc1140-0f29-4655-b370-9bc848e82e56&projectId=e622c465-ee29-4445-8260-1f3431e06587","","2773","","{""Q0"":1}","","[0]"
"","","","","","html-button-response","40","127086","0.0-30.0","AAE6A7BF55A54CA29822014110DEFF70","AAE6A7BF55A54CA29822014110DEFF70","2adc1140-0f29-4655-b370-9bc848e82e56","e622c465-ee29-4445-8260-1f3431e06587","{""participantId"":""AAE6A7BF55A54CA29822014110DEFF70"",""assignmentId"":""2adc1140-0f29-4655-b370-9bc848e82e56"",""projectId"":""e622c465-ee29-4445-8260-1f3431e06587""}","https://test12345.live/?participantId=AAE6A7BF55A54CA29822014110DEFF70&assignmentId=2adc1140-0f29-4655-b370-9bc848e82e56&projectId=e622c465-ee29-4445-8260-1f3431e06587","","1094","
    <div style=""display: flex; justify-content: center; align-items: center;"">
      <img src=""images/blue_deck_1.png"" style=""width: 300px; height: 300px; margin-right: 10px;"" />
      <img src=""images/red_deck_2.png"" style=""width: 300px; height: 300px;"" />
    </div>","1","1",""
"","","","","","html-keyboard-response","41","130088","0.0-32.0-0.0","AAE6A7BF55A54CA29822014110DEFF70","AAE6A7BF55A54CA29822014110DEFF70","2adc1140-0f29-4655-b370-9bc848e82e56","e622c465-ee29-4445-8260-1f3431e06587","{""participantId"":""AAE6A7BF55A54CA29822014110DEFF70"",""assignmentId"":""2adc1140-0f29-4655-b370-9bc848e82e56"",""projectId"":""e622c465-ee29-4445-8260-1f3431e06587""}","https://test12345.live/?participantId=AAE6A7BF55A54CA29822014110DEFF70&assignmentId=2adc1140-0f29-4655-b370-9bc848e82e56&projectId=e622c465-ee29-4445-8260-1f3431e06587","","null","<div style=""display: flex; justify-content: center; align-items: center;"">
                    <img src=""images/semantic/semantic_series_4/semantic_series_4_a.jpg"" style=""width: 300px; height: 300px;"" />
                  </div>","null","",""
"","","","","","html-keyboard-response","42","133089","0.0-32.0-1.0","AAE6A7BF55A54CA29822014110DEFF70","AAE6A7BF55A54CA29822014110DEFF70","2adc1140-0f29-4655-b370-9bc848e82e56","e622c465-ee29-4445-8260-1f3431e06587","{""participantId"":""AAE6A7BF55A54CA29822014110DEFF70"",""assignmentId"":""2adc1140-0f29-4655-b370-9bc848e82e56"",""projectId"":""e622c465-ee29-4445-8260-1f3431e06587""}","https://test12345.live/?participantId=AAE6A7BF55A54CA29822014110DEFF70&assignmentId=2adc1140-0f29-4655-b370-9bc848e82e56&projectId=e622c465-ee29-4445-8260-1f3431e06587","","null","<div style=""display: flex; justify-content: center; align-items: center;"">
                    <img src=""images/semantic/semantic_series_4/semantic_series_4_b.jpg"" style=""width: 300px; height: 300px;"" />
                  </div>","null","",""
"","","","","","html-keyboard-response","43","136090","0.0-32.0-2.0","AAE6A7BF55A54CA29822014110DEFF70","AAE6A7BF55A54CA29822014110DEFF70","2adc1140-0f29-4655-b370-9bc848e82e56","e622c465-ee29-4445-8260-1f3431e06587","{""participantId"":""AAE6A7BF55A54CA29822014110DEFF70"",""assignmentId"":""2adc1140-0f29-4655-b370-9bc848e82e56"",""projectId"":""e622c465-ee29-4445-8260-1f3431e06587""}","https://test12345.live/?participantId=AAE6A7BF55A54CA29822014110DEFF70&assignmentId=2adc1140-0f29-4655-b370-9bc848e82e56&projectId=e622c465-ee29-4445-8260-1f3431e06587","","null","<div style=""display: flex; justify-content: center; align-items: center;"">
                    <img src=""images/semantic/semantic_series_4/semantic_series_4_c.jpg"" style=""width: 300px; height: 300px;"" />
                  </div>","null","",""
"","","","","","html-keyboard-response","44","139091","0.0-32.0-3.0","AAE6A7BF55A54CA29822014110DEFF70","AAE6A7BF55A54CA29822014110DEFF70","2adc1140-0f29-4655-b370-9bc848e82e56","e622c465-ee29-4445-8260-1f3431e06587","{""participantId"":""AAE6A7BF55A54CA29822014110DEFF70"",""assignmentId"":""2adc1140-0f29-4655-b370-9bc848e82e56"",""projectId"":""e622c465-ee29-4445-8260-1f3431e06587""}","https://test12345.live/?participantId=AAE6A7BF55A54CA29822014110DEFF70&assignmentId=2adc1140-0f29-4655-b370-9bc848e82e56&projectId=e622c465-ee29-4445-8260-1f3431e06587","","null","<div style=""display: flex; justify-content: center; align-items: center;"">
                    <img src=""images/semantic/semantic_series_4/semantic_series_4_d.jpg"" style=""width: 300px; height: 300px;"" />
                  </div>","null","",""
"","","","","","html-button-response","45","142091","0.0-33.0","AAE6A7BF55A54CA29822014110DEFF70","AAE6A7BF55A54CA29822014110DEFF70","2adc1140-0f29-4655-b370-9bc848e82e56","e622c465-ee29-4445-8260-1f3431e06587","{""participantId"":""AAE6A7BF55A54CA29822014110DEFF70"",""assignmentId"":""2adc1140-0f29-4655-b370-9bc848e82e56"",""projectId"":""e622c465-ee29-4445-8260-1f3431e06587""}","https://test12345.live/?participantId=AAE6A7BF55A54CA29822014110DEFF70&assignmentId=2adc1140-0f29-4655-b370-9bc848e82e56&projectId=e622c465-ee29-4445-8260-1f3431e06587","","2998","Was there a person in the picture?","1","",""
"","","","","","survey-likert","46","144919","0.0-34.0","AAE6A7BF55A54CA29822014110DEFF70","AAE6A7BF55A54CA29822014110DEFF70","2adc1140-0f29-4655-b370-9bc848e82e56","e622c465-ee29-4445-8260-1f3431e06587","{""participantId"":""AAE6A7BF55A54CA29822014110DEFF70"",""assignmentId"":""2adc1140-0f29-4655-b370-9bc848e82e56"",""projectId"":""e622c465-ee29-4445-8260-1f3431e06587""}","https://test12345.live/?participantId=AAE6A7BF55A54CA29822014110DEFF70&assignmentId=2adc1140-0f29-4655-b370-9bc848e82e56&projectId=e622c465-ee29-4445-8260-1f3431e06587","","2827","","{""Q0"":3}","","[0]"
"","","","","","html-button-response","47","146149","0.0-35.0","AAE6A7BF55A54CA29822014110DEFF70","AAE6A7BF55A54CA29822014110DEFF70","2adc1140-0f29-4655-b370-9bc848e82e56","e622c465-ee29-4445-8260-1f3431e06587","{""participantId"":""AAE6A7BF55A54CA29822014110DEFF70"",""assignmentId"":""2adc1140-0f29-4655-b370-9bc848e82e56"",""projectId"":""e622c465-ee29-4445-8260-1f3431e06587""}","https://test12345.live/?participantId=AAE6A7BF55A54CA29822014110DEFF70&assignmentId=2adc1140-0f29-4655-b370-9bc848e82e56&projectId=e622c465-ee29-4445-8260-1f3431e06587","","1229","
    <div style=""display: flex; justify-content: center; align-items: center;"">
      <img src=""images/blue_deck_1.png"" style=""width: 300px; height: 300px; margin-right: 10px;"" />
      <img src=""images/red_deck_2.png"" style=""width: 300px; height: 300px;"" />
    </div>","0","0",""
"","","","","","html-keyboard-response","48","149151","0.0-36.0-0.0","AAE6A7BF55A54CA29822014110DEFF70","AAE6A7BF55A54CA29822014110DEFF70","2adc1140-0f29-4655-b370-9bc848e82e56","e622c465-ee29-4445-8260-1f3431e06587","{""participantId"":""AAE6A7BF55A54CA29822014110DEFF70"",""assignmentId"":""2adc1140-0f29-4655-b370-9bc848e82e56"",""projectId"":""e622c465-ee29-4445-8260-1f3431e06587""}","https://test12345.live/?participantId=AAE6A7BF55A54CA29822014110DEFF70&assignmentId=2adc1140-0f29-4655-b370-9bc848e82e56&projectId=e622c465-ee29-4445-8260-1f3431e06587","","null","<div style=""display: flex; justify-content: center; align-items: center;"">
                    <img src=""images/causal/causal_series_3/causal_series_3_a.jpg"" style=""width: 300px; height: 300px;"" />
                  </div>","null","",""
"","","","","","html-keyboard-response","49","152151","0.0-36.0-1.0","AAE6A7BF55A54CA29822014110DEFF70","AAE6A7BF55A54CA29822014110DEFF70","2adc1140-0f29-4655-b370-9bc848e82e56","e622c465-ee29-4445-8260-1f3431e06587","{""participantId"":""AAE6A7BF55A54CA29822014110DEFF70"",""assignmentId"":""2adc1140-0f29-4655-b370-9bc848e82e56"",""projectId"":""e622c465-ee29-4445-8260-1f3431e06587""}","https://test12345.live/?participantId=AAE6A7BF55A54CA29822014110DEFF70&assignmentId=2adc1140-0f29-4655-b370-9bc848e82e56&projectId=e622c465-ee29-4445-8260-1f3431e06587","","null","<div style=""display: flex; justify-content: center; align-items: center;"">
                    <img src=""images/causal/causal_series_3/causal_series_3_b.jpg"" style=""width: 300px; height: 300px;"" />
                  </div>","null","",""
"","","","","","html-keyboard-response","50","155153","0.0-36.0-2.0","AAE6A7BF55A54CA29822014110DEFF70","AAE6A7BF55A54CA29822014110DEFF70","2adc1140-0f29-4655-b370-9bc848e82e56","e622c465-ee29-4445-8260-1f3431e06587","{""participantId"":""AAE6A7BF55A54CA29822014110DEFF70"",""assignmentId"":""2adc1140-0f29-4655-b370-9bc848e82e56"",""projectId"":""e622c465-ee29-4445-8260-1f3431e06587""}","https://test12345.live/?participantId=AAE6A7BF55A54CA29822014110DEFF70&assignmentId=2adc1140-0f29-4655-b370-9bc848e82e56&projectId=e622c465-ee29-4445-8260-1f3431e06587","","null","<div style=""display: flex; justify-content: center; align-items: center;"">
                    <img src=""images/causal/causal_series_3/causal_series_3_c.jpg"" style=""width: 300px; height: 300px;"" />
                  </div>","null","",""
"","","","","","html-keyboard-response","51","158153","0.0-36.0-3.0","AAE6A7BF55A54CA29822014110DEFF70","AAE6A7BF55A54CA29822014110DEFF70","2adc1140-0f29-4655-b370-9bc848e82e56","e622c465-ee29-4445-8260-1f3431e06587","{""participantId"":""AAE6A7BF55A54CA29822014110DEFF70"",""assignmentId"":""2adc1140-0f29-4655-b370-9bc848e82e56"",""projectId"":""e622c465-ee29-4445-8260-1f3431e06587""}","https://test12345.live/?participantId=AAE6A7BF55A54CA29822014110DEFF70&assignmentId=2adc1140-0f29-4655-b370-9bc848e82e56&projectId=e622c465-ee29-4445-8260-1f3431e06587","","null","<div style=""display: flex; justify-content: center; align-items: center;"">
                    <img src=""images/causal/causal_series_3/causal_series_3_d.jpg"" style=""width: 300px; height: 300px;"" />
                  </div>","null","",""
"","","","","","html-button-response","52","159859","0.0-38.0","AAE6A7BF55A54CA29822014110DEFF70","AAE6A7BF55A54CA29822014110DEFF70","2adc1140-0f29-4655-b370-9bc848e82e56","e622c465-ee29-4445-8260-1f3431e06587","{""participantId"":""AAE6A7BF55A54CA29822014110DEFF70"",""assignmentId"":""2adc1140-0f29-4655-b370-9bc848e82e56"",""projectId"":""e622c465-ee29-4445-8260-1f3431e06587""}","https://test12345.live/?participantId=AAE6A7BF55A54CA29822014110DEFF70&assignmentId=2adc1140-0f29-4655-b370-9bc848e82e56&projectId=e622c465-ee29-4445-8260-1f3431e06587","","1704","Was there a person in the picture?","0","",""
"","","","","","survey-likert","53","162572","0.0-39.0","AAE6A7BF55A54CA29822014110DEFF70","AAE6A7BF55A54CA29822014110DEFF70","2adc1140-0f29-4655-b370-9bc848e82e56","e622c465-ee29-4445-8260-1f3431e06587","{""participantId"":""AAE6A7BF55A54CA29822014110DEFF70"",""assignmentId"":""2adc1140-0f29-4655-b370-9bc848e82e56"",""projectId"":""e622c465-ee29-4445-8260-1f3431e06587""}","https://test12345.live/?participantId=AAE6A7BF55A54CA29822014110DEFF70&assignmentId=2adc1140-0f29-4655-b370-9bc848e82e56&projectId=e622c465-ee29-4445-8260-1f3431e06587","","2712","","{""Q0"":3}","","[0]"
"","","","","","html-button-response","54","164072","0.0-40.0","AAE6A7BF55A54CA29822014110DEFF70","AAE6A7BF55A54CA29822014110DEFF70","2adc1140-0f29-4655-b370-9bc848e82e56","e622c465-ee29-4445-8260-1f3431e06587","{""participantId"":""AAE6A7BF55A54CA29822014110DEFF70"",""assignmentId"":""2adc1140-0f29-4655-b370-9bc848e82e56"",""projectId"":""e622c465-ee29-4445-8260-1f3431e06587""}","https://test12345.live/?participantId=AAE6A7BF55A54CA29822014110DEFF70&assignmentId=2adc1140-0f29-4655-b370-9bc848e82e56&projectId=e622c465-ee29-4445-8260-1f3431e06587","","1499","
    <div style=""display: flex; justify-content: center; align-items: center;"">
      <img src=""images/blue_deck_1.png"" style=""width: 300px; height: 300px; margin-right: 10px;"" />
      <img src=""images/red_deck_2.png"" style=""width: 300px; height: 300px;"" />
    </div>","1","1",""
"","","","","","html-keyboard-response","55","167074","0.0-42.0-0.0","AAE6A7BF55A54CA29822014110DEFF70","AAE6A7BF55A54CA29822014110DEFF70","2adc1140-0f29-4655-b370-9bc848e82e56","e622c465-ee29-4445-8260-1f3431e06587","{""participantId"":""AAE6A7BF55A54CA29822014110DEFF70"",""assignmentId"":""2adc1140-0f29-4655-b370-9bc848e82e56"",""projectId"":""e622c465-ee29-4445-8260-1f3431e06587""}","https://test12345.live/?participantId=AAE6A7BF55A54CA29822014110DEFF70&assignmentId=2adc1140-0f29-4655-b370-9bc848e82e56&projectId=e622c465-ee29-4445-8260-1f3431e06587","","null","<div style=""display: flex; justify-content: center; align-items: center;"">
                    <img src=""images/semantic/semantic_series_13/semantic_series_13_a.jpg"" style=""width: 300px; height: 300px;"" />
                  </div>","null","",""
"","","","","","html-keyboard-response","56","170075","0.0-42.0-1.0","AAE6A7BF55A54CA29822014110DEFF70","AAE6A7BF55A54CA29822014110DEFF70","2adc1140-0f29-4655-b370-9bc848e82e56","e622c465-ee29-4445-8260-1f3431e06587","{""participantId"":""AAE6A7BF55A54CA29822014110DEFF70"",""assignmentId"":""2adc1140-0f29-4655-b370-9bc848e82e56"",""projectId"":""e622c465-ee29-4445-8260-1f3431e06587""}","https://test12345.live/?participantId=AAE6A7BF55A54CA29822014110DEFF70&assignmentId=2adc1140-0f29-4655-b370-9bc848e82e56&projectId=e622c465-ee29-4445-8260-1f3431e06587","","null","<div style=""display: flex; justify-content: center; align-items: center;"">
                    <img src=""images/semantic/semantic_series_13/semantic_series_13_b.jpg"" style=""width: 300px; height: 300px;"" />
                  </div>","null","",""
"","","","","","html-keyboard-response","57","173076","0.0-42.0-2.0","AAE6A7BF55A54CA29822014110DEFF70","AAE6A7BF55A54CA29822014110DEFF70","2adc1140-0f29-4655-b370-9bc848e82e56","e622c465-ee29-4445-8260-1f3431e06587","{""participantId"":""AAE6A7BF55A54CA29822014110DEFF70"",""assignmentId"":""2adc1140-0f29-4655-b370-9bc848e82e56"",""projectId"":""e622c465-ee29-4445-8260-1f3431e06587""}","https://test12345.live/?participantId=AAE6A7BF55A54CA29822014110DEFF70&assignmentId=2adc1140-0f29-4655-b370-9bc848e82e56&projectId=e622c465-ee29-4445-8260-1f3431e06587","","null","<div style=""display: flex; justify-content: center; align-items: center;"">
                    <img src=""images/semantic/semantic_series_13/semantic_series_13_c.jpg"" style=""width: 300px; height: 300px;"" />
                  </div>","null","",""
"","","","","","html-keyboard-response","58","176078","0.0-42.0-3.0","AAE6A7BF55A54CA29822014110DEFF70","AAE6A7BF55A54CA29822014110DEFF70","2adc1140-0f29-4655-b370-9bc848e82e56","e622c465-ee29-4445-8260-1f3431e06587","{""participantId"":""AAE6A7BF55A54CA29822014110DEFF70"",""assignmentId"":""2adc1140-0f29-4655-b370-9bc848e82e56"",""projectId"":""e622c465-ee29-4445-8260-1f3431e06587""}","https://test12345.live/?participantId=AAE6A7BF55A54CA29822014110DEFF70&assignmentId=2adc1140-0f29-4655-b370-9bc848e82e56&projectId=e622c465-ee29-4445-8260-1f3431e06587","","null","<div style=""display: flex; justify-content: center; align-items: center;"">
                    <img src=""images/semantic/semantic_series_13/semantic_series_13_d.jpg"" style=""width: 300px; height: 300px;"" />
                  </div>","null","",""
"","","","","","html-button-response","59","178115","0.0-43.0","AAE6A7BF55A54CA29822014110DEFF70","AAE6A7BF55A54CA29822014110DEFF70","2adc1140-0f29-4655-b370-9bc848e82e56","e622c465-ee29-4445-8260-1f3431e06587","{""participantId"":""AAE6A7BF55A54CA29822014110DEFF70"",""assignmentId"":""2adc1140-0f29-4655-b370-9bc848e82e56"",""projectId"":""e622c465-ee29-4445-8260-1f3431e06587""}","https://test12345.live/?participantId=AAE6A7BF55A54CA29822014110DEFF70&assignmentId=2adc1140-0f29-4655-b370-9bc848e82e56&projectId=e622c465-ee29-4445-8260-1f3431e06587","","2036","Was there a person in the picture?","0","",""
"","","","","","survey-likert","60","180525","0.0-44.0","AAE6A7BF55A54CA29822014110DEFF70","AAE6A7BF55A54CA29822014110DEFF70","2adc1140-0f29-4655-b370-9bc848e82e56","e622c465-ee29-4445-8260-1f3431e06587","{""participantId"":""AAE6A7BF55A54CA29822014110DEFF70"",""assignmentId"":""2adc1140-0f29-4655-b370-9bc848e82e56"",""projectId"":""e622c465-ee29-4445-8260-1f3431e06587""}","https://test12345.live/?participantId=AAE6A7BF55A54CA29822014110DEFF70&assignmentId=2adc1140-0f29-4655-b370-9bc848e82e56&projectId=e622c465-ee29-4445-8260-1f3431e06587","","2410","","{""Q0"":1}","","[0]"
"","","","","","html-button-response","61","182011","0.0-45.0","AAE6A7BF55A54CA29822014110DEFF70","AAE6A7BF55A54CA29822014110DEFF70","2adc1140-0f29-4655-b370-9bc848e82e56","e622c465-ee29-4445-8260-1f3431e06587","{""participantId"":""AAE6A7BF55A54CA29822014110DEFF70"",""assignmentId"":""2adc1140-0f29-4655-b370-9bc848e82e56"",""projectId"":""e622c465-ee29-4445-8260-1f3431e06587""}","https://test12345.live/?participantId=AAE6A7BF55A54CA29822014110DEFF70&assignmentId=2adc1140-0f29-4655-b370-9bc848e82e56&projectId=e622c465-ee29-4445-8260-1f3431e06587","","1484","
    <div style=""display: flex; justify-content: center; align-items: center;"">
      <img src=""images/blue_deck_1.png"" style=""width: 300px; height: 300px; margin-right: 10px;"" />
      <img src=""images/red_deck_2.png"" style=""width: 300px; height: 300px;"" />
    </div>","0","0",""
"","","","","","html-keyboard-response","62","185012","0.0-46.0-0.0","AAE6A7BF55A54CA29822014110DEFF70","AAE6A7BF55A54CA29822014110DEFF70","2adc1140-0f29-4655-b370-9bc848e82e56","e622c465-ee29-4445-8260-1f3431e06587","{""participantId"":""AAE6A7BF55A54CA29822014110DEFF70"",""assignmentId"":""2adc1140-0f29-4655-b370-9bc848e82e56"",""projectId"":""e622c465-ee29-4445-8260-1f3431e06587""}","https://test12345.live/?participantId=AAE6A7BF55A54CA29822014110DEFF70&assignmentId=2adc1140-0f29-4655-b370-9bc848e82e56&projectId=e622c465-ee29-4445-8260-1f3431e06587","","null","<div style=""display: flex; justify-content: center; align-items: center;"">
                    <img src=""images/causal/causal_series_9/causal_series_9_a.jpg"" style=""width: 300px; height: 300px;"" />
                  </div>","null","",""
"","","","","","html-keyboard-response","63","188014","0.0-46.0-1.0","AAE6A7BF55A54CA29822014110DEFF70","AAE6A7BF55A54CA29822014110DEFF70","2adc1140-0f29-4655-b370-9bc848e82e56","e622c465-ee29-4445-8260-1f3431e06587","{""participantId"":""AAE6A7BF55A54CA29822014110DEFF70"",""assignmentId"":""2adc1140-0f29-4655-b370-9bc848e82e56"",""projectId"":""e622c465-ee29-4445-8260-1f3431e06587""}","https://test12345.live/?participantId=AAE6A7BF55A54CA29822014110DEFF70&assignmentId=2adc1140-0f29-4655-b370-9bc848e82e56&projectId=e622c465-ee29-4445-8260-1f3431e06587","","null","<div style=""display: flex; justify-content: center; align-items: center;"">
                    <img src=""images/causal/causal_series_9/causal_series_9_b.jpg"" style=""width: 300px; height: 300px;"" />
                  </div>","null","",""
"","","","","","html-keyboard-response","64","191016","0.0-46.0-2.0","AAE6A7BF55A54CA29822014110DEFF70","AAE6A7BF55A54CA29822014110DEFF70","2adc1140-0f29-4655-b370-9bc848e82e56","e622c465-ee29-4445-8260-1f3431e06587","{""participantId"":""AAE6A7BF55A54CA29822014110DEFF70"",""assignmentId"":""2adc1140-0f29-4655-b370-9bc848e82e56"",""projectId"":""e622c465-ee29-4445-8260-1f3431e06587""}","https://test12345.live/?participantId=AAE6A7BF55A54CA29822014110DEFF70&assignmentId=2adc1140-0f29-4655-b370-9bc848e82e56&projectId=e622c465-ee29-4445-8260-1f3431e06587","","null","<div style=""display: flex; justify-content: center; align-items: center;"">
                    <img src=""images/causal/causal_series_9/causal_series_9_c.jpg"" style=""width: 300px; height: 300px;"" />
                  </div>","null","",""
"","","","","","html-keyboard-response","65","194017","0.0-46.0-3.0","AAE6A7BF55A54CA29822014110DEFF70","AAE6A7BF55A54CA29822014110DEFF70","2adc1140-0f29-4655-b370-9bc848e82e56","e622c465-ee29-4445-8260-1f3431e06587","{""participantId"":""AAE6A7BF55A54CA29822014110DEFF70"",""assignmentId"":""2adc1140-0f29-4655-b370-9bc848e82e56"",""projectId"":""e622c465-ee29-4445-8260-1f3431e06587""}","https://test12345.live/?participantId=AAE6A7BF55A54CA29822014110DEFF70&assignmentId=2adc1140-0f29-4655-b370-9bc848e82e56&projectId=e622c465-ee29-4445-8260-1f3431e06587","","null","<div style=""display: flex; justify-content: center; align-items: center;"">
                    <img src=""images/causal/causal_series_9/causal_series_9_d.jpg"" style=""width: 300px; height: 300px;"" />
                  </div>","null","",""
"","","","","","html-button-response","66","195848","0.0-48.0","AAE6A7BF55A54CA29822014110DEFF70","AAE6A7BF55A54CA29822014110DEFF70","2adc1140-0f29-4655-b370-9bc848e82e56","e622c465-ee29-4445-8260-1f3431e06587","{""participantId"":""AAE6A7BF55A54CA29822014110DEFF70"",""assignmentId"":""2adc1140-0f29-4655-b370-9bc848e82e56"",""projectId"":""e622c465-ee29-4445-8260-1f3431e06587""}","https://test12345.live/?participantId=AAE6A7BF55A54CA29822014110DEFF70&assignmentId=2adc1140-0f29-4655-b370-9bc848e82e56&projectId=e622c465-ee29-4445-8260-1f3431e06587","","1830","Was there a person in the picture?","1","",""
"","","","","","survey-likert","67","199726","0.0-49.0","AAE6A7BF55A54CA29822014110DEFF70","AAE6A7BF55A54CA29822014110DEFF70","2adc1140-0f29-4655-b370-9bc848e82e56","e622c465-ee29-4445-8260-1f3431e06587","{""participantId"":""AAE6A7BF55A54CA29822014110DEFF70"",""assignmentId"":""2adc1140-0f29-4655-b370-9bc848e82e56"",""projectId"":""e622c465-ee29-4445-8260-1f3431e06587""}","https://test12345.live/?participantId=AAE6A7BF55A54CA29822014110DEFF70&assignmentId=2adc1140-0f29-4655-b370-9bc848e82e56&projectId=e622c465-ee29-4445-8260-1f3431e06587","","3877","","{""Q0"":4}","","[0]"
"","","","","","html-button-response","68","201371","0.0-50.0","AAE6A7BF55A54CA29822014110DEFF70","AAE6A7BF55A54CA29822014110DEFF70","2adc1140-0f29-4655-b370-9bc848e82e56","e622c465-ee29-4445-8260-1f3431e06587","{""participantId"":""AAE6A7BF55A54CA29822014110DEFF70"",""assignmentId"":""2adc1140-0f29-4655-b370-9bc848e82e56"",""projectId"":""e622c465-ee29-4445-8260-1f3431e06587""}","https://test12345.live/?participantId=AAE6A7BF55A54CA29822014110DEFF70&assignmentId=2adc1140-0f29-4655-b370-9bc848e82e56&projectId=e622c465-ee29-4445-8260-1f3431e06587","","1644","
    <div style=""display: flex; justify-content: center; align-items: center;"">
      <img src=""images/blue_deck_1.png"" style=""width: 300px; height: 300px; margin-right: 10px;"" />
      <img src=""images/red_deck_2.png"" style=""width: 300px; height: 300px;"" />
    </div>","1","1",""
"","","","","","html-keyboard-response","69","204373","0.0-52.0-0.0","AAE6A7BF55A54CA29822014110DEFF70","AAE6A7BF55A54CA29822014110DEFF70","2adc1140-0f29-4655-b370-9bc848e82e56","e622c465-ee29-4445-8260-1f3431e06587","{""participantId"":""AAE6A7BF55A54CA29822014110DEFF70"",""assignmentId"":""2adc1140-0f29-4655-b370-9bc848e82e56"",""projectId"":""e622c465-ee29-4445-8260-1f3431e06587""}","https://test12345.live/?participantId=AAE6A7BF55A54CA29822014110DEFF70&assignmentId=2adc1140-0f29-4655-b370-9bc848e82e56&projectId=e622c465-ee29-4445-8260-1f3431e06587","","null","<div style=""display: flex; justify-content: center; align-items: center;"">
                    <img src=""images/semantic/semantic_series_16/semantic_series_16_a.jpg"" style=""width: 300px; height: 300px;"" />
                  </div>","null","",""
"","","","","","html-keyboard-response","70","207375","0.0-52.0-1.0","AAE6A7BF55A54CA29822014110DEFF70","AAE6A7BF55A54CA29822014110DEFF70","2adc1140-0f29-4655-b370-9bc848e82e56","e622c465-ee29-4445-8260-1f3431e06587","{""participantId"":""AAE6A7BF55A54CA29822014110DEFF70"",""assignmentId"":""2adc1140-0f29-4655-b370-9bc848e82e56"",""projectId"":""e622c465-ee29-4445-8260-1f3431e06587""}","https://test12345.live/?participantId=AAE6A7BF55A54CA29822014110DEFF70&assignmentId=2adc1140-0f29-4655-b370-9bc848e82e56&projectId=e622c465-ee29-4445-8260-1f3431e06587","","null","<div style=""display: flex; justify-content: center; align-items: center;"">
                    <img src=""images/semantic/semantic_series_16/semantic_series_16_b.jpg"" style=""width: 300px; height: 300px;"" />
                  </div>","null","",""
"","","","","","html-keyboard-response","71","210376","0.0-52.0-2.0","AAE6A7BF55A54CA29822014110DEFF70","AAE6A7BF55A54CA29822014110DEFF70","2adc1140-0f29-4655-b370-9bc848e82e56","e622c465-ee29-4445-8260-1f3431e06587","{""participantId"":""AAE6A7BF55A54CA29822014110DEFF70"",""assignmentId"":""2adc1140-0f29-4655-b370-9bc848e82e56"",""projectId"":""e622c465-ee29-4445-8260-1f3431e06587""}","https://test12345.live/?participantId=AAE6A7BF55A54CA29822014110DEFF70&assignmentId=2adc1140-0f29-4655-b370-9bc848e82e56&projectId=e622c465-ee29-4445-8260-1f3431e06587","","null","<div style=""display: flex; justify-content: center; align-items: center;"">
                    <img src=""images/semantic/semantic_series_16/semantic_series_16_c.jpg"" style=""width: 300px; height: 300px;"" />
                  </div>","null","",""
"","","","","","html-keyboard-response","72","213377","0.0-52.0-3.0","AAE6A7BF55A54CA29822014110DEFF70","AAE6A7BF55A54CA29822014110DEFF70","2adc1140-0f29-4655-b370-9bc848e82e56","e622c465-ee29-4445-8260-1f3431e06587","{""participantId"":""AAE6A7BF55A54CA29822014110DEFF70"",""assignmentId"":""2adc1140-0f29-4655-b370-9bc848e82e56"",""projectId"":""e622c465-ee29-4445-8260-1f3431e06587""}","https://test12345.live/?participantId=AAE6A7BF55A54CA29822014110DEFF70&assignmentId=2adc1140-0f29-4655-b370-9bc848e82e56&projectId=e622c465-ee29-4445-8260-1f3431e06587","","null","<div style=""display: flex; justify-content: center; align-items: center;"">
                    <img src=""images/semantic/semantic_series_16/semantic_series_16_d.jpg"" style=""width: 300px; height: 300px;"" />
                  </div>","null","",""
"","","","","","html-button-response","73","215570","0.0-53.0","AAE6A7BF55A54CA29822014110DEFF70","AAE6A7BF55A54CA29822014110DEFF70","2adc1140-0f29-4655-b370-9bc848e82e56","e622c465-ee29-4445-8260-1f3431e06587","{""participantId"":""AAE6A7BF55A54CA29822014110DEFF70"",""assignmentId"":""2adc1140-0f29-4655-b370-9bc848e82e56"",""projectId"":""e622c465-ee29-4445-8260-1f3431e06587""}","https://test12345.live/?participantId=AAE6A7BF55A54CA29822014110DEFF70&assignmentId=2adc1140-0f29-4655-b370-9bc848e82e56&projectId=e622c465-ee29-4445-8260-1f3431e06587","","2192","Was there a person in the picture?","0","",""
"","","","","","survey-likert","74","217678","0.0-54.0","AAE6A7BF55A54CA29822014110DEFF70","AAE6A7BF55A54CA29822014110DEFF70","2adc1140-0f29-4655-b370-9bc848e82e56","e622c465-ee29-4445-8260-1f3431e06587","{""participantId"":""AAE6A7BF55A54CA29822014110DEFF70"",""assignmentId"":""2adc1140-0f29-4655-b370-9bc848e82e56"",""projectId"":""e622c465-ee29-4445-8260-1f3431e06587""}","https://test12345.live/?participantId=AAE6A7BF55A54CA29822014110DEFF70&assignmentId=2adc1140-0f29-4655-b370-9bc848e82e56&projectId=e622c465-ee29-4445-8260-1f3431e06587","","2107","","{""Q0"":1}","","[0]"
"","","","","","html-button-response","75","219678","0.0-55.0","AAE6A7BF55A54CA29822014110DEFF70","AAE6A7BF55A54CA29822014110DEFF70","2adc1140-0f29-4655-b370-9bc848e82e56","e622c465-ee29-4445-8260-1f3431e06587","{""participantId"":""AAE6A7BF55A54CA29822014110DEFF70"",""assignmentId"":""2adc1140-0f29-4655-b370-9bc848e82e56"",""projectId"":""e622c465-ee29-4445-8260-1f3431e06587""}","https://test12345.live/?participantId=AAE6A7BF55A54CA29822014110DEFF70&assignmentId=2adc1140-0f29-4655-b370-9bc848e82e56&projectId=e622c465-ee29-4445-8260-1f3431e06587","","1998","
    <div style=""display: flex; justify-content: center; align-items: center;"">
      <img src=""images/blue_deck_1.png"" style=""width: 300px; height: 300px; margin-right: 10px;"" />
      <img src=""images/red_deck_2.png"" style=""width: 300px; height: 300px;"" />
    </div>","1","1",""
"","","","","","html-keyboard-response","76","222680","0.0-57.0-0.0","AAE6A7BF55A54CA29822014110DEFF70","AAE6A7BF55A54CA29822014110DEFF70","2adc1140-0f29-4655-b370-9bc848e82e56","e622c465-ee29-4445-8260-1f3431e06587","{""participantId"":""AAE6A7BF55A54CA29822014110DEFF70"",""assignmentId"":""2adc1140-0f29-4655-b370-9bc848e82e56"",""projectId"":""e622c465-ee29-4445-8260-1f3431e06587""}","https://test12345.live/?participantId=AAE6A7BF55A54CA29822014110DEFF70&assignmentId=2adc1140-0f29-4655-b370-9bc848e82e56&projectId=e622c465-ee29-4445-8260-1f3431e06587","","null","<div style=""display: flex; justify-content: center; align-items: center;"">
                    <img src=""images/semantic/semantic_series_8/semantic_series_8_a.jpg"" style=""width: 300px; height: 300px;"" />
                  </div>","null","",""
"","","","","","html-keyboard-response","77","225681","0.0-57.0-1.0","AAE6A7BF55A54CA29822014110DEFF70","AAE6A7BF55A54CA29822014110DEFF70","2adc1140-0f29-4655-b370-9bc848e82e56","e622c465-ee29-4445-8260-1f3431e06587","{""participantId"":""AAE6A7BF55A54CA29822014110DEFF70"",""assignmentId"":""2adc1140-0f29-4655-b370-9bc848e82e56"",""projectId"":""e622c465-ee29-4445-8260-1f3431e06587""}","https://test12345.live/?participantId=AAE6A7BF55A54CA29822014110DEFF70&assignmentId=2adc1140-0f29-4655-b370-9bc848e82e56&projectId=e622c465-ee29-4445-8260-1f3431e06587","","null","<div style=""display: flex; justify-content: center; align-items: center;"">
                    <img src=""images/semantic/semantic_series_8/semantic_series_8_b.jpg"" style=""width: 300px; height: 300px;"" />
                  </div>","null","",""
"","","","","","html-keyboard-response","78","228684","0.0-57.0-2.0","AAE6A7BF55A54CA29822014110DEFF70","AAE6A7BF55A54CA29822014110DEFF70","2adc1140-0f29-4655-b370-9bc848e82e56","e622c465-ee29-4445-8260-1f3431e06587","{""participantId"":""AAE6A7BF55A54CA29822014110DEFF70"",""assignmentId"":""2adc1140-0f29-4655-b370-9bc848e82e56"",""projectId"":""e622c465-ee29-4445-8260-1f3431e06587""}","https://test12345.live/?participantId=AAE6A7BF55A54CA29822014110DEFF70&assignmentId=2adc1140-0f29-4655-b370-9bc848e82e56&projectId=e622c465-ee29-4445-8260-1f3431e06587","","null","<div style=""display: flex; justify-content: center; align-items: center;"">
                    <img src=""images/semantic/semantic_series_8/semantic_series_8_c.jpg"" style=""width: 300px; height: 300px;"" />
                  </div>","null","",""
"","","","","","html-keyboard-response","79","231685","0.0-57.0-3.0","AAE6A7BF55A54CA29822014110DEFF70","AAE6A7BF55A54CA29822014110DEFF70","2adc1140-0f29-4655-b370-9bc848e82e56","e622c465-ee29-4445-8260-1f3431e06587","{""participantId"":""AAE6A7BF55A54CA29822014110DEFF70"",""assignmentId"":""2adc1140-0f29-4655-b370-9bc848e82e56"",""projectId"":""e622c465-ee29-4445-8260-1f3431e06587""}","https://test12345.live/?participantId=AAE6A7BF55A54CA29822014110DEFF70&assignmentId=2adc1140-0f29-4655-b370-9bc848e82e56&projectId=e622c465-ee29-4445-8260-1f3431e06587","","null","<div style=""display: flex; justify-content: center; align-items: center;"">
                    <img src=""images/semantic/semantic_series_8/semantic_series_8_d.jpg"" style=""width: 300px; height: 300px;"" />
                  </div>","null","",""
"","","","","","html-button-response","80","233350","0.0-58.0","AAE6A7BF55A54CA29822014110DEFF70","AAE6A7BF55A54CA29822014110DEFF70","2adc1140-0f29-4655-b370-9bc848e82e56","e622c465-ee29-4445-8260-1f3431e06587","{""participantId"":""AAE6A7BF55A54CA29822014110DEFF70"",""assignmentId"":""2adc1140-0f29-4655-b370-9bc848e82e56"",""projectId"":""e622c465-ee29-4445-8260-1f3431e06587""}","https://test12345.live/?participantId=AAE6A7BF55A54CA29822014110DEFF70&assignmentId=2adc1140-0f29-4655-b370-9bc848e82e56&projectId=e622c465-ee29-4445-8260-1f3431e06587","","1664","Was there a person in the picture?","1","",""
"","","","","","survey-likert","81","235796","0.0-59.0","AAE6A7BF55A54CA29822014110DEFF70","AAE6A7BF55A54CA29822014110DEFF70","2adc1140-0f29-4655-b370-9bc848e82e56","e622c465-ee29-4445-8260-1f3431e06587","{""participantId"":""AAE6A7BF55A54CA29822014110DEFF70"",""assignmentId"":""2adc1140-0f29-4655-b370-9bc848e82e56"",""projectId"":""e622c465-ee29-4445-8260-1f3431e06587""}","https://test12345.live/?participantId=AAE6A7BF55A54CA29822014110DEFF70&assignmentId=2adc1140-0f29-4655-b370-9bc848e82e56&projectId=e622c465-ee29-4445-8260-1f3431e06587","","2445","","{""Q0"":4}","","[0]"
"","","","","","html-button-response","82","238089","0.0-60.0","AAE6A7BF55A54CA29822014110DEFF70","AAE6A7BF55A54CA29822014110DEFF70","2adc1140-0f29-4655-b370-9bc848e82e56","e622c465-ee29-4445-8260-1f3431e06587","{""participantId"":""AAE6A7BF55A54CA29822014110DEFF70"",""assignmentId"":""2adc1140-0f29-4655-b370-9bc848e82e56"",""projectId"":""e622c465-ee29-4445-8260-1f3431e06587""}","https://test12345.live/?participantId=AAE6A7BF55A54CA29822014110DEFF70&assignmentId=2adc1140-0f29-4655-b370-9bc848e82e56&projectId=e622c465-ee29-4445-8260-1f3431e06587","","2291","
    <div style=""display: flex; justify-content: center; align-items: center;"">
      <img src=""images/blue_deck_1.png"" style=""width: 300px; height: 300px; margin-right: 10px;"" />
      <img src=""images/red_deck_2.png"" style=""width: 300px; height: 300px;"" />
    </div>","0","0",""
"","","","","","html-keyboard-response","83","241091","0.0-61.0-0.0","AAE6A7BF55A54CA29822014110DEFF70","AAE6A7BF55A54CA29822014110DEFF70","2adc1140-0f29-4655-b370-9bc848e82e56","e622c465-ee29-4445-8260-1f3431e06587","{""participantId"":""AAE6A7BF55A54CA29822014110DEFF70"",""assignmentId"":""2adc1140-0f29-4655-b370-9bc848e82e56"",""projectId"":""e622c465-ee29-4445-8260-1f3431e06587""}","https://test12345.live/?participantId=AAE6A7BF55A54CA29822014110DEFF70&assignmentId=2adc1140-0f29-4655-b370-9bc848e82e56&projectId=e622c465-ee29-4445-8260-1f3431e06587","","null","<div style=""display: flex; justify-content: center; align-items: center;"">
                    <img src=""images/causal/causal_series_11/causal_series_11_a.jpg"" style=""width: 300px; height: 300px;"" />
                  </div>","null","",""
"","","","","","html-keyboard-response","84","244092","0.0-61.0-1.0","AAE6A7BF55A54CA29822014110DEFF70","AAE6A7BF55A54CA29822014110DEFF70","2adc1140-0f29-4655-b370-9bc848e82e56","e622c465-ee29-4445-8260-1f3431e06587","{""participantId"":""AAE6A7BF55A54CA29822014110DEFF70"",""assignmentId"":""2adc1140-0f29-4655-b370-9bc848e82e56"",""projectId"":""e622c465-ee29-4445-8260-1f3431e06587""}","https://test12345.live/?participantId=AAE6A7BF55A54CA29822014110DEFF70&assignmentId=2adc1140-0f29-4655-b370-9bc848e82e56&projectId=e622c465-ee29-4445-8260-1f3431e06587","","null","<div style=""display: flex; justify-content: center; align-items: center;"">
                    <img src=""images/causal/causal_series_11/causal_series_11_b.jpg"" style=""width: 300px; height: 300px;"" />
                  </div>","null","",""
"","","","","","html-keyboard-response","85","247093","0.0-61.0-2.0","AAE6A7BF55A54CA29822014110DEFF70","AAE6A7BF55A54CA29822014110DEFF70","2adc1140-0f29-4655-b370-9bc848e82e56","e622c465-ee29-4445-8260-1f3431e06587","{""participantId"":""AAE6A7BF55A54CA29822014110DEFF70"",""assignmentId"":""2adc1140-0f29-4655-b370-9bc848e82e56"",""projectId"":""e622c465-ee29-4445-8260-1f3431e06587""}","https://test12345.live/?participantId=AAE6A7BF55A54CA29822014110DEFF70&assignmentId=2adc1140-0f29-4655-b370-9bc848e82e56&projectId=e622c465-ee29-4445-8260-1f3431e06587","","null","<div style=""display: flex; justify-content: center; align-items: center;"">
                    <img src=""images/causal/causal_series_11/causal_series_11_c.jpg"" style=""width: 300px; height: 300px;"" />
                  </div>","null","",""
"","","","","","html-keyboard-response","86","250094","0.0-61.0-3.0","AAE6A7BF55A54CA29822014110DEFF70","AAE6A7BF55A54CA29822014110DEFF70","2adc1140-0f29-4655-b370-9bc848e82e56","e622c465-ee29-4445-8260-1f3431e06587","{""participantId"":""AAE6A7BF55A54CA29822014110DEFF70"",""assignmentId"":""2adc1140-0f29-4655-b370-9bc848e82e56"",""projectId"":""e622c465-ee29-4445-8260-1f3431e06587""}","https://test12345.live/?participantId=AAE6A7BF55A54CA29822014110DEFF70&assignmentId=2adc1140-0f29-4655-b370-9bc848e82e56&projectId=e622c465-ee29-4445-8260-1f3431e06587","","null","<div style=""display: flex; justify-content: center; align-items: center;"">
                    <img src=""images/causal/causal_series_11/causal_series_11_d.jpg"" style=""width: 300px; height: 300px;"" />
                  </div>","null","",""
"","","","","","html-button-response","87","251264","0.0-63.0","AAE6A7BF55A54CA29822014110DEFF70","AAE6A7BF55A54CA29822014110DEFF70","2adc1140-0f29-4655-b370-9bc848e82e56","e622c465-ee29-4445-8260-1f3431e06587","{""participantId"":""AAE6A7BF55A54CA29822014110DEFF70"",""assignmentId"":""2adc1140-0f29-4655-b370-9bc848e82e56"",""projectId"":""e622c465-ee29-4445-8260-1f3431e06587""}","https://test12345.live/?participantId=AAE6A7BF55A54CA29822014110DEFF70&assignmentId=2adc1140-0f29-4655-b370-9bc848e82e56&projectId=e622c465-ee29-4445-8260-1f3431e06587","","1169","Was there a person in the picture?","0","",""
"","","","","","survey-likert","88","253403","0.0-64.0","AAE6A7BF55A54CA29822014110DEFF70","AAE6A7BF55A54CA29822014110DEFF70","2adc1140-0f29-4655-b370-9bc848e82e56","e622c465-ee29-4445-8260-1f3431e06587","{""participantId"":""AAE6A7BF55A54CA29822014110DEFF70"",""assignmentId"":""2adc1140-0f29-4655-b370-9bc848e82e56"",""projectId"":""e622c465-ee29-4445-8260-1f3431e06587""}","https://test12345.live/?participantId=AAE6A7BF55A54CA29822014110DEFF70&assignmentId=2adc1140-0f29-4655-b370-9bc848e82e56&projectId=e622c465-ee29-4445-8260-1f3431e06587","","2138","","{""Q0"":1}","","[0]"
"","","","","","html-button-response","89","254577","0.0-65.0","AAE6A7BF55A54CA29822014110DEFF70","AAE6A7BF55A54CA29822014110DEFF70","2adc1140-0f29-4655-b370-9bc848e82e56","e622c465-ee29-4445-8260-1f3431e06587","{""participantId"":""AAE6A7BF55A54CA29822014110DEFF70"",""assignmentId"":""2adc1140-0f29-4655-b370-9bc848e82e56"",""projectId"":""e622c465-ee29-4445-8260-1f3431e06587""}","https://test12345.live/?participantId=AAE6A7BF55A54CA29822014110DEFF70&assignmentId=2adc1140-0f29-4655-b370-9bc848e82e56&projectId=e622c465-ee29-4445-8260-1f3431e06587","","1173","
    <div style=""display: flex; justify-content: center; align-items: center;"">
      <img src=""images/blue_deck_1.png"" style=""width: 300px; height: 300px; margin-right: 10px;"" />
      <img src=""images/red_deck_2.png"" style=""width: 300px; height: 300px;"" />
    </div>","1","1",""
"","","","","","html-keyboard-response","90","257579","0.0-67.0-0.0","AAE6A7BF55A54CA29822014110DEFF70","AAE6A7BF55A54CA29822014110DEFF70","2adc1140-0f29-4655-b370-9bc848e82e56","e622c465-ee29-4445-8260-1f3431e06587","{""participantId"":""AAE6A7BF55A54CA29822014110DEFF70"",""assignmentId"":""2adc1140-0f29-4655-b370-9bc848e82e56"",""projectId"":""e622c465-ee29-4445-8260-1f3431e06587""}","https://test12345.live/?participantId=AAE6A7BF55A54CA29822014110DEFF70&assignmentId=2adc1140-0f29-4655-b370-9bc848e82e56&projectId=e622c465-ee29-4445-8260-1f3431e06587","","null","<div style=""display: flex; justify-content: center; align-items: center;"">
                    <img src=""images/semantic/semantic_series_1/semantic_series_1_a.jpg"" style=""width: 300px; height: 300px;"" />
                  </div>","null","",""
"","","","","","html-keyboard-response","91","260581","0.0-67.0-1.0","AAE6A7BF55A54CA29822014110DEFF70","AAE6A7BF55A54CA29822014110DEFF70","2adc1140-0f29-4655-b370-9bc848e82e56","e622c465-ee29-4445-8260-1f3431e06587","{""participantId"":""AAE6A7BF55A54CA29822014110DEFF70"",""assignmentId"":""2adc1140-0f29-4655-b370-9bc848e82e56"",""projectId"":""e622c465-ee29-4445-8260-1f3431e06587""}","https://test12345.live/?participantId=AAE6A7BF55A54CA29822014110DEFF70&assignmentId=2adc1140-0f29-4655-b370-9bc848e82e56&projectId=e622c465-ee29-4445-8260-1f3431e06587","","null","<div style=""display: flex; justify-content: center; align-items: center;"">
                    <img src=""images/semantic/semantic_series_1/semantic_series_1_b.jpg"" style=""width: 300px; height: 300px;"" />
                  </div>","null","",""
"","","","","","html-keyboard-response","92","263583","0.0-67.0-2.0","AAE6A7BF55A54CA29822014110DEFF70","AAE6A7BF55A54CA29822014110DEFF70","2adc1140-0f29-4655-b370-9bc848e82e56","e622c465-ee29-4445-8260-1f3431e06587","{""participantId"":""AAE6A7BF55A54CA29822014110DEFF70"",""assignmentId"":""2adc1140-0f29-4655-b370-9bc848e82e56"",""projectId"":""e622c465-ee29-4445-8260-1f3431e06587""}","https://test12345.live/?participantId=AAE6A7BF55A54CA29822014110DEFF70&assignmentId=2adc1140-0f29-4655-b370-9bc848e82e56&projectId=e622c465-ee29-4445-8260-1f3431e06587","","null","<div style=""display: flex; justify-content: center; align-items: center;"">
                    <img src=""images/semantic/semantic_series_1/semantic_series_1_c.jpg"" style=""width: 300px; height: 300px;"" />
                  </div>","null","",""
"","","","","","html-keyboard-response","93","266584","0.0-67.0-3.0","AAE6A7BF55A54CA29822014110DEFF70","AAE6A7BF55A54CA29822014110DEFF70","2adc1140-0f29-4655-b370-9bc848e82e56","e622c465-ee29-4445-8260-1f3431e06587","{""participantId"":""AAE6A7BF55A54CA29822014110DEFF70"",""assignmentId"":""2adc1140-0f29-4655-b370-9bc848e82e56"",""projectId"":""e622c465-ee29-4445-8260-1f3431e06587""}","https://test12345.live/?participantId=AAE6A7BF55A54CA29822014110DEFF70&assignmentId=2adc1140-0f29-4655-b370-9bc848e82e56&projectId=e622c465-ee29-4445-8260-1f3431e06587","","null","<div style=""display: flex; justify-content: center; align-items: center;"">
                    <img src=""images/semantic/semantic_series_1/semantic_series_1_d.jpg"" style=""width: 300px; height: 300px;"" />
                  </div>","null","",""
"","","","","","html-button-response","94","268968","0.0-68.0","AAE6A7BF55A54CA29822014110DEFF70","AAE6A7BF55A54CA29822014110DEFF70","2adc1140-0f29-4655-b370-9bc848e82e56","e622c465-ee29-4445-8260-1f3431e06587","{""participantId"":""AAE6A7BF55A54CA29822014110DEFF70"",""assignmentId"":""2adc1140-0f29-4655-b370-9bc848e82e56"",""projectId"":""e622c465-ee29-4445-8260-1f3431e06587""}","https://test12345.live/?participantId=AAE6A7BF55A54CA29822014110DEFF70&assignmentId=2adc1140-0f29-4655-b370-9bc848e82e56&projectId=e622c465-ee29-4445-8260-1f3431e06587","","2382","Was there a person in the picture?","0","",""
"","","","","","survey-likert","95","270797","0.0-69.0","AAE6A7BF55A54CA29822014110DEFF70","AAE6A7BF55A54CA29822014110DEFF70","2adc1140-0f29-4655-b370-9bc848e82e56","e622c465-ee29-4445-8260-1f3431e06587","{""participantId"":""AAE6A7BF55A54CA29822014110DEFF70"",""assignmentId"":""2adc1140-0f29-4655-b370-9bc848e82e56"",""projectId"":""e622c465-ee29-4445-8260-1f3431e06587""}","https://test12345.live/?participantId=AAE6A7BF55A54CA29822014110DEFF70&assignmentId=2adc1140-0f29-4655-b370-9bc848e82e56&projectId=e622c465-ee29-4445-8260-1f3431e06587","","1828","","{""Q0"":2}","","[0]"
"","","","","","html-button-response","96","271900","0.0-70.0","AAE6A7BF55A54CA29822014110DEFF70","AAE6A7BF55A54CA29822014110DEFF70","2adc1140-0f29-4655-b370-9bc848e82e56","e622c465-ee29-4445-8260-1f3431e06587","{""participantId"":""AAE6A7BF55A54CA29822014110DEFF70"",""assignmentId"":""2adc1140-0f29-4655-b370-9bc848e82e56"",""projectId"":""e622c465-ee29-4445-8260-1f3431e06587""}","https://test12345.live/?participantId=AAE6A7BF55A54CA29822014110DEFF70&assignmentId=2adc1140-0f29-4655-b370-9bc848e82e56&projectId=e622c465-ee29-4445-8260-1f3431e06587","","1101","
    <div style=""display: flex; justify-content: center; align-items: center;"">
      <img src=""images/blue_deck_1.png"" style=""width: 300px; height: 300px; margin-right: 10px;"" />
      <img src=""images/red_deck_2.png"" style=""width: 300px; height: 300px;"" />
    </div>","0","0",""
"","","","","","html-keyboard-response","97","274903","0.0-71.0-0.0","AAE6A7BF55A54CA29822014110DEFF70","AAE6A7BF55A54CA29822014110DEFF70","2adc1140-0f29-4655-b370-9bc848e82e56","e622c465-ee29-4445-8260-1f3431e06587","{""participantId"":""AAE6A7BF55A54CA29822014110DEFF70"",""assignmentId"":""2adc1140-0f29-4655-b370-9bc848e82e56"",""projectId"":""e622c465-ee29-4445-8260-1f3431e06587""}","https://test12345.live/?participantId=AAE6A7BF55A54CA29822014110DEFF70&assignmentId=2adc1140-0f29-4655-b370-9bc848e82e56&projectId=e622c465-ee29-4445-8260-1f3431e06587","","null","<div style=""display: flex; justify-content: center; align-items: center;"">
                    <img src=""images/causal/causal_series_12/causal_series_12_a.jpg"" style=""width: 300px; height: 300px;"" />
                  </div>","null","",""
"","","","","","html-keyboard-response","98","277906","0.0-71.0-1.0","AAE6A7BF55A54CA29822014110DEFF70","AAE6A7BF55A54CA29822014110DEFF70","2adc1140-0f29-4655-b370-9bc848e82e56","e622c465-ee29-4445-8260-1f3431e06587","{""participantId"":""AAE6A7BF55A54CA29822014110DEFF70"",""assignmentId"":""2adc1140-0f29-4655-b370-9bc848e82e56"",""projectId"":""e622c465-ee29-4445-8260-1f3431e06587""}","https://test12345.live/?participantId=AAE6A7BF55A54CA29822014110DEFF70&assignmentId=2adc1140-0f29-4655-b370-9bc848e82e56&projectId=e622c465-ee29-4445-8260-1f3431e06587","","null","<div style=""display: flex; justify-content: center; align-items: center;"">
                    <img src=""images/causal/causal_series_12/causal_series_12_b.jpg"" style=""width: 300px; height: 300px;"" />
                  </div>","null","",""
"","","","","","html-keyboard-response","99","280907","0.0-71.0-2.0","AAE6A7BF55A54CA29822014110DEFF70","AAE6A7BF55A54CA29822014110DEFF70","2adc1140-0f29-4655-b370-9bc848e82e56","e622c465-ee29-4445-8260-1f3431e06587","{""participantId"":""AAE6A7BF55A54CA29822014110DEFF70"",""assignmentId"":""2adc1140-0f29-4655-b370-9bc848e82e56"",""projectId"":""e622c465-ee29-4445-8260-1f3431e06587""}","https://test12345.live/?participantId=AAE6A7BF55A54CA29822014110DEFF70&assignmentId=2adc1140-0f29-4655-b370-9bc848e82e56&projectId=e622c465-ee29-4445-8260-1f3431e06587","","null","<div style=""display: flex; justify-content: center; align-items: center;"">
                    <img src=""images/causal/causal_series_12/causal_series_12_c.jpg"" style=""width: 300px; height: 300px;"" />
                  </div>","null","",""
"","","","","","html-keyboard-response","100","283909","0.0-71.0-3.0","AAE6A7BF55A54CA29822014110DEFF70","AAE6A7BF55A54CA29822014110DEFF70","2adc1140-0f29-4655-b370-9bc848e82e56","e622c465-ee29-4445-8260-1f3431e06587","{""participantId"":""AAE6A7BF55A54CA29822014110DEFF70"",""assignmentId"":""2adc1140-0f29-4655-b370-9bc848e82e56"",""projectId"":""e622c465-ee29-4445-8260-1f3431e06587""}","https://test12345.live/?participantId=AAE6A7BF55A54CA29822014110DEFF70&assignmentId=2adc1140-0f29-4655-b370-9bc848e82e56&projectId=e622c465-ee29-4445-8260-1f3431e06587","","null","<div style=""display: flex; justify-content: center; align-items: center;"">
                    <img src=""images/causal/causal_series_12/causal_series_12_d.jpg"" style=""width: 300px; height: 300px;"" />
                  </div>","null","",""
"","","","","","html-button-response","101","285801","0.0-73.0","AAE6A7BF55A54CA29822014110DEFF70","AAE6A7BF55A54CA29822014110DEFF70","2adc1140-0f29-4655-b370-9bc848e82e56","e622c465-ee29-4445-8260-1f3431e06587","{""participantId"":""AAE6A7BF55A54CA29822014110DEFF70"",""assignmentId"":""2adc1140-0f29-4655-b370-9bc848e82e56"",""projectId"":""e622c465-ee29-4445-8260-1f3431e06587""}","https://test12345.live/?participantId=AAE6A7BF55A54CA29822014110DEFF70&assignmentId=2adc1140-0f29-4655-b370-9bc848e82e56&projectId=e622c465-ee29-4445-8260-1f3431e06587","","1891","Was there a person in the picture?","1","",""
"","","","","","survey-likert","102","288060","0.0-74.0","AAE6A7BF55A54CA29822014110DEFF70","AAE6A7BF55A54CA29822014110DEFF70","2adc1140-0f29-4655-b370-9bc848e82e56","e622c465-ee29-4445-8260-1f3431e06587","{""participantId"":""AAE6A7BF55A54CA29822014110DEFF70"",""assignmentId"":""2adc1140-0f29-4655-b370-9bc848e82e56"",""projectId"":""e622c465-ee29-4445-8260-1f3431e06587""}","https://test12345.live/?participantId=AAE6A7BF55A54CA29822014110DEFF70&assignmentId=2adc1140-0f29-4655-b370-9bc848e82e56&projectId=e622c465-ee29-4445-8260-1f3431e06587","","2258","","{""Q0"":3}","","[0]"
"","","","","","html-button-response","103","289715","0.0-75.0","AAE6A7BF55A54CA29822014110DEFF70","AAE6A7BF55A54CA29822014110DEFF70","2adc1140-0f29-4655-b370-9bc848e82e56","e622c465-ee29-4445-8260-1f3431e06587","{""participantId"":""AAE6A7BF55A54CA29822014110DEFF70"",""assignmentId"":""2adc1140-0f29-4655-b370-9bc848e82e56"",""projectId"":""e622c465-ee29-4445-8260-1f3431e06587""}","https://test12345.live/?participantId=AAE6A7BF55A54CA29822014110DEFF70&assignmentId=2adc1140-0f29-4655-b370-9bc848e82e56&projectId=e622c465-ee29-4445-8260-1f3431e06587","","1653","
    <div style=""display: flex; justify-content: center; align-items: center;"">
      <img src=""images/blue_deck_1.png"" style=""width: 300px; height: 300px; margin-right: 10px;"" />
      <img src=""images/red_deck_2.png"" style=""width: 300px; height: 300px;"" />
    </div>","0","0",""
"","","","","","html-keyboard-response","104","292716","0.0-76.0-0.0","AAE6A7BF55A54CA29822014110DEFF70","AAE6A7BF55A54CA29822014110DEFF70","2adc1140-0f29-4655-b370-9bc848e82e56","e622c465-ee29-4445-8260-1f3431e06587","{""participantId"":""AAE6A7BF55A54CA29822014110DEFF70"",""assignmentId"":""2adc1140-0f29-4655-b370-9bc848e82e56"",""projectId"":""e622c465-ee29-4445-8260-1f3431e06587""}","https://test12345.live/?participantId=AAE6A7BF55A54CA29822014110DEFF70&assignmentId=2adc1140-0f29-4655-b370-9bc848e82e56&projectId=e622c465-ee29-4445-8260-1f3431e06587","","null","<div style=""display: flex; justify-content: center; align-items: center;"">
                    <img src=""images/causal/causal_series_10/causal_series_10_a.jpg"" style=""width: 300px; height: 300px;"" />
                  </div>","null","",""
"","","","","","html-keyboard-response","105","295718","0.0-76.0-1.0","AAE6A7BF55A54CA29822014110DEFF70","AAE6A7BF55A54CA29822014110DEFF70","2adc1140-0f29-4655-b370-9bc848e82e56","e622c465-ee29-4445-8260-1f3431e06587","{""participantId"":""AAE6A7BF55A54CA29822014110DEFF70"",""assignmentId"":""2adc1140-0f29-4655-b370-9bc848e82e56"",""projectId"":""e622c465-ee29-4445-8260-1f3431e06587""}","https://test12345.live/?participantId=AAE6A7BF55A54CA29822014110DEFF70&assignmentId=2adc1140-0f29-4655-b370-9bc848e82e56&projectId=e622c465-ee29-4445-8260-1f3431e06587","","null","<div style=""display: flex; justify-content: center; align-items: center;"">
                    <img src=""images/causal/causal_series_10/causal_series_10_b.jpg"" style=""width: 300px; height: 300px;"" />
                  </div>","null","",""
"","","","","","html-keyboard-response","106","298719","0.0-76.0-2.0","AAE6A7BF55A54CA29822014110DEFF70","AAE6A7BF55A54CA29822014110DEFF70","2adc1140-0f29-4655-b370-9bc848e82e56","e622c465-ee29-4445-8260-1f3431e06587","{""participantId"":""AAE6A7BF55A54CA29822014110DEFF70"",""assignmentId"":""2adc1140-0f29-4655-b370-9bc848e82e56"",""projectId"":""e622c465-ee29-4445-8260-1f3431e06587""}","https://test12345.live/?participantId=AAE6A7BF55A54CA29822014110DEFF70&assignmentId=2adc1140-0f29-4655-b370-9bc848e82e56&projectId=e622c465-ee29-4445-8260-1f3431e06587","","null","<div style=""display: flex; justify-content: center; align-items: center;"">
                    <img src=""images/causal/causal_series_10/causal_series_10_c.jpg"" style=""width: 300px; height: 300px;"" />
                  </div>","null","",""
"","","","","","html-keyboard-response","107","301721","0.0-76.0-3.0","AAE6A7BF55A54CA29822014110DEFF70","AAE6A7BF55A54CA29822014110DEFF70","2adc1140-0f29-4655-b370-9bc848e82e56","e622c465-ee29-4445-8260-1f3431e06587","{""participantId"":""AAE6A7BF55A54CA29822014110DEFF70"",""assignmentId"":""2adc1140-0f29-4655-b370-9bc848e82e56"",""projectId"":""e622c465-ee29-4445-8260-1f3431e06587""}","https://test12345.live/?participantId=AAE6A7BF55A54CA29822014110DEFF70&assignmentId=2adc1140-0f29-4655-b370-9bc848e82e56&projectId=e622c465-ee29-4445-8260-1f3431e06587","","null","<div style=""display: flex; justify-content: center; align-items: center;"">
                    <img src=""images/causal/causal_series_10/causal_series_10_d.jpg"" style=""width: 300px; height: 300px;"" />
                  </div>","null","",""
"","","","","","html-button-response","108","303500","0.0-78.0","AAE6A7BF55A54CA29822014110DEFF70","AAE6A7BF55A54CA29822014110DEFF70","2adc1140-0f29-4655-b370-9bc848e82e56","e622c465-ee29-4445-8260-1f3431e06587","{""participantId"":""AAE6A7BF55A54CA29822014110DEFF70"",""assignmentId"":""2adc1140-0f29-4655-b370-9bc848e82e56"",""projectId"":""e622c465-ee29-4445-8260-1f3431e06587""}","https://test12345.live/?participantId=AAE6A7BF55A54CA29822014110DEFF70&assignmentId=2adc1140-0f29-4655-b370-9bc848e82e56&projectId=e622c465-ee29-4445-8260-1f3431e06587","","1778","Was there a person in the picture?","1","",""
"","","","","","survey-likert","109","305573","0.0-79.0","AAE6A7BF55A54CA29822014110DEFF70","AAE6A7BF55A54CA29822014110DEFF70","2adc1140-0f29-4655-b370-9bc848e82e56","e622c465-ee29-4445-8260-1f3431e06587","{""participantId"":""AAE6A7BF55A54CA29822014110DEFF70"",""assignmentId"":""2adc1140-0f29-4655-b370-9bc848e82e56"",""projectId"":""e622c465-ee29-4445-8260-1f3431e06587""}","https://test12345.live/?participantId=AAE6A7BF55A54CA29822014110DEFF70&assignmentId=2adc1140-0f29-4655-b370-9bc848e82e56&projectId=e622c465-ee29-4445-8260-1f3431e06587","","2071","","{""Q0"":3}","","[0]"
"","","","","","html-button-response","110","306852","0.0-80.0","AAE6A7BF55A54CA29822014110DEFF70","AAE6A7BF55A54CA29822014110DEFF70","2adc1140-0f29-4655-b370-9bc848e82e56","e622c465-ee29-4445-8260-1f3431e06587","{""participantId"":""AAE6A7BF55A54CA29822014110DEFF70"",""assignmentId"":""2adc1140-0f29-4655-b370-9bc848e82e56"",""projectId"":""e622c465-ee29-4445-8260-1f3431e06587""}","https://test12345.live/?participantId=AAE6A7BF55A54CA29822014110DEFF70&assignmentId=2adc1140-0f29-4655-b370-9bc848e82e56&projectId=e622c465-ee29-4445-8260-1f3431e06587","","1278","
    <div style=""display: flex; justify-content: center; align-items: center;"">
      <img src=""images/blue_deck_1.png"" style=""width: 300px; height: 300px; margin-right: 10px;"" />
      <img src=""images/red_deck_2.png"" style=""width: 300px; height: 300px;"" />
    </div>","1","1",""
"","","","","","html-keyboard-response","111","309854","0.0-82.0-0.0","AAE6A7BF55A54CA29822014110DEFF70","AAE6A7BF55A54CA29822014110DEFF70","2adc1140-0f29-4655-b370-9bc848e82e56","e622c465-ee29-4445-8260-1f3431e06587","{""participantId"":""AAE6A7BF55A54CA29822014110DEFF70"",""assignmentId"":""2adc1140-0f29-4655-b370-9bc848e82e56"",""projectId"":""e622c465-ee29-4445-8260-1f3431e06587""}","https://test12345.live/?participantId=AAE6A7BF55A54CA29822014110DEFF70&assignmentId=2adc1140-0f29-4655-b370-9bc848e82e56&projectId=e622c465-ee29-4445-8260-1f3431e06587","","null","<div style=""display: flex; justify-content: center; align-items: center;"">
                    <img src=""images/semantic/semantic_series_15/semantic_series_15_a.jpg"" style=""width: 300px; height: 300px;"" />
                  </div>","null","",""
"","","","","","html-keyboard-response","112","312855","0.0-82.0-1.0","AAE6A7BF55A54CA29822014110DEFF70","AAE6A7BF55A54CA29822014110DEFF70","2adc1140-0f29-4655-b370-9bc848e82e56","e622c465-ee29-4445-8260-1f3431e06587","{""participantId"":""AAE6A7BF55A54CA29822014110DEFF70"",""assignmentId"":""2adc1140-0f29-4655-b370-9bc848e82e56"",""projectId"":""e622c465-ee29-4445-8260-1f3431e06587""}","https://test12345.live/?participantId=AAE6A7BF55A54CA29822014110DEFF70&assignmentId=2adc1140-0f29-4655-b370-9bc848e82e56&projectId=e622c465-ee29-4445-8260-1f3431e06587","","null","<div style=""display: flex; justify-content: center; align-items: center;"">
                    <img src=""images/semantic/semantic_series_15/semantic_series_15_b.jpg"" style=""width: 300px; height: 300px;"" />
                  </div>","null","",""
"","","","","","html-keyboard-response","113","315856","0.0-82.0-2.0","AAE6A7BF55A54CA29822014110DEFF70","AAE6A7BF55A54CA29822014110DEFF70","2adc1140-0f29-4655-b370-9bc848e82e56","e622c465-ee29-4445-8260-1f3431e06587","{""participantId"":""AAE6A7BF55A54CA29822014110DEFF70"",""assignmentId"":""2adc1140-0f29-4655-b370-9bc848e82e56"",""projectId"":""e622c465-ee29-4445-8260-1f3431e06587""}","https://test12345.live/?participantId=AAE6A7BF55A54CA29822014110DEFF70&assignmentId=2adc1140-0f29-4655-b370-9bc848e82e56&projectId=e622c465-ee29-4445-8260-1f3431e06587","","null","<div style=""display: flex; justify-content: center; align-items: center;"">
                    <img src=""images/semantic/semantic_series_15/semantic_series_15_c.jpg"" style=""width: 300px; height: 300px;"" />
                  </div>","null","",""
"","","","","","html-keyboard-response","114","318857","0.0-82.0-3.0","AAE6A7BF55A54CA29822014110DEFF70","AAE6A7BF55A54CA29822014110DEFF70","2adc1140-0f29-4655-b370-9bc848e82e56","e622c465-ee29-4445-8260-1f3431e06587","{""participantId"":""AAE6A7BF55A54CA29822014110DEFF70"",""assignmentId"":""2adc1140-0f29-4655-b370-9bc848e82e56"",""projectId"":""e622c465-ee29-4445-8260-1f3431e06587""}","https://test12345.live/?participantId=AAE6A7BF55A54CA29822014110DEFF70&assignmentId=2adc1140-0f29-4655-b370-9bc848e82e56&projectId=e622c465-ee29-4445-8260-1f3431e06587","","null","<div style=""display: flex; justify-content: center; align-items: center;"">
                    <img src=""images/semantic/semantic_series_15/semantic_series_15_d.jpg"" style=""width: 300px; height: 300px;"" />
                  </div>","null","",""
"","","","","","html-button-response","115","320947","0.0-83.0","AAE6A7BF55A54CA29822014110DEFF70","AAE6A7BF55A54CA29822014110DEFF70","2adc1140-0f29-4655-b370-9bc848e82e56","e622c465-ee29-4445-8260-1f3431e06587","{""participantId"":""AAE6A7BF55A54CA29822014110DEFF70"",""assignmentId"":""2adc1140-0f29-4655-b370-9bc848e82e56"",""projectId"":""e622c465-ee29-4445-8260-1f3431e06587""}","https://test12345.live/?participantId=AAE6A7BF55A54CA29822014110DEFF70&assignmentId=2adc1140-0f29-4655-b370-9bc848e82e56&projectId=e622c465-ee29-4445-8260-1f3431e06587","","2090","Was there a person in the picture?","1","",""
"","","","","","survey-likert","116","323147","0.0-84.0","AAE6A7BF55A54CA29822014110DEFF70","AAE6A7BF55A54CA29822014110DEFF70","2adc1140-0f29-4655-b370-9bc848e82e56","e622c465-ee29-4445-8260-1f3431e06587","{""participantId"":""AAE6A7BF55A54CA29822014110DEFF70"",""assignmentId"":""2adc1140-0f29-4655-b370-9bc848e82e56"",""projectId"":""e622c465-ee29-4445-8260-1f3431e06587""}","https://test12345.live/?participantId=AAE6A7BF55A54CA29822014110DEFF70&assignmentId=2adc1140-0f29-4655-b370-9bc848e82e56&projectId=e622c465-ee29-4445-8260-1f3431e06587","","2198","","{""Q0"":3}","","[0]"
"","","","","","html-button-response","117","324381","0.0-85.0","AAE6A7BF55A54CA29822014110DEFF70","AAE6A7BF55A54CA29822014110DEFF70","2adc1140-0f29-4655-b370-9bc848e82e56","e622c465-ee29-4445-8260-1f3431e06587","{""participantId"":""AAE6A7BF55A54CA29822014110DEFF70"",""assignmentId"":""2adc1140-0f29-4655-b370-9bc848e82e56"",""projectId"":""e622c465-ee29-4445-8260-1f3431e06587""}","https://test12345.live/?participantId=AAE6A7BF55A54CA29822014110DEFF70&assignmentId=2adc1140-0f29-4655-b370-9bc848e82e56&projectId=e622c465-ee29-4445-8260-1f3431e06587","","1232","
    <div style=""display: flex; justify-content: center; align-items: center;"">
      <img src=""images/blue_deck_1.png"" style=""width: 300px; height: 300px; margin-right: 10px;"" />
      <img src=""images/red_deck_2.png"" style=""width: 300px; height: 300px;"" />
    </div>","0","0",""
"","","","","","html-keyboard-response","118","327383","0.0-86.0-0.0","AAE6A7BF55A54CA29822014110DEFF70","AAE6A7BF55A54CA29822014110DEFF70","2adc1140-0f29-4655-b370-9bc848e82e56","e622c465-ee29-4445-8260-1f3431e06587","{""participantId"":""AAE6A7BF55A54CA29822014110DEFF70"",""assignmentId"":""2adc1140-0f29-4655-b370-9bc848e82e56"",""projectId"":""e622c465-ee29-4445-8260-1f3431e06587""}","https://test12345.live/?participantId=AAE6A7BF55A54CA29822014110DEFF70&assignmentId=2adc1140-0f29-4655-b370-9bc848e82e56&projectId=e622c465-ee29-4445-8260-1f3431e06587","","null","<div style=""display: flex; justify-content: center; align-items: center;"">
                    <img src=""images/causal/causal_series_15/causal_series_15_a.jpg"" style=""width: 300px; height: 300px;"" />
                  </div>","null","",""
"","","","","","html-keyboard-response","119","330383","0.0-86.0-1.0","AAE6A7BF55A54CA29822014110DEFF70","AAE6A7BF55A54CA29822014110DEFF70","2adc1140-0f29-4655-b370-9bc848e82e56","e622c465-ee29-4445-8260-1f3431e06587","{""participantId"":""AAE6A7BF55A54CA29822014110DEFF70"",""assignmentId"":""2adc1140-0f29-4655-b370-9bc848e82e56"",""projectId"":""e622c465-ee29-4445-8260-1f3431e06587""}","https://test12345.live/?participantId=AAE6A7BF55A54CA29822014110DEFF70&assignmentId=2adc1140-0f29-4655-b370-9bc848e82e56&projectId=e622c465-ee29-4445-8260-1f3431e06587","","null","<div style=""display: flex; justify-content: center; align-items: center;"">
                    <img src=""images/causal/causal_series_15/causal_series_15_b.jpg"" style=""width: 300px; height: 300px;"" />
                  </div>","null","",""
"","","","","","html-keyboard-response","120","333385","0.0-86.0-2.0","AAE6A7BF55A54CA29822014110DEFF70","AAE6A7BF55A54CA29822014110DEFF70","2adc1140-0f29-4655-b370-9bc848e82e56","e622c465-ee29-4445-8260-1f3431e06587","{""participantId"":""AAE6A7BF55A54CA29822014110DEFF70"",""assignmentId"":""2adc1140-0f29-4655-b370-9bc848e82e56"",""projectId"":""e622c465-ee29-4445-8260-1f3431e06587""}","https://test12345.live/?participantId=AAE6A7BF55A54CA29822014110DEFF70&assignmentId=2adc1140-0f29-4655-b370-9bc848e82e56&projectId=e622c465-ee29-4445-8260-1f3431e06587","","null","<div style=""display: flex; justify-content: center; align-items: center;"">
                    <img src=""images/causal/causal_series_15/causal_series_15_c.jpg"" style=""width: 300px; height: 300px;"" />
                  </div>","null","",""
"","","","","","html-keyboard-response","121","336387","0.0-86.0-3.0","AAE6A7BF55A54CA29822014110DEFF70","AAE6A7BF55A54CA29822014110DEFF70","2adc1140-0f29-4655-b370-9bc848e82e56","e622c465-ee29-4445-8260-1f3431e06587","{""participantId"":""AAE6A7BF55A54CA29822014110DEFF70"",""assignmentId"":""2adc1140-0f29-4655-b370-9bc848e82e56"",""projectId"":""e622c465-ee29-4445-8260-1f3431e06587""}","https://test12345.live/?participantId=AAE6A7BF55A54CA29822014110DEFF70&assignmentId=2adc1140-0f29-4655-b370-9bc848e82e56&projectId=e622c465-ee29-4445-8260-1f3431e06587","","null","<div style=""display: flex; justify-content: center; align-items: center;"">
                    <img src=""images/causal/causal_series_15/causal_series_15_d.jpg"" style=""width: 300px; height: 300px;"" />
                  </div>","null","",""
"","","","","","html-button-response","122","337649","0.0-88.0","AAE6A7BF55A54CA29822014110DEFF70","AAE6A7BF55A54CA29822014110DEFF70","2adc1140-0f29-4655-b370-9bc848e82e56","e622c465-ee29-4445-8260-1f3431e06587","{""participantId"":""AAE6A7BF55A54CA29822014110DEFF70"",""assignmentId"":""2adc1140-0f29-4655-b370-9bc848e82e56"",""projectId"":""e622c465-ee29-4445-8260-1f3431e06587""}","https://test12345.live/?participantId=AAE6A7BF55A54CA29822014110DEFF70&assignmentId=2adc1140-0f29-4655-b370-9bc848e82e56&projectId=e622c465-ee29-4445-8260-1f3431e06587","","1261","Was there a person in the picture?","0","",""
"","","","","","survey-likert","123","339858","0.0-89.0","AAE6A7BF55A54CA29822014110DEFF70","AAE6A7BF55A54CA29822014110DEFF70","2adc1140-0f29-4655-b370-9bc848e82e56","e622c465-ee29-4445-8260-1f3431e06587","{""participantId"":""AAE6A7BF55A54CA29822014110DEFF70"",""assignmentId"":""2adc1140-0f29-4655-b370-9bc848e82e56"",""projectId"":""e622c465-ee29-4445-8260-1f3431e06587""}","https://test12345.live/?participantId=AAE6A7BF55A54CA29822014110DEFF70&assignmentId=2adc1140-0f29-4655-b370-9bc848e82e56&projectId=e622c465-ee29-4445-8260-1f3431e06587","","2208","","{""Q0"":2}","","[0]"
"","","","","","html-button-response","124","340983","0.0-90.0","AAE6A7BF55A54CA29822014110DEFF70","AAE6A7BF55A54CA29822014110DEFF70","2adc1140-0f29-4655-b370-9bc848e82e56","e622c465-ee29-4445-8260-1f3431e06587","{""participantId"":""AAE6A7BF55A54CA29822014110DEFF70"",""assignmentId"":""2adc1140-0f29-4655-b370-9bc848e82e56"",""projectId"":""e622c465-ee29-4445-8260-1f3431e06587""}","https://test12345.live/?participantId=AAE6A7BF55A54CA29822014110DEFF70&assignmentId=2adc1140-0f29-4655-b370-9bc848e82e56&projectId=e622c465-ee29-4445-8260-1f3431e06587","","1123","
    <div style=""display: flex; justify-content: center; align-items: center;"">
      <img src=""images/blue_deck_1.png"" style=""width: 300px; height: 300px; margin-right: 10px;"" />
      <img src=""images/red_deck_2.png"" style=""width: 300px; height: 300px;"" />
    </div>","1","1",""
"","","","","","html-keyboard-response","125","343985","0.0-92.0-0.0","AAE6A7BF55A54CA29822014110DEFF70","AAE6A7BF55A54CA29822014110DEFF70","2adc1140-0f29-4655-b370-9bc848e82e56","e622c465-ee29-4445-8260-1f3431e06587","{""participantId"":""AAE6A7BF55A54CA29822014110DEFF70"",""assignmentId"":""2adc1140-0f29-4655-b370-9bc848e82e56"",""projectId"":""e622c465-ee29-4445-8260-1f3431e06587""}","https://test12345.live/?participantId=AAE6A7BF55A54CA29822014110DEFF70&assignmentId=2adc1140-0f29-4655-b370-9bc848e82e56&projectId=e622c465-ee29-4445-8260-1f3431e06587","","null","<div style=""display: flex; justify-content: center; align-items: center;"">
                    <img src=""images/semantic/semantic_series_11/semantic_series_11_a.jpg"" style=""width: 300px; height: 300px;"" />
                  </div>","null","",""
"","","","","","html-keyboard-response","126","346988","0.0-92.0-1.0","AAE6A7BF55A54CA29822014110DEFF70","AAE6A7BF55A54CA29822014110DEFF70","2adc1140-0f29-4655-b370-9bc848e82e56","e622c465-ee29-4445-8260-1f3431e06587","{""participantId"":""AAE6A7BF55A54CA29822014110DEFF70"",""assignmentId"":""2adc1140-0f29-4655-b370-9bc848e82e56"",""projectId"":""e622c465-ee29-4445-8260-1f3431e06587""}","https://test12345.live/?participantId=AAE6A7BF55A54CA29822014110DEFF70&assignmentId=2adc1140-0f29-4655-b370-9bc848e82e56&projectId=e622c465-ee29-4445-8260-1f3431e06587","","null","<div style=""display: flex; justify-content: center; align-items: center;"">
                    <img src=""images/semantic/semantic_series_11/semantic_series_11_b.jpg"" style=""width: 300px; height: 300px;"" />
                  </div>","null","",""
"","","","","","html-keyboard-response","127","349989","0.0-92.0-2.0","AAE6A7BF55A54CA29822014110DEFF70","AAE6A7BF55A54CA29822014110DEFF70","2adc1140-0f29-4655-b370-9bc848e82e56","e622c465-ee29-4445-8260-1f3431e06587","{""participantId"":""AAE6A7BF55A54CA29822014110DEFF70"",""assignmentId"":""2adc1140-0f29-4655-b370-9bc848e82e56"",""projectId"":""e622c465-ee29-4445-8260-1f3431e06587""}","https://test12345.live/?participantId=AAE6A7BF55A54CA29822014110DEFF70&assignmentId=2adc1140-0f29-4655-b370-9bc848e82e56&projectId=e622c465-ee29-4445-8260-1f3431e06587","","null","<div style=""display: flex; justify-content: center; align-items: center;"">
                    <img src=""images/semantic/semantic_series_11/semantic_series_11_c.jpg"" style=""width: 300px; height: 300px;"" />
                  </div>","null","",""
"","","","","","html-keyboard-response","128","352990","0.0-92.0-3.0","AAE6A7BF55A54CA29822014110DEFF70","AAE6A7BF55A54CA29822014110DEFF70","2adc1140-0f29-4655-b370-9bc848e82e56","e622c465-ee29-4445-8260-1f3431e06587","{""participantId"":""AAE6A7BF55A54CA29822014110DEFF70"",""assignmentId"":""2adc1140-0f29-4655-b370-9bc848e82e56"",""projectId"":""e622c465-ee29-4445-8260-1f3431e06587""}","https://test12345.live/?participantId=AAE6A7BF55A54CA29822014110DEFF70&assignmentId=2adc1140-0f29-4655-b370-9bc848e82e56&projectId=e622c465-ee29-4445-8260-1f3431e06587","","null","<div style=""display: flex; justify-content: center; align-items: center;"">
                    <img src=""images/semantic/semantic_series_11/semantic_series_11_d.jpg"" style=""width: 300px; height: 300px;"" />
                  </div>","null","",""
"","","","","","html-button-response","129","354261","0.0-93.0","AAE6A7BF55A54CA29822014110DEFF70","AAE6A7BF55A54CA29822014110DEFF70","2adc1140-0f29-4655-b370-9bc848e82e56","e622c465-ee29-4445-8260-1f3431e06587","{""participantId"":""AAE6A7BF55A54CA29822014110DEFF70"",""assignmentId"":""2adc1140-0f29-4655-b370-9bc848e82e56"",""projectId"":""e622c465-ee29-4445-8260-1f3431e06587""}","https://test12345.live/?participantId=AAE6A7BF55A54CA29822014110DEFF70&assignmentId=2adc1140-0f29-4655-b370-9bc848e82e56&projectId=e622c465-ee29-4445-8260-1f3431e06587","","1270","Was there a person in the picture?","0","",""
"","","","","","survey-likert","130","356501","0.0-94.0","AAE6A7BF55A54CA29822014110DEFF70","AAE6A7BF55A54CA29822014110DEFF70","2adc1140-0f29-4655-b370-9bc848e82e56","e622c465-ee29-4445-8260-1f3431e06587","{""participantId"":""AAE6A7BF55A54CA29822014110DEFF70"",""assignmentId"":""2adc1140-0f29-4655-b370-9bc848e82e56"",""projectId"":""e622c465-ee29-4445-8260-1f3431e06587""}","https://test12345.live/?participantId=AAE6A7BF55A54CA29822014110DEFF70&assignmentId=2adc1140-0f29-4655-b370-9bc848e82e56&projectId=e622c465-ee29-4445-8260-1f3431e06587","","2240","","{""Q0"":0}","","[0]"
"","","","","","survey-text","131","374934","0.0-95.0","AAE6A7BF55A54CA29822014110DEFF70","AAE6A7BF55A54CA29822014110DEFF70","2adc1140-0f29-4655-b370-9bc848e82e56","e622c465-ee29-4445-8260-1f3431e06587","{""participantId"":""AAE6A7BF55A54CA29822014110DEFF70"",""assignmentId"":""2adc1140-0f29-4655-b370-9bc848e82e56"",""projectId"":""e622c465-ee29-4445-8260-1f3431e06587""}","https://test12345.live/?participantId=AAE6A7BF55A54CA29822014110DEFF70&assignmentId=2adc1140-0f29-4655-b370-9bc848e82e56&projectId=e622c465-ee29-4445-8260-1f3431e06587","","18428","","{""Q0"":""Some have cute animal stories and some are more about people.""}","",""
