"success","timeout","failed_images","failed_audio","failed_video","trial_type","trial_index","time_elapsed","internal_node_id","subject","subject_id","study_id","session_id","urlvar","current_url","view_history","rt","stimulus","response","choice","question_order"
"true","false","[]","[]","[]","preload","0","2123","0.0-0.0","783B20FFE9AE4B5DB9F1979DC5337B3E","783B20FFE9AE4B5DB9F1979DC5337B3E","6ef5af36-aa8f-48ab-b9be-b3946caee220","54f8d589-66fc-4c65-830f-1dcc63bce8cc","{""participantId"":""783B20FFE9AE4B5DB9F1979DC5337B3E"",""assignmentId"":""6ef5af36-aa8f-48ab-b9be-b3946caee220"",""projectId"":""54f8d589-66fc-4c65-830f-1dcc63bce8cc""}","https://test12345.live/?participantId=783B20FFE9AE4B5DB9F1979DC5337B3E&assignmentId=6ef5af36-aa8f-48ab-b9be-b3946caee220&projectId=54f8d589-66fc-4c65-830f-1dcc63bce8cc","","","","","",""
"","","","","","instructions","1","5444","0.0-1.0","783B20FFE9AE4B5DB9F1979DC5337B3E","783B20FFE9AE4B5DB9F1979DC5337B3E","6ef5af36-aa8f-48ab-b9be-b3946caee220","54f8d589-66fc-4c65-830f-1dcc63bce8cc","{""participantId"":""783B20FFE9AE4B5DB9F1979DC5337B3E"",""assignmentId"":""6ef5af36-aa8f-48ab-b9be-b3946caee220"",""projectId"":""54f8d589-66fc-4c65-830f-1dcc63bce8cc""}","https://test12345.live/?participantId=783B20FFE9AE4B5DB9F1979DC5337B3E&assignmentId=6ef5af36-aa8f-48ab-b9be-b3946caee220&projectId=54f8d589-66fc-4c65-830f-1dcc63bce8cc","[{""page_index"":0,""viewing_time"":3321}]","3321","","","",""
"","","","","","instructions","2","60526","0.0-2.0","783B20FFE9AE4B5DB9F1979DC5337B3E","783B20FFE9AE4B5DB9F1979DC5337B3E","6ef5af36-aa8f-48ab-b9be-b3946caee220","54f8d589-66fc-4c65-830f-1dcc63bce8cc","{""participantId"":""783B20FFE9AE4B5DB9F1979DC5337B3E"",""assignmentId"":""6ef5af36-aa8f-48ab-b9be-b3946caee220"",""projectId"":""54f8d589-66fc-4c65-830f-1dcc63bce8cc""}","https://test12345.live/?participantId=783B20FFE9AE4B5DB9F1979DC5337B3E&assignmentId=6ef5af36-aa8f-48ab-b9be-b3946caee220&projectId=54f8d589-66fc-4c65-830f-1dcc63bce8cc","[{""page_index"":0,""viewing_time"":55082}]","55082","","","",""
"true","","","","","fullscreen","3","63501","0.0-3.0","783B20FFE9AE4B5DB9F1979DC5337B3E","783B20FFE9AE4B5DB9F1979DC5337B3E","6ef5af36-aa8f-48ab-b9be-b3946caee220","54f8d589-66fc-4c65-830f-1dcc63bce8cc","{""participantId"":""783B20FFE9AE4B5DB9F1979DC5337B3E"",""assignmentId"":""6ef5af36-aa8f-48ab-b9be-b3946caee220"",""projectId"":""54f8d589-66fc-4c65-830f-1dcc63bce8cc""}","https://test12345.live/?participantId=783B20FFE9AE4B5DB9F1979DC5337B3E&assignmentId=6ef5af36-aa8f-48ab-b9be-b3946caee220&projectId=54f8d589-66fc-4c65-830f-1dcc63bce8cc","","1963","","","",""
"","","","","","instructions","4","71982","0.0-4.0","783B20FFE9AE4B5DB9F1979DC5337B3E","783B20FFE9AE4B5DB9F1979DC5337B3E","6ef5af36-aa8f-48ab-b9be-b3946caee220","54f8d589-66fc-4c65-830f-1dcc63bce8cc","{""participantId"":""783B20FFE9AE4B5DB9F1979DC5337B3E"",""assignmentId"":""6ef5af36-aa8f-48ab-b9be-b3946caee220"",""projectId"":""54f8d589-66fc-4c65-830f-1dcc63bce8cc""}","https://test12345.live/?participantId=783B20FFE9AE4B5DB9F1979DC5337B3E&assignmentId=6ef5af36-aa8f-48ab-b9be-b3946caee220&projectId=54f8d589-66fc-4c65-830f-1dcc63bce8cc","[{""page_index"":0,""viewing_time"":8479}]","8479","","","",""
"","","","","","html-button-response","5","75053","0.0-5.0","783B20FFE9AE4B5DB9F1979DC5337B3E","783B20FFE9AE4B5DB9F1979DC5337B3E","6ef5af36-aa8f-48ab-b9be-b3946caee220","54f8d589-66fc-4c65-830f-1dcc63bce8cc","{""participantId"":""783B20FFE9AE4B5DB9F1979DC5337B3E"",""assignmentId"":""6ef5af36-aa8f-48ab-b9be-b3946caee220"",""projectId"":""54f8d589-66fc-4c65-830f-1dcc63bce8cc""}","https://test12345.live/?participantId=783B20FFE9AE4B5DB9F1979DC5337B3E&assignmentId=6ef5af36-aa8f-48ab-b9be-b3946caee220&projectId=54f8d589-66fc-4c65-830f-1dcc63bce8cc","","3070","
    <div style=""display: flex; justify-content: center; align-items: center;"">
      <img src=""images/red_deck_2.png"" style=""width: 300px; height: 300px; margin-right: 10px;"" />
      <img src=""images/blue_deck_1.png"" style=""width: 300px; height: 300px;"" />
    </div>","1","1",""
"","","","","","html-keyboard-response","6","78064","0.0-7.0-0.0","783B20FFE9AE4B5DB9F1979DC5337B3E","783B20FFE9AE4B5DB9F1979DC5337B3E","6ef5af36-aa8f-48ab-b9be-b3946caee220","54f8d589-66fc-4c65-830f-1dcc63bce8cc","{""participantId"":""783B20FFE9AE4B5DB9F1979DC5337B3E"",""assignmentId"":""6ef5af36-aa8f-48ab-b9be-b3946caee220"",""projectId"":""54f8d589-66fc-4c65-830f-1dcc63bce8cc""}","https://test12345.live/?participantId=783B20FFE9AE4B5DB9F1979DC5337B3E&assignmentId=6ef5af36-aa8f-48ab-b9be-b3946caee220&projectId=54f8d589-66fc-4c65-830f-1dcc63bce8cc","","null","<div style=""display: flex; justify-content: center; align-items: center;"">
                    <img src=""images/semantic/semantic_series_15/semantic_series_15_a.jpg"" style=""width: 300px; height: 300px;"" />
                  </div>","null","",""
"","","","","","html-keyboard-response","7","81078","0.0-7.0-1.0","783B20FFE9AE4B5DB9F1979DC5337B3E","783B20FFE9AE4B5DB9F1979DC5337B3E","6ef5af36-aa8f-48ab-b9be-b3946caee220","54f8d589-66fc-4c65-830f-1dcc63bce8cc","{""participantId"":""783B20FFE9AE4B5DB9F1979DC5337B3E"",""assignmentId"":""6ef5af36-aa8f-48ab-b9be-b3946caee220"",""projectId"":""54f8d589-66fc-4c65-830f-1dcc63bce8cc""}","https://test12345.live/?participantId=783B20FFE9AE4B5DB9F1979DC5337B3E&assignmentId=6ef5af36-aa8f-48ab-b9be-b3946caee220&projectId=54f8d589-66fc-4c65-830f-1dcc63bce8cc","","null","<div style=""display: flex; justify-content: center; align-items: center;"">
                    <img src=""images/semantic/semantic_series_15/semantic_series_15_b.jpg"" style=""width: 300px; height: 300px;"" />
                  </div>","null","",""
"","","","","","html-keyboard-response","8","84079","0.0-7.0-2.0","783B20FFE9AE4B5DB9F1979DC5337B3E","783B20FFE9AE4B5DB9F1979DC5337B3E","6ef5af36-aa8f-48ab-b9be-b3946caee220","54f8d589-66fc-4c65-830f-1dcc63bce8cc","{""participantId"":""783B20FFE9AE4B5DB9F1979DC5337B3E"",""assignmentId"":""6ef5af36-aa8f-48ab-b9be-b3946caee220"",""projectId"":""54f8d589-66fc-4c65-830f-1dcc63bce8cc""}","https://test12345.live/?participantId=783B20FFE9AE4B5DB9F1979DC5337B3E&assignmentId=6ef5af36-aa8f-48ab-b9be-b3946caee220&projectId=54f8d589-66fc-4c65-830f-1dcc63bce8cc","","null","<div style=""display: flex; justify-content: center; align-items: center;"">
                    <img src=""images/semantic/semantic_series_15/semantic_series_15_c.jpg"" style=""width: 300px; height: 300px;"" />
                  </div>","null","",""
"","","","","","html-keyboard-response","9","87081","0.0-7.0-3.0","783B20FFE9AE4B5DB9F1979DC5337B3E","783B20FFE9AE4B5DB9F1979DC5337B3E","6ef5af36-aa8f-48ab-b9be-b3946caee220","54f8d589-66fc-4c65-830f-1dcc63bce8cc","{""participantId"":""783B20FFE9AE4B5DB9F1979DC5337B3E"",""assignmentId"":""6ef5af36-aa8f-48ab-b9be-b3946caee220"",""projectId"":""54f8d589-66fc-4c65-830f-1dcc63bce8cc""}","https://test12345.live/?participantId=783B20FFE9AE4B5DB9F1979DC5337B3E&assignmentId=6ef5af36-aa8f-48ab-b9be-b3946caee220&projectId=54f8d589-66fc-4c65-830f-1dcc63bce8cc","","null","<div style=""display: flex; justify-content: center; align-items: center;"">
                    <img src=""images/semantic/semantic_series_15/semantic_series_15_d.jpg"" style=""width: 300px; height: 300px;"" />
                  </div>","null","",""
"","","","","","html-button-response","10","88952","0.0-8.0","783B20FFE9AE4B5DB9F1979DC5337B3E","783B20FFE9AE4B5DB9F1979DC5337B3E","6ef5af36-aa8f-48ab-b9be-b3946caee220","54f8d589-66fc-4c65-830f-1dcc63bce8cc","{""participantId"":""783B20FFE9AE4B5DB9F1979DC5337B3E"",""assignmentId"":""6ef5af36-aa8f-48ab-b9be-b3946caee220"",""projectId"":""54f8d589-66fc-4c65-830f-1dcc63bce8cc""}","https://test12345.live/?participantId=783B20FFE9AE4B5DB9F1979DC5337B3E&assignmentId=6ef5af36-aa8f-48ab-b9be-b3946caee220&projectId=54f8d589-66fc-4c65-830f-1dcc63bce8cc","","1871","Was there a person in the picture?","1","",""
"","","","","","survey-likert","11","91845","0.0-9.0","783B20FFE9AE4B5DB9F1979DC5337B3E","783B20FFE9AE4B5DB9F1979DC5337B3E","6ef5af36-aa8f-48ab-b9be-b3946caee220","54f8d589-66fc-4c65-830f-1dcc63bce8cc","{""participantId"":""783B20FFE9AE4B5DB9F1979DC5337B3E"",""assignmentId"":""6ef5af36-aa8f-48ab-b9be-b3946caee220"",""projectId"":""54f8d589-66fc-4c65-830f-1dcc63bce8cc""}","https://test12345.live/?participantId=783B20FFE9AE4B5DB9F1979DC5337B3E&assignmentId=6ef5af36-aa8f-48ab-b9be-b3946caee220&projectId=54f8d589-66fc-4c65-830f-1dcc63bce8cc","","2892","","{""Q0"":3}","","[0]"
"","","","","","html-button-response","12","94050","0.0-10.0","783B20FFE9AE4B5DB9F1979DC5337B3E","783B20FFE9AE4B5DB9F1979DC5337B3E","6ef5af36-aa8f-48ab-b9be-b3946caee220","54f8d589-66fc-4c65-830f-1dcc63bce8cc","{""participantId"":""783B20FFE9AE4B5DB9F1979DC5337B3E"",""assignmentId"":""6ef5af36-aa8f-48ab-b9be-b3946caee220"",""projectId"":""54f8d589-66fc-4c65-830f-1dcc63bce8cc""}","https://test12345.live/?participantId=783B20FFE9AE4B5DB9F1979DC5337B3E&assignmentId=6ef5af36-aa8f-48ab-b9be-b3946caee220&projectId=54f8d589-66fc-4c65-830f-1dcc63bce8cc","","2203","
    <div style=""display: flex; justify-content: center; align-items: center;"">
      <img src=""images/red_deck_2.png"" style=""width: 300px; height: 300px; margin-right: 10px;"" />
      <img src=""images/blue_deck_1.png"" style=""width: 300px; height: 300px;"" />
    </div>","1","1",""
"","","","","","html-keyboard-response","13","97065","0.0-12.0-0.0","783B20FFE9AE4B5DB9F1979DC5337B3E","783B20FFE9AE4B5DB9F1979DC5337B3E","6ef5af36-aa8f-48ab-b9be-b3946caee220","54f8d589-66fc-4c65-830f-1dcc63bce8cc","{""participantId"":""783B20FFE9AE4B5DB9F1979DC5337B3E"",""assignmentId"":""6ef5af36-aa8f-48ab-b9be-b3946caee220"",""projectId"":""54f8d589-66fc-4c65-830f-1dcc63bce8cc""}","https://test12345.live/?participantId=783B20FFE9AE4B5DB9F1979DC5337B3E&assignmentId=6ef5af36-aa8f-48ab-b9be-b3946caee220&projectId=54f8d589-66fc-4c65-830f-1dcc63bce8cc","","null","<div style=""display: flex; justify-content: center; align-items: center;"">
                    <img src=""images/semantic/semantic_series_16/semantic_series_16_a.jpg"" style=""width: 300px; height: 300px;"" />
                  </div>","null","",""
"","","","","","html-keyboard-response","14","100075","0.0-12.0-1.0","783B20FFE9AE4B5DB9F1979DC5337B3E","783B20FFE9AE4B5DB9F1979DC5337B3E","6ef5af36-aa8f-48ab-b9be-b3946caee220","54f8d589-66fc-4c65-830f-1dcc63bce8cc","{""participantId"":""783B20FFE9AE4B5DB9F1979DC5337B3E"",""assignmentId"":""6ef5af36-aa8f-48ab-b9be-b3946caee220"",""projectId"":""54f8d589-66fc-4c65-830f-1dcc63bce8cc""}","https://test12345.live/?participantId=783B20FFE9AE4B5DB9F1979DC5337B3E&assignmentId=6ef5af36-aa8f-48ab-b9be-b3946caee220&projectId=54f8d589-66fc-4c65-830f-1dcc63bce8cc","","null","<div style=""display: flex; justify-content: center; align-items: center;"">
                    <img src=""images/semantic/semantic_series_16/semantic_series_16_b.jpg"" style=""width: 300px; height: 300px;"" />
                  </div>","null","",""
"","","","","","html-keyboard-response","15","103089","0.0-12.0-2.0","783B20FFE9AE4B5DB9F1979DC5337B3E","783B20FFE9AE4B5DB9F1979DC5337B3E","6ef5af36-aa8f-48ab-b9be-b3946caee220","54f8d589-66fc-4c65-830f-1dcc63bce8cc","{""participantId"":""783B20FFE9AE4B5DB9F1979DC5337B3E"",""assignmentId"":""6ef5af36-aa8f-48ab-b9be-b3946caee220"",""projectId"":""54f8d589-66fc-4c65-830f-1dcc63bce8cc""}","https://test12345.live/?participantId=783B20FFE9AE4B5DB9F1979DC5337B3E&assignmentId=6ef5af36-aa8f-48ab-b9be-b3946caee220&projectId=54f8d589-66fc-4c65-830f-1dcc63bce8cc","","null","<div style=""display: flex; justify-content: center; align-items: center;"">
                    <img src=""images/semantic/semantic_series_16/semantic_series_16_c.jpg"" style=""width: 300px; height: 300px;"" />
                  </div>","null","",""
"","","","","","html-keyboard-response","16","106099","0.0-12.0-3.0","783B20FFE9AE4B5DB9F1979DC5337B3E","783B20FFE9AE4B5DB9F1979DC5337B3E","6ef5af36-aa8f-48ab-b9be-b3946caee220","54f8d589-66fc-4c65-830f-1dcc63bce8cc","{""participantId"":""783B20FFE9AE4B5DB9F1979DC5337B3E"",""assignmentId"":""6ef5af36-aa8f-48ab-b9be-b3946caee220"",""projectId"":""54f8d589-66fc-4c65-830f-1dcc63bce8cc""}","https://test12345.live/?participantId=783B20FFE9AE4B5DB9F1979DC5337B3E&assignmentId=6ef5af36-aa8f-48ab-b9be-b3946caee220&projectId=54f8d589-66fc-4c65-830f-1dcc63bce8cc","","null","<div style=""display: flex; justify-content: center; align-items: center;"">
                    <img src=""images/semantic/semantic_series_16/semantic_series_16_d.jpg"" style=""width: 300px; height: 300px;"" />
                  </div>","null","",""
"","","","","","html-button-response","17","107352","0.0-13.0","783B20FFE9AE4B5DB9F1979DC5337B3E","783B20FFE9AE4B5DB9F1979DC5337B3E","6ef5af36-aa8f-48ab-b9be-b3946caee220","54f8d589-66fc-4c65-830f-1dcc63bce8cc","{""participantId"":""783B20FFE9AE4B5DB9F1979DC5337B3E"",""assignmentId"":""6ef5af36-aa8f-48ab-b9be-b3946caee220"",""projectId"":""54f8d589-66fc-4c65-830f-1dcc63bce8cc""}","https://test12345.live/?participantId=783B20FFE9AE4B5DB9F1979DC5337B3E&assignmentId=6ef5af36-aa8f-48ab-b9be-b3946caee220&projectId=54f8d589-66fc-4c65-830f-1dcc63bce8cc","","1252","Was there a person in the picture?","0","",""
"","","","","","survey-likert","18","109819","0.0-14.0","783B20FFE9AE4B5DB9F1979DC5337B3E","783B20FFE9AE4B5DB9F1979DC5337B3E","6ef5af36-aa8f-48ab-b9be-b3946caee220","54f8d589-66fc-4c65-830f-1dcc63bce8cc","{""participantId"":""783B20FFE9AE4B5DB9F1979DC5337B3E"",""assignmentId"":""6ef5af36-aa8f-48ab-b9be-b3946caee220"",""projectId"":""54f8d589-66fc-4c65-830f-1dcc63bce8cc""}","https://test12345.live/?participantId=783B20FFE9AE4B5DB9F1979DC5337B3E&assignmentId=6ef5af36-aa8f-48ab-b9be-b3946caee220&projectId=54f8d589-66fc-4c65-830f-1dcc63bce8cc","","2466","","{""Q0"":3}","","[0]"
"","","","","","html-button-response","19","111262","0.0-15.0","783B20FFE9AE4B5DB9F1979DC5337B3E","783B20FFE9AE4B5DB9F1979DC5337B3E","6ef5af36-aa8f-48ab-b9be-b3946caee220","54f8d589-66fc-4c65-830f-1dcc63bce8cc","{""participantId"":""783B20FFE9AE4B5DB9F1979DC5337B3E"",""assignmentId"":""6ef5af36-aa8f-48ab-b9be-b3946caee220"",""projectId"":""54f8d589-66fc-4c65-830f-1dcc63bce8cc""}","https://test12345.live/?participantId=783B20FFE9AE4B5DB9F1979DC5337B3E&assignmentId=6ef5af36-aa8f-48ab-b9be-b3946caee220&projectId=54f8d589-66fc-4c65-830f-1dcc63bce8cc","","1441","
    <div style=""display: flex; justify-content: center; align-items: center;"">
      <img src=""images/red_deck_2.png"" style=""width: 300px; height: 300px; margin-right: 10px;"" />
      <img src=""images/blue_deck_1.png"" style=""width: 300px; height: 300px;"" />
    </div>","0","0",""
"","","","","","html-keyboard-response","20","114272","0.0-16.0-0.0","783B20FFE9AE4B5DB9F1979DC5337B3E","783B20FFE9AE4B5DB9F1979DC5337B3E","6ef5af36-aa8f-48ab-b9be-b3946caee220","54f8d589-66fc-4c65-830f-1dcc63bce8cc","{""participantId"":""783B20FFE9AE4B5DB9F1979DC5337B3E"",""assignmentId"":""6ef5af36-aa8f-48ab-b9be-b3946caee220"",""projectId"":""54f8d589-66fc-4c65-830f-1dcc63bce8cc""}","https://test12345.live/?participantId=783B20FFE9AE4B5DB9F1979DC5337B3E&assignmentId=6ef5af36-aa8f-48ab-b9be-b3946caee220&projectId=54f8d589-66fc-4c65-830f-1dcc63bce8cc","","null","<div style=""display: flex; justify-content: center; align-items: center;"">
                    <img src=""images/causal/causal_series_16/causal_series_16_a.jpg"" style=""width: 300px; height: 300px;"" />
                  </div>","null","",""
"","","","","","html-keyboard-response","21","117276","0.0-16.0-1.0","783B20FFE9AE4B5DB9F1979DC5337B3E","783B20FFE9AE4B5DB9F1979DC5337B3E","6ef5af36-aa8f-48ab-b9be-b3946caee220","54f8d589-66fc-4c65-830f-1dcc63bce8cc","{""participantId"":""783B20FFE9AE4B5DB9F1979DC5337B3E"",""assignmentId"":""6ef5af36-aa8f-48ab-b9be-b3946caee220"",""projectId"":""54f8d589-66fc-4c65-830f-1dcc63bce8cc""}","https://test12345.live/?participantId=783B20FFE9AE4B5DB9F1979DC5337B3E&assignmentId=6ef5af36-aa8f-48ab-b9be-b3946caee220&projectId=54f8d589-66fc-4c65-830f-1dcc63bce8cc","","null","<div style=""display: flex; justify-content: center; align-items: center;"">
                    <img src=""images/causal/causal_series_16/causal_series_16_b.jpg"" style=""width: 300px; height: 300px;"" />
                  </div>","null","",""
"","","","","","html-keyboard-response","22","120283","0.0-16.0-2.0","783B20FFE9AE4B5DB9F1979DC5337B3E","783B20FFE9AE4B5DB9F1979DC5337B3E","6ef5af36-aa8f-48ab-b9be-b3946caee220","54f8d589-66fc-4c65-830f-1dcc63bce8cc","{""participantId"":""783B20FFE9AE4B5DB9F1979DC5337B3E"",""assignmentId"":""6ef5af36-aa8f-48ab-b9be-b3946caee220"",""projectId"":""54f8d589-66fc-4c65-830f-1dcc63bce8cc""}","https://test12345.live/?participantId=783B20FFE9AE4B5DB9F1979DC5337B3E&assignmentId=6ef5af36-aa8f-48ab-b9be-b3946caee220&projectId=54f8d589-66fc-4c65-830f-1dcc63bce8cc","","null","<div style=""display: flex; justify-content: center; align-items: center;"">
                    <img src=""images/causal/causal_series_16/causal_series_16_c.jpg"" style=""width: 300px; height: 300px;"" />
                  </div>","null","",""
"","","","","","html-keyboard-response","23","123284","0.0-16.0-3.0","783B20FFE9AE4B5DB9F1979DC5337B3E","783B20FFE9AE4B5DB9F1979DC5337B3E","6ef5af36-aa8f-48ab-b9be-b3946caee220","54f8d589-66fc-4c65-830f-1dcc63bce8cc","{""participantId"":""783B20FFE9AE4B5DB9F1979DC5337B3E"",""assignmentId"":""6ef5af36-aa8f-48ab-b9be-b3946caee220"",""projectId"":""54f8d589-66fc-4c65-830f-1dcc63bce8cc""}","https://test12345.live/?participantId=783B20FFE9AE4B5DB9F1979DC5337B3E&assignmentId=6ef5af36-aa8f-48ab-b9be-b3946caee220&projectId=54f8d589-66fc-4c65-830f-1dcc63bce8cc","","null","<div style=""display: flex; justify-content: center; align-items: center;"">
                    <img src=""images/causal/causal_series_16/causal_series_16_d.jpg"" style=""width: 300px; height: 300px;"" />
                  </div>","null","",""
"","","","","","html-button-response","24","124328","0.0-18.0","783B20FFE9AE4B5DB9F1979DC5337B3E","783B20FFE9AE4B5DB9F1979DC5337B3E","6ef5af36-aa8f-48ab-b9be-b3946caee220","54f8d589-66fc-4c65-830f-1dcc63bce8cc","{""participantId"":""783B20FFE9AE4B5DB9F1979DC5337B3E"",""assignmentId"":""6ef5af36-aa8f-48ab-b9be-b3946caee220"",""projectId"":""54f8d589-66fc-4c65-830f-1dcc63bce8cc""}","https://test12345.live/?participantId=783B20FFE9AE4B5DB9F1979DC5337B3E&assignmentId=6ef5af36-aa8f-48ab-b9be-b3946caee220&projectId=54f8d589-66fc-4c65-830f-1dcc63bce8cc","","1043","Was there a person in the picture?","0","",""
"","","","","","survey-likert","25","126411","0.0-19.0","783B20FFE9AE4B5DB9F1979DC5337B3E","783B20FFE9AE4B5DB9F1979DC5337B3E","6ef5af36-aa8f-48ab-b9be-b3946caee220","54f8d589-66fc-4c65-830f-1dcc63bce8cc","{""participantId"":""783B20FFE9AE4B5DB9F1979DC5337B3E"",""assignmentId"":""6ef5af36-aa8f-48ab-b9be-b3946caee220"",""projectId"":""54f8d589-66fc-4c65-830f-1dcc63bce8cc""}","https://test12345.live/?participantId=783B20FFE9AE4B5DB9F1979DC5337B3E&assignmentId=6ef5af36-aa8f-48ab-b9be-b3946caee220&projectId=54f8d589-66fc-4c65-830f-1dcc63bce8cc","","2083","","{""Q0"":3}","","[0]"
"","","","","","html-button-response","26","127647","0.0-20.0","783B20FFE9AE4B5DB9F1979DC5337B3E","783B20FFE9AE4B5DB9F1979DC5337B3E","6ef5af36-aa8f-48ab-b9be-b3946caee220","54f8d589-66fc-4c65-830f-1dcc63bce8cc","{""participantId"":""783B20FFE9AE4B5DB9F1979DC5337B3E"",""assignmentId"":""6ef5af36-aa8f-48ab-b9be-b3946caee220"",""projectId"":""54f8d589-66fc-4c65-830f-1dcc63bce8cc""}","https://test12345.live/?participantId=783B20FFE9AE4B5DB9F1979DC5337B3E&assignmentId=6ef5af36-aa8f-48ab-b9be-b3946caee220&projectId=54f8d589-66fc-4c65-830f-1dcc63bce8cc","","1234","
    <div style=""display: flex; justify-content: center; align-items: center;"">
      <img src=""images/red_deck_2.png"" style=""width: 300px; height: 300px; margin-right: 10px;"" />
      <img src=""images/blue_deck_1.png"" style=""width: 300px; height: 300px;"" />
    </div>","1","1",""
"","","","","","html-keyboard-response","27","130651","0.0-22.0-0.0","783B20FFE9AE4B5DB9F1979DC5337B3E","783B20FFE9AE4B5DB9F1979DC5337B3E","6ef5af36-aa8f-48ab-b9be-b3946caee220","54f8d589-66fc-4c65-830f-1dcc63bce8cc","{""participantId"":""783B20FFE9AE4B5DB9F1979DC5337B3E"",""assignmentId"":""6ef5af36-aa8f-48ab-b9be-b3946caee220"",""projectId"":""54f8d589-66fc-4c65-830f-1dcc63bce8cc""}","https://test12345.live/?participantId=783B20FFE9AE4B5DB9F1979DC5337B3E&assignmentId=6ef5af36-aa8f-48ab-b9be-b3946caee220&projectId=54f8d589-66fc-4c65-830f-1dcc63bce8cc","","null","<div style=""display: flex; justify-content: center; align-items: center;"">
                    <img src=""images/semantic/semantic_series_10/semantic_series_10_a.jpg"" style=""width: 300px; height: 300px;"" />
                  </div>","null","",""
"","","","","","html-keyboard-response","28","133665","0.0-22.0-1.0","783B20FFE9AE4B5DB9F1979DC5337B3E","783B20FFE9AE4B5DB9F1979DC5337B3E","6ef5af36-aa8f-48ab-b9be-b3946caee220","54f8d589-66fc-4c65-830f-1dcc63bce8cc","{""participantId"":""783B20FFE9AE4B5DB9F1979DC5337B3E"",""assignmentId"":""6ef5af36-aa8f-48ab-b9be-b3946caee220"",""projectId"":""54f8d589-66fc-4c65-830f-1dcc63bce8cc""}","https://test12345.live/?participantId=783B20FFE9AE4B5DB9F1979DC5337B3E&assignmentId=6ef5af36-aa8f-48ab-b9be-b3946caee220&projectId=54f8d589-66fc-4c65-830f-1dcc63bce8cc","","null","<div style=""display: flex; justify-content: center; align-items: center;"">
                    <img src=""images/semantic/semantic_series_10/semantic_series_10_b.jpg"" style=""width: 300px; height: 300px;"" />
                  </div>","null","",""
"","","","","","html-keyboard-response","29","136672","0.0-22.0-2.0","783B20FFE9AE4B5DB9F1979DC5337B3E","783B20FFE9AE4B5DB9F1979DC5337B3E","6ef5af36-aa8f-48ab-b9be-b3946caee220","54f8d589-66fc-4c65-830f-1dcc63bce8cc","{""participantId"":""783B20FFE9AE4B5DB9F1979DC5337B3E"",""assignmentId"":""6ef5af36-aa8f-48ab-b9be-b3946caee220"",""projectId"":""54f8d589-66fc-4c65-830f-1dcc63bce8cc""}","https://test12345.live/?participantId=783B20FFE9AE4B5DB9F1979DC5337B3E&assignmentId=6ef5af36-aa8f-48ab-b9be-b3946caee220&projectId=54f8d589-66fc-4c65-830f-1dcc63bce8cc","","null","<div style=""display: flex; justify-content: center; align-items: center;"">
                    <img src=""images/semantic/semantic_series_10/semantic_series_10_c.jpg"" style=""width: 300px; height: 300px;"" />
                  </div>","null","",""
"","","","","","html-keyboard-response","30","139679","0.0-22.0-3.0","783B20FFE9AE4B5DB9F1979DC5337B3E","783B20FFE9AE4B5DB9F1979DC5337B3E","6ef5af36-aa8f-48ab-b9be-b3946caee220","54f8d589-66fc-4c65-830f-1dcc63bce8cc","{""participantId"":""783B20FFE9AE4B5DB9F1979DC5337B3E"",""assignmentId"":""6ef5af36-aa8f-48ab-b9be-b3946caee220"",""projectId"":""54f8d589-66fc-4c65-830f-1dcc63bce8cc""}","https://test12345.live/?participantId=783B20FFE9AE4B5DB9F1979DC5337B3E&assignmentId=6ef5af36-aa8f-48ab-b9be-b3946caee220&projectId=54f8d589-66fc-4c65-830f-1dcc63bce8cc","","null","<div style=""display: flex; justify-content: center; align-items: center;"">
                    <img src=""images/semantic/semantic_series_10/semantic_series_10_d.jpg"" style=""width: 300px; height: 300px;"" />
                  </div>","null","",""
"","","","","","html-button-response","31","140836","0.0-23.0","783B20FFE9AE4B5DB9F1979DC5337B3E","783B20FFE9AE4B5DB9F1979DC5337B3E","6ef5af36-aa8f-48ab-b9be-b3946caee220","54f8d589-66fc-4c65-830f-1dcc63bce8cc","{""participantId"":""783B20FFE9AE4B5DB9F1979DC5337B3E"",""assignmentId"":""6ef5af36-aa8f-48ab-b9be-b3946caee220"",""projectId"":""54f8d589-66fc-4c65-830f-1dcc63bce8cc""}","https://test12345.live/?participantId=783B20FFE9AE4B5DB9F1979DC5337B3E&assignmentId=6ef5af36-aa8f-48ab-b9be-b3946caee220&projectId=54f8d589-66fc-4c65-830f-1dcc63bce8cc","","1156","Was there a person in the picture?","1","",""
"","","","","","survey-likert","32","142788","0.0-24.0","783B20FFE9AE4B5DB9F1979DC5337B3E","783B20FFE9AE4B5DB9F1979DC5337B3E","6ef5af36-aa8f-48ab-b9be-b3946caee220","54f8d589-66fc-4c65-830f-1dcc63bce8cc","{""participantId"":""783B20FFE9AE4B5DB9F1979DC5337B3E"",""assignmentId"":""6ef5af36-aa8f-48ab-b9be-b3946caee220"",""projectId"":""54f8d589-66fc-4c65-830f-1dcc63bce8cc""}","https://test12345.live/?participantId=783B20FFE9AE4B5DB9F1979DC5337B3E&assignmentId=6ef5af36-aa8f-48ab-b9be-b3946caee220&projectId=54f8d589-66fc-4c65-830f-1dcc63bce8cc","","1952","","{""Q0"":2}","","[0]"
"","","","","","html-button-response","33","143912","0.0-25.0","783B20FFE9AE4B5DB9F1979DC5337B3E","783B20FFE9AE4B5DB9F1979DC5337B3E","6ef5af36-aa8f-48ab-b9be-b3946caee220","54f8d589-66fc-4c65-830f-1dcc63bce8cc","{""participantId"":""783B20FFE9AE4B5DB9F1979DC5337B3E"",""assignmentId"":""6ef5af36-aa8f-48ab-b9be-b3946caee220"",""projectId"":""54f8d589-66fc-4c65-830f-1dcc63bce8cc""}","https://test12345.live/?participantId=783B20FFE9AE4B5DB9F1979DC5337B3E&assignmentId=6ef5af36-aa8f-48ab-b9be-b3946caee220&projectId=54f8d589-66fc-4c65-830f-1dcc63bce8cc","","1122","
    <div style=""display: flex; justify-content: center; align-items: center;"">
      <img src=""images/red_deck_2.png"" style=""width: 300px; height: 300px; margin-right: 10px;"" />
      <img src=""images/blue_deck_1.png"" style=""width: 300px; height: 300px;"" />
    </div>","1","1",""
"","","","","","html-keyboard-response","34","146913","0.0-27.0-0.0","783B20FFE9AE4B5DB9F1979DC5337B3E","783B20FFE9AE4B5DB9F1979DC5337B3E","6ef5af36-aa8f-48ab-b9be-b3946caee220","54f8d589-66fc-4c65-830f-1dcc63bce8cc","{""participantId"":""783B20FFE9AE4B5DB9F1979DC5337B3E"",""assignmentId"":""6ef5af36-aa8f-48ab-b9be-b3946caee220"",""projectId"":""54f8d589-66fc-4c65-830f-1dcc63bce8cc""}","https://test12345.live/?participantId=783B20FFE9AE4B5DB9F1979DC5337B3E&assignmentId=6ef5af36-aa8f-48ab-b9be-b3946caee220&projectId=54f8d589-66fc-4c65-830f-1dcc63bce8cc","","null","<div style=""display: flex; justify-content: center; align-items: center;"">
                    <img src=""images/semantic/semantic_series_9/semantic_series_9_a.jpg"" style=""width: 300px; height: 300px;"" />
                  </div>","null","",""
"","","","","","html-keyboard-response","35","149916","0.0-27.0-1.0","783B20FFE9AE4B5DB9F1979DC5337B3E","783B20FFE9AE4B5DB9F1979DC5337B3E","6ef5af36-aa8f-48ab-b9be-b3946caee220","54f8d589-66fc-4c65-830f-1dcc63bce8cc","{""participantId"":""783B20FFE9AE4B5DB9F1979DC5337B3E"",""assignmentId"":""6ef5af36-aa8f-48ab-b9be-b3946caee220"",""projectId"":""54f8d589-66fc-4c65-830f-1dcc63bce8cc""}","https://test12345.live/?participantId=783B20FFE9AE4B5DB9F1979DC5337B3E&assignmentId=6ef5af36-aa8f-48ab-b9be-b3946caee220&projectId=54f8d589-66fc-4c65-830f-1dcc63bce8cc","","null","<div style=""display: flex; justify-content: center; align-items: center;"">
                    <img src=""images/semantic/semantic_series_9/semantic_series_9_b.jpg"" style=""width: 300px; height: 300px;"" />
                  </div>","null","",""
"","","","","","html-keyboard-response","36","152927","0.0-27.0-2.0","783B20FFE9AE4B5DB9F1979DC5337B3E","783B20FFE9AE4B5DB9F1979DC5337B3E","6ef5af36-aa8f-48ab-b9be-b3946caee220","54f8d589-66fc-4c65-830f-1dcc63bce8cc","{""participantId"":""783B20FFE9AE4B5DB9F1979DC5337B3E"",""assignmentId"":""6ef5af36-aa8f-48ab-b9be-b3946caee220"",""projectId"":""54f8d589-66fc-4c65-830f-1dcc63bce8cc""}","https://test12345.live/?participantId=783B20FFE9AE4B5DB9F1979DC5337B3E&assignmentId=6ef5af36-aa8f-48ab-b9be-b3946caee220&projectId=54f8d589-66fc-4c65-830f-1dcc63bce8cc","","null","<div style=""display: flex; justify-content: center; align-items: center;"">
                    <img src=""images/semantic/semantic_series_9/semantic_series_9_c.jpg"" style=""width: 300px; height: 300px;"" />
                  </div>","null","",""
"","","","","","html-keyboard-response","37","155938","0.0-27.0-3.0","783B20FFE9AE4B5DB9F1979DC5337B3E","783B20FFE9AE4B5DB9F1979DC5337B3E","6ef5af36-aa8f-48ab-b9be-b3946caee220","54f8d589-66fc-4c65-830f-1dcc63bce8cc","{""participantId"":""783B20FFE9AE4B5DB9F1979DC5337B3E"",""assignmentId"":""6ef5af36-aa8f-48ab-b9be-b3946caee220"",""projectId"":""54f8d589-66fc-4c65-830f-1dcc63bce8cc""}","https://test12345.live/?participantId=783B20FFE9AE4B5DB9F1979DC5337B3E&assignmentId=6ef5af36-aa8f-48ab-b9be-b3946caee220&projectId=54f8d589-66fc-4c65-830f-1dcc63bce8cc","","null","<div style=""display: flex; justify-content: center; align-items: center;"">
                    <img src=""images/semantic/semantic_series_9/semantic_series_9_d.jpg"" style=""width: 300px; height: 300px;"" />
                  </div>","null","",""
"","","","","","html-button-response","38","157013","0.0-28.0","783B20FFE9AE4B5DB9F1979DC5337B3E","783B20FFE9AE4B5DB9F1979DC5337B3E","6ef5af36-aa8f-48ab-b9be-b3946caee220","54f8d589-66fc-4c65-830f-1dcc63bce8cc","{""participantId"":""783B20FFE9AE4B5DB9F1979DC5337B3E"",""assignmentId"":""6ef5af36-aa8f-48ab-b9be-b3946caee220"",""projectId"":""54f8d589-66fc-4c65-830f-1dcc63bce8cc""}","https://test12345.live/?participantId=783B20FFE9AE4B5DB9F1979DC5337B3E&assignmentId=6ef5af36-aa8f-48ab-b9be-b3946caee220&projectId=54f8d589-66fc-4c65-830f-1dcc63bce8cc","","1074","Was there a person in the picture?","1","",""
"","","","","","survey-likert","39","159597","0.0-29.0","783B20FFE9AE4B5DB9F1979DC5337B3E","783B20FFE9AE4B5DB9F1979DC5337B3E","6ef5af36-aa8f-48ab-b9be-b3946caee220","54f8d589-66fc-4c65-830f-1dcc63bce8cc","{""participantId"":""783B20FFE9AE4B5DB9F1979DC5337B3E"",""assignmentId"":""6ef5af36-aa8f-48ab-b9be-b3946caee220"",""projectId"":""54f8d589-66fc-4c65-830f-1dcc63bce8cc""}","https://test12345.live/?participantId=783B20FFE9AE4B5DB9F1979DC5337B3E&assignmentId=6ef5af36-aa8f-48ab-b9be-b3946caee220&projectId=54f8d589-66fc-4c65-830f-1dcc63bce8cc","","2584","","{""Q0"":3}","","[0]"
"","","","","","html-button-response","40","160609","0.0-30.0","783B20FFE9AE4B5DB9F1979DC5337B3E","783B20FFE9AE4B5DB9F1979DC5337B3E","6ef5af36-aa8f-48ab-b9be-b3946caee220","54f8d589-66fc-4c65-830f-1dcc63bce8cc","{""participantId"":""783B20FFE9AE4B5DB9F1979DC5337B3E"",""assignmentId"":""6ef5af36-aa8f-48ab-b9be-b3946caee220"",""projectId"":""54f8d589-66fc-4c65-830f-1dcc63bce8cc""}","https://test12345.live/?participantId=783B20FFE9AE4B5DB9F1979DC5337B3E&assignmentId=6ef5af36-aa8f-48ab-b9be-b3946caee220&projectId=54f8d589-66fc-4c65-830f-1dcc63bce8cc","","1009","
    <div style=""display: flex; justify-content: center; align-items: center;"">
      <img src=""images/red_deck_2.png"" style=""width: 300px; height: 300px; margin-right: 10px;"" />
      <img src=""images/blue_deck_1.png"" style=""width: 300px; height: 300px;"" />
    </div>","1","1",""
"","","","","","html-keyboard-response","41","163612","0.0-32.0-0.0","783B20FFE9AE4B5DB9F1979DC5337B3E","783B20FFE9AE4B5DB9F1979DC5337B3E","6ef5af36-aa8f-48ab-b9be-b3946caee220","54f8d589-66fc-4c65-830f-1dcc63bce8cc","{""participantId"":""783B20FFE9AE4B5DB9F1979DC5337B3E"",""assignmentId"":""6ef5af36-aa8f-48ab-b9be-b3946caee220"",""projectId"":""54f8d589-66fc-4c65-830f-1dcc63bce8cc""}","https://test12345.live/?participantId=783B20FFE9AE4B5DB9F1979DC5337B3E&assignmentId=6ef5af36-aa8f-48ab-b9be-b3946caee220&projectId=54f8d589-66fc-4c65-830f-1dcc63bce8cc","","null","<div style=""display: flex; justify-content: center; align-items: center;"">
                    <img src=""images/semantic/semantic_series_7/semantic_series_7_a.jpg"" style=""width: 300px; height: 300px;"" />
                  </div>","null","",""
"","","","","","html-keyboard-response","42","166628","0.0-32.0-1.0","783B20FFE9AE4B5DB9F1979DC5337B3E","783B20FFE9AE4B5DB9F1979DC5337B3E","6ef5af36-aa8f-48ab-b9be-b3946caee220","54f8d589-66fc-4c65-830f-1dcc63bce8cc","{""participantId"":""783B20FFE9AE4B5DB9F1979DC5337B3E"",""assignmentId"":""6ef5af36-aa8f-48ab-b9be-b3946caee220"",""projectId"":""54f8d589-66fc-4c65-830f-1dcc63bce8cc""}","https://test12345.live/?participantId=783B20FFE9AE4B5DB9F1979DC5337B3E&assignmentId=6ef5af36-aa8f-48ab-b9be-b3946caee220&projectId=54f8d589-66fc-4c65-830f-1dcc63bce8cc","","null","<div style=""display: flex; justify-content: center; align-items: center;"">
                    <img src=""images/semantic/semantic_series_7/semantic_series_7_b.jpg"" style=""width: 300px; height: 300px;"" />
                  </div>","null","",""
"","","","","","html-keyboard-response","43","169644","0.0-32.0-2.0","783B20FFE9AE4B5DB9F1979DC5337B3E","783B20FFE9AE4B5DB9F1979DC5337B3E","6ef5af36-aa8f-48ab-b9be-b3946caee220","54f8d589-66fc-4c65-830f-1dcc63bce8cc","{""participantId"":""783B20FFE9AE4B5DB9F1979DC5337B3E"",""assignmentId"":""6ef5af36-aa8f-48ab-b9be-b3946caee220"",""projectId"":""54f8d589-66fc-4c65-830f-1dcc63bce8cc""}","https://test12345.live/?participantId=783B20FFE9AE4B5DB9F1979DC5337B3E&assignmentId=6ef5af36-aa8f-48ab-b9be-b3946caee220&projectId=54f8d589-66fc-4c65-830f-1dcc63bce8cc","","null","<div style=""display: flex; justify-content: center; align-items: center;"">
                    <img src=""images/semantic/semantic_series_7/semantic_series_7_c.jpg"" style=""width: 300px; height: 300px;"" />
                  </div>","null","",""
"","","","","","html-keyboard-response","44","172645","0.0-32.0-3.0","783B20FFE9AE4B5DB9F1979DC5337B3E","783B20FFE9AE4B5DB9F1979DC5337B3E","6ef5af36-aa8f-48ab-b9be-b3946caee220","54f8d589-66fc-4c65-830f-1dcc63bce8cc","{""participantId"":""783B20FFE9AE4B5DB9F1979DC5337B3E"",""assignmentId"":""6ef5af36-aa8f-48ab-b9be-b3946caee220"",""projectId"":""54f8d589-66fc-4c65-830f-1dcc63bce8cc""}","https://test12345.live/?participantId=783B20FFE9AE4B5DB9F1979DC5337B3E&assignmentId=6ef5af36-aa8f-48ab-b9be-b3946caee220&projectId=54f8d589-66fc-4c65-830f-1dcc63bce8cc","","null","<div style=""display: flex; justify-content: center; align-items: center;"">
                    <img src=""images/semantic/semantic_series_7/semantic_series_7_d.jpg"" style=""width: 300px; height: 300px;"" />
                  </div>","null","",""
"","","","","","html-button-response","45","173905","0.0-33.0","783B20FFE9AE4B5DB9F1979DC5337B3E","783B20FFE9AE4B5DB9F1979DC5337B3E","6ef5af36-aa8f-48ab-b9be-b3946caee220","54f8d589-66fc-4c65-830f-1dcc63bce8cc","{""participantId"":""783B20FFE9AE4B5DB9F1979DC5337B3E"",""assignmentId"":""6ef5af36-aa8f-48ab-b9be-b3946caee220"",""projectId"":""54f8d589-66fc-4c65-830f-1dcc63bce8cc""}","https://test12345.live/?participantId=783B20FFE9AE4B5DB9F1979DC5337B3E&assignmentId=6ef5af36-aa8f-48ab-b9be-b3946caee220&projectId=54f8d589-66fc-4c65-830f-1dcc63bce8cc","","1260","Was there a person in the picture?","1","",""
"","","","","","survey-likert","46","175662","0.0-34.0","783B20FFE9AE4B5DB9F1979DC5337B3E","783B20FFE9AE4B5DB9F1979DC5337B3E","6ef5af36-aa8f-48ab-b9be-b3946caee220","54f8d589-66fc-4c65-830f-1dcc63bce8cc","{""participantId"":""783B20FFE9AE4B5DB9F1979DC5337B3E"",""assignmentId"":""6ef5af36-aa8f-48ab-b9be-b3946caee220"",""projectId"":""54f8d589-66fc-4c65-830f-1dcc63bce8cc""}","https://test12345.live/?participantId=783B20FFE9AE4B5DB9F1979DC5337B3E&assignmentId=6ef5af36-aa8f-48ab-b9be-b3946caee220&projectId=54f8d589-66fc-4c65-830f-1dcc63bce8cc","","1756","","{""Q0"":3}","","[0]"
"","","","","","html-button-response","47","176569","0.0-35.0","783B20FFE9AE4B5DB9F1979DC5337B3E","783B20FFE9AE4B5DB9F1979DC5337B3E","6ef5af36-aa8f-48ab-b9be-b3946caee220","54f8d589-66fc-4c65-830f-1dcc63bce8cc","{""participantId"":""783B20FFE9AE4B5DB9F1979DC5337B3E"",""assignmentId"":""6ef5af36-aa8f-48ab-b9be-b3946caee220"",""projectId"":""54f8d589-66fc-4c65-830f-1dcc63bce8cc""}","https://test12345.live/?participantId=783B20FFE9AE4B5DB9F1979DC5337B3E&assignmentId=6ef5af36-aa8f-48ab-b9be-b3946caee220&projectId=54f8d589-66fc-4c65-830f-1dcc63bce8cc","","906","
    <div style=""display: flex; justify-content: center; align-items: center;"">
      <img src=""images/red_deck_2.png"" style=""width: 300px; height: 300px; margin-right: 10px;"" />
      <img src=""images/blue_deck_1.png"" style=""width: 300px; height: 300px;"" />
    </div>","1","1",""
"","","","","","html-keyboard-response","48","179583","0.0-37.0-0.0","783B20FFE9AE4B5DB9F1979DC5337B3E","783B20FFE9AE4B5DB9F1979DC5337B3E","6ef5af36-aa8f-48ab-b9be-b3946caee220","54f8d589-66fc-4c65-830f-1dcc63bce8cc","{""participantId"":""783B20FFE9AE4B5DB9F1979DC5337B3E"",""assignmentId"":""6ef5af36-aa8f-48ab-b9be-b3946caee220"",""projectId"":""54f8d589-66fc-4c65-830f-1dcc63bce8cc""}","https://test12345.live/?participantId=783B20FFE9AE4B5DB9F1979DC5337B3E&assignmentId=6ef5af36-aa8f-48ab-b9be-b3946caee220&projectId=54f8d589-66fc-4c65-830f-1dcc63bce8cc","","null","<div style=""display: flex; justify-content: center; align-items: center;"">
                    <img src=""images/semantic/semantic_series_11/semantic_series_11_a.jpg"" style=""width: 300px; height: 300px;"" />
                  </div>","null","",""
"","","","","","html-keyboard-response","49","182601","0.0-37.0-1.0","783B20FFE9AE4B5DB9F1979DC5337B3E","783B20FFE9AE4B5DB9F1979DC5337B3E","6ef5af36-aa8f-48ab-b9be-b3946caee220","54f8d589-66fc-4c65-830f-1dcc63bce8cc","{""participantId"":""783B20FFE9AE4B5DB9F1979DC5337B3E"",""assignmentId"":""6ef5af36-aa8f-48ab-b9be-b3946caee220"",""projectId"":""54f8d589-66fc-4c65-830f-1dcc63bce8cc""}","https://test12345.live/?participantId=783B20FFE9AE4B5DB9F1979DC5337B3E&assignmentId=6ef5af36-aa8f-48ab-b9be-b3946caee220&projectId=54f8d589-66fc-4c65-830f-1dcc63bce8cc","","null","<div style=""display: flex; justify-content: center; align-items: center;"">
                    <img src=""images/semantic/semantic_series_11/semantic_series_11_b.jpg"" style=""width: 300px; height: 300px;"" />
                  </div>","null","",""
"","","","","","html-keyboard-response","50","185607","0.0-37.0-2.0","783B20FFE9AE4B5DB9F1979DC5337B3E","783B20FFE9AE4B5DB9F1979DC5337B3E","6ef5af36-aa8f-48ab-b9be-b3946caee220","54f8d589-66fc-4c65-830f-1dcc63bce8cc","{""participantId"":""783B20FFE9AE4B5DB9F1979DC5337B3E"",""assignmentId"":""6ef5af36-aa8f-48ab-b9be-b3946caee220"",""projectId"":""54f8d589-66fc-4c65-830f-1dcc63bce8cc""}","https://test12345.live/?participantId=783B20FFE9AE4B5DB9F1979DC5337B3E&assignmentId=6ef5af36-aa8f-48ab-b9be-b3946caee220&projectId=54f8d589-66fc-4c65-830f-1dcc63bce8cc","","null","<div style=""display: flex; justify-content: center; align-items: center;"">
                    <img src=""images/semantic/semantic_series_11/semantic_series_11_c.jpg"" style=""width: 300px; height: 300px;"" />
                  </div>","null","",""
"","","","","","html-keyboard-response","51","188618","0.0-37.0-3.0","783B20FFE9AE4B5DB9F1979DC5337B3E","783B20FFE9AE4B5DB9F1979DC5337B3E","6ef5af36-aa8f-48ab-b9be-b3946caee220","54f8d589-66fc-4c65-830f-1dcc63bce8cc","{""participantId"":""783B20FFE9AE4B5DB9F1979DC5337B3E"",""assignmentId"":""6ef5af36-aa8f-48ab-b9be-b3946caee220"",""projectId"":""54f8d589-66fc-4c65-830f-1dcc63bce8cc""}","https://test12345.live/?participantId=783B20FFE9AE4B5DB9F1979DC5337B3E&assignmentId=6ef5af36-aa8f-48ab-b9be-b3946caee220&projectId=54f8d589-66fc-4c65-830f-1dcc63bce8cc","","null","<div style=""display: flex; justify-content: center; align-items: center;"">
                    <img src=""images/semantic/semantic_series_11/semantic_series_11_d.jpg"" style=""width: 300px; height: 300px;"" />
                  </div>","null","",""
"","","","","","html-button-response","52","190232","0.0-38.0","783B20FFE9AE4B5DB9F1979DC5337B3E","783B20FFE9AE4B5DB9F1979DC5337B3E","6ef5af36-aa8f-48ab-b9be-b3946caee220","54f8d589-66fc-4c65-830f-1dcc63bce8cc","{""participantId"":""783B20FFE9AE4B5DB9F1979DC5337B3E"",""assignmentId"":""6ef5af36-aa8f-48ab-b9be-b3946caee220"",""projectId"":""54f8d589-66fc-4c65-830f-1dcc63bce8cc""}","https://test12345.live/?participantId=783B20FFE9AE4B5DB9F1979DC5337B3E&assignmentId=6ef5af36-aa8f-48ab-b9be-b3946caee220&projectId=54f8d589-66fc-4c65-830f-1dcc63bce8cc","","1613","Was there a person in the picture?","0","",""
"","","","","","survey-likert","53","192504","0.0-39.0","783B20FFE9AE4B5DB9F1979DC5337B3E","783B20FFE9AE4B5DB9F1979DC5337B3E","6ef5af36-aa8f-48ab-b9be-b3946caee220","54f8d589-66fc-4c65-830f-1dcc63bce8cc","{""participantId"":""783B20FFE9AE4B5DB9F1979DC5337B3E"",""assignmentId"":""6ef5af36-aa8f-48ab-b9be-b3946caee220"",""projectId"":""54f8d589-66fc-4c65-830f-1dcc63bce8cc""}","https://test12345.live/?participantId=783B20FFE9AE4B5DB9F1979DC5337B3E&assignmentId=6ef5af36-aa8f-48ab-b9be-b3946caee220&projectId=54f8d589-66fc-4c65-830f-1dcc63bce8cc","","2271","","{""Q0"":2}","","[0]"
"","","","","","html-button-response","54","193967","0.0-40.0","783B20FFE9AE4B5DB9F1979DC5337B3E","783B20FFE9AE4B5DB9F1979DC5337B3E","6ef5af36-aa8f-48ab-b9be-b3946caee220","54f8d589-66fc-4c65-830f-1dcc63bce8cc","{""participantId"":""783B20FFE9AE4B5DB9F1979DC5337B3E"",""assignmentId"":""6ef5af36-aa8f-48ab-b9be-b3946caee220"",""projectId"":""54f8d589-66fc-4c65-830f-1dcc63bce8cc""}","https://test12345.live/?participantId=783B20FFE9AE4B5DB9F1979DC5337B3E&assignmentId=6ef5af36-aa8f-48ab-b9be-b3946caee220&projectId=54f8d589-66fc-4c65-830f-1dcc63bce8cc","","1461","
    <div style=""display: flex; justify-content: center; align-items: center;"">
      <img src=""images/red_deck_2.png"" style=""width: 300px; height: 300px; margin-right: 10px;"" />
      <img src=""images/blue_deck_1.png"" style=""width: 300px; height: 300px;"" />
    </div>","1","1",""
"","","","","","html-keyboard-response","55","196976","0.0-42.0-0.0","783B20FFE9AE4B5DB9F1979DC5337B3E","783B20FFE9AE4B5DB9F1979DC5337B3E","6ef5af36-aa8f-48ab-b9be-b3946caee220","54f8d589-66fc-4c65-830f-1dcc63bce8cc","{""participantId"":""783B20FFE9AE4B5DB9F1979DC5337B3E"",""assignmentId"":""6ef5af36-aa8f-48ab-b9be-b3946caee220"",""projectId"":""54f8d589-66fc-4c65-830f-1dcc63bce8cc""}","https://test12345.live/?participantId=783B20FFE9AE4B5DB9F1979DC5337B3E&assignmentId=6ef5af36-aa8f-48ab-b9be-b3946caee220&projectId=54f8d589-66fc-4c65-830f-1dcc63bce8cc","","null","<div style=""display: flex; justify-content: center; align-items: center;"">
                    <img src=""images/semantic/semantic_series_5/semantic_series_5_a.jpg"" style=""width: 300px; height: 300px;"" />
                  </div>","null","",""
"","","","","","html-keyboard-response","56","199977","0.0-42.0-1.0","783B20FFE9AE4B5DB9F1979DC5337B3E","783B20FFE9AE4B5DB9F1979DC5337B3E","6ef5af36-aa8f-48ab-b9be-b3946caee220","54f8d589-66fc-4c65-830f-1dcc63bce8cc","{""participantId"":""783B20FFE9AE4B5DB9F1979DC5337B3E"",""assignmentId"":""6ef5af36-aa8f-48ab-b9be-b3946caee220"",""projectId"":""54f8d589-66fc-4c65-830f-1dcc63bce8cc""}","https://test12345.live/?participantId=783B20FFE9AE4B5DB9F1979DC5337B3E&assignmentId=6ef5af36-aa8f-48ab-b9be-b3946caee220&projectId=54f8d589-66fc-4c65-830f-1dcc63bce8cc","","null","<div style=""display: flex; justify-content: center; align-items: center;"">
                    <img src=""images/semantic/semantic_series_5/semantic_series_5_b.jpg"" style=""width: 300px; height: 300px;"" />
                  </div>","null","",""
"","","","","","html-keyboard-response","57","202991","0.0-42.0-2.0","783B20FFE9AE4B5DB9F1979DC5337B3E","783B20FFE9AE4B5DB9F1979DC5337B3E","6ef5af36-aa8f-48ab-b9be-b3946caee220","54f8d589-66fc-4c65-830f-1dcc63bce8cc","{""participantId"":""783B20FFE9AE4B5DB9F1979DC5337B3E"",""assignmentId"":""6ef5af36-aa8f-48ab-b9be-b3946caee220"",""projectId"":""54f8d589-66fc-4c65-830f-1dcc63bce8cc""}","https://test12345.live/?participantId=783B20FFE9AE4B5DB9F1979DC5337B3E&assignmentId=6ef5af36-aa8f-48ab-b9be-b3946caee220&projectId=54f8d589-66fc-4c65-830f-1dcc63bce8cc","","null","<div style=""display: flex; justify-content: center; align-items: center;"">
                    <img src=""images/semantic/semantic_series_5/semantic_series_5_c.jpg"" style=""width: 300px; height: 300px;"" />
                  </div>","null","",""
"","","","","","html-keyboard-response","58","205997","0.0-42.0-3.0","783B20FFE9AE4B5DB9F1979DC5337B3E","783B20FFE9AE4B5DB9F1979DC5337B3E","6ef5af36-aa8f-48ab-b9be-b3946caee220","54f8d589-66fc-4c65-830f-1dcc63bce8cc","{""participantId"":""783B20FFE9AE4B5DB9F1979DC5337B3E"",""assignmentId"":""6ef5af36-aa8f-48ab-b9be-b3946caee220"",""projectId"":""54f8d589-66fc-4c65-830f-1dcc63bce8cc""}","https://test12345.live/?participantId=783B20FFE9AE4B5DB9F1979DC5337B3E&assignmentId=6ef5af36-aa8f-48ab-b9be-b3946caee220&projectId=54f8d589-66fc-4c65-830f-1dcc63bce8cc","","null","<div style=""display: flex; justify-content: center; align-items: center;"">
                    <img src=""images/semantic/semantic_series_5/semantic_series_5_d.jpg"" style=""width: 300px; height: 300px;"" />
                  </div>","null","",""
"","","","","","html-button-response","59","206939","0.0-43.0","783B20FFE9AE4B5DB9F1979DC5337B3E","783B20FFE9AE4B5DB9F1979DC5337B3E","6ef5af36-aa8f-48ab-b9be-b3946caee220","54f8d589-66fc-4c65-830f-1dcc63bce8cc","{""participantId"":""783B20FFE9AE4B5DB9F1979DC5337B3E"",""assignmentId"":""6ef5af36-aa8f-48ab-b9be-b3946caee220"",""projectId"":""54f8d589-66fc-4c65-830f-1dcc63bce8cc""}","https://test12345.live/?participantId=783B20FFE9AE4B5DB9F1979DC5337B3E&assignmentId=6ef5af36-aa8f-48ab-b9be-b3946caee220&projectId=54f8d589-66fc-4c65-830f-1dcc63bce8cc","","942","Was there a person in the picture?","0","",""
"","","","","","survey-likert","60","209437","0.0-44.0","783B20FFE9AE4B5DB9F1979DC5337B3E","783B20FFE9AE4B5DB9F1979DC5337B3E","6ef5af36-aa8f-48ab-b9be-b3946caee220","54f8d589-66fc-4c65-830f-1dcc63bce8cc","{""participantId"":""783B20FFE9AE4B5DB9F1979DC5337B3E"",""assignmentId"":""6ef5af36-aa8f-48ab-b9be-b3946caee220"",""projectId"":""54f8d589-66fc-4c65-830f-1dcc63bce8cc""}","https://test12345.live/?participantId=783B20FFE9AE4B5DB9F1979DC5337B3E&assignmentId=6ef5af36-aa8f-48ab-b9be-b3946caee220&projectId=54f8d589-66fc-4c65-830f-1dcc63bce8cc","","2497","","{""Q0"":3}","","[0]"
"","","","","","html-button-response","61","210386","0.0-45.0","783B20FFE9AE4B5DB9F1979DC5337B3E","783B20FFE9AE4B5DB9F1979DC5337B3E","6ef5af36-aa8f-48ab-b9be-b3946caee220","54f8d589-66fc-4c65-830f-1dcc63bce8cc","{""participantId"":""783B20FFE9AE4B5DB9F1979DC5337B3E"",""assignmentId"":""6ef5af36-aa8f-48ab-b9be-b3946caee220"",""projectId"":""54f8d589-66fc-4c65-830f-1dcc63bce8cc""}","https://test12345.live/?participantId=783B20FFE9AE4B5DB9F1979DC5337B3E&assignmentId=6ef5af36-aa8f-48ab-b9be-b3946caee220&projectId=54f8d589-66fc-4c65-830f-1dcc63bce8cc","","947","
    <div style=""display: flex; justify-content: center; align-items: center;"">
      <img src=""images/red_deck_2.png"" style=""width: 300px; height: 300px; margin-right: 10px;"" />
      <img src=""images/blue_deck_1.png"" style=""width: 300px; height: 300px;"" />
    </div>","0","0",""
"","","","","","html-keyboard-response","62","213387","0.0-46.0-0.0","783B20FFE9AE4B5DB9F1979DC5337B3E","783B20FFE9AE4B5DB9F1979DC5337B3E","6ef5af36-aa8f-48ab-b9be-b3946caee220","54f8d589-66fc-4c65-830f-1dcc63bce8cc","{""participantId"":""783B20FFE9AE4B5DB9F1979DC5337B3E"",""assignmentId"":""6ef5af36-aa8f-48ab-b9be-b3946caee220"",""projectId"":""54f8d589-66fc-4c65-830f-1dcc63bce8cc""}","https://test12345.live/?participantId=783B20FFE9AE4B5DB9F1979DC5337B3E&assignmentId=6ef5af36-aa8f-48ab-b9be-b3946caee220&projectId=54f8d589-66fc-4c65-830f-1dcc63bce8cc","","null","<div style=""display: flex; justify-content: center; align-items: center;"">
                    <img src=""images/causal/causal_series_2/causal_series_2_a.jpg"" style=""width: 300px; height: 300px;"" />
                  </div>","null","",""
"","","","","","html-keyboard-response","63","216389","0.0-46.0-1.0","783B20FFE9AE4B5DB9F1979DC5337B3E","783B20FFE9AE4B5DB9F1979DC5337B3E","6ef5af36-aa8f-48ab-b9be-b3946caee220","54f8d589-66fc-4c65-830f-1dcc63bce8cc","{""participantId"":""783B20FFE9AE4B5DB9F1979DC5337B3E"",""assignmentId"":""6ef5af36-aa8f-48ab-b9be-b3946caee220"",""projectId"":""54f8d589-66fc-4c65-830f-1dcc63bce8cc""}","https://test12345.live/?participantId=783B20FFE9AE4B5DB9F1979DC5337B3E&assignmentId=6ef5af36-aa8f-48ab-b9be-b3946caee220&projectId=54f8d589-66fc-4c65-830f-1dcc63bce8cc","","null","<div style=""display: flex; justify-content: center; align-items: center;"">
                    <img src=""images/causal/causal_series_2/causal_series_2_b.jpg"" style=""width: 300px; height: 300px;"" />
                  </div>","null","",""
"","","","","","html-keyboard-response","64","219404","0.0-46.0-2.0","783B20FFE9AE4B5DB9F1979DC5337B3E","783B20FFE9AE4B5DB9F1979DC5337B3E","6ef5af36-aa8f-48ab-b9be-b3946caee220","54f8d589-66fc-4c65-830f-1dcc63bce8cc","{""participantId"":""783B20FFE9AE4B5DB9F1979DC5337B3E"",""assignmentId"":""6ef5af36-aa8f-48ab-b9be-b3946caee220"",""projectId"":""54f8d589-66fc-4c65-830f-1dcc63bce8cc""}","https://test12345.live/?participantId=783B20FFE9AE4B5DB9F1979DC5337B3E&assignmentId=6ef5af36-aa8f-48ab-b9be-b3946caee220&projectId=54f8d589-66fc-4c65-830f-1dcc63bce8cc","","null","<div style=""display: flex; justify-content: center; align-items: center;"">
                    <img src=""images/causal/causal_series_2/causal_series_2_c.jpg"" style=""width: 300px; height: 300px;"" />
                  </div>","null","",""
"","","","","","html-keyboard-response","65","222412","0.0-46.0-3.0","783B20FFE9AE4B5DB9F1979DC5337B3E","783B20FFE9AE4B5DB9F1979DC5337B3E","6ef5af36-aa8f-48ab-b9be-b3946caee220","54f8d589-66fc-4c65-830f-1dcc63bce8cc","{""participantId"":""783B20FFE9AE4B5DB9F1979DC5337B3E"",""assignmentId"":""6ef5af36-aa8f-48ab-b9be-b3946caee220"",""projectId"":""54f8d589-66fc-4c65-830f-1dcc63bce8cc""}","https://test12345.live/?participantId=783B20FFE9AE4B5DB9F1979DC5337B3E&assignmentId=6ef5af36-aa8f-48ab-b9be-b3946caee220&projectId=54f8d589-66fc-4c65-830f-1dcc63bce8cc","","null","<div style=""display: flex; justify-content: center; align-items: center;"">
                    <img src=""images/causal/causal_series_2/causal_series_2_d.jpg"" style=""width: 300px; height: 300px;"" />
                  </div>","null","",""
"","","","","","html-button-response","66","223558","0.0-48.0","783B20FFE9AE4B5DB9F1979DC5337B3E","783B20FFE9AE4B5DB9F1979DC5337B3E","6ef5af36-aa8f-48ab-b9be-b3946caee220","54f8d589-66fc-4c65-830f-1dcc63bce8cc","{""participantId"":""783B20FFE9AE4B5DB9F1979DC5337B3E"",""assignmentId"":""6ef5af36-aa8f-48ab-b9be-b3946caee220"",""projectId"":""54f8d589-66fc-4c65-830f-1dcc63bce8cc""}","https://test12345.live/?participantId=783B20FFE9AE4B5DB9F1979DC5337B3E&assignmentId=6ef5af36-aa8f-48ab-b9be-b3946caee220&projectId=54f8d589-66fc-4c65-830f-1dcc63bce8cc","","1146","Was there a person in the picture?","0","",""
"","","","","","survey-likert","67","226440","0.0-49.0","783B20FFE9AE4B5DB9F1979DC5337B3E","783B20FFE9AE4B5DB9F1979DC5337B3E","6ef5af36-aa8f-48ab-b9be-b3946caee220","54f8d589-66fc-4c65-830f-1dcc63bce8cc","{""participantId"":""783B20FFE9AE4B5DB9F1979DC5337B3E"",""assignmentId"":""6ef5af36-aa8f-48ab-b9be-b3946caee220"",""projectId"":""54f8d589-66fc-4c65-830f-1dcc63bce8cc""}","https://test12345.live/?participantId=783B20FFE9AE4B5DB9F1979DC5337B3E&assignmentId=6ef5af36-aa8f-48ab-b9be-b3946caee220&projectId=54f8d589-66fc-4c65-830f-1dcc63bce8cc","","2881","","{""Q0"":2}","","[0]"
"","","","","","html-button-response","68","227677","0.0-50.0","783B20FFE9AE4B5DB9F1979DC5337B3E","783B20FFE9AE4B5DB9F1979DC5337B3E","6ef5af36-aa8f-48ab-b9be-b3946caee220","54f8d589-66fc-4c65-830f-1dcc63bce8cc","{""participantId"":""783B20FFE9AE4B5DB9F1979DC5337B3E"",""assignmentId"":""6ef5af36-aa8f-48ab-b9be-b3946caee220"",""projectId"":""54f8d589-66fc-4c65-830f-1dcc63bce8cc""}","https://test12345.live/?participantId=783B20FFE9AE4B5DB9F1979DC5337B3E&assignmentId=6ef5af36-aa8f-48ab-b9be-b3946caee220&projectId=54f8d589-66fc-4c65-830f-1dcc63bce8cc","","1235","
    <div style=""display: flex; justify-content: center; align-items: center;"">
      <img src=""images/red_deck_2.png"" style=""width: 300px; height: 300px; margin-right: 10px;"" />
      <img src=""images/blue_deck_1.png"" style=""width: 300px; height: 300px;"" />
    </div>","1","1",""
"","","","","","html-keyboard-response","69","230683","0.0-52.0-0.0","783B20FFE9AE4B5DB9F1979DC5337B3E","783B20FFE9AE4B5DB9F1979DC5337B3E","6ef5af36-aa8f-48ab-b9be-b3946caee220","54f8d589-66fc-4c65-830f-1dcc63bce8cc","{""participantId"":""783B20FFE9AE4B5DB9F1979DC5337B3E"",""assignmentId"":""6ef5af36-aa8f-48ab-b9be-b3946caee220"",""projectId"":""54f8d589-66fc-4c65-830f-1dcc63bce8cc""}","https://test12345.live/?participantId=783B20FFE9AE4B5DB9F1979DC5337B3E&assignmentId=6ef5af36-aa8f-48ab-b9be-b3946caee220&projectId=54f8d589-66fc-4c65-830f-1dcc63bce8cc","","null","<div style=""display: flex; justify-content: center; align-items: center;"">
                    <img src=""images/semantic/semantic_series_8/semantic_series_8_a.jpg"" style=""width: 300px; height: 300px;"" />
                  </div>","null","",""
"","","","","","html-keyboard-response","70","233698","0.0-52.0-1.0","783B20FFE9AE4B5DB9F1979DC5337B3E","783B20FFE9AE4B5DB9F1979DC5337B3E","6ef5af36-aa8f-48ab-b9be-b3946caee220","54f8d589-66fc-4c65-830f-1dcc63bce8cc","{""participantId"":""783B20FFE9AE4B5DB9F1979DC5337B3E"",""assignmentId"":""6ef5af36-aa8f-48ab-b9be-b3946caee220"",""projectId"":""54f8d589-66fc-4c65-830f-1dcc63bce8cc""}","https://test12345.live/?participantId=783B20FFE9AE4B5DB9F1979DC5337B3E&assignmentId=6ef5af36-aa8f-48ab-b9be-b3946caee220&projectId=54f8d589-66fc-4c65-830f-1dcc63bce8cc","","null","<div style=""display: flex; justify-content: center; align-items: center;"">
                    <img src=""images/semantic/semantic_series_8/semantic_series_8_b.jpg"" style=""width: 300px; height: 300px;"" />
                  </div>","null","",""
"","","","","","html-keyboard-response","71","236704","0.0-52.0-2.0","783B20FFE9AE4B5DB9F1979DC5337B3E","783B20FFE9AE4B5DB9F1979DC5337B3E","6ef5af36-aa8f-48ab-b9be-b3946caee220","54f8d589-66fc-4c65-830f-1dcc63bce8cc","{""participantId"":""783B20FFE9AE4B5DB9F1979DC5337B3E"",""assignmentId"":""6ef5af36-aa8f-48ab-b9be-b3946caee220"",""projectId"":""54f8d589-66fc-4c65-830f-1dcc63bce8cc""}","https://test12345.live/?participantId=783B20FFE9AE4B5DB9F1979DC5337B3E&assignmentId=6ef5af36-aa8f-48ab-b9be-b3946caee220&projectId=54f8d589-66fc-4c65-830f-1dcc63bce8cc","","null","<div style=""display: flex; justify-content: center; align-items: center;"">
                    <img src=""images/semantic/semantic_series_8/semantic_series_8_c.jpg"" style=""width: 300px; height: 300px;"" />
                  </div>","null","",""
"","","","","","html-keyboard-response","72","239710","0.0-52.0-3.0","783B20FFE9AE4B5DB9F1979DC5337B3E","783B20FFE9AE4B5DB9F1979DC5337B3E","6ef5af36-aa8f-48ab-b9be-b3946caee220","54f8d589-66fc-4c65-830f-1dcc63bce8cc","{""participantId"":""783B20FFE9AE4B5DB9F1979DC5337B3E"",""assignmentId"":""6ef5af36-aa8f-48ab-b9be-b3946caee220"",""projectId"":""54f8d589-66fc-4c65-830f-1dcc63bce8cc""}","https://test12345.live/?participantId=783B20FFE9AE4B5DB9F1979DC5337B3E&assignmentId=6ef5af36-aa8f-48ab-b9be-b3946caee220&projectId=54f8d589-66fc-4c65-830f-1dcc63bce8cc","","null","<div style=""display: flex; justify-content: center; align-items: center;"">
                    <img src=""images/semantic/semantic_series_8/semantic_series_8_d.jpg"" style=""width: 300px; height: 300px;"" />
                  </div>","null","",""
"","","","","","html-button-response","73","240689","0.0-53.0","783B20FFE9AE4B5DB9F1979DC5337B3E","783B20FFE9AE4B5DB9F1979DC5337B3E","6ef5af36-aa8f-48ab-b9be-b3946caee220","54f8d589-66fc-4c65-830f-1dcc63bce8cc","{""participantId"":""783B20FFE9AE4B5DB9F1979DC5337B3E"",""assignmentId"":""6ef5af36-aa8f-48ab-b9be-b3946caee220"",""projectId"":""54f8d589-66fc-4c65-830f-1dcc63bce8cc""}","https://test12345.live/?participantId=783B20FFE9AE4B5DB9F1979DC5337B3E&assignmentId=6ef5af36-aa8f-48ab-b9be-b3946caee220&projectId=54f8d589-66fc-4c65-830f-1dcc63bce8cc","","978","Was there a person in the picture?","1","",""
"","","","","","survey-likert","74","245813","0.0-54.0","783B20FFE9AE4B5DB9F1979DC5337B3E","783B20FFE9AE4B5DB9F1979DC5337B3E","6ef5af36-aa8f-48ab-b9be-b3946caee220","54f8d589-66fc-4c65-830f-1dcc63bce8cc","{""participantId"":""783B20FFE9AE4B5DB9F1979DC5337B3E"",""assignmentId"":""6ef5af36-aa8f-48ab-b9be-b3946caee220"",""projectId"":""54f8d589-66fc-4c65-830f-1dcc63bce8cc""}","https://test12345.live/?participantId=783B20FFE9AE4B5DB9F1979DC5337B3E&assignmentId=6ef5af36-aa8f-48ab-b9be-b3946caee220&projectId=54f8d589-66fc-4c65-830f-1dcc63bce8cc","","5123","","{""Q0"":1}","","[0]"
"","","","","","html-button-response","75","246693","0.0-55.0","783B20FFE9AE4B5DB9F1979DC5337B3E","783B20FFE9AE4B5DB9F1979DC5337B3E","6ef5af36-aa8f-48ab-b9be-b3946caee220","54f8d589-66fc-4c65-830f-1dcc63bce8cc","{""participantId"":""783B20FFE9AE4B5DB9F1979DC5337B3E"",""assignmentId"":""6ef5af36-aa8f-48ab-b9be-b3946caee220"",""projectId"":""54f8d589-66fc-4c65-830f-1dcc63bce8cc""}","https://test12345.live/?participantId=783B20FFE9AE4B5DB9F1979DC5337B3E&assignmentId=6ef5af36-aa8f-48ab-b9be-b3946caee220&projectId=54f8d589-66fc-4c65-830f-1dcc63bce8cc","","878","
    <div style=""display: flex; justify-content: center; align-items: center;"">
      <img src=""images/red_deck_2.png"" style=""width: 300px; height: 300px; margin-right: 10px;"" />
      <img src=""images/blue_deck_1.png"" style=""width: 300px; height: 300px;"" />
    </div>","1","1",""
"","","","","","html-keyboard-response","76","249696","0.0-57.0-0.0","783B20FFE9AE4B5DB9F1979DC5337B3E","783B20FFE9AE4B5DB9F1979DC5337B3E","6ef5af36-aa8f-48ab-b9be-b3946caee220","54f8d589-66fc-4c65-830f-1dcc63bce8cc","{""participantId"":""783B20FFE9AE4B5DB9F1979DC5337B3E"",""assignmentId"":""6ef5af36-aa8f-48ab-b9be-b3946caee220"",""projectId"":""54f8d589-66fc-4c65-830f-1dcc63bce8cc""}","https://test12345.live/?participantId=783B20FFE9AE4B5DB9F1979DC5337B3E&assignmentId=6ef5af36-aa8f-48ab-b9be-b3946caee220&projectId=54f8d589-66fc-4c65-830f-1dcc63bce8cc","","null","<div style=""display: flex; justify-content: center; align-items: center;"">
                    <img src=""images/semantic/semantic_series_3/semantic_series_3_a.jpg"" style=""width: 300px; height: 300px;"" />
                  </div>","null","",""
"","","","","","html-keyboard-response","77","252700","0.0-57.0-1.0","783B20FFE9AE4B5DB9F1979DC5337B3E","783B20FFE9AE4B5DB9F1979DC5337B3E","6ef5af36-aa8f-48ab-b9be-b3946caee220","54f8d589-66fc-4c65-830f-1dcc63bce8cc","{""participantId"":""783B20FFE9AE4B5DB9F1979DC5337B3E"",""assignmentId"":""6ef5af36-aa8f-48ab-b9be-b3946caee220"",""projectId"":""54f8d589-66fc-4c65-830f-1dcc63bce8cc""}","https://test12345.live/?participantId=783B20FFE9AE4B5DB9F1979DC5337B3E&assignmentId=6ef5af36-aa8f-48ab-b9be-b3946caee220&projectId=54f8d589-66fc-4c65-830f-1dcc63bce8cc","","null","<div style=""display: flex; justify-content: center; align-items: center;"">
                    <img src=""images/semantic/semantic_series_3/semantic_series_3_b.jpg"" style=""width: 300px; height: 300px;"" />
                  </div>","null","",""
"","","","","","html-keyboard-response","78","255708","0.0-57.0-2.0","783B20FFE9AE4B5DB9F1979DC5337B3E","783B20FFE9AE4B5DB9F1979DC5337B3E","6ef5af36-aa8f-48ab-b9be-b3946caee220","54f8d589-66fc-4c65-830f-1dcc63bce8cc","{""participantId"":""783B20FFE9AE4B5DB9F1979DC5337B3E"",""assignmentId"":""6ef5af36-aa8f-48ab-b9be-b3946caee220"",""projectId"":""54f8d589-66fc-4c65-830f-1dcc63bce8cc""}","https://test12345.live/?participantId=783B20FFE9AE4B5DB9F1979DC5337B3E&assignmentId=6ef5af36-aa8f-48ab-b9be-b3946caee220&projectId=54f8d589-66fc-4c65-830f-1dcc63bce8cc","","null","<div style=""display: flex; justify-content: center; align-items: center;"">
                    <img src=""images/semantic/semantic_series_3/semantic_series_3_c.jpg"" style=""width: 300px; height: 300px;"" />
                  </div>","null","",""
"","","","","","html-keyboard-response","79","258724","0.0-57.0-3.0","783B20FFE9AE4B5DB9F1979DC5337B3E","783B20FFE9AE4B5DB9F1979DC5337B3E","6ef5af36-aa8f-48ab-b9be-b3946caee220","54f8d589-66fc-4c65-830f-1dcc63bce8cc","{""participantId"":""783B20FFE9AE4B5DB9F1979DC5337B3E"",""assignmentId"":""6ef5af36-aa8f-48ab-b9be-b3946caee220"",""projectId"":""54f8d589-66fc-4c65-830f-1dcc63bce8cc""}","https://test12345.live/?participantId=783B20FFE9AE4B5DB9F1979DC5337B3E&assignmentId=6ef5af36-aa8f-48ab-b9be-b3946caee220&projectId=54f8d589-66fc-4c65-830f-1dcc63bce8cc","","null","<div style=""display: flex; justify-content: center; align-items: center;"">
                    <img src=""images/semantic/semantic_series_3/semantic_series_3_d.jpg"" style=""width: 300px; height: 300px;"" />
                  </div>","null","",""
"","","","","","html-button-response","80","259876","0.0-58.0","783B20FFE9AE4B5DB9F1979DC5337B3E","783B20FFE9AE4B5DB9F1979DC5337B3E","6ef5af36-aa8f-48ab-b9be-b3946caee220","54f8d589-66fc-4c65-830f-1dcc63bce8cc","{""participantId"":""783B20FFE9AE4B5DB9F1979DC5337B3E"",""assignmentId"":""6ef5af36-aa8f-48ab-b9be-b3946caee220"",""projectId"":""54f8d589-66fc-4c65-830f-1dcc63bce8cc""}","https://test12345.live/?participantId=783B20FFE9AE4B5DB9F1979DC5337B3E&assignmentId=6ef5af36-aa8f-48ab-b9be-b3946caee220&projectId=54f8d589-66fc-4c65-830f-1dcc63bce8cc","","1151","Was there a person in the picture?","0","",""
"","","","","","survey-likert","81","262686","0.0-59.0","783B20FFE9AE4B5DB9F1979DC5337B3E","783B20FFE9AE4B5DB9F1979DC5337B3E","6ef5af36-aa8f-48ab-b9be-b3946caee220","54f8d589-66fc-4c65-830f-1dcc63bce8cc","{""participantId"":""783B20FFE9AE4B5DB9F1979DC5337B3E"",""assignmentId"":""6ef5af36-aa8f-48ab-b9be-b3946caee220"",""projectId"":""54f8d589-66fc-4c65-830f-1dcc63bce8cc""}","https://test12345.live/?participantId=783B20FFE9AE4B5DB9F1979DC5337B3E&assignmentId=6ef5af36-aa8f-48ab-b9be-b3946caee220&projectId=54f8d589-66fc-4c65-830f-1dcc63bce8cc","","2809","","{""Q0"":2}","","[0]"
"","","","","","html-button-response","82","263534","0.0-60.0","783B20FFE9AE4B5DB9F1979DC5337B3E","783B20FFE9AE4B5DB9F1979DC5337B3E","6ef5af36-aa8f-48ab-b9be-b3946caee220","54f8d589-66fc-4c65-830f-1dcc63bce8cc","{""participantId"":""783B20FFE9AE4B5DB9F1979DC5337B3E"",""assignmentId"":""6ef5af36-aa8f-48ab-b9be-b3946caee220"",""projectId"":""54f8d589-66fc-4c65-830f-1dcc63bce8cc""}","https://test12345.live/?participantId=783B20FFE9AE4B5DB9F1979DC5337B3E&assignmentId=6ef5af36-aa8f-48ab-b9be-b3946caee220&projectId=54f8d589-66fc-4c65-830f-1dcc63bce8cc","","847","
    <div style=""display: flex; justify-content: center; align-items: center;"">
      <img src=""images/red_deck_2.png"" style=""width: 300px; height: 300px; margin-right: 10px;"" />
      <img src=""images/blue_deck_1.png"" style=""width: 300px; height: 300px;"" />
    </div>","0","0",""
"","","","","","html-keyboard-response","83","266545","0.0-61.0-0.0","783B20FFE9AE4B5DB9F1979DC5337B3E","783B20FFE9AE4B5DB9F1979DC5337B3E","6ef5af36-aa8f-48ab-b9be-b3946caee220","54f8d589-66fc-4c65-830f-1dcc63bce8cc","{""participantId"":""783B20FFE9AE4B5DB9F1979DC5337B3E"",""assignmentId"":""6ef5af36-aa8f-48ab-b9be-b3946caee220"",""projectId"":""54f8d589-66fc-4c65-830f-1dcc63bce8cc""}","https://test12345.live/?participantId=783B20FFE9AE4B5DB9F1979DC5337B3E&assignmentId=6ef5af36-aa8f-48ab-b9be-b3946caee220&projectId=54f8d589-66fc-4c65-830f-1dcc63bce8cc","","null","<div style=""display: flex; justify-content: center; align-items: center;"">
                    <img src=""images/causal/causal_series_17/causal_series_17_a.jpg"" style=""width: 300px; height: 300px;"" />
                  </div>","null","",""
"","","","","","html-keyboard-response","84","269548","0.0-61.0-1.0","783B20FFE9AE4B5DB9F1979DC5337B3E","783B20FFE9AE4B5DB9F1979DC5337B3E","6ef5af36-aa8f-48ab-b9be-b3946caee220","54f8d589-66fc-4c65-830f-1dcc63bce8cc","{""participantId"":""783B20FFE9AE4B5DB9F1979DC5337B3E"",""assignmentId"":""6ef5af36-aa8f-48ab-b9be-b3946caee220"",""projectId"":""54f8d589-66fc-4c65-830f-1dcc63bce8cc""}","https://test12345.live/?participantId=783B20FFE9AE4B5DB9F1979DC5337B3E&assignmentId=6ef5af36-aa8f-48ab-b9be-b3946caee220&projectId=54f8d589-66fc-4c65-830f-1dcc63bce8cc","","null","<div style=""display: flex; justify-content: center; align-items: center;"">
                    <img src=""images/causal/causal_series_17/causal_series_17_b.jpg"" style=""width: 300px; height: 300px;"" />
                  </div>","null","",""
"","","","","","html-keyboard-response","85","272559","0.0-61.0-2.0","783B20FFE9AE4B5DB9F1979DC5337B3E","783B20FFE9AE4B5DB9F1979DC5337B3E","6ef5af36-aa8f-48ab-b9be-b3946caee220","54f8d589-66fc-4c65-830f-1dcc63bce8cc","{""participantId"":""783B20FFE9AE4B5DB9F1979DC5337B3E"",""assignmentId"":""6ef5af36-aa8f-48ab-b9be-b3946caee220"",""projectId"":""54f8d589-66fc-4c65-830f-1dcc63bce8cc""}","https://test12345.live/?participantId=783B20FFE9AE4B5DB9F1979DC5337B3E&assignmentId=6ef5af36-aa8f-48ab-b9be-b3946caee220&projectId=54f8d589-66fc-4c65-830f-1dcc63bce8cc","","null","<div style=""display: flex; justify-content: center; align-items: center;"">
                    <img src=""images/causal/causal_series_17/causal_series_17_c.jpg"" style=""width: 300px; height: 300px;"" />
                  </div>","null","",""
"","","","","","html-keyboard-response","86","275563","0.0-61.0-3.0","783B20FFE9AE4B5DB9F1979DC5337B3E","783B20FFE9AE4B5DB9F1979DC5337B3E","6ef5af36-aa8f-48ab-b9be-b3946caee220","54f8d589-66fc-4c65-830f-1dcc63bce8cc","{""participantId"":""783B20FFE9AE4B5DB9F1979DC5337B3E"",""assignmentId"":""6ef5af36-aa8f-48ab-b9be-b3946caee220"",""projectId"":""54f8d589-66fc-4c65-830f-1dcc63bce8cc""}","https://test12345.live/?participantId=783B20FFE9AE4B5DB9F1979DC5337B3E&assignmentId=6ef5af36-aa8f-48ab-b9be-b3946caee220&projectId=54f8d589-66fc-4c65-830f-1dcc63bce8cc","","null","<div style=""display: flex; justify-content: center; align-items: center;"">
                    <img src=""images/causal/causal_series_17/causal_series_17_d.jpg"" style=""width: 300px; height: 300px;"" />
                  </div>","null","",""
"","","","","","html-button-response","87","277001","0.0-63.0","783B20FFE9AE4B5DB9F1979DC5337B3E","783B20FFE9AE4B5DB9F1979DC5337B3E","6ef5af36-aa8f-48ab-b9be-b3946caee220","54f8d589-66fc-4c65-830f-1dcc63bce8cc","{""participantId"":""783B20FFE9AE4B5DB9F1979DC5337B3E"",""assignmentId"":""6ef5af36-aa8f-48ab-b9be-b3946caee220"",""projectId"":""54f8d589-66fc-4c65-830f-1dcc63bce8cc""}","https://test12345.live/?participantId=783B20FFE9AE4B5DB9F1979DC5337B3E&assignmentId=6ef5af36-aa8f-48ab-b9be-b3946caee220&projectId=54f8d589-66fc-4c65-830f-1dcc63bce8cc","","1438","Was there a person in the picture?","0","",""
"","","","","","survey-likert","88","279524","0.0-64.0","783B20FFE9AE4B5DB9F1979DC5337B3E","783B20FFE9AE4B5DB9F1979DC5337B3E","6ef5af36-aa8f-48ab-b9be-b3946caee220","54f8d589-66fc-4c65-830f-1dcc63bce8cc","{""participantId"":""783B20FFE9AE4B5DB9F1979DC5337B3E"",""assignmentId"":""6ef5af36-aa8f-48ab-b9be-b3946caee220"",""projectId"":""54f8d589-66fc-4c65-830f-1dcc63bce8cc""}","https://test12345.live/?participantId=783B20FFE9AE4B5DB9F1979DC5337B3E&assignmentId=6ef5af36-aa8f-48ab-b9be-b3946caee220&projectId=54f8d589-66fc-4c65-830f-1dcc63bce8cc","","2523","","{""Q0"":3}","","[0]"
"","","","","","html-button-response","89","280471","0.0-65.0","783B20FFE9AE4B5DB9F1979DC5337B3E","783B20FFE9AE4B5DB9F1979DC5337B3E","6ef5af36-aa8f-48ab-b9be-b3946caee220","54f8d589-66fc-4c65-830f-1dcc63bce8cc","{""participantId"":""783B20FFE9AE4B5DB9F1979DC5337B3E"",""assignmentId"":""6ef5af36-aa8f-48ab-b9be-b3946caee220"",""projectId"":""54f8d589-66fc-4c65-830f-1dcc63bce8cc""}","https://test12345.live/?participantId=783B20FFE9AE4B5DB9F1979DC5337B3E&assignmentId=6ef5af36-aa8f-48ab-b9be-b3946caee220&projectId=54f8d589-66fc-4c65-830f-1dcc63bce8cc","","945","
    <div style=""display: flex; justify-content: center; align-items: center;"">
      <img src=""images/red_deck_2.png"" style=""width: 300px; height: 300px; margin-right: 10px;"" />
      <img src=""images/blue_deck_1.png"" style=""width: 300px; height: 300px;"" />
    </div>","1","1",""
"","","","","","html-keyboard-response","90","283483","0.0-67.0-0.0","783B20FFE9AE4B5DB9F1979DC5337B3E","783B20FFE9AE4B5DB9F1979DC5337B3E","6ef5af36-aa8f-48ab-b9be-b3946caee220","54f8d589-66fc-4c65-830f-1dcc63bce8cc","{""participantId"":""783B20FFE9AE4B5DB9F1979DC5337B3E"",""assignmentId"":""6ef5af36-aa8f-48ab-b9be-b3946caee220"",""projectId"":""54f8d589-66fc-4c65-830f-1dcc63bce8cc""}","https://test12345.live/?participantId=783B20FFE9AE4B5DB9F1979DC5337B3E&assignmentId=6ef5af36-aa8f-48ab-b9be-b3946caee220&projectId=54f8d589-66fc-4c65-830f-1dcc63bce8cc","","null","<div style=""display: flex; justify-content: center; align-items: center;"">
                    <img src=""images/semantic/semantic_series_14/semantic_series_14_a.jpg"" style=""width: 300px; height: 300px;"" />
                  </div>","null","",""
"","","","","","html-keyboard-response","91","286493","0.0-67.0-1.0","783B20FFE9AE4B5DB9F1979DC5337B3E","783B20FFE9AE4B5DB9F1979DC5337B3E","6ef5af36-aa8f-48ab-b9be-b3946caee220","54f8d589-66fc-4c65-830f-1dcc63bce8cc","{""participantId"":""783B20FFE9AE4B5DB9F1979DC5337B3E"",""assignmentId"":""6ef5af36-aa8f-48ab-b9be-b3946caee220"",""projectId"":""54f8d589-66fc-4c65-830f-1dcc63bce8cc""}","https://test12345.live/?participantId=783B20FFE9AE4B5DB9F1979DC5337B3E&assignmentId=6ef5af36-aa8f-48ab-b9be-b3946caee220&projectId=54f8d589-66fc-4c65-830f-1dcc63bce8cc","","null","<div style=""display: flex; justify-content: center; align-items: center;"">
                    <img src=""images/semantic/semantic_series_14/semantic_series_14_b.jpg"" style=""width: 300px; height: 300px;"" />
                  </div>","null","",""
"","","","","","html-keyboard-response","92","289501","0.0-67.0-2.0","783B20FFE9AE4B5DB9F1979DC5337B3E","783B20FFE9AE4B5DB9F1979DC5337B3E","6ef5af36-aa8f-48ab-b9be-b3946caee220","54f8d589-66fc-4c65-830f-1dcc63bce8cc","{""participantId"":""783B20FFE9AE4B5DB9F1979DC5337B3E"",""assignmentId"":""6ef5af36-aa8f-48ab-b9be-b3946caee220"",""projectId"":""54f8d589-66fc-4c65-830f-1dcc63bce8cc""}","https://test12345.live/?participantId=783B20FFE9AE4B5DB9F1979DC5337B3E&assignmentId=6ef5af36-aa8f-48ab-b9be-b3946caee220&projectId=54f8d589-66fc-4c65-830f-1dcc63bce8cc","","null","<div style=""display: flex; justify-content: center; align-items: center;"">
                    <img src=""images/semantic/semantic_series_14/semantic_series_14_c.jpg"" style=""width: 300px; height: 300px;"" />
                  </div>","null","",""
"","","","","","html-keyboard-response","93","292504","0.0-67.0-3.0","783B20FFE9AE4B5DB9F1979DC5337B3E","783B20FFE9AE4B5DB9F1979DC5337B3E","6ef5af36-aa8f-48ab-b9be-b3946caee220","54f8d589-66fc-4c65-830f-1dcc63bce8cc","{""participantId"":""783B20FFE9AE4B5DB9F1979DC5337B3E"",""assignmentId"":""6ef5af36-aa8f-48ab-b9be-b3946caee220"",""projectId"":""54f8d589-66fc-4c65-830f-1dcc63bce8cc""}","https://test12345.live/?participantId=783B20FFE9AE4B5DB9F1979DC5337B3E&assignmentId=6ef5af36-aa8f-48ab-b9be-b3946caee220&projectId=54f8d589-66fc-4c65-830f-1dcc63bce8cc","","null","<div style=""display: flex; justify-content: center; align-items: center;"">
                    <img src=""images/semantic/semantic_series_14/semantic_series_14_d.jpg"" style=""width: 300px; height: 300px;"" />
                  </div>","null","",""
"","","","","","html-button-response","94","293438","0.0-68.0","783B20FFE9AE4B5DB9F1979DC5337B3E","783B20FFE9AE4B5DB9F1979DC5337B3E","6ef5af36-aa8f-48ab-b9be-b3946caee220","54f8d589-66fc-4c65-830f-1dcc63bce8cc","{""participantId"":""783B20FFE9AE4B5DB9F1979DC5337B3E"",""assignmentId"":""6ef5af36-aa8f-48ab-b9be-b3946caee220"",""projectId"":""54f8d589-66fc-4c65-830f-1dcc63bce8cc""}","https://test12345.live/?participantId=783B20FFE9AE4B5DB9F1979DC5337B3E&assignmentId=6ef5af36-aa8f-48ab-b9be-b3946caee220&projectId=54f8d589-66fc-4c65-830f-1dcc63bce8cc","","934","Was there a person in the picture?","0","",""
"","","","","","survey-likert","95","295826","0.0-69.0","783B20FFE9AE4B5DB9F1979DC5337B3E","783B20FFE9AE4B5DB9F1979DC5337B3E","6ef5af36-aa8f-48ab-b9be-b3946caee220","54f8d589-66fc-4c65-830f-1dcc63bce8cc","{""participantId"":""783B20FFE9AE4B5DB9F1979DC5337B3E"",""assignmentId"":""6ef5af36-aa8f-48ab-b9be-b3946caee220"",""projectId"":""54f8d589-66fc-4c65-830f-1dcc63bce8cc""}","https://test12345.live/?participantId=783B20FFE9AE4B5DB9F1979DC5337B3E&assignmentId=6ef5af36-aa8f-48ab-b9be-b3946caee220&projectId=54f8d589-66fc-4c65-830f-1dcc63bce8cc","","2387","","{""Q0"":2}","","[0]"
"","","","","","html-button-response","96","297092","0.0-70.0","783B20FFE9AE4B5DB9F1979DC5337B3E","783B20FFE9AE4B5DB9F1979DC5337B3E","6ef5af36-aa8f-48ab-b9be-b3946caee220","54f8d589-66fc-4c65-830f-1dcc63bce8cc","{""participantId"":""783B20FFE9AE4B5DB9F1979DC5337B3E"",""assignmentId"":""6ef5af36-aa8f-48ab-b9be-b3946caee220"",""projectId"":""54f8d589-66fc-4c65-830f-1dcc63bce8cc""}","https://test12345.live/?participantId=783B20FFE9AE4B5DB9F1979DC5337B3E&assignmentId=6ef5af36-aa8f-48ab-b9be-b3946caee220&projectId=54f8d589-66fc-4c65-830f-1dcc63bce8cc","","1263","
    <div style=""display: flex; justify-content: center; align-items: center;"">
      <img src=""images/red_deck_2.png"" style=""width: 300px; height: 300px; margin-right: 10px;"" />
      <img src=""images/blue_deck_1.png"" style=""width: 300px; height: 300px;"" />
    </div>","0","0",""
"","","","","","html-keyboard-response","97","300104","0.0-71.0-0.0","783B20FFE9AE4B5DB9F1979DC5337B3E","783B20FFE9AE4B5DB9F1979DC5337B3E","6ef5af36-aa8f-48ab-b9be-b3946caee220","54f8d589-66fc-4c65-830f-1dcc63bce8cc","{""participantId"":""783B20FFE9AE4B5DB9F1979DC5337B3E"",""assignmentId"":""6ef5af36-aa8f-48ab-b9be-b3946caee220"",""projectId"":""54f8d589-66fc-4c65-830f-1dcc63bce8cc""}","https://test12345.live/?participantId=783B20FFE9AE4B5DB9F1979DC5337B3E&assignmentId=6ef5af36-aa8f-48ab-b9be-b3946caee220&projectId=54f8d589-66fc-4c65-830f-1dcc63bce8cc","","null","<div style=""display: flex; justify-content: center; align-items: center;"">
                    <img src=""images/causal/causal_series_12/causal_series_12_a.jpg"" style=""width: 300px; height: 300px;"" />
                  </div>","null","",""
"","","","","","html-keyboard-response","98","303113","0.0-71.0-1.0","783B20FFE9AE4B5DB9F1979DC5337B3E","783B20FFE9AE4B5DB9F1979DC5337B3E","6ef5af36-aa8f-48ab-b9be-b3946caee220","54f8d589-66fc-4c65-830f-1dcc63bce8cc","{""participantId"":""783B20FFE9AE4B5DB9F1979DC5337B3E"",""assignmentId"":""6ef5af36-aa8f-48ab-b9be-b3946caee220"",""projectId"":""54f8d589-66fc-4c65-830f-1dcc63bce8cc""}","https://test12345.live/?participantId=783B20FFE9AE4B5DB9F1979DC5337B3E&assignmentId=6ef5af36-aa8f-48ab-b9be-b3946caee220&projectId=54f8d589-66fc-4c65-830f-1dcc63bce8cc","","null","<div style=""display: flex; justify-content: center; align-items: center;"">
                    <img src=""images/causal/causal_series_12/causal_series_12_b.jpg"" style=""width: 300px; height: 300px;"" />
                  </div>","null","",""
"","","","","","html-keyboard-response","99","306129","0.0-71.0-2.0","783B20FFE9AE4B5DB9F1979DC5337B3E","783B20FFE9AE4B5DB9F1979DC5337B3E","6ef5af36-aa8f-48ab-b9be-b3946caee220","54f8d589-66fc-4c65-830f-1dcc63bce8cc","{""participantId"":""783B20FFE9AE4B5DB9F1979DC5337B3E"",""assignmentId"":""6ef5af36-aa8f-48ab-b9be-b3946caee220"",""projectId"":""54f8d589-66fc-4c65-830f-1dcc63bce8cc""}","https://test12345.live/?participantId=783B20FFE9AE4B5DB9F1979DC5337B3E&assignmentId=6ef5af36-aa8f-48ab-b9be-b3946caee220&projectId=54f8d589-66fc-4c65-830f-1dcc63bce8cc","","null","<div style=""display: flex; justify-content: center; align-items: center;"">
                    <img src=""images/causal/causal_series_12/causal_series_12_c.jpg"" style=""width: 300px; height: 300px;"" />
                  </div>","null","",""
"","","","","","html-keyboard-response","100","309143","0.0-71.0-3.0","783B20FFE9AE4B5DB9F1979DC5337B3E","783B20FFE9AE4B5DB9F1979DC5337B3E","6ef5af36-aa8f-48ab-b9be-b3946caee220","54f8d589-66fc-4c65-830f-1dcc63bce8cc","{""participantId"":""783B20FFE9AE4B5DB9F1979DC5337B3E"",""assignmentId"":""6ef5af36-aa8f-48ab-b9be-b3946caee220"",""projectId"":""54f8d589-66fc-4c65-830f-1dcc63bce8cc""}","https://test12345.live/?participantId=783B20FFE9AE4B5DB9F1979DC5337B3E&assignmentId=6ef5af36-aa8f-48ab-b9be-b3946caee220&projectId=54f8d589-66fc-4c65-830f-1dcc63bce8cc","","null","<div style=""display: flex; justify-content: center; align-items: center;"">
                    <img src=""images/causal/causal_series_12/causal_series_12_d.jpg"" style=""width: 300px; height: 300px;"" />
                  </div>","null","",""
"","","","","","html-button-response","101","310266","0.0-73.0","783B20FFE9AE4B5DB9F1979DC5337B3E","783B20FFE9AE4B5DB9F1979DC5337B3E","6ef5af36-aa8f-48ab-b9be-b3946caee220","54f8d589-66fc-4c65-830f-1dcc63bce8cc","{""participantId"":""783B20FFE9AE4B5DB9F1979DC5337B3E"",""assignmentId"":""6ef5af36-aa8f-48ab-b9be-b3946caee220"",""projectId"":""54f8d589-66fc-4c65-830f-1dcc63bce8cc""}","https://test12345.live/?participantId=783B20FFE9AE4B5DB9F1979DC5337B3E&assignmentId=6ef5af36-aa8f-48ab-b9be-b3946caee220&projectId=54f8d589-66fc-4c65-830f-1dcc63bce8cc","","1122","Was there a person in the picture?","1","",""
"","","","","","survey-likert","102","319723","0.0-74.0","783B20FFE9AE4B5DB9F1979DC5337B3E","783B20FFE9AE4B5DB9F1979DC5337B3E","6ef5af36-aa8f-48ab-b9be-b3946caee220","54f8d589-66fc-4c65-830f-1dcc63bce8cc","{""participantId"":""783B20FFE9AE4B5DB9F1979DC5337B3E"",""assignmentId"":""6ef5af36-aa8f-48ab-b9be-b3946caee220"",""projectId"":""54f8d589-66fc-4c65-830f-1dcc63bce8cc""}","https://test12345.live/?participantId=783B20FFE9AE4B5DB9F1979DC5337B3E&assignmentId=6ef5af36-aa8f-48ab-b9be-b3946caee220&projectId=54f8d589-66fc-4c65-830f-1dcc63bce8cc","","9456","","{""Q0"":2}","","[0]"
"","","","","","html-button-response","103","320586","0.0-75.0","783B20FFE9AE4B5DB9F1979DC5337B3E","783B20FFE9AE4B5DB9F1979DC5337B3E","6ef5af36-aa8f-48ab-b9be-b3946caee220","54f8d589-66fc-4c65-830f-1dcc63bce8cc","{""participantId"":""783B20FFE9AE4B5DB9F1979DC5337B3E"",""assignmentId"":""6ef5af36-aa8f-48ab-b9be-b3946caee220"",""projectId"":""54f8d589-66fc-4c65-830f-1dcc63bce8cc""}","https://test12345.live/?participantId=783B20FFE9AE4B5DB9F1979DC5337B3E&assignmentId=6ef5af36-aa8f-48ab-b9be-b3946caee220&projectId=54f8d589-66fc-4c65-830f-1dcc63bce8cc","","861","
    <div style=""display: flex; justify-content: center; align-items: center;"">
      <img src=""images/red_deck_2.png"" style=""width: 300px; height: 300px; margin-right: 10px;"" />
      <img src=""images/blue_deck_1.png"" style=""width: 300px; height: 300px;"" />
    </div>","1","1",""
"","","","","","html-keyboard-response","104","323594","0.0-77.0-0.0","783B20FFE9AE4B5DB9F1979DC5337B3E","783B20FFE9AE4B5DB9F1979DC5337B3E","6ef5af36-aa8f-48ab-b9be-b3946caee220","54f8d589-66fc-4c65-830f-1dcc63bce8cc","{""participantId"":""783B20FFE9AE4B5DB9F1979DC5337B3E"",""assignmentId"":""6ef5af36-aa8f-48ab-b9be-b3946caee220"",""projectId"":""54f8d589-66fc-4c65-830f-1dcc63bce8cc""}","https://test12345.live/?participantId=783B20FFE9AE4B5DB9F1979DC5337B3E&assignmentId=6ef5af36-aa8f-48ab-b9be-b3946caee220&projectId=54f8d589-66fc-4c65-830f-1dcc63bce8cc","","null","<div style=""display: flex; justify-content: center; align-items: center;"">
                    <img src=""images/semantic/semantic_series_2/semantic_series_2_a.jpg"" style=""width: 300px; height: 300px;"" />
                  </div>","null","",""
"","","","","","html-keyboard-response","105","326599","0.0-77.0-1.0","783B20FFE9AE4B5DB9F1979DC5337B3E","783B20FFE9AE4B5DB9F1979DC5337B3E","6ef5af36-aa8f-48ab-b9be-b3946caee220","54f8d589-66fc-4c65-830f-1dcc63bce8cc","{""participantId"":""783B20FFE9AE4B5DB9F1979DC5337B3E"",""assignmentId"":""6ef5af36-aa8f-48ab-b9be-b3946caee220"",""projectId"":""54f8d589-66fc-4c65-830f-1dcc63bce8cc""}","https://test12345.live/?participantId=783B20FFE9AE4B5DB9F1979DC5337B3E&assignmentId=6ef5af36-aa8f-48ab-b9be-b3946caee220&projectId=54f8d589-66fc-4c65-830f-1dcc63bce8cc","","null","<div style=""display: flex; justify-content: center; align-items: center;"">
                    <img src=""images/semantic/semantic_series_2/semantic_series_2_b.jpg"" style=""width: 300px; height: 300px;"" />
                  </div>","null","",""
"","","","","","html-keyboard-response","106","329606","0.0-77.0-2.0","783B20FFE9AE4B5DB9F1979DC5337B3E","783B20FFE9AE4B5DB9F1979DC5337B3E","6ef5af36-aa8f-48ab-b9be-b3946caee220","54f8d589-66fc-4c65-830f-1dcc63bce8cc","{""participantId"":""783B20FFE9AE4B5DB9F1979DC5337B3E"",""assignmentId"":""6ef5af36-aa8f-48ab-b9be-b3946caee220"",""projectId"":""54f8d589-66fc-4c65-830f-1dcc63bce8cc""}","https://test12345.live/?participantId=783B20FFE9AE4B5DB9F1979DC5337B3E&assignmentId=6ef5af36-aa8f-48ab-b9be-b3946caee220&projectId=54f8d589-66fc-4c65-830f-1dcc63bce8cc","","null","<div style=""display: flex; justify-content: center; align-items: center;"">
                    <img src=""images/semantic/semantic_series_2/semantic_series_2_c.jpg"" style=""width: 300px; height: 300px;"" />
                  </div>","null","",""
"","","","","","html-keyboard-response","107","332612","0.0-77.0-3.0","783B20FFE9AE4B5DB9F1979DC5337B3E","783B20FFE9AE4B5DB9F1979DC5337B3E","6ef5af36-aa8f-48ab-b9be-b3946caee220","54f8d589-66fc-4c65-830f-1dcc63bce8cc","{""participantId"":""783B20FFE9AE4B5DB9F1979DC5337B3E"",""assignmentId"":""6ef5af36-aa8f-48ab-b9be-b3946caee220"",""projectId"":""54f8d589-66fc-4c65-830f-1dcc63bce8cc""}","https://test12345.live/?participantId=783B20FFE9AE4B5DB9F1979DC5337B3E&assignmentId=6ef5af36-aa8f-48ab-b9be-b3946caee220&projectId=54f8d589-66fc-4c65-830f-1dcc63bce8cc","","null","<div style=""display: flex; justify-content: center; align-items: center;"">
                    <img src=""images/semantic/semantic_series_2/semantic_series_2_d.jpg"" style=""width: 300px; height: 300px;"" />
                  </div>","null","",""
"","","","","","html-button-response","108","333803","0.0-78.0","783B20FFE9AE4B5DB9F1979DC5337B3E","783B20FFE9AE4B5DB9F1979DC5337B3E","6ef5af36-aa8f-48ab-b9be-b3946caee220","54f8d589-66fc-4c65-830f-1dcc63bce8cc","{""participantId"":""783B20FFE9AE4B5DB9F1979DC5337B3E"",""assignmentId"":""6ef5af36-aa8f-48ab-b9be-b3946caee220"",""projectId"":""54f8d589-66fc-4c65-830f-1dcc63bce8cc""}","https://test12345.live/?participantId=783B20FFE9AE4B5DB9F1979DC5337B3E&assignmentId=6ef5af36-aa8f-48ab-b9be-b3946caee220&projectId=54f8d589-66fc-4c65-830f-1dcc63bce8cc","","1190","Was there a person in the picture?","0","",""
"","","","","","survey-likert","109","336366","0.0-79.0","783B20FFE9AE4B5DB9F1979DC5337B3E","783B20FFE9AE4B5DB9F1979DC5337B3E","6ef5af36-aa8f-48ab-b9be-b3946caee220","54f8d589-66fc-4c65-830f-1dcc63bce8cc","{""participantId"":""783B20FFE9AE4B5DB9F1979DC5337B3E"",""assignmentId"":""6ef5af36-aa8f-48ab-b9be-b3946caee220"",""projectId"":""54f8d589-66fc-4c65-830f-1dcc63bce8cc""}","https://test12345.live/?participantId=783B20FFE9AE4B5DB9F1979DC5337B3E&assignmentId=6ef5af36-aa8f-48ab-b9be-b3946caee220&projectId=54f8d589-66fc-4c65-830f-1dcc63bce8cc","","2562","","{""Q0"":3}","","[0]"
"","","","","","html-button-response","110","337135","0.0-80.0","783B20FFE9AE4B5DB9F1979DC5337B3E","783B20FFE9AE4B5DB9F1979DC5337B3E","6ef5af36-aa8f-48ab-b9be-b3946caee220","54f8d589-66fc-4c65-830f-1dcc63bce8cc","{""participantId"":""783B20FFE9AE4B5DB9F1979DC5337B3E"",""assignmentId"":""6ef5af36-aa8f-48ab-b9be-b3946caee220"",""projectId"":""54f8d589-66fc-4c65-830f-1dcc63bce8cc""}","https://test12345.live/?participantId=783B20FFE9AE4B5DB9F1979DC5337B3E&assignmentId=6ef5af36-aa8f-48ab-b9be-b3946caee220&projectId=54f8d589-66fc-4c65-830f-1dcc63bce8cc","","768","
    <div style=""display: flex; justify-content: center; align-items: center;"">
      <img src=""images/red_deck_2.png"" style=""width: 300px; height: 300px; margin-right: 10px;"" />
      <img src=""images/blue_deck_1.png"" style=""width: 300px; height: 300px;"" />
    </div>","0","0",""
"","","","","","html-keyboard-response","111","340140","0.0-81.0-0.0","783B20FFE9AE4B5DB9F1979DC5337B3E","783B20FFE9AE4B5DB9F1979DC5337B3E","6ef5af36-aa8f-48ab-b9be-b3946caee220","54f8d589-66fc-4c65-830f-1dcc63bce8cc","{""participantId"":""783B20FFE9AE4B5DB9F1979DC5337B3E"",""assignmentId"":""6ef5af36-aa8f-48ab-b9be-b3946caee220"",""projectId"":""54f8d589-66fc-4c65-830f-1dcc63bce8cc""}","https://test12345.live/?participantId=783B20FFE9AE4B5DB9F1979DC5337B3E&assignmentId=6ef5af36-aa8f-48ab-b9be-b3946caee220&projectId=54f8d589-66fc-4c65-830f-1dcc63bce8cc","","null","<div style=""display: flex; justify-content: center; align-items: center;"">
                    <img src=""images/causal/causal_series_4/causal_series_4_a.jpg"" style=""width: 300px; height: 300px;"" />
                  </div>","null","",""
"","","","","","html-keyboard-response","112","343145","0.0-81.0-1.0","783B20FFE9AE4B5DB9F1979DC5337B3E","783B20FFE9AE4B5DB9F1979DC5337B3E","6ef5af36-aa8f-48ab-b9be-b3946caee220","54f8d589-66fc-4c65-830f-1dcc63bce8cc","{""participantId"":""783B20FFE9AE4B5DB9F1979DC5337B3E"",""assignmentId"":""6ef5af36-aa8f-48ab-b9be-b3946caee220"",""projectId"":""54f8d589-66fc-4c65-830f-1dcc63bce8cc""}","https://test12345.live/?participantId=783B20FFE9AE4B5DB9F1979DC5337B3E&assignmentId=6ef5af36-aa8f-48ab-b9be-b3946caee220&projectId=54f8d589-66fc-4c65-830f-1dcc63bce8cc","","null","<div style=""display: flex; justify-content: center; align-items: center;"">
                    <img src=""images/causal/causal_series_4/causal_series_4_b.jpg"" style=""width: 300px; height: 300px;"" />
                  </div>","null","",""
"","","","","","html-keyboard-response","113","346148","0.0-81.0-2.0","783B20FFE9AE4B5DB9F1979DC5337B3E","783B20FFE9AE4B5DB9F1979DC5337B3E","6ef5af36-aa8f-48ab-b9be-b3946caee220","54f8d589-66fc-4c65-830f-1dcc63bce8cc","{""participantId"":""783B20FFE9AE4B5DB9F1979DC5337B3E"",""assignmentId"":""6ef5af36-aa8f-48ab-b9be-b3946caee220"",""projectId"":""54f8d589-66fc-4c65-830f-1dcc63bce8cc""}","https://test12345.live/?participantId=783B20FFE9AE4B5DB9F1979DC5337B3E&assignmentId=6ef5af36-aa8f-48ab-b9be-b3946caee220&projectId=54f8d589-66fc-4c65-830f-1dcc63bce8cc","","null","<div style=""display: flex; justify-content: center; align-items: center;"">
                    <img src=""images/causal/causal_series_4/causal_series_4_c.jpg"" style=""width: 300px; height: 300px;"" />
                  </div>","null","",""
"","","","","","html-keyboard-response","114","349152","0.0-81.0-3.0","783B20FFE9AE4B5DB9F1979DC5337B3E","783B20FFE9AE4B5DB9F1979DC5337B3E","6ef5af36-aa8f-48ab-b9be-b3946caee220","54f8d589-66fc-4c65-830f-1dcc63bce8cc","{""participantId"":""783B20FFE9AE4B5DB9F1979DC5337B3E"",""assignmentId"":""6ef5af36-aa8f-48ab-b9be-b3946caee220"",""projectId"":""54f8d589-66fc-4c65-830f-1dcc63bce8cc""}","https://test12345.live/?participantId=783B20FFE9AE4B5DB9F1979DC5337B3E&assignmentId=6ef5af36-aa8f-48ab-b9be-b3946caee220&projectId=54f8d589-66fc-4c65-830f-1dcc63bce8cc","","null","<div style=""display: flex; justify-content: center; align-items: center;"">
                    <img src=""images/causal/causal_series_4/causal_series_4_d.jpg"" style=""width: 300px; height: 300px;"" />
                  </div>","null","",""
"","","","","","html-button-response","115","350266","0.0-83.0","783B20FFE9AE4B5DB9F1979DC5337B3E","783B20FFE9AE4B5DB9F1979DC5337B3E","6ef5af36-aa8f-48ab-b9be-b3946caee220","54f8d589-66fc-4c65-830f-1dcc63bce8cc","{""participantId"":""783B20FFE9AE4B5DB9F1979DC5337B3E"",""assignmentId"":""6ef5af36-aa8f-48ab-b9be-b3946caee220"",""projectId"":""54f8d589-66fc-4c65-830f-1dcc63bce8cc""}","https://test12345.live/?participantId=783B20FFE9AE4B5DB9F1979DC5337B3E&assignmentId=6ef5af36-aa8f-48ab-b9be-b3946caee220&projectId=54f8d589-66fc-4c65-830f-1dcc63bce8cc","","1113","Was there a person in the picture?","1","",""
"","","","","","survey-likert","116","351915","0.0-84.0","783B20FFE9AE4B5DB9F1979DC5337B3E","783B20FFE9AE4B5DB9F1979DC5337B3E","6ef5af36-aa8f-48ab-b9be-b3946caee220","54f8d589-66fc-4c65-830f-1dcc63bce8cc","{""participantId"":""783B20FFE9AE4B5DB9F1979DC5337B3E"",""assignmentId"":""6ef5af36-aa8f-48ab-b9be-b3946caee220"",""projectId"":""54f8d589-66fc-4c65-830f-1dcc63bce8cc""}","https://test12345.live/?participantId=783B20FFE9AE4B5DB9F1979DC5337B3E&assignmentId=6ef5af36-aa8f-48ab-b9be-b3946caee220&projectId=54f8d589-66fc-4c65-830f-1dcc63bce8cc","","1648","","{""Q0"":2}","","[0]"
"","","","","","html-button-response","117","353014","0.0-85.0","783B20FFE9AE4B5DB9F1979DC5337B3E","783B20FFE9AE4B5DB9F1979DC5337B3E","6ef5af36-aa8f-48ab-b9be-b3946caee220","54f8d589-66fc-4c65-830f-1dcc63bce8cc","{""participantId"":""783B20FFE9AE4B5DB9F1979DC5337B3E"",""assignmentId"":""6ef5af36-aa8f-48ab-b9be-b3946caee220"",""projectId"":""54f8d589-66fc-4c65-830f-1dcc63bce8cc""}","https://test12345.live/?participantId=783B20FFE9AE4B5DB9F1979DC5337B3E&assignmentId=6ef5af36-aa8f-48ab-b9be-b3946caee220&projectId=54f8d589-66fc-4c65-830f-1dcc63bce8cc","","1097","
    <div style=""display: flex; justify-content: center; align-items: center;"">
      <img src=""images/red_deck_2.png"" style=""width: 300px; height: 300px; margin-right: 10px;"" />
      <img src=""images/blue_deck_1.png"" style=""width: 300px; height: 300px;"" />
    </div>","1","1",""
"","","","","","html-keyboard-response","118","356017","0.0-87.0-0.0","783B20FFE9AE4B5DB9F1979DC5337B3E","783B20FFE9AE4B5DB9F1979DC5337B3E","6ef5af36-aa8f-48ab-b9be-b3946caee220","54f8d589-66fc-4c65-830f-1dcc63bce8cc","{""participantId"":""783B20FFE9AE4B5DB9F1979DC5337B3E"",""assignmentId"":""6ef5af36-aa8f-48ab-b9be-b3946caee220"",""projectId"":""54f8d589-66fc-4c65-830f-1dcc63bce8cc""}","https://test12345.live/?participantId=783B20FFE9AE4B5DB9F1979DC5337B3E&assignmentId=6ef5af36-aa8f-48ab-b9be-b3946caee220&projectId=54f8d589-66fc-4c65-830f-1dcc63bce8cc","","null","<div style=""display: flex; justify-content: center; align-items: center;"">
                    <img src=""images/semantic/semantic_series_13/semantic_series_13_a.jpg"" style=""width: 300px; height: 300px;"" />
                  </div>","null","",""
"","","","","","html-keyboard-response","119","359024","0.0-87.0-1.0","783B20FFE9AE4B5DB9F1979DC5337B3E","783B20FFE9AE4B5DB9F1979DC5337B3E","6ef5af36-aa8f-48ab-b9be-b3946caee220","54f8d589-66fc-4c65-830f-1dcc63bce8cc","{""participantId"":""783B20FFE9AE4B5DB9F1979DC5337B3E"",""assignmentId"":""6ef5af36-aa8f-48ab-b9be-b3946caee220"",""projectId"":""54f8d589-66fc-4c65-830f-1dcc63bce8cc""}","https://test12345.live/?participantId=783B20FFE9AE4B5DB9F1979DC5337B3E&assignmentId=6ef5af36-aa8f-48ab-b9be-b3946caee220&projectId=54f8d589-66fc-4c65-830f-1dcc63bce8cc","","null","<div style=""display: flex; justify-content: center; align-items: center;"">
                    <img src=""images/semantic/semantic_series_13/semantic_series_13_b.jpg"" style=""width: 300px; height: 300px;"" />
                  </div>","null","",""
"","","","","","html-keyboard-response","120","362039","0.0-87.0-2.0","783B20FFE9AE4B5DB9F1979DC5337B3E","783B20FFE9AE4B5DB9F1979DC5337B3E","6ef5af36-aa8f-48ab-b9be-b3946caee220","54f8d589-66fc-4c65-830f-1dcc63bce8cc","{""participantId"":""783B20FFE9AE4B5DB9F1979DC5337B3E"",""assignmentId"":""6ef5af36-aa8f-48ab-b9be-b3946caee220"",""projectId"":""54f8d589-66fc-4c65-830f-1dcc63bce8cc""}","https://test12345.live/?participantId=783B20FFE9AE4B5DB9F1979DC5337B3E&assignmentId=6ef5af36-aa8f-48ab-b9be-b3946caee220&projectId=54f8d589-66fc-4c65-830f-1dcc63bce8cc","","null","<div style=""display: flex; justify-content: center; align-items: center;"">
                    <img src=""images/semantic/semantic_series_13/semantic_series_13_c.jpg"" style=""width: 300px; height: 300px;"" />
                  </div>","null","",""
"","","","","","html-keyboard-response","121","365043","0.0-87.0-3.0","783B20FFE9AE4B5DB9F1979DC5337B3E","783B20FFE9AE4B5DB9F1979DC5337B3E","6ef5af36-aa8f-48ab-b9be-b3946caee220","54f8d589-66fc-4c65-830f-1dcc63bce8cc","{""participantId"":""783B20FFE9AE4B5DB9F1979DC5337B3E"",""assignmentId"":""6ef5af36-aa8f-48ab-b9be-b3946caee220"",""projectId"":""54f8d589-66fc-4c65-830f-1dcc63bce8cc""}","https://test12345.live/?participantId=783B20FFE9AE4B5DB9F1979DC5337B3E&assignmentId=6ef5af36-aa8f-48ab-b9be-b3946caee220&projectId=54f8d589-66fc-4c65-830f-1dcc63bce8cc","","null","<div style=""display: flex; justify-content: center; align-items: center;"">
                    <img src=""images/semantic/semantic_series_13/semantic_series_13_d.jpg"" style=""width: 300px; height: 300px;"" />
                  </div>","null","",""
"","","","","","html-button-response","122","366169","0.0-88.0","783B20FFE9AE4B5DB9F1979DC5337B3E","783B20FFE9AE4B5DB9F1979DC5337B3E","6ef5af36-aa8f-48ab-b9be-b3946caee220","54f8d589-66fc-4c65-830f-1dcc63bce8cc","{""participantId"":""783B20FFE9AE4B5DB9F1979DC5337B3E"",""assignmentId"":""6ef5af36-aa8f-48ab-b9be-b3946caee220"",""projectId"":""54f8d589-66fc-4c65-830f-1dcc63bce8cc""}","https://test12345.live/?participantId=783B20FFE9AE4B5DB9F1979DC5337B3E&assignmentId=6ef5af36-aa8f-48ab-b9be-b3946caee220&projectId=54f8d589-66fc-4c65-830f-1dcc63bce8cc","","1125","Was there a person in the picture?","0","",""
"","","","","","survey-likert","123","370416","0.0-89.0","783B20FFE9AE4B5DB9F1979DC5337B3E","783B20FFE9AE4B5DB9F1979DC5337B3E","6ef5af36-aa8f-48ab-b9be-b3946caee220","54f8d589-66fc-4c65-830f-1dcc63bce8cc","{""participantId"":""783B20FFE9AE4B5DB9F1979DC5337B3E"",""assignmentId"":""6ef5af36-aa8f-48ab-b9be-b3946caee220"",""projectId"":""54f8d589-66fc-4c65-830f-1dcc63bce8cc""}","https://test12345.live/?participantId=783B20FFE9AE4B5DB9F1979DC5337B3E&assignmentId=6ef5af36-aa8f-48ab-b9be-b3946caee220&projectId=54f8d589-66fc-4c65-830f-1dcc63bce8cc","","4246","","{""Q0"":2}","","[0]"
"","","","","","html-button-response","124","371398","0.0-90.0","783B20FFE9AE4B5DB9F1979DC5337B3E","783B20FFE9AE4B5DB9F1979DC5337B3E","6ef5af36-aa8f-48ab-b9be-b3946caee220","54f8d589-66fc-4c65-830f-1dcc63bce8cc","{""participantId"":""783B20FFE9AE4B5DB9F1979DC5337B3E"",""assignmentId"":""6ef5af36-aa8f-48ab-b9be-b3946caee220"",""projectId"":""54f8d589-66fc-4c65-830f-1dcc63bce8cc""}","https://test12345.live/?participantId=783B20FFE9AE4B5DB9F1979DC5337B3E&assignmentId=6ef5af36-aa8f-48ab-b9be-b3946caee220&projectId=54f8d589-66fc-4c65-830f-1dcc63bce8cc","","980","
    <div style=""display: flex; justify-content: center; align-items: center;"">
      <img src=""images/red_deck_2.png"" style=""width: 300px; height: 300px; margin-right: 10px;"" />
      <img src=""images/blue_deck_1.png"" style=""width: 300px; height: 300px;"" />
    </div>","1","1",""
"","","","","","html-keyboard-response","125","374414","0.0-92.0-0.0","783B20FFE9AE4B5DB9F1979DC5337B3E","783B20FFE9AE4B5DB9F1979DC5337B3E","6ef5af36-aa8f-48ab-b9be-b3946caee220","54f8d589-66fc-4c65-830f-1dcc63bce8cc","{""participantId"":""783B20FFE9AE4B5DB9F1979DC5337B3E"",""assignmentId"":""6ef5af36-aa8f-48ab-b9be-b3946caee220"",""projectId"":""54f8d589-66fc-4c65-830f-1dcc63bce8cc""}","https://test12345.live/?participantId=783B20FFE9AE4B5DB9F1979DC5337B3E&assignmentId=6ef5af36-aa8f-48ab-b9be-b3946caee220&projectId=54f8d589-66fc-4c65-830f-1dcc63bce8cc","","null","<div style=""display: flex; justify-content: center; align-items: center;"">
                    <img src=""images/semantic/semantic_series_17/semantic_series_17_a.jpg"" style=""width: 300px; height: 300px;"" />
                  </div>","null","",""
"","","","","","html-keyboard-response","126","377418","0.0-92.0-1.0","783B20FFE9AE4B5DB9F1979DC5337B3E","783B20FFE9AE4B5DB9F1979DC5337B3E","6ef5af36-aa8f-48ab-b9be-b3946caee220","54f8d589-66fc-4c65-830f-1dcc63bce8cc","{""participantId"":""783B20FFE9AE4B5DB9F1979DC5337B3E"",""assignmentId"":""6ef5af36-aa8f-48ab-b9be-b3946caee220"",""projectId"":""54f8d589-66fc-4c65-830f-1dcc63bce8cc""}","https://test12345.live/?participantId=783B20FFE9AE4B5DB9F1979DC5337B3E&assignmentId=6ef5af36-aa8f-48ab-b9be-b3946caee220&projectId=54f8d589-66fc-4c65-830f-1dcc63bce8cc","","null","<div style=""display: flex; justify-content: center; align-items: center;"">
                    <img src=""images/semantic/semantic_series_17/semantic_series_17_b.jpg"" style=""width: 300px; height: 300px;"" />
                  </div>","null","",""
"","","","","","html-keyboard-response","127","380430","0.0-92.0-2.0","783B20FFE9AE4B5DB9F1979DC5337B3E","783B20FFE9AE4B5DB9F1979DC5337B3E","6ef5af36-aa8f-48ab-b9be-b3946caee220","54f8d589-66fc-4c65-830f-1dcc63bce8cc","{""participantId"":""783B20FFE9AE4B5DB9F1979DC5337B3E"",""assignmentId"":""6ef5af36-aa8f-48ab-b9be-b3946caee220"",""projectId"":""54f8d589-66fc-4c65-830f-1dcc63bce8cc""}","https://test12345.live/?participantId=783B20FFE9AE4B5DB9F1979DC5337B3E&assignmentId=6ef5af36-aa8f-48ab-b9be-b3946caee220&projectId=54f8d589-66fc-4c65-830f-1dcc63bce8cc","","null","<div style=""display: flex; justify-content: center; align-items: center;"">
                    <img src=""images/semantic/semantic_series_17/semantic_series_17_c.jpg"" style=""width: 300px; height: 300px;"" />
                  </div>","null","",""
"","","","","","html-keyboard-response","128","383442","0.0-92.0-3.0","783B20FFE9AE4B5DB9F1979DC5337B3E","783B20FFE9AE4B5DB9F1979DC5337B3E","6ef5af36-aa8f-48ab-b9be-b3946caee220","54f8d589-66fc-4c65-830f-1dcc63bce8cc","{""participantId"":""783B20FFE9AE4B5DB9F1979DC5337B3E"",""assignmentId"":""6ef5af36-aa8f-48ab-b9be-b3946caee220"",""projectId"":""54f8d589-66fc-4c65-830f-1dcc63bce8cc""}","https://test12345.live/?participantId=783B20FFE9AE4B5DB9F1979DC5337B3E&assignmentId=6ef5af36-aa8f-48ab-b9be-b3946caee220&projectId=54f8d589-66fc-4c65-830f-1dcc63bce8cc","","null","<div style=""display: flex; justify-content: center; align-items: center;"">
                    <img src=""images/semantic/semantic_series_17/semantic_series_17_d.jpg"" style=""width: 300px; height: 300px;"" />
                  </div>","null","",""
"","","","","","html-button-response","129","384313","0.0-93.0","783B20FFE9AE4B5DB9F1979DC5337B3E","783B20FFE9AE4B5DB9F1979DC5337B3E","6ef5af36-aa8f-48ab-b9be-b3946caee220","54f8d589-66fc-4c65-830f-1dcc63bce8cc","{""participantId"":""783B20FFE9AE4B5DB9F1979DC5337B3E"",""assignmentId"":""6ef5af36-aa8f-48ab-b9be-b3946caee220"",""projectId"":""54f8d589-66fc-4c65-830f-1dcc63bce8cc""}","https://test12345.live/?participantId=783B20FFE9AE4B5DB9F1979DC5337B3E&assignmentId=6ef5af36-aa8f-48ab-b9be-b3946caee220&projectId=54f8d589-66fc-4c65-830f-1dcc63bce8cc","","871","Was there a person in the picture?","0","",""
"","","","","","survey-likert","130","386171","0.0-94.0","783B20FFE9AE4B5DB9F1979DC5337B3E","783B20FFE9AE4B5DB9F1979DC5337B3E","6ef5af36-aa8f-48ab-b9be-b3946caee220","54f8d589-66fc-4c65-830f-1dcc63bce8cc","{""participantId"":""783B20FFE9AE4B5DB9F1979DC5337B3E"",""assignmentId"":""6ef5af36-aa8f-48ab-b9be-b3946caee220"",""projectId"":""54f8d589-66fc-4c65-830f-1dcc63bce8cc""}","https://test12345.live/?participantId=783B20FFE9AE4B5DB9F1979DC5337B3E&assignmentId=6ef5af36-aa8f-48ab-b9be-b3946caee220&projectId=54f8d589-66fc-4c65-830f-1dcc63bce8cc","","1858","","{""Q0"":2}","","[0]"
"","","","","","survey-text","131","426151","0.0-95.0","783B20FFE9AE4B5DB9F1979DC5337B3E","783B20FFE9AE4B5DB9F1979DC5337B3E","6ef5af36-aa8f-48ab-b9be-b3946caee220","54f8d589-66fc-4c65-830f-1dcc63bce8cc","{""participantId"":""783B20FFE9AE4B5DB9F1979DC5337B3E"",""assignmentId"":""6ef5af36-aa8f-48ab-b9be-b3946caee220"",""projectId"":""54f8d589-66fc-4c65-830f-1dcc63bce8cc""}","https://test12345.live/?participantId=783B20FFE9AE4B5DB9F1979DC5337B3E&assignmentId=6ef5af36-aa8f-48ab-b9be-b3946caee220&projectId=54f8d589-66fc-4c65-830f-1dcc63bce8cc","","39975","","{""Q0"":""I feel like one set was more realistic than the others. I think red deck had more illustrations than the blue deck.""}","",""
