"success","timeout","failed_images","failed_audio","failed_video","trial_type","trial_index","time_elapsed","internal_node_id","subject_id","study_id","session_id","view_history","rt","stimulus","response","choice"
"true","false","[]","[]","[]","preload","0","4625","0.0-0.0","6D90CB10522D42B8B03D0DECE293BDB4","864eb16d-403b-4a65-996f-5a7722add1b7","5479079d-2186-49b2-89e2-e3afab6abcc2","","","","",""
"","","","","","instructions","1","9400","0.0-1.0","6D90CB10522D42B8B03D0DECE293BDB4","864eb16d-403b-4a65-996f-5a7722add1b7","5479079d-2186-49b2-89e2-e3afab6abcc2","[{""page_index"":0,""viewing_time"":4775}]","4775","","",""
"","","","","","instructions","2","13577","0.0-2.0","6D90CB10522D42B8B03D0DECE293BDB4","864eb16d-403b-4a65-996f-5a7722add1b7","5479079d-2186-49b2-89e2-e3afab6abcc2","[{""page_index"":0,""viewing_time"":4177}]","4177","","",""
"true","","","","","fullscreen","3","15959","0.0-3.0","6D90CB10522D42B8B03D0DECE293BDB4","864eb16d-403b-4a65-996f-5a7722add1b7","5479079d-2186-49b2-89e2-e3afab6abcc2","","1372","","",""
"","","","","","instructions","4","29655","0.0-4.0","6D90CB10522D42B8B03D0DECE293BDB4","864eb16d-403b-4a65-996f-5a7722add1b7","5479079d-2186-49b2-89e2-e3afab6abcc2","[{""page_index"":0,""viewing_time"":13696}]","13696","","",""
"","","","","","html-keyboard-response","5","32660","0.0-5.0","6D90CB10522D42B8B03D0DECE293BDB4","864eb16d-403b-4a65-996f-5a7722add1b7","5479079d-2186-49b2-89e2-e3afab6abcc2","","null","<div style=""display: flex; justify-content: center; align-items: center;"">
                <img src=""images/causal/causal_series_18/causal_series_18_a.jpg"" style=""width: 300px; height: 300px;"" />
              </div>","null",""
"","","","","","html-keyboard-response","6","35661","0.0-6.0","6D90CB10522D42B8B03D0DECE293BDB4","864eb16d-403b-4a65-996f-5a7722add1b7","5479079d-2186-49b2-89e2-e3afab6abcc2","","null","<div style=""display: flex; justify-content: center; align-items: center;"">
                <img src=""images/causal/causal_series_18/causal_series_18_b.jpg"" style=""width: 300px; height: 300px;"" />
              </div>","null",""
"","","","","","html-keyboard-response","7","38664","0.0-7.0","6D90CB10522D42B8B03D0DECE293BDB4","864eb16d-403b-4a65-996f-5a7722add1b7","5479079d-2186-49b2-89e2-e3afab6abcc2","","null","<div style=""display: flex; justify-content: center; align-items: center;"">
                <img src=""images/causal/causal_series_18/causal_series_18_c.jpg"" style=""width: 300px; height: 300px;"" />
              </div>","null",""
"","","","","","html-button-response","8","41321","0.0-8.0","6D90CB10522D42B8B03D0DECE293BDB4","864eb16d-403b-4a65-996f-5a7722add1b7","5479079d-2186-49b2-89e2-e3afab6abcc2","","2656","
    <div style=""display: flex; justify-content: center; align-items: center;"">
      <img src=""images/blue_deck_1.png"" style=""width: 300px; height: 300px; margin-right: 10px;"" />
      <img src=""images/red_deck_2.png"" style=""width: 300px; height: 300px;"" />
    </div>","1","1"
"","","","","","html-keyboard-response","9","44330","0.0-9.0-1.0-0.0","6D90CB10522D42B8B03D0DECE293BDB4","864eb16d-403b-4a65-996f-5a7722add1b7","5479079d-2186-49b2-89e2-e3afab6abcc2","","null","<div style=""display: flex; justify-content: center; align-items: center;"">
                <img src=""images/semantic/semantic_series_18/semantic_series_18_d.jpg"" style=""width: 300px; height: 300px;"" />
              </div>","null",""
"","","","","","html-keyboard-response","10","47335","0.0-10.0","6D90CB10522D42B8B03D0DECE293BDB4","864eb16d-403b-4a65-996f-5a7722add1b7","5479079d-2186-49b2-89e2-e3afab6abcc2","","null","<div style=""display: flex; justify-content: center; align-items: center;"">
                <img src=""images/other/blank.jpg"" style=""width: 300px; height: 300px;"" />
              </div>","null",""
"","","","","","html-keyboard-response","11","50341","0.0-11.0","6D90CB10522D42B8B03D0DECE293BDB4","864eb16d-403b-4a65-996f-5a7722add1b7","5479079d-2186-49b2-89e2-e3afab6abcc2","","null","<div style=""display: flex; justify-content: center; align-items: center;"">
                <img src=""images/causal/causal_series_15/causal_series_15_a.jpg"" style=""width: 300px; height: 300px;"" />
              </div>","null",""
"","","","","","html-keyboard-response","12","53347","0.0-12.0","6D90CB10522D42B8B03D0DECE293BDB4","864eb16d-403b-4a65-996f-5a7722add1b7","5479079d-2186-49b2-89e2-e3afab6abcc2","","null","<div style=""display: flex; justify-content: center; align-items: center;"">
                <img src=""images/causal/causal_series_15/causal_series_15_b.jpg"" style=""width: 300px; height: 300px;"" />
              </div>","null",""
"","","","","","html-keyboard-response","13","56348","0.0-13.0","6D90CB10522D42B8B03D0DECE293BDB4","864eb16d-403b-4a65-996f-5a7722add1b7","5479079d-2186-49b2-89e2-e3afab6abcc2","","null","<div style=""display: flex; justify-content: center; align-items: center;"">
                <img src=""images/causal/causal_series_15/causal_series_15_c.jpg"" style=""width: 300px; height: 300px;"" />
              </div>","null",""
"","","","","","html-button-response","14","59149","0.0-14.0","6D90CB10522D42B8B03D0DECE293BDB4","864eb16d-403b-4a65-996f-5a7722add1b7","5479079d-2186-49b2-89e2-e3afab6abcc2","","2800","
    <div style=""display: flex; justify-content: center; align-items: center;"">
      <img src=""images/blue_deck_1.png"" style=""width: 300px; height: 300px; margin-right: 10px;"" />
      <img src=""images/red_deck_2.png"" style=""width: 300px; height: 300px;"" />
    </div>","0","0"
"","","","","","html-keyboard-response","15","62164","0.0-15.0-0.0-0.0","6D90CB10522D42B8B03D0DECE293BDB4","864eb16d-403b-4a65-996f-5a7722add1b7","5479079d-2186-49b2-89e2-e3afab6abcc2","","null","<div style=""display: flex; justify-content: center; align-items: center;"">
                <img src=""images/causal/causal_series_15/causal_series_15_d.jpg"" style=""width: 300px; height: 300px;"" />
              </div>","null",""
"","","","","","html-keyboard-response","16","65169","0.0-16.0","6D90CB10522D42B8B03D0DECE293BDB4","864eb16d-403b-4a65-996f-5a7722add1b7","5479079d-2186-49b2-89e2-e3afab6abcc2","","null","<div style=""display: flex; justify-content: center; align-items: center;"">
                <img src=""images/other/blank.jpg"" style=""width: 300px; height: 300px;"" />
              </div>","null",""
"","","","","","html-keyboard-response","17","68186","0.0-17.0","6D90CB10522D42B8B03D0DECE293BDB4","864eb16d-403b-4a65-996f-5a7722add1b7","5479079d-2186-49b2-89e2-e3afab6abcc2","","null","<div style=""display: flex; justify-content: center; align-items: center;"">
                <img src=""images/causal/causal_series_9/causal_series_9_a.jpg"" style=""width: 300px; height: 300px;"" />
              </div>","null",""
"","","","","","html-keyboard-response","18","71192","0.0-18.0","6D90CB10522D42B8B03D0DECE293BDB4","864eb16d-403b-4a65-996f-5a7722add1b7","5479079d-2186-49b2-89e2-e3afab6abcc2","","null","<div style=""display: flex; justify-content: center; align-items: center;"">
                <img src=""images/causal/causal_series_9/causal_series_9_b.jpg"" style=""width: 300px; height: 300px;"" />
              </div>","null",""
"","","","","","html-keyboard-response","19","74202","0.0-19.0","6D90CB10522D42B8B03D0DECE293BDB4","864eb16d-403b-4a65-996f-5a7722add1b7","5479079d-2186-49b2-89e2-e3afab6abcc2","","null","<div style=""display: flex; justify-content: center; align-items: center;"">
                <img src=""images/causal/causal_series_9/causal_series_9_c.jpg"" style=""width: 300px; height: 300px;"" />
              </div>","null",""
"","","","","","html-button-response","20","78645","0.0-20.0","6D90CB10522D42B8B03D0DECE293BDB4","864eb16d-403b-4a65-996f-5a7722add1b7","5479079d-2186-49b2-89e2-e3afab6abcc2","","4443","
    <div style=""display: flex; justify-content: center; align-items: center;"">
      <img src=""images/blue_deck_1.png"" style=""width: 300px; height: 300px; margin-right: 10px;"" />
      <img src=""images/red_deck_2.png"" style=""width: 300px; height: 300px;"" />
    </div>","1","1"
"","","","","","html-keyboard-response","21","81658","0.0-21.0-1.0-0.0","6D90CB10522D42B8B03D0DECE293BDB4","864eb16d-403b-4a65-996f-5a7722add1b7","5479079d-2186-49b2-89e2-e3afab6abcc2","","null","<div style=""display: flex; justify-content: center; align-items: center;"">
                <img src=""images/semantic/semantic_series_9/semantic_series_9_d.jpg"" style=""width: 300px; height: 300px;"" />
              </div>","null",""
"","","","","","html-keyboard-response","22","84660","0.0-22.0","6D90CB10522D42B8B03D0DECE293BDB4","864eb16d-403b-4a65-996f-5a7722add1b7","5479079d-2186-49b2-89e2-e3afab6abcc2","","null","<div style=""display: flex; justify-content: center; align-items: center;"">
                <img src=""images/other/blank.jpg"" style=""width: 300px; height: 300px;"" />
              </div>","null",""
"","","","","","html-keyboard-response","23","87664","0.0-23.0","6D90CB10522D42B8B03D0DECE293BDB4","864eb16d-403b-4a65-996f-5a7722add1b7","5479079d-2186-49b2-89e2-e3afab6abcc2","","null","<div style=""display: flex; justify-content: center; align-items: center;"">
                <img src=""images/causal/causal_series_3/causal_series_3_a.jpg"" style=""width: 300px; height: 300px;"" />
              </div>","null",""
"","","","","","html-keyboard-response","24","90674","0.0-24.0","6D90CB10522D42B8B03D0DECE293BDB4","864eb16d-403b-4a65-996f-5a7722add1b7","5479079d-2186-49b2-89e2-e3afab6abcc2","","null","<div style=""display: flex; justify-content: center; align-items: center;"">
                <img src=""images/causal/causal_series_3/causal_series_3_b.jpg"" style=""width: 300px; height: 300px;"" />
              </div>","null",""
"","","","","","html-keyboard-response","25","93684","0.0-25.0","6D90CB10522D42B8B03D0DECE293BDB4","864eb16d-403b-4a65-996f-5a7722add1b7","5479079d-2186-49b2-89e2-e3afab6abcc2","","null","<div style=""display: flex; justify-content: center; align-items: center;"">
                <img src=""images/causal/causal_series_3/causal_series_3_c.jpg"" style=""width: 300px; height: 300px;"" />
              </div>","null",""
"","","","","","html-button-response","26","94922","0.0-26.0","6D90CB10522D42B8B03D0DECE293BDB4","864eb16d-403b-4a65-996f-5a7722add1b7","5479079d-2186-49b2-89e2-e3afab6abcc2","","1238","
    <div style=""display: flex; justify-content: center; align-items: center;"">
      <img src=""images/blue_deck_1.png"" style=""width: 300px; height: 300px; margin-right: 10px;"" />
      <img src=""images/red_deck_2.png"" style=""width: 300px; height: 300px;"" />
    </div>","1","1"
"","","","","","html-keyboard-response","27","97937","0.0-27.0-1.0-0.0","6D90CB10522D42B8B03D0DECE293BDB4","864eb16d-403b-4a65-996f-5a7722add1b7","5479079d-2186-49b2-89e2-e3afab6abcc2","","null","<div style=""display: flex; justify-content: center; align-items: center;"">
                <img src=""images/semantic/semantic_series_3/semantic_series_3_d.jpg"" style=""width: 300px; height: 300px;"" />
              </div>","null",""
"","","","","","html-keyboard-response","28","100941","0.0-28.0","6D90CB10522D42B8B03D0DECE293BDB4","864eb16d-403b-4a65-996f-5a7722add1b7","5479079d-2186-49b2-89e2-e3afab6abcc2","","null","<div style=""display: flex; justify-content: center; align-items: center;"">
                <img src=""images/other/blank.jpg"" style=""width: 300px; height: 300px;"" />
              </div>","null",""
"","","","","","html-keyboard-response","29","103945","0.0-29.0","6D90CB10522D42B8B03D0DECE293BDB4","864eb16d-403b-4a65-996f-5a7722add1b7","5479079d-2186-49b2-89e2-e3afab6abcc2","","null","<div style=""display: flex; justify-content: center; align-items: center;"">
                <img src=""images/causal/causal_series_14/causal_series_14_a.jpg"" style=""width: 300px; height: 300px;"" />
              </div>","null",""
"","","","","","html-keyboard-response","30","106956","0.0-30.0","6D90CB10522D42B8B03D0DECE293BDB4","864eb16d-403b-4a65-996f-5a7722add1b7","5479079d-2186-49b2-89e2-e3afab6abcc2","","null","<div style=""display: flex; justify-content: center; align-items: center;"">
                <img src=""images/causal/causal_series_14/causal_series_14_b.jpg"" style=""width: 300px; height: 300px;"" />
              </div>","null",""
"","","","","","html-keyboard-response","31","109966","0.0-31.0","6D90CB10522D42B8B03D0DECE293BDB4","864eb16d-403b-4a65-996f-5a7722add1b7","5479079d-2186-49b2-89e2-e3afab6abcc2","","null","<div style=""display: flex; justify-content: center; align-items: center;"">
                <img src=""images/causal/causal_series_14/causal_series_14_c.jpg"" style=""width: 300px; height: 300px;"" />
              </div>","null",""
"","","","","","html-button-response","32","113006","0.0-32.0","6D90CB10522D42B8B03D0DECE293BDB4","864eb16d-403b-4a65-996f-5a7722add1b7","5479079d-2186-49b2-89e2-e3afab6abcc2","","3040","
    <div style=""display: flex; justify-content: center; align-items: center;"">
      <img src=""images/blue_deck_1.png"" style=""width: 300px; height: 300px; margin-right: 10px;"" />
      <img src=""images/red_deck_2.png"" style=""width: 300px; height: 300px;"" />
    </div>","0","0"
"","","","","","html-keyboard-response","33","116009","0.0-33.0-0.0-0.0","6D90CB10522D42B8B03D0DECE293BDB4","864eb16d-403b-4a65-996f-5a7722add1b7","5479079d-2186-49b2-89e2-e3afab6abcc2","","null","<div style=""display: flex; justify-content: center; align-items: center;"">
                <img src=""images/causal/causal_series_14/causal_series_14_d.jpg"" style=""width: 300px; height: 300px;"" />
              </div>","null",""
"","","","","","html-keyboard-response","34","119022","0.0-34.0","6D90CB10522D42B8B03D0DECE293BDB4","864eb16d-403b-4a65-996f-5a7722add1b7","5479079d-2186-49b2-89e2-e3afab6abcc2","","null","<div style=""display: flex; justify-content: center; align-items: center;"">
                <img src=""images/other/blank.jpg"" style=""width: 300px; height: 300px;"" />
              </div>","null",""
"","","","","","html-keyboard-response","35","122029","0.0-35.0","6D90CB10522D42B8B03D0DECE293BDB4","864eb16d-403b-4a65-996f-5a7722add1b7","5479079d-2186-49b2-89e2-e3afab6abcc2","","null","<div style=""display: flex; justify-content: center; align-items: center;"">
                <img src=""images/causal/causal_series_6/causal_series_6_a.jpg"" style=""width: 300px; height: 300px;"" />
              </div>","null",""
"","","","","","html-keyboard-response","36","125039","0.0-36.0","6D90CB10522D42B8B03D0DECE293BDB4","864eb16d-403b-4a65-996f-5a7722add1b7","5479079d-2186-49b2-89e2-e3afab6abcc2","","null","<div style=""display: flex; justify-content: center; align-items: center;"">
                <img src=""images/causal/causal_series_6/causal_series_6_b.jpg"" style=""width: 300px; height: 300px;"" />
              </div>","null",""
"","","","","","html-keyboard-response","37","128041","0.0-37.0","6D90CB10522D42B8B03D0DECE293BDB4","864eb16d-403b-4a65-996f-5a7722add1b7","5479079d-2186-49b2-89e2-e3afab6abcc2","","null","<div style=""display: flex; justify-content: center; align-items: center;"">
                <img src=""images/causal/causal_series_6/causal_series_6_c.jpg"" style=""width: 300px; height: 300px;"" />
              </div>","null",""
"","","","","","html-button-response","38","128967","0.0-38.0","6D90CB10522D42B8B03D0DECE293BDB4","864eb16d-403b-4a65-996f-5a7722add1b7","5479079d-2186-49b2-89e2-e3afab6abcc2","","925","
    <div style=""display: flex; justify-content: center; align-items: center;"">
      <img src=""images/blue_deck_1.png"" style=""width: 300px; height: 300px; margin-right: 10px;"" />
      <img src=""images/red_deck_2.png"" style=""width: 300px; height: 300px;"" />
    </div>","1","1"
"","","","","","html-keyboard-response","39","131976","0.0-39.0-1.0-0.0","6D90CB10522D42B8B03D0DECE293BDB4","864eb16d-403b-4a65-996f-5a7722add1b7","5479079d-2186-49b2-89e2-e3afab6abcc2","","null","<div style=""display: flex; justify-content: center; align-items: center;"">
                <img src=""images/semantic/semantic_series_6/semantic_series_6_d.jpg"" style=""width: 300px; height: 300px;"" />
              </div>","null",""
"","","","","","html-keyboard-response","40","134981","0.0-40.0","6D90CB10522D42B8B03D0DECE293BDB4","864eb16d-403b-4a65-996f-5a7722add1b7","5479079d-2186-49b2-89e2-e3afab6abcc2","","null","<div style=""display: flex; justify-content: center; align-items: center;"">
                <img src=""images/other/blank.jpg"" style=""width: 300px; height: 300px;"" />
              </div>","null",""
"","","","","","html-keyboard-response","41","137995","0.0-41.0","6D90CB10522D42B8B03D0DECE293BDB4","864eb16d-403b-4a65-996f-5a7722add1b7","5479079d-2186-49b2-89e2-e3afab6abcc2","","null","<div style=""display: flex; justify-content: center; align-items: center;"">
                <img src=""images/causal/causal_series_1/causal_series_1_a.jpg"" style=""width: 300px; height: 300px;"" />
              </div>","null",""
"","","","","","html-keyboard-response","42","141003","0.0-42.0","6D90CB10522D42B8B03D0DECE293BDB4","864eb16d-403b-4a65-996f-5a7722add1b7","5479079d-2186-49b2-89e2-e3afab6abcc2","","null","<div style=""display: flex; justify-content: center; align-items: center;"">
                <img src=""images/causal/causal_series_1/causal_series_1_b.jpg"" style=""width: 300px; height: 300px;"" />
              </div>","null",""
"","","","","","html-keyboard-response","43","144004","0.0-43.0","6D90CB10522D42B8B03D0DECE293BDB4","864eb16d-403b-4a65-996f-5a7722add1b7","5479079d-2186-49b2-89e2-e3afab6abcc2","","null","<div style=""display: flex; justify-content: center; align-items: center;"">
                <img src=""images/causal/causal_series_1/causal_series_1_c.jpg"" style=""width: 300px; height: 300px;"" />
              </div>","null",""
"","","","","","html-button-response","44","144912","0.0-44.0","6D90CB10522D42B8B03D0DECE293BDB4","864eb16d-403b-4a65-996f-5a7722add1b7","5479079d-2186-49b2-89e2-e3afab6abcc2","","908","
    <div style=""display: flex; justify-content: center; align-items: center;"">
      <img src=""images/blue_deck_1.png"" style=""width: 300px; height: 300px; margin-right: 10px;"" />
      <img src=""images/red_deck_2.png"" style=""width: 300px; height: 300px;"" />
    </div>","0","0"
"","","","","","html-keyboard-response","45","147926","0.0-45.0-0.0-0.0","6D90CB10522D42B8B03D0DECE293BDB4","864eb16d-403b-4a65-996f-5a7722add1b7","5479079d-2186-49b2-89e2-e3afab6abcc2","","null","<div style=""display: flex; justify-content: center; align-items: center;"">
                <img src=""images/causal/causal_series_1/causal_series_1_d.jpg"" style=""width: 300px; height: 300px;"" />
              </div>","null",""
"","","","","","html-keyboard-response","46","150927","0.0-46.0","6D90CB10522D42B8B03D0DECE293BDB4","864eb16d-403b-4a65-996f-5a7722add1b7","5479079d-2186-49b2-89e2-e3afab6abcc2","","null","<div style=""display: flex; justify-content: center; align-items: center;"">
                <img src=""images/other/blank.jpg"" style=""width: 300px; height: 300px;"" />
              </div>","null",""
"","","","","","html-keyboard-response","47","153939","0.0-47.0","6D90CB10522D42B8B03D0DECE293BDB4","864eb16d-403b-4a65-996f-5a7722add1b7","5479079d-2186-49b2-89e2-e3afab6abcc2","","null","<div style=""display: flex; justify-content: center; align-items: center;"">
                <img src=""images/causal/causal_series_8/causal_series_8_a.jpg"" style=""width: 300px; height: 300px;"" />
              </div>","null",""
"","","","","","html-keyboard-response","48","156940","0.0-48.0","6D90CB10522D42B8B03D0DECE293BDB4","864eb16d-403b-4a65-996f-5a7722add1b7","5479079d-2186-49b2-89e2-e3afab6abcc2","","null","<div style=""display: flex; justify-content: center; align-items: center;"">
                <img src=""images/causal/causal_series_8/causal_series_8_b.jpg"" style=""width: 300px; height: 300px;"" />
              </div>","null",""
"","","","","","html-keyboard-response","49","159947","0.0-49.0","6D90CB10522D42B8B03D0DECE293BDB4","864eb16d-403b-4a65-996f-5a7722add1b7","5479079d-2186-49b2-89e2-e3afab6abcc2","","null","<div style=""display: flex; justify-content: center; align-items: center;"">
                <img src=""images/causal/causal_series_8/causal_series_8_c.jpg"" style=""width: 300px; height: 300px;"" />
              </div>","null",""
"","","","","","html-button-response","50","166222","0.0-50.0","6D90CB10522D42B8B03D0DECE293BDB4","864eb16d-403b-4a65-996f-5a7722add1b7","5479079d-2186-49b2-89e2-e3afab6abcc2","","6274","
    <div style=""display: flex; justify-content: center; align-items: center;"">
      <img src=""images/blue_deck_1.png"" style=""width: 300px; height: 300px; margin-right: 10px;"" />
      <img src=""images/red_deck_2.png"" style=""width: 300px; height: 300px;"" />
    </div>","1","1"
"","","","","","html-keyboard-response","51","169226","0.0-51.0-1.0-0.0","6D90CB10522D42B8B03D0DECE293BDB4","864eb16d-403b-4a65-996f-5a7722add1b7","5479079d-2186-49b2-89e2-e3afab6abcc2","","null","<div style=""display: flex; justify-content: center; align-items: center;"">
                <img src=""images/semantic/semantic_series_8/semantic_series_8_d.jpg"" style=""width: 300px; height: 300px;"" />
              </div>","null",""
"","","","","","html-keyboard-response","52","172236","0.0-52.0","6D90CB10522D42B8B03D0DECE293BDB4","864eb16d-403b-4a65-996f-5a7722add1b7","5479079d-2186-49b2-89e2-e3afab6abcc2","","null","<div style=""display: flex; justify-content: center; align-items: center;"">
                <img src=""images/other/blank.jpg"" style=""width: 300px; height: 300px;"" />
              </div>","null",""
"","","","","","html-keyboard-response","53","175238","0.0-53.0","6D90CB10522D42B8B03D0DECE293BDB4","864eb16d-403b-4a65-996f-5a7722add1b7","5479079d-2186-49b2-89e2-e3afab6abcc2","","null","<div style=""display: flex; justify-content: center; align-items: center;"">
                <img src=""images/causal/causal_series_5/causal_series_5_a.jpg"" style=""width: 300px; height: 300px;"" />
              </div>","null",""
"","","","","","html-keyboard-response","54","178251","0.0-54.0","6D90CB10522D42B8B03D0DECE293BDB4","864eb16d-403b-4a65-996f-5a7722add1b7","5479079d-2186-49b2-89e2-e3afab6abcc2","","null","<div style=""display: flex; justify-content: center; align-items: center;"">
                <img src=""images/causal/causal_series_5/causal_series_5_b.jpg"" style=""width: 300px; height: 300px;"" />
              </div>","null",""
"","","","","","html-keyboard-response","55","181259","0.0-55.0","6D90CB10522D42B8B03D0DECE293BDB4","864eb16d-403b-4a65-996f-5a7722add1b7","5479079d-2186-49b2-89e2-e3afab6abcc2","","null","<div style=""display: flex; justify-content: center; align-items: center;"">
                <img src=""images/causal/causal_series_5/causal_series_5_c.jpg"" style=""width: 300px; height: 300px;"" />
              </div>","null",""
"","","","","","html-button-response","56","182081","0.0-56.0","6D90CB10522D42B8B03D0DECE293BDB4","864eb16d-403b-4a65-996f-5a7722add1b7","5479079d-2186-49b2-89e2-e3afab6abcc2","","822","
    <div style=""display: flex; justify-content: center; align-items: center;"">
      <img src=""images/blue_deck_1.png"" style=""width: 300px; height: 300px; margin-right: 10px;"" />
      <img src=""images/red_deck_2.png"" style=""width: 300px; height: 300px;"" />
    </div>","1","1"
"","","","","","html-keyboard-response","57","185083","0.0-57.0-1.0-0.0","6D90CB10522D42B8B03D0DECE293BDB4","864eb16d-403b-4a65-996f-5a7722add1b7","5479079d-2186-49b2-89e2-e3afab6abcc2","","null","<div style=""display: flex; justify-content: center; align-items: center;"">
                <img src=""images/semantic/semantic_series_5/semantic_series_5_d.jpg"" style=""width: 300px; height: 300px;"" />
              </div>","null",""
"","","","","","html-keyboard-response","58","188098","0.0-58.0","6D90CB10522D42B8B03D0DECE293BDB4","864eb16d-403b-4a65-996f-5a7722add1b7","5479079d-2186-49b2-89e2-e3afab6abcc2","","null","<div style=""display: flex; justify-content: center; align-items: center;"">
                <img src=""images/other/blank.jpg"" style=""width: 300px; height: 300px;"" />
              </div>","null",""
"","","","","","html-keyboard-response","59","191099","0.0-59.0","6D90CB10522D42B8B03D0DECE293BDB4","864eb16d-403b-4a65-996f-5a7722add1b7","5479079d-2186-49b2-89e2-e3afab6abcc2","","null","<div style=""display: flex; justify-content: center; align-items: center;"">
                <img src=""images/causal/causal_series_2/causal_series_2_a.jpg"" style=""width: 300px; height: 300px;"" />
              </div>","null",""
"","","","","","html-keyboard-response","60","194110","0.0-60.0","6D90CB10522D42B8B03D0DECE293BDB4","864eb16d-403b-4a65-996f-5a7722add1b7","5479079d-2186-49b2-89e2-e3afab6abcc2","","null","<div style=""display: flex; justify-content: center; align-items: center;"">
                <img src=""images/causal/causal_series_2/causal_series_2_b.jpg"" style=""width: 300px; height: 300px;"" />
              </div>","null",""
"","","","","","html-keyboard-response","61","197114","0.0-61.0","6D90CB10522D42B8B03D0DECE293BDB4","864eb16d-403b-4a65-996f-5a7722add1b7","5479079d-2186-49b2-89e2-e3afab6abcc2","","null","<div style=""display: flex; justify-content: center; align-items: center;"">
                <img src=""images/causal/causal_series_2/causal_series_2_c.jpg"" style=""width: 300px; height: 300px;"" />
              </div>","null",""
"","","","","","html-button-response","62","197634","0.0-62.0","6D90CB10522D42B8B03D0DECE293BDB4","864eb16d-403b-4a65-996f-5a7722add1b7","5479079d-2186-49b2-89e2-e3afab6abcc2","","520","
    <div style=""display: flex; justify-content: center; align-items: center;"">
      <img src=""images/blue_deck_1.png"" style=""width: 300px; height: 300px; margin-right: 10px;"" />
      <img src=""images/red_deck_2.png"" style=""width: 300px; height: 300px;"" />
    </div>","1","1"
"","","","","","html-keyboard-response","63","200642","0.0-63.0-1.0-0.0","6D90CB10522D42B8B03D0DECE293BDB4","864eb16d-403b-4a65-996f-5a7722add1b7","5479079d-2186-49b2-89e2-e3afab6abcc2","","null","<div style=""display: flex; justify-content: center; align-items: center;"">
                <img src=""images/semantic/semantic_series_2/semantic_series_2_d.jpg"" style=""width: 300px; height: 300px;"" />
              </div>","null",""
"","","","","","html-keyboard-response","64","203650","0.0-64.0","6D90CB10522D42B8B03D0DECE293BDB4","864eb16d-403b-4a65-996f-5a7722add1b7","5479079d-2186-49b2-89e2-e3afab6abcc2","","null","<div style=""display: flex; justify-content: center; align-items: center;"">
                <img src=""images/other/blank.jpg"" style=""width: 300px; height: 300px;"" />
              </div>","null",""
"","","","","","html-keyboard-response","65","206651","0.0-65.0","6D90CB10522D42B8B03D0DECE293BDB4","864eb16d-403b-4a65-996f-5a7722add1b7","5479079d-2186-49b2-89e2-e3afab6abcc2","","null","<div style=""display: flex; justify-content: center; align-items: center;"">
                <img src=""images/causal/causal_series_7/causal_series_7_a.jpg"" style=""width: 300px; height: 300px;"" />
              </div>","null",""
"","","","","","html-keyboard-response","66","209653","0.0-66.0","6D90CB10522D42B8B03D0DECE293BDB4","864eb16d-403b-4a65-996f-5a7722add1b7","5479079d-2186-49b2-89e2-e3afab6abcc2","","null","<div style=""display: flex; justify-content: center; align-items: center;"">
                <img src=""images/causal/causal_series_7/causal_series_7_b.jpg"" style=""width: 300px; height: 300px;"" />
              </div>","null",""
"","","","","","html-keyboard-response","67","212667","0.0-67.0","6D90CB10522D42B8B03D0DECE293BDB4","864eb16d-403b-4a65-996f-5a7722add1b7","5479079d-2186-49b2-89e2-e3afab6abcc2","","null","<div style=""display: flex; justify-content: center; align-items: center;"">
                <img src=""images/causal/causal_series_7/causal_series_7_c.jpg"" style=""width: 300px; height: 300px;"" />
              </div>","null",""
"","","","","","html-button-response","68","215585","0.0-68.0","6D90CB10522D42B8B03D0DECE293BDB4","864eb16d-403b-4a65-996f-5a7722add1b7","5479079d-2186-49b2-89e2-e3afab6abcc2","","2918","
    <div style=""display: flex; justify-content: center; align-items: center;"">
      <img src=""images/blue_deck_1.png"" style=""width: 300px; height: 300px; margin-right: 10px;"" />
      <img src=""images/red_deck_2.png"" style=""width: 300px; height: 300px;"" />
    </div>","0","0"
"","","","","","html-keyboard-response","69","218592","0.0-69.0-0.0-0.0","6D90CB10522D42B8B03D0DECE293BDB4","864eb16d-403b-4a65-996f-5a7722add1b7","5479079d-2186-49b2-89e2-e3afab6abcc2","","null","<div style=""display: flex; justify-content: center; align-items: center;"">
                <img src=""images/causal/causal_series_7/causal_series_7_d.jpg"" style=""width: 300px; height: 300px;"" />
              </div>","null",""
"","","","","","html-keyboard-response","70","221594","0.0-70.0","6D90CB10522D42B8B03D0DECE293BDB4","864eb16d-403b-4a65-996f-5a7722add1b7","5479079d-2186-49b2-89e2-e3afab6abcc2","","null","<div style=""display: flex; justify-content: center; align-items: center;"">
                <img src=""images/other/blank.jpg"" style=""width: 300px; height: 300px;"" />
              </div>","null",""
"","","","","","html-keyboard-response","71","224605","0.0-71.0","6D90CB10522D42B8B03D0DECE293BDB4","864eb16d-403b-4a65-996f-5a7722add1b7","5479079d-2186-49b2-89e2-e3afab6abcc2","","null","<div style=""display: flex; justify-content: center; align-items: center;"">
                <img src=""images/causal/causal_series_13/causal_series_13_a.jpg"" style=""width: 300px; height: 300px;"" />
              </div>","null",""
"","","","","","html-keyboard-response","72","227617","0.0-72.0","6D90CB10522D42B8B03D0DECE293BDB4","864eb16d-403b-4a65-996f-5a7722add1b7","5479079d-2186-49b2-89e2-e3afab6abcc2","","null","<div style=""display: flex; justify-content: center; align-items: center;"">
                <img src=""images/causal/causal_series_13/causal_series_13_b.jpg"" style=""width: 300px; height: 300px;"" />
              </div>","null",""
"","","","","","html-keyboard-response","73","230623","0.0-73.0","6D90CB10522D42B8B03D0DECE293BDB4","864eb16d-403b-4a65-996f-5a7722add1b7","5479079d-2186-49b2-89e2-e3afab6abcc2","","null","<div style=""display: flex; justify-content: center; align-items: center;"">
                <img src=""images/causal/causal_series_13/causal_series_13_c.jpg"" style=""width: 300px; height: 300px;"" />
              </div>","null",""
"","","","","","html-button-response","74","231336","0.0-74.0","6D90CB10522D42B8B03D0DECE293BDB4","864eb16d-403b-4a65-996f-5a7722add1b7","5479079d-2186-49b2-89e2-e3afab6abcc2","","713","
    <div style=""display: flex; justify-content: center; align-items: center;"">
      <img src=""images/blue_deck_1.png"" style=""width: 300px; height: 300px; margin-right: 10px;"" />
      <img src=""images/red_deck_2.png"" style=""width: 300px; height: 300px;"" />
    </div>","1","1"
"","","","","","html-keyboard-response","75","234340","0.0-75.0-1.0-0.0","6D90CB10522D42B8B03D0DECE293BDB4","864eb16d-403b-4a65-996f-5a7722add1b7","5479079d-2186-49b2-89e2-e3afab6abcc2","","null","<div style=""display: flex; justify-content: center; align-items: center;"">
                <img src=""images/semantic/semantic_series_13/semantic_series_13_d.jpg"" style=""width: 300px; height: 300px;"" />
              </div>","null",""
"","","","","","html-keyboard-response","76","237348","0.0-76.0","6D90CB10522D42B8B03D0DECE293BDB4","864eb16d-403b-4a65-996f-5a7722add1b7","5479079d-2186-49b2-89e2-e3afab6abcc2","","null","<div style=""display: flex; justify-content: center; align-items: center;"">
                <img src=""images/other/blank.jpg"" style=""width: 300px; height: 300px;"" />
              </div>","null",""
"","","","","","html-keyboard-response","77","240357","0.0-77.0","6D90CB10522D42B8B03D0DECE293BDB4","864eb16d-403b-4a65-996f-5a7722add1b7","5479079d-2186-49b2-89e2-e3afab6abcc2","","null","<div style=""display: flex; justify-content: center; align-items: center;"">
                <img src=""images/causal/causal_series_17/causal_series_17_a.jpg"" style=""width: 300px; height: 300px;"" />
              </div>","null",""
"","","","","","html-keyboard-response","78","243372","0.0-78.0","6D90CB10522D42B8B03D0DECE293BDB4","864eb16d-403b-4a65-996f-5a7722add1b7","5479079d-2186-49b2-89e2-e3afab6abcc2","","null","<div style=""display: flex; justify-content: center; align-items: center;"">
                <img src=""images/causal/causal_series_17/causal_series_17_b.jpg"" style=""width: 300px; height: 300px;"" />
              </div>","null",""
"","","","","","html-keyboard-response","79","246385","0.0-79.0","6D90CB10522D42B8B03D0DECE293BDB4","864eb16d-403b-4a65-996f-5a7722add1b7","5479079d-2186-49b2-89e2-e3afab6abcc2","","null","<div style=""display: flex; justify-content: center; align-items: center;"">
                <img src=""images/causal/causal_series_17/causal_series_17_c.jpg"" style=""width: 300px; height: 300px;"" />
              </div>","null",""
"","","","","","html-button-response","80","270889","0.0-80.0","6D90CB10522D42B8B03D0DECE293BDB4","864eb16d-403b-4a65-996f-5a7722add1b7","5479079d-2186-49b2-89e2-e3afab6abcc2","","24504","
    <div style=""display: flex; justify-content: center; align-items: center;"">
      <img src=""images/blue_deck_1.png"" style=""width: 300px; height: 300px; margin-right: 10px;"" />
      <img src=""images/red_deck_2.png"" style=""width: 300px; height: 300px;"" />
    </div>","1","1"
"","","","","","html-keyboard-response","81","273902","0.0-81.0-1.0-0.0","6D90CB10522D42B8B03D0DECE293BDB4","864eb16d-403b-4a65-996f-5a7722add1b7","5479079d-2186-49b2-89e2-e3afab6abcc2","","null","<div style=""display: flex; justify-content: center; align-items: center;"">
                <img src=""images/semantic/semantic_series_17/semantic_series_17_d.jpg"" style=""width: 300px; height: 300px;"" />
              </div>","null",""
"","","","","","html-keyboard-response","82","276913","0.0-82.0","6D90CB10522D42B8B03D0DECE293BDB4","864eb16d-403b-4a65-996f-5a7722add1b7","5479079d-2186-49b2-89e2-e3afab6abcc2","","null","<div style=""display: flex; justify-content: center; align-items: center;"">
                <img src=""images/other/blank.jpg"" style=""width: 300px; height: 300px;"" />
              </div>","null",""
"","","","","","html-keyboard-response","83","279929","0.0-83.0","6D90CB10522D42B8B03D0DECE293BDB4","864eb16d-403b-4a65-996f-5a7722add1b7","5479079d-2186-49b2-89e2-e3afab6abcc2","","null","<div style=""display: flex; justify-content: center; align-items: center;"">
                <img src=""images/causal/causal_series_12/causal_series_12_a.jpg"" style=""width: 300px; height: 300px;"" />
              </div>","null",""
"","","","","","html-keyboard-response","84","282936","0.0-84.0","6D90CB10522D42B8B03D0DECE293BDB4","864eb16d-403b-4a65-996f-5a7722add1b7","5479079d-2186-49b2-89e2-e3afab6abcc2","","null","<div style=""display: flex; justify-content: center; align-items: center;"">
                <img src=""images/causal/causal_series_12/causal_series_12_b.jpg"" style=""width: 300px; height: 300px;"" />
              </div>","null",""
"","","","","","html-keyboard-response","85","285941","0.0-85.0","6D90CB10522D42B8B03D0DECE293BDB4","864eb16d-403b-4a65-996f-5a7722add1b7","5479079d-2186-49b2-89e2-e3afab6abcc2","","null","<div style=""display: flex; justify-content: center; align-items: center;"">
                <img src=""images/causal/causal_series_12/causal_series_12_c.jpg"" style=""width: 300px; height: 300px;"" />
              </div>","null",""
"","","","","","html-button-response","86","292631","0.0-86.0","6D90CB10522D42B8B03D0DECE293BDB4","864eb16d-403b-4a65-996f-5a7722add1b7","5479079d-2186-49b2-89e2-e3afab6abcc2","","6689","
    <div style=""display: flex; justify-content: center; align-items: center;"">
      <img src=""images/blue_deck_1.png"" style=""width: 300px; height: 300px; margin-right: 10px;"" />
      <img src=""images/red_deck_2.png"" style=""width: 300px; height: 300px;"" />
    </div>","1","1"
"","","","","","html-keyboard-response","87","295639","0.0-87.0-1.0-0.0","6D90CB10522D42B8B03D0DECE293BDB4","864eb16d-403b-4a65-996f-5a7722add1b7","5479079d-2186-49b2-89e2-e3afab6abcc2","","null","<div style=""display: flex; justify-content: center; align-items: center;"">
                <img src=""images/semantic/semantic_series_12/semantic_series_12_d.jpg"" style=""width: 300px; height: 300px;"" />
              </div>","null",""
"","","","","","html-keyboard-response","88","298648","0.0-88.0","6D90CB10522D42B8B03D0DECE293BDB4","864eb16d-403b-4a65-996f-5a7722add1b7","5479079d-2186-49b2-89e2-e3afab6abcc2","","null","<div style=""display: flex; justify-content: center; align-items: center;"">
                <img src=""images/other/blank.jpg"" style=""width: 300px; height: 300px;"" />
              </div>","null",""
"","","","","","html-keyboard-response","89","301649","0.0-89.0","6D90CB10522D42B8B03D0DECE293BDB4","864eb16d-403b-4a65-996f-5a7722add1b7","5479079d-2186-49b2-89e2-e3afab6abcc2","","null","<div style=""display: flex; justify-content: center; align-items: center;"">
                <img src=""images/causal/causal_series_4/causal_series_4_a.jpg"" style=""width: 300px; height: 300px;"" />
              </div>","null",""
"","","","","","html-keyboard-response","90","304656","0.0-90.0","6D90CB10522D42B8B03D0DECE293BDB4","864eb16d-403b-4a65-996f-5a7722add1b7","5479079d-2186-49b2-89e2-e3afab6abcc2","","null","<div style=""display: flex; justify-content: center; align-items: center;"">
                <img src=""images/causal/causal_series_4/causal_series_4_b.jpg"" style=""width: 300px; height: 300px;"" />
              </div>","null",""
"","","","","","html-keyboard-response","91","307662","0.0-91.0","6D90CB10522D42B8B03D0DECE293BDB4","864eb16d-403b-4a65-996f-5a7722add1b7","5479079d-2186-49b2-89e2-e3afab6abcc2","","null","<div style=""display: flex; justify-content: center; align-items: center;"">
                <img src=""images/causal/causal_series_4/causal_series_4_c.jpg"" style=""width: 300px; height: 300px;"" />
              </div>","null",""
"","","","","","html-button-response","92","312446","0.0-92.0","6D90CB10522D42B8B03D0DECE293BDB4","864eb16d-403b-4a65-996f-5a7722add1b7","5479079d-2186-49b2-89e2-e3afab6abcc2","","4784","
    <div style=""display: flex; justify-content: center; align-items: center;"">
      <img src=""images/blue_deck_1.png"" style=""width: 300px; height: 300px; margin-right: 10px;"" />
      <img src=""images/red_deck_2.png"" style=""width: 300px; height: 300px;"" />
    </div>","1","1"
"","","","","","html-keyboard-response","93","315454","0.0-93.0-1.0-0.0","6D90CB10522D42B8B03D0DECE293BDB4","864eb16d-403b-4a65-996f-5a7722add1b7","5479079d-2186-49b2-89e2-e3afab6abcc2","","null","<div style=""display: flex; justify-content: center; align-items: center;"">
                <img src=""images/semantic/semantic_series_4/semantic_series_4_d.jpg"" style=""width: 300px; height: 300px;"" />
              </div>","null",""
"","","","","","html-keyboard-response","94","318466","0.0-94.0","6D90CB10522D42B8B03D0DECE293BDB4","864eb16d-403b-4a65-996f-5a7722add1b7","5479079d-2186-49b2-89e2-e3afab6abcc2","","null","<div style=""display: flex; justify-content: center; align-items: center;"">
                <img src=""images/other/blank.jpg"" style=""width: 300px; height: 300px;"" />
              </div>","null",""
"","","","","","html-keyboard-response","95","321475","0.0-95.0","6D90CB10522D42B8B03D0DECE293BDB4","864eb16d-403b-4a65-996f-5a7722add1b7","5479079d-2186-49b2-89e2-e3afab6abcc2","","null","<div style=""display: flex; justify-content: center; align-items: center;"">
                <img src=""images/causal/causal_series_16/causal_series_16_a.jpg"" style=""width: 300px; height: 300px;"" />
              </div>","null",""
"","","","","","html-keyboard-response","96","324482","0.0-96.0","6D90CB10522D42B8B03D0DECE293BDB4","864eb16d-403b-4a65-996f-5a7722add1b7","5479079d-2186-49b2-89e2-e3afab6abcc2","","null","<div style=""display: flex; justify-content: center; align-items: center;"">
                <img src=""images/causal/causal_series_16/causal_series_16_b.jpg"" style=""width: 300px; height: 300px;"" />
              </div>","null",""
"","","","","","html-keyboard-response","97","327483","0.0-97.0","6D90CB10522D42B8B03D0DECE293BDB4","864eb16d-403b-4a65-996f-5a7722add1b7","5479079d-2186-49b2-89e2-e3afab6abcc2","","null","<div style=""display: flex; justify-content: center; align-items: center;"">
                <img src=""images/causal/causal_series_16/causal_series_16_c.jpg"" style=""width: 300px; height: 300px;"" />
              </div>","null",""
"","","","","","html-button-response","98","333156","0.0-98.0","6D90CB10522D42B8B03D0DECE293BDB4","864eb16d-403b-4a65-996f-5a7722add1b7","5479079d-2186-49b2-89e2-e3afab6abcc2","","5673","
    <div style=""display: flex; justify-content: center; align-items: center;"">
      <img src=""images/blue_deck_1.png"" style=""width: 300px; height: 300px; margin-right: 10px;"" />
      <img src=""images/red_deck_2.png"" style=""width: 300px; height: 300px;"" />
    </div>","0","0"
"","","","","","html-keyboard-response","99","336158","0.0-99.0-0.0-0.0","6D90CB10522D42B8B03D0DECE293BDB4","864eb16d-403b-4a65-996f-5a7722add1b7","5479079d-2186-49b2-89e2-e3afab6abcc2","","null","<div style=""display: flex; justify-content: center; align-items: center;"">
                <img src=""images/causal/causal_series_16/causal_series_16_d.jpg"" style=""width: 300px; height: 300px;"" />
              </div>","null",""
"","","","","","html-keyboard-response","100","339172","0.0-100.0","6D90CB10522D42B8B03D0DECE293BDB4","864eb16d-403b-4a65-996f-5a7722add1b7","5479079d-2186-49b2-89e2-e3afab6abcc2","","null","<div style=""display: flex; justify-content: center; align-items: center;"">
                <img src=""images/other/blank.jpg"" style=""width: 300px; height: 300px;"" />
              </div>","null",""
"","","","","","html-keyboard-response","101","342182","0.0-101.0","6D90CB10522D42B8B03D0DECE293BDB4","864eb16d-403b-4a65-996f-5a7722add1b7","5479079d-2186-49b2-89e2-e3afab6abcc2","","null","<div style=""display: flex; justify-content: center; align-items: center;"">
                <img src=""images/causal/causal_series_10/causal_series_10_a.jpg"" style=""width: 300px; height: 300px;"" />
              </div>","null",""
"","","","","","html-keyboard-response","102","345183","0.0-102.0","6D90CB10522D42B8B03D0DECE293BDB4","864eb16d-403b-4a65-996f-5a7722add1b7","5479079d-2186-49b2-89e2-e3afab6abcc2","","null","<div style=""display: flex; justify-content: center; align-items: center;"">
                <img src=""images/causal/causal_series_10/causal_series_10_b.jpg"" style=""width: 300px; height: 300px;"" />
              </div>","null",""
"","","","","","html-keyboard-response","103","348196","0.0-103.0","6D90CB10522D42B8B03D0DECE293BDB4","864eb16d-403b-4a65-996f-5a7722add1b7","5479079d-2186-49b2-89e2-e3afab6abcc2","","null","<div style=""display: flex; justify-content: center; align-items: center;"">
                <img src=""images/causal/causal_series_10/causal_series_10_c.jpg"" style=""width: 300px; height: 300px;"" />
              </div>","null",""
"","","","","","html-button-response","104","358619","0.0-104.0","6D90CB10522D42B8B03D0DECE293BDB4","864eb16d-403b-4a65-996f-5a7722add1b7","5479079d-2186-49b2-89e2-e3afab6abcc2","","10422","
    <div style=""display: flex; justify-content: center; align-items: center;"">
      <img src=""images/blue_deck_1.png"" style=""width: 300px; height: 300px; margin-right: 10px;"" />
      <img src=""images/red_deck_2.png"" style=""width: 300px; height: 300px;"" />
    </div>","0","0"
"","","","","","html-keyboard-response","105","361620","0.0-105.0-0.0-0.0","6D90CB10522D42B8B03D0DECE293BDB4","864eb16d-403b-4a65-996f-5a7722add1b7","5479079d-2186-49b2-89e2-e3afab6abcc2","","null","<div style=""display: flex; justify-content: center; align-items: center;"">
                <img src=""images/causal/causal_series_10/causal_series_10_d.jpg"" style=""width: 300px; height: 300px;"" />
              </div>","null",""
"","","","","","html-keyboard-response","106","364635","0.0-106.0","6D90CB10522D42B8B03D0DECE293BDB4","864eb16d-403b-4a65-996f-5a7722add1b7","5479079d-2186-49b2-89e2-e3afab6abcc2","","null","<div style=""display: flex; justify-content: center; align-items: center;"">
                <img src=""images/other/blank.jpg"" style=""width: 300px; height: 300px;"" />
              </div>","null",""
"","","","","","html-keyboard-response","107","367637","0.0-107.0","6D90CB10522D42B8B03D0DECE293BDB4","864eb16d-403b-4a65-996f-5a7722add1b7","5479079d-2186-49b2-89e2-e3afab6abcc2","","null","<div style=""display: flex; justify-content: center; align-items: center;"">
                <img src=""images/causal/causal_series_11/causal_series_11_a.jpg"" style=""width: 300px; height: 300px;"" />
              </div>","null",""
"","","","","","html-keyboard-response","108","370644","0.0-108.0","6D90CB10522D42B8B03D0DECE293BDB4","864eb16d-403b-4a65-996f-5a7722add1b7","5479079d-2186-49b2-89e2-e3afab6abcc2","","null","<div style=""display: flex; justify-content: center; align-items: center;"">
                <img src=""images/causal/causal_series_11/causal_series_11_b.jpg"" style=""width: 300px; height: 300px;"" />
              </div>","null",""
"","","","","","html-keyboard-response","109","373646","0.0-109.0","6D90CB10522D42B8B03D0DECE293BDB4","864eb16d-403b-4a65-996f-5a7722add1b7","5479079d-2186-49b2-89e2-e3afab6abcc2","","null","<div style=""display: flex; justify-content: center; align-items: center;"">
                <img src=""images/causal/causal_series_11/causal_series_11_c.jpg"" style=""width: 300px; height: 300px;"" />
              </div>","null",""
"","","","","","html-button-response","110","375545","0.0-110.0","6D90CB10522D42B8B03D0DECE293BDB4","864eb16d-403b-4a65-996f-5a7722add1b7","5479079d-2186-49b2-89e2-e3afab6abcc2","","1898","
    <div style=""display: flex; justify-content: center; align-items: center;"">
      <img src=""images/blue_deck_1.png"" style=""width: 300px; height: 300px; margin-right: 10px;"" />
      <img src=""images/red_deck_2.png"" style=""width: 300px; height: 300px;"" />
    </div>","0","0"
"","","","","","html-keyboard-response","111","378552","0.0-111.0-0.0-0.0","6D90CB10522D42B8B03D0DECE293BDB4","864eb16d-403b-4a65-996f-5a7722add1b7","5479079d-2186-49b2-89e2-e3afab6abcc2","","null","<div style=""display: flex; justify-content: center; align-items: center;"">
                <img src=""images/causal/causal_series_11/causal_series_11_d.jpg"" style=""width: 300px; height: 300px;"" />
              </div>","null",""
"","","","","","html-keyboard-response","112","381557","0.0-112.0","6D90CB10522D42B8B03D0DECE293BDB4","864eb16d-403b-4a65-996f-5a7722add1b7","5479079d-2186-49b2-89e2-e3afab6abcc2","","null","<div style=""display: flex; justify-content: center; align-items: center;"">
                <img src=""images/other/blank.jpg"" style=""width: 300px; height: 300px;"" />
              </div>","null",""
"","","","","","survey-text","113","402080","0.0-113.0","6D90CB10522D42B8B03D0DECE293BDB4","864eb16d-403b-4a65-996f-5a7722add1b7","5479079d-2186-49b2-89e2-e3afab6abcc2","","20521","","{""Q0"":""red is artistic or good, blue is negative or bad""}",""
"","","","","","survey-text","114","405030","0.0-114.0","6D90CB10522D42B8B03D0DECE293BDB4","864eb16d-403b-4a65-996f-5a7722add1b7","5479079d-2186-49b2-89e2-e3afab6abcc2","","2949","","{""Q0"":""red""}",""
"","","","","","html-button-response","115","414850","0.0-115.0","6D90CB10522D42B8B03D0DECE293BDB4","864eb16d-403b-4a65-996f-5a7722add1b7","5479079d-2186-49b2-89e2-e3afab6abcc2","","9819","Which color deck does the fourth image continue the story from the series?","1",""
"","","","","","html-button-response","116","416745","0.0-116.0","6D90CB10522D42B8B03D0DECE293BDB4","864eb16d-403b-4a65-996f-5a7722add1b7","5479079d-2186-49b2-89e2-e3afab6abcc2","","1895","Which color deck does the fourth image not follow the story from the series?","0",""
"","","","","","survey-text","117","420629","0.0-117.0","6D90CB10522D42B8B03D0DECE293BDB4","864eb16d-403b-4a65-996f-5a7722add1b7","5479079d-2186-49b2-89e2-e3afab6abcc2","","3883","","{""Q0"":""MALE"",""Q1"":""32""}",""
"","","","","","instructions","118","426770","0.0-118.0","6D90CB10522D42B8B03D0DECE293BDB4","864eb16d-403b-4a65-996f-5a7722add1b7","5479079d-2186-49b2-89e2-e3afab6abcc2","[{""page_index"":0,""viewing_time"":6141}]","6141","","",""
