"success","timeout","failed_images","failed_audio","failed_video","trial_type","trial_index","time_elapsed","internal_node_id","subject_id","study_id","session_id","view_history","rt","stimulus","response","choice"
"true","false","[]","[]","[]","preload","0","39928","0.0-0.0","F9C6927E180F4F3BBE33B5F5452635A9","e5f38a64-ce76-4547-a6ad-03cb1afd20ef","58046770-4c03-4bc2-b4bc-e7359011db5d","","","","",""
"","","","","","instructions","1","43589","0.0-1.0","F9C6927E180F4F3BBE33B5F5452635A9","e5f38a64-ce76-4547-a6ad-03cb1afd20ef","58046770-4c03-4bc2-b4bc-e7359011db5d","[{""page_index"":0,""viewing_time"":3652}]","3653","","",""
"","","","","","instructions","2","47433","0.0-2.0","F9C6927E180F4F3BBE33B5F5452635A9","e5f38a64-ce76-4547-a6ad-03cb1afd20ef","58046770-4c03-4bc2-b4bc-e7359011db5d","[{""page_index"":0,""viewing_time"":3821}]","3822","","",""
"true","","","","","fullscreen","3","50130","0.0-3.0","F9C6927E180F4F3BBE33B5F5452635A9","e5f38a64-ce76-4547-a6ad-03cb1afd20ef","58046770-4c03-4bc2-b4bc-e7359011db5d","","1673","","",""
"","","","","","instructions","4","56774","0.0-4.0","F9C6927E180F4F3BBE33B5F5452635A9","e5f38a64-ce76-4547-a6ad-03cb1afd20ef","58046770-4c03-4bc2-b4bc-e7359011db5d","[{""page_index"":0,""viewing_time"":6640}]","6641","","",""
"","","","","","html-keyboard-response","5","59828","0.0-5.0","F9C6927E180F4F3BBE33B5F5452635A9","e5f38a64-ce76-4547-a6ad-03cb1afd20ef","58046770-4c03-4bc2-b4bc-e7359011db5d","","null","<div style=""display: flex; justify-content: center; align-items: center;"">
                <img src=""images/causal/causal_series_17/causal_series_17_a.jpg"" style=""width: 300px; height: 300px;"" />
              </div>","null",""
"","","","","","html-keyboard-response","6","62830","0.0-6.0","F9C6927E180F4F3BBE33B5F5452635A9","e5f38a64-ce76-4547-a6ad-03cb1afd20ef","58046770-4c03-4bc2-b4bc-e7359011db5d","","null","<div style=""display: flex; justify-content: center; align-items: center;"">
                <img src=""images/causal/causal_series_17/causal_series_17_b.jpg"" style=""width: 300px; height: 300px;"" />
              </div>","null",""
"","","","","","html-keyboard-response","7","65847","0.0-7.0","F9C6927E180F4F3BBE33B5F5452635A9","e5f38a64-ce76-4547-a6ad-03cb1afd20ef","58046770-4c03-4bc2-b4bc-e7359011db5d","","null","<div style=""display: flex; justify-content: center; align-items: center;"">
                <img src=""images/causal/causal_series_17/causal_series_17_c.jpg"" style=""width: 300px; height: 300px;"" />
              </div>","null",""
"","","","","","html-button-response","8","79049","0.0-8.0","F9C6927E180F4F3BBE33B5F5452635A9","e5f38a64-ce76-4547-a6ad-03cb1afd20ef","58046770-4c03-4bc2-b4bc-e7359011db5d","","13199","
    <div style=""display: flex; justify-content: center; align-items: center;"">
      <img src=""images/red_deck_2.png"" style=""width: 300px; height: 300px; margin-right: 10px;"" />
      <img src=""images/blue_deck_1.png"" style=""width: 300px; height: 300px;"" />
    </div>","1","1"
"","","","","","html-keyboard-response","9","82052","0.0-9.0-1.0-0.0","F9C6927E180F4F3BBE33B5F5452635A9","e5f38a64-ce76-4547-a6ad-03cb1afd20ef","58046770-4c03-4bc2-b4bc-e7359011db5d","","null","<div style=""display: flex; justify-content: center; align-items: center;"">
                <img src=""images/semantic/semantic_series_16/semantic_series_16_d.jpg"" style=""width: 300px; height: 300px;"" />
              </div>","null",""
"","","","","","html-keyboard-response","10","85064","0.0-10.0","F9C6927E180F4F3BBE33B5F5452635A9","e5f38a64-ce76-4547-a6ad-03cb1afd20ef","58046770-4c03-4bc2-b4bc-e7359011db5d","","null","<div style=""display: flex; justify-content: center; align-items: center;"">
                <img src=""images/other/blank.jpg"" style=""width: 300px; height: 300px;"" />
              </div>","null",""
"","","","","","html-keyboard-response","11","88077","0.0-11.0","F9C6927E180F4F3BBE33B5F5452635A9","e5f38a64-ce76-4547-a6ad-03cb1afd20ef","58046770-4c03-4bc2-b4bc-e7359011db5d","","null","<div style=""display: flex; justify-content: center; align-items: center;"">
                <img src=""images/causal/causal_series_13/causal_series_13_a.jpg"" style=""width: 300px; height: 300px;"" />
              </div>","null",""
"","","","","","html-keyboard-response","12","91097","0.0-12.0","F9C6927E180F4F3BBE33B5F5452635A9","e5f38a64-ce76-4547-a6ad-03cb1afd20ef","58046770-4c03-4bc2-b4bc-e7359011db5d","","null","<div style=""display: flex; justify-content: center; align-items: center;"">
                <img src=""images/causal/causal_series_13/causal_series_13_b.jpg"" style=""width: 300px; height: 300px;"" />
              </div>","null",""
"","","","","","html-keyboard-response","13","94112","0.0-13.0","F9C6927E180F4F3BBE33B5F5452635A9","e5f38a64-ce76-4547-a6ad-03cb1afd20ef","58046770-4c03-4bc2-b4bc-e7359011db5d","","null","<div style=""display: flex; justify-content: center; align-items: center;"">
                <img src=""images/causal/causal_series_13/causal_series_13_c.jpg"" style=""width: 300px; height: 300px;"" />
              </div>","null",""
"","","","","","html-button-response","14","104729","0.0-14.0","F9C6927E180F4F3BBE33B5F5452635A9","e5f38a64-ce76-4547-a6ad-03cb1afd20ef","58046770-4c03-4bc2-b4bc-e7359011db5d","","10611","
    <div style=""display: flex; justify-content: center; align-items: center;"">
      <img src=""images/red_deck_2.png"" style=""width: 300px; height: 300px; margin-right: 10px;"" />
      <img src=""images/blue_deck_1.png"" style=""width: 300px; height: 300px;"" />
    </div>","1","1"
"","","","","","html-keyboard-response","15","107733","0.0-15.0-1.0-0.0","F9C6927E180F4F3BBE33B5F5452635A9","e5f38a64-ce76-4547-a6ad-03cb1afd20ef","58046770-4c03-4bc2-b4bc-e7359011db5d","","null","<div style=""display: flex; justify-content: center; align-items: center;"">
                <img src=""images/semantic/semantic_series_12/semantic_series_12_d.jpg"" style=""width: 300px; height: 300px;"" />
              </div>","null",""
"","","","","","html-keyboard-response","16","110740","0.0-16.0","F9C6927E180F4F3BBE33B5F5452635A9","e5f38a64-ce76-4547-a6ad-03cb1afd20ef","58046770-4c03-4bc2-b4bc-e7359011db5d","","null","<div style=""display: flex; justify-content: center; align-items: center;"">
                <img src=""images/other/blank.jpg"" style=""width: 300px; height: 300px;"" />
              </div>","null",""
"","","","","","html-keyboard-response","17","113749","0.0-17.0","F9C6927E180F4F3BBE33B5F5452635A9","e5f38a64-ce76-4547-a6ad-03cb1afd20ef","58046770-4c03-4bc2-b4bc-e7359011db5d","","null","<div style=""display: flex; justify-content: center; align-items: center;"">
                <img src=""images/causal/causal_series_9/causal_series_9_a.jpg"" style=""width: 300px; height: 300px;"" />
              </div>","null",""
"","","","","","html-keyboard-response","18","116764","0.0-18.0","F9C6927E180F4F3BBE33B5F5452635A9","e5f38a64-ce76-4547-a6ad-03cb1afd20ef","58046770-4c03-4bc2-b4bc-e7359011db5d","","null","<div style=""display: flex; justify-content: center; align-items: center;"">
                <img src=""images/causal/causal_series_9/causal_series_9_b.jpg"" style=""width: 300px; height: 300px;"" />
              </div>","null",""
"","","","","","html-keyboard-response","19","119766","0.0-19.0","F9C6927E180F4F3BBE33B5F5452635A9","e5f38a64-ce76-4547-a6ad-03cb1afd20ef","58046770-4c03-4bc2-b4bc-e7359011db5d","","null","<div style=""display: flex; justify-content: center; align-items: center;"">
                <img src=""images/causal/causal_series_9/causal_series_9_c.jpg"" style=""width: 300px; height: 300px;"" />
              </div>","null",""
"","","","","","html-button-response","20","123211","0.0-20.0","F9C6927E180F4F3BBE33B5F5452635A9","e5f38a64-ce76-4547-a6ad-03cb1afd20ef","58046770-4c03-4bc2-b4bc-e7359011db5d","","3434","
    <div style=""display: flex; justify-content: center; align-items: center;"">
      <img src=""images/red_deck_2.png"" style=""width: 300px; height: 300px; margin-right: 10px;"" />
      <img src=""images/blue_deck_1.png"" style=""width: 300px; height: 300px;"" />
    </div>","1","1"
"","","","","","html-keyboard-response","21","126221","0.0-21.0-1.0-0.0","F9C6927E180F4F3BBE33B5F5452635A9","e5f38a64-ce76-4547-a6ad-03cb1afd20ef","58046770-4c03-4bc2-b4bc-e7359011db5d","","null","<div style=""display: flex; justify-content: center; align-items: center;"">
                <img src=""images/semantic/semantic_series_8/semantic_series_8_d.jpg"" style=""width: 300px; height: 300px;"" />
              </div>","null",""
"","","","","","html-keyboard-response","22","129236","0.0-22.0","F9C6927E180F4F3BBE33B5F5452635A9","e5f38a64-ce76-4547-a6ad-03cb1afd20ef","58046770-4c03-4bc2-b4bc-e7359011db5d","","null","<div style=""display: flex; justify-content: center; align-items: center;"">
                <img src=""images/other/blank.jpg"" style=""width: 300px; height: 300px;"" />
              </div>","null",""
"","","","","","html-keyboard-response","23","132246","0.0-23.0","F9C6927E180F4F3BBE33B5F5452635A9","e5f38a64-ce76-4547-a6ad-03cb1afd20ef","58046770-4c03-4bc2-b4bc-e7359011db5d","","null","<div style=""display: flex; justify-content: center; align-items: center;"">
                <img src=""images/causal/causal_series_18/causal_series_18_a.jpg"" style=""width: 300px; height: 300px;"" />
              </div>","null",""
"","","","","","html-keyboard-response","24","135248","0.0-24.0","F9C6927E180F4F3BBE33B5F5452635A9","e5f38a64-ce76-4547-a6ad-03cb1afd20ef","58046770-4c03-4bc2-b4bc-e7359011db5d","","null","<div style=""display: flex; justify-content: center; align-items: center;"">
                <img src=""images/causal/causal_series_18/causal_series_18_b.jpg"" style=""width: 300px; height: 300px;"" />
              </div>","null",""
"","","","","","html-keyboard-response","25","138291","0.0-25.0","F9C6927E180F4F3BBE33B5F5452635A9","e5f38a64-ce76-4547-a6ad-03cb1afd20ef","58046770-4c03-4bc2-b4bc-e7359011db5d","","null","<div style=""display: flex; justify-content: center; align-items: center;"">
                <img src=""images/causal/causal_series_18/causal_series_18_c.jpg"" style=""width: 300px; height: 300px;"" />
              </div>","null",""
"","","","","","html-button-response","26","142780","0.0-26.0","F9C6927E180F4F3BBE33B5F5452635A9","e5f38a64-ce76-4547-a6ad-03cb1afd20ef","58046770-4c03-4bc2-b4bc-e7359011db5d","","4488","
    <div style=""display: flex; justify-content: center; align-items: center;"">
      <img src=""images/red_deck_2.png"" style=""width: 300px; height: 300px; margin-right: 10px;"" />
      <img src=""images/blue_deck_1.png"" style=""width: 300px; height: 300px;"" />
    </div>","1","1"
"","","","","","html-keyboard-response","27","145792","0.0-27.0-1.0-0.0","F9C6927E180F4F3BBE33B5F5452635A9","e5f38a64-ce76-4547-a6ad-03cb1afd20ef","58046770-4c03-4bc2-b4bc-e7359011db5d","","null","<div style=""display: flex; justify-content: center; align-items: center;"">
                <img src=""images/semantic/semantic_series_17/semantic_series_17_d.jpg"" style=""width: 300px; height: 300px;"" />
              </div>","null",""
"","","","","","html-keyboard-response","28","148804","0.0-28.0","F9C6927E180F4F3BBE33B5F5452635A9","e5f38a64-ce76-4547-a6ad-03cb1afd20ef","58046770-4c03-4bc2-b4bc-e7359011db5d","","null","<div style=""display: flex; justify-content: center; align-items: center;"">
                <img src=""images/other/blank.jpg"" style=""width: 300px; height: 300px;"" />
              </div>","null",""
"","","","","","html-keyboard-response","29","151819","0.0-29.0","F9C6927E180F4F3BBE33B5F5452635A9","e5f38a64-ce76-4547-a6ad-03cb1afd20ef","58046770-4c03-4bc2-b4bc-e7359011db5d","","null","<div style=""display: flex; justify-content: center; align-items: center;"">
                <img src=""images/causal/causal_series_16/causal_series_16_a.jpg"" style=""width: 300px; height: 300px;"" />
              </div>","null",""
"","","","","","html-keyboard-response","30","154826","0.0-30.0","F9C6927E180F4F3BBE33B5F5452635A9","e5f38a64-ce76-4547-a6ad-03cb1afd20ef","58046770-4c03-4bc2-b4bc-e7359011db5d","","null","<div style=""display: flex; justify-content: center; align-items: center;"">
                <img src=""images/causal/causal_series_16/causal_series_16_b.jpg"" style=""width: 300px; height: 300px;"" />
              </div>","null",""
"","","","","","html-keyboard-response","31","157850","0.0-31.0","F9C6927E180F4F3BBE33B5F5452635A9","e5f38a64-ce76-4547-a6ad-03cb1afd20ef","58046770-4c03-4bc2-b4bc-e7359011db5d","","null","<div style=""display: flex; justify-content: center; align-items: center;"">
                <img src=""images/causal/causal_series_16/causal_series_16_c.jpg"" style=""width: 300px; height: 300px;"" />
              </div>","null",""
"","","","","","html-button-response","32","161887","0.0-32.0","F9C6927E180F4F3BBE33B5F5452635A9","e5f38a64-ce76-4547-a6ad-03cb1afd20ef","58046770-4c03-4bc2-b4bc-e7359011db5d","","4035","
    <div style=""display: flex; justify-content: center; align-items: center;"">
      <img src=""images/red_deck_2.png"" style=""width: 300px; height: 300px; margin-right: 10px;"" />
      <img src=""images/blue_deck_1.png"" style=""width: 300px; height: 300px;"" />
    </div>","0","0"
"","","","","","html-keyboard-response","33","164902","0.0-33.0-0.0-0.0","F9C6927E180F4F3BBE33B5F5452635A9","e5f38a64-ce76-4547-a6ad-03cb1afd20ef","58046770-4c03-4bc2-b4bc-e7359011db5d","","null","<div style=""display: flex; justify-content: center; align-items: center;"">
                <img src=""images/causal/causal_series_16/causal_series_16_d.jpg"" style=""width: 300px; height: 300px;"" />
              </div>","null",""
"","","","","","html-keyboard-response","34","167905","0.0-34.0","F9C6927E180F4F3BBE33B5F5452635A9","e5f38a64-ce76-4547-a6ad-03cb1afd20ef","58046770-4c03-4bc2-b4bc-e7359011db5d","","null","<div style=""display: flex; justify-content: center; align-items: center;"">
                <img src=""images/other/blank.jpg"" style=""width: 300px; height: 300px;"" />
              </div>","null",""
"","","","","","html-keyboard-response","35","170918","0.0-35.0","F9C6927E180F4F3BBE33B5F5452635A9","e5f38a64-ce76-4547-a6ad-03cb1afd20ef","58046770-4c03-4bc2-b4bc-e7359011db5d","","null","<div style=""display: flex; justify-content: center; align-items: center;"">
                <img src=""images/causal/causal_series_5/causal_series_5_a.jpg"" style=""width: 300px; height: 300px;"" />
              </div>","null",""
"","","","","","html-keyboard-response","36","173926","0.0-36.0","F9C6927E180F4F3BBE33B5F5452635A9","e5f38a64-ce76-4547-a6ad-03cb1afd20ef","58046770-4c03-4bc2-b4bc-e7359011db5d","","null","<div style=""display: flex; justify-content: center; align-items: center;"">
                <img src=""images/causal/causal_series_5/causal_series_5_b.jpg"" style=""width: 300px; height: 300px;"" />
              </div>","null",""
"","","","","","html-keyboard-response","37","176932","0.0-37.0","F9C6927E180F4F3BBE33B5F5452635A9","e5f38a64-ce76-4547-a6ad-03cb1afd20ef","58046770-4c03-4bc2-b4bc-e7359011db5d","","null","<div style=""display: flex; justify-content: center; align-items: center;"">
                <img src=""images/causal/causal_series_5/causal_series_5_c.jpg"" style=""width: 300px; height: 300px;"" />
              </div>","null",""
"","","","","","html-button-response","38","182020","0.0-38.0","F9C6927E180F4F3BBE33B5F5452635A9","e5f38a64-ce76-4547-a6ad-03cb1afd20ef","58046770-4c03-4bc2-b4bc-e7359011db5d","","5082","
    <div style=""display: flex; justify-content: center; align-items: center;"">
      <img src=""images/red_deck_2.png"" style=""width: 300px; height: 300px; margin-right: 10px;"" />
      <img src=""images/blue_deck_1.png"" style=""width: 300px; height: 300px;"" />
    </div>","0","0"
"","","","","","html-keyboard-response","39","185033","0.0-39.0-0.0-0.0","F9C6927E180F4F3BBE33B5F5452635A9","e5f38a64-ce76-4547-a6ad-03cb1afd20ef","58046770-4c03-4bc2-b4bc-e7359011db5d","","null","<div style=""display: flex; justify-content: center; align-items: center;"">
                <img src=""images/causal/causal_series_5/causal_series_5_d.jpg"" style=""width: 300px; height: 300px;"" />
              </div>","null",""
"","","","","","html-keyboard-response","40","188036","0.0-40.0","F9C6927E180F4F3BBE33B5F5452635A9","e5f38a64-ce76-4547-a6ad-03cb1afd20ef","58046770-4c03-4bc2-b4bc-e7359011db5d","","null","<div style=""display: flex; justify-content: center; align-items: center;"">
                <img src=""images/other/blank.jpg"" style=""width: 300px; height: 300px;"" />
              </div>","null",""
"","","","","","html-keyboard-response","41","191051","0.0-41.0","F9C6927E180F4F3BBE33B5F5452635A9","e5f38a64-ce76-4547-a6ad-03cb1afd20ef","58046770-4c03-4bc2-b4bc-e7359011db5d","","null","<div style=""display: flex; justify-content: center; align-items: center;"">
                <img src=""images/causal/causal_series_6/causal_series_6_a.jpg"" style=""width: 300px; height: 300px;"" />
              </div>","null",""
"","","","","","html-keyboard-response","42","194066","0.0-42.0","F9C6927E180F4F3BBE33B5F5452635A9","e5f38a64-ce76-4547-a6ad-03cb1afd20ef","58046770-4c03-4bc2-b4bc-e7359011db5d","","null","<div style=""display: flex; justify-content: center; align-items: center;"">
                <img src=""images/causal/causal_series_6/causal_series_6_b.jpg"" style=""width: 300px; height: 300px;"" />
              </div>","null",""
"","","","","","html-keyboard-response","43","197072","0.0-43.0","F9C6927E180F4F3BBE33B5F5452635A9","e5f38a64-ce76-4547-a6ad-03cb1afd20ef","58046770-4c03-4bc2-b4bc-e7359011db5d","","null","<div style=""display: flex; justify-content: center; align-items: center;"">
                <img src=""images/causal/causal_series_6/causal_series_6_c.jpg"" style=""width: 300px; height: 300px;"" />
              </div>","null",""
"","","","","","html-button-response","44","199541","0.0-44.0","F9C6927E180F4F3BBE33B5F5452635A9","e5f38a64-ce76-4547-a6ad-03cb1afd20ef","58046770-4c03-4bc2-b4bc-e7359011db5d","","2468","
    <div style=""display: flex; justify-content: center; align-items: center;"">
      <img src=""images/red_deck_2.png"" style=""width: 300px; height: 300px; margin-right: 10px;"" />
      <img src=""images/blue_deck_1.png"" style=""width: 300px; height: 300px;"" />
    </div>","1","1"
"","","","","","html-keyboard-response","45","202552","0.0-45.0-1.0-0.0","F9C6927E180F4F3BBE33B5F5452635A9","e5f38a64-ce76-4547-a6ad-03cb1afd20ef","58046770-4c03-4bc2-b4bc-e7359011db5d","","null","<div style=""display: flex; justify-content: center; align-items: center;"">
                <img src=""images/semantic/semantic_series_5/semantic_series_5_d.jpg"" style=""width: 300px; height: 300px;"" />
              </div>","null",""
"","","","","","html-keyboard-response","46","205569","0.0-46.0","F9C6927E180F4F3BBE33B5F5452635A9","e5f38a64-ce76-4547-a6ad-03cb1afd20ef","58046770-4c03-4bc2-b4bc-e7359011db5d","","null","<div style=""display: flex; justify-content: center; align-items: center;"">
                <img src=""images/other/blank.jpg"" style=""width: 300px; height: 300px;"" />
              </div>","null",""
"","","","","","html-keyboard-response","47","208572","0.0-47.0","F9C6927E180F4F3BBE33B5F5452635A9","e5f38a64-ce76-4547-a6ad-03cb1afd20ef","58046770-4c03-4bc2-b4bc-e7359011db5d","","null","<div style=""display: flex; justify-content: center; align-items: center;"">
                <img src=""images/causal/causal_series_3/causal_series_3_a.jpg"" style=""width: 300px; height: 300px;"" />
              </div>","null",""
"","","","","","html-keyboard-response","48","211579","0.0-48.0","F9C6927E180F4F3BBE33B5F5452635A9","e5f38a64-ce76-4547-a6ad-03cb1afd20ef","58046770-4c03-4bc2-b4bc-e7359011db5d","","null","<div style=""display: flex; justify-content: center; align-items: center;"">
                <img src=""images/causal/causal_series_3/causal_series_3_b.jpg"" style=""width: 300px; height: 300px;"" />
              </div>","null",""
"","","","","","html-keyboard-response","49","214595","0.0-49.0","F9C6927E180F4F3BBE33B5F5452635A9","e5f38a64-ce76-4547-a6ad-03cb1afd20ef","58046770-4c03-4bc2-b4bc-e7359011db5d","","null","<div style=""display: flex; justify-content: center; align-items: center;"">
                <img src=""images/causal/causal_series_3/causal_series_3_c.jpg"" style=""width: 300px; height: 300px;"" />
              </div>","null",""
"","","","","","html-button-response","50","216434","0.0-50.0","F9C6927E180F4F3BBE33B5F5452635A9","e5f38a64-ce76-4547-a6ad-03cb1afd20ef","58046770-4c03-4bc2-b4bc-e7359011db5d","","1837","
    <div style=""display: flex; justify-content: center; align-items: center;"">
      <img src=""images/red_deck_2.png"" style=""width: 300px; height: 300px; margin-right: 10px;"" />
      <img src=""images/blue_deck_1.png"" style=""width: 300px; height: 300px;"" />
    </div>","1","1"
"","","","","","html-keyboard-response","51","219436","0.0-51.0-1.0-0.0","F9C6927E180F4F3BBE33B5F5452635A9","e5f38a64-ce76-4547-a6ad-03cb1afd20ef","58046770-4c03-4bc2-b4bc-e7359011db5d","","null","<div style=""display: flex; justify-content: center; align-items: center;"">
                <img src=""images/semantic/semantic_series_2/semantic_series_2_d.jpg"" style=""width: 300px; height: 300px;"" />
              </div>","null",""
"","","","","","html-keyboard-response","52","222447","0.0-52.0","F9C6927E180F4F3BBE33B5F5452635A9","e5f38a64-ce76-4547-a6ad-03cb1afd20ef","58046770-4c03-4bc2-b4bc-e7359011db5d","","null","<div style=""display: flex; justify-content: center; align-items: center;"">
                <img src=""images/other/blank.jpg"" style=""width: 300px; height: 300px;"" />
              </div>","null",""
"","","","","","html-keyboard-response","53","225453","0.0-53.0","F9C6927E180F4F3BBE33B5F5452635A9","e5f38a64-ce76-4547-a6ad-03cb1afd20ef","58046770-4c03-4bc2-b4bc-e7359011db5d","","null","<div style=""display: flex; justify-content: center; align-items: center;"">
                <img src=""images/causal/causal_series_10/causal_series_10_a.jpg"" style=""width: 300px; height: 300px;"" />
              </div>","null",""
"","","","","","html-keyboard-response","54","228467","0.0-54.0","F9C6927E180F4F3BBE33B5F5452635A9","e5f38a64-ce76-4547-a6ad-03cb1afd20ef","58046770-4c03-4bc2-b4bc-e7359011db5d","","null","<div style=""display: flex; justify-content: center; align-items: center;"">
                <img src=""images/causal/causal_series_10/causal_series_10_b.jpg"" style=""width: 300px; height: 300px;"" />
              </div>","null",""
"","","","","","html-keyboard-response","55","231479","0.0-55.0","F9C6927E180F4F3BBE33B5F5452635A9","e5f38a64-ce76-4547-a6ad-03cb1afd20ef","58046770-4c03-4bc2-b4bc-e7359011db5d","","null","<div style=""display: flex; justify-content: center; align-items: center;"">
                <img src=""images/causal/causal_series_10/causal_series_10_c.jpg"" style=""width: 300px; height: 300px;"" />
              </div>","null",""
"","","","","","html-button-response","56","234031","0.0-56.0","F9C6927E180F4F3BBE33B5F5452635A9","e5f38a64-ce76-4547-a6ad-03cb1afd20ef","58046770-4c03-4bc2-b4bc-e7359011db5d","","2550","
    <div style=""display: flex; justify-content: center; align-items: center;"">
      <img src=""images/red_deck_2.png"" style=""width: 300px; height: 300px; margin-right: 10px;"" />
      <img src=""images/blue_deck_1.png"" style=""width: 300px; height: 300px;"" />
    </div>","1","1"
"","","","","","html-keyboard-response","57","237047","0.0-57.0-1.0-0.0","F9C6927E180F4F3BBE33B5F5452635A9","e5f38a64-ce76-4547-a6ad-03cb1afd20ef","58046770-4c03-4bc2-b4bc-e7359011db5d","","null","<div style=""display: flex; justify-content: center; align-items: center;"">
                <img src=""images/semantic/semantic_series_9/semantic_series_9_d.jpg"" style=""width: 300px; height: 300px;"" />
              </div>","null",""
"","","","","","html-keyboard-response","58","240061","0.0-58.0","F9C6927E180F4F3BBE33B5F5452635A9","e5f38a64-ce76-4547-a6ad-03cb1afd20ef","58046770-4c03-4bc2-b4bc-e7359011db5d","","null","<div style=""display: flex; justify-content: center; align-items: center;"">
                <img src=""images/other/blank.jpg"" style=""width: 300px; height: 300px;"" />
              </div>","null",""
"","","","","","html-keyboard-response","59","243072","0.0-59.0","F9C6927E180F4F3BBE33B5F5452635A9","e5f38a64-ce76-4547-a6ad-03cb1afd20ef","58046770-4c03-4bc2-b4bc-e7359011db5d","","null","<div style=""display: flex; justify-content: center; align-items: center;"">
                <img src=""images/causal/causal_series_15/causal_series_15_a.jpg"" style=""width: 300px; height: 300px;"" />
              </div>","null",""
"","","","","","html-keyboard-response","60","246088","0.0-60.0","F9C6927E180F4F3BBE33B5F5452635A9","e5f38a64-ce76-4547-a6ad-03cb1afd20ef","58046770-4c03-4bc2-b4bc-e7359011db5d","","null","<div style=""display: flex; justify-content: center; align-items: center;"">
                <img src=""images/causal/causal_series_15/causal_series_15_b.jpg"" style=""width: 300px; height: 300px;"" />
              </div>","null",""
"","","","","","html-keyboard-response","61","249099","0.0-61.0","F9C6927E180F4F3BBE33B5F5452635A9","e5f38a64-ce76-4547-a6ad-03cb1afd20ef","58046770-4c03-4bc2-b4bc-e7359011db5d","","null","<div style=""display: flex; justify-content: center; align-items: center;"">
                <img src=""images/causal/causal_series_15/causal_series_15_c.jpg"" style=""width: 300px; height: 300px;"" />
              </div>","null",""
"","","","","","html-button-response","62","251377","0.0-62.0","F9C6927E180F4F3BBE33B5F5452635A9","e5f38a64-ce76-4547-a6ad-03cb1afd20ef","58046770-4c03-4bc2-b4bc-e7359011db5d","","2277","
    <div style=""display: flex; justify-content: center; align-items: center;"">
      <img src=""images/red_deck_2.png"" style=""width: 300px; height: 300px; margin-right: 10px;"" />
      <img src=""images/blue_deck_1.png"" style=""width: 300px; height: 300px;"" />
    </div>","0","0"
"","","","","","html-keyboard-response","63","254382","0.0-63.0-0.0-0.0","F9C6927E180F4F3BBE33B5F5452635A9","e5f38a64-ce76-4547-a6ad-03cb1afd20ef","58046770-4c03-4bc2-b4bc-e7359011db5d","","null","<div style=""display: flex; justify-content: center; align-items: center;"">
                <img src=""images/causal/causal_series_15/causal_series_15_d.jpg"" style=""width: 300px; height: 300px;"" />
              </div>","null",""
"","","","","","html-keyboard-response","64","257394","0.0-64.0","F9C6927E180F4F3BBE33B5F5452635A9","e5f38a64-ce76-4547-a6ad-03cb1afd20ef","58046770-4c03-4bc2-b4bc-e7359011db5d","","null","<div style=""display: flex; justify-content: center; align-items: center;"">
                <img src=""images/other/blank.jpg"" style=""width: 300px; height: 300px;"" />
              </div>","null",""
"","","","","","html-keyboard-response","65","260398","0.0-65.0","F9C6927E180F4F3BBE33B5F5452635A9","e5f38a64-ce76-4547-a6ad-03cb1afd20ef","58046770-4c03-4bc2-b4bc-e7359011db5d","","null","<div style=""display: flex; justify-content: center; align-items: center;"">
                <img src=""images/causal/causal_series_8/causal_series_8_a.jpg"" style=""width: 300px; height: 300px;"" />
              </div>","null",""
"","","","","","html-keyboard-response","66","263402","0.0-66.0","F9C6927E180F4F3BBE33B5F5452635A9","e5f38a64-ce76-4547-a6ad-03cb1afd20ef","58046770-4c03-4bc2-b4bc-e7359011db5d","","null","<div style=""display: flex; justify-content: center; align-items: center;"">
                <img src=""images/causal/causal_series_8/causal_series_8_b.jpg"" style=""width: 300px; height: 300px;"" />
              </div>","null",""
"","","","","","html-keyboard-response","67","266419","0.0-67.0","F9C6927E180F4F3BBE33B5F5452635A9","e5f38a64-ce76-4547-a6ad-03cb1afd20ef","58046770-4c03-4bc2-b4bc-e7359011db5d","","null","<div style=""display: flex; justify-content: center; align-items: center;"">
                <img src=""images/causal/causal_series_8/causal_series_8_c.jpg"" style=""width: 300px; height: 300px;"" />
              </div>","null",""
"","","","","","html-button-response","68","270558","0.0-68.0","F9C6927E180F4F3BBE33B5F5452635A9","e5f38a64-ce76-4547-a6ad-03cb1afd20ef","58046770-4c03-4bc2-b4bc-e7359011db5d","","4137","
    <div style=""display: flex; justify-content: center; align-items: center;"">
      <img src=""images/red_deck_2.png"" style=""width: 300px; height: 300px; margin-right: 10px;"" />
      <img src=""images/blue_deck_1.png"" style=""width: 300px; height: 300px;"" />
    </div>","0","0"
"","","","","","html-keyboard-response","69","274255","0.0-69.0-0.0-0.0","F9C6927E180F4F3BBE33B5F5452635A9","e5f38a64-ce76-4547-a6ad-03cb1afd20ef","58046770-4c03-4bc2-b4bc-e7359011db5d","","null","<div style=""display: flex; justify-content: center; align-items: center;"">
                <img src=""images/causal/causal_series_8/causal_series_8_d.jpg"" style=""width: 300px; height: 300px;"" />
              </div>","null",""
"","","","","","html-keyboard-response","70","277277","0.0-70.0","F9C6927E180F4F3BBE33B5F5452635A9","e5f38a64-ce76-4547-a6ad-03cb1afd20ef","58046770-4c03-4bc2-b4bc-e7359011db5d","","null","<div style=""display: flex; justify-content: center; align-items: center;"">
                <img src=""images/other/blank.jpg"" style=""width: 300px; height: 300px;"" />
              </div>","null",""
"","","","","","html-keyboard-response","71","280284","0.0-71.0","F9C6927E180F4F3BBE33B5F5452635A9","e5f38a64-ce76-4547-a6ad-03cb1afd20ef","58046770-4c03-4bc2-b4bc-e7359011db5d","","null","<div style=""display: flex; justify-content: center; align-items: center;"">
                <img src=""images/causal/causal_series_12/causal_series_12_a.jpg"" style=""width: 300px; height: 300px;"" />
              </div>","null",""
"","","","","","html-keyboard-response","72","283288","0.0-72.0","F9C6927E180F4F3BBE33B5F5452635A9","e5f38a64-ce76-4547-a6ad-03cb1afd20ef","58046770-4c03-4bc2-b4bc-e7359011db5d","","null","<div style=""display: flex; justify-content: center; align-items: center;"">
                <img src=""images/causal/causal_series_12/causal_series_12_b.jpg"" style=""width: 300px; height: 300px;"" />
              </div>","null",""
"","","","","","html-keyboard-response","73","286291","0.0-73.0","F9C6927E180F4F3BBE33B5F5452635A9","e5f38a64-ce76-4547-a6ad-03cb1afd20ef","58046770-4c03-4bc2-b4bc-e7359011db5d","","null","<div style=""display: flex; justify-content: center; align-items: center;"">
                <img src=""images/causal/causal_series_12/causal_series_12_c.jpg"" style=""width: 300px; height: 300px;"" />
              </div>","null",""
"","","","","","html-button-response","74","288361","0.0-74.0","F9C6927E180F4F3BBE33B5F5452635A9","e5f38a64-ce76-4547-a6ad-03cb1afd20ef","58046770-4c03-4bc2-b4bc-e7359011db5d","","2066","
    <div style=""display: flex; justify-content: center; align-items: center;"">
      <img src=""images/red_deck_2.png"" style=""width: 300px; height: 300px; margin-right: 10px;"" />
      <img src=""images/blue_deck_1.png"" style=""width: 300px; height: 300px;"" />
    </div>","0","0"
"","","","","","html-keyboard-response","75","291375","0.0-75.0-0.0-0.0","F9C6927E180F4F3BBE33B5F5452635A9","e5f38a64-ce76-4547-a6ad-03cb1afd20ef","58046770-4c03-4bc2-b4bc-e7359011db5d","","null","<div style=""display: flex; justify-content: center; align-items: center;"">
                <img src=""images/causal/causal_series_12/causal_series_12_d.jpg"" style=""width: 300px; height: 300px;"" />
              </div>","null",""
"","","","","","html-keyboard-response","76","294397","0.0-76.0","F9C6927E180F4F3BBE33B5F5452635A9","e5f38a64-ce76-4547-a6ad-03cb1afd20ef","58046770-4c03-4bc2-b4bc-e7359011db5d","","null","<div style=""display: flex; justify-content: center; align-items: center;"">
                <img src=""images/other/blank.jpg"" style=""width: 300px; height: 300px;"" />
              </div>","null",""
"","","","","","html-keyboard-response","77","297419","0.0-77.0","F9C6927E180F4F3BBE33B5F5452635A9","e5f38a64-ce76-4547-a6ad-03cb1afd20ef","58046770-4c03-4bc2-b4bc-e7359011db5d","","null","<div style=""display: flex; justify-content: center; align-items: center;"">
                <img src=""images/causal/causal_series_14/causal_series_14_a.jpg"" style=""width: 300px; height: 300px;"" />
              </div>","null",""
"","","","","","html-keyboard-response","78","300438","0.0-78.0","F9C6927E180F4F3BBE33B5F5452635A9","e5f38a64-ce76-4547-a6ad-03cb1afd20ef","58046770-4c03-4bc2-b4bc-e7359011db5d","","null","<div style=""display: flex; justify-content: center; align-items: center;"">
                <img src=""images/causal/causal_series_14/causal_series_14_b.jpg"" style=""width: 300px; height: 300px;"" />
              </div>","null",""
"","","","","","html-keyboard-response","79","303449","0.0-79.0","F9C6927E180F4F3BBE33B5F5452635A9","e5f38a64-ce76-4547-a6ad-03cb1afd20ef","58046770-4c03-4bc2-b4bc-e7359011db5d","","null","<div style=""display: flex; justify-content: center; align-items: center;"">
                <img src=""images/causal/causal_series_14/causal_series_14_c.jpg"" style=""width: 300px; height: 300px;"" />
              </div>","null",""
"","","","","","html-button-response","80","305247","0.0-80.0","F9C6927E180F4F3BBE33B5F5452635A9","e5f38a64-ce76-4547-a6ad-03cb1afd20ef","58046770-4c03-4bc2-b4bc-e7359011db5d","","1796","
    <div style=""display: flex; justify-content: center; align-items: center;"">
      <img src=""images/red_deck_2.png"" style=""width: 300px; height: 300px; margin-right: 10px;"" />
      <img src=""images/blue_deck_1.png"" style=""width: 300px; height: 300px;"" />
    </div>","1","1"
"","","","","","html-keyboard-response","81","308251","0.0-81.0-1.0-0.0","F9C6927E180F4F3BBE33B5F5452635A9","e5f38a64-ce76-4547-a6ad-03cb1afd20ef","58046770-4c03-4bc2-b4bc-e7359011db5d","","null","<div style=""display: flex; justify-content: center; align-items: center;"">
                <img src=""images/semantic/semantic_series_13/semantic_series_13_d.jpg"" style=""width: 300px; height: 300px;"" />
              </div>","null",""
"","","","","","html-keyboard-response","82","311264","0.0-82.0","F9C6927E180F4F3BBE33B5F5452635A9","e5f38a64-ce76-4547-a6ad-03cb1afd20ef","58046770-4c03-4bc2-b4bc-e7359011db5d","","null","<div style=""display: flex; justify-content: center; align-items: center;"">
                <img src=""images/other/blank.jpg"" style=""width: 300px; height: 300px;"" />
              </div>","null",""
"","","","","","html-keyboard-response","83","314279","0.0-83.0","F9C6927E180F4F3BBE33B5F5452635A9","e5f38a64-ce76-4547-a6ad-03cb1afd20ef","58046770-4c03-4bc2-b4bc-e7359011db5d","","null","<div style=""display: flex; justify-content: center; align-items: center;"">
                <img src=""images/causal/causal_series_2/causal_series_2_a.jpg"" style=""width: 300px; height: 300px;"" />
              </div>","null",""
"","","","","","html-keyboard-response","84","317282","0.0-84.0","F9C6927E180F4F3BBE33B5F5452635A9","e5f38a64-ce76-4547-a6ad-03cb1afd20ef","58046770-4c03-4bc2-b4bc-e7359011db5d","","null","<div style=""display: flex; justify-content: center; align-items: center;"">
                <img src=""images/causal/causal_series_2/causal_series_2_b.jpg"" style=""width: 300px; height: 300px;"" />
              </div>","null",""
"","","","","","html-keyboard-response","85","320287","0.0-85.0","F9C6927E180F4F3BBE33B5F5452635A9","e5f38a64-ce76-4547-a6ad-03cb1afd20ef","58046770-4c03-4bc2-b4bc-e7359011db5d","","null","<div style=""display: flex; justify-content: center; align-items: center;"">
                <img src=""images/causal/causal_series_2/causal_series_2_c.jpg"" style=""width: 300px; height: 300px;"" />
              </div>","null",""
"","","","","","html-button-response","86","323012","0.0-86.0","F9C6927E180F4F3BBE33B5F5452635A9","e5f38a64-ce76-4547-a6ad-03cb1afd20ef","58046770-4c03-4bc2-b4bc-e7359011db5d","","2723","
    <div style=""display: flex; justify-content: center; align-items: center;"">
      <img src=""images/red_deck_2.png"" style=""width: 300px; height: 300px; margin-right: 10px;"" />
      <img src=""images/blue_deck_1.png"" style=""width: 300px; height: 300px;"" />
    </div>","0","0"
"","","","","","html-keyboard-response","87","326030","0.0-87.0-0.0-0.0","F9C6927E180F4F3BBE33B5F5452635A9","e5f38a64-ce76-4547-a6ad-03cb1afd20ef","58046770-4c03-4bc2-b4bc-e7359011db5d","","null","<div style=""display: flex; justify-content: center; align-items: center;"">
                <img src=""images/causal/causal_series_2/causal_series_2_d.jpg"" style=""width: 300px; height: 300px;"" />
              </div>","null",""
"","","","","","html-keyboard-response","88","329037","0.0-88.0","F9C6927E180F4F3BBE33B5F5452635A9","e5f38a64-ce76-4547-a6ad-03cb1afd20ef","58046770-4c03-4bc2-b4bc-e7359011db5d","","null","<div style=""display: flex; justify-content: center; align-items: center;"">
                <img src=""images/other/blank.jpg"" style=""width: 300px; height: 300px;"" />
              </div>","null",""
"","","","","","html-keyboard-response","89","332046","0.0-89.0","F9C6927E180F4F3BBE33B5F5452635A9","e5f38a64-ce76-4547-a6ad-03cb1afd20ef","58046770-4c03-4bc2-b4bc-e7359011db5d","","null","<div style=""display: flex; justify-content: center; align-items: center;"">
                <img src=""images/causal/causal_series_4/causal_series_4_a.jpg"" style=""width: 300px; height: 300px;"" />
              </div>","null",""
"","","","","","html-keyboard-response","90","335048","0.0-90.0","F9C6927E180F4F3BBE33B5F5452635A9","e5f38a64-ce76-4547-a6ad-03cb1afd20ef","58046770-4c03-4bc2-b4bc-e7359011db5d","","null","<div style=""display: flex; justify-content: center; align-items: center;"">
                <img src=""images/causal/causal_series_4/causal_series_4_b.jpg"" style=""width: 300px; height: 300px;"" />
              </div>","null",""
"","","","","","html-keyboard-response","91","338075","0.0-91.0","F9C6927E180F4F3BBE33B5F5452635A9","e5f38a64-ce76-4547-a6ad-03cb1afd20ef","58046770-4c03-4bc2-b4bc-e7359011db5d","","null","<div style=""display: flex; justify-content: center; align-items: center;"">
                <img src=""images/causal/causal_series_4/causal_series_4_c.jpg"" style=""width: 300px; height: 300px;"" />
              </div>","null",""
"","","","","","html-button-response","92","339899","0.0-92.0","F9C6927E180F4F3BBE33B5F5452635A9","e5f38a64-ce76-4547-a6ad-03cb1afd20ef","58046770-4c03-4bc2-b4bc-e7359011db5d","","1822","
    <div style=""display: flex; justify-content: center; align-items: center;"">
      <img src=""images/red_deck_2.png"" style=""width: 300px; height: 300px; margin-right: 10px;"" />
      <img src=""images/blue_deck_1.png"" style=""width: 300px; height: 300px;"" />
    </div>","1","1"
"","","","","","html-keyboard-response","93","342905","0.0-93.0-1.0-0.0","F9C6927E180F4F3BBE33B5F5452635A9","e5f38a64-ce76-4547-a6ad-03cb1afd20ef","58046770-4c03-4bc2-b4bc-e7359011db5d","","null","<div style=""display: flex; justify-content: center; align-items: center;"">
                <img src=""images/semantic/semantic_series_3/semantic_series_3_d.jpg"" style=""width: 300px; height: 300px;"" />
              </div>","null",""
"","","","","","html-keyboard-response","94","345941","0.0-94.0","F9C6927E180F4F3BBE33B5F5452635A9","e5f38a64-ce76-4547-a6ad-03cb1afd20ef","58046770-4c03-4bc2-b4bc-e7359011db5d","","null","<div style=""display: flex; justify-content: center; align-items: center;"">
                <img src=""images/other/blank.jpg"" style=""width: 300px; height: 300px;"" />
              </div>","null",""
"","","","","","html-keyboard-response","95","348957","0.0-95.0","F9C6927E180F4F3BBE33B5F5452635A9","e5f38a64-ce76-4547-a6ad-03cb1afd20ef","58046770-4c03-4bc2-b4bc-e7359011db5d","","null","<div style=""display: flex; justify-content: center; align-items: center;"">
                <img src=""images/causal/causal_series_11/causal_series_11_a.jpg"" style=""width: 300px; height: 300px;"" />
              </div>","null",""
"","","","","","html-keyboard-response","96","351971","0.0-96.0","F9C6927E180F4F3BBE33B5F5452635A9","e5f38a64-ce76-4547-a6ad-03cb1afd20ef","58046770-4c03-4bc2-b4bc-e7359011db5d","","null","<div style=""display: flex; justify-content: center; align-items: center;"">
                <img src=""images/causal/causal_series_11/causal_series_11_b.jpg"" style=""width: 300px; height: 300px;"" />
              </div>","null",""
"","","","","","html-keyboard-response","97","354983","0.0-97.0","F9C6927E180F4F3BBE33B5F5452635A9","e5f38a64-ce76-4547-a6ad-03cb1afd20ef","58046770-4c03-4bc2-b4bc-e7359011db5d","","null","<div style=""display: flex; justify-content: center; align-items: center;"">
                <img src=""images/causal/causal_series_11/causal_series_11_c.jpg"" style=""width: 300px; height: 300px;"" />
              </div>","null",""
"","","","","","html-button-response","98","356799","0.0-98.0","F9C6927E180F4F3BBE33B5F5452635A9","e5f38a64-ce76-4547-a6ad-03cb1afd20ef","58046770-4c03-4bc2-b4bc-e7359011db5d","","1813","
    <div style=""display: flex; justify-content: center; align-items: center;"">
      <img src=""images/red_deck_2.png"" style=""width: 300px; height: 300px; margin-right: 10px;"" />
      <img src=""images/blue_deck_1.png"" style=""width: 300px; height: 300px;"" />
    </div>","1","1"
"","","","","","html-keyboard-response","99","359813","0.0-99.0-1.0-0.0","F9C6927E180F4F3BBE33B5F5452635A9","e5f38a64-ce76-4547-a6ad-03cb1afd20ef","58046770-4c03-4bc2-b4bc-e7359011db5d","","null","<div style=""display: flex; justify-content: center; align-items: center;"">
                <img src=""images/semantic/semantic_series_10/semantic_series_10_d.jpg"" style=""width: 300px; height: 300px;"" />
              </div>","null",""
"","","","","","html-keyboard-response","100","362835","0.0-100.0","F9C6927E180F4F3BBE33B5F5452635A9","e5f38a64-ce76-4547-a6ad-03cb1afd20ef","58046770-4c03-4bc2-b4bc-e7359011db5d","","null","<div style=""display: flex; justify-content: center; align-items: center;"">
                <img src=""images/other/blank.jpg"" style=""width: 300px; height: 300px;"" />
              </div>","null",""
"","","","","","html-keyboard-response","101","365861","0.0-101.0","F9C6927E180F4F3BBE33B5F5452635A9","e5f38a64-ce76-4547-a6ad-03cb1afd20ef","58046770-4c03-4bc2-b4bc-e7359011db5d","","null","<div style=""display: flex; justify-content: center; align-items: center;"">
                <img src=""images/causal/causal_series_1/causal_series_1_a.jpg"" style=""width: 300px; height: 300px;"" />
              </div>","null",""
"","","","","","html-keyboard-response","102","368873","0.0-102.0","F9C6927E180F4F3BBE33B5F5452635A9","e5f38a64-ce76-4547-a6ad-03cb1afd20ef","58046770-4c03-4bc2-b4bc-e7359011db5d","","null","<div style=""display: flex; justify-content: center; align-items: center;"">
                <img src=""images/causal/causal_series_1/causal_series_1_b.jpg"" style=""width: 300px; height: 300px;"" />
              </div>","null",""
"","","","","","html-keyboard-response","103","371881","0.0-103.0","F9C6927E180F4F3BBE33B5F5452635A9","e5f38a64-ce76-4547-a6ad-03cb1afd20ef","58046770-4c03-4bc2-b4bc-e7359011db5d","","null","<div style=""display: flex; justify-content: center; align-items: center;"">
                <img src=""images/causal/causal_series_1/causal_series_1_c.jpg"" style=""width: 300px; height: 300px;"" />
              </div>","null",""
"","","","","","html-button-response","104","373557","0.0-104.0","F9C6927E180F4F3BBE33B5F5452635A9","e5f38a64-ce76-4547-a6ad-03cb1afd20ef","58046770-4c03-4bc2-b4bc-e7359011db5d","","1674","
    <div style=""display: flex; justify-content: center; align-items: center;"">
      <img src=""images/red_deck_2.png"" style=""width: 300px; height: 300px; margin-right: 10px;"" />
      <img src=""images/blue_deck_1.png"" style=""width: 300px; height: 300px;"" />
    </div>","1","1"
"","","","","","html-keyboard-response","105","376570","0.0-105.0-1.0-0.0","F9C6927E180F4F3BBE33B5F5452635A9","e5f38a64-ce76-4547-a6ad-03cb1afd20ef","58046770-4c03-4bc2-b4bc-e7359011db5d","","null","<div style=""display: flex; justify-content: center; align-items: center;"">
                <img src=""images/semantic/semantic_series_18/semantic_series_18_d.jpg"" style=""width: 300px; height: 300px;"" />
              </div>","null",""
"","","","","","html-keyboard-response","106","379586","0.0-106.0","F9C6927E180F4F3BBE33B5F5452635A9","e5f38a64-ce76-4547-a6ad-03cb1afd20ef","58046770-4c03-4bc2-b4bc-e7359011db5d","","null","<div style=""display: flex; justify-content: center; align-items: center;"">
                <img src=""images/other/blank.jpg"" style=""width: 300px; height: 300px;"" />
              </div>","null",""
"","","","","","html-keyboard-response","107","382592","0.0-107.0","F9C6927E180F4F3BBE33B5F5452635A9","e5f38a64-ce76-4547-a6ad-03cb1afd20ef","58046770-4c03-4bc2-b4bc-e7359011db5d","","null","<div style=""display: flex; justify-content: center; align-items: center;"">
                <img src=""images/causal/causal_series_7/causal_series_7_a.jpg"" style=""width: 300px; height: 300px;"" />
              </div>","null",""
"","","","","","html-keyboard-response","108","385593","0.0-108.0","F9C6927E180F4F3BBE33B5F5452635A9","e5f38a64-ce76-4547-a6ad-03cb1afd20ef","58046770-4c03-4bc2-b4bc-e7359011db5d","","null","<div style=""display: flex; justify-content: center; align-items: center;"">
                <img src=""images/causal/causal_series_7/causal_series_7_b.jpg"" style=""width: 300px; height: 300px;"" />
              </div>","null",""
"","","","","","html-keyboard-response","109","388601","0.0-109.0","F9C6927E180F4F3BBE33B5F5452635A9","e5f38a64-ce76-4547-a6ad-03cb1afd20ef","58046770-4c03-4bc2-b4bc-e7359011db5d","","null","<div style=""display: flex; justify-content: center; align-items: center;"">
                <img src=""images/causal/causal_series_7/causal_series_7_c.jpg"" style=""width: 300px; height: 300px;"" />
              </div>","null",""
"","","","","","html-button-response","110","390426","0.0-110.0","F9C6927E180F4F3BBE33B5F5452635A9","e5f38a64-ce76-4547-a6ad-03cb1afd20ef","58046770-4c03-4bc2-b4bc-e7359011db5d","","1823","
    <div style=""display: flex; justify-content: center; align-items: center;"">
      <img src=""images/red_deck_2.png"" style=""width: 300px; height: 300px; margin-right: 10px;"" />
      <img src=""images/blue_deck_1.png"" style=""width: 300px; height: 300px;"" />
    </div>","1","1"
"","","","","","html-keyboard-response","111","393438","0.0-111.0-1.0-0.0","F9C6927E180F4F3BBE33B5F5452635A9","e5f38a64-ce76-4547-a6ad-03cb1afd20ef","58046770-4c03-4bc2-b4bc-e7359011db5d","","null","<div style=""display: flex; justify-content: center; align-items: center;"">
                <img src=""images/semantic/semantic_series_6/semantic_series_6_d.jpg"" style=""width: 300px; height: 300px;"" />
              </div>","null",""
"","","","","","html-keyboard-response","112","396452","0.0-112.0","F9C6927E180F4F3BBE33B5F5452635A9","e5f38a64-ce76-4547-a6ad-03cb1afd20ef","58046770-4c03-4bc2-b4bc-e7359011db5d","","null","<div style=""display: flex; justify-content: center; align-items: center;"">
                <img src=""images/other/blank.jpg"" style=""width: 300px; height: 300px;"" />
              </div>","null",""
"","","","","","survey-text","113","409857","0.0-113.0","F9C6927E180F4F3BBE33B5F5452635A9","e5f38a64-ce76-4547-a6ad-03cb1afd20ef","58046770-4c03-4bc2-b4bc-e7359011db5d","","13396","","{""Q0"":""One is blue the other is red""}",""
"","","","","","survey-text","114","418175","0.0-114.0","F9C6927E180F4F3BBE33B5F5452635A9","e5f38a64-ce76-4547-a6ad-03cb1afd20ef","58046770-4c03-4bc2-b4bc-e7359011db5d","","8306","","{""Q0"":""Red""}",""
"","","","","","html-button-response","115","428205","0.0-115.0","F9C6927E180F4F3BBE33B5F5452635A9","e5f38a64-ce76-4547-a6ad-03cb1afd20ef","58046770-4c03-4bc2-b4bc-e7359011db5d","","10028","Which color deck does the fourth image continue the story from the series?","1",""
"","","","","","html-button-response","116","430979","0.0-116.0","F9C6927E180F4F3BBE33B5F5452635A9","e5f38a64-ce76-4547-a6ad-03cb1afd20ef","58046770-4c03-4bc2-b4bc-e7359011db5d","","2771","Which color deck does the fourth image not follow the story from the series?","0",""
"","","","","","survey-text","117","442949","0.0-117.0","F9C6927E180F4F3BBE33B5F5452635A9","e5f38a64-ce76-4547-a6ad-03cb1afd20ef","58046770-4c03-4bc2-b4bc-e7359011db5d","","11960","","{""Q0"":""FEMALE"",""Q1"":""27""}",""
"","","","","","instructions","118","448789","0.0-118.0","F9C6927E180F4F3BBE33B5F5452635A9","e5f38a64-ce76-4547-a6ad-03cb1afd20ef","58046770-4c03-4bc2-b4bc-e7359011db5d","[{""page_index"":0,""viewing_time"":5839}]","5839","","",""
