"success","timeout","failed_images","failed_audio","failed_video","trial_type","trial_index","time_elapsed","internal_node_id","subject_id","study_id","session_id","view_history","rt","stimulus","response","choice"
"true","false","[]","[]","[]","preload","0","17101","0.0-0.0","513A7F9A45474E9697ABB88B2D2E10CE","8ffe48c3-d02d-40af-a5e7-09f540190e8c","69eaecea-d702-4a95-85ee-7e48a56e64ce","","","","",""
"","","","","","instructions","1","21675","0.0-1.0","513A7F9A45474E9697ABB88B2D2E10CE","8ffe48c3-d02d-40af-a5e7-09f540190e8c","69eaecea-d702-4a95-85ee-7e48a56e64ce","[{""page_index"":0,""viewing_time"":4567}]","4568","","",""
"","","","","","instructions","2","43101","0.0-2.0","513A7F9A45474E9697ABB88B2D2E10CE","8ffe48c3-d02d-40af-a5e7-09f540190e8c","69eaecea-d702-4a95-85ee-7e48a56e64ce","[{""page_index"":0,""viewing_time"":21421}]","21422","","",""
"true","","","","","fullscreen","3","46233","0.0-3.0","513A7F9A45474E9697ABB88B2D2E10CE","8ffe48c3-d02d-40af-a5e7-09f540190e8c","69eaecea-d702-4a95-85ee-7e48a56e64ce","","2128","","",""
"","","","","","instructions","4","101324","0.0-4.0","513A7F9A45474E9697ABB88B2D2E10CE","8ffe48c3-d02d-40af-a5e7-09f540190e8c","69eaecea-d702-4a95-85ee-7e48a56e64ce","[{""page_index"":0,""viewing_time"":55087}]","55089","","",""
"","","","","","html-keyboard-response","5","104332","0.0-5.0","513A7F9A45474E9697ABB88B2D2E10CE","8ffe48c3-d02d-40af-a5e7-09f540190e8c","69eaecea-d702-4a95-85ee-7e48a56e64ce","","null","<div style=""display: flex; justify-content: center; align-items: center;"">
                <img src=""images/causal/causal_series_14/causal_series_14_a.jpg"" style=""width: 300px; height: 300px;"" />
              </div>","null",""
"","","","","","html-keyboard-response","6","107334","0.0-6.0","513A7F9A45474E9697ABB88B2D2E10CE","8ffe48c3-d02d-40af-a5e7-09f540190e8c","69eaecea-d702-4a95-85ee-7e48a56e64ce","","null","<div style=""display: flex; justify-content: center; align-items: center;"">
                <img src=""images/causal/causal_series_14/causal_series_14_b.jpg"" style=""width: 300px; height: 300px;"" />
              </div>","null",""
"","","","","","html-keyboard-response","7","110337","0.0-7.0","513A7F9A45474E9697ABB88B2D2E10CE","8ffe48c3-d02d-40af-a5e7-09f540190e8c","69eaecea-d702-4a95-85ee-7e48a56e64ce","","null","<div style=""display: flex; justify-content: center; align-items: center;"">
                <img src=""images/causal/causal_series_14/causal_series_14_c.jpg"" style=""width: 300px; height: 300px;"" />
              </div>","null",""
"","","","","","html-button-response","8","130471","0.0-8.0","513A7F9A45474E9697ABB88B2D2E10CE","8ffe48c3-d02d-40af-a5e7-09f540190e8c","69eaecea-d702-4a95-85ee-7e48a56e64ce","","20126","
    <div style=""display: flex; justify-content: center; align-items: center;"">
      <img src=""images/red_deck_2.png"" style=""width: 300px; height: 300px; margin-right: 10px;"" />
      <img src=""images/blue_deck_1.png"" style=""width: 300px; height: 300px;"" />
    </div>","1","1"
"","","","","","html-keyboard-response","9","133475","0.0-9.0-1.0-0.0","513A7F9A45474E9697ABB88B2D2E10CE","8ffe48c3-d02d-40af-a5e7-09f540190e8c","69eaecea-d702-4a95-85ee-7e48a56e64ce","","null","<div style=""display: flex; justify-content: center; align-items: center;"">
                <img src=""images/semantic/semantic_series_13/semantic_series_13_d.jpg"" style=""width: 300px; height: 300px;"" />
              </div>","null",""
"","","","","","html-keyboard-response","10","136478","0.0-10.0","513A7F9A45474E9697ABB88B2D2E10CE","8ffe48c3-d02d-40af-a5e7-09f540190e8c","69eaecea-d702-4a95-85ee-7e48a56e64ce","","null","<div style=""display: flex; justify-content: center; align-items: center;"">
                <img src=""images/other/blank.jpg"" style=""width: 300px; height: 300px;"" />
              </div>","null",""
"","","","","","html-keyboard-response","11","139480","0.0-11.0","513A7F9A45474E9697ABB88B2D2E10CE","8ffe48c3-d02d-40af-a5e7-09f540190e8c","69eaecea-d702-4a95-85ee-7e48a56e64ce","","null","<div style=""display: flex; justify-content: center; align-items: center;"">
                <img src=""images/causal/causal_series_4/causal_series_4_a.jpg"" style=""width: 300px; height: 300px;"" />
              </div>","null",""
"","","","","","html-keyboard-response","12","142483","0.0-12.0","513A7F9A45474E9697ABB88B2D2E10CE","8ffe48c3-d02d-40af-a5e7-09f540190e8c","69eaecea-d702-4a95-85ee-7e48a56e64ce","","null","<div style=""display: flex; justify-content: center; align-items: center;"">
                <img src=""images/causal/causal_series_4/causal_series_4_b.jpg"" style=""width: 300px; height: 300px;"" />
              </div>","null",""
"","","","","","html-keyboard-response","13","145486","0.0-13.0","513A7F9A45474E9697ABB88B2D2E10CE","8ffe48c3-d02d-40af-a5e7-09f540190e8c","69eaecea-d702-4a95-85ee-7e48a56e64ce","","null","<div style=""display: flex; justify-content: center; align-items: center;"">
                <img src=""images/causal/causal_series_4/causal_series_4_c.jpg"" style=""width: 300px; height: 300px;"" />
              </div>","null",""
"","","","","","html-button-response","14","150370","0.0-14.0","513A7F9A45474E9697ABB88B2D2E10CE","8ffe48c3-d02d-40af-a5e7-09f540190e8c","69eaecea-d702-4a95-85ee-7e48a56e64ce","","4881","
    <div style=""display: flex; justify-content: center; align-items: center;"">
      <img src=""images/red_deck_2.png"" style=""width: 300px; height: 300px; margin-right: 10px;"" />
      <img src=""images/blue_deck_1.png"" style=""width: 300px; height: 300px;"" />
    </div>","0","0"
"","","","","","html-keyboard-response","15","153374","0.0-15.0-0.0-0.0","513A7F9A45474E9697ABB88B2D2E10CE","8ffe48c3-d02d-40af-a5e7-09f540190e8c","69eaecea-d702-4a95-85ee-7e48a56e64ce","","null","<div style=""display: flex; justify-content: center; align-items: center;"">
                <img src=""images/causal/causal_series_4/causal_series_4_d.jpg"" style=""width: 300px; height: 300px;"" />
              </div>","null",""
"","","","","","html-keyboard-response","16","156377","0.0-16.0","513A7F9A45474E9697ABB88B2D2E10CE","8ffe48c3-d02d-40af-a5e7-09f540190e8c","69eaecea-d702-4a95-85ee-7e48a56e64ce","","null","<div style=""display: flex; justify-content: center; align-items: center;"">
                <img src=""images/other/blank.jpg"" style=""width: 300px; height: 300px;"" />
              </div>","null",""
"","","","","","html-keyboard-response","17","159382","0.0-17.0","513A7F9A45474E9697ABB88B2D2E10CE","8ffe48c3-d02d-40af-a5e7-09f540190e8c","69eaecea-d702-4a95-85ee-7e48a56e64ce","","null","<div style=""display: flex; justify-content: center; align-items: center;"">
                <img src=""images/causal/causal_series_10/causal_series_10_a.jpg"" style=""width: 300px; height: 300px;"" />
              </div>","null",""
"","","","","","html-keyboard-response","18","162384","0.0-18.0","513A7F9A45474E9697ABB88B2D2E10CE","8ffe48c3-d02d-40af-a5e7-09f540190e8c","69eaecea-d702-4a95-85ee-7e48a56e64ce","","null","<div style=""display: flex; justify-content: center; align-items: center;"">
                <img src=""images/causal/causal_series_10/causal_series_10_b.jpg"" style=""width: 300px; height: 300px;"" />
              </div>","null",""
"","","","","","html-keyboard-response","19","165386","0.0-19.0","513A7F9A45474E9697ABB88B2D2E10CE","8ffe48c3-d02d-40af-a5e7-09f540190e8c","69eaecea-d702-4a95-85ee-7e48a56e64ce","","null","<div style=""display: flex; justify-content: center; align-items: center;"">
                <img src=""images/causal/causal_series_10/causal_series_10_c.jpg"" style=""width: 300px; height: 300px;"" />
              </div>","null",""
"","","","","","html-button-response","20","167537","0.0-20.0","513A7F9A45474E9697ABB88B2D2E10CE","8ffe48c3-d02d-40af-a5e7-09f540190e8c","69eaecea-d702-4a95-85ee-7e48a56e64ce","","2147","
    <div style=""display: flex; justify-content: center; align-items: center;"">
      <img src=""images/red_deck_2.png"" style=""width: 300px; height: 300px; margin-right: 10px;"" />
      <img src=""images/blue_deck_1.png"" style=""width: 300px; height: 300px;"" />
    </div>","0","0"
"","","","","","html-keyboard-response","21","170542","0.0-21.0-0.0-0.0","513A7F9A45474E9697ABB88B2D2E10CE","8ffe48c3-d02d-40af-a5e7-09f540190e8c","69eaecea-d702-4a95-85ee-7e48a56e64ce","","null","<div style=""display: flex; justify-content: center; align-items: center;"">
                <img src=""images/causal/causal_series_10/causal_series_10_d.jpg"" style=""width: 300px; height: 300px;"" />
              </div>","null",""
"","","","","","html-keyboard-response","22","173543","0.0-22.0","513A7F9A45474E9697ABB88B2D2E10CE","8ffe48c3-d02d-40af-a5e7-09f540190e8c","69eaecea-d702-4a95-85ee-7e48a56e64ce","","null","<div style=""display: flex; justify-content: center; align-items: center;"">
                <img src=""images/other/blank.jpg"" style=""width: 300px; height: 300px;"" />
              </div>","null",""
"","","","","","html-keyboard-response","23","176545","0.0-23.0","513A7F9A45474E9697ABB88B2D2E10CE","8ffe48c3-d02d-40af-a5e7-09f540190e8c","69eaecea-d702-4a95-85ee-7e48a56e64ce","","null","<div style=""display: flex; justify-content: center; align-items: center;"">
                <img src=""images/causal/causal_series_15/causal_series_15_a.jpg"" style=""width: 300px; height: 300px;"" />
              </div>","null",""
"","","","","","html-keyboard-response","24","179547","0.0-24.0","513A7F9A45474E9697ABB88B2D2E10CE","8ffe48c3-d02d-40af-a5e7-09f540190e8c","69eaecea-d702-4a95-85ee-7e48a56e64ce","","null","<div style=""display: flex; justify-content: center; align-items: center;"">
                <img src=""images/causal/causal_series_15/causal_series_15_b.jpg"" style=""width: 300px; height: 300px;"" />
              </div>","null",""
"","","","","","html-keyboard-response","25","182550","0.0-25.0","513A7F9A45474E9697ABB88B2D2E10CE","8ffe48c3-d02d-40af-a5e7-09f540190e8c","69eaecea-d702-4a95-85ee-7e48a56e64ce","","null","<div style=""display: flex; justify-content: center; align-items: center;"">
                <img src=""images/causal/causal_series_15/causal_series_15_c.jpg"" style=""width: 300px; height: 300px;"" />
              </div>","null",""
"","","","","","html-button-response","26","186701","0.0-26.0","513A7F9A45474E9697ABB88B2D2E10CE","8ffe48c3-d02d-40af-a5e7-09f540190e8c","69eaecea-d702-4a95-85ee-7e48a56e64ce","","4146","
    <div style=""display: flex; justify-content: center; align-items: center;"">
      <img src=""images/red_deck_2.png"" style=""width: 300px; height: 300px; margin-right: 10px;"" />
      <img src=""images/blue_deck_1.png"" style=""width: 300px; height: 300px;"" />
    </div>","0","0"
"","","","","","html-keyboard-response","27","189704","0.0-27.0-0.0-0.0","513A7F9A45474E9697ABB88B2D2E10CE","8ffe48c3-d02d-40af-a5e7-09f540190e8c","69eaecea-d702-4a95-85ee-7e48a56e64ce","","null","<div style=""display: flex; justify-content: center; align-items: center;"">
                <img src=""images/causal/causal_series_15/causal_series_15_d.jpg"" style=""width: 300px; height: 300px;"" />
              </div>","null",""
"","","","","","html-keyboard-response","28","192707","0.0-28.0","513A7F9A45474E9697ABB88B2D2E10CE","8ffe48c3-d02d-40af-a5e7-09f540190e8c","69eaecea-d702-4a95-85ee-7e48a56e64ce","","null","<div style=""display: flex; justify-content: center; align-items: center;"">
                <img src=""images/other/blank.jpg"" style=""width: 300px; height: 300px;"" />
              </div>","null",""
"","","","","","html-keyboard-response","29","195708","0.0-29.0","513A7F9A45474E9697ABB88B2D2E10CE","8ffe48c3-d02d-40af-a5e7-09f540190e8c","69eaecea-d702-4a95-85ee-7e48a56e64ce","","null","<div style=""display: flex; justify-content: center; align-items: center;"">
                <img src=""images/causal/causal_series_11/causal_series_11_a.jpg"" style=""width: 300px; height: 300px;"" />
              </div>","null",""
"","","","","","html-keyboard-response","30","198710","0.0-30.0","513A7F9A45474E9697ABB88B2D2E10CE","8ffe48c3-d02d-40af-a5e7-09f540190e8c","69eaecea-d702-4a95-85ee-7e48a56e64ce","","null","<div style=""display: flex; justify-content: center; align-items: center;"">
                <img src=""images/causal/causal_series_11/causal_series_11_b.jpg"" style=""width: 300px; height: 300px;"" />
              </div>","null",""
"","","","","","html-keyboard-response","31","201712","0.0-31.0","513A7F9A45474E9697ABB88B2D2E10CE","8ffe48c3-d02d-40af-a5e7-09f540190e8c","69eaecea-d702-4a95-85ee-7e48a56e64ce","","null","<div style=""display: flex; justify-content: center; align-items: center;"">
                <img src=""images/causal/causal_series_11/causal_series_11_c.jpg"" style=""width: 300px; height: 300px;"" />
              </div>","null",""
"","","","","","html-button-response","32","203689","0.0-32.0","513A7F9A45474E9697ABB88B2D2E10CE","8ffe48c3-d02d-40af-a5e7-09f540190e8c","69eaecea-d702-4a95-85ee-7e48a56e64ce","","1973","
    <div style=""display: flex; justify-content: center; align-items: center;"">
      <img src=""images/red_deck_2.png"" style=""width: 300px; height: 300px; margin-right: 10px;"" />
      <img src=""images/blue_deck_1.png"" style=""width: 300px; height: 300px;"" />
    </div>","0","0"
"","","","","","html-keyboard-response","33","206692","0.0-33.0-0.0-0.0","513A7F9A45474E9697ABB88B2D2E10CE","8ffe48c3-d02d-40af-a5e7-09f540190e8c","69eaecea-d702-4a95-85ee-7e48a56e64ce","","null","<div style=""display: flex; justify-content: center; align-items: center;"">
                <img src=""images/causal/causal_series_11/causal_series_11_d.jpg"" style=""width: 300px; height: 300px;"" />
              </div>","null",""
"","","","","","html-keyboard-response","34","209695","0.0-34.0","513A7F9A45474E9697ABB88B2D2E10CE","8ffe48c3-d02d-40af-a5e7-09f540190e8c","69eaecea-d702-4a95-85ee-7e48a56e64ce","","null","<div style=""display: flex; justify-content: center; align-items: center;"">
                <img src=""images/other/blank.jpg"" style=""width: 300px; height: 300px;"" />
              </div>","null",""
"","","","","","html-keyboard-response","35","212696","0.0-35.0","513A7F9A45474E9697ABB88B2D2E10CE","8ffe48c3-d02d-40af-a5e7-09f540190e8c","69eaecea-d702-4a95-85ee-7e48a56e64ce","","null","<div style=""display: flex; justify-content: center; align-items: center;"">
                <img src=""images/causal/causal_series_16/causal_series_16_a.jpg"" style=""width: 300px; height: 300px;"" />
              </div>","null",""
"","","","","","html-keyboard-response","36","215699","0.0-36.0","513A7F9A45474E9697ABB88B2D2E10CE","8ffe48c3-d02d-40af-a5e7-09f540190e8c","69eaecea-d702-4a95-85ee-7e48a56e64ce","","null","<div style=""display: flex; justify-content: center; align-items: center;"">
                <img src=""images/causal/causal_series_16/causal_series_16_b.jpg"" style=""width: 300px; height: 300px;"" />
              </div>","null",""
"","","","","","html-keyboard-response","37","218701","0.0-37.0","513A7F9A45474E9697ABB88B2D2E10CE","8ffe48c3-d02d-40af-a5e7-09f540190e8c","69eaecea-d702-4a95-85ee-7e48a56e64ce","","null","<div style=""display: flex; justify-content: center; align-items: center;"">
                <img src=""images/causal/causal_series_16/causal_series_16_c.jpg"" style=""width: 300px; height: 300px;"" />
              </div>","null",""
"","","","","","html-button-response","38","223351","0.0-38.0","513A7F9A45474E9697ABB88B2D2E10CE","8ffe48c3-d02d-40af-a5e7-09f540190e8c","69eaecea-d702-4a95-85ee-7e48a56e64ce","","4648","
    <div style=""display: flex; justify-content: center; align-items: center;"">
      <img src=""images/red_deck_2.png"" style=""width: 300px; height: 300px; margin-right: 10px;"" />
      <img src=""images/blue_deck_1.png"" style=""width: 300px; height: 300px;"" />
    </div>","0","0"
"","","","","","html-keyboard-response","39","226354","0.0-39.0-0.0-0.0","513A7F9A45474E9697ABB88B2D2E10CE","8ffe48c3-d02d-40af-a5e7-09f540190e8c","69eaecea-d702-4a95-85ee-7e48a56e64ce","","null","<div style=""display: flex; justify-content: center; align-items: center;"">
                <img src=""images/causal/causal_series_16/causal_series_16_d.jpg"" style=""width: 300px; height: 300px;"" />
              </div>","null",""
"","","","","","html-keyboard-response","40","229357","0.0-40.0","513A7F9A45474E9697ABB88B2D2E10CE","8ffe48c3-d02d-40af-a5e7-09f540190e8c","69eaecea-d702-4a95-85ee-7e48a56e64ce","","null","<div style=""display: flex; justify-content: center; align-items: center;"">
                <img src=""images/other/blank.jpg"" style=""width: 300px; height: 300px;"" />
              </div>","null",""
"","","","","","html-keyboard-response","41","232360","0.0-41.0","513A7F9A45474E9697ABB88B2D2E10CE","8ffe48c3-d02d-40af-a5e7-09f540190e8c","69eaecea-d702-4a95-85ee-7e48a56e64ce","","null","<div style=""display: flex; justify-content: center; align-items: center;"">
                <img src=""images/causal/causal_series_6/causal_series_6_a.jpg"" style=""width: 300px; height: 300px;"" />
              </div>","null",""
"","","","","","html-keyboard-response","42","235362","0.0-42.0","513A7F9A45474E9697ABB88B2D2E10CE","8ffe48c3-d02d-40af-a5e7-09f540190e8c","69eaecea-d702-4a95-85ee-7e48a56e64ce","","null","<div style=""display: flex; justify-content: center; align-items: center;"">
                <img src=""images/causal/causal_series_6/causal_series_6_b.jpg"" style=""width: 300px; height: 300px;"" />
              </div>","null",""
"","","","","","html-keyboard-response","43","238364","0.0-43.0","513A7F9A45474E9697ABB88B2D2E10CE","8ffe48c3-d02d-40af-a5e7-09f540190e8c","69eaecea-d702-4a95-85ee-7e48a56e64ce","","null","<div style=""display: flex; justify-content: center; align-items: center;"">
                <img src=""images/causal/causal_series_6/causal_series_6_c.jpg"" style=""width: 300px; height: 300px;"" />
              </div>","null",""
"","","","","","html-button-response","44","240134","0.0-44.0","513A7F9A45474E9697ABB88B2D2E10CE","8ffe48c3-d02d-40af-a5e7-09f540190e8c","69eaecea-d702-4a95-85ee-7e48a56e64ce","","1765","
    <div style=""display: flex; justify-content: center; align-items: center;"">
      <img src=""images/red_deck_2.png"" style=""width: 300px; height: 300px; margin-right: 10px;"" />
      <img src=""images/blue_deck_1.png"" style=""width: 300px; height: 300px;"" />
    </div>","1","1"
"","","","","","html-keyboard-response","45","243137","0.0-45.0-1.0-0.0","513A7F9A45474E9697ABB88B2D2E10CE","8ffe48c3-d02d-40af-a5e7-09f540190e8c","69eaecea-d702-4a95-85ee-7e48a56e64ce","","null","<div style=""display: flex; justify-content: center; align-items: center;"">
                <img src=""images/semantic/semantic_series_5/semantic_series_5_d.jpg"" style=""width: 300px; height: 300px;"" />
              </div>","null",""
"","","","","","html-keyboard-response","46","246139","0.0-46.0","513A7F9A45474E9697ABB88B2D2E10CE","8ffe48c3-d02d-40af-a5e7-09f540190e8c","69eaecea-d702-4a95-85ee-7e48a56e64ce","","null","<div style=""display: flex; justify-content: center; align-items: center;"">
                <img src=""images/other/blank.jpg"" style=""width: 300px; height: 300px;"" />
              </div>","null",""
"","","","","","html-keyboard-response","47","249141","0.0-47.0","513A7F9A45474E9697ABB88B2D2E10CE","8ffe48c3-d02d-40af-a5e7-09f540190e8c","69eaecea-d702-4a95-85ee-7e48a56e64ce","","null","<div style=""display: flex; justify-content: center; align-items: center;"">
                <img src=""images/causal/causal_series_18/causal_series_18_a.jpg"" style=""width: 300px; height: 300px;"" />
              </div>","null",""
"","","","","","html-keyboard-response","48","252143","0.0-48.0","513A7F9A45474E9697ABB88B2D2E10CE","8ffe48c3-d02d-40af-a5e7-09f540190e8c","69eaecea-d702-4a95-85ee-7e48a56e64ce","","null","<div style=""display: flex; justify-content: center; align-items: center;"">
                <img src=""images/causal/causal_series_18/causal_series_18_b.jpg"" style=""width: 300px; height: 300px;"" />
              </div>","null",""
"","","","","","html-keyboard-response","49","255145","0.0-49.0","513A7F9A45474E9697ABB88B2D2E10CE","8ffe48c3-d02d-40af-a5e7-09f540190e8c","69eaecea-d702-4a95-85ee-7e48a56e64ce","","null","<div style=""display: flex; justify-content: center; align-items: center;"">
                <img src=""images/causal/causal_series_18/causal_series_18_c.jpg"" style=""width: 300px; height: 300px;"" />
              </div>","null",""
"","","","","","html-button-response","50","256806","0.0-50.0","513A7F9A45474E9697ABB88B2D2E10CE","8ffe48c3-d02d-40af-a5e7-09f540190e8c","69eaecea-d702-4a95-85ee-7e48a56e64ce","","1658","
    <div style=""display: flex; justify-content: center; align-items: center;"">
      <img src=""images/red_deck_2.png"" style=""width: 300px; height: 300px; margin-right: 10px;"" />
      <img src=""images/blue_deck_1.png"" style=""width: 300px; height: 300px;"" />
    </div>","0","0"
"","","","","","html-keyboard-response","51","259808","0.0-51.0-0.0-0.0","513A7F9A45474E9697ABB88B2D2E10CE","8ffe48c3-d02d-40af-a5e7-09f540190e8c","69eaecea-d702-4a95-85ee-7e48a56e64ce","","null","<div style=""display: flex; justify-content: center; align-items: center;"">
                <img src=""images/causal/causal_series_18/causal_series_18_d.jpg"" style=""width: 300px; height: 300px;"" />
              </div>","null",""
"","","","","","html-keyboard-response","52","262811","0.0-52.0","513A7F9A45474E9697ABB88B2D2E10CE","8ffe48c3-d02d-40af-a5e7-09f540190e8c","69eaecea-d702-4a95-85ee-7e48a56e64ce","","null","<div style=""display: flex; justify-content: center; align-items: center;"">
                <img src=""images/other/blank.jpg"" style=""width: 300px; height: 300px;"" />
              </div>","null",""
"","","","","","html-keyboard-response","53","265814","0.0-53.0","513A7F9A45474E9697ABB88B2D2E10CE","8ffe48c3-d02d-40af-a5e7-09f540190e8c","69eaecea-d702-4a95-85ee-7e48a56e64ce","","null","<div style=""display: flex; justify-content: center; align-items: center;"">
                <img src=""images/causal/causal_series_5/causal_series_5_a.jpg"" style=""width: 300px; height: 300px;"" />
              </div>","null",""
"","","","","","html-keyboard-response","54","268817","0.0-54.0","513A7F9A45474E9697ABB88B2D2E10CE","8ffe48c3-d02d-40af-a5e7-09f540190e8c","69eaecea-d702-4a95-85ee-7e48a56e64ce","","null","<div style=""display: flex; justify-content: center; align-items: center;"">
                <img src=""images/causal/causal_series_5/causal_series_5_b.jpg"" style=""width: 300px; height: 300px;"" />
              </div>","null",""
"","","","","","html-keyboard-response","55","271819","0.0-55.0","513A7F9A45474E9697ABB88B2D2E10CE","8ffe48c3-d02d-40af-a5e7-09f540190e8c","69eaecea-d702-4a95-85ee-7e48a56e64ce","","null","<div style=""display: flex; justify-content: center; align-items: center;"">
                <img src=""images/causal/causal_series_5/causal_series_5_c.jpg"" style=""width: 300px; height: 300px;"" />
              </div>","null",""
"","","","","","html-button-response","56","273642","0.0-56.0","513A7F9A45474E9697ABB88B2D2E10CE","8ffe48c3-d02d-40af-a5e7-09f540190e8c","69eaecea-d702-4a95-85ee-7e48a56e64ce","","1819","
    <div style=""display: flex; justify-content: center; align-items: center;"">
      <img src=""images/red_deck_2.png"" style=""width: 300px; height: 300px; margin-right: 10px;"" />
      <img src=""images/blue_deck_1.png"" style=""width: 300px; height: 300px;"" />
    </div>","0","0"
"","","","","","html-keyboard-response","57","276646","0.0-57.0-0.0-0.0","513A7F9A45474E9697ABB88B2D2E10CE","8ffe48c3-d02d-40af-a5e7-09f540190e8c","69eaecea-d702-4a95-85ee-7e48a56e64ce","","null","<div style=""display: flex; justify-content: center; align-items: center;"">
                <img src=""images/causal/causal_series_5/causal_series_5_d.jpg"" style=""width: 300px; height: 300px;"" />
              </div>","null",""
"","","","","","html-keyboard-response","58","279649","0.0-58.0","513A7F9A45474E9697ABB88B2D2E10CE","8ffe48c3-d02d-40af-a5e7-09f540190e8c","69eaecea-d702-4a95-85ee-7e48a56e64ce","","null","<div style=""display: flex; justify-content: center; align-items: center;"">
                <img src=""images/other/blank.jpg"" style=""width: 300px; height: 300px;"" />
              </div>","null",""
"","","","","","html-keyboard-response","59","282651","0.0-59.0","513A7F9A45474E9697ABB88B2D2E10CE","8ffe48c3-d02d-40af-a5e7-09f540190e8c","69eaecea-d702-4a95-85ee-7e48a56e64ce","","null","<div style=""display: flex; justify-content: center; align-items: center;"">
                <img src=""images/causal/causal_series_1/causal_series_1_a.jpg"" style=""width: 300px; height: 300px;"" />
              </div>","null",""
"","","","","","html-keyboard-response","60","285653","0.0-60.0","513A7F9A45474E9697ABB88B2D2E10CE","8ffe48c3-d02d-40af-a5e7-09f540190e8c","69eaecea-d702-4a95-85ee-7e48a56e64ce","","null","<div style=""display: flex; justify-content: center; align-items: center;"">
                <img src=""images/causal/causal_series_1/causal_series_1_b.jpg"" style=""width: 300px; height: 300px;"" />
              </div>","null",""
"","","","","","html-keyboard-response","61","288655","0.0-61.0","513A7F9A45474E9697ABB88B2D2E10CE","8ffe48c3-d02d-40af-a5e7-09f540190e8c","69eaecea-d702-4a95-85ee-7e48a56e64ce","","null","<div style=""display: flex; justify-content: center; align-items: center;"">
                <img src=""images/causal/causal_series_1/causal_series_1_c.jpg"" style=""width: 300px; height: 300px;"" />
              </div>","null",""
"","","","","","html-button-response","62","289476","0.0-62.0","513A7F9A45474E9697ABB88B2D2E10CE","8ffe48c3-d02d-40af-a5e7-09f540190e8c","69eaecea-d702-4a95-85ee-7e48a56e64ce","","816","
    <div style=""display: flex; justify-content: center; align-items: center;"">
      <img src=""images/red_deck_2.png"" style=""width: 300px; height: 300px; margin-right: 10px;"" />
      <img src=""images/blue_deck_1.png"" style=""width: 300px; height: 300px;"" />
    </div>","0","0"
"","","","","","html-keyboard-response","63","292480","0.0-63.0-0.0-0.0","513A7F9A45474E9697ABB88B2D2E10CE","8ffe48c3-d02d-40af-a5e7-09f540190e8c","69eaecea-d702-4a95-85ee-7e48a56e64ce","","null","<div style=""display: flex; justify-content: center; align-items: center;"">
                <img src=""images/causal/causal_series_1/causal_series_1_d.jpg"" style=""width: 300px; height: 300px;"" />
              </div>","null",""
"","","","","","html-keyboard-response","64","295482","0.0-64.0","513A7F9A45474E9697ABB88B2D2E10CE","8ffe48c3-d02d-40af-a5e7-09f540190e8c","69eaecea-d702-4a95-85ee-7e48a56e64ce","","null","<div style=""display: flex; justify-content: center; align-items: center;"">
                <img src=""images/other/blank.jpg"" style=""width: 300px; height: 300px;"" />
              </div>","null",""
"","","","","","html-keyboard-response","65","298485","0.0-65.0","513A7F9A45474E9697ABB88B2D2E10CE","8ffe48c3-d02d-40af-a5e7-09f540190e8c","69eaecea-d702-4a95-85ee-7e48a56e64ce","","null","<div style=""display: flex; justify-content: center; align-items: center;"">
                <img src=""images/causal/causal_series_13/causal_series_13_a.jpg"" style=""width: 300px; height: 300px;"" />
              </div>","null",""
"","","","","","html-keyboard-response","66","301487","0.0-66.0","513A7F9A45474E9697ABB88B2D2E10CE","8ffe48c3-d02d-40af-a5e7-09f540190e8c","69eaecea-d702-4a95-85ee-7e48a56e64ce","","null","<div style=""display: flex; justify-content: center; align-items: center;"">
                <img src=""images/causal/causal_series_13/causal_series_13_b.jpg"" style=""width: 300px; height: 300px;"" />
              </div>","null",""
"","","","","","html-keyboard-response","67","304489","0.0-67.0","513A7F9A45474E9697ABB88B2D2E10CE","8ffe48c3-d02d-40af-a5e7-09f540190e8c","69eaecea-d702-4a95-85ee-7e48a56e64ce","","null","<div style=""display: flex; justify-content: center; align-items: center;"">
                <img src=""images/causal/causal_series_13/causal_series_13_c.jpg"" style=""width: 300px; height: 300px;"" />
              </div>","null",""
"","","","","","html-button-response","68","305251","0.0-68.0","513A7F9A45474E9697ABB88B2D2E10CE","8ffe48c3-d02d-40af-a5e7-09f540190e8c","69eaecea-d702-4a95-85ee-7e48a56e64ce","","759","
    <div style=""display: flex; justify-content: center; align-items: center;"">
      <img src=""images/red_deck_2.png"" style=""width: 300px; height: 300px; margin-right: 10px;"" />
      <img src=""images/blue_deck_1.png"" style=""width: 300px; height: 300px;"" />
    </div>","0","0"
"","","","","","html-keyboard-response","69","308255","0.0-69.0-0.0-0.0","513A7F9A45474E9697ABB88B2D2E10CE","8ffe48c3-d02d-40af-a5e7-09f540190e8c","69eaecea-d702-4a95-85ee-7e48a56e64ce","","null","<div style=""display: flex; justify-content: center; align-items: center;"">
                <img src=""images/causal/causal_series_13/causal_series_13_d.jpg"" style=""width: 300px; height: 300px;"" />
              </div>","null",""
"","","","","","html-keyboard-response","70","311258","0.0-70.0","513A7F9A45474E9697ABB88B2D2E10CE","8ffe48c3-d02d-40af-a5e7-09f540190e8c","69eaecea-d702-4a95-85ee-7e48a56e64ce","","null","<div style=""display: flex; justify-content: center; align-items: center;"">
                <img src=""images/other/blank.jpg"" style=""width: 300px; height: 300px;"" />
              </div>","null",""
"","","","","","html-keyboard-response","71","314260","0.0-71.0","513A7F9A45474E9697ABB88B2D2E10CE","8ffe48c3-d02d-40af-a5e7-09f540190e8c","69eaecea-d702-4a95-85ee-7e48a56e64ce","","null","<div style=""display: flex; justify-content: center; align-items: center;"">
                <img src=""images/causal/causal_series_12/causal_series_12_a.jpg"" style=""width: 300px; height: 300px;"" />
              </div>","null",""
"","","","","","html-keyboard-response","72","317262","0.0-72.0","513A7F9A45474E9697ABB88B2D2E10CE","8ffe48c3-d02d-40af-a5e7-09f540190e8c","69eaecea-d702-4a95-85ee-7e48a56e64ce","","null","<div style=""display: flex; justify-content: center; align-items: center;"">
                <img src=""images/causal/causal_series_12/causal_series_12_b.jpg"" style=""width: 300px; height: 300px;"" />
              </div>","null",""
"","","","","","html-keyboard-response","73","320264","0.0-73.0","513A7F9A45474E9697ABB88B2D2E10CE","8ffe48c3-d02d-40af-a5e7-09f540190e8c","69eaecea-d702-4a95-85ee-7e48a56e64ce","","null","<div style=""display: flex; justify-content: center; align-items: center;"">
                <img src=""images/causal/causal_series_12/causal_series_12_c.jpg"" style=""width: 300px; height: 300px;"" />
              </div>","null",""
"","","","","","html-button-response","74","321482","0.0-74.0","513A7F9A45474E9697ABB88B2D2E10CE","8ffe48c3-d02d-40af-a5e7-09f540190e8c","69eaecea-d702-4a95-85ee-7e48a56e64ce","","1215","
    <div style=""display: flex; justify-content: center; align-items: center;"">
      <img src=""images/red_deck_2.png"" style=""width: 300px; height: 300px; margin-right: 10px;"" />
      <img src=""images/blue_deck_1.png"" style=""width: 300px; height: 300px;"" />
    </div>","0","0"
"","","","","","html-keyboard-response","75","324486","0.0-75.0-0.0-0.0","513A7F9A45474E9697ABB88B2D2E10CE","8ffe48c3-d02d-40af-a5e7-09f540190e8c","69eaecea-d702-4a95-85ee-7e48a56e64ce","","null","<div style=""display: flex; justify-content: center; align-items: center;"">
                <img src=""images/causal/causal_series_12/causal_series_12_d.jpg"" style=""width: 300px; height: 300px;"" />
              </div>","null",""
"","","","","","html-keyboard-response","76","327489","0.0-76.0","513A7F9A45474E9697ABB88B2D2E10CE","8ffe48c3-d02d-40af-a5e7-09f540190e8c","69eaecea-d702-4a95-85ee-7e48a56e64ce","","null","<div style=""display: flex; justify-content: center; align-items: center;"">
                <img src=""images/other/blank.jpg"" style=""width: 300px; height: 300px;"" />
              </div>","null",""
"","","","","","html-keyboard-response","77","330491","0.0-77.0","513A7F9A45474E9697ABB88B2D2E10CE","8ffe48c3-d02d-40af-a5e7-09f540190e8c","69eaecea-d702-4a95-85ee-7e48a56e64ce","","null","<div style=""display: flex; justify-content: center; align-items: center;"">
                <img src=""images/causal/causal_series_8/causal_series_8_a.jpg"" style=""width: 300px; height: 300px;"" />
              </div>","null",""
"","","","","","html-keyboard-response","78","333495","0.0-78.0","513A7F9A45474E9697ABB88B2D2E10CE","8ffe48c3-d02d-40af-a5e7-09f540190e8c","69eaecea-d702-4a95-85ee-7e48a56e64ce","","null","<div style=""display: flex; justify-content: center; align-items: center;"">
                <img src=""images/causal/causal_series_8/causal_series_8_b.jpg"" style=""width: 300px; height: 300px;"" />
              </div>","null",""
"","","","","","html-keyboard-response","79","336497","0.0-79.0","513A7F9A45474E9697ABB88B2D2E10CE","8ffe48c3-d02d-40af-a5e7-09f540190e8c","69eaecea-d702-4a95-85ee-7e48a56e64ce","","null","<div style=""display: flex; justify-content: center; align-items: center;"">
                <img src=""images/causal/causal_series_8/causal_series_8_c.jpg"" style=""width: 300px; height: 300px;"" />
              </div>","null",""
"","","","","","html-button-response","80","338624","0.0-80.0","513A7F9A45474E9697ABB88B2D2E10CE","8ffe48c3-d02d-40af-a5e7-09f540190e8c","69eaecea-d702-4a95-85ee-7e48a56e64ce","","2124","
    <div style=""display: flex; justify-content: center; align-items: center;"">
      <img src=""images/red_deck_2.png"" style=""width: 300px; height: 300px; margin-right: 10px;"" />
      <img src=""images/blue_deck_1.png"" style=""width: 300px; height: 300px;"" />
    </div>","1","1"
"","","","","","html-keyboard-response","81","341627","0.0-81.0-1.0-0.0","513A7F9A45474E9697ABB88B2D2E10CE","8ffe48c3-d02d-40af-a5e7-09f540190e8c","69eaecea-d702-4a95-85ee-7e48a56e64ce","","null","<div style=""display: flex; justify-content: center; align-items: center;"">
                <img src=""images/semantic/semantic_series_7/semantic_series_7_d.jpg"" style=""width: 300px; height: 300px;"" />
              </div>","null",""
"","","","","","html-keyboard-response","82","344632","0.0-82.0","513A7F9A45474E9697ABB88B2D2E10CE","8ffe48c3-d02d-40af-a5e7-09f540190e8c","69eaecea-d702-4a95-85ee-7e48a56e64ce","","null","<div style=""display: flex; justify-content: center; align-items: center;"">
                <img src=""images/other/blank.jpg"" style=""width: 300px; height: 300px;"" />
              </div>","null",""
"","","","","","html-keyboard-response","83","347634","0.0-83.0","513A7F9A45474E9697ABB88B2D2E10CE","8ffe48c3-d02d-40af-a5e7-09f540190e8c","69eaecea-d702-4a95-85ee-7e48a56e64ce","","null","<div style=""display: flex; justify-content: center; align-items: center;"">
                <img src=""images/causal/causal_series_9/causal_series_9_a.jpg"" style=""width: 300px; height: 300px;"" />
              </div>","null",""
"","","","","","html-keyboard-response","84","350637","0.0-84.0","513A7F9A45474E9697ABB88B2D2E10CE","8ffe48c3-d02d-40af-a5e7-09f540190e8c","69eaecea-d702-4a95-85ee-7e48a56e64ce","","null","<div style=""display: flex; justify-content: center; align-items: center;"">
                <img src=""images/causal/causal_series_9/causal_series_9_b.jpg"" style=""width: 300px; height: 300px;"" />
              </div>","null",""
"","","","","","html-keyboard-response","85","353640","0.0-85.0","513A7F9A45474E9697ABB88B2D2E10CE","8ffe48c3-d02d-40af-a5e7-09f540190e8c","69eaecea-d702-4a95-85ee-7e48a56e64ce","","null","<div style=""display: flex; justify-content: center; align-items: center;"">
                <img src=""images/causal/causal_series_9/causal_series_9_c.jpg"" style=""width: 300px; height: 300px;"" />
              </div>","null",""
"","","","","","html-button-response","86","357004","0.0-86.0","513A7F9A45474E9697ABB88B2D2E10CE","8ffe48c3-d02d-40af-a5e7-09f540190e8c","69eaecea-d702-4a95-85ee-7e48a56e64ce","","3360","
    <div style=""display: flex; justify-content: center; align-items: center;"">
      <img src=""images/red_deck_2.png"" style=""width: 300px; height: 300px; margin-right: 10px;"" />
      <img src=""images/blue_deck_1.png"" style=""width: 300px; height: 300px;"" />
    </div>","0","0"
"","","","","","html-keyboard-response","87","360007","0.0-87.0-0.0-0.0","513A7F9A45474E9697ABB88B2D2E10CE","8ffe48c3-d02d-40af-a5e7-09f540190e8c","69eaecea-d702-4a95-85ee-7e48a56e64ce","","null","<div style=""display: flex; justify-content: center; align-items: center;"">
                <img src=""images/causal/causal_series_9/causal_series_9_d.jpg"" style=""width: 300px; height: 300px;"" />
              </div>","null",""
"","","","","","html-keyboard-response","88","363010","0.0-88.0","513A7F9A45474E9697ABB88B2D2E10CE","8ffe48c3-d02d-40af-a5e7-09f540190e8c","69eaecea-d702-4a95-85ee-7e48a56e64ce","","null","<div style=""display: flex; justify-content: center; align-items: center;"">
                <img src=""images/other/blank.jpg"" style=""width: 300px; height: 300px;"" />
              </div>","null",""
"","","","","","html-keyboard-response","89","366011","0.0-89.0","513A7F9A45474E9697ABB88B2D2E10CE","8ffe48c3-d02d-40af-a5e7-09f540190e8c","69eaecea-d702-4a95-85ee-7e48a56e64ce","","null","<div style=""display: flex; justify-content: center; align-items: center;"">
                <img src=""images/causal/causal_series_17/causal_series_17_a.jpg"" style=""width: 300px; height: 300px;"" />
              </div>","null",""
"","","","","","html-keyboard-response","90","369013","0.0-90.0","513A7F9A45474E9697ABB88B2D2E10CE","8ffe48c3-d02d-40af-a5e7-09f540190e8c","69eaecea-d702-4a95-85ee-7e48a56e64ce","","null","<div style=""display: flex; justify-content: center; align-items: center;"">
                <img src=""images/causal/causal_series_17/causal_series_17_b.jpg"" style=""width: 300px; height: 300px;"" />
              </div>","null",""
"","","","","","html-keyboard-response","91","372015","0.0-91.0","513A7F9A45474E9697ABB88B2D2E10CE","8ffe48c3-d02d-40af-a5e7-09f540190e8c","69eaecea-d702-4a95-85ee-7e48a56e64ce","","null","<div style=""display: flex; justify-content: center; align-items: center;"">
                <img src=""images/causal/causal_series_17/causal_series_17_c.jpg"" style=""width: 300px; height: 300px;"" />
              </div>","null",""
"","","","","","html-button-response","92","374201","0.0-92.0","513A7F9A45474E9697ABB88B2D2E10CE","8ffe48c3-d02d-40af-a5e7-09f540190e8c","69eaecea-d702-4a95-85ee-7e48a56e64ce","","2182","
    <div style=""display: flex; justify-content: center; align-items: center;"">
      <img src=""images/red_deck_2.png"" style=""width: 300px; height: 300px; margin-right: 10px;"" />
      <img src=""images/blue_deck_1.png"" style=""width: 300px; height: 300px;"" />
    </div>","0","0"
"","","","","","html-keyboard-response","93","377206","0.0-93.0-0.0-0.0","513A7F9A45474E9697ABB88B2D2E10CE","8ffe48c3-d02d-40af-a5e7-09f540190e8c","69eaecea-d702-4a95-85ee-7e48a56e64ce","","null","<div style=""display: flex; justify-content: center; align-items: center;"">
                <img src=""images/causal/causal_series_17/causal_series_17_d.jpg"" style=""width: 300px; height: 300px;"" />
              </div>","null",""
"","","","","","html-keyboard-response","94","380209","0.0-94.0","513A7F9A45474E9697ABB88B2D2E10CE","8ffe48c3-d02d-40af-a5e7-09f540190e8c","69eaecea-d702-4a95-85ee-7e48a56e64ce","","null","<div style=""display: flex; justify-content: center; align-items: center;"">
                <img src=""images/other/blank.jpg"" style=""width: 300px; height: 300px;"" />
              </div>","null",""
"","","","","","html-keyboard-response","95","383211","0.0-95.0","513A7F9A45474E9697ABB88B2D2E10CE","8ffe48c3-d02d-40af-a5e7-09f540190e8c","69eaecea-d702-4a95-85ee-7e48a56e64ce","","null","<div style=""display: flex; justify-content: center; align-items: center;"">
                <img src=""images/causal/causal_series_2/causal_series_2_a.jpg"" style=""width: 300px; height: 300px;"" />
              </div>","null",""
"","","","","","html-keyboard-response","96","386213","0.0-96.0","513A7F9A45474E9697ABB88B2D2E10CE","8ffe48c3-d02d-40af-a5e7-09f540190e8c","69eaecea-d702-4a95-85ee-7e48a56e64ce","","null","<div style=""display: flex; justify-content: center; align-items: center;"">
                <img src=""images/causal/causal_series_2/causal_series_2_b.jpg"" style=""width: 300px; height: 300px;"" />
              </div>","null",""
"","","","","","html-keyboard-response","97","389215","0.0-97.0","513A7F9A45474E9697ABB88B2D2E10CE","8ffe48c3-d02d-40af-a5e7-09f540190e8c","69eaecea-d702-4a95-85ee-7e48a56e64ce","","null","<div style=""display: flex; justify-content: center; align-items: center;"">
                <img src=""images/causal/causal_series_2/causal_series_2_c.jpg"" style=""width: 300px; height: 300px;"" />
              </div>","null",""
"","","","","","html-button-response","98","392505","0.0-98.0","513A7F9A45474E9697ABB88B2D2E10CE","8ffe48c3-d02d-40af-a5e7-09f540190e8c","69eaecea-d702-4a95-85ee-7e48a56e64ce","","3285","
    <div style=""display: flex; justify-content: center; align-items: center;"">
      <img src=""images/red_deck_2.png"" style=""width: 300px; height: 300px; margin-right: 10px;"" />
      <img src=""images/blue_deck_1.png"" style=""width: 300px; height: 300px;"" />
    </div>","1","1"
"","","","","","html-keyboard-response","99","395510","0.0-99.0-1.0-0.0","513A7F9A45474E9697ABB88B2D2E10CE","8ffe48c3-d02d-40af-a5e7-09f540190e8c","69eaecea-d702-4a95-85ee-7e48a56e64ce","","null","<div style=""display: flex; justify-content: center; align-items: center;"">
                <img src=""images/semantic/semantic_series_1/semantic_series_1_d.jpg"" style=""width: 300px; height: 300px;"" />
              </div>","null",""
"","","","","","html-keyboard-response","100","398514","0.0-100.0","513A7F9A45474E9697ABB88B2D2E10CE","8ffe48c3-d02d-40af-a5e7-09f540190e8c","69eaecea-d702-4a95-85ee-7e48a56e64ce","","null","<div style=""display: flex; justify-content: center; align-items: center;"">
                <img src=""images/other/blank.jpg"" style=""width: 300px; height: 300px;"" />
              </div>","null",""
"","","","","","html-keyboard-response","101","401516","0.0-101.0","513A7F9A45474E9697ABB88B2D2E10CE","8ffe48c3-d02d-40af-a5e7-09f540190e8c","69eaecea-d702-4a95-85ee-7e48a56e64ce","","null","<div style=""display: flex; justify-content: center; align-items: center;"">
                <img src=""images/causal/causal_series_7/causal_series_7_a.jpg"" style=""width: 300px; height: 300px;"" />
              </div>","null",""
"","","","","","html-keyboard-response","102","404518","0.0-102.0","513A7F9A45474E9697ABB88B2D2E10CE","8ffe48c3-d02d-40af-a5e7-09f540190e8c","69eaecea-d702-4a95-85ee-7e48a56e64ce","","null","<div style=""display: flex; justify-content: center; align-items: center;"">
                <img src=""images/causal/causal_series_7/causal_series_7_b.jpg"" style=""width: 300px; height: 300px;"" />
              </div>","null",""
"","","","","","html-keyboard-response","103","407521","0.0-103.0","513A7F9A45474E9697ABB88B2D2E10CE","8ffe48c3-d02d-40af-a5e7-09f540190e8c","69eaecea-d702-4a95-85ee-7e48a56e64ce","","null","<div style=""display: flex; justify-content: center; align-items: center;"">
                <img src=""images/causal/causal_series_7/causal_series_7_c.jpg"" style=""width: 300px; height: 300px;"" />
              </div>","null",""
"","","","","","html-button-response","104","409226","0.0-104.0","513A7F9A45474E9697ABB88B2D2E10CE","8ffe48c3-d02d-40af-a5e7-09f540190e8c","69eaecea-d702-4a95-85ee-7e48a56e64ce","","1700","
    <div style=""display: flex; justify-content: center; align-items: center;"">
      <img src=""images/red_deck_2.png"" style=""width: 300px; height: 300px; margin-right: 10px;"" />
      <img src=""images/blue_deck_1.png"" style=""width: 300px; height: 300px;"" />
    </div>","0","0"
"","","","","","html-keyboard-response","105","412230","0.0-105.0-0.0-0.0","513A7F9A45474E9697ABB88B2D2E10CE","8ffe48c3-d02d-40af-a5e7-09f540190e8c","69eaecea-d702-4a95-85ee-7e48a56e64ce","","null","<div style=""display: flex; justify-content: center; align-items: center;"">
                <img src=""images/causal/causal_series_7/causal_series_7_d.jpg"" style=""width: 300px; height: 300px;"" />
              </div>","null",""
"","","","","","html-keyboard-response","106","415233","0.0-106.0","513A7F9A45474E9697ABB88B2D2E10CE","8ffe48c3-d02d-40af-a5e7-09f540190e8c","69eaecea-d702-4a95-85ee-7e48a56e64ce","","null","<div style=""display: flex; justify-content: center; align-items: center;"">
                <img src=""images/other/blank.jpg"" style=""width: 300px; height: 300px;"" />
              </div>","null",""
"","","","","","html-keyboard-response","107","418235","0.0-107.0","513A7F9A45474E9697ABB88B2D2E10CE","8ffe48c3-d02d-40af-a5e7-09f540190e8c","69eaecea-d702-4a95-85ee-7e48a56e64ce","","null","<div style=""display: flex; justify-content: center; align-items: center;"">
                <img src=""images/causal/causal_series_3/causal_series_3_a.jpg"" style=""width: 300px; height: 300px;"" />
              </div>","null",""
"","","","","","html-keyboard-response","108","421238","0.0-108.0","513A7F9A45474E9697ABB88B2D2E10CE","8ffe48c3-d02d-40af-a5e7-09f540190e8c","69eaecea-d702-4a95-85ee-7e48a56e64ce","","null","<div style=""display: flex; justify-content: center; align-items: center;"">
                <img src=""images/causal/causal_series_3/causal_series_3_b.jpg"" style=""width: 300px; height: 300px;"" />
              </div>","null",""
"","","","","","html-keyboard-response","109","424240","0.0-109.0","513A7F9A45474E9697ABB88B2D2E10CE","8ffe48c3-d02d-40af-a5e7-09f540190e8c","69eaecea-d702-4a95-85ee-7e48a56e64ce","","null","<div style=""display: flex; justify-content: center; align-items: center;"">
                <img src=""images/causal/causal_series_3/causal_series_3_c.jpg"" style=""width: 300px; height: 300px;"" />
              </div>","null",""
"","","","","","html-button-response","110","427583","0.0-110.0","513A7F9A45474E9697ABB88B2D2E10CE","8ffe48c3-d02d-40af-a5e7-09f540190e8c","69eaecea-d702-4a95-85ee-7e48a56e64ce","","3338","
    <div style=""display: flex; justify-content: center; align-items: center;"">
      <img src=""images/red_deck_2.png"" style=""width: 300px; height: 300px; margin-right: 10px;"" />
      <img src=""images/blue_deck_1.png"" style=""width: 300px; height: 300px;"" />
    </div>","0","0"
"","","","","","html-keyboard-response","111","430586","0.0-111.0-0.0-0.0","513A7F9A45474E9697ABB88B2D2E10CE","8ffe48c3-d02d-40af-a5e7-09f540190e8c","69eaecea-d702-4a95-85ee-7e48a56e64ce","","null","<div style=""display: flex; justify-content: center; align-items: center;"">
                <img src=""images/causal/causal_series_3/causal_series_3_d.jpg"" style=""width: 300px; height: 300px;"" />
              </div>","null",""
"","","","","","html-keyboard-response","112","433589","0.0-112.0","513A7F9A45474E9697ABB88B2D2E10CE","8ffe48c3-d02d-40af-a5e7-09f540190e8c","69eaecea-d702-4a95-85ee-7e48a56e64ce","","null","<div style=""display: flex; justify-content: center; align-items: center;"">
                <img src=""images/other/blank.jpg"" style=""width: 300px; height: 300px;"" />
              </div>","null",""
"","","","","","survey-text","113","519611","0.0-113.0","513A7F9A45474E9697ABB88B2D2E10CE","8ffe48c3-d02d-40af-a5e7-09f540190e8c","69eaecea-d702-4a95-85ee-7e48a56e64ce","","86009","","{""Q0"":""red deck shows the ending of the stories while blue shows a random image unconnected to the story""}",""
"","","","","","survey-text","114","529125","0.0-114.0","513A7F9A45474E9697ABB88B2D2E10CE","8ffe48c3-d02d-40af-a5e7-09f540190e8c","69eaecea-d702-4a95-85ee-7e48a56e64ce","","9501","","{""Q0"":""red""}",""
"","","","","","html-button-response","115","545782","0.0-115.0","513A7F9A45474E9697ABB88B2D2E10CE","8ffe48c3-d02d-40af-a5e7-09f540190e8c","69eaecea-d702-4a95-85ee-7e48a56e64ce","","16654","Which color deck does the fourth image continue the story from the series?","1",""
"","","","","","html-button-response","116","550704","0.0-116.0","513A7F9A45474E9697ABB88B2D2E10CE","8ffe48c3-d02d-40af-a5e7-09f540190e8c","69eaecea-d702-4a95-85ee-7e48a56e64ce","","4917","Which color deck does the fourth image not follow the story from the series?","0",""
"","","","","","survey-text","117","567820","0.0-117.0","513A7F9A45474E9697ABB88B2D2E10CE","8ffe48c3-d02d-40af-a5e7-09f540190e8c","69eaecea-d702-4a95-85ee-7e48a56e64ce","","17108","","{""Q0"":""FEMALE"",""Q1"":""28""}",""
"","","","","","instructions","118","580053","0.0-118.0","513A7F9A45474E9697ABB88B2D2E10CE","8ffe48c3-d02d-40af-a5e7-09f540190e8c","69eaecea-d702-4a95-85ee-7e48a56e64ce","[{""page_index"":0,""viewing_time"":12227}]","12228","","",""
