"success","timeout","failed_images","failed_audio","failed_video","trial_type","trial_index","time_elapsed","internal_node_id","subject","subject_id","study_id","session_id","urlvar","current_url","view_history","rt","stimulus","response","choice","question_order"
"true","false","[]","[]","[]","preload","0","996","0.0-0.0","73C9A33B152146C3B4EE43AC46030CC6","73C9A33B152146C3B4EE43AC46030CC6","bdfbb937-8310-4e35-9093-c41bd532cef2","bea99957-1862-4ad8-9558-57b91e42ce64","{""participantId"":""73C9A33B152146C3B4EE43AC46030CC6"",""assignmentId"":""bdfbb937-8310-4e35-9093-c41bd532cef2"",""projectId"":""bea99957-1862-4ad8-9558-57b91e42ce64""}","https://test12345.live/?participantId=73C9A33B152146C3B4EE43AC46030CC6&assignmentId=bdfbb937-8310-4e35-9093-c41bd532cef2&projectId=bea99957-1862-4ad8-9558-57b91e42ce64","","","","","",""
"","","","","","instructions","1","7663","0.0-1.0","73C9A33B152146C3B4EE43AC46030CC6","73C9A33B152146C3B4EE43AC46030CC6","bdfbb937-8310-4e35-9093-c41bd532cef2","bea99957-1862-4ad8-9558-57b91e42ce64","{""participantId"":""73C9A33B152146C3B4EE43AC46030CC6"",""assignmentId"":""bdfbb937-8310-4e35-9093-c41bd532cef2"",""projectId"":""bea99957-1862-4ad8-9558-57b91e42ce64""}","https://test12345.live/?participantId=73C9A33B152146C3B4EE43AC46030CC6&assignmentId=bdfbb937-8310-4e35-9093-c41bd532cef2&projectId=bea99957-1862-4ad8-9558-57b91e42ce64","[{""page_index"":0,""viewing_time"":6667}]","6667","","","",""
"","","","","","instructions","2","12406","0.0-2.0","73C9A33B152146C3B4EE43AC46030CC6","73C9A33B152146C3B4EE43AC46030CC6","bdfbb937-8310-4e35-9093-c41bd532cef2","bea99957-1862-4ad8-9558-57b91e42ce64","{""participantId"":""73C9A33B152146C3B4EE43AC46030CC6"",""assignmentId"":""bdfbb937-8310-4e35-9093-c41bd532cef2"",""projectId"":""bea99957-1862-4ad8-9558-57b91e42ce64""}","https://test12345.live/?participantId=73C9A33B152146C3B4EE43AC46030CC6&assignmentId=bdfbb937-8310-4e35-9093-c41bd532cef2&projectId=bea99957-1862-4ad8-9558-57b91e42ce64","[{""page_index"":0,""viewing_time"":4742}]","4742","","","",""
"true","","","","","fullscreen","3","18366","0.0-3.0","73C9A33B152146C3B4EE43AC46030CC6","73C9A33B152146C3B4EE43AC46030CC6","bdfbb937-8310-4e35-9093-c41bd532cef2","bea99957-1862-4ad8-9558-57b91e42ce64","{""participantId"":""73C9A33B152146C3B4EE43AC46030CC6"",""assignmentId"":""bdfbb937-8310-4e35-9093-c41bd532cef2"",""projectId"":""bea99957-1862-4ad8-9558-57b91e42ce64""}","https://test12345.live/?participantId=73C9A33B152146C3B4EE43AC46030CC6&assignmentId=bdfbb937-8310-4e35-9093-c41bd532cef2&projectId=bea99957-1862-4ad8-9558-57b91e42ce64","","4946","","","",""
"","","","","","instructions","4","27732","0.0-4.0","73C9A33B152146C3B4EE43AC46030CC6","73C9A33B152146C3B4EE43AC46030CC6","bdfbb937-8310-4e35-9093-c41bd532cef2","bea99957-1862-4ad8-9558-57b91e42ce64","{""participantId"":""73C9A33B152146C3B4EE43AC46030CC6"",""assignmentId"":""bdfbb937-8310-4e35-9093-c41bd532cef2"",""projectId"":""bea99957-1862-4ad8-9558-57b91e42ce64""}","https://test12345.live/?participantId=73C9A33B152146C3B4EE43AC46030CC6&assignmentId=bdfbb937-8310-4e35-9093-c41bd532cef2&projectId=bea99957-1862-4ad8-9558-57b91e42ce64","[{""page_index"":0,""viewing_time"":9364}]","9364","","","",""
"","","","","","html-button-response","5","30765","0.0-5.0","73C9A33B152146C3B4EE43AC46030CC6","73C9A33B152146C3B4EE43AC46030CC6","bdfbb937-8310-4e35-9093-c41bd532cef2","bea99957-1862-4ad8-9558-57b91e42ce64","{""participantId"":""73C9A33B152146C3B4EE43AC46030CC6"",""assignmentId"":""bdfbb937-8310-4e35-9093-c41bd532cef2"",""projectId"":""bea99957-1862-4ad8-9558-57b91e42ce64""}","https://test12345.live/?participantId=73C9A33B152146C3B4EE43AC46030CC6&assignmentId=bdfbb937-8310-4e35-9093-c41bd532cef2&projectId=bea99957-1862-4ad8-9558-57b91e42ce64","","3031","
    <div style=""display: flex; justify-content: center; align-items: center;"">
      <img src=""images/red_deck_2.png"" style=""width: 300px; height: 300px; margin-right: 10px;"" />
      <img src=""images/blue_deck_1.png"" style=""width: 300px; height: 300px;"" />
    </div>","1","1",""
"","","","","","html-keyboard-response","6","33769","0.0-6.0-0.0","73C9A33B152146C3B4EE43AC46030CC6","73C9A33B152146C3B4EE43AC46030CC6","bdfbb937-8310-4e35-9093-c41bd532cef2","bea99957-1862-4ad8-9558-57b91e42ce64","{""participantId"":""73C9A33B152146C3B4EE43AC46030CC6"",""assignmentId"":""bdfbb937-8310-4e35-9093-c41bd532cef2"",""projectId"":""bea99957-1862-4ad8-9558-57b91e42ce64""}","https://test12345.live/?participantId=73C9A33B152146C3B4EE43AC46030CC6&assignmentId=bdfbb937-8310-4e35-9093-c41bd532cef2&projectId=bea99957-1862-4ad8-9558-57b91e42ce64","","null","<div style=""display: flex; justify-content: center; align-items: center;"">
                    <img src=""images/causal/causal_series_14/causal_series_14_a.jpg"" style=""width: 300px; height: 300px;"" />
                  </div>","null","",""
"","","","","","html-keyboard-response","7","36784","0.0-6.0-1.0","73C9A33B152146C3B4EE43AC46030CC6","73C9A33B152146C3B4EE43AC46030CC6","bdfbb937-8310-4e35-9093-c41bd532cef2","bea99957-1862-4ad8-9558-57b91e42ce64","{""participantId"":""73C9A33B152146C3B4EE43AC46030CC6"",""assignmentId"":""bdfbb937-8310-4e35-9093-c41bd532cef2"",""projectId"":""bea99957-1862-4ad8-9558-57b91e42ce64""}","https://test12345.live/?participantId=73C9A33B152146C3B4EE43AC46030CC6&assignmentId=bdfbb937-8310-4e35-9093-c41bd532cef2&projectId=bea99957-1862-4ad8-9558-57b91e42ce64","","null","<div style=""display: flex; justify-content: center; align-items: center;"">
                    <img src=""images/causal/causal_series_14/causal_series_14_b.jpg"" style=""width: 300px; height: 300px;"" />
                  </div>","null","",""
"","","","","","html-keyboard-response","8","39786","0.0-6.0-2.0","73C9A33B152146C3B4EE43AC46030CC6","73C9A33B152146C3B4EE43AC46030CC6","bdfbb937-8310-4e35-9093-c41bd532cef2","bea99957-1862-4ad8-9558-57b91e42ce64","{""participantId"":""73C9A33B152146C3B4EE43AC46030CC6"",""assignmentId"":""bdfbb937-8310-4e35-9093-c41bd532cef2"",""projectId"":""bea99957-1862-4ad8-9558-57b91e42ce64""}","https://test12345.live/?participantId=73C9A33B152146C3B4EE43AC46030CC6&assignmentId=bdfbb937-8310-4e35-9093-c41bd532cef2&projectId=bea99957-1862-4ad8-9558-57b91e42ce64","","null","<div style=""display: flex; justify-content: center; align-items: center;"">
                    <img src=""images/causal/causal_series_14/causal_series_14_c.jpg"" style=""width: 300px; height: 300px;"" />
                  </div>","null","",""
"","","","","","html-keyboard-response","9","42797","0.0-6.0-3.0","73C9A33B152146C3B4EE43AC46030CC6","73C9A33B152146C3B4EE43AC46030CC6","bdfbb937-8310-4e35-9093-c41bd532cef2","bea99957-1862-4ad8-9558-57b91e42ce64","{""participantId"":""73C9A33B152146C3B4EE43AC46030CC6"",""assignmentId"":""bdfbb937-8310-4e35-9093-c41bd532cef2"",""projectId"":""bea99957-1862-4ad8-9558-57b91e42ce64""}","https://test12345.live/?participantId=73C9A33B152146C3B4EE43AC46030CC6&assignmentId=bdfbb937-8310-4e35-9093-c41bd532cef2&projectId=bea99957-1862-4ad8-9558-57b91e42ce64","","null","<div style=""display: flex; justify-content: center; align-items: center;"">
                    <img src=""images/causal/causal_series_14/causal_series_14_d.jpg"" style=""width: 300px; height: 300px;"" />
                  </div>","null","",""
"","","","","","html-button-response","10","45241","0.0-8.0","73C9A33B152146C3B4EE43AC46030CC6","73C9A33B152146C3B4EE43AC46030CC6","bdfbb937-8310-4e35-9093-c41bd532cef2","bea99957-1862-4ad8-9558-57b91e42ce64","{""participantId"":""73C9A33B152146C3B4EE43AC46030CC6"",""assignmentId"":""bdfbb937-8310-4e35-9093-c41bd532cef2"",""projectId"":""bea99957-1862-4ad8-9558-57b91e42ce64""}","https://test12345.live/?participantId=73C9A33B152146C3B4EE43AC46030CC6&assignmentId=bdfbb937-8310-4e35-9093-c41bd532cef2&projectId=bea99957-1862-4ad8-9558-57b91e42ce64","","2443","Was there a person in the picture?","0","",""
"","","","","","survey-likert","11","50128","0.0-9.0","73C9A33B152146C3B4EE43AC46030CC6","73C9A33B152146C3B4EE43AC46030CC6","bdfbb937-8310-4e35-9093-c41bd532cef2","bea99957-1862-4ad8-9558-57b91e42ce64","{""participantId"":""73C9A33B152146C3B4EE43AC46030CC6"",""assignmentId"":""bdfbb937-8310-4e35-9093-c41bd532cef2"",""projectId"":""bea99957-1862-4ad8-9558-57b91e42ce64""}","https://test12345.live/?participantId=73C9A33B152146C3B4EE43AC46030CC6&assignmentId=bdfbb937-8310-4e35-9093-c41bd532cef2&projectId=bea99957-1862-4ad8-9558-57b91e42ce64","","4884","","{""Q0"":4}","","[0]"
"","","","","","html-button-response","12","51833","0.0-10.0","73C9A33B152146C3B4EE43AC46030CC6","73C9A33B152146C3B4EE43AC46030CC6","bdfbb937-8310-4e35-9093-c41bd532cef2","bea99957-1862-4ad8-9558-57b91e42ce64","{""participantId"":""73C9A33B152146C3B4EE43AC46030CC6"",""assignmentId"":""bdfbb937-8310-4e35-9093-c41bd532cef2"",""projectId"":""bea99957-1862-4ad8-9558-57b91e42ce64""}","https://test12345.live/?participantId=73C9A33B152146C3B4EE43AC46030CC6&assignmentId=bdfbb937-8310-4e35-9093-c41bd532cef2&projectId=bea99957-1862-4ad8-9558-57b91e42ce64","","1703","
    <div style=""display: flex; justify-content: center; align-items: center;"">
      <img src=""images/red_deck_2.png"" style=""width: 300px; height: 300px; margin-right: 10px;"" />
      <img src=""images/blue_deck_1.png"" style=""width: 300px; height: 300px;"" />
    </div>","0","0",""
"","","","","","html-keyboard-response","13","54843","0.0-12.0-0.0","73C9A33B152146C3B4EE43AC46030CC6","73C9A33B152146C3B4EE43AC46030CC6","bdfbb937-8310-4e35-9093-c41bd532cef2","bea99957-1862-4ad8-9558-57b91e42ce64","{""participantId"":""73C9A33B152146C3B4EE43AC46030CC6"",""assignmentId"":""bdfbb937-8310-4e35-9093-c41bd532cef2"",""projectId"":""bea99957-1862-4ad8-9558-57b91e42ce64""}","https://test12345.live/?participantId=73C9A33B152146C3B4EE43AC46030CC6&assignmentId=bdfbb937-8310-4e35-9093-c41bd532cef2&projectId=bea99957-1862-4ad8-9558-57b91e42ce64","","null","<div style=""display: flex; justify-content: center; align-items: center;"">
                    <img src=""images/semantic/semantic_series_11/semantic_series_11_a.jpg"" style=""width: 300px; height: 300px;"" />
                  </div>","null","",""
"","","","","","html-keyboard-response","14","57856","0.0-12.0-1.0","73C9A33B152146C3B4EE43AC46030CC6","73C9A33B152146C3B4EE43AC46030CC6","bdfbb937-8310-4e35-9093-c41bd532cef2","bea99957-1862-4ad8-9558-57b91e42ce64","{""participantId"":""73C9A33B152146C3B4EE43AC46030CC6"",""assignmentId"":""bdfbb937-8310-4e35-9093-c41bd532cef2"",""projectId"":""bea99957-1862-4ad8-9558-57b91e42ce64""}","https://test12345.live/?participantId=73C9A33B152146C3B4EE43AC46030CC6&assignmentId=bdfbb937-8310-4e35-9093-c41bd532cef2&projectId=bea99957-1862-4ad8-9558-57b91e42ce64","","null","<div style=""display: flex; justify-content: center; align-items: center;"">
                    <img src=""images/semantic/semantic_series_11/semantic_series_11_b.jpg"" style=""width: 300px; height: 300px;"" />
                  </div>","null","",""
"","","","","","html-keyboard-response","15","60871","0.0-12.0-2.0","73C9A33B152146C3B4EE43AC46030CC6","73C9A33B152146C3B4EE43AC46030CC6","bdfbb937-8310-4e35-9093-c41bd532cef2","bea99957-1862-4ad8-9558-57b91e42ce64","{""participantId"":""73C9A33B152146C3B4EE43AC46030CC6"",""assignmentId"":""bdfbb937-8310-4e35-9093-c41bd532cef2"",""projectId"":""bea99957-1862-4ad8-9558-57b91e42ce64""}","https://test12345.live/?participantId=73C9A33B152146C3B4EE43AC46030CC6&assignmentId=bdfbb937-8310-4e35-9093-c41bd532cef2&projectId=bea99957-1862-4ad8-9558-57b91e42ce64","","null","<div style=""display: flex; justify-content: center; align-items: center;"">
                    <img src=""images/semantic/semantic_series_11/semantic_series_11_c.jpg"" style=""width: 300px; height: 300px;"" />
                  </div>","null","",""
"","","","","","html-keyboard-response","16","63876","0.0-12.0-3.0","73C9A33B152146C3B4EE43AC46030CC6","73C9A33B152146C3B4EE43AC46030CC6","bdfbb937-8310-4e35-9093-c41bd532cef2","bea99957-1862-4ad8-9558-57b91e42ce64","{""participantId"":""73C9A33B152146C3B4EE43AC46030CC6"",""assignmentId"":""bdfbb937-8310-4e35-9093-c41bd532cef2"",""projectId"":""bea99957-1862-4ad8-9558-57b91e42ce64""}","https://test12345.live/?participantId=73C9A33B152146C3B4EE43AC46030CC6&assignmentId=bdfbb937-8310-4e35-9093-c41bd532cef2&projectId=bea99957-1862-4ad8-9558-57b91e42ce64","","null","<div style=""display: flex; justify-content: center; align-items: center;"">
                    <img src=""images/semantic/semantic_series_11/semantic_series_11_d.jpg"" style=""width: 300px; height: 300px;"" />
                  </div>","null","",""
"","","","","","html-button-response","17","65434","0.0-13.0","73C9A33B152146C3B4EE43AC46030CC6","73C9A33B152146C3B4EE43AC46030CC6","bdfbb937-8310-4e35-9093-c41bd532cef2","bea99957-1862-4ad8-9558-57b91e42ce64","{""participantId"":""73C9A33B152146C3B4EE43AC46030CC6"",""assignmentId"":""bdfbb937-8310-4e35-9093-c41bd532cef2"",""projectId"":""bea99957-1862-4ad8-9558-57b91e42ce64""}","https://test12345.live/?participantId=73C9A33B152146C3B4EE43AC46030CC6&assignmentId=bdfbb937-8310-4e35-9093-c41bd532cef2&projectId=bea99957-1862-4ad8-9558-57b91e42ce64","","1556","Was there a person in the picture?","0","",""
"","","","","","survey-likert","18","67360","0.0-14.0","73C9A33B152146C3B4EE43AC46030CC6","73C9A33B152146C3B4EE43AC46030CC6","bdfbb937-8310-4e35-9093-c41bd532cef2","bea99957-1862-4ad8-9558-57b91e42ce64","{""participantId"":""73C9A33B152146C3B4EE43AC46030CC6"",""assignmentId"":""bdfbb937-8310-4e35-9093-c41bd532cef2"",""projectId"":""bea99957-1862-4ad8-9558-57b91e42ce64""}","https://test12345.live/?participantId=73C9A33B152146C3B4EE43AC46030CC6&assignmentId=bdfbb937-8310-4e35-9093-c41bd532cef2&projectId=bea99957-1862-4ad8-9558-57b91e42ce64","","1925","","{""Q0"":3}","","[0]"
"","","","","","html-button-response","19","68978","0.0-15.0","73C9A33B152146C3B4EE43AC46030CC6","73C9A33B152146C3B4EE43AC46030CC6","bdfbb937-8310-4e35-9093-c41bd532cef2","bea99957-1862-4ad8-9558-57b91e42ce64","{""participantId"":""73C9A33B152146C3B4EE43AC46030CC6"",""assignmentId"":""bdfbb937-8310-4e35-9093-c41bd532cef2"",""projectId"":""bea99957-1862-4ad8-9558-57b91e42ce64""}","https://test12345.live/?participantId=73C9A33B152146C3B4EE43AC46030CC6&assignmentId=bdfbb937-8310-4e35-9093-c41bd532cef2&projectId=bea99957-1862-4ad8-9558-57b91e42ce64","","1615","
    <div style=""display: flex; justify-content: center; align-items: center;"">
      <img src=""images/red_deck_2.png"" style=""width: 300px; height: 300px; margin-right: 10px;"" />
      <img src=""images/blue_deck_1.png"" style=""width: 300px; height: 300px;"" />
    </div>","1","1",""
"","","","","","html-keyboard-response","20","71989","0.0-16.0-0.0","73C9A33B152146C3B4EE43AC46030CC6","73C9A33B152146C3B4EE43AC46030CC6","bdfbb937-8310-4e35-9093-c41bd532cef2","bea99957-1862-4ad8-9558-57b91e42ce64","{""participantId"":""73C9A33B152146C3B4EE43AC46030CC6"",""assignmentId"":""bdfbb937-8310-4e35-9093-c41bd532cef2"",""projectId"":""bea99957-1862-4ad8-9558-57b91e42ce64""}","https://test12345.live/?participantId=73C9A33B152146C3B4EE43AC46030CC6&assignmentId=bdfbb937-8310-4e35-9093-c41bd532cef2&projectId=bea99957-1862-4ad8-9558-57b91e42ce64","","null","<div style=""display: flex; justify-content: center; align-items: center;"">
                    <img src=""images/causal/causal_series_4/causal_series_4_a.jpg"" style=""width: 300px; height: 300px;"" />
                  </div>","null","",""
"","","","","","html-keyboard-response","21","75000","0.0-16.0-1.0","73C9A33B152146C3B4EE43AC46030CC6","73C9A33B152146C3B4EE43AC46030CC6","bdfbb937-8310-4e35-9093-c41bd532cef2","bea99957-1862-4ad8-9558-57b91e42ce64","{""participantId"":""73C9A33B152146C3B4EE43AC46030CC6"",""assignmentId"":""bdfbb937-8310-4e35-9093-c41bd532cef2"",""projectId"":""bea99957-1862-4ad8-9558-57b91e42ce64""}","https://test12345.live/?participantId=73C9A33B152146C3B4EE43AC46030CC6&assignmentId=bdfbb937-8310-4e35-9093-c41bd532cef2&projectId=bea99957-1862-4ad8-9558-57b91e42ce64","","null","<div style=""display: flex; justify-content: center; align-items: center;"">
                    <img src=""images/causal/causal_series_4/causal_series_4_b.jpg"" style=""width: 300px; height: 300px;"" />
                  </div>","null","",""
"","","","","","html-keyboard-response","22","78013","0.0-16.0-2.0","73C9A33B152146C3B4EE43AC46030CC6","73C9A33B152146C3B4EE43AC46030CC6","bdfbb937-8310-4e35-9093-c41bd532cef2","bea99957-1862-4ad8-9558-57b91e42ce64","{""participantId"":""73C9A33B152146C3B4EE43AC46030CC6"",""assignmentId"":""bdfbb937-8310-4e35-9093-c41bd532cef2"",""projectId"":""bea99957-1862-4ad8-9558-57b91e42ce64""}","https://test12345.live/?participantId=73C9A33B152146C3B4EE43AC46030CC6&assignmentId=bdfbb937-8310-4e35-9093-c41bd532cef2&projectId=bea99957-1862-4ad8-9558-57b91e42ce64","","null","<div style=""display: flex; justify-content: center; align-items: center;"">
                    <img src=""images/causal/causal_series_4/causal_series_4_c.jpg"" style=""width: 300px; height: 300px;"" />
                  </div>","null","",""
"","","","","","html-keyboard-response","23","81019","0.0-16.0-3.0","73C9A33B152146C3B4EE43AC46030CC6","73C9A33B152146C3B4EE43AC46030CC6","bdfbb937-8310-4e35-9093-c41bd532cef2","bea99957-1862-4ad8-9558-57b91e42ce64","{""participantId"":""73C9A33B152146C3B4EE43AC46030CC6"",""assignmentId"":""bdfbb937-8310-4e35-9093-c41bd532cef2"",""projectId"":""bea99957-1862-4ad8-9558-57b91e42ce64""}","https://test12345.live/?participantId=73C9A33B152146C3B4EE43AC46030CC6&assignmentId=bdfbb937-8310-4e35-9093-c41bd532cef2&projectId=bea99957-1862-4ad8-9558-57b91e42ce64","","null","<div style=""display: flex; justify-content: center; align-items: center;"">
                    <img src=""images/causal/causal_series_4/causal_series_4_d.jpg"" style=""width: 300px; height: 300px;"" />
                  </div>","null","",""
"","","","","","html-button-response","24","82106","0.0-18.0","73C9A33B152146C3B4EE43AC46030CC6","73C9A33B152146C3B4EE43AC46030CC6","bdfbb937-8310-4e35-9093-c41bd532cef2","bea99957-1862-4ad8-9558-57b91e42ce64","{""participantId"":""73C9A33B152146C3B4EE43AC46030CC6"",""assignmentId"":""bdfbb937-8310-4e35-9093-c41bd532cef2"",""projectId"":""bea99957-1862-4ad8-9558-57b91e42ce64""}","https://test12345.live/?participantId=73C9A33B152146C3B4EE43AC46030CC6&assignmentId=bdfbb937-8310-4e35-9093-c41bd532cef2&projectId=bea99957-1862-4ad8-9558-57b91e42ce64","","1086","Was there a person in the picture?","1","",""
"","","","","","survey-likert","25","85516","0.0-19.0","73C9A33B152146C3B4EE43AC46030CC6","73C9A33B152146C3B4EE43AC46030CC6","bdfbb937-8310-4e35-9093-c41bd532cef2","bea99957-1862-4ad8-9558-57b91e42ce64","{""participantId"":""73C9A33B152146C3B4EE43AC46030CC6"",""assignmentId"":""bdfbb937-8310-4e35-9093-c41bd532cef2"",""projectId"":""bea99957-1862-4ad8-9558-57b91e42ce64""}","https://test12345.live/?participantId=73C9A33B152146C3B4EE43AC46030CC6&assignmentId=bdfbb937-8310-4e35-9093-c41bd532cef2&projectId=bea99957-1862-4ad8-9558-57b91e42ce64","","3408","","{""Q0"":4}","","[0]"
"","","","","","html-button-response","26","86950","0.0-20.0","73C9A33B152146C3B4EE43AC46030CC6","73C9A33B152146C3B4EE43AC46030CC6","bdfbb937-8310-4e35-9093-c41bd532cef2","bea99957-1862-4ad8-9558-57b91e42ce64","{""participantId"":""73C9A33B152146C3B4EE43AC46030CC6"",""assignmentId"":""bdfbb937-8310-4e35-9093-c41bd532cef2"",""projectId"":""bea99957-1862-4ad8-9558-57b91e42ce64""}","https://test12345.live/?participantId=73C9A33B152146C3B4EE43AC46030CC6&assignmentId=bdfbb937-8310-4e35-9093-c41bd532cef2&projectId=bea99957-1862-4ad8-9558-57b91e42ce64","","1431","
    <div style=""display: flex; justify-content: center; align-items: center;"">
      <img src=""images/red_deck_2.png"" style=""width: 300px; height: 300px; margin-right: 10px;"" />
      <img src=""images/blue_deck_1.png"" style=""width: 300px; height: 300px;"" />
    </div>","0","0",""
"","","","","","html-keyboard-response","27","89966","0.0-22.0-0.0","73C9A33B152146C3B4EE43AC46030CC6","73C9A33B152146C3B4EE43AC46030CC6","bdfbb937-8310-4e35-9093-c41bd532cef2","bea99957-1862-4ad8-9558-57b91e42ce64","{""participantId"":""73C9A33B152146C3B4EE43AC46030CC6"",""assignmentId"":""bdfbb937-8310-4e35-9093-c41bd532cef2"",""projectId"":""bea99957-1862-4ad8-9558-57b91e42ce64""}","https://test12345.live/?participantId=73C9A33B152146C3B4EE43AC46030CC6&assignmentId=bdfbb937-8310-4e35-9093-c41bd532cef2&projectId=bea99957-1862-4ad8-9558-57b91e42ce64","","null","<div style=""display: flex; justify-content: center; align-items: center;"">
                    <img src=""images/semantic/semantic_series_13/semantic_series_13_a.jpg"" style=""width: 300px; height: 300px;"" />
                  </div>","null","",""
"","","","","","html-keyboard-response","28","92983","0.0-22.0-1.0","73C9A33B152146C3B4EE43AC46030CC6","73C9A33B152146C3B4EE43AC46030CC6","bdfbb937-8310-4e35-9093-c41bd532cef2","bea99957-1862-4ad8-9558-57b91e42ce64","{""participantId"":""73C9A33B152146C3B4EE43AC46030CC6"",""assignmentId"":""bdfbb937-8310-4e35-9093-c41bd532cef2"",""projectId"":""bea99957-1862-4ad8-9558-57b91e42ce64""}","https://test12345.live/?participantId=73C9A33B152146C3B4EE43AC46030CC6&assignmentId=bdfbb937-8310-4e35-9093-c41bd532cef2&projectId=bea99957-1862-4ad8-9558-57b91e42ce64","","null","<div style=""display: flex; justify-content: center; align-items: center;"">
                    <img src=""images/semantic/semantic_series_13/semantic_series_13_b.jpg"" style=""width: 300px; height: 300px;"" />
                  </div>","null","",""
"","","","","","html-keyboard-response","29","95986","0.0-22.0-2.0","73C9A33B152146C3B4EE43AC46030CC6","73C9A33B152146C3B4EE43AC46030CC6","bdfbb937-8310-4e35-9093-c41bd532cef2","bea99957-1862-4ad8-9558-57b91e42ce64","{""participantId"":""73C9A33B152146C3B4EE43AC46030CC6"",""assignmentId"":""bdfbb937-8310-4e35-9093-c41bd532cef2"",""projectId"":""bea99957-1862-4ad8-9558-57b91e42ce64""}","https://test12345.live/?participantId=73C9A33B152146C3B4EE43AC46030CC6&assignmentId=bdfbb937-8310-4e35-9093-c41bd532cef2&projectId=bea99957-1862-4ad8-9558-57b91e42ce64","","null","<div style=""display: flex; justify-content: center; align-items: center;"">
                    <img src=""images/semantic/semantic_series_13/semantic_series_13_c.jpg"" style=""width: 300px; height: 300px;"" />
                  </div>","null","",""
"","","","","","html-keyboard-response","30","98998","0.0-22.0-3.0","73C9A33B152146C3B4EE43AC46030CC6","73C9A33B152146C3B4EE43AC46030CC6","bdfbb937-8310-4e35-9093-c41bd532cef2","bea99957-1862-4ad8-9558-57b91e42ce64","{""participantId"":""73C9A33B152146C3B4EE43AC46030CC6"",""assignmentId"":""bdfbb937-8310-4e35-9093-c41bd532cef2"",""projectId"":""bea99957-1862-4ad8-9558-57b91e42ce64""}","https://test12345.live/?participantId=73C9A33B152146C3B4EE43AC46030CC6&assignmentId=bdfbb937-8310-4e35-9093-c41bd532cef2&projectId=bea99957-1862-4ad8-9558-57b91e42ce64","","null","<div style=""display: flex; justify-content: center; align-items: center;"">
                    <img src=""images/semantic/semantic_series_13/semantic_series_13_d.jpg"" style=""width: 300px; height: 300px;"" />
                  </div>","null","",""
"","","","","","html-button-response","31","100954","0.0-23.0","73C9A33B152146C3B4EE43AC46030CC6","73C9A33B152146C3B4EE43AC46030CC6","bdfbb937-8310-4e35-9093-c41bd532cef2","bea99957-1862-4ad8-9558-57b91e42ce64","{""participantId"":""73C9A33B152146C3B4EE43AC46030CC6"",""assignmentId"":""bdfbb937-8310-4e35-9093-c41bd532cef2"",""projectId"":""bea99957-1862-4ad8-9558-57b91e42ce64""}","https://test12345.live/?participantId=73C9A33B152146C3B4EE43AC46030CC6&assignmentId=bdfbb937-8310-4e35-9093-c41bd532cef2&projectId=bea99957-1862-4ad8-9558-57b91e42ce64","","1955","Was there a person in the picture?","0","",""
"","","","","","survey-likert","32","103105","0.0-24.0","73C9A33B152146C3B4EE43AC46030CC6","73C9A33B152146C3B4EE43AC46030CC6","bdfbb937-8310-4e35-9093-c41bd532cef2","bea99957-1862-4ad8-9558-57b91e42ce64","{""participantId"":""73C9A33B152146C3B4EE43AC46030CC6"",""assignmentId"":""bdfbb937-8310-4e35-9093-c41bd532cef2"",""projectId"":""bea99957-1862-4ad8-9558-57b91e42ce64""}","https://test12345.live/?participantId=73C9A33B152146C3B4EE43AC46030CC6&assignmentId=bdfbb937-8310-4e35-9093-c41bd532cef2&projectId=bea99957-1862-4ad8-9558-57b91e42ce64","","2138","","{""Q0"":3}","","[0]"
"","","","","","html-button-response","33","104436","0.0-25.0","73C9A33B152146C3B4EE43AC46030CC6","73C9A33B152146C3B4EE43AC46030CC6","bdfbb937-8310-4e35-9093-c41bd532cef2","bea99957-1862-4ad8-9558-57b91e42ce64","{""participantId"":""73C9A33B152146C3B4EE43AC46030CC6"",""assignmentId"":""bdfbb937-8310-4e35-9093-c41bd532cef2"",""projectId"":""bea99957-1862-4ad8-9558-57b91e42ce64""}","https://test12345.live/?participantId=73C9A33B152146C3B4EE43AC46030CC6&assignmentId=bdfbb937-8310-4e35-9093-c41bd532cef2&projectId=bea99957-1862-4ad8-9558-57b91e42ce64","","1327","
    <div style=""display: flex; justify-content: center; align-items: center;"">
      <img src=""images/red_deck_2.png"" style=""width: 300px; height: 300px; margin-right: 10px;"" />
      <img src=""images/blue_deck_1.png"" style=""width: 300px; height: 300px;"" />
    </div>","0","0",""
"","","","","","html-keyboard-response","34","107444","0.0-27.0-0.0","73C9A33B152146C3B4EE43AC46030CC6","73C9A33B152146C3B4EE43AC46030CC6","bdfbb937-8310-4e35-9093-c41bd532cef2","bea99957-1862-4ad8-9558-57b91e42ce64","{""participantId"":""73C9A33B152146C3B4EE43AC46030CC6"",""assignmentId"":""bdfbb937-8310-4e35-9093-c41bd532cef2"",""projectId"":""bea99957-1862-4ad8-9558-57b91e42ce64""}","https://test12345.live/?participantId=73C9A33B152146C3B4EE43AC46030CC6&assignmentId=bdfbb937-8310-4e35-9093-c41bd532cef2&projectId=bea99957-1862-4ad8-9558-57b91e42ce64","","null","<div style=""display: flex; justify-content: center; align-items: center;"">
                    <img src=""images/semantic/semantic_series_10/semantic_series_10_a.jpg"" style=""width: 300px; height: 300px;"" />
                  </div>","null","",""
"","","","","","html-keyboard-response","35","110456","0.0-27.0-1.0","73C9A33B152146C3B4EE43AC46030CC6","73C9A33B152146C3B4EE43AC46030CC6","bdfbb937-8310-4e35-9093-c41bd532cef2","bea99957-1862-4ad8-9558-57b91e42ce64","{""participantId"":""73C9A33B152146C3B4EE43AC46030CC6"",""assignmentId"":""bdfbb937-8310-4e35-9093-c41bd532cef2"",""projectId"":""bea99957-1862-4ad8-9558-57b91e42ce64""}","https://test12345.live/?participantId=73C9A33B152146C3B4EE43AC46030CC6&assignmentId=bdfbb937-8310-4e35-9093-c41bd532cef2&projectId=bea99957-1862-4ad8-9558-57b91e42ce64","","null","<div style=""display: flex; justify-content: center; align-items: center;"">
                    <img src=""images/semantic/semantic_series_10/semantic_series_10_b.jpg"" style=""width: 300px; height: 300px;"" />
                  </div>","null","",""
"","","","","","html-keyboard-response","36","113463","0.0-27.0-2.0","73C9A33B152146C3B4EE43AC46030CC6","73C9A33B152146C3B4EE43AC46030CC6","bdfbb937-8310-4e35-9093-c41bd532cef2","bea99957-1862-4ad8-9558-57b91e42ce64","{""participantId"":""73C9A33B152146C3B4EE43AC46030CC6"",""assignmentId"":""bdfbb937-8310-4e35-9093-c41bd532cef2"",""projectId"":""bea99957-1862-4ad8-9558-57b91e42ce64""}","https://test12345.live/?participantId=73C9A33B152146C3B4EE43AC46030CC6&assignmentId=bdfbb937-8310-4e35-9093-c41bd532cef2&projectId=bea99957-1862-4ad8-9558-57b91e42ce64","","null","<div style=""display: flex; justify-content: center; align-items: center;"">
                    <img src=""images/semantic/semantic_series_10/semantic_series_10_c.jpg"" style=""width: 300px; height: 300px;"" />
                  </div>","null","",""
"","","","","","html-keyboard-response","37","116471","0.0-27.0-3.0","73C9A33B152146C3B4EE43AC46030CC6","73C9A33B152146C3B4EE43AC46030CC6","bdfbb937-8310-4e35-9093-c41bd532cef2","bea99957-1862-4ad8-9558-57b91e42ce64","{""participantId"":""73C9A33B152146C3B4EE43AC46030CC6"",""assignmentId"":""bdfbb937-8310-4e35-9093-c41bd532cef2"",""projectId"":""bea99957-1862-4ad8-9558-57b91e42ce64""}","https://test12345.live/?participantId=73C9A33B152146C3B4EE43AC46030CC6&assignmentId=bdfbb937-8310-4e35-9093-c41bd532cef2&projectId=bea99957-1862-4ad8-9558-57b91e42ce64","","null","<div style=""display: flex; justify-content: center; align-items: center;"">
                    <img src=""images/semantic/semantic_series_10/semantic_series_10_d.jpg"" style=""width: 300px; height: 300px;"" />
                  </div>","null","",""
"","","","","","html-button-response","38","117836","0.0-28.0","73C9A33B152146C3B4EE43AC46030CC6","73C9A33B152146C3B4EE43AC46030CC6","bdfbb937-8310-4e35-9093-c41bd532cef2","bea99957-1862-4ad8-9558-57b91e42ce64","{""participantId"":""73C9A33B152146C3B4EE43AC46030CC6"",""assignmentId"":""bdfbb937-8310-4e35-9093-c41bd532cef2"",""projectId"":""bea99957-1862-4ad8-9558-57b91e42ce64""}","https://test12345.live/?participantId=73C9A33B152146C3B4EE43AC46030CC6&assignmentId=bdfbb937-8310-4e35-9093-c41bd532cef2&projectId=bea99957-1862-4ad8-9558-57b91e42ce64","","1363","Was there a person in the picture?","1","",""
"","","","","","survey-likert","39","120353","0.0-29.0","73C9A33B152146C3B4EE43AC46030CC6","73C9A33B152146C3B4EE43AC46030CC6","bdfbb937-8310-4e35-9093-c41bd532cef2","bea99957-1862-4ad8-9558-57b91e42ce64","{""participantId"":""73C9A33B152146C3B4EE43AC46030CC6"",""assignmentId"":""bdfbb937-8310-4e35-9093-c41bd532cef2"",""projectId"":""bea99957-1862-4ad8-9558-57b91e42ce64""}","https://test12345.live/?participantId=73C9A33B152146C3B4EE43AC46030CC6&assignmentId=bdfbb937-8310-4e35-9093-c41bd532cef2&projectId=bea99957-1862-4ad8-9558-57b91e42ce64","","2515","","{""Q0"":4}","","[0]"
"","","","","","html-button-response","40","121680","0.0-30.0","73C9A33B152146C3B4EE43AC46030CC6","73C9A33B152146C3B4EE43AC46030CC6","bdfbb937-8310-4e35-9093-c41bd532cef2","bea99957-1862-4ad8-9558-57b91e42ce64","{""participantId"":""73C9A33B152146C3B4EE43AC46030CC6"",""assignmentId"":""bdfbb937-8310-4e35-9093-c41bd532cef2"",""projectId"":""bea99957-1862-4ad8-9558-57b91e42ce64""}","https://test12345.live/?participantId=73C9A33B152146C3B4EE43AC46030CC6&assignmentId=bdfbb937-8310-4e35-9093-c41bd532cef2&projectId=bea99957-1862-4ad8-9558-57b91e42ce64","","1324","
    <div style=""display: flex; justify-content: center; align-items: center;"">
      <img src=""images/red_deck_2.png"" style=""width: 300px; height: 300px; margin-right: 10px;"" />
      <img src=""images/blue_deck_1.png"" style=""width: 300px; height: 300px;"" />
    </div>","1","1",""
"","","","","","html-keyboard-response","41","124689","0.0-31.0-0.0","73C9A33B152146C3B4EE43AC46030CC6","73C9A33B152146C3B4EE43AC46030CC6","bdfbb937-8310-4e35-9093-c41bd532cef2","bea99957-1862-4ad8-9558-57b91e42ce64","{""participantId"":""73C9A33B152146C3B4EE43AC46030CC6"",""assignmentId"":""bdfbb937-8310-4e35-9093-c41bd532cef2"",""projectId"":""bea99957-1862-4ad8-9558-57b91e42ce64""}","https://test12345.live/?participantId=73C9A33B152146C3B4EE43AC46030CC6&assignmentId=bdfbb937-8310-4e35-9093-c41bd532cef2&projectId=bea99957-1862-4ad8-9558-57b91e42ce64","","null","<div style=""display: flex; justify-content: center; align-items: center;"">
                    <img src=""images/causal/causal_series_3/causal_series_3_a.jpg"" style=""width: 300px; height: 300px;"" />
                  </div>","null","",""
"","","","","","html-keyboard-response","42","127704","0.0-31.0-1.0","73C9A33B152146C3B4EE43AC46030CC6","73C9A33B152146C3B4EE43AC46030CC6","bdfbb937-8310-4e35-9093-c41bd532cef2","bea99957-1862-4ad8-9558-57b91e42ce64","{""participantId"":""73C9A33B152146C3B4EE43AC46030CC6"",""assignmentId"":""bdfbb937-8310-4e35-9093-c41bd532cef2"",""projectId"":""bea99957-1862-4ad8-9558-57b91e42ce64""}","https://test12345.live/?participantId=73C9A33B152146C3B4EE43AC46030CC6&assignmentId=bdfbb937-8310-4e35-9093-c41bd532cef2&projectId=bea99957-1862-4ad8-9558-57b91e42ce64","","null","<div style=""display: flex; justify-content: center; align-items: center;"">
                    <img src=""images/causal/causal_series_3/causal_series_3_b.jpg"" style=""width: 300px; height: 300px;"" />
                  </div>","null","",""
"","","","","","html-keyboard-response","43","130722","0.0-31.0-2.0","73C9A33B152146C3B4EE43AC46030CC6","73C9A33B152146C3B4EE43AC46030CC6","bdfbb937-8310-4e35-9093-c41bd532cef2","bea99957-1862-4ad8-9558-57b91e42ce64","{""participantId"":""73C9A33B152146C3B4EE43AC46030CC6"",""assignmentId"":""bdfbb937-8310-4e35-9093-c41bd532cef2"",""projectId"":""bea99957-1862-4ad8-9558-57b91e42ce64""}","https://test12345.live/?participantId=73C9A33B152146C3B4EE43AC46030CC6&assignmentId=bdfbb937-8310-4e35-9093-c41bd532cef2&projectId=bea99957-1862-4ad8-9558-57b91e42ce64","","null","<div style=""display: flex; justify-content: center; align-items: center;"">
                    <img src=""images/causal/causal_series_3/causal_series_3_c.jpg"" style=""width: 300px; height: 300px;"" />
                  </div>","null","",""
"","","","","","html-keyboard-response","44","133738","0.0-31.0-3.0","73C9A33B152146C3B4EE43AC46030CC6","73C9A33B152146C3B4EE43AC46030CC6","bdfbb937-8310-4e35-9093-c41bd532cef2","bea99957-1862-4ad8-9558-57b91e42ce64","{""participantId"":""73C9A33B152146C3B4EE43AC46030CC6"",""assignmentId"":""bdfbb937-8310-4e35-9093-c41bd532cef2"",""projectId"":""bea99957-1862-4ad8-9558-57b91e42ce64""}","https://test12345.live/?participantId=73C9A33B152146C3B4EE43AC46030CC6&assignmentId=bdfbb937-8310-4e35-9093-c41bd532cef2&projectId=bea99957-1862-4ad8-9558-57b91e42ce64","","null","<div style=""display: flex; justify-content: center; align-items: center;"">
                    <img src=""images/causal/causal_series_3/causal_series_3_d.jpg"" style=""width: 300px; height: 300px;"" />
                  </div>","null","",""
"","","","","","html-button-response","45","135108","0.0-33.0","73C9A33B152146C3B4EE43AC46030CC6","73C9A33B152146C3B4EE43AC46030CC6","bdfbb937-8310-4e35-9093-c41bd532cef2","bea99957-1862-4ad8-9558-57b91e42ce64","{""participantId"":""73C9A33B152146C3B4EE43AC46030CC6"",""assignmentId"":""bdfbb937-8310-4e35-9093-c41bd532cef2"",""projectId"":""bea99957-1862-4ad8-9558-57b91e42ce64""}","https://test12345.live/?participantId=73C9A33B152146C3B4EE43AC46030CC6&assignmentId=bdfbb937-8310-4e35-9093-c41bd532cef2&projectId=bea99957-1862-4ad8-9558-57b91e42ce64","","1368","Was there a person in the picture?","0","",""
"","","","","","survey-likert","46","137400","0.0-34.0","73C9A33B152146C3B4EE43AC46030CC6","73C9A33B152146C3B4EE43AC46030CC6","bdfbb937-8310-4e35-9093-c41bd532cef2","bea99957-1862-4ad8-9558-57b91e42ce64","{""participantId"":""73C9A33B152146C3B4EE43AC46030CC6"",""assignmentId"":""bdfbb937-8310-4e35-9093-c41bd532cef2"",""projectId"":""bea99957-1862-4ad8-9558-57b91e42ce64""}","https://test12345.live/?participantId=73C9A33B152146C3B4EE43AC46030CC6&assignmentId=bdfbb937-8310-4e35-9093-c41bd532cef2&projectId=bea99957-1862-4ad8-9558-57b91e42ce64","","2289","","{""Q0"":3}","","[0]"
"","","","","","html-button-response","47","138407","0.0-35.0","73C9A33B152146C3B4EE43AC46030CC6","73C9A33B152146C3B4EE43AC46030CC6","bdfbb937-8310-4e35-9093-c41bd532cef2","bea99957-1862-4ad8-9558-57b91e42ce64","{""participantId"":""73C9A33B152146C3B4EE43AC46030CC6"",""assignmentId"":""bdfbb937-8310-4e35-9093-c41bd532cef2"",""projectId"":""bea99957-1862-4ad8-9558-57b91e42ce64""}","https://test12345.live/?participantId=73C9A33B152146C3B4EE43AC46030CC6&assignmentId=bdfbb937-8310-4e35-9093-c41bd532cef2&projectId=bea99957-1862-4ad8-9558-57b91e42ce64","","1006","
    <div style=""display: flex; justify-content: center; align-items: center;"">
      <img src=""images/red_deck_2.png"" style=""width: 300px; height: 300px; margin-right: 10px;"" />
      <img src=""images/blue_deck_1.png"" style=""width: 300px; height: 300px;"" />
    </div>","0","0",""
"","","","","","html-keyboard-response","48","141419","0.0-37.0-0.0","73C9A33B152146C3B4EE43AC46030CC6","73C9A33B152146C3B4EE43AC46030CC6","bdfbb937-8310-4e35-9093-c41bd532cef2","bea99957-1862-4ad8-9558-57b91e42ce64","{""participantId"":""73C9A33B152146C3B4EE43AC46030CC6"",""assignmentId"":""bdfbb937-8310-4e35-9093-c41bd532cef2"",""projectId"":""bea99957-1862-4ad8-9558-57b91e42ce64""}","https://test12345.live/?participantId=73C9A33B152146C3B4EE43AC46030CC6&assignmentId=bdfbb937-8310-4e35-9093-c41bd532cef2&projectId=bea99957-1862-4ad8-9558-57b91e42ce64","","null","<div style=""display: flex; justify-content: center; align-items: center;"">
                    <img src=""images/semantic/semantic_series_9/semantic_series_9_a.jpg"" style=""width: 300px; height: 300px;"" />
                  </div>","null","",""
"","","","","","html-keyboard-response","49","144424","0.0-37.0-1.0","73C9A33B152146C3B4EE43AC46030CC6","73C9A33B152146C3B4EE43AC46030CC6","bdfbb937-8310-4e35-9093-c41bd532cef2","bea99957-1862-4ad8-9558-57b91e42ce64","{""participantId"":""73C9A33B152146C3B4EE43AC46030CC6"",""assignmentId"":""bdfbb937-8310-4e35-9093-c41bd532cef2"",""projectId"":""bea99957-1862-4ad8-9558-57b91e42ce64""}","https://test12345.live/?participantId=73C9A33B152146C3B4EE43AC46030CC6&assignmentId=bdfbb937-8310-4e35-9093-c41bd532cef2&projectId=bea99957-1862-4ad8-9558-57b91e42ce64","","null","<div style=""display: flex; justify-content: center; align-items: center;"">
                    <img src=""images/semantic/semantic_series_9/semantic_series_9_b.jpg"" style=""width: 300px; height: 300px;"" />
                  </div>","null","",""
"","","","","","html-keyboard-response","50","147438","0.0-37.0-2.0","73C9A33B152146C3B4EE43AC46030CC6","73C9A33B152146C3B4EE43AC46030CC6","bdfbb937-8310-4e35-9093-c41bd532cef2","bea99957-1862-4ad8-9558-57b91e42ce64","{""participantId"":""73C9A33B152146C3B4EE43AC46030CC6"",""assignmentId"":""bdfbb937-8310-4e35-9093-c41bd532cef2"",""projectId"":""bea99957-1862-4ad8-9558-57b91e42ce64""}","https://test12345.live/?participantId=73C9A33B152146C3B4EE43AC46030CC6&assignmentId=bdfbb937-8310-4e35-9093-c41bd532cef2&projectId=bea99957-1862-4ad8-9558-57b91e42ce64","","null","<div style=""display: flex; justify-content: center; align-items: center;"">
                    <img src=""images/semantic/semantic_series_9/semantic_series_9_c.jpg"" style=""width: 300px; height: 300px;"" />
                  </div>","null","",""
"","","","","","html-keyboard-response","51","150442","0.0-37.0-3.0","73C9A33B152146C3B4EE43AC46030CC6","73C9A33B152146C3B4EE43AC46030CC6","bdfbb937-8310-4e35-9093-c41bd532cef2","bea99957-1862-4ad8-9558-57b91e42ce64","{""participantId"":""73C9A33B152146C3B4EE43AC46030CC6"",""assignmentId"":""bdfbb937-8310-4e35-9093-c41bd532cef2"",""projectId"":""bea99957-1862-4ad8-9558-57b91e42ce64""}","https://test12345.live/?participantId=73C9A33B152146C3B4EE43AC46030CC6&assignmentId=bdfbb937-8310-4e35-9093-c41bd532cef2&projectId=bea99957-1862-4ad8-9558-57b91e42ce64","","null","<div style=""display: flex; justify-content: center; align-items: center;"">
                    <img src=""images/semantic/semantic_series_9/semantic_series_9_d.jpg"" style=""width: 300px; height: 300px;"" />
                  </div>","null","",""
"","","","","","html-button-response","52","152126","0.0-38.0","73C9A33B152146C3B4EE43AC46030CC6","73C9A33B152146C3B4EE43AC46030CC6","bdfbb937-8310-4e35-9093-c41bd532cef2","bea99957-1862-4ad8-9558-57b91e42ce64","{""participantId"":""73C9A33B152146C3B4EE43AC46030CC6"",""assignmentId"":""bdfbb937-8310-4e35-9093-c41bd532cef2"",""projectId"":""bea99957-1862-4ad8-9558-57b91e42ce64""}","https://test12345.live/?participantId=73C9A33B152146C3B4EE43AC46030CC6&assignmentId=bdfbb937-8310-4e35-9093-c41bd532cef2&projectId=bea99957-1862-4ad8-9558-57b91e42ce64","","1683","Was there a person in the picture?","1","",""
"","","","","","survey-likert","53","154848","0.0-39.0","73C9A33B152146C3B4EE43AC46030CC6","73C9A33B152146C3B4EE43AC46030CC6","bdfbb937-8310-4e35-9093-c41bd532cef2","bea99957-1862-4ad8-9558-57b91e42ce64","{""participantId"":""73C9A33B152146C3B4EE43AC46030CC6"",""assignmentId"":""bdfbb937-8310-4e35-9093-c41bd532cef2"",""projectId"":""bea99957-1862-4ad8-9558-57b91e42ce64""}","https://test12345.live/?participantId=73C9A33B152146C3B4EE43AC46030CC6&assignmentId=bdfbb937-8310-4e35-9093-c41bd532cef2&projectId=bea99957-1862-4ad8-9558-57b91e42ce64","","2720","","{""Q0"":3}","","[0]"
"","","","","","html-button-response","54","155879","0.0-40.0","73C9A33B152146C3B4EE43AC46030CC6","73C9A33B152146C3B4EE43AC46030CC6","bdfbb937-8310-4e35-9093-c41bd532cef2","bea99957-1862-4ad8-9558-57b91e42ce64","{""participantId"":""73C9A33B152146C3B4EE43AC46030CC6"",""assignmentId"":""bdfbb937-8310-4e35-9093-c41bd532cef2"",""projectId"":""bea99957-1862-4ad8-9558-57b91e42ce64""}","https://test12345.live/?participantId=73C9A33B152146C3B4EE43AC46030CC6&assignmentId=bdfbb937-8310-4e35-9093-c41bd532cef2&projectId=bea99957-1862-4ad8-9558-57b91e42ce64","","1028","
    <div style=""display: flex; justify-content: center; align-items: center;"">
      <img src=""images/red_deck_2.png"" style=""width: 300px; height: 300px; margin-right: 10px;"" />
      <img src=""images/blue_deck_1.png"" style=""width: 300px; height: 300px;"" />
    </div>","0","0",""
"","","","","","html-keyboard-response","55","158895","0.0-42.0-0.0","73C9A33B152146C3B4EE43AC46030CC6","73C9A33B152146C3B4EE43AC46030CC6","bdfbb937-8310-4e35-9093-c41bd532cef2","bea99957-1862-4ad8-9558-57b91e42ce64","{""participantId"":""73C9A33B152146C3B4EE43AC46030CC6"",""assignmentId"":""bdfbb937-8310-4e35-9093-c41bd532cef2"",""projectId"":""bea99957-1862-4ad8-9558-57b91e42ce64""}","https://test12345.live/?participantId=73C9A33B152146C3B4EE43AC46030CC6&assignmentId=bdfbb937-8310-4e35-9093-c41bd532cef2&projectId=bea99957-1862-4ad8-9558-57b91e42ce64","","null","<div style=""display: flex; justify-content: center; align-items: center;"">
                    <img src=""images/semantic/semantic_series_4/semantic_series_4_a.jpg"" style=""width: 300px; height: 300px;"" />
                  </div>","null","",""
"","","","","","html-keyboard-response","56","161901","0.0-42.0-1.0","73C9A33B152146C3B4EE43AC46030CC6","73C9A33B152146C3B4EE43AC46030CC6","bdfbb937-8310-4e35-9093-c41bd532cef2","bea99957-1862-4ad8-9558-57b91e42ce64","{""participantId"":""73C9A33B152146C3B4EE43AC46030CC6"",""assignmentId"":""bdfbb937-8310-4e35-9093-c41bd532cef2"",""projectId"":""bea99957-1862-4ad8-9558-57b91e42ce64""}","https://test12345.live/?participantId=73C9A33B152146C3B4EE43AC46030CC6&assignmentId=bdfbb937-8310-4e35-9093-c41bd532cef2&projectId=bea99957-1862-4ad8-9558-57b91e42ce64","","null","<div style=""display: flex; justify-content: center; align-items: center;"">
                    <img src=""images/semantic/semantic_series_4/semantic_series_4_b.jpg"" style=""width: 300px; height: 300px;"" />
                  </div>","null","",""
"","","","","","html-keyboard-response","57","164918","0.0-42.0-2.0","73C9A33B152146C3B4EE43AC46030CC6","73C9A33B152146C3B4EE43AC46030CC6","bdfbb937-8310-4e35-9093-c41bd532cef2","bea99957-1862-4ad8-9558-57b91e42ce64","{""participantId"":""73C9A33B152146C3B4EE43AC46030CC6"",""assignmentId"":""bdfbb937-8310-4e35-9093-c41bd532cef2"",""projectId"":""bea99957-1862-4ad8-9558-57b91e42ce64""}","https://test12345.live/?participantId=73C9A33B152146C3B4EE43AC46030CC6&assignmentId=bdfbb937-8310-4e35-9093-c41bd532cef2&projectId=bea99957-1862-4ad8-9558-57b91e42ce64","","null","<div style=""display: flex; justify-content: center; align-items: center;"">
                    <img src=""images/semantic/semantic_series_4/semantic_series_4_c.jpg"" style=""width: 300px; height: 300px;"" />
                  </div>","null","",""
"","","","","","html-keyboard-response","58","167929","0.0-42.0-3.0","73C9A33B152146C3B4EE43AC46030CC6","73C9A33B152146C3B4EE43AC46030CC6","bdfbb937-8310-4e35-9093-c41bd532cef2","bea99957-1862-4ad8-9558-57b91e42ce64","{""participantId"":""73C9A33B152146C3B4EE43AC46030CC6"",""assignmentId"":""bdfbb937-8310-4e35-9093-c41bd532cef2"",""projectId"":""bea99957-1862-4ad8-9558-57b91e42ce64""}","https://test12345.live/?participantId=73C9A33B152146C3B4EE43AC46030CC6&assignmentId=bdfbb937-8310-4e35-9093-c41bd532cef2&projectId=bea99957-1862-4ad8-9558-57b91e42ce64","","null","<div style=""display: flex; justify-content: center; align-items: center;"">
                    <img src=""images/semantic/semantic_series_4/semantic_series_4_d.jpg"" style=""width: 300px; height: 300px;"" />
                  </div>","null","",""
"","","","","","html-button-response","59","169560","0.0-43.0","73C9A33B152146C3B4EE43AC46030CC6","73C9A33B152146C3B4EE43AC46030CC6","bdfbb937-8310-4e35-9093-c41bd532cef2","bea99957-1862-4ad8-9558-57b91e42ce64","{""participantId"":""73C9A33B152146C3B4EE43AC46030CC6"",""assignmentId"":""bdfbb937-8310-4e35-9093-c41bd532cef2"",""projectId"":""bea99957-1862-4ad8-9558-57b91e42ce64""}","https://test12345.live/?participantId=73C9A33B152146C3B4EE43AC46030CC6&assignmentId=bdfbb937-8310-4e35-9093-c41bd532cef2&projectId=bea99957-1862-4ad8-9558-57b91e42ce64","","1626","Was there a person in the picture?","1","",""
"","","","","","survey-likert","60","171577","0.0-44.0","73C9A33B152146C3B4EE43AC46030CC6","73C9A33B152146C3B4EE43AC46030CC6","bdfbb937-8310-4e35-9093-c41bd532cef2","bea99957-1862-4ad8-9558-57b91e42ce64","{""participantId"":""73C9A33B152146C3B4EE43AC46030CC6"",""assignmentId"":""bdfbb937-8310-4e35-9093-c41bd532cef2"",""projectId"":""bea99957-1862-4ad8-9558-57b91e42ce64""}","https://test12345.live/?participantId=73C9A33B152146C3B4EE43AC46030CC6&assignmentId=bdfbb937-8310-4e35-9093-c41bd532cef2&projectId=bea99957-1862-4ad8-9558-57b91e42ce64","","2015","","{""Q0"":3}","","[0]"
"","","","","","html-button-response","61","172769","0.0-45.0","73C9A33B152146C3B4EE43AC46030CC6","73C9A33B152146C3B4EE43AC46030CC6","bdfbb937-8310-4e35-9093-c41bd532cef2","bea99957-1862-4ad8-9558-57b91e42ce64","{""participantId"":""73C9A33B152146C3B4EE43AC46030CC6"",""assignmentId"":""bdfbb937-8310-4e35-9093-c41bd532cef2"",""projectId"":""bea99957-1862-4ad8-9558-57b91e42ce64""}","https://test12345.live/?participantId=73C9A33B152146C3B4EE43AC46030CC6&assignmentId=bdfbb937-8310-4e35-9093-c41bd532cef2&projectId=bea99957-1862-4ad8-9558-57b91e42ce64","","1189","
    <div style=""display: flex; justify-content: center; align-items: center;"">
      <img src=""images/red_deck_2.png"" style=""width: 300px; height: 300px; margin-right: 10px;"" />
      <img src=""images/blue_deck_1.png"" style=""width: 300px; height: 300px;"" />
    </div>","1","1",""
"","","","","","html-keyboard-response","62","175782","0.0-46.0-0.0","73C9A33B152146C3B4EE43AC46030CC6","73C9A33B152146C3B4EE43AC46030CC6","bdfbb937-8310-4e35-9093-c41bd532cef2","bea99957-1862-4ad8-9558-57b91e42ce64","{""participantId"":""73C9A33B152146C3B4EE43AC46030CC6"",""assignmentId"":""bdfbb937-8310-4e35-9093-c41bd532cef2"",""projectId"":""bea99957-1862-4ad8-9558-57b91e42ce64""}","https://test12345.live/?participantId=73C9A33B152146C3B4EE43AC46030CC6&assignmentId=bdfbb937-8310-4e35-9093-c41bd532cef2&projectId=bea99957-1862-4ad8-9558-57b91e42ce64","","null","<div style=""display: flex; justify-content: center; align-items: center;"">
                    <img src=""images/causal/causal_series_13/causal_series_13_a.jpg"" style=""width: 300px; height: 300px;"" />
                  </div>","null","",""
"","","","","","html-keyboard-response","63","178785","0.0-46.0-1.0","73C9A33B152146C3B4EE43AC46030CC6","73C9A33B152146C3B4EE43AC46030CC6","bdfbb937-8310-4e35-9093-c41bd532cef2","bea99957-1862-4ad8-9558-57b91e42ce64","{""participantId"":""73C9A33B152146C3B4EE43AC46030CC6"",""assignmentId"":""bdfbb937-8310-4e35-9093-c41bd532cef2"",""projectId"":""bea99957-1862-4ad8-9558-57b91e42ce64""}","https://test12345.live/?participantId=73C9A33B152146C3B4EE43AC46030CC6&assignmentId=bdfbb937-8310-4e35-9093-c41bd532cef2&projectId=bea99957-1862-4ad8-9558-57b91e42ce64","","null","<div style=""display: flex; justify-content: center; align-items: center;"">
                    <img src=""images/causal/causal_series_13/causal_series_13_b.jpg"" style=""width: 300px; height: 300px;"" />
                  </div>","null","",""
"","","","","","html-keyboard-response","64","181793","0.0-46.0-2.0","73C9A33B152146C3B4EE43AC46030CC6","73C9A33B152146C3B4EE43AC46030CC6","bdfbb937-8310-4e35-9093-c41bd532cef2","bea99957-1862-4ad8-9558-57b91e42ce64","{""participantId"":""73C9A33B152146C3B4EE43AC46030CC6"",""assignmentId"":""bdfbb937-8310-4e35-9093-c41bd532cef2"",""projectId"":""bea99957-1862-4ad8-9558-57b91e42ce64""}","https://test12345.live/?participantId=73C9A33B152146C3B4EE43AC46030CC6&assignmentId=bdfbb937-8310-4e35-9093-c41bd532cef2&projectId=bea99957-1862-4ad8-9558-57b91e42ce64","","null","<div style=""display: flex; justify-content: center; align-items: center;"">
                    <img src=""images/causal/causal_series_13/causal_series_13_c.jpg"" style=""width: 300px; height: 300px;"" />
                  </div>","null","",""
"","","","","","html-keyboard-response","65","184806","0.0-46.0-3.0","73C9A33B152146C3B4EE43AC46030CC6","73C9A33B152146C3B4EE43AC46030CC6","bdfbb937-8310-4e35-9093-c41bd532cef2","bea99957-1862-4ad8-9558-57b91e42ce64","{""participantId"":""73C9A33B152146C3B4EE43AC46030CC6"",""assignmentId"":""bdfbb937-8310-4e35-9093-c41bd532cef2"",""projectId"":""bea99957-1862-4ad8-9558-57b91e42ce64""}","https://test12345.live/?participantId=73C9A33B152146C3B4EE43AC46030CC6&assignmentId=bdfbb937-8310-4e35-9093-c41bd532cef2&projectId=bea99957-1862-4ad8-9558-57b91e42ce64","","null","<div style=""display: flex; justify-content: center; align-items: center;"">
                    <img src=""images/causal/causal_series_13/causal_series_13_d.jpg"" style=""width: 300px; height: 300px;"" />
                  </div>","null","",""
"","","","","","html-button-response","66","185921","0.0-48.0","73C9A33B152146C3B4EE43AC46030CC6","73C9A33B152146C3B4EE43AC46030CC6","bdfbb937-8310-4e35-9093-c41bd532cef2","bea99957-1862-4ad8-9558-57b91e42ce64","{""participantId"":""73C9A33B152146C3B4EE43AC46030CC6"",""assignmentId"":""bdfbb937-8310-4e35-9093-c41bd532cef2"",""projectId"":""bea99957-1862-4ad8-9558-57b91e42ce64""}","https://test12345.live/?participantId=73C9A33B152146C3B4EE43AC46030CC6&assignmentId=bdfbb937-8310-4e35-9093-c41bd532cef2&projectId=bea99957-1862-4ad8-9558-57b91e42ce64","","1114","Was there a person in the picture?","0","",""
"","","","","","survey-likert","67","189069","0.0-49.0","73C9A33B152146C3B4EE43AC46030CC6","73C9A33B152146C3B4EE43AC46030CC6","bdfbb937-8310-4e35-9093-c41bd532cef2","bea99957-1862-4ad8-9558-57b91e42ce64","{""participantId"":""73C9A33B152146C3B4EE43AC46030CC6"",""assignmentId"":""bdfbb937-8310-4e35-9093-c41bd532cef2"",""projectId"":""bea99957-1862-4ad8-9558-57b91e42ce64""}","https://test12345.live/?participantId=73C9A33B152146C3B4EE43AC46030CC6&assignmentId=bdfbb937-8310-4e35-9093-c41bd532cef2&projectId=bea99957-1862-4ad8-9558-57b91e42ce64","","3146","","{""Q0"":3}","","[0]"
"","","","","","html-button-response","68","190267","0.0-50.0","73C9A33B152146C3B4EE43AC46030CC6","73C9A33B152146C3B4EE43AC46030CC6","bdfbb937-8310-4e35-9093-c41bd532cef2","bea99957-1862-4ad8-9558-57b91e42ce64","{""participantId"":""73C9A33B152146C3B4EE43AC46030CC6"",""assignmentId"":""bdfbb937-8310-4e35-9093-c41bd532cef2"",""projectId"":""bea99957-1862-4ad8-9558-57b91e42ce64""}","https://test12345.live/?participantId=73C9A33B152146C3B4EE43AC46030CC6&assignmentId=bdfbb937-8310-4e35-9093-c41bd532cef2&projectId=bea99957-1862-4ad8-9558-57b91e42ce64","","1194","
    <div style=""display: flex; justify-content: center; align-items: center;"">
      <img src=""images/red_deck_2.png"" style=""width: 300px; height: 300px; margin-right: 10px;"" />
      <img src=""images/blue_deck_1.png"" style=""width: 300px; height: 300px;"" />
    </div>","1","1",""
"","","","","","html-keyboard-response","69","193280","0.0-51.0-0.0","73C9A33B152146C3B4EE43AC46030CC6","73C9A33B152146C3B4EE43AC46030CC6","bdfbb937-8310-4e35-9093-c41bd532cef2","bea99957-1862-4ad8-9558-57b91e42ce64","{""participantId"":""73C9A33B152146C3B4EE43AC46030CC6"",""assignmentId"":""bdfbb937-8310-4e35-9093-c41bd532cef2"",""projectId"":""bea99957-1862-4ad8-9558-57b91e42ce64""}","https://test12345.live/?participantId=73C9A33B152146C3B4EE43AC46030CC6&assignmentId=bdfbb937-8310-4e35-9093-c41bd532cef2&projectId=bea99957-1862-4ad8-9558-57b91e42ce64","","null","<div style=""display: flex; justify-content: center; align-items: center;"">
                    <img src=""images/causal/causal_series_9/causal_series_9_a.jpg"" style=""width: 300px; height: 300px;"" />
                  </div>","null","",""
"","","","","","html-keyboard-response","70","196291","0.0-51.0-1.0","73C9A33B152146C3B4EE43AC46030CC6","73C9A33B152146C3B4EE43AC46030CC6","bdfbb937-8310-4e35-9093-c41bd532cef2","bea99957-1862-4ad8-9558-57b91e42ce64","{""participantId"":""73C9A33B152146C3B4EE43AC46030CC6"",""assignmentId"":""bdfbb937-8310-4e35-9093-c41bd532cef2"",""projectId"":""bea99957-1862-4ad8-9558-57b91e42ce64""}","https://test12345.live/?participantId=73C9A33B152146C3B4EE43AC46030CC6&assignmentId=bdfbb937-8310-4e35-9093-c41bd532cef2&projectId=bea99957-1862-4ad8-9558-57b91e42ce64","","null","<div style=""display: flex; justify-content: center; align-items: center;"">
                    <img src=""images/causal/causal_series_9/causal_series_9_b.jpg"" style=""width: 300px; height: 300px;"" />
                  </div>","null","",""
"","","","","","html-keyboard-response","71","199299","0.0-51.0-2.0","73C9A33B152146C3B4EE43AC46030CC6","73C9A33B152146C3B4EE43AC46030CC6","bdfbb937-8310-4e35-9093-c41bd532cef2","bea99957-1862-4ad8-9558-57b91e42ce64","{""participantId"":""73C9A33B152146C3B4EE43AC46030CC6"",""assignmentId"":""bdfbb937-8310-4e35-9093-c41bd532cef2"",""projectId"":""bea99957-1862-4ad8-9558-57b91e42ce64""}","https://test12345.live/?participantId=73C9A33B152146C3B4EE43AC46030CC6&assignmentId=bdfbb937-8310-4e35-9093-c41bd532cef2&projectId=bea99957-1862-4ad8-9558-57b91e42ce64","","null","<div style=""display: flex; justify-content: center; align-items: center;"">
                    <img src=""images/causal/causal_series_9/causal_series_9_c.jpg"" style=""width: 300px; height: 300px;"" />
                  </div>","null","",""
"","","","","","html-keyboard-response","72","202305","0.0-51.0-3.0","73C9A33B152146C3B4EE43AC46030CC6","73C9A33B152146C3B4EE43AC46030CC6","bdfbb937-8310-4e35-9093-c41bd532cef2","bea99957-1862-4ad8-9558-57b91e42ce64","{""participantId"":""73C9A33B152146C3B4EE43AC46030CC6"",""assignmentId"":""bdfbb937-8310-4e35-9093-c41bd532cef2"",""projectId"":""bea99957-1862-4ad8-9558-57b91e42ce64""}","https://test12345.live/?participantId=73C9A33B152146C3B4EE43AC46030CC6&assignmentId=bdfbb937-8310-4e35-9093-c41bd532cef2&projectId=bea99957-1862-4ad8-9558-57b91e42ce64","","null","<div style=""display: flex; justify-content: center; align-items: center;"">
                    <img src=""images/causal/causal_series_9/causal_series_9_d.jpg"" style=""width: 300px; height: 300px;"" />
                  </div>","null","",""
"","","","","","html-button-response","73","203466","0.0-53.0","73C9A33B152146C3B4EE43AC46030CC6","73C9A33B152146C3B4EE43AC46030CC6","bdfbb937-8310-4e35-9093-c41bd532cef2","bea99957-1862-4ad8-9558-57b91e42ce64","{""participantId"":""73C9A33B152146C3B4EE43AC46030CC6"",""assignmentId"":""bdfbb937-8310-4e35-9093-c41bd532cef2"",""projectId"":""bea99957-1862-4ad8-9558-57b91e42ce64""}","https://test12345.live/?participantId=73C9A33B152146C3B4EE43AC46030CC6&assignmentId=bdfbb937-8310-4e35-9093-c41bd532cef2&projectId=bea99957-1862-4ad8-9558-57b91e42ce64","","1159","Was there a person in the picture?","1","",""
"","","","","","survey-likert","74","205393","0.0-54.0","73C9A33B152146C3B4EE43AC46030CC6","73C9A33B152146C3B4EE43AC46030CC6","bdfbb937-8310-4e35-9093-c41bd532cef2","bea99957-1862-4ad8-9558-57b91e42ce64","{""participantId"":""73C9A33B152146C3B4EE43AC46030CC6"",""assignmentId"":""bdfbb937-8310-4e35-9093-c41bd532cef2"",""projectId"":""bea99957-1862-4ad8-9558-57b91e42ce64""}","https://test12345.live/?participantId=73C9A33B152146C3B4EE43AC46030CC6&assignmentId=bdfbb937-8310-4e35-9093-c41bd532cef2&projectId=bea99957-1862-4ad8-9558-57b91e42ce64","","1925","","{""Q0"":3}","","[0]"
"","","","","","html-button-response","75","206374","0.0-55.0","73C9A33B152146C3B4EE43AC46030CC6","73C9A33B152146C3B4EE43AC46030CC6","bdfbb937-8310-4e35-9093-c41bd532cef2","bea99957-1862-4ad8-9558-57b91e42ce64","{""participantId"":""73C9A33B152146C3B4EE43AC46030CC6"",""assignmentId"":""bdfbb937-8310-4e35-9093-c41bd532cef2"",""projectId"":""bea99957-1862-4ad8-9558-57b91e42ce64""}","https://test12345.live/?participantId=73C9A33B152146C3B4EE43AC46030CC6&assignmentId=bdfbb937-8310-4e35-9093-c41bd532cef2&projectId=bea99957-1862-4ad8-9558-57b91e42ce64","","979","
    <div style=""display: flex; justify-content: center; align-items: center;"">
      <img src=""images/red_deck_2.png"" style=""width: 300px; height: 300px; margin-right: 10px;"" />
      <img src=""images/blue_deck_1.png"" style=""width: 300px; height: 300px;"" />
    </div>","0","0",""
"","","","","","html-keyboard-response","76","209382","0.0-57.0-0.0","73C9A33B152146C3B4EE43AC46030CC6","73C9A33B152146C3B4EE43AC46030CC6","bdfbb937-8310-4e35-9093-c41bd532cef2","bea99957-1862-4ad8-9558-57b91e42ce64","{""participantId"":""73C9A33B152146C3B4EE43AC46030CC6"",""assignmentId"":""bdfbb937-8310-4e35-9093-c41bd532cef2"",""projectId"":""bea99957-1862-4ad8-9558-57b91e42ce64""}","https://test12345.live/?participantId=73C9A33B152146C3B4EE43AC46030CC6&assignmentId=bdfbb937-8310-4e35-9093-c41bd532cef2&projectId=bea99957-1862-4ad8-9558-57b91e42ce64","","null","<div style=""display: flex; justify-content: center; align-items: center;"">
                    <img src=""images/semantic/semantic_series_5/semantic_series_5_a.jpg"" style=""width: 300px; height: 300px;"" />
                  </div>","null","",""
"","","","","","html-keyboard-response","77","212397","0.0-57.0-1.0","73C9A33B152146C3B4EE43AC46030CC6","73C9A33B152146C3B4EE43AC46030CC6","bdfbb937-8310-4e35-9093-c41bd532cef2","bea99957-1862-4ad8-9558-57b91e42ce64","{""participantId"":""73C9A33B152146C3B4EE43AC46030CC6"",""assignmentId"":""bdfbb937-8310-4e35-9093-c41bd532cef2"",""projectId"":""bea99957-1862-4ad8-9558-57b91e42ce64""}","https://test12345.live/?participantId=73C9A33B152146C3B4EE43AC46030CC6&assignmentId=bdfbb937-8310-4e35-9093-c41bd532cef2&projectId=bea99957-1862-4ad8-9558-57b91e42ce64","","null","<div style=""display: flex; justify-content: center; align-items: center;"">
                    <img src=""images/semantic/semantic_series_5/semantic_series_5_b.jpg"" style=""width: 300px; height: 300px;"" />
                  </div>","null","",""
"","","","","","html-keyboard-response","78","215409","0.0-57.0-2.0","73C9A33B152146C3B4EE43AC46030CC6","73C9A33B152146C3B4EE43AC46030CC6","bdfbb937-8310-4e35-9093-c41bd532cef2","bea99957-1862-4ad8-9558-57b91e42ce64","{""participantId"":""73C9A33B152146C3B4EE43AC46030CC6"",""assignmentId"":""bdfbb937-8310-4e35-9093-c41bd532cef2"",""projectId"":""bea99957-1862-4ad8-9558-57b91e42ce64""}","https://test12345.live/?participantId=73C9A33B152146C3B4EE43AC46030CC6&assignmentId=bdfbb937-8310-4e35-9093-c41bd532cef2&projectId=bea99957-1862-4ad8-9558-57b91e42ce64","","null","<div style=""display: flex; justify-content: center; align-items: center;"">
                    <img src=""images/semantic/semantic_series_5/semantic_series_5_c.jpg"" style=""width: 300px; height: 300px;"" />
                  </div>","null","",""
"","","","","","html-keyboard-response","79","218411","0.0-57.0-3.0","73C9A33B152146C3B4EE43AC46030CC6","73C9A33B152146C3B4EE43AC46030CC6","bdfbb937-8310-4e35-9093-c41bd532cef2","bea99957-1862-4ad8-9558-57b91e42ce64","{""participantId"":""73C9A33B152146C3B4EE43AC46030CC6"",""assignmentId"":""bdfbb937-8310-4e35-9093-c41bd532cef2"",""projectId"":""bea99957-1862-4ad8-9558-57b91e42ce64""}","https://test12345.live/?participantId=73C9A33B152146C3B4EE43AC46030CC6&assignmentId=bdfbb937-8310-4e35-9093-c41bd532cef2&projectId=bea99957-1862-4ad8-9558-57b91e42ce64","","null","<div style=""display: flex; justify-content: center; align-items: center;"">
                    <img src=""images/semantic/semantic_series_5/semantic_series_5_d.jpg"" style=""width: 300px; height: 300px;"" />
                  </div>","null","",""
"","","","","","html-button-response","80","219692","0.0-58.0","73C9A33B152146C3B4EE43AC46030CC6","73C9A33B152146C3B4EE43AC46030CC6","bdfbb937-8310-4e35-9093-c41bd532cef2","bea99957-1862-4ad8-9558-57b91e42ce64","{""participantId"":""73C9A33B152146C3B4EE43AC46030CC6"",""assignmentId"":""bdfbb937-8310-4e35-9093-c41bd532cef2"",""projectId"":""bea99957-1862-4ad8-9558-57b91e42ce64""}","https://test12345.live/?participantId=73C9A33B152146C3B4EE43AC46030CC6&assignmentId=bdfbb937-8310-4e35-9093-c41bd532cef2&projectId=bea99957-1862-4ad8-9558-57b91e42ce64","","1280","Was there a person in the picture?","0","",""
"","","","","","survey-likert","81","221161","0.0-59.0","73C9A33B152146C3B4EE43AC46030CC6","73C9A33B152146C3B4EE43AC46030CC6","bdfbb937-8310-4e35-9093-c41bd532cef2","bea99957-1862-4ad8-9558-57b91e42ce64","{""participantId"":""73C9A33B152146C3B4EE43AC46030CC6"",""assignmentId"":""bdfbb937-8310-4e35-9093-c41bd532cef2"",""projectId"":""bea99957-1862-4ad8-9558-57b91e42ce64""}","https://test12345.live/?participantId=73C9A33B152146C3B4EE43AC46030CC6&assignmentId=bdfbb937-8310-4e35-9093-c41bd532cef2&projectId=bea99957-1862-4ad8-9558-57b91e42ce64","","1468","","{""Q0"":3}","","[0]"
"","","","","","html-button-response","82","222334","0.0-60.0","73C9A33B152146C3B4EE43AC46030CC6","73C9A33B152146C3B4EE43AC46030CC6","bdfbb937-8310-4e35-9093-c41bd532cef2","bea99957-1862-4ad8-9558-57b91e42ce64","{""participantId"":""73C9A33B152146C3B4EE43AC46030CC6"",""assignmentId"":""bdfbb937-8310-4e35-9093-c41bd532cef2"",""projectId"":""bea99957-1862-4ad8-9558-57b91e42ce64""}","https://test12345.live/?participantId=73C9A33B152146C3B4EE43AC46030CC6&assignmentId=bdfbb937-8310-4e35-9093-c41bd532cef2&projectId=bea99957-1862-4ad8-9558-57b91e42ce64","","1171","
    <div style=""display: flex; justify-content: center; align-items: center;"">
      <img src=""images/red_deck_2.png"" style=""width: 300px; height: 300px; margin-right: 10px;"" />
      <img src=""images/blue_deck_1.png"" style=""width: 300px; height: 300px;"" />
    </div>","0","0",""
"","","","","","html-keyboard-response","83","225343","0.0-62.0-0.0","73C9A33B152146C3B4EE43AC46030CC6","73C9A33B152146C3B4EE43AC46030CC6","bdfbb937-8310-4e35-9093-c41bd532cef2","bea99957-1862-4ad8-9558-57b91e42ce64","{""participantId"":""73C9A33B152146C3B4EE43AC46030CC6"",""assignmentId"":""bdfbb937-8310-4e35-9093-c41bd532cef2"",""projectId"":""bea99957-1862-4ad8-9558-57b91e42ce64""}","https://test12345.live/?participantId=73C9A33B152146C3B4EE43AC46030CC6&assignmentId=bdfbb937-8310-4e35-9093-c41bd532cef2&projectId=bea99957-1862-4ad8-9558-57b91e42ce64","","null","<div style=""display: flex; justify-content: center; align-items: center;"">
                    <img src=""images/semantic/semantic_series_15/semantic_series_15_a.jpg"" style=""width: 300px; height: 300px;"" />
                  </div>","null","",""
"","","","","","html-keyboard-response","84","228350","0.0-62.0-1.0","73C9A33B152146C3B4EE43AC46030CC6","73C9A33B152146C3B4EE43AC46030CC6","bdfbb937-8310-4e35-9093-c41bd532cef2","bea99957-1862-4ad8-9558-57b91e42ce64","{""participantId"":""73C9A33B152146C3B4EE43AC46030CC6"",""assignmentId"":""bdfbb937-8310-4e35-9093-c41bd532cef2"",""projectId"":""bea99957-1862-4ad8-9558-57b91e42ce64""}","https://test12345.live/?participantId=73C9A33B152146C3B4EE43AC46030CC6&assignmentId=bdfbb937-8310-4e35-9093-c41bd532cef2&projectId=bea99957-1862-4ad8-9558-57b91e42ce64","","null","<div style=""display: flex; justify-content: center; align-items: center;"">
                    <img src=""images/semantic/semantic_series_15/semantic_series_15_b.jpg"" style=""width: 300px; height: 300px;"" />
                  </div>","null","",""
"","","","","","html-keyboard-response","85","231358","0.0-62.0-2.0","73C9A33B152146C3B4EE43AC46030CC6","73C9A33B152146C3B4EE43AC46030CC6","bdfbb937-8310-4e35-9093-c41bd532cef2","bea99957-1862-4ad8-9558-57b91e42ce64","{""participantId"":""73C9A33B152146C3B4EE43AC46030CC6"",""assignmentId"":""bdfbb937-8310-4e35-9093-c41bd532cef2"",""projectId"":""bea99957-1862-4ad8-9558-57b91e42ce64""}","https://test12345.live/?participantId=73C9A33B152146C3B4EE43AC46030CC6&assignmentId=bdfbb937-8310-4e35-9093-c41bd532cef2&projectId=bea99957-1862-4ad8-9558-57b91e42ce64","","null","<div style=""display: flex; justify-content: center; align-items: center;"">
                    <img src=""images/semantic/semantic_series_15/semantic_series_15_c.jpg"" style=""width: 300px; height: 300px;"" />
                  </div>","null","",""
"","","","","","html-keyboard-response","86","234367","0.0-62.0-3.0","73C9A33B152146C3B4EE43AC46030CC6","73C9A33B152146C3B4EE43AC46030CC6","bdfbb937-8310-4e35-9093-c41bd532cef2","bea99957-1862-4ad8-9558-57b91e42ce64","{""participantId"":""73C9A33B152146C3B4EE43AC46030CC6"",""assignmentId"":""bdfbb937-8310-4e35-9093-c41bd532cef2"",""projectId"":""bea99957-1862-4ad8-9558-57b91e42ce64""}","https://test12345.live/?participantId=73C9A33B152146C3B4EE43AC46030CC6&assignmentId=bdfbb937-8310-4e35-9093-c41bd532cef2&projectId=bea99957-1862-4ad8-9558-57b91e42ce64","","null","<div style=""display: flex; justify-content: center; align-items: center;"">
                    <img src=""images/semantic/semantic_series_15/semantic_series_15_d.jpg"" style=""width: 300px; height: 300px;"" />
                  </div>","null","",""
"","","","","","html-button-response","87","235726","0.0-63.0","73C9A33B152146C3B4EE43AC46030CC6","73C9A33B152146C3B4EE43AC46030CC6","bdfbb937-8310-4e35-9093-c41bd532cef2","bea99957-1862-4ad8-9558-57b91e42ce64","{""participantId"":""73C9A33B152146C3B4EE43AC46030CC6"",""assignmentId"":""bdfbb937-8310-4e35-9093-c41bd532cef2"",""projectId"":""bea99957-1862-4ad8-9558-57b91e42ce64""}","https://test12345.live/?participantId=73C9A33B152146C3B4EE43AC46030CC6&assignmentId=bdfbb937-8310-4e35-9093-c41bd532cef2&projectId=bea99957-1862-4ad8-9558-57b91e42ce64","","1357","Was there a person in the picture?","1","",""
"","","","","","survey-likert","88","237648","0.0-64.0","73C9A33B152146C3B4EE43AC46030CC6","73C9A33B152146C3B4EE43AC46030CC6","bdfbb937-8310-4e35-9093-c41bd532cef2","bea99957-1862-4ad8-9558-57b91e42ce64","{""participantId"":""73C9A33B152146C3B4EE43AC46030CC6"",""assignmentId"":""bdfbb937-8310-4e35-9093-c41bd532cef2"",""projectId"":""bea99957-1862-4ad8-9558-57b91e42ce64""}","https://test12345.live/?participantId=73C9A33B152146C3B4EE43AC46030CC6&assignmentId=bdfbb937-8310-4e35-9093-c41bd532cef2&projectId=bea99957-1862-4ad8-9558-57b91e42ce64","","1921","","{""Q0"":2}","","[0]"
"","","","","","html-button-response","89","238476","0.0-65.0","73C9A33B152146C3B4EE43AC46030CC6","73C9A33B152146C3B4EE43AC46030CC6","bdfbb937-8310-4e35-9093-c41bd532cef2","bea99957-1862-4ad8-9558-57b91e42ce64","{""participantId"":""73C9A33B152146C3B4EE43AC46030CC6"",""assignmentId"":""bdfbb937-8310-4e35-9093-c41bd532cef2"",""projectId"":""bea99957-1862-4ad8-9558-57b91e42ce64""}","https://test12345.live/?participantId=73C9A33B152146C3B4EE43AC46030CC6&assignmentId=bdfbb937-8310-4e35-9093-c41bd532cef2&projectId=bea99957-1862-4ad8-9558-57b91e42ce64","","827","
    <div style=""display: flex; justify-content: center; align-items: center;"">
      <img src=""images/red_deck_2.png"" style=""width: 300px; height: 300px; margin-right: 10px;"" />
      <img src=""images/blue_deck_1.png"" style=""width: 300px; height: 300px;"" />
    </div>","1","1",""
"","","","","","html-keyboard-response","90","241491","0.0-66.0-0.0","73C9A33B152146C3B4EE43AC46030CC6","73C9A33B152146C3B4EE43AC46030CC6","bdfbb937-8310-4e35-9093-c41bd532cef2","bea99957-1862-4ad8-9558-57b91e42ce64","{""participantId"":""73C9A33B152146C3B4EE43AC46030CC6"",""assignmentId"":""bdfbb937-8310-4e35-9093-c41bd532cef2"",""projectId"":""bea99957-1862-4ad8-9558-57b91e42ce64""}","https://test12345.live/?participantId=73C9A33B152146C3B4EE43AC46030CC6&assignmentId=bdfbb937-8310-4e35-9093-c41bd532cef2&projectId=bea99957-1862-4ad8-9558-57b91e42ce64","","null","<div style=""display: flex; justify-content: center; align-items: center;"">
                    <img src=""images/causal/causal_series_17/causal_series_17_a.jpg"" style=""width: 300px; height: 300px;"" />
                  </div>","null","",""
"","","","","","html-keyboard-response","91","244501","0.0-66.0-1.0","73C9A33B152146C3B4EE43AC46030CC6","73C9A33B152146C3B4EE43AC46030CC6","bdfbb937-8310-4e35-9093-c41bd532cef2","bea99957-1862-4ad8-9558-57b91e42ce64","{""participantId"":""73C9A33B152146C3B4EE43AC46030CC6"",""assignmentId"":""bdfbb937-8310-4e35-9093-c41bd532cef2"",""projectId"":""bea99957-1862-4ad8-9558-57b91e42ce64""}","https://test12345.live/?participantId=73C9A33B152146C3B4EE43AC46030CC6&assignmentId=bdfbb937-8310-4e35-9093-c41bd532cef2&projectId=bea99957-1862-4ad8-9558-57b91e42ce64","","null","<div style=""display: flex; justify-content: center; align-items: center;"">
                    <img src=""images/causal/causal_series_17/causal_series_17_b.jpg"" style=""width: 300px; height: 300px;"" />
                  </div>","null","",""
"","","","","","html-keyboard-response","92","247514","0.0-66.0-2.0","73C9A33B152146C3B4EE43AC46030CC6","73C9A33B152146C3B4EE43AC46030CC6","bdfbb937-8310-4e35-9093-c41bd532cef2","bea99957-1862-4ad8-9558-57b91e42ce64","{""participantId"":""73C9A33B152146C3B4EE43AC46030CC6"",""assignmentId"":""bdfbb937-8310-4e35-9093-c41bd532cef2"",""projectId"":""bea99957-1862-4ad8-9558-57b91e42ce64""}","https://test12345.live/?participantId=73C9A33B152146C3B4EE43AC46030CC6&assignmentId=bdfbb937-8310-4e35-9093-c41bd532cef2&projectId=bea99957-1862-4ad8-9558-57b91e42ce64","","null","<div style=""display: flex; justify-content: center; align-items: center;"">
                    <img src=""images/causal/causal_series_17/causal_series_17_c.jpg"" style=""width: 300px; height: 300px;"" />
                  </div>","null","",""
"","","","","","html-keyboard-response","93","250522","0.0-66.0-3.0","73C9A33B152146C3B4EE43AC46030CC6","73C9A33B152146C3B4EE43AC46030CC6","bdfbb937-8310-4e35-9093-c41bd532cef2","bea99957-1862-4ad8-9558-57b91e42ce64","{""participantId"":""73C9A33B152146C3B4EE43AC46030CC6"",""assignmentId"":""bdfbb937-8310-4e35-9093-c41bd532cef2"",""projectId"":""bea99957-1862-4ad8-9558-57b91e42ce64""}","https://test12345.live/?participantId=73C9A33B152146C3B4EE43AC46030CC6&assignmentId=bdfbb937-8310-4e35-9093-c41bd532cef2&projectId=bea99957-1862-4ad8-9558-57b91e42ce64","","null","<div style=""display: flex; justify-content: center; align-items: center;"">
                    <img src=""images/causal/causal_series_17/causal_series_17_d.jpg"" style=""width: 300px; height: 300px;"" />
                  </div>","null","",""
"","","","","","html-button-response","94","251545","0.0-68.0","73C9A33B152146C3B4EE43AC46030CC6","73C9A33B152146C3B4EE43AC46030CC6","bdfbb937-8310-4e35-9093-c41bd532cef2","bea99957-1862-4ad8-9558-57b91e42ce64","{""participantId"":""73C9A33B152146C3B4EE43AC46030CC6"",""assignmentId"":""bdfbb937-8310-4e35-9093-c41bd532cef2"",""projectId"":""bea99957-1862-4ad8-9558-57b91e42ce64""}","https://test12345.live/?participantId=73C9A33B152146C3B4EE43AC46030CC6&assignmentId=bdfbb937-8310-4e35-9093-c41bd532cef2&projectId=bea99957-1862-4ad8-9558-57b91e42ce64","","1021","Was there a person in the picture?","0","",""
"","","","","","survey-likert","95","254508","0.0-69.0","73C9A33B152146C3B4EE43AC46030CC6","73C9A33B152146C3B4EE43AC46030CC6","bdfbb937-8310-4e35-9093-c41bd532cef2","bea99957-1862-4ad8-9558-57b91e42ce64","{""participantId"":""73C9A33B152146C3B4EE43AC46030CC6"",""assignmentId"":""bdfbb937-8310-4e35-9093-c41bd532cef2"",""projectId"":""bea99957-1862-4ad8-9558-57b91e42ce64""}","https://test12345.live/?participantId=73C9A33B152146C3B4EE43AC46030CC6&assignmentId=bdfbb937-8310-4e35-9093-c41bd532cef2&projectId=bea99957-1862-4ad8-9558-57b91e42ce64","","2962","","{""Q0"":3}","","[0]"
"","","","","","html-button-response","96","255511","0.0-70.0","73C9A33B152146C3B4EE43AC46030CC6","73C9A33B152146C3B4EE43AC46030CC6","bdfbb937-8310-4e35-9093-c41bd532cef2","bea99957-1862-4ad8-9558-57b91e42ce64","{""participantId"":""73C9A33B152146C3B4EE43AC46030CC6"",""assignmentId"":""bdfbb937-8310-4e35-9093-c41bd532cef2"",""projectId"":""bea99957-1862-4ad8-9558-57b91e42ce64""}","https://test12345.live/?participantId=73C9A33B152146C3B4EE43AC46030CC6&assignmentId=bdfbb937-8310-4e35-9093-c41bd532cef2&projectId=bea99957-1862-4ad8-9558-57b91e42ce64","","1002","
    <div style=""display: flex; justify-content: center; align-items: center;"">
      <img src=""images/red_deck_2.png"" style=""width: 300px; height: 300px; margin-right: 10px;"" />
      <img src=""images/blue_deck_1.png"" style=""width: 300px; height: 300px;"" />
    </div>","0","0",""
"","","","","","html-keyboard-response","97","258527","0.0-72.0-0.0","73C9A33B152146C3B4EE43AC46030CC6","73C9A33B152146C3B4EE43AC46030CC6","bdfbb937-8310-4e35-9093-c41bd532cef2","bea99957-1862-4ad8-9558-57b91e42ce64","{""participantId"":""73C9A33B152146C3B4EE43AC46030CC6"",""assignmentId"":""bdfbb937-8310-4e35-9093-c41bd532cef2"",""projectId"":""bea99957-1862-4ad8-9558-57b91e42ce64""}","https://test12345.live/?participantId=73C9A33B152146C3B4EE43AC46030CC6&assignmentId=bdfbb937-8310-4e35-9093-c41bd532cef2&projectId=bea99957-1862-4ad8-9558-57b91e42ce64","","null","<div style=""display: flex; justify-content: center; align-items: center;"">
                    <img src=""images/semantic/semantic_series_1/semantic_series_1_a.jpg"" style=""width: 300px; height: 300px;"" />
                  </div>","null","",""
"","","","","","html-keyboard-response","98","261533","0.0-72.0-1.0","73C9A33B152146C3B4EE43AC46030CC6","73C9A33B152146C3B4EE43AC46030CC6","bdfbb937-8310-4e35-9093-c41bd532cef2","bea99957-1862-4ad8-9558-57b91e42ce64","{""participantId"":""73C9A33B152146C3B4EE43AC46030CC6"",""assignmentId"":""bdfbb937-8310-4e35-9093-c41bd532cef2"",""projectId"":""bea99957-1862-4ad8-9558-57b91e42ce64""}","https://test12345.live/?participantId=73C9A33B152146C3B4EE43AC46030CC6&assignmentId=bdfbb937-8310-4e35-9093-c41bd532cef2&projectId=bea99957-1862-4ad8-9558-57b91e42ce64","","null","<div style=""display: flex; justify-content: center; align-items: center;"">
                    <img src=""images/semantic/semantic_series_1/semantic_series_1_b.jpg"" style=""width: 300px; height: 300px;"" />
                  </div>","null","",""
"","","","","","html-keyboard-response","99","264543","0.0-72.0-2.0","73C9A33B152146C3B4EE43AC46030CC6","73C9A33B152146C3B4EE43AC46030CC6","bdfbb937-8310-4e35-9093-c41bd532cef2","bea99957-1862-4ad8-9558-57b91e42ce64","{""participantId"":""73C9A33B152146C3B4EE43AC46030CC6"",""assignmentId"":""bdfbb937-8310-4e35-9093-c41bd532cef2"",""projectId"":""bea99957-1862-4ad8-9558-57b91e42ce64""}","https://test12345.live/?participantId=73C9A33B152146C3B4EE43AC46030CC6&assignmentId=bdfbb937-8310-4e35-9093-c41bd532cef2&projectId=bea99957-1862-4ad8-9558-57b91e42ce64","","null","<div style=""display: flex; justify-content: center; align-items: center;"">
                    <img src=""images/semantic/semantic_series_1/semantic_series_1_c.jpg"" style=""width: 300px; height: 300px;"" />
                  </div>","null","",""
"","","","","","html-keyboard-response","100","267558","0.0-72.0-3.0","73C9A33B152146C3B4EE43AC46030CC6","73C9A33B152146C3B4EE43AC46030CC6","bdfbb937-8310-4e35-9093-c41bd532cef2","bea99957-1862-4ad8-9558-57b91e42ce64","{""participantId"":""73C9A33B152146C3B4EE43AC46030CC6"",""assignmentId"":""bdfbb937-8310-4e35-9093-c41bd532cef2"",""projectId"":""bea99957-1862-4ad8-9558-57b91e42ce64""}","https://test12345.live/?participantId=73C9A33B152146C3B4EE43AC46030CC6&assignmentId=bdfbb937-8310-4e35-9093-c41bd532cef2&projectId=bea99957-1862-4ad8-9558-57b91e42ce64","","null","<div style=""display: flex; justify-content: center; align-items: center;"">
                    <img src=""images/semantic/semantic_series_1/semantic_series_1_d.jpg"" style=""width: 300px; height: 300px;"" />
                  </div>","null","",""
"","","","","","html-button-response","101","268552","0.0-73.0","73C9A33B152146C3B4EE43AC46030CC6","73C9A33B152146C3B4EE43AC46030CC6","bdfbb937-8310-4e35-9093-c41bd532cef2","bea99957-1862-4ad8-9558-57b91e42ce64","{""participantId"":""73C9A33B152146C3B4EE43AC46030CC6"",""assignmentId"":""bdfbb937-8310-4e35-9093-c41bd532cef2"",""projectId"":""bea99957-1862-4ad8-9558-57b91e42ce64""}","https://test12345.live/?participantId=73C9A33B152146C3B4EE43AC46030CC6&assignmentId=bdfbb937-8310-4e35-9093-c41bd532cef2&projectId=bea99957-1862-4ad8-9558-57b91e42ce64","","994","Was there a person in the picture?","0","",""
"","","","","","survey-likert","102","272618","0.0-74.0","73C9A33B152146C3B4EE43AC46030CC6","73C9A33B152146C3B4EE43AC46030CC6","bdfbb937-8310-4e35-9093-c41bd532cef2","bea99957-1862-4ad8-9558-57b91e42ce64","{""participantId"":""73C9A33B152146C3B4EE43AC46030CC6"",""assignmentId"":""bdfbb937-8310-4e35-9093-c41bd532cef2"",""projectId"":""bea99957-1862-4ad8-9558-57b91e42ce64""}","https://test12345.live/?participantId=73C9A33B152146C3B4EE43AC46030CC6&assignmentId=bdfbb937-8310-4e35-9093-c41bd532cef2&projectId=bea99957-1862-4ad8-9558-57b91e42ce64","","4064","","{""Q0"":4}","","[0]"
"","","","","","html-button-response","103","273485","0.0-75.0","73C9A33B152146C3B4EE43AC46030CC6","73C9A33B152146C3B4EE43AC46030CC6","bdfbb937-8310-4e35-9093-c41bd532cef2","bea99957-1862-4ad8-9558-57b91e42ce64","{""participantId"":""73C9A33B152146C3B4EE43AC46030CC6"",""assignmentId"":""bdfbb937-8310-4e35-9093-c41bd532cef2"",""projectId"":""bea99957-1862-4ad8-9558-57b91e42ce64""}","https://test12345.live/?participantId=73C9A33B152146C3B4EE43AC46030CC6&assignmentId=bdfbb937-8310-4e35-9093-c41bd532cef2&projectId=bea99957-1862-4ad8-9558-57b91e42ce64","","865","
    <div style=""display: flex; justify-content: center; align-items: center;"">
      <img src=""images/red_deck_2.png"" style=""width: 300px; height: 300px; margin-right: 10px;"" />
      <img src=""images/blue_deck_1.png"" style=""width: 300px; height: 300px;"" />
    </div>","0","0",""
"","","","","","html-keyboard-response","104","276497","0.0-77.0-0.0","73C9A33B152146C3B4EE43AC46030CC6","73C9A33B152146C3B4EE43AC46030CC6","bdfbb937-8310-4e35-9093-c41bd532cef2","bea99957-1862-4ad8-9558-57b91e42ce64","{""participantId"":""73C9A33B152146C3B4EE43AC46030CC6"",""assignmentId"":""bdfbb937-8310-4e35-9093-c41bd532cef2"",""projectId"":""bea99957-1862-4ad8-9558-57b91e42ce64""}","https://test12345.live/?participantId=73C9A33B152146C3B4EE43AC46030CC6&assignmentId=bdfbb937-8310-4e35-9093-c41bd532cef2&projectId=bea99957-1862-4ad8-9558-57b91e42ce64","","null","<div style=""display: flex; justify-content: center; align-items: center;"">
                    <img src=""images/semantic/semantic_series_2/semantic_series_2_a.jpg"" style=""width: 300px; height: 300px;"" />
                  </div>","null","",""
"","","","","","html-keyboard-response","105","279509","0.0-77.0-1.0","73C9A33B152146C3B4EE43AC46030CC6","73C9A33B152146C3B4EE43AC46030CC6","bdfbb937-8310-4e35-9093-c41bd532cef2","bea99957-1862-4ad8-9558-57b91e42ce64","{""participantId"":""73C9A33B152146C3B4EE43AC46030CC6"",""assignmentId"":""bdfbb937-8310-4e35-9093-c41bd532cef2"",""projectId"":""bea99957-1862-4ad8-9558-57b91e42ce64""}","https://test12345.live/?participantId=73C9A33B152146C3B4EE43AC46030CC6&assignmentId=bdfbb937-8310-4e35-9093-c41bd532cef2&projectId=bea99957-1862-4ad8-9558-57b91e42ce64","","null","<div style=""display: flex; justify-content: center; align-items: center;"">
                    <img src=""images/semantic/semantic_series_2/semantic_series_2_b.jpg"" style=""width: 300px; height: 300px;"" />
                  </div>","null","",""
"","","","","","html-keyboard-response","106","282516","0.0-77.0-2.0","73C9A33B152146C3B4EE43AC46030CC6","73C9A33B152146C3B4EE43AC46030CC6","bdfbb937-8310-4e35-9093-c41bd532cef2","bea99957-1862-4ad8-9558-57b91e42ce64","{""participantId"":""73C9A33B152146C3B4EE43AC46030CC6"",""assignmentId"":""bdfbb937-8310-4e35-9093-c41bd532cef2"",""projectId"":""bea99957-1862-4ad8-9558-57b91e42ce64""}","https://test12345.live/?participantId=73C9A33B152146C3B4EE43AC46030CC6&assignmentId=bdfbb937-8310-4e35-9093-c41bd532cef2&projectId=bea99957-1862-4ad8-9558-57b91e42ce64","","null","<div style=""display: flex; justify-content: center; align-items: center;"">
                    <img src=""images/semantic/semantic_series_2/semantic_series_2_c.jpg"" style=""width: 300px; height: 300px;"" />
                  </div>","null","",""
"","","","","","html-keyboard-response","107","285523","0.0-77.0-3.0","73C9A33B152146C3B4EE43AC46030CC6","73C9A33B152146C3B4EE43AC46030CC6","bdfbb937-8310-4e35-9093-c41bd532cef2","bea99957-1862-4ad8-9558-57b91e42ce64","{""participantId"":""73C9A33B152146C3B4EE43AC46030CC6"",""assignmentId"":""bdfbb937-8310-4e35-9093-c41bd532cef2"",""projectId"":""bea99957-1862-4ad8-9558-57b91e42ce64""}","https://test12345.live/?participantId=73C9A33B152146C3B4EE43AC46030CC6&assignmentId=bdfbb937-8310-4e35-9093-c41bd532cef2&projectId=bea99957-1862-4ad8-9558-57b91e42ce64","","null","<div style=""display: flex; justify-content: center; align-items: center;"">
                    <img src=""images/semantic/semantic_series_2/semantic_series_2_d.jpg"" style=""width: 300px; height: 300px;"" />
                  </div>","null","",""
"","","","","","html-button-response","108","286348","0.0-78.0","73C9A33B152146C3B4EE43AC46030CC6","73C9A33B152146C3B4EE43AC46030CC6","bdfbb937-8310-4e35-9093-c41bd532cef2","bea99957-1862-4ad8-9558-57b91e42ce64","{""participantId"":""73C9A33B152146C3B4EE43AC46030CC6"",""assignmentId"":""bdfbb937-8310-4e35-9093-c41bd532cef2"",""projectId"":""bea99957-1862-4ad8-9558-57b91e42ce64""}","https://test12345.live/?participantId=73C9A33B152146C3B4EE43AC46030CC6&assignmentId=bdfbb937-8310-4e35-9093-c41bd532cef2&projectId=bea99957-1862-4ad8-9558-57b91e42ce64","","824","Was there a person in the picture?","0","",""
"","","","","","survey-likert","109","287513","0.0-79.0","73C9A33B152146C3B4EE43AC46030CC6","73C9A33B152146C3B4EE43AC46030CC6","bdfbb937-8310-4e35-9093-c41bd532cef2","bea99957-1862-4ad8-9558-57b91e42ce64","{""participantId"":""73C9A33B152146C3B4EE43AC46030CC6"",""assignmentId"":""bdfbb937-8310-4e35-9093-c41bd532cef2"",""projectId"":""bea99957-1862-4ad8-9558-57b91e42ce64""}","https://test12345.live/?participantId=73C9A33B152146C3B4EE43AC46030CC6&assignmentId=bdfbb937-8310-4e35-9093-c41bd532cef2&projectId=bea99957-1862-4ad8-9558-57b91e42ce64","","1164","","{""Q0"":4}","","[0]"
"","","","","","html-button-response","110","288352","0.0-80.0","73C9A33B152146C3B4EE43AC46030CC6","73C9A33B152146C3B4EE43AC46030CC6","bdfbb937-8310-4e35-9093-c41bd532cef2","bea99957-1862-4ad8-9558-57b91e42ce64","{""participantId"":""73C9A33B152146C3B4EE43AC46030CC6"",""assignmentId"":""bdfbb937-8310-4e35-9093-c41bd532cef2"",""projectId"":""bea99957-1862-4ad8-9558-57b91e42ce64""}","https://test12345.live/?participantId=73C9A33B152146C3B4EE43AC46030CC6&assignmentId=bdfbb937-8310-4e35-9093-c41bd532cef2&projectId=bea99957-1862-4ad8-9558-57b91e42ce64","","838","
    <div style=""display: flex; justify-content: center; align-items: center;"">
      <img src=""images/red_deck_2.png"" style=""width: 300px; height: 300px; margin-right: 10px;"" />
      <img src=""images/blue_deck_1.png"" style=""width: 300px; height: 300px;"" />
    </div>","1","1",""
"","","","","","html-keyboard-response","111","291359","0.0-81.0-0.0","73C9A33B152146C3B4EE43AC46030CC6","73C9A33B152146C3B4EE43AC46030CC6","bdfbb937-8310-4e35-9093-c41bd532cef2","bea99957-1862-4ad8-9558-57b91e42ce64","{""participantId"":""73C9A33B152146C3B4EE43AC46030CC6"",""assignmentId"":""bdfbb937-8310-4e35-9093-c41bd532cef2"",""projectId"":""bea99957-1862-4ad8-9558-57b91e42ce64""}","https://test12345.live/?participantId=73C9A33B152146C3B4EE43AC46030CC6&assignmentId=bdfbb937-8310-4e35-9093-c41bd532cef2&projectId=bea99957-1862-4ad8-9558-57b91e42ce64","","null","<div style=""display: flex; justify-content: center; align-items: center;"">
                    <img src=""images/causal/causal_series_12/causal_series_12_a.jpg"" style=""width: 300px; height: 300px;"" />
                  </div>","null","",""
"","","","","","html-keyboard-response","112","294370","0.0-81.0-1.0","73C9A33B152146C3B4EE43AC46030CC6","73C9A33B152146C3B4EE43AC46030CC6","bdfbb937-8310-4e35-9093-c41bd532cef2","bea99957-1862-4ad8-9558-57b91e42ce64","{""participantId"":""73C9A33B152146C3B4EE43AC46030CC6"",""assignmentId"":""bdfbb937-8310-4e35-9093-c41bd532cef2"",""projectId"":""bea99957-1862-4ad8-9558-57b91e42ce64""}","https://test12345.live/?participantId=73C9A33B152146C3B4EE43AC46030CC6&assignmentId=bdfbb937-8310-4e35-9093-c41bd532cef2&projectId=bea99957-1862-4ad8-9558-57b91e42ce64","","null","<div style=""display: flex; justify-content: center; align-items: center;"">
                    <img src=""images/causal/causal_series_12/causal_series_12_b.jpg"" style=""width: 300px; height: 300px;"" />
                  </div>","null","",""
"","","","","","html-keyboard-response","113","297375","0.0-81.0-2.0","73C9A33B152146C3B4EE43AC46030CC6","73C9A33B152146C3B4EE43AC46030CC6","bdfbb937-8310-4e35-9093-c41bd532cef2","bea99957-1862-4ad8-9558-57b91e42ce64","{""participantId"":""73C9A33B152146C3B4EE43AC46030CC6"",""assignmentId"":""bdfbb937-8310-4e35-9093-c41bd532cef2"",""projectId"":""bea99957-1862-4ad8-9558-57b91e42ce64""}","https://test12345.live/?participantId=73C9A33B152146C3B4EE43AC46030CC6&assignmentId=bdfbb937-8310-4e35-9093-c41bd532cef2&projectId=bea99957-1862-4ad8-9558-57b91e42ce64","","null","<div style=""display: flex; justify-content: center; align-items: center;"">
                    <img src=""images/causal/causal_series_12/causal_series_12_c.jpg"" style=""width: 300px; height: 300px;"" />
                  </div>","null","",""
"","","","","","html-keyboard-response","114","300386","0.0-81.0-3.0","73C9A33B152146C3B4EE43AC46030CC6","73C9A33B152146C3B4EE43AC46030CC6","bdfbb937-8310-4e35-9093-c41bd532cef2","bea99957-1862-4ad8-9558-57b91e42ce64","{""participantId"":""73C9A33B152146C3B4EE43AC46030CC6"",""assignmentId"":""bdfbb937-8310-4e35-9093-c41bd532cef2"",""projectId"":""bea99957-1862-4ad8-9558-57b91e42ce64""}","https://test12345.live/?participantId=73C9A33B152146C3B4EE43AC46030CC6&assignmentId=bdfbb937-8310-4e35-9093-c41bd532cef2&projectId=bea99957-1862-4ad8-9558-57b91e42ce64","","null","<div style=""display: flex; justify-content: center; align-items: center;"">
                    <img src=""images/causal/causal_series_12/causal_series_12_d.jpg"" style=""width: 300px; height: 300px;"" />
                  </div>","null","",""
"","","","","","html-button-response","115","301283","0.0-83.0","73C9A33B152146C3B4EE43AC46030CC6","73C9A33B152146C3B4EE43AC46030CC6","bdfbb937-8310-4e35-9093-c41bd532cef2","bea99957-1862-4ad8-9558-57b91e42ce64","{""participantId"":""73C9A33B152146C3B4EE43AC46030CC6"",""assignmentId"":""bdfbb937-8310-4e35-9093-c41bd532cef2"",""projectId"":""bea99957-1862-4ad8-9558-57b91e42ce64""}","https://test12345.live/?participantId=73C9A33B152146C3B4EE43AC46030CC6&assignmentId=bdfbb937-8310-4e35-9093-c41bd532cef2&projectId=bea99957-1862-4ad8-9558-57b91e42ce64","","896","Was there a person in the picture?","1","",""
"","","","","","survey-likert","116","302466","0.0-84.0","73C9A33B152146C3B4EE43AC46030CC6","73C9A33B152146C3B4EE43AC46030CC6","bdfbb937-8310-4e35-9093-c41bd532cef2","bea99957-1862-4ad8-9558-57b91e42ce64","{""participantId"":""73C9A33B152146C3B4EE43AC46030CC6"",""assignmentId"":""bdfbb937-8310-4e35-9093-c41bd532cef2"",""projectId"":""bea99957-1862-4ad8-9558-57b91e42ce64""}","https://test12345.live/?participantId=73C9A33B152146C3B4EE43AC46030CC6&assignmentId=bdfbb937-8310-4e35-9093-c41bd532cef2&projectId=bea99957-1862-4ad8-9558-57b91e42ce64","","1182","","{""Q0"":4}","","[0]"
"","","","","","html-button-response","117","303424","0.0-85.0","73C9A33B152146C3B4EE43AC46030CC6","73C9A33B152146C3B4EE43AC46030CC6","bdfbb937-8310-4e35-9093-c41bd532cef2","bea99957-1862-4ad8-9558-57b91e42ce64","{""participantId"":""73C9A33B152146C3B4EE43AC46030CC6"",""assignmentId"":""bdfbb937-8310-4e35-9093-c41bd532cef2"",""projectId"":""bea99957-1862-4ad8-9558-57b91e42ce64""}","https://test12345.live/?participantId=73C9A33B152146C3B4EE43AC46030CC6&assignmentId=bdfbb937-8310-4e35-9093-c41bd532cef2&projectId=bea99957-1862-4ad8-9558-57b91e42ce64","","957","
    <div style=""display: flex; justify-content: center; align-items: center;"">
      <img src=""images/red_deck_2.png"" style=""width: 300px; height: 300px; margin-right: 10px;"" />
      <img src=""images/blue_deck_1.png"" style=""width: 300px; height: 300px;"" />
    </div>","0","0",""
"","","","","","html-keyboard-response","118","306436","0.0-87.0-0.0","73C9A33B152146C3B4EE43AC46030CC6","73C9A33B152146C3B4EE43AC46030CC6","bdfbb937-8310-4e35-9093-c41bd532cef2","bea99957-1862-4ad8-9558-57b91e42ce64","{""participantId"":""73C9A33B152146C3B4EE43AC46030CC6"",""assignmentId"":""bdfbb937-8310-4e35-9093-c41bd532cef2"",""projectId"":""bea99957-1862-4ad8-9558-57b91e42ce64""}","https://test12345.live/?participantId=73C9A33B152146C3B4EE43AC46030CC6&assignmentId=bdfbb937-8310-4e35-9093-c41bd532cef2&projectId=bea99957-1862-4ad8-9558-57b91e42ce64","","null","<div style=""display: flex; justify-content: center; align-items: center;"">
                    <img src=""images/semantic/semantic_series_8/semantic_series_8_a.jpg"" style=""width: 300px; height: 300px;"" />
                  </div>","null","",""
"","","","","","html-keyboard-response","119","309445","0.0-87.0-1.0","73C9A33B152146C3B4EE43AC46030CC6","73C9A33B152146C3B4EE43AC46030CC6","bdfbb937-8310-4e35-9093-c41bd532cef2","bea99957-1862-4ad8-9558-57b91e42ce64","{""participantId"":""73C9A33B152146C3B4EE43AC46030CC6"",""assignmentId"":""bdfbb937-8310-4e35-9093-c41bd532cef2"",""projectId"":""bea99957-1862-4ad8-9558-57b91e42ce64""}","https://test12345.live/?participantId=73C9A33B152146C3B4EE43AC46030CC6&assignmentId=bdfbb937-8310-4e35-9093-c41bd532cef2&projectId=bea99957-1862-4ad8-9558-57b91e42ce64","","null","<div style=""display: flex; justify-content: center; align-items: center;"">
                    <img src=""images/semantic/semantic_series_8/semantic_series_8_b.jpg"" style=""width: 300px; height: 300px;"" />
                  </div>","null","",""
"","","","","","html-keyboard-response","120","312461","0.0-87.0-2.0","73C9A33B152146C3B4EE43AC46030CC6","73C9A33B152146C3B4EE43AC46030CC6","bdfbb937-8310-4e35-9093-c41bd532cef2","bea99957-1862-4ad8-9558-57b91e42ce64","{""participantId"":""73C9A33B152146C3B4EE43AC46030CC6"",""assignmentId"":""bdfbb937-8310-4e35-9093-c41bd532cef2"",""projectId"":""bea99957-1862-4ad8-9558-57b91e42ce64""}","https://test12345.live/?participantId=73C9A33B152146C3B4EE43AC46030CC6&assignmentId=bdfbb937-8310-4e35-9093-c41bd532cef2&projectId=bea99957-1862-4ad8-9558-57b91e42ce64","","null","<div style=""display: flex; justify-content: center; align-items: center;"">
                    <img src=""images/semantic/semantic_series_8/semantic_series_8_c.jpg"" style=""width: 300px; height: 300px;"" />
                  </div>","null","",""
"","","","","","html-keyboard-response","121","315473","0.0-87.0-3.0","73C9A33B152146C3B4EE43AC46030CC6","73C9A33B152146C3B4EE43AC46030CC6","bdfbb937-8310-4e35-9093-c41bd532cef2","bea99957-1862-4ad8-9558-57b91e42ce64","{""participantId"":""73C9A33B152146C3B4EE43AC46030CC6"",""assignmentId"":""bdfbb937-8310-4e35-9093-c41bd532cef2"",""projectId"":""bea99957-1862-4ad8-9558-57b91e42ce64""}","https://test12345.live/?participantId=73C9A33B152146C3B4EE43AC46030CC6&assignmentId=bdfbb937-8310-4e35-9093-c41bd532cef2&projectId=bea99957-1862-4ad8-9558-57b91e42ce64","","null","<div style=""display: flex; justify-content: center; align-items: center;"">
                    <img src=""images/semantic/semantic_series_8/semantic_series_8_d.jpg"" style=""width: 300px; height: 300px;"" />
                  </div>","null","",""
"","","","","","html-button-response","122","317087","0.0-88.0","73C9A33B152146C3B4EE43AC46030CC6","73C9A33B152146C3B4EE43AC46030CC6","bdfbb937-8310-4e35-9093-c41bd532cef2","bea99957-1862-4ad8-9558-57b91e42ce64","{""participantId"":""73C9A33B152146C3B4EE43AC46030CC6"",""assignmentId"":""bdfbb937-8310-4e35-9093-c41bd532cef2"",""projectId"":""bea99957-1862-4ad8-9558-57b91e42ce64""}","https://test12345.live/?participantId=73C9A33B152146C3B4EE43AC46030CC6&assignmentId=bdfbb937-8310-4e35-9093-c41bd532cef2&projectId=bea99957-1862-4ad8-9558-57b91e42ce64","","1613","Was there a person in the picture?","1","",""
"","","","","","survey-likert","123","318307","0.0-89.0","73C9A33B152146C3B4EE43AC46030CC6","73C9A33B152146C3B4EE43AC46030CC6","bdfbb937-8310-4e35-9093-c41bd532cef2","bea99957-1862-4ad8-9558-57b91e42ce64","{""participantId"":""73C9A33B152146C3B4EE43AC46030CC6"",""assignmentId"":""bdfbb937-8310-4e35-9093-c41bd532cef2"",""projectId"":""bea99957-1862-4ad8-9558-57b91e42ce64""}","https://test12345.live/?participantId=73C9A33B152146C3B4EE43AC46030CC6&assignmentId=bdfbb937-8310-4e35-9093-c41bd532cef2&projectId=bea99957-1862-4ad8-9558-57b91e42ce64","","1219","","{""Q0"":4}","","[0]"
"","","","","","html-button-response","124","319269","0.0-90.0","73C9A33B152146C3B4EE43AC46030CC6","73C9A33B152146C3B4EE43AC46030CC6","bdfbb937-8310-4e35-9093-c41bd532cef2","bea99957-1862-4ad8-9558-57b91e42ce64","{""participantId"":""73C9A33B152146C3B4EE43AC46030CC6"",""assignmentId"":""bdfbb937-8310-4e35-9093-c41bd532cef2"",""projectId"":""bea99957-1862-4ad8-9558-57b91e42ce64""}","https://test12345.live/?participantId=73C9A33B152146C3B4EE43AC46030CC6&assignmentId=bdfbb937-8310-4e35-9093-c41bd532cef2&projectId=bea99957-1862-4ad8-9558-57b91e42ce64","","962","
    <div style=""display: flex; justify-content: center; align-items: center;"">
      <img src=""images/red_deck_2.png"" style=""width: 300px; height: 300px; margin-right: 10px;"" />
      <img src=""images/blue_deck_1.png"" style=""width: 300px; height: 300px;"" />
    </div>","1","1",""
"","","","","","html-keyboard-response","125","322275","0.0-91.0-0.0","73C9A33B152146C3B4EE43AC46030CC6","73C9A33B152146C3B4EE43AC46030CC6","bdfbb937-8310-4e35-9093-c41bd532cef2","bea99957-1862-4ad8-9558-57b91e42ce64","{""participantId"":""73C9A33B152146C3B4EE43AC46030CC6"",""assignmentId"":""bdfbb937-8310-4e35-9093-c41bd532cef2"",""projectId"":""bea99957-1862-4ad8-9558-57b91e42ce64""}","https://test12345.live/?participantId=73C9A33B152146C3B4EE43AC46030CC6&assignmentId=bdfbb937-8310-4e35-9093-c41bd532cef2&projectId=bea99957-1862-4ad8-9558-57b91e42ce64","","null","<div style=""display: flex; justify-content: center; align-items: center;"">
                    <img src=""images/causal/causal_series_7/causal_series_7_a.jpg"" style=""width: 300px; height: 300px;"" />
                  </div>","null","",""
"","","","","","html-keyboard-response","126","325276","0.0-91.0-1.0","73C9A33B152146C3B4EE43AC46030CC6","73C9A33B152146C3B4EE43AC46030CC6","bdfbb937-8310-4e35-9093-c41bd532cef2","bea99957-1862-4ad8-9558-57b91e42ce64","{""participantId"":""73C9A33B152146C3B4EE43AC46030CC6"",""assignmentId"":""bdfbb937-8310-4e35-9093-c41bd532cef2"",""projectId"":""bea99957-1862-4ad8-9558-57b91e42ce64""}","https://test12345.live/?participantId=73C9A33B152146C3B4EE43AC46030CC6&assignmentId=bdfbb937-8310-4e35-9093-c41bd532cef2&projectId=bea99957-1862-4ad8-9558-57b91e42ce64","","null","<div style=""display: flex; justify-content: center; align-items: center;"">
                    <img src=""images/causal/causal_series_7/causal_series_7_b.jpg"" style=""width: 300px; height: 300px;"" />
                  </div>","null","",""
"","","","","","html-keyboard-response","127","328279","0.0-91.0-2.0","73C9A33B152146C3B4EE43AC46030CC6","73C9A33B152146C3B4EE43AC46030CC6","bdfbb937-8310-4e35-9093-c41bd532cef2","bea99957-1862-4ad8-9558-57b91e42ce64","{""participantId"":""73C9A33B152146C3B4EE43AC46030CC6"",""assignmentId"":""bdfbb937-8310-4e35-9093-c41bd532cef2"",""projectId"":""bea99957-1862-4ad8-9558-57b91e42ce64""}","https://test12345.live/?participantId=73C9A33B152146C3B4EE43AC46030CC6&assignmentId=bdfbb937-8310-4e35-9093-c41bd532cef2&projectId=bea99957-1862-4ad8-9558-57b91e42ce64","","null","<div style=""display: flex; justify-content: center; align-items: center;"">
                    <img src=""images/causal/causal_series_7/causal_series_7_c.jpg"" style=""width: 300px; height: 300px;"" />
                  </div>","null","",""
"","","","","","html-keyboard-response","128","331294","0.0-91.0-3.0","73C9A33B152146C3B4EE43AC46030CC6","73C9A33B152146C3B4EE43AC46030CC6","bdfbb937-8310-4e35-9093-c41bd532cef2","bea99957-1862-4ad8-9558-57b91e42ce64","{""participantId"":""73C9A33B152146C3B4EE43AC46030CC6"",""assignmentId"":""bdfbb937-8310-4e35-9093-c41bd532cef2"",""projectId"":""bea99957-1862-4ad8-9558-57b91e42ce64""}","https://test12345.live/?participantId=73C9A33B152146C3B4EE43AC46030CC6&assignmentId=bdfbb937-8310-4e35-9093-c41bd532cef2&projectId=bea99957-1862-4ad8-9558-57b91e42ce64","","null","<div style=""display: flex; justify-content: center; align-items: center;"">
                    <img src=""images/causal/causal_series_7/causal_series_7_d.jpg"" style=""width: 300px; height: 300px;"" />
                  </div>","null","",""
"","","","","","html-button-response","129","332389","0.0-93.0","73C9A33B152146C3B4EE43AC46030CC6","73C9A33B152146C3B4EE43AC46030CC6","bdfbb937-8310-4e35-9093-c41bd532cef2","bea99957-1862-4ad8-9558-57b91e42ce64","{""participantId"":""73C9A33B152146C3B4EE43AC46030CC6"",""assignmentId"":""bdfbb937-8310-4e35-9093-c41bd532cef2"",""projectId"":""bea99957-1862-4ad8-9558-57b91e42ce64""}","https://test12345.live/?participantId=73C9A33B152146C3B4EE43AC46030CC6&assignmentId=bdfbb937-8310-4e35-9093-c41bd532cef2&projectId=bea99957-1862-4ad8-9558-57b91e42ce64","","1094","Was there a person in the picture?","1","",""
"","","","","","survey-likert","130","334123","0.0-94.0","73C9A33B152146C3B4EE43AC46030CC6","73C9A33B152146C3B4EE43AC46030CC6","bdfbb937-8310-4e35-9093-c41bd532cef2","bea99957-1862-4ad8-9558-57b91e42ce64","{""participantId"":""73C9A33B152146C3B4EE43AC46030CC6"",""assignmentId"":""bdfbb937-8310-4e35-9093-c41bd532cef2"",""projectId"":""bea99957-1862-4ad8-9558-57b91e42ce64""}","https://test12345.live/?participantId=73C9A33B152146C3B4EE43AC46030CC6&assignmentId=bdfbb937-8310-4e35-9093-c41bd532cef2&projectId=bea99957-1862-4ad8-9558-57b91e42ce64","","1734","","{""Q0"":1}","","[0]"
"","","","","","survey-text","131","359823","0.0-95.0","73C9A33B152146C3B4EE43AC46030CC6","73C9A33B152146C3B4EE43AC46030CC6","bdfbb937-8310-4e35-9093-c41bd532cef2","bea99957-1862-4ad8-9558-57b91e42ce64","{""participantId"":""73C9A33B152146C3B4EE43AC46030CC6"",""assignmentId"":""bdfbb937-8310-4e35-9093-c41bd532cef2"",""projectId"":""bea99957-1862-4ad8-9558-57b91e42ce64""}","https://test12345.live/?participantId=73C9A33B152146C3B4EE43AC46030CC6&assignmentId=bdfbb937-8310-4e35-9093-c41bd532cef2&projectId=bea99957-1862-4ad8-9558-57b91e42ce64","","25697","","{""Q0"":""the blue deck had more people involved in the activities""}","",""
