"success","timeout","failed_images","failed_audio","failed_video","trial_type","trial_index","time_elapsed","internal_node_id","subject_id","study_id","session_id","view_history","rt","stimulus","response","choice"
"true","false","[]","[]","[]","preload","0","7091","0.0-0.0","9321FF35A5EE43799FE53CAE58FB4C3E","d01e276c-c127-43b3-95b3-c0f45c93c5fe","58046770-4c03-4bc2-b4bc-e7359011db5d","","","","",""
"","","","","","instructions","1","11688","0.0-1.0","9321FF35A5EE43799FE53CAE58FB4C3E","d01e276c-c127-43b3-95b3-c0f45c93c5fe","58046770-4c03-4bc2-b4bc-e7359011db5d","[{""page_index"":0,""viewing_time"":4596}]","4597","","",""
"","","","","","instructions","2","14402","0.0-2.0","9321FF35A5EE43799FE53CAE58FB4C3E","d01e276c-c127-43b3-95b3-c0f45c93c5fe","58046770-4c03-4bc2-b4bc-e7359011db5d","[{""page_index"":0,""viewing_time"":2713}]","2714","","",""
"true","","","","","fullscreen","3","17219","0.0-3.0","9321FF35A5EE43799FE53CAE58FB4C3E","d01e276c-c127-43b3-95b3-c0f45c93c5fe","58046770-4c03-4bc2-b4bc-e7359011db5d","","1815","","",""
"","","","","","instructions","4","27275","0.0-4.0","9321FF35A5EE43799FE53CAE58FB4C3E","d01e276c-c127-43b3-95b3-c0f45c93c5fe","58046770-4c03-4bc2-b4bc-e7359011db5d","[{""page_index"":0,""viewing_time"":10055}]","10055","","",""
"","","","","","html-keyboard-response","5","30278","0.0-5.0","9321FF35A5EE43799FE53CAE58FB4C3E","d01e276c-c127-43b3-95b3-c0f45c93c5fe","58046770-4c03-4bc2-b4bc-e7359011db5d","","null","<div style=""display: flex; justify-content: center; align-items: center;"">
                <img src=""images/causal/causal_series_2/causal_series_2_a.jpg"" style=""width: 300px; height: 300px;"" />
              </div>","null",""
"","","","","","html-keyboard-response","6","33281","0.0-6.0","9321FF35A5EE43799FE53CAE58FB4C3E","d01e276c-c127-43b3-95b3-c0f45c93c5fe","58046770-4c03-4bc2-b4bc-e7359011db5d","","null","<div style=""display: flex; justify-content: center; align-items: center;"">
                <img src=""images/causal/causal_series_2/causal_series_2_b.jpg"" style=""width: 300px; height: 300px;"" />
              </div>","null",""
"","","","","","html-keyboard-response","7","36285","0.0-7.0","9321FF35A5EE43799FE53CAE58FB4C3E","d01e276c-c127-43b3-95b3-c0f45c93c5fe","58046770-4c03-4bc2-b4bc-e7359011db5d","","null","<div style=""display: flex; justify-content: center; align-items: center;"">
                <img src=""images/causal/causal_series_2/causal_series_2_c.jpg"" style=""width: 300px; height: 300px;"" />
              </div>","null",""
"","","","","","html-button-response","8","37659","0.0-8.0","9321FF35A5EE43799FE53CAE58FB4C3E","d01e276c-c127-43b3-95b3-c0f45c93c5fe","58046770-4c03-4bc2-b4bc-e7359011db5d","","1370","
    <div style=""display: flex; justify-content: center; align-items: center;"">
      <img src=""images/red_deck_2.png"" style=""width: 300px; height: 300px; margin-right: 10px;"" />
      <img src=""images/blue_deck_1.png"" style=""width: 300px; height: 300px;"" />
    </div>","0","0"
"","","","","","html-keyboard-response","9","40662","0.0-9.0-0.0-0.0","9321FF35A5EE43799FE53CAE58FB4C3E","d01e276c-c127-43b3-95b3-c0f45c93c5fe","58046770-4c03-4bc2-b4bc-e7359011db5d","","null","<div style=""display: flex; justify-content: center; align-items: center;"">
                <img src=""images/causal/causal_series_2/causal_series_2_d.jpg"" style=""width: 300px; height: 300px;"" />
              </div>","null",""
"","","","","","html-keyboard-response","10","43667","0.0-10.0","9321FF35A5EE43799FE53CAE58FB4C3E","d01e276c-c127-43b3-95b3-c0f45c93c5fe","58046770-4c03-4bc2-b4bc-e7359011db5d","","null","<div style=""display: flex; justify-content: center; align-items: center;"">
                <img src=""images/other/blank.jpg"" style=""width: 300px; height: 300px;"" />
              </div>","null",""
"","","","","","html-keyboard-response","11","46671","0.0-11.0","9321FF35A5EE43799FE53CAE58FB4C3E","d01e276c-c127-43b3-95b3-c0f45c93c5fe","58046770-4c03-4bc2-b4bc-e7359011db5d","","null","<div style=""display: flex; justify-content: center; align-items: center;"">
                <img src=""images/causal/causal_series_5/causal_series_5_a.jpg"" style=""width: 300px; height: 300px;"" />
              </div>","null",""
"","","","","","html-keyboard-response","12","49674","0.0-12.0","9321FF35A5EE43799FE53CAE58FB4C3E","d01e276c-c127-43b3-95b3-c0f45c93c5fe","58046770-4c03-4bc2-b4bc-e7359011db5d","","null","<div style=""display: flex; justify-content: center; align-items: center;"">
                <img src=""images/causal/causal_series_5/causal_series_5_b.jpg"" style=""width: 300px; height: 300px;"" />
              </div>","null",""
"","","","","","html-keyboard-response","13","52678","0.0-13.0","9321FF35A5EE43799FE53CAE58FB4C3E","d01e276c-c127-43b3-95b3-c0f45c93c5fe","58046770-4c03-4bc2-b4bc-e7359011db5d","","null","<div style=""display: flex; justify-content: center; align-items: center;"">
                <img src=""images/causal/causal_series_5/causal_series_5_c.jpg"" style=""width: 300px; height: 300px;"" />
              </div>","null",""
"","","","","","html-button-response","14","54189","0.0-14.0","9321FF35A5EE43799FE53CAE58FB4C3E","d01e276c-c127-43b3-95b3-c0f45c93c5fe","58046770-4c03-4bc2-b4bc-e7359011db5d","","1508","
    <div style=""display: flex; justify-content: center; align-items: center;"">
      <img src=""images/red_deck_2.png"" style=""width: 300px; height: 300px; margin-right: 10px;"" />
      <img src=""images/blue_deck_1.png"" style=""width: 300px; height: 300px;"" />
    </div>","1","1"
"","","","","","html-keyboard-response","15","57192","0.0-15.0-1.0-0.0","9321FF35A5EE43799FE53CAE58FB4C3E","d01e276c-c127-43b3-95b3-c0f45c93c5fe","58046770-4c03-4bc2-b4bc-e7359011db5d","","null","<div style=""display: flex; justify-content: center; align-items: center;"">
                <img src=""images/semantic/semantic_series_4/semantic_series_4_d.jpg"" style=""width: 300px; height: 300px;"" />
              </div>","null",""
"","","","","","html-keyboard-response","16","60194","0.0-16.0","9321FF35A5EE43799FE53CAE58FB4C3E","d01e276c-c127-43b3-95b3-c0f45c93c5fe","58046770-4c03-4bc2-b4bc-e7359011db5d","","null","<div style=""display: flex; justify-content: center; align-items: center;"">
                <img src=""images/other/blank.jpg"" style=""width: 300px; height: 300px;"" />
              </div>","null",""
"","","","","","html-keyboard-response","17","63196","0.0-17.0","9321FF35A5EE43799FE53CAE58FB4C3E","d01e276c-c127-43b3-95b3-c0f45c93c5fe","58046770-4c03-4bc2-b4bc-e7359011db5d","","null","<div style=""display: flex; justify-content: center; align-items: center;"">
                <img src=""images/causal/causal_series_18/causal_series_18_a.jpg"" style=""width: 300px; height: 300px;"" />
              </div>","null",""
"","","","","","html-keyboard-response","18","66198","0.0-18.0","9321FF35A5EE43799FE53CAE58FB4C3E","d01e276c-c127-43b3-95b3-c0f45c93c5fe","58046770-4c03-4bc2-b4bc-e7359011db5d","","null","<div style=""display: flex; justify-content: center; align-items: center;"">
                <img src=""images/causal/causal_series_18/causal_series_18_b.jpg"" style=""width: 300px; height: 300px;"" />
              </div>","null",""
"","","","","","html-keyboard-response","19","69200","0.0-19.0","9321FF35A5EE43799FE53CAE58FB4C3E","d01e276c-c127-43b3-95b3-c0f45c93c5fe","58046770-4c03-4bc2-b4bc-e7359011db5d","","null","<div style=""display: flex; justify-content: center; align-items: center;"">
                <img src=""images/causal/causal_series_18/causal_series_18_c.jpg"" style=""width: 300px; height: 300px;"" />
              </div>","null",""
"","","","","","html-button-response","20","70209","0.0-20.0","9321FF35A5EE43799FE53CAE58FB4C3E","d01e276c-c127-43b3-95b3-c0f45c93c5fe","58046770-4c03-4bc2-b4bc-e7359011db5d","","1008","
    <div style=""display: flex; justify-content: center; align-items: center;"">
      <img src=""images/red_deck_2.png"" style=""width: 300px; height: 300px; margin-right: 10px;"" />
      <img src=""images/blue_deck_1.png"" style=""width: 300px; height: 300px;"" />
    </div>","0","0"
"","","","","","html-keyboard-response","21","73210","0.0-21.0-0.0-0.0","9321FF35A5EE43799FE53CAE58FB4C3E","d01e276c-c127-43b3-95b3-c0f45c93c5fe","58046770-4c03-4bc2-b4bc-e7359011db5d","","null","<div style=""display: flex; justify-content: center; align-items: center;"">
                <img src=""images/causal/causal_series_18/causal_series_18_d.jpg"" style=""width: 300px; height: 300px;"" />
              </div>","null",""
"","","","","","html-keyboard-response","22","76212","0.0-22.0","9321FF35A5EE43799FE53CAE58FB4C3E","d01e276c-c127-43b3-95b3-c0f45c93c5fe","58046770-4c03-4bc2-b4bc-e7359011db5d","","null","<div style=""display: flex; justify-content: center; align-items: center;"">
                <img src=""images/other/blank.jpg"" style=""width: 300px; height: 300px;"" />
              </div>","null",""
"","","","","","html-keyboard-response","23","79215","0.0-23.0","9321FF35A5EE43799FE53CAE58FB4C3E","d01e276c-c127-43b3-95b3-c0f45c93c5fe","58046770-4c03-4bc2-b4bc-e7359011db5d","","null","<div style=""display: flex; justify-content: center; align-items: center;"">
                <img src=""images/causal/causal_series_10/causal_series_10_a.jpg"" style=""width: 300px; height: 300px;"" />
              </div>","null",""
"","","","","","html-keyboard-response","24","82218","0.0-24.0","9321FF35A5EE43799FE53CAE58FB4C3E","d01e276c-c127-43b3-95b3-c0f45c93c5fe","58046770-4c03-4bc2-b4bc-e7359011db5d","","null","<div style=""display: flex; justify-content: center; align-items: center;"">
                <img src=""images/causal/causal_series_10/causal_series_10_b.jpg"" style=""width: 300px; height: 300px;"" />
              </div>","null",""
"","","","","","html-keyboard-response","25","85220","0.0-25.0","9321FF35A5EE43799FE53CAE58FB4C3E","d01e276c-c127-43b3-95b3-c0f45c93c5fe","58046770-4c03-4bc2-b4bc-e7359011db5d","","null","<div style=""display: flex; justify-content: center; align-items: center;"">
                <img src=""images/causal/causal_series_10/causal_series_10_c.jpg"" style=""width: 300px; height: 300px;"" />
              </div>","null",""
"","","","","","html-button-response","26","86384","0.0-26.0","9321FF35A5EE43799FE53CAE58FB4C3E","d01e276c-c127-43b3-95b3-c0f45c93c5fe","58046770-4c03-4bc2-b4bc-e7359011db5d","","1162","
    <div style=""display: flex; justify-content: center; align-items: center;"">
      <img src=""images/red_deck_2.png"" style=""width: 300px; height: 300px; margin-right: 10px;"" />
      <img src=""images/blue_deck_1.png"" style=""width: 300px; height: 300px;"" />
    </div>","0","0"
"","","","","","html-keyboard-response","27","89387","0.0-27.0-0.0-0.0","9321FF35A5EE43799FE53CAE58FB4C3E","d01e276c-c127-43b3-95b3-c0f45c93c5fe","58046770-4c03-4bc2-b4bc-e7359011db5d","","null","<div style=""display: flex; justify-content: center; align-items: center;"">
                <img src=""images/causal/causal_series_10/causal_series_10_d.jpg"" style=""width: 300px; height: 300px;"" />
              </div>","null",""
"","","","","","html-keyboard-response","28","92390","0.0-28.0","9321FF35A5EE43799FE53CAE58FB4C3E","d01e276c-c127-43b3-95b3-c0f45c93c5fe","58046770-4c03-4bc2-b4bc-e7359011db5d","","null","<div style=""display: flex; justify-content: center; align-items: center;"">
                <img src=""images/other/blank.jpg"" style=""width: 300px; height: 300px;"" />
              </div>","null",""
"","","","","","html-keyboard-response","29","95394","0.0-29.0","9321FF35A5EE43799FE53CAE58FB4C3E","d01e276c-c127-43b3-95b3-c0f45c93c5fe","58046770-4c03-4bc2-b4bc-e7359011db5d","","null","<div style=""display: flex; justify-content: center; align-items: center;"">
                <img src=""images/causal/causal_series_1/causal_series_1_a.jpg"" style=""width: 300px; height: 300px;"" />
              </div>","null",""
"","","","","","html-keyboard-response","30","98398","0.0-30.0","9321FF35A5EE43799FE53CAE58FB4C3E","d01e276c-c127-43b3-95b3-c0f45c93c5fe","58046770-4c03-4bc2-b4bc-e7359011db5d","","null","<div style=""display: flex; justify-content: center; align-items: center;"">
                <img src=""images/causal/causal_series_1/causal_series_1_b.jpg"" style=""width: 300px; height: 300px;"" />
              </div>","null",""
"","","","","","html-keyboard-response","31","101401","0.0-31.0","9321FF35A5EE43799FE53CAE58FB4C3E","d01e276c-c127-43b3-95b3-c0f45c93c5fe","58046770-4c03-4bc2-b4bc-e7359011db5d","","null","<div style=""display: flex; justify-content: center; align-items: center;"">
                <img src=""images/causal/causal_series_1/causal_series_1_c.jpg"" style=""width: 300px; height: 300px;"" />
              </div>","null",""
"","","","","","html-button-response","32","103996","0.0-32.0","9321FF35A5EE43799FE53CAE58FB4C3E","d01e276c-c127-43b3-95b3-c0f45c93c5fe","58046770-4c03-4bc2-b4bc-e7359011db5d","","2592","
    <div style=""display: flex; justify-content: center; align-items: center;"">
      <img src=""images/red_deck_2.png"" style=""width: 300px; height: 300px; margin-right: 10px;"" />
      <img src=""images/blue_deck_1.png"" style=""width: 300px; height: 300px;"" />
    </div>","1","1"
"","","","","","html-keyboard-response","33","106999","0.0-33.0-1.0-0.0","9321FF35A5EE43799FE53CAE58FB4C3E","d01e276c-c127-43b3-95b3-c0f45c93c5fe","58046770-4c03-4bc2-b4bc-e7359011db5d","","null","<div style=""display: flex; justify-content: center; align-items: center;"">
                <img src=""images/semantic/semantic_series_18/semantic_series_18_d.jpg"" style=""width: 300px; height: 300px;"" />
              </div>","null",""
"","","","","","html-keyboard-response","34","110003","0.0-34.0","9321FF35A5EE43799FE53CAE58FB4C3E","d01e276c-c127-43b3-95b3-c0f45c93c5fe","58046770-4c03-4bc2-b4bc-e7359011db5d","","null","<div style=""display: flex; justify-content: center; align-items: center;"">
                <img src=""images/other/blank.jpg"" style=""width: 300px; height: 300px;"" />
              </div>","null",""
"","","","","","html-keyboard-response","35","113007","0.0-35.0","9321FF35A5EE43799FE53CAE58FB4C3E","d01e276c-c127-43b3-95b3-c0f45c93c5fe","58046770-4c03-4bc2-b4bc-e7359011db5d","","null","<div style=""display: flex; justify-content: center; align-items: center;"">
                <img src=""images/causal/causal_series_17/causal_series_17_a.jpg"" style=""width: 300px; height: 300px;"" />
              </div>","null",""
"","","","","","html-keyboard-response","36","116010","0.0-36.0","9321FF35A5EE43799FE53CAE58FB4C3E","d01e276c-c127-43b3-95b3-c0f45c93c5fe","58046770-4c03-4bc2-b4bc-e7359011db5d","","null","<div style=""display: flex; justify-content: center; align-items: center;"">
                <img src=""images/causal/causal_series_17/causal_series_17_b.jpg"" style=""width: 300px; height: 300px;"" />
              </div>","null",""
"","","","","","html-keyboard-response","37","119013","0.0-37.0","9321FF35A5EE43799FE53CAE58FB4C3E","d01e276c-c127-43b3-95b3-c0f45c93c5fe","58046770-4c03-4bc2-b4bc-e7359011db5d","","null","<div style=""display: flex; justify-content: center; align-items: center;"">
                <img src=""images/causal/causal_series_17/causal_series_17_c.jpg"" style=""width: 300px; height: 300px;"" />
              </div>","null",""
"","","","","","html-button-response","38","119804","0.0-38.0","9321FF35A5EE43799FE53CAE58FB4C3E","d01e276c-c127-43b3-95b3-c0f45c93c5fe","58046770-4c03-4bc2-b4bc-e7359011db5d","","789","
    <div style=""display: flex; justify-content: center; align-items: center;"">
      <img src=""images/red_deck_2.png"" style=""width: 300px; height: 300px; margin-right: 10px;"" />
      <img src=""images/blue_deck_1.png"" style=""width: 300px; height: 300px;"" />
    </div>","1","1"
"","","","","","html-keyboard-response","39","122807","0.0-39.0-1.0-0.0","9321FF35A5EE43799FE53CAE58FB4C3E","d01e276c-c127-43b3-95b3-c0f45c93c5fe","58046770-4c03-4bc2-b4bc-e7359011db5d","","null","<div style=""display: flex; justify-content: center; align-items: center;"">
                <img src=""images/semantic/semantic_series_16/semantic_series_16_d.jpg"" style=""width: 300px; height: 300px;"" />
              </div>","null",""
"","","","","","html-keyboard-response","40","125811","0.0-40.0","9321FF35A5EE43799FE53CAE58FB4C3E","d01e276c-c127-43b3-95b3-c0f45c93c5fe","58046770-4c03-4bc2-b4bc-e7359011db5d","","null","<div style=""display: flex; justify-content: center; align-items: center;"">
                <img src=""images/other/blank.jpg"" style=""width: 300px; height: 300px;"" />
              </div>","null",""
"","","","","","html-keyboard-response","41","128814","0.0-41.0","9321FF35A5EE43799FE53CAE58FB4C3E","d01e276c-c127-43b3-95b3-c0f45c93c5fe","58046770-4c03-4bc2-b4bc-e7359011db5d","","null","<div style=""display: flex; justify-content: center; align-items: center;"">
                <img src=""images/causal/causal_series_3/causal_series_3_a.jpg"" style=""width: 300px; height: 300px;"" />
              </div>","null",""
"","","","","","html-keyboard-response","42","131818","0.0-42.0","9321FF35A5EE43799FE53CAE58FB4C3E","d01e276c-c127-43b3-95b3-c0f45c93c5fe","58046770-4c03-4bc2-b4bc-e7359011db5d","","null","<div style=""display: flex; justify-content: center; align-items: center;"">
                <img src=""images/causal/causal_series_3/causal_series_3_b.jpg"" style=""width: 300px; height: 300px;"" />
              </div>","null",""
"","","","","","html-keyboard-response","43","134821","0.0-43.0","9321FF35A5EE43799FE53CAE58FB4C3E","d01e276c-c127-43b3-95b3-c0f45c93c5fe","58046770-4c03-4bc2-b4bc-e7359011db5d","","null","<div style=""display: flex; justify-content: center; align-items: center;"">
                <img src=""images/causal/causal_series_3/causal_series_3_c.jpg"" style=""width: 300px; height: 300px;"" />
              </div>","null",""
"","","","","","html-button-response","44","135820","0.0-44.0","9321FF35A5EE43799FE53CAE58FB4C3E","d01e276c-c127-43b3-95b3-c0f45c93c5fe","58046770-4c03-4bc2-b4bc-e7359011db5d","","996","
    <div style=""display: flex; justify-content: center; align-items: center;"">
      <img src=""images/red_deck_2.png"" style=""width: 300px; height: 300px; margin-right: 10px;"" />
      <img src=""images/blue_deck_1.png"" style=""width: 300px; height: 300px;"" />
    </div>","0","0"
"","","","","","html-keyboard-response","45","138823","0.0-45.0-0.0-0.0","9321FF35A5EE43799FE53CAE58FB4C3E","d01e276c-c127-43b3-95b3-c0f45c93c5fe","58046770-4c03-4bc2-b4bc-e7359011db5d","","null","<div style=""display: flex; justify-content: center; align-items: center;"">
                <img src=""images/causal/causal_series_3/causal_series_3_d.jpg"" style=""width: 300px; height: 300px;"" />
              </div>","null",""
"","","","","","html-keyboard-response","46","141826","0.0-46.0","9321FF35A5EE43799FE53CAE58FB4C3E","d01e276c-c127-43b3-95b3-c0f45c93c5fe","58046770-4c03-4bc2-b4bc-e7359011db5d","","null","<div style=""display: flex; justify-content: center; align-items: center;"">
                <img src=""images/other/blank.jpg"" style=""width: 300px; height: 300px;"" />
              </div>","null",""
"","","","","","html-keyboard-response","47","144830","0.0-47.0","9321FF35A5EE43799FE53CAE58FB4C3E","d01e276c-c127-43b3-95b3-c0f45c93c5fe","58046770-4c03-4bc2-b4bc-e7359011db5d","","null","<div style=""display: flex; justify-content: center; align-items: center;"">
                <img src=""images/causal/causal_series_4/causal_series_4_a.jpg"" style=""width: 300px; height: 300px;"" />
              </div>","null",""
"","","","","","html-keyboard-response","48","147834","0.0-48.0","9321FF35A5EE43799FE53CAE58FB4C3E","d01e276c-c127-43b3-95b3-c0f45c93c5fe","58046770-4c03-4bc2-b4bc-e7359011db5d","","null","<div style=""display: flex; justify-content: center; align-items: center;"">
                <img src=""images/causal/causal_series_4/causal_series_4_b.jpg"" style=""width: 300px; height: 300px;"" />
              </div>","null",""
"","","","","","html-keyboard-response","49","150837","0.0-49.0","9321FF35A5EE43799FE53CAE58FB4C3E","d01e276c-c127-43b3-95b3-c0f45c93c5fe","58046770-4c03-4bc2-b4bc-e7359011db5d","","null","<div style=""display: flex; justify-content: center; align-items: center;"">
                <img src=""images/causal/causal_series_4/causal_series_4_c.jpg"" style=""width: 300px; height: 300px;"" />
              </div>","null",""
"","","","","","html-button-response","50","151601","0.0-50.0","9321FF35A5EE43799FE53CAE58FB4C3E","d01e276c-c127-43b3-95b3-c0f45c93c5fe","58046770-4c03-4bc2-b4bc-e7359011db5d","","762","
    <div style=""display: flex; justify-content: center; align-items: center;"">
      <img src=""images/red_deck_2.png"" style=""width: 300px; height: 300px; margin-right: 10px;"" />
      <img src=""images/blue_deck_1.png"" style=""width: 300px; height: 300px;"" />
    </div>","0","0"
"","","","","","html-keyboard-response","51","154605","0.0-51.0-0.0-0.0","9321FF35A5EE43799FE53CAE58FB4C3E","d01e276c-c127-43b3-95b3-c0f45c93c5fe","58046770-4c03-4bc2-b4bc-e7359011db5d","","null","<div style=""display: flex; justify-content: center; align-items: center;"">
                <img src=""images/causal/causal_series_4/causal_series_4_d.jpg"" style=""width: 300px; height: 300px;"" />
              </div>","null",""
"","","","","","html-keyboard-response","52","157608","0.0-52.0","9321FF35A5EE43799FE53CAE58FB4C3E","d01e276c-c127-43b3-95b3-c0f45c93c5fe","58046770-4c03-4bc2-b4bc-e7359011db5d","","null","<div style=""display: flex; justify-content: center; align-items: center;"">
                <img src=""images/other/blank.jpg"" style=""width: 300px; height: 300px;"" />
              </div>","null",""
"","","","","","html-keyboard-response","53","160612","0.0-53.0","9321FF35A5EE43799FE53CAE58FB4C3E","d01e276c-c127-43b3-95b3-c0f45c93c5fe","58046770-4c03-4bc2-b4bc-e7359011db5d","","null","<div style=""display: flex; justify-content: center; align-items: center;"">
                <img src=""images/causal/causal_series_11/causal_series_11_a.jpg"" style=""width: 300px; height: 300px;"" />
              </div>","null",""
"","","","","","html-keyboard-response","54","163616","0.0-54.0","9321FF35A5EE43799FE53CAE58FB4C3E","d01e276c-c127-43b3-95b3-c0f45c93c5fe","58046770-4c03-4bc2-b4bc-e7359011db5d","","null","<div style=""display: flex; justify-content: center; align-items: center;"">
                <img src=""images/causal/causal_series_11/causal_series_11_b.jpg"" style=""width: 300px; height: 300px;"" />
              </div>","null",""
"","","","","","html-keyboard-response","55","166621","0.0-55.0","9321FF35A5EE43799FE53CAE58FB4C3E","d01e276c-c127-43b3-95b3-c0f45c93c5fe","58046770-4c03-4bc2-b4bc-e7359011db5d","","null","<div style=""display: flex; justify-content: center; align-items: center;"">
                <img src=""images/causal/causal_series_11/causal_series_11_c.jpg"" style=""width: 300px; height: 300px;"" />
              </div>","null",""
"","","","","","html-button-response","56","168740","0.0-56.0","9321FF35A5EE43799FE53CAE58FB4C3E","d01e276c-c127-43b3-95b3-c0f45c93c5fe","58046770-4c03-4bc2-b4bc-e7359011db5d","","2117","
    <div style=""display: flex; justify-content: center; align-items: center;"">
      <img src=""images/red_deck_2.png"" style=""width: 300px; height: 300px; margin-right: 10px;"" />
      <img src=""images/blue_deck_1.png"" style=""width: 300px; height: 300px;"" />
    </div>","0","0"
"","","","","","html-keyboard-response","57","171743","0.0-57.0-0.0-0.0","9321FF35A5EE43799FE53CAE58FB4C3E","d01e276c-c127-43b3-95b3-c0f45c93c5fe","58046770-4c03-4bc2-b4bc-e7359011db5d","","null","<div style=""display: flex; justify-content: center; align-items: center;"">
                <img src=""images/causal/causal_series_11/causal_series_11_d.jpg"" style=""width: 300px; height: 300px;"" />
              </div>","null",""
"","","","","","html-keyboard-response","58","174748","0.0-58.0","9321FF35A5EE43799FE53CAE58FB4C3E","d01e276c-c127-43b3-95b3-c0f45c93c5fe","58046770-4c03-4bc2-b4bc-e7359011db5d","","null","<div style=""display: flex; justify-content: center; align-items: center;"">
                <img src=""images/other/blank.jpg"" style=""width: 300px; height: 300px;"" />
              </div>","null",""
"","","","","","html-keyboard-response","59","177749","0.0-59.0","9321FF35A5EE43799FE53CAE58FB4C3E","d01e276c-c127-43b3-95b3-c0f45c93c5fe","58046770-4c03-4bc2-b4bc-e7359011db5d","","null","<div style=""display: flex; justify-content: center; align-items: center;"">
                <img src=""images/causal/causal_series_12/causal_series_12_a.jpg"" style=""width: 300px; height: 300px;"" />
              </div>","null",""
"","","","","","html-keyboard-response","60","180752","0.0-60.0","9321FF35A5EE43799FE53CAE58FB4C3E","d01e276c-c127-43b3-95b3-c0f45c93c5fe","58046770-4c03-4bc2-b4bc-e7359011db5d","","null","<div style=""display: flex; justify-content: center; align-items: center;"">
                <img src=""images/causal/causal_series_12/causal_series_12_b.jpg"" style=""width: 300px; height: 300px;"" />
              </div>","null",""
"","","","","","html-keyboard-response","61","183755","0.0-61.0","9321FF35A5EE43799FE53CAE58FB4C3E","d01e276c-c127-43b3-95b3-c0f45c93c5fe","58046770-4c03-4bc2-b4bc-e7359011db5d","","null","<div style=""display: flex; justify-content: center; align-items: center;"">
                <img src=""images/causal/causal_series_12/causal_series_12_c.jpg"" style=""width: 300px; height: 300px;"" />
              </div>","null",""
"","","","","","html-button-response","62","185208","0.0-62.0","9321FF35A5EE43799FE53CAE58FB4C3E","d01e276c-c127-43b3-95b3-c0f45c93c5fe","58046770-4c03-4bc2-b4bc-e7359011db5d","","1450","
    <div style=""display: flex; justify-content: center; align-items: center;"">
      <img src=""images/red_deck_2.png"" style=""width: 300px; height: 300px; margin-right: 10px;"" />
      <img src=""images/blue_deck_1.png"" style=""width: 300px; height: 300px;"" />
    </div>","1","1"
"","","","","","html-keyboard-response","63","188210","0.0-63.0-1.0-0.0","9321FF35A5EE43799FE53CAE58FB4C3E","d01e276c-c127-43b3-95b3-c0f45c93c5fe","58046770-4c03-4bc2-b4bc-e7359011db5d","","null","<div style=""display: flex; justify-content: center; align-items: center;"">
                <img src=""images/semantic/semantic_series_11/semantic_series_11_d.jpg"" style=""width: 300px; height: 300px;"" />
              </div>","null",""
"","","","","","html-keyboard-response","64","191213","0.0-64.0","9321FF35A5EE43799FE53CAE58FB4C3E","d01e276c-c127-43b3-95b3-c0f45c93c5fe","58046770-4c03-4bc2-b4bc-e7359011db5d","","null","<div style=""display: flex; justify-content: center; align-items: center;"">
                <img src=""images/other/blank.jpg"" style=""width: 300px; height: 300px;"" />
              </div>","null",""
"","","","","","html-keyboard-response","65","194215","0.0-65.0","9321FF35A5EE43799FE53CAE58FB4C3E","d01e276c-c127-43b3-95b3-c0f45c93c5fe","58046770-4c03-4bc2-b4bc-e7359011db5d","","null","<div style=""display: flex; justify-content: center; align-items: center;"">
                <img src=""images/causal/causal_series_8/causal_series_8_a.jpg"" style=""width: 300px; height: 300px;"" />
              </div>","null",""
"","","","","","html-keyboard-response","66","197218","0.0-66.0","9321FF35A5EE43799FE53CAE58FB4C3E","d01e276c-c127-43b3-95b3-c0f45c93c5fe","58046770-4c03-4bc2-b4bc-e7359011db5d","","null","<div style=""display: flex; justify-content: center; align-items: center;"">
                <img src=""images/causal/causal_series_8/causal_series_8_b.jpg"" style=""width: 300px; height: 300px;"" />
              </div>","null",""
"","","","","","html-keyboard-response","67","200221","0.0-67.0","9321FF35A5EE43799FE53CAE58FB4C3E","d01e276c-c127-43b3-95b3-c0f45c93c5fe","58046770-4c03-4bc2-b4bc-e7359011db5d","","null","<div style=""display: flex; justify-content: center; align-items: center;"">
                <img src=""images/causal/causal_series_8/causal_series_8_c.jpg"" style=""width: 300px; height: 300px;"" />
              </div>","null",""
"","","","","","html-button-response","68","201287","0.0-68.0","9321FF35A5EE43799FE53CAE58FB4C3E","d01e276c-c127-43b3-95b3-c0f45c93c5fe","58046770-4c03-4bc2-b4bc-e7359011db5d","","1065","
    <div style=""display: flex; justify-content: center; align-items: center;"">
      <img src=""images/red_deck_2.png"" style=""width: 300px; height: 300px; margin-right: 10px;"" />
      <img src=""images/blue_deck_1.png"" style=""width: 300px; height: 300px;"" />
    </div>","0","0"
"","","","","","html-keyboard-response","69","204290","0.0-69.0-0.0-0.0","9321FF35A5EE43799FE53CAE58FB4C3E","d01e276c-c127-43b3-95b3-c0f45c93c5fe","58046770-4c03-4bc2-b4bc-e7359011db5d","","null","<div style=""display: flex; justify-content: center; align-items: center;"">
                <img src=""images/causal/causal_series_8/causal_series_8_d.jpg"" style=""width: 300px; height: 300px;"" />
              </div>","null",""
"","","","","","html-keyboard-response","70","207294","0.0-70.0","9321FF35A5EE43799FE53CAE58FB4C3E","d01e276c-c127-43b3-95b3-c0f45c93c5fe","58046770-4c03-4bc2-b4bc-e7359011db5d","","null","<div style=""display: flex; justify-content: center; align-items: center;"">
                <img src=""images/other/blank.jpg"" style=""width: 300px; height: 300px;"" />
              </div>","null",""
"","","","","","html-keyboard-response","71","210298","0.0-71.0","9321FF35A5EE43799FE53CAE58FB4C3E","d01e276c-c127-43b3-95b3-c0f45c93c5fe","58046770-4c03-4bc2-b4bc-e7359011db5d","","null","<div style=""display: flex; justify-content: center; align-items: center;"">
                <img src=""images/causal/causal_series_15/causal_series_15_a.jpg"" style=""width: 300px; height: 300px;"" />
              </div>","null",""
"","","","","","html-keyboard-response","72","213302","0.0-72.0","9321FF35A5EE43799FE53CAE58FB4C3E","d01e276c-c127-43b3-95b3-c0f45c93c5fe","58046770-4c03-4bc2-b4bc-e7359011db5d","","null","<div style=""display: flex; justify-content: center; align-items: center;"">
                <img src=""images/causal/causal_series_15/causal_series_15_b.jpg"" style=""width: 300px; height: 300px;"" />
              </div>","null",""
"","","","","","html-keyboard-response","73","216306","0.0-73.0","9321FF35A5EE43799FE53CAE58FB4C3E","d01e276c-c127-43b3-95b3-c0f45c93c5fe","58046770-4c03-4bc2-b4bc-e7359011db5d","","null","<div style=""display: flex; justify-content: center; align-items: center;"">
                <img src=""images/causal/causal_series_15/causal_series_15_c.jpg"" style=""width: 300px; height: 300px;"" />
              </div>","null",""
"","","","","","html-button-response","74","223338","0.0-74.0","9321FF35A5EE43799FE53CAE58FB4C3E","d01e276c-c127-43b3-95b3-c0f45c93c5fe","58046770-4c03-4bc2-b4bc-e7359011db5d","","7030","
    <div style=""display: flex; justify-content: center; align-items: center;"">
      <img src=""images/red_deck_2.png"" style=""width: 300px; height: 300px; margin-right: 10px;"" />
      <img src=""images/blue_deck_1.png"" style=""width: 300px; height: 300px;"" />
    </div>","0","0"
"","","","","","html-keyboard-response","75","226342","0.0-75.0-0.0-0.0","9321FF35A5EE43799FE53CAE58FB4C3E","d01e276c-c127-43b3-95b3-c0f45c93c5fe","58046770-4c03-4bc2-b4bc-e7359011db5d","","null","<div style=""display: flex; justify-content: center; align-items: center;"">
                <img src=""images/causal/causal_series_15/causal_series_15_d.jpg"" style=""width: 300px; height: 300px;"" />
              </div>","null",""
"","","","","","html-keyboard-response","76","229345","0.0-76.0","9321FF35A5EE43799FE53CAE58FB4C3E","d01e276c-c127-43b3-95b3-c0f45c93c5fe","58046770-4c03-4bc2-b4bc-e7359011db5d","","null","<div style=""display: flex; justify-content: center; align-items: center;"">
                <img src=""images/other/blank.jpg"" style=""width: 300px; height: 300px;"" />
              </div>","null",""
"","","","","","html-keyboard-response","77","232349","0.0-77.0","9321FF35A5EE43799FE53CAE58FB4C3E","d01e276c-c127-43b3-95b3-c0f45c93c5fe","58046770-4c03-4bc2-b4bc-e7359011db5d","","null","<div style=""display: flex; justify-content: center; align-items: center;"">
                <img src=""images/causal/causal_series_13/causal_series_13_a.jpg"" style=""width: 300px; height: 300px;"" />
              </div>","null",""
"","","","","","html-keyboard-response","78","235353","0.0-78.0","9321FF35A5EE43799FE53CAE58FB4C3E","d01e276c-c127-43b3-95b3-c0f45c93c5fe","58046770-4c03-4bc2-b4bc-e7359011db5d","","null","<div style=""display: flex; justify-content: center; align-items: center;"">
                <img src=""images/causal/causal_series_13/causal_series_13_b.jpg"" style=""width: 300px; height: 300px;"" />
              </div>","null",""
"","","","","","html-keyboard-response","79","238356","0.0-79.0","9321FF35A5EE43799FE53CAE58FB4C3E","d01e276c-c127-43b3-95b3-c0f45c93c5fe","58046770-4c03-4bc2-b4bc-e7359011db5d","","null","<div style=""display: flex; justify-content: center; align-items: center;"">
                <img src=""images/causal/causal_series_13/causal_series_13_c.jpg"" style=""width: 300px; height: 300px;"" />
              </div>","null",""
"","","","","","html-button-response","80","239955","0.0-80.0","9321FF35A5EE43799FE53CAE58FB4C3E","d01e276c-c127-43b3-95b3-c0f45c93c5fe","58046770-4c03-4bc2-b4bc-e7359011db5d","","1596","
    <div style=""display: flex; justify-content: center; align-items: center;"">
      <img src=""images/red_deck_2.png"" style=""width: 300px; height: 300px; margin-right: 10px;"" />
      <img src=""images/blue_deck_1.png"" style=""width: 300px; height: 300px;"" />
    </div>","1","1"
"","","","","","html-keyboard-response","81","242959","0.0-81.0-1.0-0.0","9321FF35A5EE43799FE53CAE58FB4C3E","d01e276c-c127-43b3-95b3-c0f45c93c5fe","58046770-4c03-4bc2-b4bc-e7359011db5d","","null","<div style=""display: flex; justify-content: center; align-items: center;"">
                <img src=""images/semantic/semantic_series_12/semantic_series_12_d.jpg"" style=""width: 300px; height: 300px;"" />
              </div>","null",""
"","","","","","html-keyboard-response","82","245962","0.0-82.0","9321FF35A5EE43799FE53CAE58FB4C3E","d01e276c-c127-43b3-95b3-c0f45c93c5fe","58046770-4c03-4bc2-b4bc-e7359011db5d","","null","<div style=""display: flex; justify-content: center; align-items: center;"">
                <img src=""images/other/blank.jpg"" style=""width: 300px; height: 300px;"" />
              </div>","null",""
"","","","","","html-keyboard-response","83","248965","0.0-83.0","9321FF35A5EE43799FE53CAE58FB4C3E","d01e276c-c127-43b3-95b3-c0f45c93c5fe","58046770-4c03-4bc2-b4bc-e7359011db5d","","null","<div style=""display: flex; justify-content: center; align-items: center;"">
                <img src=""images/causal/causal_series_9/causal_series_9_a.jpg"" style=""width: 300px; height: 300px;"" />
              </div>","null",""
"","","","","","html-keyboard-response","84","251969","0.0-84.0","9321FF35A5EE43799FE53CAE58FB4C3E","d01e276c-c127-43b3-95b3-c0f45c93c5fe","58046770-4c03-4bc2-b4bc-e7359011db5d","","null","<div style=""display: flex; justify-content: center; align-items: center;"">
                <img src=""images/causal/causal_series_9/causal_series_9_b.jpg"" style=""width: 300px; height: 300px;"" />
              </div>","null",""
"","","","","","html-keyboard-response","85","254973","0.0-85.0","9321FF35A5EE43799FE53CAE58FB4C3E","d01e276c-c127-43b3-95b3-c0f45c93c5fe","58046770-4c03-4bc2-b4bc-e7359011db5d","","null","<div style=""display: flex; justify-content: center; align-items: center;"">
                <img src=""images/causal/causal_series_9/causal_series_9_c.jpg"" style=""width: 300px; height: 300px;"" />
              </div>","null",""
"","","","","","html-button-response","86","258983","0.0-86.0","9321FF35A5EE43799FE53CAE58FB4C3E","d01e276c-c127-43b3-95b3-c0f45c93c5fe","58046770-4c03-4bc2-b4bc-e7359011db5d","","4008","
    <div style=""display: flex; justify-content: center; align-items: center;"">
      <img src=""images/red_deck_2.png"" style=""width: 300px; height: 300px; margin-right: 10px;"" />
      <img src=""images/blue_deck_1.png"" style=""width: 300px; height: 300px;"" />
    </div>","1","1"
"","","","","","html-keyboard-response","87","261986","0.0-87.0-1.0-0.0","9321FF35A5EE43799FE53CAE58FB4C3E","d01e276c-c127-43b3-95b3-c0f45c93c5fe","58046770-4c03-4bc2-b4bc-e7359011db5d","","null","<div style=""display: flex; justify-content: center; align-items: center;"">
                <img src=""images/semantic/semantic_series_8/semantic_series_8_d.jpg"" style=""width: 300px; height: 300px;"" />
              </div>","null",""
"","","","","","html-keyboard-response","88","264989","0.0-88.0","9321FF35A5EE43799FE53CAE58FB4C3E","d01e276c-c127-43b3-95b3-c0f45c93c5fe","58046770-4c03-4bc2-b4bc-e7359011db5d","","null","<div style=""display: flex; justify-content: center; align-items: center;"">
                <img src=""images/other/blank.jpg"" style=""width: 300px; height: 300px;"" />
              </div>","null",""
"","","","","","html-keyboard-response","89","267992","0.0-89.0","9321FF35A5EE43799FE53CAE58FB4C3E","d01e276c-c127-43b3-95b3-c0f45c93c5fe","58046770-4c03-4bc2-b4bc-e7359011db5d","","null","<div style=""display: flex; justify-content: center; align-items: center;"">
                <img src=""images/causal/causal_series_6/causal_series_6_a.jpg"" style=""width: 300px; height: 300px;"" />
              </div>","null",""
"","","","","","html-keyboard-response","90","270996","0.0-90.0","9321FF35A5EE43799FE53CAE58FB4C3E","d01e276c-c127-43b3-95b3-c0f45c93c5fe","58046770-4c03-4bc2-b4bc-e7359011db5d","","null","<div style=""display: flex; justify-content: center; align-items: center;"">
                <img src=""images/causal/causal_series_6/causal_series_6_b.jpg"" style=""width: 300px; height: 300px;"" />
              </div>","null",""
"","","","","","html-keyboard-response","91","273999","0.0-91.0","9321FF35A5EE43799FE53CAE58FB4C3E","d01e276c-c127-43b3-95b3-c0f45c93c5fe","58046770-4c03-4bc2-b4bc-e7359011db5d","","null","<div style=""display: flex; justify-content: center; align-items: center;"">
                <img src=""images/causal/causal_series_6/causal_series_6_c.jpg"" style=""width: 300px; height: 300px;"" />
              </div>","null",""
"","","","","","html-button-response","92","274905","0.0-92.0","9321FF35A5EE43799FE53CAE58FB4C3E","d01e276c-c127-43b3-95b3-c0f45c93c5fe","58046770-4c03-4bc2-b4bc-e7359011db5d","","905","
    <div style=""display: flex; justify-content: center; align-items: center;"">
      <img src=""images/red_deck_2.png"" style=""width: 300px; height: 300px; margin-right: 10px;"" />
      <img src=""images/blue_deck_1.png"" style=""width: 300px; height: 300px;"" />
    </div>","0","0"
"","","","","","html-keyboard-response","93","277908","0.0-93.0-0.0-0.0","9321FF35A5EE43799FE53CAE58FB4C3E","d01e276c-c127-43b3-95b3-c0f45c93c5fe","58046770-4c03-4bc2-b4bc-e7359011db5d","","null","<div style=""display: flex; justify-content: center; align-items: center;"">
                <img src=""images/causal/causal_series_6/causal_series_6_d.jpg"" style=""width: 300px; height: 300px;"" />
              </div>","null",""
"","","","","","html-keyboard-response","94","280912","0.0-94.0","9321FF35A5EE43799FE53CAE58FB4C3E","d01e276c-c127-43b3-95b3-c0f45c93c5fe","58046770-4c03-4bc2-b4bc-e7359011db5d","","null","<div style=""display: flex; justify-content: center; align-items: center;"">
                <img src=""images/other/blank.jpg"" style=""width: 300px; height: 300px;"" />
              </div>","null",""
"","","","","","html-keyboard-response","95","283916","0.0-95.0","9321FF35A5EE43799FE53CAE58FB4C3E","d01e276c-c127-43b3-95b3-c0f45c93c5fe","58046770-4c03-4bc2-b4bc-e7359011db5d","","null","<div style=""display: flex; justify-content: center; align-items: center;"">
                <img src=""images/causal/causal_series_7/causal_series_7_a.jpg"" style=""width: 300px; height: 300px;"" />
              </div>","null",""
"","","","","","html-keyboard-response","96","286920","0.0-96.0","9321FF35A5EE43799FE53CAE58FB4C3E","d01e276c-c127-43b3-95b3-c0f45c93c5fe","58046770-4c03-4bc2-b4bc-e7359011db5d","","null","<div style=""display: flex; justify-content: center; align-items: center;"">
                <img src=""images/causal/causal_series_7/causal_series_7_b.jpg"" style=""width: 300px; height: 300px;"" />
              </div>","null",""
"","","","","","html-keyboard-response","97","289924","0.0-97.0","9321FF35A5EE43799FE53CAE58FB4C3E","d01e276c-c127-43b3-95b3-c0f45c93c5fe","58046770-4c03-4bc2-b4bc-e7359011db5d","","null","<div style=""display: flex; justify-content: center; align-items: center;"">
                <img src=""images/causal/causal_series_7/causal_series_7_c.jpg"" style=""width: 300px; height: 300px;"" />
              </div>","null",""
"","","","","","html-button-response","98","291252","0.0-98.0","9321FF35A5EE43799FE53CAE58FB4C3E","d01e276c-c127-43b3-95b3-c0f45c93c5fe","58046770-4c03-4bc2-b4bc-e7359011db5d","","1326","
    <div style=""display: flex; justify-content: center; align-items: center;"">
      <img src=""images/red_deck_2.png"" style=""width: 300px; height: 300px; margin-right: 10px;"" />
      <img src=""images/blue_deck_1.png"" style=""width: 300px; height: 300px;"" />
    </div>","0","0"
"","","","","","html-keyboard-response","99","294255","0.0-99.0-0.0-0.0","9321FF35A5EE43799FE53CAE58FB4C3E","d01e276c-c127-43b3-95b3-c0f45c93c5fe","58046770-4c03-4bc2-b4bc-e7359011db5d","","null","<div style=""display: flex; justify-content: center; align-items: center;"">
                <img src=""images/causal/causal_series_7/causal_series_7_d.jpg"" style=""width: 300px; height: 300px;"" />
              </div>","null",""
"","","","","","html-keyboard-response","100","297259","0.0-100.0","9321FF35A5EE43799FE53CAE58FB4C3E","d01e276c-c127-43b3-95b3-c0f45c93c5fe","58046770-4c03-4bc2-b4bc-e7359011db5d","","null","<div style=""display: flex; justify-content: center; align-items: center;"">
                <img src=""images/other/blank.jpg"" style=""width: 300px; height: 300px;"" />
              </div>","null",""
"","","","","","html-keyboard-response","101","300263","0.0-101.0","9321FF35A5EE43799FE53CAE58FB4C3E","d01e276c-c127-43b3-95b3-c0f45c93c5fe","58046770-4c03-4bc2-b4bc-e7359011db5d","","null","<div style=""display: flex; justify-content: center; align-items: center;"">
                <img src=""images/causal/causal_series_16/causal_series_16_a.jpg"" style=""width: 300px; height: 300px;"" />
              </div>","null",""
"","","","","","html-keyboard-response","102","303267","0.0-102.0","9321FF35A5EE43799FE53CAE58FB4C3E","d01e276c-c127-43b3-95b3-c0f45c93c5fe","58046770-4c03-4bc2-b4bc-e7359011db5d","","null","<div style=""display: flex; justify-content: center; align-items: center;"">
                <img src=""images/causal/causal_series_16/causal_series_16_b.jpg"" style=""width: 300px; height: 300px;"" />
              </div>","null",""
"","","","","","html-keyboard-response","103","306270","0.0-103.0","9321FF35A5EE43799FE53CAE58FB4C3E","d01e276c-c127-43b3-95b3-c0f45c93c5fe","58046770-4c03-4bc2-b4bc-e7359011db5d","","null","<div style=""display: flex; justify-content: center; align-items: center;"">
                <img src=""images/causal/causal_series_16/causal_series_16_c.jpg"" style=""width: 300px; height: 300px;"" />
              </div>","null",""
"","","","","","html-button-response","104","307061","0.0-104.0","9321FF35A5EE43799FE53CAE58FB4C3E","d01e276c-c127-43b3-95b3-c0f45c93c5fe","58046770-4c03-4bc2-b4bc-e7359011db5d","","790","
    <div style=""display: flex; justify-content: center; align-items: center;"">
      <img src=""images/red_deck_2.png"" style=""width: 300px; height: 300px; margin-right: 10px;"" />
      <img src=""images/blue_deck_1.png"" style=""width: 300px; height: 300px;"" />
    </div>","0","0"
"","","","","","html-keyboard-response","105","310064","0.0-105.0-0.0-0.0","9321FF35A5EE43799FE53CAE58FB4C3E","d01e276c-c127-43b3-95b3-c0f45c93c5fe","58046770-4c03-4bc2-b4bc-e7359011db5d","","null","<div style=""display: flex; justify-content: center; align-items: center;"">
                <img src=""images/causal/causal_series_16/causal_series_16_d.jpg"" style=""width: 300px; height: 300px;"" />
              </div>","null",""
"","","","","","html-keyboard-response","106","313068","0.0-106.0","9321FF35A5EE43799FE53CAE58FB4C3E","d01e276c-c127-43b3-95b3-c0f45c93c5fe","58046770-4c03-4bc2-b4bc-e7359011db5d","","null","<div style=""display: flex; justify-content: center; align-items: center;"">
                <img src=""images/other/blank.jpg"" style=""width: 300px; height: 300px;"" />
              </div>","null",""
"","","","","","html-keyboard-response","107","316071","0.0-107.0","9321FF35A5EE43799FE53CAE58FB4C3E","d01e276c-c127-43b3-95b3-c0f45c93c5fe","58046770-4c03-4bc2-b4bc-e7359011db5d","","null","<div style=""display: flex; justify-content: center; align-items: center;"">
                <img src=""images/causal/causal_series_14/causal_series_14_a.jpg"" style=""width: 300px; height: 300px;"" />
              </div>","null",""
"","","","","","html-keyboard-response","108","319074","0.0-108.0","9321FF35A5EE43799FE53CAE58FB4C3E","d01e276c-c127-43b3-95b3-c0f45c93c5fe","58046770-4c03-4bc2-b4bc-e7359011db5d","","null","<div style=""display: flex; justify-content: center; align-items: center;"">
                <img src=""images/causal/causal_series_14/causal_series_14_b.jpg"" style=""width: 300px; height: 300px;"" />
              </div>","null",""
"","","","","","html-keyboard-response","109","322078","0.0-109.0","9321FF35A5EE43799FE53CAE58FB4C3E","d01e276c-c127-43b3-95b3-c0f45c93c5fe","58046770-4c03-4bc2-b4bc-e7359011db5d","","null","<div style=""display: flex; justify-content: center; align-items: center;"">
                <img src=""images/causal/causal_series_14/causal_series_14_c.jpg"" style=""width: 300px; height: 300px;"" />
              </div>","null",""
"","","","","","html-button-response","110","325498","0.0-110.0","9321FF35A5EE43799FE53CAE58FB4C3E","d01e276c-c127-43b3-95b3-c0f45c93c5fe","58046770-4c03-4bc2-b4bc-e7359011db5d","","3417","
    <div style=""display: flex; justify-content: center; align-items: center;"">
      <img src=""images/red_deck_2.png"" style=""width: 300px; height: 300px; margin-right: 10px;"" />
      <img src=""images/blue_deck_1.png"" style=""width: 300px; height: 300px;"" />
    </div>","1","1"
"","","","","","html-keyboard-response","111","328502","0.0-111.0-1.0-0.0","9321FF35A5EE43799FE53CAE58FB4C3E","d01e276c-c127-43b3-95b3-c0f45c93c5fe","58046770-4c03-4bc2-b4bc-e7359011db5d","","null","<div style=""display: flex; justify-content: center; align-items: center;"">
                <img src=""images/semantic/semantic_series_13/semantic_series_13_d.jpg"" style=""width: 300px; height: 300px;"" />
              </div>","null",""
"","","","","","html-keyboard-response","112","331505","0.0-112.0","9321FF35A5EE43799FE53CAE58FB4C3E","d01e276c-c127-43b3-95b3-c0f45c93c5fe","58046770-4c03-4bc2-b4bc-e7359011db5d","","null","<div style=""display: flex; justify-content: center; align-items: center;"">
                <img src=""images/other/blank.jpg"" style=""width: 300px; height: 300px;"" />
              </div>","null",""
"","","","","","survey-text","113","336408","0.0-113.0","9321FF35A5EE43799FE53CAE58FB4C3E","d01e276c-c127-43b3-95b3-c0f45c93c5fe","58046770-4c03-4bc2-b4bc-e7359011db5d","","4896","","{""Q0"":""No""}",""
"","","","","","survey-text","114","341573","0.0-114.0","9321FF35A5EE43799FE53CAE58FB4C3E","d01e276c-c127-43b3-95b3-c0f45c93c5fe","58046770-4c03-4bc2-b4bc-e7359011db5d","","5163","","{""Q0"":""Deck 1""}",""
"","","","","","html-button-response","115","347373","0.0-115.0","9321FF35A5EE43799FE53CAE58FB4C3E","d01e276c-c127-43b3-95b3-c0f45c93c5fe","58046770-4c03-4bc2-b4bc-e7359011db5d","","5799","Which color deck does the fourth image continue the story from the series?","0",""
"","","","","","html-button-response","116","349349","0.0-116.0","9321FF35A5EE43799FE53CAE58FB4C3E","d01e276c-c127-43b3-95b3-c0f45c93c5fe","58046770-4c03-4bc2-b4bc-e7359011db5d","","1975","Which color deck does the fourth image not follow the story from the series?","1",""
"","","","","","survey-text","117","355720","0.0-117.0","9321FF35A5EE43799FE53CAE58FB4C3E","d01e276c-c127-43b3-95b3-c0f45c93c5fe","58046770-4c03-4bc2-b4bc-e7359011db5d","","6369","","{""Q0"":""MALE"",""Q1"":""24""}",""
"","","","","","instructions","118","360421","0.0-118.0","9321FF35A5EE43799FE53CAE58FB4C3E","d01e276c-c127-43b3-95b3-c0f45c93c5fe","58046770-4c03-4bc2-b4bc-e7359011db5d","[{""page_index"":0,""viewing_time"":4700}]","4700","","",""
