"success","timeout","failed_images","failed_audio","failed_video","trial_type","trial_index","time_elapsed","internal_node_id","subject_id","study_id","session_id","view_history","rt","stimulus","response","choice"
"true","false","[]","[]","[]","preload","0","6118","0.0-0.0","1BBA9B4D99FB47E389B21A60F4BE79C0","66f25af5-f9a5-46d1-8b47-1764b0f78475","5479079d-2186-49b2-89e2-e3afab6abcc2","","","","",""
"","","","","","instructions","1","15323","0.0-1.0","1BBA9B4D99FB47E389B21A60F4BE79C0","66f25af5-f9a5-46d1-8b47-1764b0f78475","5479079d-2186-49b2-89e2-e3afab6abcc2","[{""page_index"":0,""viewing_time"":9203}]","9203","","",""
"","","","","","instructions","2","28616","0.0-2.0","1BBA9B4D99FB47E389B21A60F4BE79C0","66f25af5-f9a5-46d1-8b47-1764b0f78475","5479079d-2186-49b2-89e2-e3afab6abcc2","[{""page_index"":0,""viewing_time"":13292}]","13293","","",""
"true","","","","","fullscreen","3","33641","0.0-3.0","1BBA9B4D99FB47E389B21A60F4BE79C0","66f25af5-f9a5-46d1-8b47-1764b0f78475","5479079d-2186-49b2-89e2-e3afab6abcc2","","4023","","",""
"","","","","","instructions","4","98187","0.0-4.0","1BBA9B4D99FB47E389B21A60F4BE79C0","66f25af5-f9a5-46d1-8b47-1764b0f78475","5479079d-2186-49b2-89e2-e3afab6abcc2","[{""page_index"":0,""viewing_time"":64544}]","64544","","",""
"","","","","","html-keyboard-response","5","101190","0.0-5.0","1BBA9B4D99FB47E389B21A60F4BE79C0","66f25af5-f9a5-46d1-8b47-1764b0f78475","5479079d-2186-49b2-89e2-e3afab6abcc2","","null","<div style=""display: flex; justify-content: center; align-items: center;"">
                <img src=""images/causal/causal_series_7/causal_series_7_a.jpg"" style=""width: 300px; height: 300px;"" />
              </div>","null",""
"","","","","","html-keyboard-response","6","104192","0.0-6.0","1BBA9B4D99FB47E389B21A60F4BE79C0","66f25af5-f9a5-46d1-8b47-1764b0f78475","5479079d-2186-49b2-89e2-e3afab6abcc2","","null","<div style=""display: flex; justify-content: center; align-items: center;"">
                <img src=""images/causal/causal_series_7/causal_series_7_b.jpg"" style=""width: 300px; height: 300px;"" />
              </div>","null",""
"","","","","","html-keyboard-response","7","107194","0.0-7.0","1BBA9B4D99FB47E389B21A60F4BE79C0","66f25af5-f9a5-46d1-8b47-1764b0f78475","5479079d-2186-49b2-89e2-e3afab6abcc2","","null","<div style=""display: flex; justify-content: center; align-items: center;"">
                <img src=""images/causal/causal_series_7/causal_series_7_c.jpg"" style=""width: 300px; height: 300px;"" />
              </div>","null",""
"","","","","","html-button-response","8","110842","0.0-8.0","1BBA9B4D99FB47E389B21A60F4BE79C0","66f25af5-f9a5-46d1-8b47-1764b0f78475","5479079d-2186-49b2-89e2-e3afab6abcc2","","3647","
    <div style=""display: flex; justify-content: center; align-items: center;"">
      <img src=""images/blue_deck_1.png"" style=""width: 300px; height: 300px; margin-right: 10px;"" />
      <img src=""images/red_deck_2.png"" style=""width: 300px; height: 300px;"" />
    </div>","0","0"
"","","","","","html-keyboard-response","9","113843","0.0-9.0-0.0-0.0","1BBA9B4D99FB47E389B21A60F4BE79C0","66f25af5-f9a5-46d1-8b47-1764b0f78475","5479079d-2186-49b2-89e2-e3afab6abcc2","","null","<div style=""display: flex; justify-content: center; align-items: center;"">
                <img src=""images/causal/causal_series_7/causal_series_7_d.jpg"" style=""width: 300px; height: 300px;"" />
              </div>","null",""
"","","","","","html-keyboard-response","10","116845","0.0-10.0","1BBA9B4D99FB47E389B21A60F4BE79C0","66f25af5-f9a5-46d1-8b47-1764b0f78475","5479079d-2186-49b2-89e2-e3afab6abcc2","","null","<div style=""display: flex; justify-content: center; align-items: center;"">
                <img src=""images/other/blank.jpg"" style=""width: 300px; height: 300px;"" />
              </div>","null",""
"","","","","","html-keyboard-response","11","119846","0.0-11.0","1BBA9B4D99FB47E389B21A60F4BE79C0","66f25af5-f9a5-46d1-8b47-1764b0f78475","5479079d-2186-49b2-89e2-e3afab6abcc2","","null","<div style=""display: flex; justify-content: center; align-items: center;"">
                <img src=""images/causal/causal_series_4/causal_series_4_a.jpg"" style=""width: 300px; height: 300px;"" />
              </div>","null",""
"","","","","","html-keyboard-response","12","122848","0.0-12.0","1BBA9B4D99FB47E389B21A60F4BE79C0","66f25af5-f9a5-46d1-8b47-1764b0f78475","5479079d-2186-49b2-89e2-e3afab6abcc2","","null","<div style=""display: flex; justify-content: center; align-items: center;"">
                <img src=""images/causal/causal_series_4/causal_series_4_b.jpg"" style=""width: 300px; height: 300px;"" />
              </div>","null",""
"","","","","","html-keyboard-response","13","125850","0.0-13.0","1BBA9B4D99FB47E389B21A60F4BE79C0","66f25af5-f9a5-46d1-8b47-1764b0f78475","5479079d-2186-49b2-89e2-e3afab6abcc2","","null","<div style=""display: flex; justify-content: center; align-items: center;"">
                <img src=""images/causal/causal_series_4/causal_series_4_c.jpg"" style=""width: 300px; height: 300px;"" />
              </div>","null",""
"","","","","","html-button-response","14","128103","0.0-14.0","1BBA9B4D99FB47E389B21A60F4BE79C0","66f25af5-f9a5-46d1-8b47-1764b0f78475","5479079d-2186-49b2-89e2-e3afab6abcc2","","2253","
    <div style=""display: flex; justify-content: center; align-items: center;"">
      <img src=""images/blue_deck_1.png"" style=""width: 300px; height: 300px; margin-right: 10px;"" />
      <img src=""images/red_deck_2.png"" style=""width: 300px; height: 300px;"" />
    </div>","1","1"
"","","","","","html-keyboard-response","15","131105","0.0-15.0-1.0-0.0","1BBA9B4D99FB47E389B21A60F4BE79C0","66f25af5-f9a5-46d1-8b47-1764b0f78475","5479079d-2186-49b2-89e2-e3afab6abcc2","","null","<div style=""display: flex; justify-content: center; align-items: center;"">
                <img src=""images/semantic/semantic_series_4/semantic_series_4_d.jpg"" style=""width: 300px; height: 300px;"" />
              </div>","null",""
"","","","","","html-keyboard-response","16","134106","0.0-16.0","1BBA9B4D99FB47E389B21A60F4BE79C0","66f25af5-f9a5-46d1-8b47-1764b0f78475","5479079d-2186-49b2-89e2-e3afab6abcc2","","null","<div style=""display: flex; justify-content: center; align-items: center;"">
                <img src=""images/other/blank.jpg"" style=""width: 300px; height: 300px;"" />
              </div>","null",""
"","","","","","html-keyboard-response","17","137108","0.0-17.0","1BBA9B4D99FB47E389B21A60F4BE79C0","66f25af5-f9a5-46d1-8b47-1764b0f78475","5479079d-2186-49b2-89e2-e3afab6abcc2","","null","<div style=""display: flex; justify-content: center; align-items: center;"">
                <img src=""images/causal/causal_series_2/causal_series_2_a.jpg"" style=""width: 300px; height: 300px;"" />
              </div>","null",""
"","","","","","html-keyboard-response","18","140109","0.0-18.0","1BBA9B4D99FB47E389B21A60F4BE79C0","66f25af5-f9a5-46d1-8b47-1764b0f78475","5479079d-2186-49b2-89e2-e3afab6abcc2","","null","<div style=""display: flex; justify-content: center; align-items: center;"">
                <img src=""images/causal/causal_series_2/causal_series_2_b.jpg"" style=""width: 300px; height: 300px;"" />
              </div>","null",""
"","","","","","html-keyboard-response","19","143110","0.0-19.0","1BBA9B4D99FB47E389B21A60F4BE79C0","66f25af5-f9a5-46d1-8b47-1764b0f78475","5479079d-2186-49b2-89e2-e3afab6abcc2","","null","<div style=""display: flex; justify-content: center; align-items: center;"">
                <img src=""images/causal/causal_series_2/causal_series_2_c.jpg"" style=""width: 300px; height: 300px;"" />
              </div>","null",""
"","","","","","html-button-response","20","145265","0.0-20.0","1BBA9B4D99FB47E389B21A60F4BE79C0","66f25af5-f9a5-46d1-8b47-1764b0f78475","5479079d-2186-49b2-89e2-e3afab6abcc2","","2154","
    <div style=""display: flex; justify-content: center; align-items: center;"">
      <img src=""images/blue_deck_1.png"" style=""width: 300px; height: 300px; margin-right: 10px;"" />
      <img src=""images/red_deck_2.png"" style=""width: 300px; height: 300px;"" />
    </div>","0","0"
"","","","","","html-keyboard-response","21","148267","0.0-21.0-0.0-0.0","1BBA9B4D99FB47E389B21A60F4BE79C0","66f25af5-f9a5-46d1-8b47-1764b0f78475","5479079d-2186-49b2-89e2-e3afab6abcc2","","null","<div style=""display: flex; justify-content: center; align-items: center;"">
                <img src=""images/causal/causal_series_2/causal_series_2_d.jpg"" style=""width: 300px; height: 300px;"" />
              </div>","null",""
"","","","","","html-keyboard-response","22","151268","0.0-22.0","1BBA9B4D99FB47E389B21A60F4BE79C0","66f25af5-f9a5-46d1-8b47-1764b0f78475","5479079d-2186-49b2-89e2-e3afab6abcc2","","null","<div style=""display: flex; justify-content: center; align-items: center;"">
                <img src=""images/other/blank.jpg"" style=""width: 300px; height: 300px;"" />
              </div>","null",""
"","","","","","html-keyboard-response","23","154270","0.0-23.0","1BBA9B4D99FB47E389B21A60F4BE79C0","66f25af5-f9a5-46d1-8b47-1764b0f78475","5479079d-2186-49b2-89e2-e3afab6abcc2","","null","<div style=""display: flex; justify-content: center; align-items: center;"">
                <img src=""images/causal/causal_series_16/causal_series_16_a.jpg"" style=""width: 300px; height: 300px;"" />
              </div>","null",""
"","","","","","html-keyboard-response","24","157272","0.0-24.0","1BBA9B4D99FB47E389B21A60F4BE79C0","66f25af5-f9a5-46d1-8b47-1764b0f78475","5479079d-2186-49b2-89e2-e3afab6abcc2","","null","<div style=""display: flex; justify-content: center; align-items: center;"">
                <img src=""images/causal/causal_series_16/causal_series_16_b.jpg"" style=""width: 300px; height: 300px;"" />
              </div>","null",""
"","","","","","html-keyboard-response","25","160273","0.0-25.0","1BBA9B4D99FB47E389B21A60F4BE79C0","66f25af5-f9a5-46d1-8b47-1764b0f78475","5479079d-2186-49b2-89e2-e3afab6abcc2","","null","<div style=""display: flex; justify-content: center; align-items: center;"">
                <img src=""images/causal/causal_series_16/causal_series_16_c.jpg"" style=""width: 300px; height: 300px;"" />
              </div>","null",""
"","","","","","html-button-response","26","161673","0.0-26.0","1BBA9B4D99FB47E389B21A60F4BE79C0","66f25af5-f9a5-46d1-8b47-1764b0f78475","5479079d-2186-49b2-89e2-e3afab6abcc2","","1399","
    <div style=""display: flex; justify-content: center; align-items: center;"">
      <img src=""images/blue_deck_1.png"" style=""width: 300px; height: 300px; margin-right: 10px;"" />
      <img src=""images/red_deck_2.png"" style=""width: 300px; height: 300px;"" />
    </div>","1","1"
"","","","","","html-keyboard-response","27","164676","0.0-27.0-1.0-0.0","1BBA9B4D99FB47E389B21A60F4BE79C0","66f25af5-f9a5-46d1-8b47-1764b0f78475","5479079d-2186-49b2-89e2-e3afab6abcc2","","null","<div style=""display: flex; justify-content: center; align-items: center;"">
                <img src=""images/semantic/semantic_series_16/semantic_series_16_d.jpg"" style=""width: 300px; height: 300px;"" />
              </div>","null",""
"","","","","","html-keyboard-response","28","167677","0.0-28.0","1BBA9B4D99FB47E389B21A60F4BE79C0","66f25af5-f9a5-46d1-8b47-1764b0f78475","5479079d-2186-49b2-89e2-e3afab6abcc2","","null","<div style=""display: flex; justify-content: center; align-items: center;"">
                <img src=""images/other/blank.jpg"" style=""width: 300px; height: 300px;"" />
              </div>","null",""
"","","","","","html-keyboard-response","29","170678","0.0-29.0","1BBA9B4D99FB47E389B21A60F4BE79C0","66f25af5-f9a5-46d1-8b47-1764b0f78475","5479079d-2186-49b2-89e2-e3afab6abcc2","","null","<div style=""display: flex; justify-content: center; align-items: center;"">
                <img src=""images/causal/causal_series_1/causal_series_1_a.jpg"" style=""width: 300px; height: 300px;"" />
              </div>","null",""
"","","","","","html-keyboard-response","30","173680","0.0-30.0","1BBA9B4D99FB47E389B21A60F4BE79C0","66f25af5-f9a5-46d1-8b47-1764b0f78475","5479079d-2186-49b2-89e2-e3afab6abcc2","","null","<div style=""display: flex; justify-content: center; align-items: center;"">
                <img src=""images/causal/causal_series_1/causal_series_1_b.jpg"" style=""width: 300px; height: 300px;"" />
              </div>","null",""
"","","","","","html-keyboard-response","31","176682","0.0-31.0","1BBA9B4D99FB47E389B21A60F4BE79C0","66f25af5-f9a5-46d1-8b47-1764b0f78475","5479079d-2186-49b2-89e2-e3afab6abcc2","","null","<div style=""display: flex; justify-content: center; align-items: center;"">
                <img src=""images/causal/causal_series_1/causal_series_1_c.jpg"" style=""width: 300px; height: 300px;"" />
              </div>","null",""
"","","","","","html-button-response","32","178650","0.0-32.0","1BBA9B4D99FB47E389B21A60F4BE79C0","66f25af5-f9a5-46d1-8b47-1764b0f78475","5479079d-2186-49b2-89e2-e3afab6abcc2","","1967","
    <div style=""display: flex; justify-content: center; align-items: center;"">
      <img src=""images/blue_deck_1.png"" style=""width: 300px; height: 300px; margin-right: 10px;"" />
      <img src=""images/red_deck_2.png"" style=""width: 300px; height: 300px;"" />
    </div>","1","1"
"","","","","","html-keyboard-response","33","181652","0.0-33.0-1.0-0.0","1BBA9B4D99FB47E389B21A60F4BE79C0","66f25af5-f9a5-46d1-8b47-1764b0f78475","5479079d-2186-49b2-89e2-e3afab6abcc2","","null","<div style=""display: flex; justify-content: center; align-items: center;"">
                <img src=""images/semantic/semantic_series_1/semantic_series_1_d.jpg"" style=""width: 300px; height: 300px;"" />
              </div>","null",""
"","","","","","html-keyboard-response","34","184654","0.0-34.0","1BBA9B4D99FB47E389B21A60F4BE79C0","66f25af5-f9a5-46d1-8b47-1764b0f78475","5479079d-2186-49b2-89e2-e3afab6abcc2","","null","<div style=""display: flex; justify-content: center; align-items: center;"">
                <img src=""images/other/blank.jpg"" style=""width: 300px; height: 300px;"" />
              </div>","null",""
"","","","","","html-keyboard-response","35","187656","0.0-35.0","1BBA9B4D99FB47E389B21A60F4BE79C0","66f25af5-f9a5-46d1-8b47-1764b0f78475","5479079d-2186-49b2-89e2-e3afab6abcc2","","null","<div style=""display: flex; justify-content: center; align-items: center;"">
                <img src=""images/causal/causal_series_10/causal_series_10_a.jpg"" style=""width: 300px; height: 300px;"" />
              </div>","null",""
"","","","","","html-keyboard-response","36","190657","0.0-36.0","1BBA9B4D99FB47E389B21A60F4BE79C0","66f25af5-f9a5-46d1-8b47-1764b0f78475","5479079d-2186-49b2-89e2-e3afab6abcc2","","null","<div style=""display: flex; justify-content: center; align-items: center;"">
                <img src=""images/causal/causal_series_10/causal_series_10_b.jpg"" style=""width: 300px; height: 300px;"" />
              </div>","null",""
"","","","","","html-keyboard-response","37","193659","0.0-37.0","1BBA9B4D99FB47E389B21A60F4BE79C0","66f25af5-f9a5-46d1-8b47-1764b0f78475","5479079d-2186-49b2-89e2-e3afab6abcc2","","null","<div style=""display: flex; justify-content: center; align-items: center;"">
                <img src=""images/causal/causal_series_10/causal_series_10_c.jpg"" style=""width: 300px; height: 300px;"" />
              </div>","null",""
"","","","","","html-button-response","38","195671","0.0-38.0","1BBA9B4D99FB47E389B21A60F4BE79C0","66f25af5-f9a5-46d1-8b47-1764b0f78475","5479079d-2186-49b2-89e2-e3afab6abcc2","","2011","
    <div style=""display: flex; justify-content: center; align-items: center;"">
      <img src=""images/blue_deck_1.png"" style=""width: 300px; height: 300px; margin-right: 10px;"" />
      <img src=""images/red_deck_2.png"" style=""width: 300px; height: 300px;"" />
    </div>","0","0"
"","","","","","html-keyboard-response","39","198673","0.0-39.0-0.0-0.0","1BBA9B4D99FB47E389B21A60F4BE79C0","66f25af5-f9a5-46d1-8b47-1764b0f78475","5479079d-2186-49b2-89e2-e3afab6abcc2","","null","<div style=""display: flex; justify-content: center; align-items: center;"">
                <img src=""images/causal/causal_series_10/causal_series_10_d.jpg"" style=""width: 300px; height: 300px;"" />
              </div>","null",""
"","","","","","html-keyboard-response","40","201674","0.0-40.0","1BBA9B4D99FB47E389B21A60F4BE79C0","66f25af5-f9a5-46d1-8b47-1764b0f78475","5479079d-2186-49b2-89e2-e3afab6abcc2","","null","<div style=""display: flex; justify-content: center; align-items: center;"">
                <img src=""images/other/blank.jpg"" style=""width: 300px; height: 300px;"" />
              </div>","null",""
"","","","","","html-keyboard-response","41","204676","0.0-41.0","1BBA9B4D99FB47E389B21A60F4BE79C0","66f25af5-f9a5-46d1-8b47-1764b0f78475","5479079d-2186-49b2-89e2-e3afab6abcc2","","null","<div style=""display: flex; justify-content: center; align-items: center;"">
                <img src=""images/causal/causal_series_11/causal_series_11_a.jpg"" style=""width: 300px; height: 300px;"" />
              </div>","null",""
"","","","","","html-keyboard-response","42","207678","0.0-42.0","1BBA9B4D99FB47E389B21A60F4BE79C0","66f25af5-f9a5-46d1-8b47-1764b0f78475","5479079d-2186-49b2-89e2-e3afab6abcc2","","null","<div style=""display: flex; justify-content: center; align-items: center;"">
                <img src=""images/causal/causal_series_11/causal_series_11_b.jpg"" style=""width: 300px; height: 300px;"" />
              </div>","null",""
"","","","","","html-keyboard-response","43","210679","0.0-43.0","1BBA9B4D99FB47E389B21A60F4BE79C0","66f25af5-f9a5-46d1-8b47-1764b0f78475","5479079d-2186-49b2-89e2-e3afab6abcc2","","null","<div style=""display: flex; justify-content: center; align-items: center;"">
                <img src=""images/causal/causal_series_11/causal_series_11_c.jpg"" style=""width: 300px; height: 300px;"" />
              </div>","null",""
"","","","","","html-button-response","44","212004","0.0-44.0","1BBA9B4D99FB47E389B21A60F4BE79C0","66f25af5-f9a5-46d1-8b47-1764b0f78475","5479079d-2186-49b2-89e2-e3afab6abcc2","","1324","
    <div style=""display: flex; justify-content: center; align-items: center;"">
      <img src=""images/blue_deck_1.png"" style=""width: 300px; height: 300px; margin-right: 10px;"" />
      <img src=""images/red_deck_2.png"" style=""width: 300px; height: 300px;"" />
    </div>","0","0"
"","","","","","html-keyboard-response","45","215006","0.0-45.0-0.0-0.0","1BBA9B4D99FB47E389B21A60F4BE79C0","66f25af5-f9a5-46d1-8b47-1764b0f78475","5479079d-2186-49b2-89e2-e3afab6abcc2","","null","<div style=""display: flex; justify-content: center; align-items: center;"">
                <img src=""images/causal/causal_series_11/causal_series_11_d.jpg"" style=""width: 300px; height: 300px;"" />
              </div>","null",""
"","","","","","html-keyboard-response","46","218008","0.0-46.0","1BBA9B4D99FB47E389B21A60F4BE79C0","66f25af5-f9a5-46d1-8b47-1764b0f78475","5479079d-2186-49b2-89e2-e3afab6abcc2","","null","<div style=""display: flex; justify-content: center; align-items: center;"">
                <img src=""images/other/blank.jpg"" style=""width: 300px; height: 300px;"" />
              </div>","null",""
"","","","","","html-keyboard-response","47","221010","0.0-47.0","1BBA9B4D99FB47E389B21A60F4BE79C0","66f25af5-f9a5-46d1-8b47-1764b0f78475","5479079d-2186-49b2-89e2-e3afab6abcc2","","null","<div style=""display: flex; justify-content: center; align-items: center;"">
                <img src=""images/causal/causal_series_17/causal_series_17_a.jpg"" style=""width: 300px; height: 300px;"" />
              </div>","null",""
"","","","","","html-keyboard-response","48","224011","0.0-48.0","1BBA9B4D99FB47E389B21A60F4BE79C0","66f25af5-f9a5-46d1-8b47-1764b0f78475","5479079d-2186-49b2-89e2-e3afab6abcc2","","null","<div style=""display: flex; justify-content: center; align-items: center;"">
                <img src=""images/causal/causal_series_17/causal_series_17_b.jpg"" style=""width: 300px; height: 300px;"" />
              </div>","null",""
"","","","","","html-keyboard-response","49","227013","0.0-49.0","1BBA9B4D99FB47E389B21A60F4BE79C0","66f25af5-f9a5-46d1-8b47-1764b0f78475","5479079d-2186-49b2-89e2-e3afab6abcc2","","null","<div style=""display: flex; justify-content: center; align-items: center;"">
                <img src=""images/causal/causal_series_17/causal_series_17_c.jpg"" style=""width: 300px; height: 300px;"" />
              </div>","null",""
"","","","","","html-button-response","50","229038","0.0-50.0","1BBA9B4D99FB47E389B21A60F4BE79C0","66f25af5-f9a5-46d1-8b47-1764b0f78475","5479079d-2186-49b2-89e2-e3afab6abcc2","","2024","
    <div style=""display: flex; justify-content: center; align-items: center;"">
      <img src=""images/blue_deck_1.png"" style=""width: 300px; height: 300px; margin-right: 10px;"" />
      <img src=""images/red_deck_2.png"" style=""width: 300px; height: 300px;"" />
    </div>","1","1"
"","","","","","html-keyboard-response","51","232040","0.0-51.0-1.0-0.0","1BBA9B4D99FB47E389B21A60F4BE79C0","66f25af5-f9a5-46d1-8b47-1764b0f78475","5479079d-2186-49b2-89e2-e3afab6abcc2","","null","<div style=""display: flex; justify-content: center; align-items: center;"">
                <img src=""images/semantic/semantic_series_17/semantic_series_17_d.jpg"" style=""width: 300px; height: 300px;"" />
              </div>","null",""
"","","","","","html-keyboard-response","52","235041","0.0-52.0","1BBA9B4D99FB47E389B21A60F4BE79C0","66f25af5-f9a5-46d1-8b47-1764b0f78475","5479079d-2186-49b2-89e2-e3afab6abcc2","","null","<div style=""display: flex; justify-content: center; align-items: center;"">
                <img src=""images/other/blank.jpg"" style=""width: 300px; height: 300px;"" />
              </div>","null",""
"","","","","","html-keyboard-response","53","238043","0.0-53.0","1BBA9B4D99FB47E389B21A60F4BE79C0","66f25af5-f9a5-46d1-8b47-1764b0f78475","5479079d-2186-49b2-89e2-e3afab6abcc2","","null","<div style=""display: flex; justify-content: center; align-items: center;"">
                <img src=""images/causal/causal_series_18/causal_series_18_a.jpg"" style=""width: 300px; height: 300px;"" />
              </div>","null",""
"","","","","","html-keyboard-response","54","241045","0.0-54.0","1BBA9B4D99FB47E389B21A60F4BE79C0","66f25af5-f9a5-46d1-8b47-1764b0f78475","5479079d-2186-49b2-89e2-e3afab6abcc2","","null","<div style=""display: flex; justify-content: center; align-items: center;"">
                <img src=""images/causal/causal_series_18/causal_series_18_b.jpg"" style=""width: 300px; height: 300px;"" />
              </div>","null",""
"","","","","","html-keyboard-response","55","244046","0.0-55.0","1BBA9B4D99FB47E389B21A60F4BE79C0","66f25af5-f9a5-46d1-8b47-1764b0f78475","5479079d-2186-49b2-89e2-e3afab6abcc2","","null","<div style=""display: flex; justify-content: center; align-items: center;"">
                <img src=""images/causal/causal_series_18/causal_series_18_c.jpg"" style=""width: 300px; height: 300px;"" />
              </div>","null",""
"","","","","","html-button-response","56","245642","0.0-56.0","1BBA9B4D99FB47E389B21A60F4BE79C0","66f25af5-f9a5-46d1-8b47-1764b0f78475","5479079d-2186-49b2-89e2-e3afab6abcc2","","1596","
    <div style=""display: flex; justify-content: center; align-items: center;"">
      <img src=""images/blue_deck_1.png"" style=""width: 300px; height: 300px; margin-right: 10px;"" />
      <img src=""images/red_deck_2.png"" style=""width: 300px; height: 300px;"" />
    </div>","0","0"
"","","","","","html-keyboard-response","57","248644","0.0-57.0-0.0-0.0","1BBA9B4D99FB47E389B21A60F4BE79C0","66f25af5-f9a5-46d1-8b47-1764b0f78475","5479079d-2186-49b2-89e2-e3afab6abcc2","","null","<div style=""display: flex; justify-content: center; align-items: center;"">
                <img src=""images/causal/causal_series_18/causal_series_18_d.jpg"" style=""width: 300px; height: 300px;"" />
              </div>","null",""
"","","","","","html-keyboard-response","58","251646","0.0-58.0","1BBA9B4D99FB47E389B21A60F4BE79C0","66f25af5-f9a5-46d1-8b47-1764b0f78475","5479079d-2186-49b2-89e2-e3afab6abcc2","","null","<div style=""display: flex; justify-content: center; align-items: center;"">
                <img src=""images/other/blank.jpg"" style=""width: 300px; height: 300px;"" />
              </div>","null",""
"","","","","","html-keyboard-response","59","254648","0.0-59.0","1BBA9B4D99FB47E389B21A60F4BE79C0","66f25af5-f9a5-46d1-8b47-1764b0f78475","5479079d-2186-49b2-89e2-e3afab6abcc2","","null","<div style=""display: flex; justify-content: center; align-items: center;"">
                <img src=""images/causal/causal_series_3/causal_series_3_a.jpg"" style=""width: 300px; height: 300px;"" />
              </div>","null",""
"","","","","","html-keyboard-response","60","257649","0.0-60.0","1BBA9B4D99FB47E389B21A60F4BE79C0","66f25af5-f9a5-46d1-8b47-1764b0f78475","5479079d-2186-49b2-89e2-e3afab6abcc2","","null","<div style=""display: flex; justify-content: center; align-items: center;"">
                <img src=""images/causal/causal_series_3/causal_series_3_b.jpg"" style=""width: 300px; height: 300px;"" />
              </div>","null",""
"","","","","","html-keyboard-response","61","260651","0.0-61.0","1BBA9B4D99FB47E389B21A60F4BE79C0","66f25af5-f9a5-46d1-8b47-1764b0f78475","5479079d-2186-49b2-89e2-e3afab6abcc2","","null","<div style=""display: flex; justify-content: center; align-items: center;"">
                <img src=""images/causal/causal_series_3/causal_series_3_c.jpg"" style=""width: 300px; height: 300px;"" />
              </div>","null",""
"","","","","","html-button-response","62","262015","0.0-62.0","1BBA9B4D99FB47E389B21A60F4BE79C0","66f25af5-f9a5-46d1-8b47-1764b0f78475","5479079d-2186-49b2-89e2-e3afab6abcc2","","1364","
    <div style=""display: flex; justify-content: center; align-items: center;"">
      <img src=""images/blue_deck_1.png"" style=""width: 300px; height: 300px; margin-right: 10px;"" />
      <img src=""images/red_deck_2.png"" style=""width: 300px; height: 300px;"" />
    </div>","1","1"
"","","","","","html-keyboard-response","63","265016","0.0-63.0-1.0-0.0","1BBA9B4D99FB47E389B21A60F4BE79C0","66f25af5-f9a5-46d1-8b47-1764b0f78475","5479079d-2186-49b2-89e2-e3afab6abcc2","","null","<div style=""display: flex; justify-content: center; align-items: center;"">
                <img src=""images/semantic/semantic_series_3/semantic_series_3_d.jpg"" style=""width: 300px; height: 300px;"" />
              </div>","null",""
"","","","","","html-keyboard-response","64","268018","0.0-64.0","1BBA9B4D99FB47E389B21A60F4BE79C0","66f25af5-f9a5-46d1-8b47-1764b0f78475","5479079d-2186-49b2-89e2-e3afab6abcc2","","null","<div style=""display: flex; justify-content: center; align-items: center;"">
                <img src=""images/other/blank.jpg"" style=""width: 300px; height: 300px;"" />
              </div>","null",""
"","","","","","html-keyboard-response","65","271019","0.0-65.0","1BBA9B4D99FB47E389B21A60F4BE79C0","66f25af5-f9a5-46d1-8b47-1764b0f78475","5479079d-2186-49b2-89e2-e3afab6abcc2","","null","<div style=""display: flex; justify-content: center; align-items: center;"">
                <img src=""images/causal/causal_series_6/causal_series_6_a.jpg"" style=""width: 300px; height: 300px;"" />
              </div>","null",""
"","","","","","html-keyboard-response","66","274020","0.0-66.0","1BBA9B4D99FB47E389B21A60F4BE79C0","66f25af5-f9a5-46d1-8b47-1764b0f78475","5479079d-2186-49b2-89e2-e3afab6abcc2","","null","<div style=""display: flex; justify-content: center; align-items: center;"">
                <img src=""images/causal/causal_series_6/causal_series_6_b.jpg"" style=""width: 300px; height: 300px;"" />
              </div>","null",""
"","","","","","html-keyboard-response","67","277022","0.0-67.0","1BBA9B4D99FB47E389B21A60F4BE79C0","66f25af5-f9a5-46d1-8b47-1764b0f78475","5479079d-2186-49b2-89e2-e3afab6abcc2","","null","<div style=""display: flex; justify-content: center; align-items: center;"">
                <img src=""images/causal/causal_series_6/causal_series_6_c.jpg"" style=""width: 300px; height: 300px;"" />
              </div>","null",""
"","","","","","html-button-response","68","278355","0.0-68.0","1BBA9B4D99FB47E389B21A60F4BE79C0","66f25af5-f9a5-46d1-8b47-1764b0f78475","5479079d-2186-49b2-89e2-e3afab6abcc2","","1332","
    <div style=""display: flex; justify-content: center; align-items: center;"">
      <img src=""images/blue_deck_1.png"" style=""width: 300px; height: 300px; margin-right: 10px;"" />
      <img src=""images/red_deck_2.png"" style=""width: 300px; height: 300px;"" />
    </div>","0","0"
"","","","","","html-keyboard-response","69","281357","0.0-69.0-0.0-0.0","1BBA9B4D99FB47E389B21A60F4BE79C0","66f25af5-f9a5-46d1-8b47-1764b0f78475","5479079d-2186-49b2-89e2-e3afab6abcc2","","null","<div style=""display: flex; justify-content: center; align-items: center;"">
                <img src=""images/causal/causal_series_6/causal_series_6_d.jpg"" style=""width: 300px; height: 300px;"" />
              </div>","null",""
"","","","","","html-keyboard-response","70","284359","0.0-70.0","1BBA9B4D99FB47E389B21A60F4BE79C0","66f25af5-f9a5-46d1-8b47-1764b0f78475","5479079d-2186-49b2-89e2-e3afab6abcc2","","null","<div style=""display: flex; justify-content: center; align-items: center;"">
                <img src=""images/other/blank.jpg"" style=""width: 300px; height: 300px;"" />
              </div>","null",""
"","","","","","html-keyboard-response","71","287360","0.0-71.0","1BBA9B4D99FB47E389B21A60F4BE79C0","66f25af5-f9a5-46d1-8b47-1764b0f78475","5479079d-2186-49b2-89e2-e3afab6abcc2","","null","<div style=""display: flex; justify-content: center; align-items: center;"">
                <img src=""images/causal/causal_series_15/causal_series_15_a.jpg"" style=""width: 300px; height: 300px;"" />
              </div>","null",""
"","","","","","html-keyboard-response","72","290361","0.0-72.0","1BBA9B4D99FB47E389B21A60F4BE79C0","66f25af5-f9a5-46d1-8b47-1764b0f78475","5479079d-2186-49b2-89e2-e3afab6abcc2","","null","<div style=""display: flex; justify-content: center; align-items: center;"">
                <img src=""images/causal/causal_series_15/causal_series_15_b.jpg"" style=""width: 300px; height: 300px;"" />
              </div>","null",""
"","","","","","html-keyboard-response","73","293362","0.0-73.0","1BBA9B4D99FB47E389B21A60F4BE79C0","66f25af5-f9a5-46d1-8b47-1764b0f78475","5479079d-2186-49b2-89e2-e3afab6abcc2","","null","<div style=""display: flex; justify-content: center; align-items: center;"">
                <img src=""images/causal/causal_series_15/causal_series_15_c.jpg"" style=""width: 300px; height: 300px;"" />
              </div>","null",""
"","","","","","html-button-response","74","294426","0.0-74.0","1BBA9B4D99FB47E389B21A60F4BE79C0","66f25af5-f9a5-46d1-8b47-1764b0f78475","5479079d-2186-49b2-89e2-e3afab6abcc2","","1063","
    <div style=""display: flex; justify-content: center; align-items: center;"">
      <img src=""images/blue_deck_1.png"" style=""width: 300px; height: 300px; margin-right: 10px;"" />
      <img src=""images/red_deck_2.png"" style=""width: 300px; height: 300px;"" />
    </div>","0","0"
"","","","","","html-keyboard-response","75","297427","0.0-75.0-0.0-0.0","1BBA9B4D99FB47E389B21A60F4BE79C0","66f25af5-f9a5-46d1-8b47-1764b0f78475","5479079d-2186-49b2-89e2-e3afab6abcc2","","null","<div style=""display: flex; justify-content: center; align-items: center;"">
                <img src=""images/causal/causal_series_15/causal_series_15_d.jpg"" style=""width: 300px; height: 300px;"" />
              </div>","null",""
"","","","","","html-keyboard-response","76","300430","0.0-76.0","1BBA9B4D99FB47E389B21A60F4BE79C0","66f25af5-f9a5-46d1-8b47-1764b0f78475","5479079d-2186-49b2-89e2-e3afab6abcc2","","null","<div style=""display: flex; justify-content: center; align-items: center;"">
                <img src=""images/other/blank.jpg"" style=""width: 300px; height: 300px;"" />
              </div>","null",""
"","","","","","html-keyboard-response","77","303431","0.0-77.0","1BBA9B4D99FB47E389B21A60F4BE79C0","66f25af5-f9a5-46d1-8b47-1764b0f78475","5479079d-2186-49b2-89e2-e3afab6abcc2","","null","<div style=""display: flex; justify-content: center; align-items: center;"">
                <img src=""images/causal/causal_series_13/causal_series_13_a.jpg"" style=""width: 300px; height: 300px;"" />
              </div>","null",""
"","","","","","html-keyboard-response","78","306432","0.0-78.0","1BBA9B4D99FB47E389B21A60F4BE79C0","66f25af5-f9a5-46d1-8b47-1764b0f78475","5479079d-2186-49b2-89e2-e3afab6abcc2","","null","<div style=""display: flex; justify-content: center; align-items: center;"">
                <img src=""images/causal/causal_series_13/causal_series_13_b.jpg"" style=""width: 300px; height: 300px;"" />
              </div>","null",""
"","","","","","html-keyboard-response","79","309434","0.0-79.0","1BBA9B4D99FB47E389B21A60F4BE79C0","66f25af5-f9a5-46d1-8b47-1764b0f78475","5479079d-2186-49b2-89e2-e3afab6abcc2","","null","<div style=""display: flex; justify-content: center; align-items: center;"">
                <img src=""images/causal/causal_series_13/causal_series_13_c.jpg"" style=""width: 300px; height: 300px;"" />
              </div>","null",""
"","","","","","html-button-response","80","311139","0.0-80.0","1BBA9B4D99FB47E389B21A60F4BE79C0","66f25af5-f9a5-46d1-8b47-1764b0f78475","5479079d-2186-49b2-89e2-e3afab6abcc2","","1704","
    <div style=""display: flex; justify-content: center; align-items: center;"">
      <img src=""images/blue_deck_1.png"" style=""width: 300px; height: 300px; margin-right: 10px;"" />
      <img src=""images/red_deck_2.png"" style=""width: 300px; height: 300px;"" />
    </div>","0","0"
"","","","","","html-keyboard-response","81","314142","0.0-81.0-0.0-0.0","1BBA9B4D99FB47E389B21A60F4BE79C0","66f25af5-f9a5-46d1-8b47-1764b0f78475","5479079d-2186-49b2-89e2-e3afab6abcc2","","null","<div style=""display: flex; justify-content: center; align-items: center;"">
                <img src=""images/causal/causal_series_13/causal_series_13_d.jpg"" style=""width: 300px; height: 300px;"" />
              </div>","null",""
"","","","","","html-keyboard-response","82","317143","0.0-82.0","1BBA9B4D99FB47E389B21A60F4BE79C0","66f25af5-f9a5-46d1-8b47-1764b0f78475","5479079d-2186-49b2-89e2-e3afab6abcc2","","null","<div style=""display: flex; justify-content: center; align-items: center;"">
                <img src=""images/other/blank.jpg"" style=""width: 300px; height: 300px;"" />
              </div>","null",""
"","","","","","html-keyboard-response","83","320145","0.0-83.0","1BBA9B4D99FB47E389B21A60F4BE79C0","66f25af5-f9a5-46d1-8b47-1764b0f78475","5479079d-2186-49b2-89e2-e3afab6abcc2","","null","<div style=""display: flex; justify-content: center; align-items: center;"">
                <img src=""images/causal/causal_series_8/causal_series_8_a.jpg"" style=""width: 300px; height: 300px;"" />
              </div>","null",""
"","","","","","html-keyboard-response","84","323147","0.0-84.0","1BBA9B4D99FB47E389B21A60F4BE79C0","66f25af5-f9a5-46d1-8b47-1764b0f78475","5479079d-2186-49b2-89e2-e3afab6abcc2","","null","<div style=""display: flex; justify-content: center; align-items: center;"">
                <img src=""images/causal/causal_series_8/causal_series_8_b.jpg"" style=""width: 300px; height: 300px;"" />
              </div>","null",""
"","","","","","html-keyboard-response","85","326148","0.0-85.0","1BBA9B4D99FB47E389B21A60F4BE79C0","66f25af5-f9a5-46d1-8b47-1764b0f78475","5479079d-2186-49b2-89e2-e3afab6abcc2","","null","<div style=""display: flex; justify-content: center; align-items: center;"">
                <img src=""images/causal/causal_series_8/causal_series_8_c.jpg"" style=""width: 300px; height: 300px;"" />
              </div>","null",""
"","","","","","html-button-response","86","328281","0.0-86.0","1BBA9B4D99FB47E389B21A60F4BE79C0","66f25af5-f9a5-46d1-8b47-1764b0f78475","5479079d-2186-49b2-89e2-e3afab6abcc2","","2132","
    <div style=""display: flex; justify-content: center; align-items: center;"">
      <img src=""images/blue_deck_1.png"" style=""width: 300px; height: 300px; margin-right: 10px;"" />
      <img src=""images/red_deck_2.png"" style=""width: 300px; height: 300px;"" />
    </div>","0","0"
"","","","","","html-keyboard-response","87","331283","0.0-87.0-0.0-0.0","1BBA9B4D99FB47E389B21A60F4BE79C0","66f25af5-f9a5-46d1-8b47-1764b0f78475","5479079d-2186-49b2-89e2-e3afab6abcc2","","null","<div style=""display: flex; justify-content: center; align-items: center;"">
                <img src=""images/causal/causal_series_8/causal_series_8_d.jpg"" style=""width: 300px; height: 300px;"" />
              </div>","null",""
"","","","","","html-keyboard-response","88","334285","0.0-88.0","1BBA9B4D99FB47E389B21A60F4BE79C0","66f25af5-f9a5-46d1-8b47-1764b0f78475","5479079d-2186-49b2-89e2-e3afab6abcc2","","null","<div style=""display: flex; justify-content: center; align-items: center;"">
                <img src=""images/other/blank.jpg"" style=""width: 300px; height: 300px;"" />
              </div>","null",""
"","","","","","html-keyboard-response","89","337286","0.0-89.0","1BBA9B4D99FB47E389B21A60F4BE79C0","66f25af5-f9a5-46d1-8b47-1764b0f78475","5479079d-2186-49b2-89e2-e3afab6abcc2","","null","<div style=""display: flex; justify-content: center; align-items: center;"">
                <img src=""images/causal/causal_series_5/causal_series_5_a.jpg"" style=""width: 300px; height: 300px;"" />
              </div>","null",""
"","","","","","html-keyboard-response","90","340288","0.0-90.0","1BBA9B4D99FB47E389B21A60F4BE79C0","66f25af5-f9a5-46d1-8b47-1764b0f78475","5479079d-2186-49b2-89e2-e3afab6abcc2","","null","<div style=""display: flex; justify-content: center; align-items: center;"">
                <img src=""images/causal/causal_series_5/causal_series_5_b.jpg"" style=""width: 300px; height: 300px;"" />
              </div>","null",""
"","","","","","html-keyboard-response","91","343290","0.0-91.0","1BBA9B4D99FB47E389B21A60F4BE79C0","66f25af5-f9a5-46d1-8b47-1764b0f78475","5479079d-2186-49b2-89e2-e3afab6abcc2","","null","<div style=""display: flex; justify-content: center; align-items: center;"">
                <img src=""images/causal/causal_series_5/causal_series_5_c.jpg"" style=""width: 300px; height: 300px;"" />
              </div>","null",""
"","","","","","html-button-response","92","345005","0.0-92.0","1BBA9B4D99FB47E389B21A60F4BE79C0","66f25af5-f9a5-46d1-8b47-1764b0f78475","5479079d-2186-49b2-89e2-e3afab6abcc2","","1714","
    <div style=""display: flex; justify-content: center; align-items: center;"">
      <img src=""images/blue_deck_1.png"" style=""width: 300px; height: 300px; margin-right: 10px;"" />
      <img src=""images/red_deck_2.png"" style=""width: 300px; height: 300px;"" />
    </div>","0","0"
"","","","","","html-keyboard-response","93","348006","0.0-93.0-0.0-0.0","1BBA9B4D99FB47E389B21A60F4BE79C0","66f25af5-f9a5-46d1-8b47-1764b0f78475","5479079d-2186-49b2-89e2-e3afab6abcc2","","null","<div style=""display: flex; justify-content: center; align-items: center;"">
                <img src=""images/causal/causal_series_5/causal_series_5_d.jpg"" style=""width: 300px; height: 300px;"" />
              </div>","null",""
"","","","","","html-keyboard-response","94","351008","0.0-94.0","1BBA9B4D99FB47E389B21A60F4BE79C0","66f25af5-f9a5-46d1-8b47-1764b0f78475","5479079d-2186-49b2-89e2-e3afab6abcc2","","null","<div style=""display: flex; justify-content: center; align-items: center;"">
                <img src=""images/other/blank.jpg"" style=""width: 300px; height: 300px;"" />
              </div>","null",""
"","","","","","html-keyboard-response","95","354010","0.0-95.0","1BBA9B4D99FB47E389B21A60F4BE79C0","66f25af5-f9a5-46d1-8b47-1764b0f78475","5479079d-2186-49b2-89e2-e3afab6abcc2","","null","<div style=""display: flex; justify-content: center; align-items: center;"">
                <img src=""images/causal/causal_series_12/causal_series_12_a.jpg"" style=""width: 300px; height: 300px;"" />
              </div>","null",""
"","","","","","html-keyboard-response","96","357011","0.0-96.0","1BBA9B4D99FB47E389B21A60F4BE79C0","66f25af5-f9a5-46d1-8b47-1764b0f78475","5479079d-2186-49b2-89e2-e3afab6abcc2","","null","<div style=""display: flex; justify-content: center; align-items: center;"">
                <img src=""images/causal/causal_series_12/causal_series_12_b.jpg"" style=""width: 300px; height: 300px;"" />
              </div>","null",""
"","","","","","html-keyboard-response","97","360013","0.0-97.0","1BBA9B4D99FB47E389B21A60F4BE79C0","66f25af5-f9a5-46d1-8b47-1764b0f78475","5479079d-2186-49b2-89e2-e3afab6abcc2","","null","<div style=""display: flex; justify-content: center; align-items: center;"">
                <img src=""images/causal/causal_series_12/causal_series_12_c.jpg"" style=""width: 300px; height: 300px;"" />
              </div>","null",""
"","","","","","html-button-response","98","361655","0.0-98.0","1BBA9B4D99FB47E389B21A60F4BE79C0","66f25af5-f9a5-46d1-8b47-1764b0f78475","5479079d-2186-49b2-89e2-e3afab6abcc2","","1641","
    <div style=""display: flex; justify-content: center; align-items: center;"">
      <img src=""images/blue_deck_1.png"" style=""width: 300px; height: 300px; margin-right: 10px;"" />
      <img src=""images/red_deck_2.png"" style=""width: 300px; height: 300px;"" />
    </div>","0","0"
"","","","","","html-keyboard-response","99","364657","0.0-99.0-0.0-0.0","1BBA9B4D99FB47E389B21A60F4BE79C0","66f25af5-f9a5-46d1-8b47-1764b0f78475","5479079d-2186-49b2-89e2-e3afab6abcc2","","null","<div style=""display: flex; justify-content: center; align-items: center;"">
                <img src=""images/causal/causal_series_12/causal_series_12_d.jpg"" style=""width: 300px; height: 300px;"" />
              </div>","null",""
"","","","","","html-keyboard-response","100","367659","0.0-100.0","1BBA9B4D99FB47E389B21A60F4BE79C0","66f25af5-f9a5-46d1-8b47-1764b0f78475","5479079d-2186-49b2-89e2-e3afab6abcc2","","null","<div style=""display: flex; justify-content: center; align-items: center;"">
                <img src=""images/other/blank.jpg"" style=""width: 300px; height: 300px;"" />
              </div>","null",""
"","","","","","html-keyboard-response","101","370660","0.0-101.0","1BBA9B4D99FB47E389B21A60F4BE79C0","66f25af5-f9a5-46d1-8b47-1764b0f78475","5479079d-2186-49b2-89e2-e3afab6abcc2","","null","<div style=""display: flex; justify-content: center; align-items: center;"">
                <img src=""images/causal/causal_series_9/causal_series_9_a.jpg"" style=""width: 300px; height: 300px;"" />
              </div>","null",""
"","","","","","html-keyboard-response","102","373662","0.0-102.0","1BBA9B4D99FB47E389B21A60F4BE79C0","66f25af5-f9a5-46d1-8b47-1764b0f78475","5479079d-2186-49b2-89e2-e3afab6abcc2","","null","<div style=""display: flex; justify-content: center; align-items: center;"">
                <img src=""images/causal/causal_series_9/causal_series_9_b.jpg"" style=""width: 300px; height: 300px;"" />
              </div>","null",""
"","","","","","html-keyboard-response","103","376664","0.0-103.0","1BBA9B4D99FB47E389B21A60F4BE79C0","66f25af5-f9a5-46d1-8b47-1764b0f78475","5479079d-2186-49b2-89e2-e3afab6abcc2","","null","<div style=""display: flex; justify-content: center; align-items: center;"">
                <img src=""images/causal/causal_series_9/causal_series_9_c.jpg"" style=""width: 300px; height: 300px;"" />
              </div>","null",""
"","","","","","html-button-response","104","378535","0.0-104.0","1BBA9B4D99FB47E389B21A60F4BE79C0","66f25af5-f9a5-46d1-8b47-1764b0f78475","5479079d-2186-49b2-89e2-e3afab6abcc2","","1870","
    <div style=""display: flex; justify-content: center; align-items: center;"">
      <img src=""images/blue_deck_1.png"" style=""width: 300px; height: 300px; margin-right: 10px;"" />
      <img src=""images/red_deck_2.png"" style=""width: 300px; height: 300px;"" />
    </div>","0","0"
"","","","","","html-keyboard-response","105","381536","0.0-105.0-0.0-0.0","1BBA9B4D99FB47E389B21A60F4BE79C0","66f25af5-f9a5-46d1-8b47-1764b0f78475","5479079d-2186-49b2-89e2-e3afab6abcc2","","null","<div style=""display: flex; justify-content: center; align-items: center;"">
                <img src=""images/causal/causal_series_9/causal_series_9_d.jpg"" style=""width: 300px; height: 300px;"" />
              </div>","null",""
"","","","","","html-keyboard-response","106","384538","0.0-106.0","1BBA9B4D99FB47E389B21A60F4BE79C0","66f25af5-f9a5-46d1-8b47-1764b0f78475","5479079d-2186-49b2-89e2-e3afab6abcc2","","null","<div style=""display: flex; justify-content: center; align-items: center;"">
                <img src=""images/other/blank.jpg"" style=""width: 300px; height: 300px;"" />
              </div>","null",""
"","","","","","html-keyboard-response","107","387539","0.0-107.0","1BBA9B4D99FB47E389B21A60F4BE79C0","66f25af5-f9a5-46d1-8b47-1764b0f78475","5479079d-2186-49b2-89e2-e3afab6abcc2","","null","<div style=""display: flex; justify-content: center; align-items: center;"">
                <img src=""images/causal/causal_series_14/causal_series_14_a.jpg"" style=""width: 300px; height: 300px;"" />
              </div>","null",""
"","","","","","html-keyboard-response","108","390541","0.0-108.0","1BBA9B4D99FB47E389B21A60F4BE79C0","66f25af5-f9a5-46d1-8b47-1764b0f78475","5479079d-2186-49b2-89e2-e3afab6abcc2","","null","<div style=""display: flex; justify-content: center; align-items: center;"">
                <img src=""images/causal/causal_series_14/causal_series_14_b.jpg"" style=""width: 300px; height: 300px;"" />
              </div>","null",""
"","","","","","html-keyboard-response","109","393543","0.0-109.0","1BBA9B4D99FB47E389B21A60F4BE79C0","66f25af5-f9a5-46d1-8b47-1764b0f78475","5479079d-2186-49b2-89e2-e3afab6abcc2","","null","<div style=""display: flex; justify-content: center; align-items: center;"">
                <img src=""images/causal/causal_series_14/causal_series_14_c.jpg"" style=""width: 300px; height: 300px;"" />
              </div>","null",""
"","","","","","html-button-response","110","395164","0.0-110.0","1BBA9B4D99FB47E389B21A60F4BE79C0","66f25af5-f9a5-46d1-8b47-1764b0f78475","5479079d-2186-49b2-89e2-e3afab6abcc2","","1620","
    <div style=""display: flex; justify-content: center; align-items: center;"">
      <img src=""images/blue_deck_1.png"" style=""width: 300px; height: 300px; margin-right: 10px;"" />
      <img src=""images/red_deck_2.png"" style=""width: 300px; height: 300px;"" />
    </div>","1","1"
"","","","","","html-keyboard-response","111","398165","0.0-111.0-1.0-0.0","1BBA9B4D99FB47E389B21A60F4BE79C0","66f25af5-f9a5-46d1-8b47-1764b0f78475","5479079d-2186-49b2-89e2-e3afab6abcc2","","null","<div style=""display: flex; justify-content: center; align-items: center;"">
                <img src=""images/semantic/semantic_series_14/semantic_series_14_d.jpg"" style=""width: 300px; height: 300px;"" />
              </div>","null",""
"","","","","","html-keyboard-response","112","401166","0.0-112.0","1BBA9B4D99FB47E389B21A60F4BE79C0","66f25af5-f9a5-46d1-8b47-1764b0f78475","5479079d-2186-49b2-89e2-e3afab6abcc2","","null","<div style=""display: flex; justify-content: center; align-items: center;"">
                <img src=""images/other/blank.jpg"" style=""width: 300px; height: 300px;"" />
              </div>","null",""
"","","","","","survey-text","113","476635","0.0-113.0","1BBA9B4D99FB47E389B21A60F4BE79C0","66f25af5-f9a5-46d1-8b47-1764b0f78475","5479079d-2186-49b2-89e2-e3afab6abcc2","","75465","","{""Q0"":""Deck one is mostly stories and books or movies while deck 2 is a series of activities or chores""}",""
"","","","","","survey-text","114","502593","0.0-114.0","1BBA9B4D99FB47E389B21A60F4BE79C0","66f25af5-f9a5-46d1-8b47-1764b0f78475","5479079d-2186-49b2-89e2-e3afab6abcc2","","25957","","{""Q0"":""Blue Deck one""}",""
"","","","","","html-button-response","115","519415","0.0-115.0","1BBA9B4D99FB47E389B21A60F4BE79C0","66f25af5-f9a5-46d1-8b47-1764b0f78475","5479079d-2186-49b2-89e2-e3afab6abcc2","","16821","Which color deck does the fourth image continue the story from the series?","0",""
"","","","","","html-button-response","116","526720","0.0-116.0","1BBA9B4D99FB47E389B21A60F4BE79C0","66f25af5-f9a5-46d1-8b47-1764b0f78475","5479079d-2186-49b2-89e2-e3afab6abcc2","","7303","Which color deck does the fourth image not follow the story from the series?","1",""
"","","","","","survey-text","117","544915","0.0-117.0","1BBA9B4D99FB47E389B21A60F4BE79C0","66f25af5-f9a5-46d1-8b47-1764b0f78475","5479079d-2186-49b2-89e2-e3afab6abcc2","","18191","","{""Q0"":""FEMALE"",""Q1"":""35""}",""
"","","","","","instructions","118","558218","0.0-118.0","1BBA9B4D99FB47E389B21A60F4BE79C0","66f25af5-f9a5-46d1-8b47-1764b0f78475","5479079d-2186-49b2-89e2-e3afab6abcc2","[{""page_index"":0,""viewing_time"":13302}]","13303","","",""
