"success","timeout","failed_images","failed_audio","failed_video","trial_type","trial_index","time_elapsed","internal_node_id","subject_id","study_id","session_id","view_history","rt","stimulus","response","choice"
"true","false","[]","[]","[]","preload","0","3757","0.0-0.0","98F8387E471B4D0781A577E9B6035AE4","32e469c3-89aa-4e1e-b31b-25de3b40a2c1","92e08bb8-2bb0-463c-bc98-cd72da82565c","","","","",""
"","","","","","instructions","1","10486","0.0-1.0","98F8387E471B4D0781A577E9B6035AE4","32e469c3-89aa-4e1e-b31b-25de3b40a2c1","92e08bb8-2bb0-463c-bc98-cd72da82565c","[{""page_index"":0,""viewing_time"":6727}]","6728","","",""
"","","","","","instructions","2","45065","0.0-2.0","98F8387E471B4D0781A577E9B6035AE4","32e469c3-89aa-4e1e-b31b-25de3b40a2c1","92e08bb8-2bb0-463c-bc98-cd72da82565c","[{""page_index"":0,""viewing_time"":34578}]","34578","","",""
"true","","","","","fullscreen","3","47866","0.0-3.0","98F8387E471B4D0781A577E9B6035AE4","32e469c3-89aa-4e1e-b31b-25de3b40a2c1","92e08bb8-2bb0-463c-bc98-cd72da82565c","","1791","","",""
"","","","","","instructions","4","66423","0.0-4.0","98F8387E471B4D0781A577E9B6035AE4","32e469c3-89aa-4e1e-b31b-25de3b40a2c1","92e08bb8-2bb0-463c-bc98-cd72da82565c","[{""page_index"":0,""viewing_time"":18557}]","18557","","",""
"","","","","","html-keyboard-response","5","69436","0.0-5.0","98F8387E471B4D0781A577E9B6035AE4","32e469c3-89aa-4e1e-b31b-25de3b40a2c1","92e08bb8-2bb0-463c-bc98-cd72da82565c","","null","<div style=""display: flex; justify-content: center; align-items: center;"">
                <img src=""images/causal/causal_series_3/causal_series_3_a.jpg"" style=""width: 300px; height: 300px;"" />
              </div>","null",""
"","","","","","html-keyboard-response","6","72444","0.0-6.0","98F8387E471B4D0781A577E9B6035AE4","32e469c3-89aa-4e1e-b31b-25de3b40a2c1","92e08bb8-2bb0-463c-bc98-cd72da82565c","","null","<div style=""display: flex; justify-content: center; align-items: center;"">
                <img src=""images/causal/causal_series_3/causal_series_3_b.jpg"" style=""width: 300px; height: 300px;"" />
              </div>","null",""
"","","","","","html-keyboard-response","7","75446","0.0-7.0","98F8387E471B4D0781A577E9B6035AE4","32e469c3-89aa-4e1e-b31b-25de3b40a2c1","92e08bb8-2bb0-463c-bc98-cd72da82565c","","null","<div style=""display: flex; justify-content: center; align-items: center;"">
                <img src=""images/causal/causal_series_3/causal_series_3_c.jpg"" style=""width: 300px; height: 300px;"" />
              </div>","null",""
"","","","","","html-button-response","8","78447","0.0-8.0","98F8387E471B4D0781A577E9B6035AE4","32e469c3-89aa-4e1e-b31b-25de3b40a2c1","92e08bb8-2bb0-463c-bc98-cd72da82565c","","2999","
    <div style=""display: flex; justify-content: center; align-items: center;"">
      <img src=""images/blue_deck_1.png"" style=""width: 300px; height: 300px; margin-right: 10px;"" />
      <img src=""images/red_deck_2.png"" style=""width: 300px; height: 300px;"" />
    </div>","0","0"
"","","","","","html-keyboard-response","9","81450","0.0-9.0-0.0-0.0","98F8387E471B4D0781A577E9B6035AE4","32e469c3-89aa-4e1e-b31b-25de3b40a2c1","92e08bb8-2bb0-463c-bc98-cd72da82565c","","null","<div style=""display: flex; justify-content: center; align-items: center;"">
                <img src=""images/causal/causal_series_3/causal_series_3_d.jpg"" style=""width: 300px; height: 300px;"" />
              </div>","null",""
"","","","","","html-keyboard-response","10","84466","0.0-10.0","98F8387E471B4D0781A577E9B6035AE4","32e469c3-89aa-4e1e-b31b-25de3b40a2c1","92e08bb8-2bb0-463c-bc98-cd72da82565c","","null","<div style=""display: flex; justify-content: center; align-items: center;"">
                <img src=""images/other/blank.jpg"" style=""width: 300px; height: 300px;"" />
              </div>","null",""
"","","","","","html-keyboard-response","11","87478","0.0-11.0","98F8387E471B4D0781A577E9B6035AE4","32e469c3-89aa-4e1e-b31b-25de3b40a2c1","92e08bb8-2bb0-463c-bc98-cd72da82565c","","null","<div style=""display: flex; justify-content: center; align-items: center;"">
                <img src=""images/causal/causal_series_17/causal_series_17_a.jpg"" style=""width: 300px; height: 300px;"" />
              </div>","null",""
"","","","","","html-keyboard-response","12","90482","0.0-12.0","98F8387E471B4D0781A577E9B6035AE4","32e469c3-89aa-4e1e-b31b-25de3b40a2c1","92e08bb8-2bb0-463c-bc98-cd72da82565c","","null","<div style=""display: flex; justify-content: center; align-items: center;"">
                <img src=""images/causal/causal_series_17/causal_series_17_b.jpg"" style=""width: 300px; height: 300px;"" />
              </div>","null",""
"","","","","","html-keyboard-response","13","93496","0.0-13.0","98F8387E471B4D0781A577E9B6035AE4","32e469c3-89aa-4e1e-b31b-25de3b40a2c1","92e08bb8-2bb0-463c-bc98-cd72da82565c","","null","<div style=""display: flex; justify-content: center; align-items: center;"">
                <img src=""images/causal/causal_series_17/causal_series_17_c.jpg"" style=""width: 300px; height: 300px;"" />
              </div>","null",""
"","","","","","html-button-response","14","95411","0.0-14.0","98F8387E471B4D0781A577E9B6035AE4","32e469c3-89aa-4e1e-b31b-25de3b40a2c1","92e08bb8-2bb0-463c-bc98-cd72da82565c","","1913","
    <div style=""display: flex; justify-content: center; align-items: center;"">
      <img src=""images/blue_deck_1.png"" style=""width: 300px; height: 300px; margin-right: 10px;"" />
      <img src=""images/red_deck_2.png"" style=""width: 300px; height: 300px;"" />
    </div>","1","1"
"","","","","","html-keyboard-response","15","98412","0.0-15.0-1.0-0.0","98F8387E471B4D0781A577E9B6035AE4","32e469c3-89aa-4e1e-b31b-25de3b40a2c1","92e08bb8-2bb0-463c-bc98-cd72da82565c","","null","<div style=""display: flex; justify-content: center; align-items: center;"">
                <img src=""images/semantic/semantic_series_16/semantic_series_16_d.jpg"" style=""width: 300px; height: 300px;"" />
              </div>","null",""
"","","","","","html-keyboard-response","16","101424","0.0-16.0","98F8387E471B4D0781A577E9B6035AE4","32e469c3-89aa-4e1e-b31b-25de3b40a2c1","92e08bb8-2bb0-463c-bc98-cd72da82565c","","null","<div style=""display: flex; justify-content: center; align-items: center;"">
                <img src=""images/other/blank.jpg"" style=""width: 300px; height: 300px;"" />
              </div>","null",""
"","","","","","html-keyboard-response","17","104430","0.0-17.0","98F8387E471B4D0781A577E9B6035AE4","32e469c3-89aa-4e1e-b31b-25de3b40a2c1","92e08bb8-2bb0-463c-bc98-cd72da82565c","","null","<div style=""display: flex; justify-content: center; align-items: center;"">
                <img src=""images/causal/causal_series_8/causal_series_8_a.jpg"" style=""width: 300px; height: 300px;"" />
              </div>","null",""
"","","","","","html-keyboard-response","18","107434","0.0-18.0","98F8387E471B4D0781A577E9B6035AE4","32e469c3-89aa-4e1e-b31b-25de3b40a2c1","92e08bb8-2bb0-463c-bc98-cd72da82565c","","null","<div style=""display: flex; justify-content: center; align-items: center;"">
                <img src=""images/causal/causal_series_8/causal_series_8_b.jpg"" style=""width: 300px; height: 300px;"" />
              </div>","null",""
"","","","","","html-keyboard-response","19","110442","0.0-19.0","98F8387E471B4D0781A577E9B6035AE4","32e469c3-89aa-4e1e-b31b-25de3b40a2c1","92e08bb8-2bb0-463c-bc98-cd72da82565c","","null","<div style=""display: flex; justify-content: center; align-items: center;"">
                <img src=""images/causal/causal_series_8/causal_series_8_c.jpg"" style=""width: 300px; height: 300px;"" />
              </div>","null",""
"","","","","","html-button-response","20","113755","0.0-20.0","98F8387E471B4D0781A577E9B6035AE4","32e469c3-89aa-4e1e-b31b-25de3b40a2c1","92e08bb8-2bb0-463c-bc98-cd72da82565c","","3311","
    <div style=""display: flex; justify-content: center; align-items: center;"">
      <img src=""images/blue_deck_1.png"" style=""width: 300px; height: 300px; margin-right: 10px;"" />
      <img src=""images/red_deck_2.png"" style=""width: 300px; height: 300px;"" />
    </div>","0","0"
"","","","","","html-keyboard-response","21","116768","0.0-21.0-0.0-0.0","98F8387E471B4D0781A577E9B6035AE4","32e469c3-89aa-4e1e-b31b-25de3b40a2c1","92e08bb8-2bb0-463c-bc98-cd72da82565c","","null","<div style=""display: flex; justify-content: center; align-items: center;"">
                <img src=""images/causal/causal_series_8/causal_series_8_d.jpg"" style=""width: 300px; height: 300px;"" />
              </div>","null",""
"","","","","","html-keyboard-response","22","119779","0.0-22.0","98F8387E471B4D0781A577E9B6035AE4","32e469c3-89aa-4e1e-b31b-25de3b40a2c1","92e08bb8-2bb0-463c-bc98-cd72da82565c","","null","<div style=""display: flex; justify-content: center; align-items: center;"">
                <img src=""images/other/blank.jpg"" style=""width: 300px; height: 300px;"" />
              </div>","null",""
"","","","","","html-keyboard-response","23","122781","0.0-23.0","98F8387E471B4D0781A577E9B6035AE4","32e469c3-89aa-4e1e-b31b-25de3b40a2c1","92e08bb8-2bb0-463c-bc98-cd72da82565c","","null","<div style=""display: flex; justify-content: center; align-items: center;"">
                <img src=""images/causal/causal_series_9/causal_series_9_a.jpg"" style=""width: 300px; height: 300px;"" />
              </div>","null",""
"","","","","","html-keyboard-response","24","125797","0.0-24.0","98F8387E471B4D0781A577E9B6035AE4","32e469c3-89aa-4e1e-b31b-25de3b40a2c1","92e08bb8-2bb0-463c-bc98-cd72da82565c","","null","<div style=""display: flex; justify-content: center; align-items: center;"">
                <img src=""images/causal/causal_series_9/causal_series_9_b.jpg"" style=""width: 300px; height: 300px;"" />
              </div>","null",""
"","","","","","html-keyboard-response","25","128812","0.0-25.0","98F8387E471B4D0781A577E9B6035AE4","32e469c3-89aa-4e1e-b31b-25de3b40a2c1","92e08bb8-2bb0-463c-bc98-cd72da82565c","","null","<div style=""display: flex; justify-content: center; align-items: center;"">
                <img src=""images/causal/causal_series_9/causal_series_9_c.jpg"" style=""width: 300px; height: 300px;"" />
              </div>","null",""
"","","","","","html-button-response","26","132494","0.0-26.0","98F8387E471B4D0781A577E9B6035AE4","32e469c3-89aa-4e1e-b31b-25de3b40a2c1","92e08bb8-2bb0-463c-bc98-cd72da82565c","","3681","
    <div style=""display: flex; justify-content: center; align-items: center;"">
      <img src=""images/blue_deck_1.png"" style=""width: 300px; height: 300px; margin-right: 10px;"" />
      <img src=""images/red_deck_2.png"" style=""width: 300px; height: 300px;"" />
    </div>","0","0"
"","","","","","html-keyboard-response","27","135511","0.0-27.0-0.0-0.0","98F8387E471B4D0781A577E9B6035AE4","32e469c3-89aa-4e1e-b31b-25de3b40a2c1","92e08bb8-2bb0-463c-bc98-cd72da82565c","","null","<div style=""display: flex; justify-content: center; align-items: center;"">
                <img src=""images/causal/causal_series_9/causal_series_9_d.jpg"" style=""width: 300px; height: 300px;"" />
              </div>","null",""
"","","","","","html-keyboard-response","28","138515","0.0-28.0","98F8387E471B4D0781A577E9B6035AE4","32e469c3-89aa-4e1e-b31b-25de3b40a2c1","92e08bb8-2bb0-463c-bc98-cd72da82565c","","null","<div style=""display: flex; justify-content: center; align-items: center;"">
                <img src=""images/other/blank.jpg"" style=""width: 300px; height: 300px;"" />
              </div>","null",""
"","","","","","html-keyboard-response","29","141532","0.0-29.0","98F8387E471B4D0781A577E9B6035AE4","32e469c3-89aa-4e1e-b31b-25de3b40a2c1","92e08bb8-2bb0-463c-bc98-cd72da82565c","","null","<div style=""display: flex; justify-content: center; align-items: center;"">
                <img src=""images/causal/causal_series_4/causal_series_4_a.jpg"" style=""width: 300px; height: 300px;"" />
              </div>","null",""
"","","","","","html-keyboard-response","30","144547","0.0-30.0","98F8387E471B4D0781A577E9B6035AE4","32e469c3-89aa-4e1e-b31b-25de3b40a2c1","92e08bb8-2bb0-463c-bc98-cd72da82565c","","null","<div style=""display: flex; justify-content: center; align-items: center;"">
                <img src=""images/causal/causal_series_4/causal_series_4_b.jpg"" style=""width: 300px; height: 300px;"" />
              </div>","null",""
"","","","","","html-keyboard-response","31","147551","0.0-31.0","98F8387E471B4D0781A577E9B6035AE4","32e469c3-89aa-4e1e-b31b-25de3b40a2c1","92e08bb8-2bb0-463c-bc98-cd72da82565c","","null","<div style=""display: flex; justify-content: center; align-items: center;"">
                <img src=""images/causal/causal_series_4/causal_series_4_c.jpg"" style=""width: 300px; height: 300px;"" />
              </div>","null",""
"","","","","","html-button-response","32","149246","0.0-32.0","98F8387E471B4D0781A577E9B6035AE4","32e469c3-89aa-4e1e-b31b-25de3b40a2c1","92e08bb8-2bb0-463c-bc98-cd72da82565c","","1693","
    <div style=""display: flex; justify-content: center; align-items: center;"">
      <img src=""images/blue_deck_1.png"" style=""width: 300px; height: 300px; margin-right: 10px;"" />
      <img src=""images/red_deck_2.png"" style=""width: 300px; height: 300px;"" />
    </div>","1","1"
"","","","","","html-keyboard-response","33","152253","0.0-33.0-1.0-0.0","98F8387E471B4D0781A577E9B6035AE4","32e469c3-89aa-4e1e-b31b-25de3b40a2c1","92e08bb8-2bb0-463c-bc98-cd72da82565c","","null","<div style=""display: flex; justify-content: center; align-items: center;"">
                <img src=""images/semantic/semantic_series_3/semantic_series_3_d.jpg"" style=""width: 300px; height: 300px;"" />
              </div>","null",""
"","","","","","html-keyboard-response","34","155258","0.0-34.0","98F8387E471B4D0781A577E9B6035AE4","32e469c3-89aa-4e1e-b31b-25de3b40a2c1","92e08bb8-2bb0-463c-bc98-cd72da82565c","","null","<div style=""display: flex; justify-content: center; align-items: center;"">
                <img src=""images/other/blank.jpg"" style=""width: 300px; height: 300px;"" />
              </div>","null",""
"","","","","","html-keyboard-response","35","158271","0.0-35.0","98F8387E471B4D0781A577E9B6035AE4","32e469c3-89aa-4e1e-b31b-25de3b40a2c1","92e08bb8-2bb0-463c-bc98-cd72da82565c","","null","<div style=""display: flex; justify-content: center; align-items: center;"">
                <img src=""images/causal/causal_series_2/causal_series_2_a.jpg"" style=""width: 300px; height: 300px;"" />
              </div>","null",""
"","","","","","html-keyboard-response","36","161275","0.0-36.0","98F8387E471B4D0781A577E9B6035AE4","32e469c3-89aa-4e1e-b31b-25de3b40a2c1","92e08bb8-2bb0-463c-bc98-cd72da82565c","","null","<div style=""display: flex; justify-content: center; align-items: center;"">
                <img src=""images/causal/causal_series_2/causal_series_2_b.jpg"" style=""width: 300px; height: 300px;"" />
              </div>","null",""
"","","","","","html-keyboard-response","37","164291","0.0-37.0","98F8387E471B4D0781A577E9B6035AE4","32e469c3-89aa-4e1e-b31b-25de3b40a2c1","92e08bb8-2bb0-463c-bc98-cd72da82565c","","null","<div style=""display: flex; justify-content: center; align-items: center;"">
                <img src=""images/causal/causal_series_2/causal_series_2_c.jpg"" style=""width: 300px; height: 300px;"" />
              </div>","null",""
"","","","","","html-button-response","38","165599","0.0-38.0","98F8387E471B4D0781A577E9B6035AE4","32e469c3-89aa-4e1e-b31b-25de3b40a2c1","92e08bb8-2bb0-463c-bc98-cd72da82565c","","1307","
    <div style=""display: flex; justify-content: center; align-items: center;"">
      <img src=""images/blue_deck_1.png"" style=""width: 300px; height: 300px; margin-right: 10px;"" />
      <img src=""images/red_deck_2.png"" style=""width: 300px; height: 300px;"" />
    </div>","1","1"
"","","","","","html-keyboard-response","39","168601","0.0-39.0-1.0-0.0","98F8387E471B4D0781A577E9B6035AE4","32e469c3-89aa-4e1e-b31b-25de3b40a2c1","92e08bb8-2bb0-463c-bc98-cd72da82565c","","null","<div style=""display: flex; justify-content: center; align-items: center;"">
                <img src=""images/semantic/semantic_series_1/semantic_series_1_d.jpg"" style=""width: 300px; height: 300px;"" />
              </div>","null",""
"","","","","","html-keyboard-response","40","171602","0.0-40.0","98F8387E471B4D0781A577E9B6035AE4","32e469c3-89aa-4e1e-b31b-25de3b40a2c1","92e08bb8-2bb0-463c-bc98-cd72da82565c","","null","<div style=""display: flex; justify-content: center; align-items: center;"">
                <img src=""images/other/blank.jpg"" style=""width: 300px; height: 300px;"" />
              </div>","null",""
"","","","","","html-keyboard-response","41","174606","0.0-41.0","98F8387E471B4D0781A577E9B6035AE4","32e469c3-89aa-4e1e-b31b-25de3b40a2c1","92e08bb8-2bb0-463c-bc98-cd72da82565c","","null","<div style=""display: flex; justify-content: center; align-items: center;"">
                <img src=""images/causal/causal_series_1/causal_series_1_a.jpg"" style=""width: 300px; height: 300px;"" />
              </div>","null",""
"","","","","","html-keyboard-response","42","177621","0.0-42.0","98F8387E471B4D0781A577E9B6035AE4","32e469c3-89aa-4e1e-b31b-25de3b40a2c1","92e08bb8-2bb0-463c-bc98-cd72da82565c","","null","<div style=""display: flex; justify-content: center; align-items: center;"">
                <img src=""images/causal/causal_series_1/causal_series_1_b.jpg"" style=""width: 300px; height: 300px;"" />
              </div>","null",""
"","","","","","html-keyboard-response","43","180634","0.0-43.0","98F8387E471B4D0781A577E9B6035AE4","32e469c3-89aa-4e1e-b31b-25de3b40a2c1","92e08bb8-2bb0-463c-bc98-cd72da82565c","","null","<div style=""display: flex; justify-content: center; align-items: center;"">
                <img src=""images/causal/causal_series_1/causal_series_1_c.jpg"" style=""width: 300px; height: 300px;"" />
              </div>","null",""
"","","","","","html-button-response","44","181325","0.0-44.0","98F8387E471B4D0781A577E9B6035AE4","32e469c3-89aa-4e1e-b31b-25de3b40a2c1","92e08bb8-2bb0-463c-bc98-cd72da82565c","","689","
    <div style=""display: flex; justify-content: center; align-items: center;"">
      <img src=""images/blue_deck_1.png"" style=""width: 300px; height: 300px; margin-right: 10px;"" />
      <img src=""images/red_deck_2.png"" style=""width: 300px; height: 300px;"" />
    </div>","1","1"
"","","","","","html-keyboard-response","45","184330","0.0-45.0-1.0-0.0","98F8387E471B4D0781A577E9B6035AE4","32e469c3-89aa-4e1e-b31b-25de3b40a2c1","92e08bb8-2bb0-463c-bc98-cd72da82565c","","null","<div style=""display: flex; justify-content: center; align-items: center;"">
                <img src=""images/semantic/semantic_series_18/semantic_series_18_d.jpg"" style=""width: 300px; height: 300px;"" />
              </div>","null",""
"","","","","","html-keyboard-response","46","187338","0.0-46.0","98F8387E471B4D0781A577E9B6035AE4","32e469c3-89aa-4e1e-b31b-25de3b40a2c1","92e08bb8-2bb0-463c-bc98-cd72da82565c","","null","<div style=""display: flex; justify-content: center; align-items: center;"">
                <img src=""images/other/blank.jpg"" style=""width: 300px; height: 300px;"" />
              </div>","null",""
"","","","","","html-keyboard-response","47","190352","0.0-47.0","98F8387E471B4D0781A577E9B6035AE4","32e469c3-89aa-4e1e-b31b-25de3b40a2c1","92e08bb8-2bb0-463c-bc98-cd72da82565c","","null","<div style=""display: flex; justify-content: center; align-items: center;"">
                <img src=""images/causal/causal_series_7/causal_series_7_a.jpg"" style=""width: 300px; height: 300px;"" />
              </div>","null",""
"","","","","","html-keyboard-response","48","193358","0.0-48.0","98F8387E471B4D0781A577E9B6035AE4","32e469c3-89aa-4e1e-b31b-25de3b40a2c1","92e08bb8-2bb0-463c-bc98-cd72da82565c","","null","<div style=""display: flex; justify-content: center; align-items: center;"">
                <img src=""images/causal/causal_series_7/causal_series_7_b.jpg"" style=""width: 300px; height: 300px;"" />
              </div>","null",""
"","","","","","html-keyboard-response","49","196362","0.0-49.0","98F8387E471B4D0781A577E9B6035AE4","32e469c3-89aa-4e1e-b31b-25de3b40a2c1","92e08bb8-2bb0-463c-bc98-cd72da82565c","","null","<div style=""display: flex; justify-content: center; align-items: center;"">
                <img src=""images/causal/causal_series_7/causal_series_7_c.jpg"" style=""width: 300px; height: 300px;"" />
              </div>","null",""
"","","","","","html-button-response","50","197723","0.0-50.0","98F8387E471B4D0781A577E9B6035AE4","32e469c3-89aa-4e1e-b31b-25de3b40a2c1","92e08bb8-2bb0-463c-bc98-cd72da82565c","","1359","
    <div style=""display: flex; justify-content: center; align-items: center;"">
      <img src=""images/blue_deck_1.png"" style=""width: 300px; height: 300px; margin-right: 10px;"" />
      <img src=""images/red_deck_2.png"" style=""width: 300px; height: 300px;"" />
    </div>","0","0"
"","","","","","html-keyboard-response","51","200736","0.0-51.0-0.0-0.0","98F8387E471B4D0781A577E9B6035AE4","32e469c3-89aa-4e1e-b31b-25de3b40a2c1","92e08bb8-2bb0-463c-bc98-cd72da82565c","","null","<div style=""display: flex; justify-content: center; align-items: center;"">
                <img src=""images/causal/causal_series_7/causal_series_7_d.jpg"" style=""width: 300px; height: 300px;"" />
              </div>","null",""
"","","","","","html-keyboard-response","52","203753","0.0-52.0","98F8387E471B4D0781A577E9B6035AE4","32e469c3-89aa-4e1e-b31b-25de3b40a2c1","92e08bb8-2bb0-463c-bc98-cd72da82565c","","null","<div style=""display: flex; justify-content: center; align-items: center;"">
                <img src=""images/other/blank.jpg"" style=""width: 300px; height: 300px;"" />
              </div>","null",""
"","","","","","html-keyboard-response","53","206763","0.0-53.0","98F8387E471B4D0781A577E9B6035AE4","32e469c3-89aa-4e1e-b31b-25de3b40a2c1","92e08bb8-2bb0-463c-bc98-cd72da82565c","","null","<div style=""display: flex; justify-content: center; align-items: center;"">
                <img src=""images/causal/causal_series_5/causal_series_5_a.jpg"" style=""width: 300px; height: 300px;"" />
              </div>","null",""
"","","","","","html-keyboard-response","54","209766","0.0-54.0","98F8387E471B4D0781A577E9B6035AE4","32e469c3-89aa-4e1e-b31b-25de3b40a2c1","92e08bb8-2bb0-463c-bc98-cd72da82565c","","null","<div style=""display: flex; justify-content: center; align-items: center;"">
                <img src=""images/causal/causal_series_5/causal_series_5_b.jpg"" style=""width: 300px; height: 300px;"" />
              </div>","null",""
"","","","","","html-keyboard-response","55","212771","0.0-55.0","98F8387E471B4D0781A577E9B6035AE4","32e469c3-89aa-4e1e-b31b-25de3b40a2c1","92e08bb8-2bb0-463c-bc98-cd72da82565c","","null","<div style=""display: flex; justify-content: center; align-items: center;"">
                <img src=""images/causal/causal_series_5/causal_series_5_c.jpg"" style=""width: 300px; height: 300px;"" />
              </div>","null",""
"","","","","","html-button-response","56","213979","0.0-56.0","98F8387E471B4D0781A577E9B6035AE4","32e469c3-89aa-4e1e-b31b-25de3b40a2c1","92e08bb8-2bb0-463c-bc98-cd72da82565c","","1206","
    <div style=""display: flex; justify-content: center; align-items: center;"">
      <img src=""images/blue_deck_1.png"" style=""width: 300px; height: 300px; margin-right: 10px;"" />
      <img src=""images/red_deck_2.png"" style=""width: 300px; height: 300px;"" />
    </div>","0","0"
"","","","","","html-keyboard-response","57","216987","0.0-57.0-0.0-0.0","98F8387E471B4D0781A577E9B6035AE4","32e469c3-89aa-4e1e-b31b-25de3b40a2c1","92e08bb8-2bb0-463c-bc98-cd72da82565c","","null","<div style=""display: flex; justify-content: center; align-items: center;"">
                <img src=""images/causal/causal_series_5/causal_series_5_d.jpg"" style=""width: 300px; height: 300px;"" />
              </div>","null",""
"","","","","","html-keyboard-response","58","219993","0.0-58.0","98F8387E471B4D0781A577E9B6035AE4","32e469c3-89aa-4e1e-b31b-25de3b40a2c1","92e08bb8-2bb0-463c-bc98-cd72da82565c","","null","<div style=""display: flex; justify-content: center; align-items: center;"">
                <img src=""images/other/blank.jpg"" style=""width: 300px; height: 300px;"" />
              </div>","null",""
"","","","","","html-keyboard-response","59","222998","0.0-59.0","98F8387E471B4D0781A577E9B6035AE4","32e469c3-89aa-4e1e-b31b-25de3b40a2c1","92e08bb8-2bb0-463c-bc98-cd72da82565c","","null","<div style=""display: flex; justify-content: center; align-items: center;"">
                <img src=""images/causal/causal_series_16/causal_series_16_a.jpg"" style=""width: 300px; height: 300px;"" />
              </div>","null",""
"","","","","","html-keyboard-response","60","226007","0.0-60.0","98F8387E471B4D0781A577E9B6035AE4","32e469c3-89aa-4e1e-b31b-25de3b40a2c1","92e08bb8-2bb0-463c-bc98-cd72da82565c","","null","<div style=""display: flex; justify-content: center; align-items: center;"">
                <img src=""images/causal/causal_series_16/causal_series_16_b.jpg"" style=""width: 300px; height: 300px;"" />
              </div>","null",""
"","","","","","html-keyboard-response","61","229013","0.0-61.0","98F8387E471B4D0781A577E9B6035AE4","32e469c3-89aa-4e1e-b31b-25de3b40a2c1","92e08bb8-2bb0-463c-bc98-cd72da82565c","","null","<div style=""display: flex; justify-content: center; align-items: center;"">
                <img src=""images/causal/causal_series_16/causal_series_16_c.jpg"" style=""width: 300px; height: 300px;"" />
              </div>","null",""
"","","","","","html-button-response","62","229876","0.0-62.0","98F8387E471B4D0781A577E9B6035AE4","32e469c3-89aa-4e1e-b31b-25de3b40a2c1","92e08bb8-2bb0-463c-bc98-cd72da82565c","","862","
    <div style=""display: flex; justify-content: center; align-items: center;"">
      <img src=""images/blue_deck_1.png"" style=""width: 300px; height: 300px; margin-right: 10px;"" />
      <img src=""images/red_deck_2.png"" style=""width: 300px; height: 300px;"" />
    </div>","0","0"
"","","","","","html-keyboard-response","63","232887","0.0-63.0-0.0-0.0","98F8387E471B4D0781A577E9B6035AE4","32e469c3-89aa-4e1e-b31b-25de3b40a2c1","92e08bb8-2bb0-463c-bc98-cd72da82565c","","null","<div style=""display: flex; justify-content: center; align-items: center;"">
                <img src=""images/causal/causal_series_16/causal_series_16_d.jpg"" style=""width: 300px; height: 300px;"" />
              </div>","null",""
"","","","","","html-keyboard-response","64","235892","0.0-64.0","98F8387E471B4D0781A577E9B6035AE4","32e469c3-89aa-4e1e-b31b-25de3b40a2c1","92e08bb8-2bb0-463c-bc98-cd72da82565c","","null","<div style=""display: flex; justify-content: center; align-items: center;"">
                <img src=""images/other/blank.jpg"" style=""width: 300px; height: 300px;"" />
              </div>","null",""
"","","","","","html-keyboard-response","65","238898","0.0-65.0","98F8387E471B4D0781A577E9B6035AE4","32e469c3-89aa-4e1e-b31b-25de3b40a2c1","92e08bb8-2bb0-463c-bc98-cd72da82565c","","null","<div style=""display: flex; justify-content: center; align-items: center;"">
                <img src=""images/causal/causal_series_11/causal_series_11_a.jpg"" style=""width: 300px; height: 300px;"" />
              </div>","null",""
"","","","","","html-keyboard-response","66","241901","0.0-66.0","98F8387E471B4D0781A577E9B6035AE4","32e469c3-89aa-4e1e-b31b-25de3b40a2c1","92e08bb8-2bb0-463c-bc98-cd72da82565c","","null","<div style=""display: flex; justify-content: center; align-items: center;"">
                <img src=""images/causal/causal_series_11/causal_series_11_b.jpg"" style=""width: 300px; height: 300px;"" />
              </div>","null",""
"","","","","","html-keyboard-response","67","244910","0.0-67.0","98F8387E471B4D0781A577E9B6035AE4","32e469c3-89aa-4e1e-b31b-25de3b40a2c1","92e08bb8-2bb0-463c-bc98-cd72da82565c","","null","<div style=""display: flex; justify-content: center; align-items: center;"">
                <img src=""images/causal/causal_series_11/causal_series_11_c.jpg"" style=""width: 300px; height: 300px;"" />
              </div>","null",""
"","","","","","html-button-response","68","246189","0.0-68.0","98F8387E471B4D0781A577E9B6035AE4","32e469c3-89aa-4e1e-b31b-25de3b40a2c1","92e08bb8-2bb0-463c-bc98-cd72da82565c","","1278","
    <div style=""display: flex; justify-content: center; align-items: center;"">
      <img src=""images/blue_deck_1.png"" style=""width: 300px; height: 300px; margin-right: 10px;"" />
      <img src=""images/red_deck_2.png"" style=""width: 300px; height: 300px;"" />
    </div>","1","1"
"","","","","","html-keyboard-response","69","249203","0.0-69.0-1.0-0.0","98F8387E471B4D0781A577E9B6035AE4","32e469c3-89aa-4e1e-b31b-25de3b40a2c1","92e08bb8-2bb0-463c-bc98-cd72da82565c","","null","<div style=""display: flex; justify-content: center; align-items: center;"">
                <img src=""images/semantic/semantic_series_10/semantic_series_10_d.jpg"" style=""width: 300px; height: 300px;"" />
              </div>","null",""
"","","","","","html-keyboard-response","70","252209","0.0-70.0","98F8387E471B4D0781A577E9B6035AE4","32e469c3-89aa-4e1e-b31b-25de3b40a2c1","92e08bb8-2bb0-463c-bc98-cd72da82565c","","null","<div style=""display: flex; justify-content: center; align-items: center;"">
                <img src=""images/other/blank.jpg"" style=""width: 300px; height: 300px;"" />
              </div>","null",""
"","","","","","html-keyboard-response","71","255213","0.0-71.0","98F8387E471B4D0781A577E9B6035AE4","32e469c3-89aa-4e1e-b31b-25de3b40a2c1","92e08bb8-2bb0-463c-bc98-cd72da82565c","","null","<div style=""display: flex; justify-content: center; align-items: center;"">
                <img src=""images/causal/causal_series_13/causal_series_13_a.jpg"" style=""width: 300px; height: 300px;"" />
              </div>","null",""
"","","","","","html-keyboard-response","72","258222","0.0-72.0","98F8387E471B4D0781A577E9B6035AE4","32e469c3-89aa-4e1e-b31b-25de3b40a2c1","92e08bb8-2bb0-463c-bc98-cd72da82565c","","null","<div style=""display: flex; justify-content: center; align-items: center;"">
                <img src=""images/causal/causal_series_13/causal_series_13_b.jpg"" style=""width: 300px; height: 300px;"" />
              </div>","null",""
"","","","","","html-keyboard-response","73","261228","0.0-73.0","98F8387E471B4D0781A577E9B6035AE4","32e469c3-89aa-4e1e-b31b-25de3b40a2c1","92e08bb8-2bb0-463c-bc98-cd72da82565c","","null","<div style=""display: flex; justify-content: center; align-items: center;"">
                <img src=""images/causal/causal_series_13/causal_series_13_c.jpg"" style=""width: 300px; height: 300px;"" />
              </div>","null",""
"","","","","","html-button-response","74","262275","0.0-74.0","98F8387E471B4D0781A577E9B6035AE4","32e469c3-89aa-4e1e-b31b-25de3b40a2c1","92e08bb8-2bb0-463c-bc98-cd72da82565c","","1046","
    <div style=""display: flex; justify-content: center; align-items: center;"">
      <img src=""images/blue_deck_1.png"" style=""width: 300px; height: 300px; margin-right: 10px;"" />
      <img src=""images/red_deck_2.png"" style=""width: 300px; height: 300px;"" />
    </div>","0","0"
"","","","","","html-keyboard-response","75","265288","0.0-75.0-0.0-0.0","98F8387E471B4D0781A577E9B6035AE4","32e469c3-89aa-4e1e-b31b-25de3b40a2c1","92e08bb8-2bb0-463c-bc98-cd72da82565c","","null","<div style=""display: flex; justify-content: center; align-items: center;"">
                <img src=""images/causal/causal_series_13/causal_series_13_d.jpg"" style=""width: 300px; height: 300px;"" />
              </div>","null",""
"","","","","","html-keyboard-response","76","268302","0.0-76.0","98F8387E471B4D0781A577E9B6035AE4","32e469c3-89aa-4e1e-b31b-25de3b40a2c1","92e08bb8-2bb0-463c-bc98-cd72da82565c","","null","<div style=""display: flex; justify-content: center; align-items: center;"">
                <img src=""images/other/blank.jpg"" style=""width: 300px; height: 300px;"" />
              </div>","null",""
"","","","","","html-keyboard-response","77","271305","0.0-77.0","98F8387E471B4D0781A577E9B6035AE4","32e469c3-89aa-4e1e-b31b-25de3b40a2c1","92e08bb8-2bb0-463c-bc98-cd72da82565c","","null","<div style=""display: flex; justify-content: center; align-items: center;"">
                <img src=""images/causal/causal_series_15/causal_series_15_a.jpg"" style=""width: 300px; height: 300px;"" />
              </div>","null",""
"","","","","","html-keyboard-response","78","274317","0.0-78.0","98F8387E471B4D0781A577E9B6035AE4","32e469c3-89aa-4e1e-b31b-25de3b40a2c1","92e08bb8-2bb0-463c-bc98-cd72da82565c","","null","<div style=""display: flex; justify-content: center; align-items: center;"">
                <img src=""images/causal/causal_series_15/causal_series_15_b.jpg"" style=""width: 300px; height: 300px;"" />
              </div>","null",""
"","","","","","html-keyboard-response","79","277321","0.0-79.0","98F8387E471B4D0781A577E9B6035AE4","32e469c3-89aa-4e1e-b31b-25de3b40a2c1","92e08bb8-2bb0-463c-bc98-cd72da82565c","","null","<div style=""display: flex; justify-content: center; align-items: center;"">
                <img src=""images/causal/causal_series_15/causal_series_15_c.jpg"" style=""width: 300px; height: 300px;"" />
              </div>","null",""
"","","","","","html-button-response","80","278268","0.0-80.0","98F8387E471B4D0781A577E9B6035AE4","32e469c3-89aa-4e1e-b31b-25de3b40a2c1","92e08bb8-2bb0-463c-bc98-cd72da82565c","","946","
    <div style=""display: flex; justify-content: center; align-items: center;"">
      <img src=""images/blue_deck_1.png"" style=""width: 300px; height: 300px; margin-right: 10px;"" />
      <img src=""images/red_deck_2.png"" style=""width: 300px; height: 300px;"" />
    </div>","0","0"
"","","","","","html-keyboard-response","81","281283","0.0-81.0-0.0-0.0","98F8387E471B4D0781A577E9B6035AE4","32e469c3-89aa-4e1e-b31b-25de3b40a2c1","92e08bb8-2bb0-463c-bc98-cd72da82565c","","null","<div style=""display: flex; justify-content: center; align-items: center;"">
                <img src=""images/causal/causal_series_15/causal_series_15_d.jpg"" style=""width: 300px; height: 300px;"" />
              </div>","null",""
"","","","","","html-keyboard-response","82","284300","0.0-82.0","98F8387E471B4D0781A577E9B6035AE4","32e469c3-89aa-4e1e-b31b-25de3b40a2c1","92e08bb8-2bb0-463c-bc98-cd72da82565c","","null","<div style=""display: flex; justify-content: center; align-items: center;"">
                <img src=""images/other/blank.jpg"" style=""width: 300px; height: 300px;"" />
              </div>","null",""
"","","","","","html-keyboard-response","83","287312","0.0-83.0","98F8387E471B4D0781A577E9B6035AE4","32e469c3-89aa-4e1e-b31b-25de3b40a2c1","92e08bb8-2bb0-463c-bc98-cd72da82565c","","null","<div style=""display: flex; justify-content: center; align-items: center;"">
                <img src=""images/causal/causal_series_6/causal_series_6_a.jpg"" style=""width: 300px; height: 300px;"" />
              </div>","null",""
"","","","","","html-keyboard-response","84","290317","0.0-84.0","98F8387E471B4D0781A577E9B6035AE4","32e469c3-89aa-4e1e-b31b-25de3b40a2c1","92e08bb8-2bb0-463c-bc98-cd72da82565c","","null","<div style=""display: flex; justify-content: center; align-items: center;"">
                <img src=""images/causal/causal_series_6/causal_series_6_b.jpg"" style=""width: 300px; height: 300px;"" />
              </div>","null",""
"","","","","","html-keyboard-response","85","293323","0.0-85.0","98F8387E471B4D0781A577E9B6035AE4","32e469c3-89aa-4e1e-b31b-25de3b40a2c1","92e08bb8-2bb0-463c-bc98-cd72da82565c","","null","<div style=""display: flex; justify-content: center; align-items: center;"">
                <img src=""images/causal/causal_series_6/causal_series_6_c.jpg"" style=""width: 300px; height: 300px;"" />
              </div>","null",""
"","","","","","html-button-response","86","295139","0.0-86.0","98F8387E471B4D0781A577E9B6035AE4","32e469c3-89aa-4e1e-b31b-25de3b40a2c1","92e08bb8-2bb0-463c-bc98-cd72da82565c","","1815","
    <div style=""display: flex; justify-content: center; align-items: center;"">
      <img src=""images/blue_deck_1.png"" style=""width: 300px; height: 300px; margin-right: 10px;"" />
      <img src=""images/red_deck_2.png"" style=""width: 300px; height: 300px;"" />
    </div>","1","1"
"","","","","","html-keyboard-response","87","298141","0.0-87.0-1.0-0.0","98F8387E471B4D0781A577E9B6035AE4","32e469c3-89aa-4e1e-b31b-25de3b40a2c1","92e08bb8-2bb0-463c-bc98-cd72da82565c","","null","<div style=""display: flex; justify-content: center; align-items: center;"">
                <img src=""images/semantic/semantic_series_5/semantic_series_5_d.jpg"" style=""width: 300px; height: 300px;"" />
              </div>","null",""
"","","","","","html-keyboard-response","88","301145","0.0-88.0","98F8387E471B4D0781A577E9B6035AE4","32e469c3-89aa-4e1e-b31b-25de3b40a2c1","92e08bb8-2bb0-463c-bc98-cd72da82565c","","null","<div style=""display: flex; justify-content: center; align-items: center;"">
                <img src=""images/other/blank.jpg"" style=""width: 300px; height: 300px;"" />
              </div>","null",""
"","","","","","html-keyboard-response","89","304150","0.0-89.0","98F8387E471B4D0781A577E9B6035AE4","32e469c3-89aa-4e1e-b31b-25de3b40a2c1","92e08bb8-2bb0-463c-bc98-cd72da82565c","","null","<div style=""display: flex; justify-content: center; align-items: center;"">
                <img src=""images/causal/causal_series_14/causal_series_14_a.jpg"" style=""width: 300px; height: 300px;"" />
              </div>","null",""
"","","","","","html-keyboard-response","90","307165","0.0-90.0","98F8387E471B4D0781A577E9B6035AE4","32e469c3-89aa-4e1e-b31b-25de3b40a2c1","92e08bb8-2bb0-463c-bc98-cd72da82565c","","null","<div style=""display: flex; justify-content: center; align-items: center;"">
                <img src=""images/causal/causal_series_14/causal_series_14_b.jpg"" style=""width: 300px; height: 300px;"" />
              </div>","null",""
"","","","","","html-keyboard-response","91","310173","0.0-91.0","98F8387E471B4D0781A577E9B6035AE4","32e469c3-89aa-4e1e-b31b-25de3b40a2c1","92e08bb8-2bb0-463c-bc98-cd72da82565c","","null","<div style=""display: flex; justify-content: center; align-items: center;"">
                <img src=""images/causal/causal_series_14/causal_series_14_c.jpg"" style=""width: 300px; height: 300px;"" />
              </div>","null",""
"","","","","","html-button-response","92","311256","0.0-92.0","98F8387E471B4D0781A577E9B6035AE4","32e469c3-89aa-4e1e-b31b-25de3b40a2c1","92e08bb8-2bb0-463c-bc98-cd72da82565c","","1081","
    <div style=""display: flex; justify-content: center; align-items: center;"">
      <img src=""images/blue_deck_1.png"" style=""width: 300px; height: 300px; margin-right: 10px;"" />
      <img src=""images/red_deck_2.png"" style=""width: 300px; height: 300px;"" />
    </div>","0","0"
"","","","","","html-keyboard-response","93","314268","0.0-93.0-0.0-0.0","98F8387E471B4D0781A577E9B6035AE4","32e469c3-89aa-4e1e-b31b-25de3b40a2c1","92e08bb8-2bb0-463c-bc98-cd72da82565c","","null","<div style=""display: flex; justify-content: center; align-items: center;"">
                <img src=""images/causal/causal_series_14/causal_series_14_d.jpg"" style=""width: 300px; height: 300px;"" />
              </div>","null",""
"","","","","","html-keyboard-response","94","317271","0.0-94.0","98F8387E471B4D0781A577E9B6035AE4","32e469c3-89aa-4e1e-b31b-25de3b40a2c1","92e08bb8-2bb0-463c-bc98-cd72da82565c","","null","<div style=""display: flex; justify-content: center; align-items: center;"">
                <img src=""images/other/blank.jpg"" style=""width: 300px; height: 300px;"" />
              </div>","null",""
"","","","","","html-keyboard-response","95","320275","0.0-95.0","98F8387E471B4D0781A577E9B6035AE4","32e469c3-89aa-4e1e-b31b-25de3b40a2c1","92e08bb8-2bb0-463c-bc98-cd72da82565c","","null","<div style=""display: flex; justify-content: center; align-items: center;"">
                <img src=""images/causal/causal_series_18/causal_series_18_a.jpg"" style=""width: 300px; height: 300px;"" />
              </div>","null",""
"","","","","","html-keyboard-response","96","323278","0.0-96.0","98F8387E471B4D0781A577E9B6035AE4","32e469c3-89aa-4e1e-b31b-25de3b40a2c1","92e08bb8-2bb0-463c-bc98-cd72da82565c","","null","<div style=""display: flex; justify-content: center; align-items: center;"">
                <img src=""images/causal/causal_series_18/causal_series_18_b.jpg"" style=""width: 300px; height: 300px;"" />
              </div>","null",""
"","","","","","html-keyboard-response","97","326294","0.0-97.0","98F8387E471B4D0781A577E9B6035AE4","32e469c3-89aa-4e1e-b31b-25de3b40a2c1","92e08bb8-2bb0-463c-bc98-cd72da82565c","","null","<div style=""display: flex; justify-content: center; align-items: center;"">
                <img src=""images/causal/causal_series_18/causal_series_18_c.jpg"" style=""width: 300px; height: 300px;"" />
              </div>","null",""
"","","","","","html-button-response","98","327261","0.0-98.0","98F8387E471B4D0781A577E9B6035AE4","32e469c3-89aa-4e1e-b31b-25de3b40a2c1","92e08bb8-2bb0-463c-bc98-cd72da82565c","","965","
    <div style=""display: flex; justify-content: center; align-items: center;"">
      <img src=""images/blue_deck_1.png"" style=""width: 300px; height: 300px; margin-right: 10px;"" />
      <img src=""images/red_deck_2.png"" style=""width: 300px; height: 300px;"" />
    </div>","1","1"
"","","","","","html-keyboard-response","99","330277","0.0-99.0-1.0-0.0","98F8387E471B4D0781A577E9B6035AE4","32e469c3-89aa-4e1e-b31b-25de3b40a2c1","92e08bb8-2bb0-463c-bc98-cd72da82565c","","null","<div style=""display: flex; justify-content: center; align-items: center;"">
                <img src=""images/semantic/semantic_series_17/semantic_series_17_d.jpg"" style=""width: 300px; height: 300px;"" />
              </div>","null",""
"","","","","","html-keyboard-response","100","333282","0.0-100.0","98F8387E471B4D0781A577E9B6035AE4","32e469c3-89aa-4e1e-b31b-25de3b40a2c1","92e08bb8-2bb0-463c-bc98-cd72da82565c","","null","<div style=""display: flex; justify-content: center; align-items: center;"">
                <img src=""images/other/blank.jpg"" style=""width: 300px; height: 300px;"" />
              </div>","null",""
"","","","","","html-keyboard-response","101","336291","0.0-101.0","98F8387E471B4D0781A577E9B6035AE4","32e469c3-89aa-4e1e-b31b-25de3b40a2c1","92e08bb8-2bb0-463c-bc98-cd72da82565c","","null","<div style=""display: flex; justify-content: center; align-items: center;"">
                <img src=""images/causal/causal_series_12/causal_series_12_a.jpg"" style=""width: 300px; height: 300px;"" />
              </div>","null",""
"","","","","","html-keyboard-response","102","339294","0.0-102.0","98F8387E471B4D0781A577E9B6035AE4","32e469c3-89aa-4e1e-b31b-25de3b40a2c1","92e08bb8-2bb0-463c-bc98-cd72da82565c","","null","<div style=""display: flex; justify-content: center; align-items: center;"">
                <img src=""images/causal/causal_series_12/causal_series_12_b.jpg"" style=""width: 300px; height: 300px;"" />
              </div>","null",""
"","","","","","html-keyboard-response","103","342302","0.0-103.0","98F8387E471B4D0781A577E9B6035AE4","32e469c3-89aa-4e1e-b31b-25de3b40a2c1","92e08bb8-2bb0-463c-bc98-cd72da82565c","","null","<div style=""display: flex; justify-content: center; align-items: center;"">
                <img src=""images/causal/causal_series_12/causal_series_12_c.jpg"" style=""width: 300px; height: 300px;"" />
              </div>","null",""
"","","","","","html-button-response","104","343315","0.0-104.0","98F8387E471B4D0781A577E9B6035AE4","32e469c3-89aa-4e1e-b31b-25de3b40a2c1","92e08bb8-2bb0-463c-bc98-cd72da82565c","","1012","
    <div style=""display: flex; justify-content: center; align-items: center;"">
      <img src=""images/blue_deck_1.png"" style=""width: 300px; height: 300px; margin-right: 10px;"" />
      <img src=""images/red_deck_2.png"" style=""width: 300px; height: 300px;"" />
    </div>","1","1"
"","","","","","html-keyboard-response","105","346327","0.0-105.0-1.0-0.0","98F8387E471B4D0781A577E9B6035AE4","32e469c3-89aa-4e1e-b31b-25de3b40a2c1","92e08bb8-2bb0-463c-bc98-cd72da82565c","","null","<div style=""display: flex; justify-content: center; align-items: center;"">
                <img src=""images/semantic/semantic_series_11/semantic_series_11_d.jpg"" style=""width: 300px; height: 300px;"" />
              </div>","null",""
"","","","","","html-keyboard-response","106","349332","0.0-106.0","98F8387E471B4D0781A577E9B6035AE4","32e469c3-89aa-4e1e-b31b-25de3b40a2c1","92e08bb8-2bb0-463c-bc98-cd72da82565c","","null","<div style=""display: flex; justify-content: center; align-items: center;"">
                <img src=""images/other/blank.jpg"" style=""width: 300px; height: 300px;"" />
              </div>","null",""
"","","","","","html-keyboard-response","107","352342","0.0-107.0","98F8387E471B4D0781A577E9B6035AE4","32e469c3-89aa-4e1e-b31b-25de3b40a2c1","92e08bb8-2bb0-463c-bc98-cd72da82565c","","null","<div style=""display: flex; justify-content: center; align-items: center;"">
                <img src=""images/causal/causal_series_10/causal_series_10_a.jpg"" style=""width: 300px; height: 300px;"" />
              </div>","null",""
"","","","","","html-keyboard-response","108","355346","0.0-108.0","98F8387E471B4D0781A577E9B6035AE4","32e469c3-89aa-4e1e-b31b-25de3b40a2c1","92e08bb8-2bb0-463c-bc98-cd72da82565c","","null","<div style=""display: flex; justify-content: center; align-items: center;"">
                <img src=""images/causal/causal_series_10/causal_series_10_b.jpg"" style=""width: 300px; height: 300px;"" />
              </div>","null",""
"","","","","","html-keyboard-response","109","358358","0.0-109.0","98F8387E471B4D0781A577E9B6035AE4","32e469c3-89aa-4e1e-b31b-25de3b40a2c1","92e08bb8-2bb0-463c-bc98-cd72da82565c","","null","<div style=""display: flex; justify-content: center; align-items: center;"">
                <img src=""images/causal/causal_series_10/causal_series_10_c.jpg"" style=""width: 300px; height: 300px;"" />
              </div>","null",""
"","","","","","html-button-response","110","359898","0.0-110.0","98F8387E471B4D0781A577E9B6035AE4","32e469c3-89aa-4e1e-b31b-25de3b40a2c1","92e08bb8-2bb0-463c-bc98-cd72da82565c","","1538","
    <div style=""display: flex; justify-content: center; align-items: center;"">
      <img src=""images/blue_deck_1.png"" style=""width: 300px; height: 300px; margin-right: 10px;"" />
      <img src=""images/red_deck_2.png"" style=""width: 300px; height: 300px;"" />
    </div>","0","0"
"","","","","","html-keyboard-response","111","362905","0.0-111.0-0.0-0.0","98F8387E471B4D0781A577E9B6035AE4","32e469c3-89aa-4e1e-b31b-25de3b40a2c1","92e08bb8-2bb0-463c-bc98-cd72da82565c","","null","<div style=""display: flex; justify-content: center; align-items: center;"">
                <img src=""images/causal/causal_series_10/causal_series_10_d.jpg"" style=""width: 300px; height: 300px;"" />
              </div>","null",""
"","","","","","html-keyboard-response","112","365910","0.0-112.0","98F8387E471B4D0781A577E9B6035AE4","32e469c3-89aa-4e1e-b31b-25de3b40a2c1","92e08bb8-2bb0-463c-bc98-cd72da82565c","","null","<div style=""display: flex; justify-content: center; align-items: center;"">
                <img src=""images/other/blank.jpg"" style=""width: 300px; height: 300px;"" />
              </div>","null",""
"","","","","","survey-text","113","388859","0.0-113.0","98F8387E471B4D0781A577E9B6035AE4","32e469c3-89aa-4e1e-b31b-25de3b40a2c1","92e08bb8-2bb0-463c-bc98-cd72da82565c","","22942","","{""Q0"":""one is red while the other is blue""}",""
"","","","","","survey-text","114","407139","0.0-114.0","98F8387E471B4D0781A577E9B6035AE4","32e469c3-89aa-4e1e-b31b-25de3b40a2c1","92e08bb8-2bb0-463c-bc98-cd72da82565c","","18274","","{""Q0"":""Red, I don't know why""}",""
"","","","","","html-button-response","115","422253","0.0-115.0","98F8387E471B4D0781A577E9B6035AE4","32e469c3-89aa-4e1e-b31b-25de3b40a2c1","92e08bb8-2bb0-463c-bc98-cd72da82565c","","15112","Which color deck does the fourth image continue the story from the series?","0",""
"","","","","","html-button-response","116","428763","0.0-116.0","98F8387E471B4D0781A577E9B6035AE4","32e469c3-89aa-4e1e-b31b-25de3b40a2c1","92e08bb8-2bb0-463c-bc98-cd72da82565c","","6509","Which color deck does the fourth image not follow the story from the series?","1",""
"","","","","","survey-text","117","435658","0.0-117.0","98F8387E471B4D0781A577E9B6035AE4","32e469c3-89aa-4e1e-b31b-25de3b40a2c1","92e08bb8-2bb0-463c-bc98-cd72da82565c","","6888","","{""Q0"":""MALE"",""Q1"":""29""}",""
"","","","","","instructions","118","438605","0.0-118.0","98F8387E471B4D0781A577E9B6035AE4","32e469c3-89aa-4e1e-b31b-25de3b40a2c1","92e08bb8-2bb0-463c-bc98-cd72da82565c","[{""page_index"":0,""viewing_time"":2946}]","2946","","",""
