"success","timeout","failed_images","failed_audio","failed_video","trial_type","trial_index","time_elapsed","internal_node_id","view_history","rt","stimulus","response","choice","trial_name"
"true","false","[]","[]","[]","preload","0","21153","0.0-0.0","","","","","",""
"","","","","","instructions","1","30148","0.0-1.0","[{""page_index"":0,""viewing_time"":8991}]","8991","","","",""
"","","","","","instructions","2","42589","0.0-2.0","[{""page_index"":0,""viewing_time"":12439}]","12440","","","",""
"true","","","","","fullscreen","3","46677","0.0-3.0","","3069","","","",""
"","","","","","instructions","4","92004","0.0-4.0","[{""page_index"":0,""viewing_time"":45326}]","45327","","","",""
"","","","","","html-button-response","5","98096","0.0-5.0","","6087","
    <div style=""display: flex; justify-content: center; align-items: center; flex-direction: column;"">
      <div style=""display: flex; justify-content: center; align-items: center;"">
        <img src=""images/instructions_2/1.png"" style=""width: 300px; height: 300px; margin-right: 10px;"" />
        <img src=""images/instructions_2/2.png"" style=""width: 300px; height: 300px;"" />
      </div>
      <p>Does event 1 take place before event 2?</p>
    </div>","0","0",""
"","","","","","html-button-response","6","101691","0.0-6.0","","3593","
    <div style=""display: flex; justify-content: center; align-items: center; flex-direction: column;"">
      <div style=""display: flex; justify-content: center; align-items: center;"">
        <img src=""images/instructions_2/3.png"" style=""width: 300px; height: 300px; margin-right: 10px;"" />
        <img src=""images/instructions_2/4.png"" style=""width: 300px; height: 300px;"" />
      </div>
      <p>YES, event 1 does take place before event 2.</p>
    </div>","0","0",""
"","","","","","html-button-response","7","130785","0.0-7.0","","29091","
    <div style=""display: flex; justify-content: center; align-items: center; flex-direction: column;"">
      <div style=""display: flex; justify-content: center; align-items: center;"">
        <img src=""images/instructions_2/5.png"" style=""width: 300px; height: 300px; margin-right: 10px;"" />
        <img src=""images/instructions_2/6.png"" style=""width: 300px; height: 300px;"" />
      </div>
      <p>Does event 1 take place before event 2?</p>
    </div>","1","1",""
"","","","","","html-button-response","8","135183","0.0-8.0","","4394","
    <div style=""display: flex; justify-content: center; align-items: center; flex-direction: column;"">
      <div style=""display: flex; justify-content: center; align-items: center;"">
        <img src=""images/instructions_2/7.png"" style=""width: 300px; height: 300px; margin-right: 10px;"" />
        <img src=""images/instructions_2/8.png"" style=""width: 300px; height: 300px;"" />
      </div>
      <p>NO, event 1 does not take place before event 2.</p>
    </div>","0","0",""
"","","","","","instructions","9","137888","0.0-9.0","[{""page_index"":0,""viewing_time"":2702}]","2703","","","",""
"","","","","","html-button-response","10","151584","0.0-10.0","","13693","
    <div style=""display: flex; justify-content: center; align-items: center; flex-direction: column;"">
      <div style=""display: flex; justify-content: center; align-items: center;"">
        <img src=""images/schematic/schematic_1/1.png"" style=""width: 300px; height: 300px; margin-right: 10px;"" />
        <img src=""images/schematic/schematic_1/2.png"" style=""width: 300px; height: 300px;"" />
      </div>
      <p>Does event 1 take place before event 2?</p>
    </div>","0","0","schematic_1"
"","","","","","html-button-response","11","154843","0.0-11.0","","3254","
    <div style=""display: flex; justify-content: center; align-items: center; flex-direction: column;"">
      <div style=""display: flex; justify-content: center; align-items: center;"">
        <img src=""images/schematic/schematic_3/1.png"" style=""width: 300px; height: 300px; margin-right: 10px;"" />
        <img src=""images/schematic/schematic_3/2.png"" style=""width: 300px; height: 300px;"" />
      </div>
      <p>Does event 1 take place before event 2?</p>
    </div>","0","0","schematic_3"
"","","","","","html-button-response","12","213578","0.0-12.0","","58732","
    <div style=""display: flex; justify-content: center; align-items: center; flex-direction: column;"">
      <div style=""display: flex; justify-content: center; align-items: center;"">
        <img src=""images/schematic/schematic_5/1.png"" style=""width: 300px; height: 300px; margin-right: 10px;"" />
        <img src=""images/schematic/schematic_5/2.png"" style=""width: 300px; height: 300px;"" />
      </div>
      <p>Does event 1 take place before event 2?</p>
    </div>","0","0","schematic_5"
"","","","","","html-button-response","13","226089","0.0-13.0","","12508","
    <div style=""display: flex; justify-content: center; align-items: center; flex-direction: column;"">
      <div style=""display: flex; justify-content: center; align-items: center;"">
        <img src=""images/schematic/schematic_2/1.png"" style=""width: 300px; height: 300px; margin-right: 10px;"" />
        <img src=""images/schematic/schematic_2/2.png"" style=""width: 300px; height: 300px;"" />
      </div>
      <p>Does event 1 take place before event 2?</p>
    </div>","1","1","schematic_2"
"","","","","","html-button-response","14","243963","0.0-14.0","","17871","
    <div style=""display: flex; justify-content: center; align-items: center; flex-direction: column;"">
      <div style=""display: flex; justify-content: center; align-items: center;"">
        <img src=""images/semantic/semantic_8/1.png"" style=""width: 300px; height: 300px; margin-right: 10px;"" />
        <img src=""images/semantic/semantic_8/2.png"" style=""width: 300px; height: 300px;"" />
      </div>
      <p>Does event 1 take place before event 2?</p>
    </div>","0","0","semantic_8"
"","","","","","html-button-response","15","247578","0.0-15.0","","3611","
    <div style=""display: flex; justify-content: center; align-items: center; flex-direction: column;"">
      <div style=""display: flex; justify-content: center; align-items: center;"">
        <img src=""images/causal/causal_5/1.png"" style=""width: 300px; height: 300px; margin-right: 10px;"" />
        <img src=""images/causal/causal_5/2.png"" style=""width: 300px; height: 300px;"" />
      </div>
      <p>Does event 1 take place before event 2?</p>
    </div>","0","0","causal_5"
"","","","","","html-button-response","16","252645","0.0-16.0","","5065","
    <div style=""display: flex; justify-content: center; align-items: center; flex-direction: column;"">
      <div style=""display: flex; justify-content: center; align-items: center;"">
        <img src=""images/causal/causal_8/1.png"" style=""width: 300px; height: 300px; margin-right: 10px;"" />
        <img src=""images/causal/causal_8/2.png"" style=""width: 300px; height: 300px;"" />
      </div>
      <p>Does event 1 take place before event 2?</p>
    </div>","0","0","causal_8"
"","","","","","html-button-response","17","258621","0.0-17.0","","5974","
    <div style=""display: flex; justify-content: center; align-items: center; flex-direction: column;"">
      <div style=""display: flex; justify-content: center; align-items: center;"">
        <img src=""images/causal/causal_1/1.png"" style=""width: 300px; height: 300px; margin-right: 10px;"" />
        <img src=""images/causal/causal_1/2.png"" style=""width: 300px; height: 300px;"" />
      </div>
      <p>Does event 1 take place before event 2?</p>
    </div>","0","0","causal_1"
"","","","","","html-button-response","18","261838","0.0-18.0","","3213","
    <div style=""display: flex; justify-content: center; align-items: center; flex-direction: column;"">
      <div style=""display: flex; justify-content: center; align-items: center;"">
        <img src=""images/causal/causal_2/1.png"" style=""width: 300px; height: 300px; margin-right: 10px;"" />
        <img src=""images/causal/causal_2/2.png"" style=""width: 300px; height: 300px;"" />
      </div>
      <p>Does event 1 take place before event 2?</p>
    </div>","0","0","causal_2"
"","","","","","html-button-response","19","280710","0.0-19.0","","18870","
    <div style=""display: flex; justify-content: center; align-items: center; flex-direction: column;"">
      <div style=""display: flex; justify-content: center; align-items: center;"">
        <img src=""images/causal/causal_6/1.png"" style=""width: 300px; height: 300px; margin-right: 10px;"" />
        <img src=""images/causal/causal_6/2.png"" style=""width: 300px; height: 300px;"" />
      </div>
      <p>Does event 1 take place before event 2?</p>
    </div>","1","1","causal_6"
"","","","","","html-button-response","20","290460","0.0-20.0","","9746","
    <div style=""display: flex; justify-content: center; align-items: center; flex-direction: column;"">
      <div style=""display: flex; justify-content: center; align-items: center;"">
        <img src=""images/semantic/semantic_3/1.png"" style=""width: 300px; height: 300px; margin-right: 10px;"" />
        <img src=""images/semantic/semantic_3/2.png"" style=""width: 300px; height: 300px;"" />
      </div>
      <p>Does event 1 take place before event 2?</p>
    </div>","0","0","semantic_3"
"","","","","","html-button-response","21","295783","0.0-21.0","","5320","
    <div style=""display: flex; justify-content: center; align-items: center; flex-direction: column;"">
      <div style=""display: flex; justify-content: center; align-items: center;"">
        <img src=""images/causal/causal_7/1.png"" style=""width: 300px; height: 300px; margin-right: 10px;"" />
        <img src=""images/causal/causal_7/2.png"" style=""width: 300px; height: 300px;"" />
      </div>
      <p>Does event 1 take place before event 2?</p>
    </div>","0","0","causal_7"
"","","","","","html-button-response","22","299312","0.0-22.0","","3526","
    <div style=""display: flex; justify-content: center; align-items: center; flex-direction: column;"">
      <div style=""display: flex; justify-content: center; align-items: center;"">
        <img src=""images/semantic/semantic_5/1.png"" style=""width: 300px; height: 300px; margin-right: 10px;"" />
        <img src=""images/semantic/semantic_5/2.png"" style=""width: 300px; height: 300px;"" />
      </div>
      <p>Does event 1 take place before event 2?</p>
    </div>","0","0","semantic_5"
"","","","","","html-button-response","23","303842","0.0-23.0","","4528","
    <div style=""display: flex; justify-content: center; align-items: center; flex-direction: column;"">
      <div style=""display: flex; justify-content: center; align-items: center;"">
        <img src=""images/semantic/semantic_2/1.png"" style=""width: 300px; height: 300px; margin-right: 10px;"" />
        <img src=""images/semantic/semantic_2/2.png"" style=""width: 300px; height: 300px;"" />
      </div>
      <p>Does event 1 take place before event 2?</p>
    </div>","0","0","semantic_2"
"","","","","","html-button-response","24","306612","0.0-24.0","","2767","
    <div style=""display: flex; justify-content: center; align-items: center; flex-direction: column;"">
      <div style=""display: flex; justify-content: center; align-items: center;"">
        <img src=""images/schematic/schematic_6/1.png"" style=""width: 300px; height: 300px; margin-right: 10px;"" />
        <img src=""images/schematic/schematic_6/2.png"" style=""width: 300px; height: 300px;"" />
      </div>
      <p>Does event 1 take place before event 2?</p>
    </div>","0","0","schematic_6"
"","","","","","html-button-response","25","311303","0.0-25.0","","4688","
    <div style=""display: flex; justify-content: center; align-items: center; flex-direction: column;"">
      <div style=""display: flex; justify-content: center; align-items: center;"">
        <img src=""images/causal/causal_4/1.png"" style=""width: 300px; height: 300px; margin-right: 10px;"" />
        <img src=""images/causal/causal_4/2.png"" style=""width: 300px; height: 300px;"" />
      </div>
      <p>Does event 1 take place before event 2?</p>
    </div>","0","0","causal_4"
"","","","","","html-button-response","26","317390","0.0-26.0","","6084","
    <div style=""display: flex; justify-content: center; align-items: center; flex-direction: column;"">
      <div style=""display: flex; justify-content: center; align-items: center;"">
        <img src=""images/semantic/semantic_4/1.png"" style=""width: 300px; height: 300px; margin-right: 10px;"" />
        <img src=""images/semantic/semantic_4/2.png"" style=""width: 300px; height: 300px;"" />
      </div>
      <p>Does event 1 take place before event 2?</p>
    </div>","0","0","semantic_4"
"","","","","","html-button-response","27","321744","0.0-27.0","","4351","
    <div style=""display: flex; justify-content: center; align-items: center; flex-direction: column;"">
      <div style=""display: flex; justify-content: center; align-items: center;"">
        <img src=""images/semantic/semantic_7/1.png"" style=""width: 300px; height: 300px; margin-right: 10px;"" />
        <img src=""images/semantic/semantic_7/2.png"" style=""width: 300px; height: 300px;"" />
      </div>
      <p>Does event 1 take place before event 2?</p>
    </div>","0","0","semantic_7"
"","","","","","html-button-response","28","327405","0.0-28.0","","5659","
    <div style=""display: flex; justify-content: center; align-items: center; flex-direction: column;"">
      <div style=""display: flex; justify-content: center; align-items: center;"">
        <img src=""images/schematic/schematic_4/1.png"" style=""width: 300px; height: 300px; margin-right: 10px;"" />
        <img src=""images/schematic/schematic_4/2.png"" style=""width: 300px; height: 300px;"" />
      </div>
      <p>Does event 1 take place before event 2?</p>
    </div>","0","0","schematic_4"
"","","","","","html-button-response","29","332209","0.0-29.0","","4801","
    <div style=""display: flex; justify-content: center; align-items: center; flex-direction: column;"">
      <div style=""display: flex; justify-content: center; align-items: center;"">
        <img src=""images/semantic/semantic_1/1.png"" style=""width: 300px; height: 300px; margin-right: 10px;"" />
        <img src=""images/semantic/semantic_1/2.png"" style=""width: 300px; height: 300px;"" />
      </div>
      <p>Does event 1 take place before event 2?</p>
    </div>","0","0","semantic_1"
"","","","","","html-button-response","30","334911","0.0-30.0","","2699","
    <div style=""display: flex; justify-content: center; align-items: center; flex-direction: column;"">
      <div style=""display: flex; justify-content: center; align-items: center;"">
        <img src=""images/schematic/schematic_8/1.png"" style=""width: 300px; height: 300px; margin-right: 10px;"" />
        <img src=""images/schematic/schematic_8/2.png"" style=""width: 300px; height: 300px;"" />
      </div>
      <p>Does event 1 take place before event 2?</p>
    </div>","0","0","schematic_8"
"","","","","","html-button-response","31","337912","0.0-31.0","","2998","
    <div style=""display: flex; justify-content: center; align-items: center; flex-direction: column;"">
      <div style=""display: flex; justify-content: center; align-items: center;"">
        <img src=""images/schematic/schematic_7/1.png"" style=""width: 300px; height: 300px; margin-right: 10px;"" />
        <img src=""images/schematic/schematic_7/2.png"" style=""width: 300px; height: 300px;"" />
      </div>
      <p>Does event 1 take place before event 2?</p>
    </div>","0","0","schematic_7"
"","","","","","html-button-response","32","344917","0.0-32.0","","7002","
    <div style=""display: flex; justify-content: center; align-items: center; flex-direction: column;"">
      <div style=""display: flex; justify-content: center; align-items: center;"">
        <img src=""images/semantic/semantic_6/1.png"" style=""width: 300px; height: 300px; margin-right: 10px;"" />
        <img src=""images/semantic/semantic_6/2.png"" style=""width: 300px; height: 300px;"" />
      </div>
      <p>Does event 1 take place before event 2?</p>
    </div>","0","0","semantic_6"
"","","","","","html-button-response","33","348449","0.0-33.0","","3530","
    <div style=""display: flex; justify-content: center; align-items: center; flex-direction: column;"">
      <div style=""display: flex; justify-content: center; align-items: center;"">
        <img src=""images/causal/causal_3/1.png"" style=""width: 300px; height: 300px; margin-right: 10px;"" />
        <img src=""images/causal/causal_3/2.png"" style=""width: 300px; height: 300px;"" />
      </div>
      <p>Does event 1 take place before event 2?</p>
    </div>","0","0","causal_3"
"","","","","","survey-text","34","354922","0.0-34.0","","6453","","{""Q0"":""male"",""Q1"":""27""}","",""
"","","","","","instructions","35","362437","0.0-35.0","[{""page_index"":0,""viewing_time"":7512}]","7513","","","",""
"","","","","","survey-text","36","367785","0.0-36.0","","5343","","{""Q0"":""AJFHBG898""}","",""
