"success","timeout","failed_images","failed_audio","failed_video","trial_type","trial_index","time_elapsed","internal_node_id","subject","audio_id","rt","device_id","view_history","stimulus","response","estimated_stimulus_onset"
"true","false","[]","[]","[]","preload","0","16408","0.0-0.0","nk93zbatzvkde78","nk93zbatzvkde78-2024-04-14-17-22-15","","","","","",""
"true","","","","","fullscreen","1","29391","0.0-1.0","nk93zbatzvkde78","nk93zbatzvkde78-2024-04-14-17-22-15","11972","","","","",""
"","","","","","initialize-microphone","2","36379","0.0-2.0","nk93zbatzvkde78","nk93zbatzvkde78-2024-04-14-17-22-15","","55805fbb8229f6c672250052d859d7c207b6b1d405d70b57e448b1066a40c165","","","",""
"","","","","","instructions","3","41563","0.0-3.0","nk93zbatzvkde78","nk93zbatzvkde78-2024-04-14-17-22-15","5184","","[{""page_index"":0,""viewing_time"":1240},{""page_index"":1,""viewing_time"":3944}]","","",""
"","","","","","image-button-response","4","46066","0.0-4.0-0.0","nk93zbatzvkde78","nk93zbatzvkde78-2024-04-14-17-22-15","null","","","images/instructions/movie_1.png","null",""
"","","","","","image-button-response","5","48768","0.0-4.0-1.0","nk93zbatzvkde78","nk93zbatzvkde78-2024-04-14-17-22-15","null","","","images/instructions/movie_1.png","null",""
"","","","","","image-button-response","6","50569","0.0-4.0-2.0","nk93zbatzvkde78","nk93zbatzvkde78-2024-04-14-17-22-15","null","","","[]","null",""
"","","","","","image-button-response","7","55071","0.0-4.0-0.1","nk93zbatzvkde78","nk93zbatzvkde78-2024-04-14-17-22-15","null","","","images/instructions/movie_2.png","null",""
"","","","","","image-button-response","8","56416","0.0-4.0-1.1","nk93zbatzvkde78","nk93zbatzvkde78-2024-04-14-17-22-15","1343","","","images/instructions/movie_2.png","0",""
"","","","","","image-button-response","9","58219","0.0-4.0-2.1","nk93zbatzvkde78","nk93zbatzvkde78-2024-04-14-17-22-15","null","","","[]","null",""
"","","","","","image-button-response","10","62721","0.0-4.0-0.2","nk93zbatzvkde78","nk93zbatzvkde78-2024-04-14-17-22-15","null","","","images/instructions/movie_3.png","null",""
"","","","","","image-button-response","11","63686","0.0-4.0-1.2","nk93zbatzvkde78","nk93zbatzvkde78-2024-04-14-17-22-15","964","","","images/instructions/movie_3.png","0",""
"","","","","","image-button-response","12","65488","0.0-4.0-2.2","nk93zbatzvkde78","nk93zbatzvkde78-2024-04-14-17-22-15","null","","","[]","null",""
"","","","","","image-button-response","13","69990","0.0-4.0-0.3","nk93zbatzvkde78","nk93zbatzvkde78-2024-04-14-17-22-15","null","","","images/instructions/movie_4.png","null",""
"","","","","","image-button-response","14","70951","0.0-4.0-1.3","nk93zbatzvkde78","nk93zbatzvkde78-2024-04-14-17-22-15","960","","","images/instructions/movie_4.png","0",""
"","","","","","image-button-response","15","72753","0.0-4.0-2.3","nk93zbatzvkde78","nk93zbatzvkde78-2024-04-14-17-22-15","null","","","[]","null",""
"","","","","","instructions","16","77326","0.0-5.0","nk93zbatzvkde78","nk93zbatzvkde78-2024-04-14-17-22-15","4573","","[{""page_index"":0,""viewing_time"":3713},{""page_index"":1,""viewing_time"":859}]","","",""
"","","","","","html-audio-response","17","97816","0.0-6.0","nk93zbatzvkde78","nk93zbatzvkde78-2024-04-14-17-22-15","2126","","","<span style=""color: red; font-size: 24px""> NOW RECORDING</span>
        <p>Please say out loud the list of the actions you saw. The actions can be said in any order.</p>","GkXfo59ChoEBQveBAULygQRC84EIQoKEd2VibUKHgQRChYECGFOAZwH/////////FUmpZpkq17GDD0JATYCGQ2hyb21lV0GGQ2hyb21lFlSua7+uvdeBAXPFh8xXcKhpE9SDgQKGhkFfT1BVU2Oik09wdXNIZWFkAQEAAIC7AAAAAADhjbWERzuAAJ+BAWJkgSAfQ7Z1Af/////////ngQCjRQqBAACA+4P9PP0vf5VBjKatvqpny39I5cT3YksFCUN1pdOyijm3TmVzIn+jcn2Nzq8iNtgBLB3gzrPENbD4gRKdBa7/nFX+HQds3SvNQPllbGt2mK/gvtrpPVVaj709BG03nM4/pzDcKlo5dqlFXMA3VJkkb+dVzjwFZmxwmekPz9rGI0CV3tvHvPeqtxqO1c9ifg4uIhKexBRoe1urLlEBoG2bsD1/jy378aUz3qOkKdhmXRFIkWCaS/N7Ldx03rsG6ai4jkVHzrqH2vtWMxbEXC60Prou/9vM6E+Io0xZsYwZQo8BaqQbk+mLr3NNV6dLqYAAAAAAAAAIxR7oX8PuZAF4ZO3SRah9th9Tk5z8BxQTi1Jfomw/WO6Qat6V9m3g0TjvG+OaqE5ag1jVzZekrODew9NnNuZa/JliQjz+sV7pi4vzOI7WdcfFkXY3Cfmz0SM5LaSRuZeiF6KlHbTmkGJ+FVJeDafDbB6ATYPwI1GgXenq6Bm/nKUPY9kEwj8Q9XgbiqW1FDWGgtVCRMBA75KfkHNwN9+e56TBnubqGWPxgqEyivtgM/oOzBMHq9jZuy/fFwk+FTfg+OTOmvRn70Ao+WOANQM8HhhsjWGmvW40ioQCa5SX80IVvEZ7Orvl0YKO+u20qaeoqyzcehrXEONkfeks6J+hL3WS2+cxBnkcT8QDjdt13admZTt/W5+Sk5qXvz0WyJdQJJ5vX76L7QgbMEXWrRbJSyqDfHDcDxP86Eq2FojksWS296TTZGDvoT9CZ/YyMHuww6J+Ut0QAfj/khbI0bvmWteUCi/8z7GZdi+zNInGQfi0Yye6UMT5h1YEYWBc9J+W8D8CEL4iGqxh+GYsDszIlrU2dX63apNWqjeDknNoC3Y8n/l/R3TqCcCRp30Euh/wxtwttT3BJPsKsV3ld6C+ywHFzQDZnIhsZNtUhix5JxMHlDj//ANAqB21hSsrs1ihFTcN/wWp1NM+JlO0iwUgJnXAk5xeGR0RC2bFDHzT9tmLo3s8IuFpr5J+mVWRusBcZj7YNy9Tq7MhEO30aZw8jTAv/L19M8fiVMWZ1SBCKrTGTlAuu39wwq4TWkkrJonyNoHZiF73DbWi7oLyfn4/lxlK6efW6JE3YD2VjSsYGmqgYBDlFp73cVMe1B6FS1KzeAGW+sG+d0V3HcD1G/VF+XszqKmy+XuZCeSramB2FEN/XFuuCltkk3pUbmzXoztOYjcwmZuGZMQLbehQxvbkvJ+OFcWLbJ+mh2Oo4FVe3XykNDXqA/ww+X1KtQavdPwNR8QwXiy0DJg/uKqvSDzl7qohnEBqKzFu9tLbTyBR+hMnv8MAYMcYRhgGsWCFdIbbUSrSIhmiCJ2lNYF6lyiPbWGwoZEq6be/TNNHHQA99GoR3AdXd6oDZ7pvymYDAZa/Dcmbv3XRnHamuQqrUsSj848N2E57Vd7Y7CO/5xB+sJGz39vrSJiVnEMs9bII2KCR0QSz23BcDeOa5Mm2q39gHxd3sAvSXCYKuYZhNKyc+BePXXd/2Cm3xb8wh++lCAmvB7ljUaPMu8d4SmQ2m9ZKzl4JMfrGJWh5KOLxx/Ja+bhSIuTu9XIWIkE+Joc1AzFDmJ/kR7WL3/ebhCCMAI6rlHAM6NCy89BZ6qYx81QnOlcIBazl/sBi49YNFrlH3pgAYwVoKdVY9V9OuhHi/6CQjT5Uy95/DNDT/y5n4gyuP2qjQ2CBADuA+4P9Cf4HYGrgEZmKUZps4IovJdtVaAN3oyJ7C6jfAd7zFhlOFo27sKQ7d7nFN7fMBY7GSwv6PC9y+56MX9YJ7WMq/P3M+JBV/ja+q5MfD8bwe3Y4PejQesGuRUm04F+icabddBcsE2KZyHnf97E4SYQR1kqw+G3xPqZ7uAD7KRKgPExSBsrn3JpfbTFezmPxjwkTGwtor3NqFhg6Y0VTmLxUxWc5sAoGPzM6SPfnyEzlnWkCBsDWjqNIm9ZZLZDLJIZuP3q6rr6IovRDsV8qRmfTTKe8bxdaOcAmGdCcCC8I0p4pyQ4CZLyM1DMg7HCGNIDEMJi/gLi622yH9OjwSuvak56cxRCGSyvdfluah3gp5HaA4zoj9hXT4aVp6vN0exgYiwrEiWE1fxvGnBeczGv0gk4qR84ZSfybAmo1U2UQCzpjtPtOG0Q/NjQmJ0K5IUbe9FmsksSmCyV26tMO637uXvuuKlA7ZH+yRnhXrT0OrlcB+nqw5+KDx+PpsbbnZq+61/+u6f7x1VEJBioyZQ7F1SIcyQvGxJsRDcYiGFpwOO/czU2sUwYpjYw8C2jSlDscpnU+qEkpDcCQ/dgQ7Qv2I9zct8ueFG6OSY9BWdgDsvC3QbMUKSkYvCY0q8xjU8bBRM2deH2/GLHi9RpeusvcjBYvfqAtCQIes0MF5Iza0vG/+LmqUJmbZrnX3aLE1uO8ZVHY4YQt6Hz0A50GD2vEJot1Gb94jppNJc0vpRENvsEz2u5uQs3Pb/WAFKnCbmGKhC9MzXDHzidVR7GPT0HDWU9MP6pNG9/WSN0eGLSJxn1u6C5WZVENPjdmPjD0vvZIuSIR1A7dfOyyGTSyUhWfe9DX62JjEqonI61bYRBxrsILLAMF+uZiRn/PgKpZOxouJByWlwr0yWJ9aJHTSUWUo4aMqsc37SBBcc0rakVlvct6F5vVv2teoarStRJGuyqkjR47mVpwoYjsjWE/6BLmN4qxU6UK/IBG/gFoRR3p7FcNd3PFbUs8FVsojJZmrAQ9jJzFk3ksa221nesWSRjuMhdrXPvdn6uMd9tMHaUFcqxJopsnjsusN8O/ummH3vEdn9Gn8CrHK3k9HGCQ37jQQPPaJFitkM7jIaK2xquJF6/s25C4JIpWxEWjRBmBAHiA+4P8Iv4an/1semEXfFp84O6m6JzPmZqlgOuWwId7+nQ62h0JGaGUhvZ1F/VkI5x+HF5wyNZKvW8kVRomz/TOxtennGpRV7evmaSit8Wv4HmDkGmRKozCTAWnU80C59tw02T4K6wbe3wogRz83wln/9+FWv6gkTtKHr2G0j/qO3br4YdIBLaAn1SP2dioQ/uiJo7aC2mlhi655My2DQJ6WSCWSr31er44vk/T97ymAGmApgHhrYoGe9zvXku30JnhdqGmUfiYuC78taJI0lScYwXyF0Zb0phF0OzrH6spcoZDYKZvM2nmp/mbVoTu8C2kOSFjLCoTL325hWkSb6kXgEt7GiuVXsYpn5zIA5o+CbAFXmbizZsMGV/bydIhAnOqfhT9butRt8DDnHGF5vV7tz89oiTw7Vxl4QGij/H5iymPCz6IWNQrNgBDoEhe2LEB5dpiwVhn/J6L9occzw5nGi6t/9rxPfQR2GDdnqzsfBXsGBvOx3XtZLPnQ+eFBPn4klHGWIbOPnhryp8CgTVtrCE85EYQP3w19wpB3FixezdKY1HGOLaAgkE2JikA/iRXcq1x9WY3aUYJzqQv7ohCpxK80DddMEgP5FHS4eurp2DBG2DydHKeNQm3UBWg4ZXy4UvHXB/AyvpLxu7jMpXsv8wT2bl2mTb6Amiqk5m08GYF+9QbL1jp2ZDgHNzJL/Yf7SgUMuQkLAeXvwJ18/e7PMkZo1Dnsn6BOBTfH/EFgRn+xpK2zdeF6K1+l9wKPN4bIck7wCnp5HZiSPVp7HJRb0uLB8/xE2MGPAx9cTT1Gm8/hIzBu9TWa28JbBqGjRhhU1GgFJjNKvjf0raDJgz9FOTqCchRl4YWM4PcMrRavBMTL43rfyFZwb458KN0agkHeSj9lkPcoKiOcOD2RYtJ0auj30llwC5d4BHr8VBEa9YvT5GISA2++B5VzIX3+tZmFNTjlB9iun3hoT8yipILJ+q8CFIE8AbfUgUEZrWv6cqyzn5Z3sCY+dSBj+1/nPBmCT3+Qzm39uqiVHtrbbrwzRo0bg9bSssWprsQq9/cWrEfDvtxTLtfbRD2ER7ai2DW3kokuUvQXe53nvvtWROXW35QZ1mRPiVkbuPskiinYSpY5iIUWBtKjO6xn4hGJwAv2VL/b/alVS/1lKgaEP2NR7aqpAGo2janIxf3jKNtcxX4a4x3JkfcCGtqZGhy6qWgCfClUCZXX8ikhY6PK/GqJNTxBfLIejBw5O0M5IcrwXREuPpbAeDcN7+nu86qrxPFr88CVTYiRTDrtDvO3ftTm7BPeP1iP3cSW3sA6zUG8wH/h6dVqYgd7r6Kv4gTRhx9eyo+DWV19ZJ2/S1IYBy8KY0gNL/fLQMzUSr8D6hWWwmxSStvFKNDMoEAs4D7g/4H/wJhexsCLpI/ZvLABRh+WCVSyurfe4jFIwCUJzIOCl/rZcHBKpYp6G74y10yPMLjaQz3SxjQULKh7xoV1h6D0EduJQcp8BXcOp0uSczndYQhMKqBtTWYSBIIZ8jE9iKsDp1Oiwes/l5w6vJYBS1zwuXAzNuwIbjYfMeVs3aM1gaq8in7C+oMmhJ+NvyJu5RLvaq96ZijApvVeXij8Dj18NQKkqaWgKHaRDstDCC3DM8B1TJjxcjasBc9T0vsQh62Orze8PDCRgCVHhYUP6V+uFrnHtS94XRfxa5QxJE8OSS0szotM/XES3pblwN2IespUpwqGQN7mXnM+ngua/DjfY0dlm8LqDUDJgHqqt8X1TpS7mu5vV/Q7J/ByYJhuKyLpWViNgdUxld/FiVnlmTRpUKT+qvARB6nJPcujMvKVBULJe8HGzzfjNaHbhrZrZ4DCfkwGfbABo3Nir73l6A35sOy+n0B1H92aHcsOcmU7fmDaPcZzEol3UgNii/c/QBeWs42Ww4gwt5b0h48nuo1evV6Yqfd78hKTXysq9fT82HIyPjJBnXilGUgdmrOfe8njDWNmf4A4LWrjaDQACbm1Aou3kFqgRkcE0YtFGtOglqWFnG5Wz6ZK9uCdMuM/l/ny1+EIxsPO+zjj+GBnGxja5yycrd/BqR6Keon4EPpWbMJAA2mU3c5xZdAEwsxvQ8Y4TwYGgn7VKr2J9Zux/wIjfMRWW/SdipcUMEITY+8Bvt9Tjb9L5wiHkeCOhdvHsxeOfCi8wdampfYTvXRGndMxg7Tz0yYqk1lfxBvIWqRvTZxiZ0M7Ajia/vLjfvnnpY/QfRt1f0fBJsuYQoLET0E/HVMzqmmdwNJMDZ43qGvYwLaJtAh6LAK62WEGcLwPN6gUO5ln9dT4NnXOzxlCxdW7EutYZTsNXsI9fMQwnZgVMSPGZFfdyDJ8hEzc1RjgumSTRgQ72R3CTyWeEMqkTwbjvVBpBXEv02oZOxCX7Cm31v/jP3xfXUphVJ9iQ+0lfg3uadW7fMXrieVnrfETAtze4hyUlHr2ehQmlxS2E+5p99Q+8E272pDLC5Ro0M9gQDwgPuD/gP8AmG9sKggnnsQfzeF/phWluCkPTXdUN5hVwAMGlzZ+3dX4kOXXfYqw77eTfK2ut6GoUn1jt3m8OpbvVjk05YNGHDknsQx734say2SVWWbfYYtd91RyOz43rjuuZlsJ0VW/MjrHYQR0OXmp0PrgTosk0a+YkFm/5KUFQdSoSQQuTUtH87KhtVZiEdM0IM0jQoaJA3KTpjVaov4KfX3CYNjmD1hu299/KMEvLV2HiKXuZjZc0NVmBh9WJzpfhqNYQuHI9wqKs8vDPxQFPRFckvIMOKPbz8uqdPhs3Abni1RqNGDNnrGpLA7qRcRDDfLawTHQwQiQTJhYVZ4im1RbEGtt8TnNchgZIW8MfMUYX3pega1pMFIzEiR1vbI9DBZMr2Ea9oc+wUzij5hl878wZblwgS2hVpvCHmEr/7G1E5qXWsjnsgBjNsldtU8wGOmA5SG3Yc0HKVva9xgWyFkrLhymTfU5IAgSv0X/zqj/16q4eJ+Uak87jbwH03J0j28VV1XPpHJqCjPI1Z/zD5J2Iuzig0QEtyV8b5bXzebfiHyEAaaRG593sSkAb4y5T2LlMENr19AZ/5jiU7YWA1HA2CWMVohSVdlBm4WJWC+85pkukKzN2y3xKtyqdviFcmt11Sy8df7tUxKacHMxD/HbpLD5zkzRLZzF99DopH9dp7tlnbnFj2ta5yndKo0AE9XUcFh0bjJJ/x9VVE6VW6AcHpJWHj7W1doEp/ST38aHiU8cnbN6fVr78qKK/17qHt98+eiOqI2cLDU1YM5NWT5n5QEUdSKLDb+br6ajiOmO4RtG6zDW5fRMjZV6xOOZxkuUZJMwh6HXbBl9wGvEHN+B6EqLBjX1jujgc4qhx8oFIoUrJkKn5skwqEIsgkVBzZmb+FoplPmTz/WJh0dPE+Ven0hqlpCUQ8+RBMeC/9WUsX/5YIxvyzUqv/24lbf6e9LZB5pFSWrQ0Dgq9JwEvlA8EoXblnjzQfJ0vLKG+6xbNP5A0tUNm/UqX5YUODBWfDhxp+RyffaX7IjXVIAA403XURMitByqkmqd40602ACWMPyJgeM07IGLaAqhf7evqX/0DxYzmqyyqNDxoEBLID7A2HUl2tCcDcZ6s67/LS4XWwiEmQqoTX23eXd483C6StP1uYtlkRIYDFxS0ATXwaiNad6PpaAXnZHIiH7f8tcHDfUb81aCZylPnWVjYtHJgESmED6oTirV2zNIXV0Ecb2mFFIw/69rg9e6wK3B7mZeu4cS2I0DDTTHKiq1lMIh43hvWaXKMrrSntncNV8+GnU+c7eaMAupbDBe3NCOp4leYyLH1etb88XnPRNNpzggfs9ozGXHJFWvGLyRM/+9tjiKuZ+M65ELpCaM2QfpyNldKxYkSG5w8zfWp20Zcgjh+nga6he/1z6g4Sy+1VGl631a6s0k2E4rDwC3UY33SDlm8SXrrJfHMBUSmMi2VP3CI5K2UOzbZBoqJpLNS12yBERX18IpKvTWaPYdIYaTWEqwvi8zCsyKFMf1uo/T/EDP4OFYbZNVAw7b8vwiHEkW4HERi+v5PFzmR3Im2894gb+80AE4BES3F6mJEfgX4pY1xpFDXKvBLW3k6De56cBn/FI0ham66g+2sodDx00Ury+cRThYswFn8G4TEUrrD3s03sXyTN/liWCWu+usfR7EiQx+bZSRpjRrckaLccfqIJ1SkOFmC6U3Oi5zDhneRyRgZ5oeQoRxU2Mk171dE5tnvssGEX5N/j1QAFAKAnZwF+R+pd7Obk9ARzyEjZNLPubOKaF3eyiv4K9AbP46wrXoBHz1zXli9wUh7DS7bZBL7Fz69g97kpJ8MfJrtahDpd2aNMvi299lHtwAUBxHCCWLYG9n/bOCpjBdO7j+wFdnOwyfhJneVRAVUrR2JYnj35OPf+aj7Wx8a3uZgISkilSJb8MSzb2simQzClXdS/Z9Iy389FhtiEQJzbSf683DDZ6gv87jf7ofyap5m0iuUmlK4ZQyeKzO/umByu7UO/sGJQEYcYHuL+qpMraf7uOMBgZ+yDYanBTkWIwxngOLG1jXSuor5WkdotBr4xSHlyED6KYtIXJHqXfqaEoLywgppAfIGkfZNXCnKTAdnUGdmYhzf9TeZJJXlYrYB+Lt6Q9IliQUDtHZDN8eNKS27sGTANi4EF/u1WNNnnbexZN8FrJAG0tpWAx2ZnwWTzqa9CP5GhrkHyo3oX1yFXoWnmaIHQXITD9syAkzA/xiTgphFJ1WpGK/KAewi1k4YgzKkLelXuZQ51T7WSTSHWKNLX3/Z74y3a8iLCipo3OW4nMagCQYRru+dK3iVdscYglNW4STkOlom12JdcA5eWnJUDykP55gZN/utrw1/A9sjcuvdTRr8vXgqNDxoEBZ4D7A2HAkBnOEVxVB5x+wefQNVlAngj0h+diGbgDzhhpCsYrLmBfCfNpUL8li9mBVRGbm38dlpX0If3EiPR6VuKe2VuYuuyt7LbXPpsq0RxV+TS48GOzE4NBQl19YBy2B5uNrSSaWRb+LtMhp/kRQ0goQdoPckU69sOkbkD6OLwT92jBUovFJ2VZxFYPOhuw1oemzgg1pHB4cb4t+r2fFKJItj2uzCAD4UG0sxwKSYN36K+qHBI4ot/LRSK1i/OZLupMK+3XlB8pMMNrvY7DKIEtWvGTz/UGtwh7kx8L4O/WlVLO0LgvnXWmEUi6rya1ZZF3ouhiunoG7/p859i6aZwwT6mv34JoNomcmo2bCD063iv5xrbqKKlHgCuFGRboWtYGzmqJUlkt7sLIZTkI74XWyHBSZh++C/cAt1PhJAEjNst5YbwqWu3Iu2dGFJVsREeiM20QIcTLlFwWZfPlUpwEdL7/ZtjpYQ4swht65WyYVddpukjEU0ebzzXPy2g54GDXfMaXEtQTK6wF/vdZOCeYBxSHnnMilbPUxMsaS6f5/h+xx4S8UZjeVeppEW4qyZeWfRZZsycRzhy97Aw02jDi7HA2HilImRO6X+8F37liZOFImge6yb1WE8qlxDeA6xKl9LBOHHBxdNlXRbuXx3OD1nPpe0CcomuSBf1uFmCJdU1h7OqjP7L+GSFyTfQFXfVfRksoLnu8/avo6KLT4K8psarO+1IHLeb/UIETmPj4A2g5v0f7PJdsE8ib1DDTH1Fta/pCYHUVmEsstELNQXxqr89iBbAst79g/keSQ2gnqzVZ/m+JrW4Qz5biSKd8dkBBZQu5vzGqCuw2LhGyS7oPduNhvC01RAwpVw69esTSQm7UNSRMwbvL3W9Kdy9sWWDCTZMpOOrZlPW27PdNRjrrBCryeBEdihbPWPOx0Wdjbza50hKM/oWPu3Jio2joAaR2WwGLOZazwzNUwkADYdGUHT+3T/cBsNI1cE2Nh2Xl2gyeNdBbrInJy/Tk4cP728zPJsrZ9AuXEVTePohg0o2U3BSTt4d7a6vwOExgBZF8yl9e1KwCfzgxNptmafJjsGXokoX5Aapl7sv7FY7rfrS0TVrJnWQF1Pthw+hRTdiYJqMB76mjNvRAe0kTZbDKjeJ87l8DjK/7C7OOOvsBvbsjHSwmudLmExRTJW+GA1ypGVAWkdiWKlkASWUIZ/8ZnBh58H7Mn33CQBT7mrnyiunYhcowhoalZ4xeTb+MjpN9+B6N5QbFz3IywLPL24wIDt+NtaNDxoEBpID7A2G8e3i5c3+kffTB3nT0Rsmm4jhDY3AKw9js3ZvuNhi1aosTIujwTUHjvgTFIG6eFNwNJ7TRyZW1bl6jPjUm9KcR9FjAWtLSYOdMnXeGCNjRz94XZWDxR79iu1gpZMCYaWhMWbjsTQGIifHQPS0EMCi99zNBD18RHzBk5ipbFOpf4WCOHAo3N97pFvV/zTOpjt9oi5SEQCo4v46ckiDh6RZO3zt+EutQYqTNMVMEfokrxaTw4Kz5l/5qB6gOtF8jZXghVlz2w1m7Sy2W5Jqd5LNZ9iVptSTkb20qKNlC4rHPzCu2tUaphjcowf/VMCJlsClHv2tNRDDFnBY+PErViXD6YoQW5YEYQ8tPPmpoL4vuypfD4fnnwPkFIGAJkaGF2wfcoRQ3LlGhKty7dDDOndreOtRpF8RglDCI+NTN5TxoYbwkvwqDDAcSBL60MYNNg2TIOPiY8YgLgGL9zlltAcoMP5+aixXQWoCLXAoxAhOBupBiwRY2U8WaAOdNlp7PjvFODhDvMZo3/ErSTsDwv53XkPG/0whZabaYVWU3kVL8ZEyaXVZ8gDIfXesh5Hc52CHL7ZV/An01olh7i1XqEnTqql9BlYc+OTHn1FYHaojb4KabxFqotRrS/2o2dlrKUgZake1LqVkQhW8rlJPe2E9kr2jw4utETcsqdXQnWjJdEUyOW2PVn02QsOwp+/CYmutK43V/K8u6p5Rf5iCMZfVaDgSk+Ya09iBCEJ9lugWQqPJxs9Pl9J1EVhriLwxgfObfNeKMGKMzh5Yj/O+lJ3PrlBQxhMmcng/iModDfaJ4doJW0fx66DKCYZ3MbSPKeZyzvZd7aDs2Ct+pJjZ6DKJh0gYu0K9jRK2z5m4HsOYDvibn3tfhz4qIN0WW4RJuquKfIW8oa+Zjj4rMJioRZFJX7kNFjylocoArdBCIUoiQAP78/XOXQ+Owtll+FEmxlaNlAGgBg9ggVUYf2a3Hnz5g7nUxCEW5QPreQXRlh9ctIAOQjZ80hnM9Fzv6Mn2+7d5Ejxa3P7s7o07U7z1Na3VxfhKUpS07znIGKMmTWM/BMQXzXhxLoUIw7gEuPreZV1Bt5dIj5K5qS8xHqczpt/+4+mzpqMGi5XJpTYkvaajPpQ349NtbNBC7zYUKlOkOTtxuuCyuchnqYsCsahQlDLEG87d8HqTzZUzzwN5LAptWemk5ZKcrqtKIW4X1exUUzHm1ubEmOsK3otOUQozxFGb50mvPucD+5GJ92B1EXBfP5CA9LxKsOZQNqdQD/xDZ/6NDxoEB34D7A2/fH1i6T8Sh0Gjkyxg5R+A2iyOsirEANVUZ9vOmjm/PFUetLA79xO+gTn3TW1YVqSHf6XOm15kP0+LcW848a1HTmxkt+1X9ItccO0jJ1OaeOnakHZBbbeLrM6Lz2beFAczlEaIjCguIesgA/QwafKkb5v6Vqv7pjKTCQrL9qfH7AmRZHtJJ+rmbkJe/xNO2rm+2Cctw+q2ItkCY4C43v9SQEHuDmV96xd67Ko34KwugkftbJfy3+FOZ3e7VSdWVMFmIdy7Y34SE9z6MJeE1BlqTFUglK5dZEb+KuANQnoGgIXKaAnYsxKdQ8WfAFIIfOwRgFRIQviWqWXQ5WvAJUacmXeI9/7VF/DGAwizo6U5IcyCW4ayKCFW/F8KaqKmLnew7lYO2u58XWUlUeWKUXY3KsADmF1ddR787HaEw96ISYdIG9PtadXJfb1WFIvXeLqLZVsSJ7ABYh+FLa+LxWTl+GD8UjBUFI6YmNytJOxvjRRdRR/VKI16B8Yb9qwPucO4iCaHwsBBV7bQ9FvAIHEK6/3ijwVA/SWQhi//mD61vFrhA25uDnpDvXCqmu+ja9E781hewdr/23ODGQs8gtMiVP56Qml1eUe57qYlNLhB1L9Cfah4brRr9kXy8DUBg3pMqYeXEWLbXzsvfM07XKki/XhDAg8CS/1+MmtgzSynIMzD3kCwkG4p0sbPLJPQ4sMPykSxfg31a2S7WKEHMS3iNgfKxuJlczVFOMFUOs1oJhStAb6btXN9xdHfDl8wzzSmyKx/9GxYkYdJ346+Z+NvV/7zQIffaWmGq3b5W1xeTZbqV/CmRarYvY8CLEpLmzhcLk6+IOd6jHMzck8+ELo1h0jmVar8kuBE5XICGrnza+cOJm/0quTJxchbJJmyp9oclLV2Y8wdjkwRD+1ENI1dFUW6A7id1mbA2niGEpTwJwPqqxTHU2qR82o6C8Yv5qTp/TRh68sLNlT+6rjS32+/MAnx/2CqbIKUPeFZkkPwO2bwMuQyMUAwf4jcO08WG9PLYdONYN51OwJTfctwV+f1ujXntV7bvzBGyvsE1IW+MNXW18nnCg06QRMsey7iA7EhIIsLUK0ser1qbkdqkADB6bieLAO8BsLjTIKhlscJf4n4i4Ycy3VAvGC+EEkxtUCSi8hAomictwDoK7ONnrMLwwtXpMKLGAAeZE34N76UhJKlD7meqJZXXQam3k4QRa+irzYYa/yoBpi4TWNyff9sl397hGfKdd6IzY5l7ar1fqBRNOCuXQzUM20hqpDjMZqNDxoECG4D7A2G8KwL9wwByW1Vy9dE0QChIB/SGLPUtceK2L1pLfyYCEiHlSGDPYAqJ5iNUyyeP9+Rg8aMw7c2NmCFmQl5+NMW+x6byTJxJppDiA1I+zCLv/3/yaRauyiEnBpMtjBXbYX0tpdrIa57SAoILEdbF6XvJz7KfQAxDbrT5NOCts5Hhkb2z4wQxuJafE0AXILfcNbeOImN1+gErrs+lWh2xCdDhA+U27a41s6kaPrDPxXJhEq1L6DWZAiB/g9Jv6eoymRREnn6e7D7+jGARpyd1qf3eK4OKleg3Ue/M5CMGeBAQFqfY6UjaN0ltZ2jJANtTber1h24lrvIIYvWsn5pKPjwJl1keQA7qmV3+IG2NKKc1nM09jpK4exEb8G1jG/oU1/GxuTIgm1SprEMYH16EoOiLv7v/bVDgoPoZo/tWtEXhYbqzot4e6Cuu1OklK2Qudi/3A9OienAnynyxcltURHyehFCzO+qwUV5y1ScZp64C+/VoD9R9V18iU2nhXhgldbCfE3agYNxzt7PJzPLjFrcO/7AJezzXC3YM/GQtAaPEBPuFQHUfBjeAiSRQi42eG/LttdnzAiJnvw9FbH/hjP1nAGk+zkCLS9TviYGIFXFief3BBf8fIYQrzZSwisiG01xh0KyflE+jUpHYRB9qtw1pGEBZMHPu3vjOIRhR2S5d2yXwEFsEvn0Tht259uGcis+jb5gnecX74v04uWs6qYcHNOWS4vnIRn8P59IHZzfwF7Y4FNQ7z8rVvCJPciKoaTD5H0zV30VzMrkorOIEFBxIpcabIq9zuYe5IcSYENSXiudTKiX9bhOyU6TgbOuRsRTJMXXTf3ph/txsPitWG1Jh0hW3GQKS0NakC16TAriwnArV5lUt1UztfY0lsoQTGPbWHopVub+t3yyryIpiMJhCSKzksSVHA8My4lmZ6YjGlj19yITwdv+/E4gGoWhpZfMFh8OuYLIfBqKmiPP8O2kkesZcU7rTO1XPuIKRVhOZ/mS2uSis4wPYXf5mdSvY7Nqf9WzP1Z7KXrMOCsbswtp1+bcVoX12pAzBIXyY/970lBuvMcxKowGJsq0J/xCKFsQqRGlLJNu8gWJlNY8AAdpz/grVTcih4VfCZ1RTCqfGVvOOL4bsCkALvU2eVPGZ7Da6LNYbUMofy6YpswKiMfUQ6So4IM9kA57BHHeUlEFQbtJk/xj4MSJI789gBfXm7bBv0gwd2FOdz2DrFPhdjnKx6AUVYS81djxT7rMzdExRMKHHMFXp+qDcaqfetZOiwqNDxoECWID7A2HSBh31JXL0uqsnq5Ymu2F7SQrbmURz+fhPYff6FUq7ApwfpHhfJBCcGQQ9+ov0icx8f2UXYeR77gFEvSMhBW0HehvbZJfZ7uNOMibV6DCHDtrvrGynsSJbpjLvXsEDOk+igrs6hxleM5prk6Y9lDR8dRaHp+/tA7QBOeBRRugAiVPnxrnlEP7Lu8SdibJbBYVYUejzzwDqsuFXW2MUz/Q/TGI8JiARz+qAzAFOyQVortQfr4Epa04ZlPMWJgOijTdqgTXdkKwmyzEXn8xxiO/3XZxooAltGLe5GPPSHCdSxr3nxqoKjFpZv6AZMtfbzh1ZR80V2uoGAVzKNAwUkIljRICjf0owaHkCGc3L7cwtL8XbtOA9/TFr9EnEaPs33vzCYi4zX4cifmqyePhOqQ7d6MXOya6UTMDyntzf1LZIYbxuPb/7+61kw30/y9TIA/3MQQShuE3Sp2pXnCEdu8Zx+uePVDET6IhjpSseJWRbLrLoGA8P0T7Wri9jeisfEHh+pzUnmPXRkmD4BzPjTupDjs0g3RbY+CUgRVKAIEWx0dP4WNiC75ledIZKOp5dm5NR/2Bb3fM4cgSf70UixzKWCPMXylKSiU+ZO5lw2HD4/D8kX2jKnUOCZtWHx02A2jHd2DqxyX1U2fFuCAZVfEcDsy+pPKHCo7uJUmtgLjbxGwQyubtkA2WmjKgeunoaqiV0mfTsK3vncKbxJVZjAKEkMaJqkDhnySxU6SqhQaF8IJ3GTgvVCSJF3nKhT+JtEy4KjF+hrWMrT8z4GzmPYH6fs/oCE7YrvZYEwHy86DiQ+7eMvlgIogDmtw9MHTcrCqUyY8Hv4cwi+d2HekK66PJhvCoSX2RWRXq2ru0fli9HCYsgh4imnYzr7ofAJF/2xWZhnO7Ljs7Ng5exgtNiz91vbyCDUecX/+Ohi083scjBgLtUkXX/1k4KfrYE9ieJPFsjFaiex1IFfMidT40tUQSiN+SLZIostHb9cdNm+lmXnnc7I6tDhhGaPtAeORbaTDg2mvDJJBOQI7lE/TwTsVve/A5I5lqbbCApYMKcOZs4BD+E4+QWmr/YpMCrnvadR5m/x78qj8z37b4i/lIgr2YUpCA/UiI0UAEzvR8vxMONvRC8nnCUdBRom/9C9lRhZb/JvUwFxaFLsVwpvk7dxxV3fmYl5K8py4DXiEX90VJqWDEiLt8WWM5LSGj8497sOO+TRGHzh3bN4ysM6ieCqn2Fo9Mob80yJok1+5Bie0SyWWH29ubLVY/s3Ow8XqC9caNDxoEClID7A2/miSJEjfbfJgLd1wbc5rtBOC5a3fdPQkkZNWktt2D7UM6Fl8iK2Woaxk8qIVhJfUqGs5FfikbEkzL82BVGCkC5oDd3yE4nm4Hj8qdWOHwMWUVq+D5NfBwfeCr+X8dv0eiJtsKptCwoTZiUrnIVhwrEalBuWRZxhHRg+wFXGUNXwW4EHvRokCdS1iBKccqnQND5fe7adaqDjV8UtRbcdCqntygRbC/jXqR9L/C8tO1JLoS+F2qVRLACi0aklrxi33n/g8k4P4QIlm1LFRibdsSFZ/QyZ/WeZ+9pYzOYYTDMV6Caw8YsOhLlf6X7AjEzZ23nLKRZmxoD/Cppuu1epkeN2JNMRtUMOX9aJJ8ayH9uLlB356bE6MlnbOcENXWNyF0xs3FOdwvjWVhQodliLN8MsIfibY2wE/03UeSdpFePYbirp5T4ar9MY39MqXiDNQIY3SKI2j0lOysJwNWVjrU86CSZfZ5LjNxWGkocrGQmNkf0bfGJ5eU6AyvPnY0DRpRxixskEapGObwHI1lyxoKZK9aZ9chcJ68gsH+3dxCtaRbNLdyegZ0RP45575op9A2PZfb+0IdEdBxc+CYPASicPoTyhgx078yPzNkrtnP6tD9W95RIE3q9ag8ZhbPZGRn0y+q/v9swUO8czuowuUjbODqUC3VTwNcDJ5NYsuQsO9yPuhM5jLf0T9LiINjzBDEGzfq7/vjR/wjUcQ9z+rFDqKhyRnS1bRAOlpWpBKPY2DRRCVlEnKZchhZwu4ds7qCMAiLNhtlxFawuxrfNFAnDMQLurSqns7DnpyqROuS1UrDxp8PAVYYYTEAnG0fRM1kwYHOnhXx/tsy2O+DdulZhvCkrDb/+vS5akDeoSPQzY+zz8ca0Josj7M1uYT0Zl889dtH23tkFYSRZ9IOFs4NTVOtD/HFsTa0vHAGPAQCei3a92qzMEZiRQ5CSft+f29u+rGg3GUQCOxVVdaFQXQ6CGaaJTt9gbad4C3Pe+ANFFIrlsKGjX30NhtEEwgWLnQCOy3OoplA34lqbsd94BBijqMEFqoUE4r3kSMidaKBQsX7tpzYW/u04uVorDeND1CPtDTss7xrRsbhTEqdvnaC75rsSPQfVZ0LUGP8jCG77jZ6TP5v/TqeeHEogZ4CyXpll5/YufvNQLmxBxAOYA/xPZSMLVM9zrTzn2bO4Z+k5L2HqDEEMcsdPPw00IOxvABlK/kPHmveaphtUda9tpLrPued8QoicCBWUWKGkmNLnpMkYL9kQSKTev7A7zlEu66NDxoECz4D7A2HQ1iQaFxwcrAqGKGcUaKRhGtZCaOpPc5O0/7qFNyBTOIIcYzHbr7OGaC7mGxhefVtskndChhN2pfHFAaywjuwYwBVIqZTw45hx6pj4pnX1MFhO+sMmriRpVf3xOo7ScpPs1WHaMZqfmG0VlIfud8Z5VhVB/H7oBpz8XkIkCXeOGfEfMWjflxiYRFRqdLApQAM4G+mioyd7Q7Np1PHhA3gAG/bk6nuDi6NcZ+6MCu9XCDjK+aCSeqHsHF7g9ni0XBxrYaCaUd1JXdcvQ9whIdkRDVuQga3AXB6w3vsZ69S/XN3yKI/62iOQ521e82dENpqILUpv4gtUk7NBGQK9M/tASbrPHN3QckRXWALY5fw9Xl1clyN8XJNgWG5ftdC8UN8Lbn8STU9MC0EaV+hScn0KG5S7p7LZISieCnLoceT+YdIC+HNaAMWikeNoUtNsVCmNCYMfI2+09AxoCj1q/irSVd3gLYx5vTvhh5w9z+nkGFDdCSAayE/3tPDhsyGbBBh3bdJGvOaqsxFbHaAIiQikDt8lEeU9f8lpTPyevtMPIxEOc8wRm0mNksAuVxoowdksi+ppEExJI97R85rmiDzCV48OUtpOImPl3HVn2ZKe+7ya+fHISxySIsH3LKC8qwY9p0qoGN81/AuZoVWi4xVcjRDK0BZbglInkmg3rfMSKnMZ8KVMIBUtG694fhlh1TZjsHXSmrUYQr4KvWHPCt5qtvKNoH5cWauEHD/gPrZ+Soii7gOiNWLu38TOXlaJrxX9rKdTvaFNDYTX9O69mUyZ46l73OEHh5u7JChVn+pRd++oAnBlMusFuPo5WRfs96oTDk5vdBQiHb2Kn8MHyOZh4Ad6oRM06wv1j/C4RSF7QwYT57jPxfYT9nt4XTBDXFgWjlNQJ5rQBZq21kiQqzetLycTcUwTjWZTsMjG28rhxb9mfQWrktXLR+jkE8B519rjvC2lzFAZUESulld3adk6+jqauMuGu4ipuRlCciDdAwXOEECrVK+QMcWvYVRcueIrMZwc2mKXE2srsOzbBSexM6Vbj3ZNeNyjgZhTAOmwzd+rDTnIoN3cOSXQ2IA80zq8oojKVvWa0SKfoUiSulbtZMzx5Vm2NEWSjs84a6DM7BN10YkqcCoFxauYWtas4mJtLCQ4dX1qVKu8K/lb4SE3rgV+jCFe+7wmiVOwaxHNrVQWy1QaQ8vANp8pQVunzgRxg3DhOuR8o+ZwLuU823+0TemwqFozJZ8B4VebVgP6Ul4g8t+z4Ebqp6F3eZgFW6NDxoEDDID7A2/fGKSjtZhCcXgBzlETag7JU1EAyxFIN9SwsUAW52WJ+2KN19Yi8xj1ngui4R9dSRLMp1Kbh5Qie+KcH9UvaIxQsvsOzkUjUtsWCUUQQObkiu+K0phAuSoIrb/jXc7EghjD1fUtM77WK1k9rUzaGmEV/XqFIrgIvEeMpb17MSROqZMrPB/EP1nT9Pm3Coz+mi2pBQyWm4+pf3q5o/lRMyCNljbdt9wAzQ/hS1+MNI8EF/r0lZu8oh39pMDpOQD1X6ePqUHWxm/5KMSHHvqoHPvsZ6qrboNOFwjYSrLZ1L8kv/LNOCYl1PmVRRBRAuiKuUfAalI+dvsCq0D/EiJBFSkdM3NJVldjhno+GotaFtadoUt8v0FShTGgIq/ALYUMaOZQ+M5WsA/fjOBDq87vQCGkXx76ahbfktg8TiKE/96cYdIWCsSg+a4Aa1P8KHhLCNgZruZxVUlOm/O9C4SDJQuNo5GgyshqjTkECMdIiTYT6DANP91uIGTl58uZaIplUxd+m1QNYRs4eX135nKV+iSD6X5VlI3/hIIpKfOO1mehHc2nfEjEYSX1VTYy/dvTBcV989o8rFuOvoO1rVYb69ehX8u06xCoXDBYs8dNhUgRhU64f/CjOmrmcJEYCvnP4Rh3EHBS/cm4mBrHvTnFWrV9zrc6JG2z5Nz1sXAe8WPSLwxy4TmBY/kxGrggheFpD0BrW/+XIZS5dgsRhnKpREiwtBNbcU38hEfWOBchVVXVKeg9WaLfBRjoZBwNBX8Eu1hSAPQ+1umTrc0NX0djWEFG8MdWpSndPvjlyKG7CbP0JdrzNjovzaRTf7jbmdN2b5vPt9SUR3mgDPvQFsTmgJVh0gbUfmZ8m7XWgsFrfnBWQivwl4Pi4viiHf+UNm2Q2nmXfBWxfUkz7QGP5dmxAzsP6XGEP6yXVTMK701u1ew8Si+bTPiRHJRMC6pkc2735q1cFtbBHk6BeMREvAfLmB10BfTF0MeiLSSSDHFzg9yhORXEF9H2WS2Zs+wmQNpGMnXWUNqD/c6ItkRMJLyzCgbpeBWsbcgYYM1CAm3Y3ChKK/5iXgqtMbQDqlsz/A2Ov2eMWnS1iN3aUiQHGWo1F7Jb4n8TQFLNUfQ+V8OYSis7qpXENmyxJEM5avTa54lTvDX/o2qngRYQeFrGOotQ9hU7P65xb4cOLraRE70pRyrzGjBsin6zaqQmbjc/U+CiTYSAzcj8HnNeByES1hNhWhtfYknVGHrqp6GjzhUZ3Av2G5eNf60CpxUdr4v6uACpDaNDxoEDSID7A2HgFaavonN6rMYJfXlca+vtJ/ftWfUyqJx2GI9oVR0Ew+z0EVyEvx8Tx2iqhPu0tOot/repGdhhycOjXWmmOLqKTuUh7JGI256Jso6uBf+I+2JKIfeBhYlWBG7R2KW4yOnyBiCf0LEAvMaL+w1N4fvQQb6paLD0e+n3vIrVMK9w/f9aDwlhhStxDcKBTbcQi5rNECdVXoDkIjELFrGTJtTy/Eyw5yNW4IonELc36GJKKabfcG1FNDha8lOA/xiEot1642z7GSxdI1LYmthbcvZZ3muHIfhyDfYNTDHc+iMZmqR2sz5AY0VPHlCirM79mwEq56TYyirBjz1rgBy+NCR7fSdIN9w3hl6YTjkWZPL4OWAqlBny/gSqQFC7xxlPyP22BzsvWRW0Ki7zEwMQ2sQec49qhwmeSBtYYeQdKGKvYdIWCpy0XuIR2Tkx479cwr5/BaHM6I9XhX38Y5jSYl85xjBLm2uAPmwGEczeIi+28Oz3Ht37jDw0BAX19eRzPO4FuPWNItJsPedioG693Iy5oIUzOv+jcjpHHfbsklzCCd4O1ooXTb0MUhJBt4ce5xj3pq2LkWUWgtnYi1r6rG/0IUKaC6qQD/pUUgA2IpAa49j1m2Xox/Gk5d3Po36EtmSk8EeP4l0QM8bcbzazwNGJLdLVQFfS+B6UxKKzMcl8NLMeGOTrbW638oZJ/uOxNZWBTphGc3LLqp+s57wF0LHw/pFBHr2PL85PT/zpWNkBGK4DVOkNFqLkF2wi8mYVw1v0sgEnlCbvPwlTeLpHkkgAu1DX34mVY0koUvKBoj1bD2o5EznUWFDhPjJQIbLVHjMz/GB7HKkR7N1/MsWElMZh0gb1VunmFRZ5XaXB8FlD6GIRNY9s+cVxgifiWA029qh6fEUfN4geVic5KayMmTJghuULnFygdlbUBKOAjEitRaghvqDUOLfKGL4ew/CBiM2NGqfy632ZQnlQUujo/Y7NiX1ld3sTVgtcgTQFC79m8W5Jmut70iJ+xu1rtUwUC4ecF/F30O9UUnscqN2VApFa0+z6xDqDRj06sDNLv/cPgda/zlkH9O0fjXXZtVCChdtikoaMYj3R8HcVzHExmmz1i0SEDtLLFyHfmOX8FEV9qnFJC5P+YF3J7KPStbLtX+I7Us5Db1o9qxLNJ9nYaaK//AgktHryiVtttF+XodIBbaRww997+VJx4dRTeVY8uPjfPxmcFKUzETwZ+dp73BaD6CYz1gdkDNoYIpECP6QVtaVWLemvyo/tvPIXL2BYpqNDxoEDhID7A2G8N54m/WHyKRzGZu+ntmm2s2JDIaP3tmKICgg/yZ9Lgq4Olqg/XJCK48y9JMJAoAH2wO/ynHQSg7pybxkyDNaWca3N2a+MeXVe2OE/fmcJxEkFfMy1dDTsQcxaiMGbrKh0fVFpQgPihA+UdMG5eFw2P4pVfOOLnjH10Yq9BVeN7wkeHvmXJZv9Emhfp5RkSjbiU3qBcAsTLJ/bQVrDXoywVj5Vn1GwsQAQIP52jqiH/GH213daeOzOBOAkIVcgxXTBMc7WjKj00gYcyaPWQuDpIwgJ+4urTLA75hDXeOaC6i2LIbG9eXvWO8hbmx2dK0bkAfzoMGUoXSIEZenclvBH5jPeGi2YX04BktYY8mt+c3pkHHpzSPF8zndRpv0C1B+yxzH9my+cH/M1ftgzTdotv0FEw8ypkQ+ebCLf/0P4YdIC9jLFc6DS4WUNRcQNQbTM3C3WaziFlpTfuudmAOVxLKAQzTAN7tSTJLPOx4Nr4xsWVZUHHD5ohgzkXJAU3BoYFmDyCY8aVmuhi6C01+BstC4pkHPx9kS3Wmsb6LECZKdvDUyb+I6vuxIciO7ZhlX1g+t8DBSroTmabQ1NYEheH7dgLyeBq9bj2wX/lqyplQsvUxaY5I24hh9RQYu1pG7me22NqnfnzY+jWXKdOX6GPhr5vwvN8JJ+2H/WYPanbHUCKwNZd4q5D+pEAUjQ0RP1m6RyAkxU+DIYC2ur4hzUSniBZv8Me1WwSC8nFUSIQe6RSGLFFjiF2M24geHJ82Zotbo8jgFQmrOAWRd7tA1l6vVH7doe8RT+9u5m+zXwSqdCqr6JhpiwgOkIUUe4JH7MEwejXREiyph/10Abt0xhwI/ixumuHhs2SxCOfDYXrJJGnQzJLvnVveWzque7dIEDjDheIPSmteis6VKetw5EqG7LUGb7lZ7bP+NrDux6A3ZxjAeg1WFa9NbK3vAWmpcdbrX7wZ/J3JHLyPyTIXWGLz8Ox6m14ygmEnEzx4M5XB+th5xxpTYzz8Urw0u5/DC6jQ/T3jvlUVmYQk+88c/hJ/XASikA4hnst1pH+F3MpKEzDP/jN44JGVy/C1wc+AEwZJlto259kgMLEnT3DHwJurjlbscX2bhySEIvtBoz832hR5csbn9nn269JaJ/akmJipxriMesLYOz7SbcU47WaE1VKE28DCTcTAhML3A0rEnDfV4E7G0He2NnCQLKPNLGCH/zsDLcCzbu0Vmtoya6B6j9MpxC3R7M3MEJWvcZtW8GK/svnm/srm5OrtaYaqNDxoEDwID7A2G8OYEfxtSJcVp0nkjfd+JPhzqR0/tiwFggIj0fLedJzQ6fGv6VjIGXsBHqYJDgWJMbiE+OxlL7/5fr4tE0nIwD/M3LOmt9IYGFpQ44e0ev9xYa5N/afpbRBY7KlsRGa75+iI+zYFSaTEpOqzVgoU1Yed6a6jb2wa7v3nHX1U2C/y976KLQVFq3ZDvecUY0ds/vdxlcZkK0K53QGVYOkP7s1iKFTuHWlUtA/Jyl9CbSCNWjPATtVP722m8Q1+pV/xjASBZueiJtgIqJXqFq2ytXLbJf7q3ydFZwBOUrcBq2Uy1UDvsOi+lU5zacvZfGlkdqhst8LwkFY43vWcqZxQ1YpnD8qheGVIO9tUaWZqOa6RPBRnzbrlyl/QBbrBLJqjSqUfpDV6zwtPzOFu5voESNNbD2dBCojtvZqQzD/2N6YdSY3E3Kl+FZZDTy4n5WJc6b0wwZXWAAKjdNB1LAi7yzxnra27zkMdLgsNC2IcnpUJ+EhmVN0MaTGgOokZYJ3ied+rjOZ31MiQB2p5S6P8K9C9JChn1rDN1A/ZTsuxitvK6bd/Z29ZqBea9scmAGvxDK0OaM9xe8Q86V2Sg30RJIDwNVhu9W9Pauyng87UM01YPpHo7ZwonH+0MDPDnajhqp1GCgjsyaFCataGefNPcDCR7BuFCYUMcRqA4133qyatmeYDIgFVTFxE6OtiRnCYejX9JGxAhGgaAjtMbb8Vo3DOL6WF3AjQkWAKvRY1y9l3j6ppUUG6Nw7tSCRz6phlLG5uIE1S8l/hzp/AzTxtO93QoXI8W4SweVO+ybU+jjrEmtzQEnlUiOzNaKLEeKcDiUVMfz2lAh2zgkZvFJkwxh0kiBOykwBh9ucrZyNM6bQ7qe68seNGy6St1A78kwi+q2ozeMKPR5AlYj+gmDBDl9lJX4AjjdesPZdxV6/z7y6/Lvs/r6lnIsGZK14+7x+o3X+yzHHxSYi47Ds93OUm7R6UTDe90Pb/tBSkFe919NSvAB8gFChgC7l8qXDgR33pInBx7g7f2QJkEi5DkcxWbTVarN10s36ddZrlRUstavTUq65Z5huJgQ1830mGAQmJ0WywP7zFLQNaM2z+l4JckSHJI1QGjZTXnaS6GQ9CRmL5tiNUnPAx/NlpwHzOpNR07usyTHtttGLj9coU3u1URf3hMIYfybhUYKg3aS6dawUecJcDxfC8ElranUmY2OScQSKPwSYg7wj+swIPwBTemXV79TtLA8D0wS2goV0EogTWDnswEtJkPVF2E8O8jqK6NDxoED/ID7A2G8bVWgN7kPAwsWVEylZQwjFTghZvRYqLr/2F/ocFt2GGAyHwzZWrM0Oq6RUe6lJ295UTMT1QTfRqVBYj+/9KkV6oeprcltnS4aQXywcIRnF0VZSUvhOBoXPbmawzngquV8SGXCd0Aqa1LFJtIWmRBQ6JIc3ulZOnfdc44DwU6nqzCZUM5djNsLIFmiIuSzJQrJjCVM3ow7vgDxbzZrrmpvJm8+YcFe+cuGk9+h6qjuJGJAWmgcEIHL35rsKQZP/hg9R/YBoGewCHzGeC5KcNqKr+fs5O3kqeRVACFK+b/oJ7UHUukAtdJ8HMZ69SGzdej1CYZRdYHo0J1TwdOJFqB1ejus/hPLXBHItPVQwLIce9EZgwp8dIpf57xu5tHrpM8IKThoLwFUD5EV6OcM+ATDDZIIf9UPffmMnyLGIxYrYbwpDZtVUWBKvxylhxs8gopCtOTPhWl18urnAayaXgTvl02PdfhzNpP7lsjrDW7HwacmgjHs2dGjK+A632BwWJGzLjLAT+Z+5QVRy3hWg5UMUv1/PR7fsYVmCdOHyFQvYuD1C/8mvkMk0sAh4TWBMRa5bxude/TWUMEIlCBZr5kIe/UBd3482fAM5biui/RdcCFd7PZDOtM2STnZxZ+jtIzC+GthSIRlqUHY0lB86IE9HH7MZE2MkoCZRiUr360wkFhh5JfxQf53mh4xjY3m+B/xRtyKfd8mwSTv+M4Gvqk4U1wSS+iY+EcIdI/jE9eFo42FUCSbqGQ56Y35qSLAxUovKv1yX/IzhP4aX9MdJjkcd3Ky1/1rOxW+0Ch6AAqazsun24XhgF6kEC4FHgjyRR3IsxwUFVgg27r0xvw4gaRhvHmZLZ3md2Y1roqzLU/cL0mavGwLFSVqWnTUczxaG2xAJoETjNt7xtr0lGuNhibPsNf8guvYCp6mAbGGxLzpO3ESmP5y1s31pWkxk6BfdLm21Ab7DDAc8b4u68lXwpF81XI82xARSoYd8mpMYHbwQAll3bF+E2neW/5Lzqx+WYfqr6oHc6H1xgIQD/UaxsqnC42tuKR5L0IT8M7F9abQlIZzicXm8XuOrZhtquU3F3xMF9T6BWxiYkMy53+Aq/aqPC5euN6VDKh4OONw26JbJ5O4jsEOXcSwMGxvX/X0y7p5CP2yvU6oC9Gm6OLbiKTwDpoZpwTgBMWHkoXigkQ7ImnMOqS0pIxdc8C7xsDEnIi0GrYnGO7Qqsg5cB9M1WnYvi5xJgw4YycULpaF6usaMIE0rnUlfn//+7w+FMt8EaNDxoEEN4D7A2HT6iXemnACq63lHgcOgPg1ypklToLgbjht3NBVWgi1p4nMUzGwaoWpZe7s2DP43d5TCHCHhohAGG/rV6c7TDSDPYC5VfkndE5xcmVH1pF/jv0YJqtoXzxe95f/xyqEQTk9OMvyaWmWp1zdhNX6e6eb+J366MWXuCKwnMBhZgMLORR8wVEKFyzOU2mlxLuiyQvz5uZfw6ZB9k4ZV/qhsxIUUhRwbxA3MqmiPSCowOY747UU90N8orh4yAKJdtz7NjaoMqZQy9njsk8eFLZn6S1WBJVEiwtkddXzTCBJFrGLH+/FSTEOMSF0e/8WuwYqViU2ObULFzZEqei3qeYOVtKzyFRqF6XPXPNh2wQH5MS/Npudi1IIPnHihskSYohJK+FwAvvJhUrizewGrz3Mz0Bf1MmdFIwAMc+cjpYS1AcsYdIGHQe//771QFQiqNJIWApLbJTqdpA+zR6UEyfJds9KLba854xS/7CD6hsBlMYmkLUQn7uBfjrIy+QC0SEFWP5v2XDOXjjroCDtVGCgWAsBoQWjX/17V8jHucBtxeIwMbcQMv2q9xON6HmgLO5wQWBj8lcvRZaN29hYpGGWh0nEllmWTgs4HYolKXoBg1MnSCec4M/cizMcBrun3EiZiXqziPoGmZFDay4sGgrlnNikvpLGnApFGUSM9rvLXUEof7eiOBG2XyGGfUpeI5L7JTymHh3xrtTVGOc91Z7qyZy+kTBKHCBSe16px7K/cP3qcBH1Cv1O0f+DHmWybpoDWTQpno/nNEbxYUrsSa1qB7+l5DOXMcf1wuoctvTkQ1ti5mVnT+74egReE2vUVaJQcnTQhtOMn3z/+Xpy46ILvNth4ArEhTOyiS7Lz97yvXToRbwXfYZ8oVHb924/4p524rE0Ji0Mm5l43JyHjIfStBws/glW49x4TXPHu5Tl8B6fSCXZnwNql58yqThIMhatNb4LSRJWstXto4ckaFK26QSwIYlZ8Rx6woIaemIkTYfptbGtwW3M1kDt+3uShhDLL4qxvPtqcyeRDVVNqsXLlkbKSS12XdBto8itUyvA1AIYnZM6t0vGskCZdcu1LVIJ5ylfyRlKhjR9O3ogft2HMFfDWTjGPgygLtS/cvxnir3N3HnUszlk0oW7RXw1DDYDY0kItS+FxrNptn6NUKC9l0NE2kingiS2inW8VpwNegrFv3+69n9Kr7k9/isJWHTsz3S3zmEceZmAYp5JhvPi9zIzg4izA7uoqbiao70rfGI+tvpjCAJWPEg6pr9uoWJIo6NDxoEEdID7A2HAj/Y8MHpbK2CJ9AJaPqs5rwBFMhv5xb7YRbhsPp1kBwiL93dSQVKoMM9+mCm8I6AYiEW5jTjyb2S8cdmFQ6ML4uJVVg9smMtjE8BE8NxOjPYbRRJ1Op6qNK1wvZPskwanJTieId4YWP9SSqYR2p0Od20kKGyxFtT/kuNkdaJtDDqPqjwlxPLhHq3lVSWUPme2MyH0EEtdwPMw87F/5ou7F9wX+LhrDrOssYwWGmral2tOUJkoZNhTzeLoyHt3sY/+eDz/Scg7AMJKsb5BPL8m43GDHM4zQJloasA13CIBE+eXH97aXOKiOkQ0mBHgAOTAvIIZAZSpC1hrF8SYPLOizXy55MdpQcYJU4YsHtNIvTdwXOXsmyN4zCB4sggSV/Ks+d0y9hWbjDhTN+pnUAfVqedmb1r8kOrvcGjf9ay1YbwpNA2XXZ+sgKuPAZ+KRJJYnbyujWGjIrrtJGuk2tDMU5wtJ7m5H5pEs18vIL4KBPXHrvpHYUing98Z3kkcDZtIfY42CIPgz9o3Lt3c83xP2Iik/cttHXvFicmFqJTuSpULkVr30mEHWkRnyAIUk73iLykLdk8VsmVELs8MOtcop370v9PI2d8J1UFy2GXGQV4bCPaIfIXh5Toz8Cj/PLcWzTn2SKJLFFh3XR+SruuN2R9VtR36e8gTLHH65bzETGDA8c0gj3QdCC9qUmItBTUpIr1BYnOQVqrZXR79l02X1bB1XfRHdDEmHCSVhTuIRxqYaFIxKyFyBNfmLHYFHobcs19ZzZfaxhnn2msuGGsiYtvKj1Ujs/kDMC73GyLmENGtqK267K+DMiWc67z1tACFUnNciy9//pPK2q5KnTJhtk18jOOWT9MHJtU8ld8J3j0qVx/6r8uUkMj1KlZqnnvBVK4OvGQ2jswUmeefojqspLp/Fz7f9h7HhFB+t3kX5xLsvzg66PgsT1G+y0R3M7pNyZVLfhYy2wPBPcNBW3Q6OYikzFJKS6U7EOJuwLWyLYlbWAbXMtQY9sjCfyhvBirWtxUf4C7Hp4aoJDejf4bR6ZVz3axai64f9Dch1pd93QQ7t1MDSVwQ7rtexV47by13gGcXXjkFCIT6ZeBODimoGMfT1pyL4SpvhT5v2yV7D5and71V98i9pYJV/oagjRDn3h41CspAIfy0iS+eCYjlqCTDoLgGQ8tBVVU7fK2aSpxt30Sa0bJIvecFvN5f2Y7DjGslzHs4TBbmTIxE/Hje2d3wEXCq1mKxjgCwfZd0iYr7OvrNDKHY7ZH9Asjh2qNDxoEEsID7A2HSE8+Yr+roSaB3Lgi76xfbNbq8MJlUsFN553TEBsTGY9iDP8mgkMp7F3j/nsNMvMevBlsO3IN4pkPnACU6g8cXwiV1qNi+5pCpTczBgKPhhqREAm/jqF7H4EN37AW8r2DYUXRhxgsR3w/uApIEldv465gyTJZ/BpYuGnDIXiX938WjYJdzQHwsN4fOWJl5+UGpcpSNOf3UUhUA+CFB1vpK9UCBGOiU9nBAUvwHLotXOjGXthfi3UqMsxnVwfTuRYEDfX94EVeRi+Mr6RJoN8akOt8Mo9WobKWfcL4cy74CYu4sttDm7rA5A6ejOy1pd0uiRo7K5VnQ5jfIy8OWpTyiVcH/3If5dVYB4erogpZI6Hd36O8KyC9E1o1f1z8wnll1KzxJl40hbXcDAS1eUbONjjCg6sx8kg3gOfZnSkc+YdVTcan/pRCJLmdpVCnpaVWCvWAU0SABOZYib9D1ukXJxWhPD2dVZV/tLj9hvcW3scTyQwhAuSesIsLFRVHJ3E+17ssfTt4NfaVQbvRLupZY7xX0cD3f3fg2BGySeszl/4ILyFwMV0Ezyt0WK0vEtbHzXPrTMtFHShZQYQ29OQkVW/lckVCkjKsGiJ+R0OzMsTqHZ1I4FYo5xiVy7n0swz934tR9uaugfdrAIUGN9+0JvG5JzC/GXwExh3gPhUx/DBzVjaxnFRhU6FHDp0Of8kk5Lm5ZsjXBenwSO/c/thPiTboopp25tApBK3zViobolIVE2QWng1suZHwLsAyV+v5bKv+dqkogsZl8NaFlKE/yxP/Ok3fjjDNAlYEcJtQsb5Cn5Q6Q0YhIo8oR9d8dH/TYm8LYyueh7GvB50l0lEdhvCkKne1VBepDwibguVROdH22NwFqFMr7jF0f9b8lO69CnkzNWvr/0JoBezyEvIO4yzmOcdvMCZiZoLrduEqwhNBPdChpn+a3PF67+w6I1a5zf6W+1Sl5Fa2Bj0R/94hfGqHge4Iw79eWtmwdWm6xlvhkuF7W5JhPPoIPWW9/b7R/Zn5CHgQMpWMZngP7nx6np3ADLBkzAP4DsIyTF03sJk1a8TShlA2jwc7FMRFY1dGzP7BqYfXKBHaRoEp9DmHo+Smkmn9qcHp27tf8Jo5W7E2nwSGVHwjnWtcU4d2aIpkcUd9hlHwgxKCTRXZtpMEkhJKT5ZMsvt/ICNrSag/+EAGkOq5GIIUILbZ/cUZbxqTU9PILcAS9E0s6kC1Kz8pd9vLBC/dHt51GFu0aKjXYjLaUt3DVlAKszJAu0ipNuKNDxoEE7ID7A2HgBn8rbZdvUG4XBPGjgrAy57zkddU+hnQ7DNYUVob+7UfLERzvXvy9qx5ebLLUS/YQlV7CVGyLz5FmgdAUzhLV8vJsdPcTLQw8STcNpkF132a48TqCLqAriLpravpvGecQ1grGkXSaRuIsiiEniaajvW2S3CaWn4dy3lDZ7outhsdEarQx/yCfmeogCc1N+nxSb+GAOqjAUl0L7BooqkmmG1h0Z7PXP+7/DnvdB1RdFeJIjnYiab0UpTH1HjqjYGTgEL3Yg9Ow5t2ikeQmgIUE1PhwAXW6FgEg39P88zp7pcTcT2yTS2L4wBkWtDNcWbZRx0KMhJ77S5IKgEUhttdHl4yNNWAadjv8UnWEMtrQh/zcdaoGh9vMWAdMGnxqwrfhbQCE0SumrvjmP7gcdRmGfxxxfjmiTDKt2z0YwJYvYcB+LyPq5Hto4cha9Cb6jXrt/Jfwijw7uDWnbTzy216uqjeZjvv7hsYjpFomRvjzX/2lXXH4dNkElUZIIR6vss3e8kqg7gP2iqUfP04CpnqrtSOMSvq+M9o+OINtS36mfPa3Y2NRAf/MSH+brc6Bwrxoi75vn/CTKGAt3PiVLY6KSnC7RLFEuqDE4iFPD4Zxq80u2SwKmibiyQmlUsEcsBmZxxK5Q89h1x0TFyhAe0sfsHemOgoXutjVtrrGK0HcAX/MUdIfDC1FEKXOqLWTFLqX55Sz3HPxcrUeqgJfxI4oEYdTStd5zUPyoUnfwZbb3+AgSME5Y1RwT0f56BMzbCHbWrr7BeBHtN1my/Sf9yUh6phkcUBOBR6LA5Yt9AE2T52mW4HLH7tt/ft3AoS0JEaLfmUshjClHOCLexvC79hh0gL2/5qVrt4dc2Y4OyfkhIuihu92+EzPylK8oDeXmSaZsuFXgK9hVP3UbPpVuflVDp2m130myzR04KUNF6SVEktVDDYazq+zF0FvVs9cHEmw2l9xKnWi31dqWVLACR2DzN7jBGfWLsZtvY3s9f88mvuuZYcv0jufnhhZ2Skn8vF11itWBS+xN8HLlKXwVnn63GumzBJHLeZKuIWHy74QIfz45iM4QsIFMUK5krpZVMqrSl8KWzneq7HIocUwBFmTHbSDvvpUJniy/5zcjlKNM9yBmd7DESL8bFB+FJihX3YGi7ciDKxfeGZvbNkr5IcM3Apa6LSr9OzPPoedOywZ5KOMFmemGHtTjrYy0E0525p6inh6mc1dRTKjNGavBOKCmh8bgtkJ8DhNsKj7OES8GalOrwnlFw/ua8fZMhY6y6NDxoEFJ4D7A2HRvc9V2bH3fY7WSVCDm3NM/vZYnLwcLRP9+v/kHy512iE9YwGM5BWHBn5yt7IaF4sHFKh7LLr7D1YlnN5jTtTP9YNmqRZCE976HV2xqAdxorX9HUhv9Oy7QTIIu4retAUQ5oOEkg789j+d19QhlKFHMtQjxKZQN1HZVo8F3rtn6A3V5jBhKciG7nJP6IaM83eKe6QsnmMhroFGPIj69SsgGYgebi5CzvSesXvyqu92eK+2pGbVu+RUzvBYK7HV5Dc2Nu3F3WGM9fZVli9HNBjJkzLWIPzJ/BN6us6o/w0HLB/b/iDCZD8xWEZo9Bu8BJJiCupQQ17nTpelJ4C9upsx1j2SyvNtXN0jX+mqC7+9ZdBjB9a7ccFphNXqSJWIQ0VmvOE17u6supwf5smP9IOL3oyzb66uIbFRlXhd53ygYdVG3+d/bBFpgiiiYFr/XE8gltuQdEqbXXvPzQgeZyes6xM/iIG9ZUQatA6ST97DiFfk64VT/cB7Rd0W7tX203OMArlONuKCO4gNS37f552yXI92PrXjRPcDEVSPkt0yUf9lH5JC+WCm6pL/fFSrHRJSGUI0UYkleFk2WJ/guYW95ksSZb4mgWEQWfwZ8cJ3PKjW2yghQEzNUEINUVJc5yVaoohFXoe60636P/LoFVJtbBFuup94geRUrE1ujibuzre0CPDE75S28VYpayt+D40T5x8jbHAQe6JeZWE+syNv9rFMm8UD3VGXFRdXBIQIhgAHtIXV2eTJVrtYv3wt8pjxu9TTqm3my8iX3JV9xoD0v/JoB6rzr21xh4ICM99FHHIuH+lR7o+F7Q10fVcIsqM6TSzKFCIoA7sf/TjOxA1huKhZQ4Z8vLUsFG1y0fxGEjKUN00FbUg+CS+RxHrZCik8h79GkGy2Hkin6uoxfL8SP3qCxZVOTjCTZVa4jW8DBgpUdbiOf5UadqiYUuWHhFAmD3c1IE8JPGVWl4c7wnXx2qI2LPb+NWDZgelO4+V/NbLwwhHK9HeRxiouDFcQboZGk+MEVXxpD2EeqSZh2xVjHK1m3ykUOmTNU5v56TCrVOHuIPf3Jba2Bpl/o4ZuOTjg+dTxzTKYprt2SJKrjws5/lWfwjikvdXEEllGsLcfSRjt81DohAId1lzUSiJ5/H8ILfoQEwZaBWap/S1M3ZW4a00A4kb9xx1XPm8o+T7hwab6EQuP4+yYO8S6GWhW9/h3n8Ngo1WcgBu5HonV+QKpAKjY5F+EiCA38XTAb0TeBct9xt3mD6DrqMP+ZbrJ2qNDxoEFZID7A2HgAkYFg8of6hBfdMjs3RQ1iHUdOEFeMq3xXxUts1/tY4KM+XgT34XhgQ5jyQ/ya3rMp9W+ahzcIfvUSjLSIE1HDsWlyCc5jL3n2DbRVq5i7uOaDxorVv2hB1InambWE3c2fGii8UEREp8cMNETeKv6UH1mabJ8JjWPT+rAaoGLHpehpkCOuRvE6IbpoPv7zZw8/Wwv2m2U5K10MUOUqdG/sEVccxD/zH/2e2PnX4OVLuYx5uRwBiGA+DZdsrpz8dCGAwjayGl/RRw1hG0r2+e3ai0iOBhf3W9awcFYZMCZr4dANHLYjRVTT55sP5femYbV8Qfsthib/AI7fvw0yE/lCxXuJ2dn5I0f/C37/2NSXKYrgastSQ+AdC8yc3R96XDeOQONft1bpsgKPPqftD7kJshcBTwnH9HZN1TrgaZKYbx7fCI7u5XRv9poPFNQmayNpLVF4FJeJjgleDaEkBHpwhx2im1zgduXgf6fRQOAQvfTDpzAdZMaMVfdOJkUcHmHYFn8HQaaQd5+U0JPq2tAPtEEhQv137dpue/1POL36DDORk6JikAU35PPiA7n4YpLSdxA3QZcEgjN7nCLwjBbwYOQGPOwhQW6s+2y+k1zmTXHktc7ljmrhcNll/ZXPXDISKoo1siKsdOJb/c0wrwU2+cAlCsxbYhKoSratLhjlvdMY+u3YSKXtY3Araxda1D7BtKKA8cKJRgCyysC/JN0R+0wMOH5OJfDR2SVKbAmJoFgXQ3ryP9rCeCM1Yvb8jcvb0Lo4JKss/63zhRv2UXlYuyc4pZc7AudT2zotNvMkl4ZcbuDlqqkpMt0Ta9M1mag1NAaA/ag7feEC1vl4vlh0gXMPGmgh/+DXD9hPy2rbsN3hKJwfMlIGbKw75uAyYFk60PyuMcsInSWlBvhLdqxjnVCiBKIl6r7DPyZtumWk/dweAsvWFceGUGr+vZ+o4zv49qSHFA2JiQVJdmR/I8k/PJJ4eEoXQMZ3IEEv1IYIsXBpAfrd2H/6v5OoSRapdXz4avVsHKdA3cvUgwd2/+ZSow0PCCcsiiW8csVo4JfvKrR1QesV7rpfbZsFwcbsJNxPDs9Rr+e5lUKUfRWs4tJ65UrtV1G3wMF9hu9VZ6601UIhNhOQWlzZrGphiOMkcNSqIfMEqVeNvOcHokLhDwpnIQIUylUOwGD47WWTr8t+37srP8lS09RlHX52t+y10N/GBTJvKOWEMtJ6ZhepzAR9MqIfN9P5sygqiZBqah+ot33dPd+UADvgY9dlm67p6NDxoEFn4D7A2Hf8rsTJvg/VelDxjgpy8PvOLpgEEHWaxSVOKfakKNezcDwCI5LDKLwrKG9Hu7UuoQMebY+kjR6IAcBSia4TzXYdY3tSuwH62MI4eCIFb3M7DcbxA1EoSjWN7YZXWlEAnbvB94taoeRzbdbwlmKKyk/9Mg2HZVCxVXgnQPOD/ArdjrT+e70f+DsZ/nrAdPoLSdpSOwEJbpHWa4II8hJnNS26L8iXzCrazjTkrnCs36ezSPAkcYbjcekMpeyghTI6I1tCRXROQ7fmDivpu/TCszo/UGWGmYTKGYE9iM0kZcje3Xp6nNZtonzSor6mVQWKF+aCb15ULt+TISCt+eGog7XBn36fxAsyY/nvp29WBK2jiOkkha9Ki00z4NXcA0+AwyhnQb24nz1cy7hhRO6pebbpq+Sv2yzQfebxQDGBV0vYdISZr9Ou7ifKRR/qwrLNzkPYehkD5HI5IRdP+e0BPnhGUn8ndLoGtksIAG5GQGCl7lizoRpRaaJsN75mIMeH69cjRI50wcwRlAGPOkpw7ENsF/kSG6iAc7Kqld4aflBrfYTsOOllE/RyAflZASrqa71A4JbmWaDZAQuXrSn7M/n7X8pE9TfVGn2boXaApXmN38Qz640zLESr2RYX6eNvyVIxdU+HwbyUvnj7nEOMyalNpZftbreUhRJrZjQTFqC5NKiC3bIN6XgtQor4M+JLTe0E+2tMjclHK3LMpkcEiuLzY0SfI+UrJGnhko1UGVB/yrglLAegnJtyn6IjHTm+t6pzJ537JX3xH6NlZDlzxngDKhBY8exxspsokDDV6QJtmz/MCMIzxzvJDhToQtAgsUNAa5xUrKR+4mF/yi/g6RhvC1CGi2eVpPaWwOi/IPjYswqwcgdMobMOJmexu7/WFfEviKfw5FwlMACnNpwxqzYhUSzY6dgZ/sWwpVLRPmZNwiEYs0kQNUl3E+R4Z/hlfXWxJopIZnRe49nsdLHPZahJ6S5RzC2I5sXJMjIhdziY0DSCPrlln+42xB8mjxDaaIs9JXIeq/XkhHYBd928OzgUvkoJWUWkw+V+OC3Er4s1Kr3QRu0dp4TRHpZxVF02C01fqYJRCS5A4By6NiRzGomaYse5BKSTj3wIyI8in8umi39hMgLN/5bEJeM+Q0VQH3IP9kgkNxc7y0BD//dGM+pm3UryI+5GVR3CpHi/SBskfTJ3uos9IQpR4UOKi7B53QKfBG5vucDufmwY1VASCR8tKAKEVqP1vfDN+3qZxr6aSC+O9Rbww/8qzKz58qLSKNDxoEF3ID7A2HVTFgWjv/1ifd9/nBbH29SfMgiwGFcwENNs2W5RB+JFTEoKUJoaWaF2y/45zwphUpLtP0d860uhL/VqJHgb40f2e4rFGpfJWHcw5pVfMd/8JS96Jf9gmvSvMb+euO+92TJMT6NL4yCKVUzR6CFB6z3EUdmbcBopkuXhjnbHRFxM56JLhWeKU2mT+XyIDwU5Ffvrb9rd5qumJsxCb+UfwWIUZjzsmo9xNKNmkzXV2lZSqLc2leH5tqi+N9eCDiRi1F+5ZjzeL1+BfpJ90yzEjxcLNAz9a9m3uwgQoSwARF4n6WCTo4lv//U2VZEx5mx4B9i5QqkQDMh5jcGgF0SDqNzcxY8cTy1ypBtuKdFHI56OJGrOqNb8nC3zRAPVrmvqW4noYxxa9KxllyHjsTrrUqqZV59REAylCe2cn/GQ8MwYbirp4tYFSt1lOcamYS+bmyzU000x2sQLVaDFi4SwswP4siOOiOoR5mEMDRuf8XZUHhdD7ov4C3NSv+cRf6qpsmWkbrmfFT9R+R1/g9qj042f8/M+YaUdJl+qYdb3vrITBzynoni9br2kJ3oTZeONkrzxOaAF8bij4KO2HWU/PmypHxErUnQ4qmDBs9iMY/E/XP0vbbheaeaHldj9cYv/ha/in08T2IzYCMF9lgPZ7dDUzrk9S6TXcda3d28te97UqiiejZ6TdbktPzxER78u61KngtQgVycUTYwh4ILy3DcGjBBFTlqpxohSl/xOIC/n0eJvY99y/qR0ZNjRGypI2z/yDDsDp7ezhoih88VUAxBBl3z/KpDwLuQclR4vPEbeSkAwfOFiYn0nvNhe7GaAKKg16AJSF7//cnIqiK6FiFhvDxEfF0vmb7nejfmInTOreXYSJ7ayW0HMhTOiv0H//U3wDqpZI4hAyuN8xHN2vWR5sm1YDa1URQ9ANl2qXLU9Gdt7yUEruUCROKPIPdAK5tzSlw58TMHtMXnFKaQoSw/Ra+sFFl85KaR8h7Pw4cvsvPMXJbkNu9UNZ7yNLd/yT0edBrOMZFcy49kHB/VZc0pP0sSH4W3uEcktuEEFRporRyyIbauDCaNq44EPni8D2W8JLdDFLEhBu9H9vRkm5lea+gC5v3vfW1W6j7VSB4df5PpIvugC7xyDtvJ+SM1+ZjH4ALjtCHsGThlwVZ5h4RENifMFWKS79NuiQxPnjXHhqzl36n7qRWl3ADncmZ0flACCQ3MMxeT58d/otOhXE7I+N77D66dIJ3fW9NK0KC7YpzLWK73fX69u24JEdQBMaNDxoEGGID7A2/e81A+2paSNeeVLayUeoumZkcy7HDv45zqYHOObNZsZTFNvG3rZotlIhBnb/JiUcXs5Bp3T8BckLHHF+CE9xsMPQqjzkXMmTzpdGU3o7I4RVyiEXLontZXecC8RnSvfrcs0OgYhBBrIvBGiLnoUFPx81pklJgUlOHsuGeAur8OKjs6P5pA7rc0aU+wEJZ19XGO/lNNidqXgD1O7lK/OSwV2jiq+d93x7OZ4h1ArnabJZxiZb/28sOYlbv5wuZjBssOmRRFFNbxxkgy4RBcKPtwCMZPLS1SIiCLwIo1nqG36CJbqvdPO26rY0/eMxJXkBSFnoRtyF3xvyKCyHDecDlj2ipcjfzxw3V8tJrWxUIJc+NklbiwMpPW6fMiHd2ZSOiNekLTQ3d4/zzHztUQGoPQH9L9g6h4ovmfDyUpwcspYdIFyml7q2hWLbVdiarLRm2zb4WDrv/s1RWFFrqJu0h45ZC0+h7gPWakrpfY1FoE5xiP/sEXjBNHAv4ODV6fU3weknGBCU3PJY0QHtkQkRvKDQKThw0D2s9FeM8xbmw2j20L196pu/pVg171k9R/bCfTfc0Mt9Jkwfoz9KLzN7mhA/Q+5i0IpkCuSxjHy6VIhvUVAgj5eB59m+IPPjeRLl86elViku0d5/yuhkcaAnOlCMJ1k67i3ohI5suq3DurTCR0CWQKeTjYW7KhTCKyaZS35XWsZVsTWkrOxn/KAJb00GeTVyz8TqJF4W9mhcLC7HU79cRHPgCrb9fFOL1RAy5q56Vktg2fxolNuQN88YyFG7OckX5zeqdvaja9urugRas13MldHhiXbHWJ1qlX9hiI0bgS8TUg2MCLevLWPAdh0gYfQbhFf9MQ7EMTrnLr9bnirjpOKs4pxlNpOu6taqm0TOu4RbulTdVCesO8VMe9QpJo4Huu29gVDpjZpne625CIEmEhaMBtcD4XzgzXnCcFxw8zG4lfXGpfzzZzRijRHkQ2bUHdgJZOXoPI4FjLskpruR1UpazKYf6MwCZFi+0+gMCfXVRN7GEu1HgSmaZaec/8vl9mugXIdjCMeyzII0HgZY9zQENlwmOvcP68uobBzwFL8Cdhgf9Q9z9Dv9mXRJxyJM9XnBkKhKX/SHbv+4EWFMbzvwcaUenP3GLYEHwpF1zeVGnyh732AvcrYbFvhQaao9/dmuxqCkqU8+X1J19UkS7Lt01oLFcwNYIWFkxiwD3jNZZwu80a7JW42sfi6Ll/4Rada9EkGIic63XmLmdU+fNN/BQ/MsBW0HZnUKNDxoEGVID7A2HSPl4gI5bzpOqZ9gYf9lE4MwyZcpCotbr+7k2CcM4JVX0bOSTdxYcTsdHCgEojk5yyu1rwpJzdRfQPmDf4tT6qMoDobTiVPrer2QzIHsdAo7yBDI6WtY1JuOiXQeWCyJZFgDVG08aqhBeIdN+IssVV2ydcElNTsNYQAJR4NAt0PyqYra0lW3UWftdYxE0MC/mXC+xf5O/BJ0MVfqS8Mfv+KcTTCYi4dsU+a+j7Zb/bpyAFgtbIUaSElfm3dXEkbkwnF7Bmv4AIvV5o+o9S678Tni5En05vRLtGFLRQMjx1D4fAKMeh96MO6cx4cBWLR81eQY6e1RQ92sKYrcgnfCGILkxAjkRWsFfyPkA/qIZs6zhSE6ljRMKmzXdpMdnkmyVKBui9z1Mqc8mTZlxesu5rqUFbzrDRJQp7cuOwCLwLYdIHHAfgjTmOB5nudZWGZrlEubSlewfVoosVqx7XuMe70I7wGuPhkDlVDYJyYGbCwpmM9C2YACvI25B01DlPejCv1R4fYuERCaRuFZK/cXRgxQMcD9PWWDd/Iuuq6LZQlIoXnC3QYEq8dRIe+TwZ4qGtZIg9I3zB2XIG6iEBhCeqURGAg/CBVPL5HWZy0h/TpZICzL512YHAdsnC9UAgdfUeACOEv5DrqbuX58SJYvJYsrKoY8CVOYSeoFdoNECXozrpfHc26SqQJKDKg6vHsNDiAPNUBvuP8ii822LBhSDrowVrngvkU7o0+sZWNl5MEP82xfhXbAApoQ8/+kFK6q/+WryguifxleVwzSNNlDieLMUz7RTZArAZHUCtKNHNtOfwcxYk7x/Sf29WTfA/7f2IKXiOVAuN2rkLzMqFnRJh0gL7DprKqv2orB65vHDjGW3D8lPQG70oPQUPtIrIjQn6rfGoXehQBSXIXQ+zUJmEYZsE8hiqX8C9LEU0hAVSgA6Eye1OaCUbeUCcpgis1PXfzbtZN1Iw1Oh7nXsapB7LUp+qMVjdfZCXQ5cEyOlf4XLk4b6KsLRH2O9Pe1IhO41BbObL00Fq3KTLLMU/QqYD6h3lNYunrSJEGoiRGBO7tXZ5KDFHfYtST4kAjmDul1Q6RPxEfM0a8PmhzKFyFlqtrdE14DUFrXtGWHf104e32j/G0ThXKC4YNxtHF+wba7JE4cLdgoC8NZg6WhewXr2EZ4IOKFcwAD3B+3K+iQBQkirvWyGVeIA2uU1jztPYzJ2L6zn9rmkX/QtI3e1Tr5DwqrRQtZoadeO7VnJYGNP7Iazi/5OHMg/1DSwGVBd+haNDxoEGkID7A2HSAnht63kvFq47nV16FR61SPW1t4rxE5bnnWT5Hqz/gKZ8CYg4ppc6x4/AOJJmdJVMz3x3h0lwBw9gyUA7B1iTF1FY0r7PqIa5uG8D7sjXDDQBnJnCZqfCxVHogh6hEKODg3410y1lAu4r+Li0dGX4juvy5ZkBEZWckC/1ufXYBtqNSn/vDq6AsSxDeUbJiwfpO2PQWYUzhkdEjuUG5gbg7q1licocSMUa8Hn1ISe1wwWhCeZDElmNNvhrsQ/9aXNNJFQwKeYhIEy6nruu3cyXfOU++7xQ6qhhM4R0xIouir0vk9/HagGFZNYGGzwhJ87wfzx7wCT4c21+lgON5BZFtuXKzZyEVWU/y4zBwhmbKMuOe9jOfqbvvpXRIrGTfs18DNqh/F6fpiRcUTQll4xBYBTPhrh8SjubGvafNuVsYbgFO2Iv9cijk+P4jH7uW4p3H/U8/mo0RVMCqy5NWwM5ZDjmv4xx/eZw+GJIOpc4E6DLrk4hHTYkoYflM0R9qN3xP43g+vGWpD9YXdZqATxqfmwSvgUq7rGTct/msnDTDxOLaFEQVfbR1uYYm/TgJXrdftqQm7zF9VyIXHrE6iL9bycHgRAedZLDUmx0W6xOAnZG4AxW50BgR1Ylf9ElILpI831wPQeM8crY18R8z/plkGrFDL+ow2iSQiA8RJD9RnsgOexk6lg41HD46ZX9l+mF0QSXXCEJTUt9KrolWBGo2x33r6rTBnkATTqZmBfwndV5aBWdPcEpZmabcKfjAinqLgTkFlFhtr0gIV8b6/E/IhrmddMgBBJowO/X5Utmb6O+Ep7P7qYBAEJ7i0Mcnvh/ZTX0DbQA3Lhd2sKf9lphuKoayGR3dIjSMEtZUgVLN9O7fZ0TP8VZZh7RrwzKSmyENZ2SGaSjUnJ9DNbbJBUjgqNCrGI1u6Yd0nCiTHP3CuCc/QYRH6v4BS+kqel1pCFc/pY3DdSY5u4qkR2WAbMr86Gm9MpPBSeMsSwvXsuBN+j9dPy2n5GG1HmOd+asvBFptg1uh8kJ1IMB8I1f/qYbTr7e8Zc5n9F8Ku3Y/su0I3d7VHAgZ7vdqw0xjo0n1u6zBlTGX7FAfRzBwdL0mBWxFTlpTU4NPKMcSoIsMRc/IUhTTfw67eIp/dmlxYSTX7oFRO+VoTSrfFg0aYy1ZjiTS0XNat08TKztzbBvtmGxBEMh4ocXO1A949gQL3qWM3sE5UWY2HLxjKW6hKZRLDS9E2Zn4pLZ0DrWhX0nH8zTMmaFytX45yDNsUZaVMy4C6NDxoEGzID7A2HSPqX65rJiZsbxyirRinv82ucvVFZ6B6hjbMi1aTKIAUVaKjLudxLeVltWx137SqY8nm1UY8vowTMD3wEQAVc7hZF8JaHSCUie7f4O1E7JDr8Kw1ZgmHYcNB7k81r8IBGFLf1/mcgo1irJDnCUTumPbGePAy/HDvMXOwgq5DqezCl2uyhUxFRlMYHNEGL416HKmwCEww2lGY0iUeNWAnrAxcWLkezP1mj+KVdjGHCTR2T5uxtfDUytqfNetKNVfAxrZxj4PWGY3g/SxJdbuImsvdhPN5vwOznABlc2DSFOdiJL9ujhxmL5a7y7MYT22R0K7tueSc7tnjBvjViNwmnQ7RGQ0sAgD3D7xfHLnl1rpWSOb96Ecan+YF8IaZWqAmFgDohc7shfLfEN9Wyd71br4M/BhUGvESeY6K37wd5vYbxuXjLce7BJpIPNdItAo0cZmY9f4Fhf7hhSYTc0Mmu5gTn2fW3HG+5zzAo5G3xEPlrKQNMRGxGAa88gkk5uMhjXtC6gknK28wkyzXFsBCC9JNQ/n3d00xxa6+MhQHX1efrhz01cboDMl/VeLqUF3WiTBpiTUiUlnbodhh+zgDrFKqLJ5VQiG2PdxOTXEv23KKtBdsAsX5ejHFEbSpVE2te3yiDkiikJTmG6cyqC+iJxPC1Xrv0bUC1DRlvyDs3eld5MFqJgkCpprXlXJ7ao6vweH84nTDZ/u3Pfyax4sYkzdof2dGt4zyKqoPiw1IMWBdmPvvvjahEszCZN33BqRNUILkWG8Hg03vFUn8ySsi4Um84ggt/kKPPp708j5j3p2i6EEnC3P4aLgCVoJ+pditjE466hmp0jm12cn/xnPQRh0j6UvtB/NoZCb0iZfvqA0ERSFzGkIhfNik+qbbuie4w2EkquFmbgscTrsTe7mjFWZeGi1BEX2JhyAy2el5l2tVgEgdZVsfOenW21rx56e+6ItEDGfGbiYzfWHkbr252lIKNL0OWPovan/ZCJ2ioRLhHXJ/1/MUJhyhPDGfdUoRR8c88Ipz3f5ZmikC05envE377nfrEpB6eU6HGFoOFyC/QMse584COdb7Uy47laZkhA80jFMq8pQPEh0GLYDVFhpHIn7gsFfkRVdY1iSmdvIyTm/leiBukzqwB5qL3Ln+vlx22AXis/bKbKa4OOjm9l5YtOYPK86JcjWXbWOiFKSitnK492DOzaPJQ7RXPQUivD8EDK2f38kFQAwft3TqUB12PP2+xC5Pw2c0CWnWJlkwuBvq/wrkCCGQcmbg+d1aNDxoEHCID7A2HSE6BeHbB8XX1JjIRgnk0xEINmiPbEN6z8K1pzwHr1DDXEzXcMLHfmjIF4BWnTj0fwWhHZdXOesYhVHfel49uapErr61f/LdpaAvvjM4548BMrWvB64zEIgeyvsKLN8zYsfGYN0Z0OiKWGC1n+ZmCKLJ220mBAlaJSKo1UsCH/WH5vhbOOwsQYtLAS0PwvIQ4c2blplNlKtHMiyOnDw4NjeA3qG6JLwGpFb1gOpVxrxr9bIwSOlUcEOalw4xePzPdHt4nhaHtG3NUV/188ICtKnwHcIXToqbtpbUo+8DhMaeeFfpIZW4faeJYanvuPlrPHDmRw92Dhhy6MKkEqObnV5ngrg3aeE19of+DaxzZSAcvt/lOaSj//3BlxvxjDwNZNhFbsaQQtiubeqzDUkAupwY0kta9MSjTVo/0qje+AYdICoA96wtEkUf+0HnatghFJKo663ZgSTMNROkK4gBUdZLMS++7XlV2PCl8M24V3IWAZ1O+sft1y8pjQ5GwKuqAq33EvqKitTdRYCv5ScrIz1atUukogjftGNODgyvLOzGefIPp0fzXMWDhx/yqpg02iRbi2g/a2aq59TUwnaSJi9EKYXwe5zI9Ifu7EyrPBjC88aIqmjli+Jye6XfB1JH44HPniyxAGoQtRnagpTetqB0JAFAgjsiJBaexa2vwOKyiTnBEcAnkYU6IbdzvQr1oTXvgHge7eA/wA667xc3D0gpjcX5OfPRA2482kgJfuBfcmQaX6ggEAw4m7EPcRKP4oH9RVE42AKV+XizH1a7FZw/AZUKRYMnfUXyBfENA1P2F+K18R0G9zHMnPMavENW5KX/jq7lvZ1R4bf6Ns3lNhurKyMZq1rkGxnGBH+hgPK6xZ3pMHQmrb775su3pEdAdQuAZ4TFW/qmjoKMFTTlgGW/9tlWl/PgntoQtjzJxbA25fy/5fcONOLGuTxTjEbWlutyipemLd0rfdYZ1X1MwJtda72p9D9OQFSpeszCCqgQadKJx6Vuxet/SyYYCv7DJJcXutxaNyuMz1TktjiVhHo35QL7LlHAa4KcX4nHlJ1lAnTSM1+nFG8xPoOP+dmlIuiAKQatZf22rQjyhcLgXiZl7AQ5kqLCjTgbKpp1ZD1BPdzWsWzIWIsEfOKPcM7h3oGvUCtv6TAdpRUwuh9+mtxNSikU7R6AvC4iJy5JF3SxbTEJr0VpG9MBrrMz0MZijHylWBByai+Qpw3BvgSjacQWg6mLIJWWt5tdEfB+AwIZuiM83E2iDexx5WUkFW6KNDxoEHRID7A2HQ2gH4v8RraKprVWOgrOkGBcySNHZKf4darV94R5+LL7lqYidWd8e07fO+Al/RABaVfmTRCYLSKJEIYgaCorqM1NSxxejt0Kgc6FbeHxQCIO0SY21bcOVPbAcnpFdsK3n9HiXAmaM+vN1CP41G2C2WyKOKQuPvFvGrHDbCIWMENowT5ATPvzslZ5KOHEXG2vVmhBycsFRShDTB8VZQ2nnBVp4gnQBM+kE7pBXzlUEHMBa8FTsJ7fj0k/Nt9RpuK2LDG0oAH0mssJQ/AzI29WVmDCmGuMZHxsiMnBLKaWQDCdkf9nV6rXaehQRwB2tHJkWN7QwbxUvYFyrGt1LYlRmTNTtlFl5wf+yzseKQ0GiXd5fbhkPvjR5j9TAyx9BNYFjeBAOv+oqKtDFKayAR49c9nHNCyPGVJdC/n5t4iaNPYdITlhdpwrAEzt11kCQFovhdHE6Fm4mc6ai+FzmYZ0lE1szVv2j2qYgkFXv1YncjOImRAm/01zA+lBeZHT1/dvO0rb2Jox9tn2ED7jNGJVmOTq6e3k4pXVxTFIxz0dN6/qnweUu5ygOM3waHNxWXF22hSrYJwXntEWBU+HFpGVMKVVXqmO6t5nGRolyRzf30ZVw+Y3UXIk1bY7exJgyy1FkE5yETV7qYJOwss3m4Aq/cY0rhZ7kSFjyXAV69CYeWr/rvLaqetHZxiDHi3+FKKCOyXaHQmOoFUicQOrdU3gkyHhuBbI7OJfT8AoFjvbHNOGQlOH098GMDIixB1nJWcRXIN5NkJeJ+Y6N9DpopOG37JRD1gan6eOCaCZscJTvku5fVoi8tvsfz8lQTFd4s1nX6IwE4wUJ76b1On00Z4O5hvCkI8Efb8CXQlsjiCiaHNBnoxWhzpiOOdpMmMK6bUqG1/St7/2xPyPKnaODXBg2E2zbzQcufpISlNJGHv9JJ6++sj3/zgMnmAtEu6RnEB+lPKD7FlzVcIPriwt8cwN4WPphebLhsEmQ5Ye3RBhR2dk4WVLFmZPNmbDTuKObzd1xk71Ao8XWHZwPcJeCucI5fu3BuRzVpowSex6OIKtH/e9o0pLYt/lOA0F/sWZiR7SSANQjHhbzu68wwOvmj8gWwYDSo7FpVBkxStbQdxIgLAPDA+SV8DzPNT3P7NcyTVC2l61ApbLD5FZQoj9bcuIgHEXPhohAMkehSs5cw9akF2UmreQtfPTH2CDT/UkKq/V679E6RxAKvdapHrtST9cGpcTUi5VjTb0SYWNqHwkbNaD5z2sHjy6H8/eW93JYbqKNDxoEHf4D7A2G6sYA5wM7iIQGKFQ8IinEAn1URRrPPawVDazTL11QxTp5ouLBHO2Ymx/+fsnIcGbO3gNEnaTHGS4S6ENi/K16Pkzp6hi+xn0xZerWHrsqKAejP0GwnHv9IeS+qJMEWhoLk1b65VzDnvMg5l1GYwb6sBsCP6Xaihzly/K2tL7osr16cgCOeN8z/s3zcT+mZDptBYT1C2Pp3SzLY9LZif1ODdbZqrwvgfp9Trhed2j6W209ZcJD6OKulbUnU/AmTC+TPt2if6qs1R+qTy232fppdV7EiPk/4FXXYk95O9Txo6SD6JpBOQBzSr4kQ8fca+MESFL56L2T4WeVvTh4pte9tnfY990vNw4Zg6zikuVP/L7JlRU4upZNbml7jKG+cCE00F5e9jGKOJicMfwPgOad3S82GvdsCkd+/v94ag+OZYdI+RVgUyxu5Aj28vh9nW5VnoP6eHA3MP9UYIWPI4yyPDa4PfSSYBj7OxVNJl5ahjq4SFj4cukaX24Z/Bl/on+SzjcScFYTRlGcinRJqIVaeuHlAvKaesvQzFkiUX2J43dEqitatDVL+ZqBonz75IPbdpv7sC4b/6JYUKxXdIedcPj2opiFo3vaoCCgOV5XYT2/Qn/4OVnQGj3igavEoP11Cq1V5otdtq1BMcubocJt5eZ6Q9D/E0NIXJbrSYG0jXQOU8h0trrcyYElubXjhtWc9GgwmMoWhrQA4IsA9cl1G6tLoemYpsOWlytePsRbp+R76cWGnd1PgzqBwINXAekL+1pfdZckYj0+ACOojY1d6R/x9XXCxFQcTSlxFpfUaxMUGdo4ct/ErIlSUci2y2ajWmW/s6mCP2buQRHLVbC9hth1gsVgl+FHP5NVVoP5VbtDfoD3+pouLaWUVqGQqaiYqEfIEd+eedHl1TW6SipYteuFkFr99LbaG3GBOlWaZyEoO8tf5gQCSKY6RCVrpYWQTXtplqiiJto4itjPlhWKXPsWUQwIok423R5WVWFF/1F5DApqWftJc1Okc/UBmnrx4aUYAnbC0iYBATTWV5Uo9mTN05UWBIzJHQfYcXWcOWMnq+UGJXEHq97sX51zIuDjOIJZ5zJQbI96Ksd6tyoy/8Ac88ILDwBcbi0HSwqqrXebLiMqwJs63x3HY3pbhrO3SsWS5sYNo2UMhXzEe9CdzXXaOUL2fP7QYeySolm4qbbuidXwOUbpblGpgfPTwpJAeNkGhJUfqNCqiqk5F7VNlzpiFAmdLyZ5sTbKUqCgL2YVe6y9JnIEdyHHSTNGV1aNDxoEHvID7A2G8e3gthCQWycqGQhF7So7USm3yOcEfm/0VIa8FiRNK9h+btLek5QwT6yHBj5lURdqeE5VkDDQ+uSV5pmYiBEd9MjR89Nn9q3eH90Yu7MPP14nWWhB0sixULHFqEohNb/jjv6Fz0kUJFzKXJ2rR4/mVAesS9LNm9LTpOCq6CFsKNPxGI7HNIxz43mCapy15nrKZl3eDPfJYBhhsl4x9rJcSzHs8A7TeGh+ttREL9o6Yl7EGWPZJtXMdn+bAvSaIADZa57IOkTjEsvNwRQQRQ8Ia8JzjwfDSoO7GRsULWri3QvQNCIXLPeSvcxxz7+FGHK5uEjWcDJulOPV0vqYkECi+MoY3F7/O/wJ+DgaRYVxg/1LrqYq/dZ4+H6u19A8jdSlrdNcd6znb3zj2C47qK7BL/8s7u7mEItldjkWm9EBaYdI+Q2+8NCaEtG5wBWffhMJ4dAQ7HAhXuLBRzHyscNy8kpMWkeSA8J0x5Fm8JIMG1b9Nwd9g6gKL1D2ygt1kVc9rbXJ00NFq8Gw+8jUe9VZLUZIaNOtlCIPpnc95cBNsFxi0n7VEk8DmBDynPuyRsfbpnZ658JN1Y1SxQwNaL/XtA8prPtS4WSVQnOCC5DukeKlcvkp6MXYTDSx/As5gpeV1PEm9z5Uh01ymxMgHbFP+4/MNUqKY1D55jB+xRqLNvkT/xXvm0wBmOWY/VuTJRu/nvt5xglxvvDwax57E8NAHwOKxnz4WYjb2O/EkalIZ42bShoETxLq4W75a0g3CqUKXqaZvd3UACWWQ96lNgf/T+o20uZTOIWMKDezN61ZMvBukfKrrQ2Vox6v/zzHZLVuhvGubGeAiHdzIT3bQzhth3qxrNZBW1Ayajk+NlBWCKmE7WrB8V5rEiLlEijjTaDADKV33HdvEwH/Ipv15jZn+PVDS4EHpJwPxBaVez81+Umqn35dzuVeNgkWP49pi6X5KfEzrad1JB7QGXN2GDAPBLGMRUB8A5qkNyY7sVoO4MY2dE3MC45fdzJskoZ0M8T4+QMuGR7pwyFxyfU/WBl2vck2x9VCEowMEFberfc3fdMthYdntMs0noF28Je5kk8E9wKjNGiw152fUc/rxgvv7PpEBQ6MQLzCvrYD3jaAP4R+77+sTtXtIQoLzeYUOfgv+A4eaDwt0RibqXT/QEcpvwLM8iA5SnSspOWU3Nzie2jbBU/FufKf0IUmb/ekxwjE70bbQK9AFyueZ8/0kIctFzKPCrMjIrjvN+2MQI9SAp/72KERmy5LqWctx9Bf0bqNDxoEH+ID7A2HSOR3K2KQLaC/uxXqgotvJI3I5cYsWefxJuyOmGhOgfPkRmlKqp3PcavMU9saU6DnlOv6s6wF4gDiJzqrT+LpGkOGghU30kt6bgQGkHhrR6Xzd0Vqb3Quu1EYa2cIR6cop+BeOa1kSABIk2LxfuBxuI69UKaSvTi0zss7uRuYKGg/oTEKGjRwspPBxRY0Y9Z06w+heZN5OnQMK4Q2FRAc0Wa+iAqeo1vClqAiCZVPkFsCYRM2TfT3AcQOPrRnbEG3TY2aIwr6VwjYFP6sifN/4umqpCgijN6IkThoA3tEfn4iFsSRNvDRf5CeLSyK5mp/0dHM8ulWGSixHoI9IUthhOTPRCxvNHUyQ2ymuFnDC2jjy7X9cneJBKNddRqC2Eek00waRF3SRv3Ekp7lwUHDF4gfZtlCKf+/ahopwly6sYbwp6dOP+FrYLGDP/g27g/gm2qAy7/IfgCDHC9Myu+tWfcgpT4GdGpHF9pjjAye+QWjzYRcj6ie0Y799spISSc+dbgUXvZk/ssyjrS3S205So59n7JVSSGwdBJ58Ryhnx8vmmu+wKrVAvEKfP95cHk5h+hS3w+DNjMjRSC3NF3xBznu8Yl5oVAPA2F8Tnufe5pfSRehDZsRC+AahEcHvcXdEHoGUDI4wA14Y3Y9aUHXbWsgQEFt1FYdg6i24piFfPj/8ZFOx06r+ZSf8kozOoQPOU2LJMozOAer6TgEf2pZyeRxKXI8uwv5lTKCyX+CAafBtAmNPRrOa1zHYrjPn2lArZREwr6Emg4SdTZaapXfRTYRfNSnu5AN5knslrbQOmQ62gcqYPZOsNi0NxY8hzIEfPM4Uc8SO6nljF8PgTPBh08kCTsBnt40+9k2Njb/qQ3eHu0NlyLhj6NYnsScjqvV+AMVL3I77/ZgCc5GlJgGzDkLGO+Ii3bpSpn+GVPEOfMFbRNeRY6T+2rcUyG+GtyMeiep1nHr5cST+GGksVP8YuU1RiXXxXPgAfRlLea9Yfb4gm92LJzbRpWe0N82GmhavYSVlCzhKX0wWebzkto0r3NiTnLz/CeNVudfbje+0y784Kbk3kzdskfVB45vvUOd12UXkIz0F7A87hBADMPqzEycncvCCqPK+6QWM36JOXbbJTFM4REBTPjt58NIOlUL4TNTNhFDfumUSwewadkMHlq0sPheOQb7ZUnymqiOxzeDGGGipylBV4s70fDb19tAVuKqEeewhm9QmGezBH5f+p0/vMODRqBq7mkg3ACk9VhWZY7dhYiLsqrYxSATTaqNDxoEIM4D7A2G8KKSEMojTY+072vBGafBrFHfIfgd16Y3yHlSjh8YxSp+3qLq39QZbC6j9/vcoV0LQt2iYXK0Z6xOlkhgWhT0OfZCwvuNyCJqqW9aicpkjnWZNC7a0aOuBOWzUvLnaZYsz4Xip0w4jFPpFHjUepiavWi7avIEQqATgOqzkZpEhanFTnMj8BDiDeo2R9MMv34UKwNeNTMz8JU9JbL1wwHyyxebYNjm7nCCBIgu7aP1dEPD0XzyYN1BTZGPhN2wxrVk6PZwupBMhaVDDgHqv+5JncC1mQXmUC8j0ldr14qlAZFcPOATxsJGFUrI13u7ndq2fsVw58KGbcyRR7ewTaRAP27jKxKrhj1FgCeqepxDWTdD1OFaiimGI/+1Q97Js5TBLovlgaDnury41LMknLALFUEO/jBNVDezbyGWk1D6zYbw8UU1qDw3jIuI+WZvqpjOBCZu57xQzlRblhKq5dsdE3RiSmHaeYxkXANTvDNU7Y6ogDcJw9M+EHGRdN0GrBnjnXb4KOjejopf03y58EqbRHpw+WLrQ1tDEuXdWSyBho9756enrP7SKRdmUMlmS6MH+9dqaWpEmwDlBMYE3mHUl56gEgDUPeMhrBmv3V4pcalz02oXYqHkDRMfrwGpefUq3kCTnJn2SLCnaBoMQVgZONEeQQBnb/Xhoo3dlAWNENiWDC/D3WtjRt7N1KEdoUm3vGIS11cS8C7SqvE/p1dOQd7k97zOgJhlsUjbYfQfl6uxdJj39I0dP0eT6N5Hp0bayD76lMhwtgLzqNIG8NpQfeHjkoDiyM4mDePnx3eq4WtCx53CIa1O28Cp5Oj1q9lMbZIEkJPsWDp62Jb4JMJlh0hJtktUpKRVxslxgHoUB4tyziGSoswaPzcLzwehN1nVdSpPXd0YC+dHeHxHxCA8FJlM3o7upBEfqlMJECKyyFpSfk64Hz3hcNW5yB50JcoOJB+HZIyrj/3XzQmzfmXotSLyFbmsSDevSpFEG7QeE9xISih4usTe5ULg480mVmheFVZO1VnK5Rd51wZJwKl1mG+jCcYeOw6ipZzO3uD21YjqE7HvWLqlDxSMuvyqf29ElDWOVW5Zaoi7P60QGBLO7i6NNF1GZtFbAXMzQfdG1+LChbaq2nKHssT/ykVPsnm6fwseXjs17O1WepAVkG/0efmWdEFBCN8Du2w8YqMox0kXAsehTgb6HOYP4W/YAjXsSR616a48QbkTblL/xcYd8zn4CwDwGcFAkWc/73S+QpgMLLcR5/Y/fem0zTvlATA==","16"
"","","","","","instructions","18","99365","0.0-7.0","nk93zbatzvkde78","nk93zbatzvkde78-2024-04-14-17-22-15","1546","","[{""page_index"":0,""viewing_time"":1546}]","","",""
"","","","","","image-button-response","19","103867","0.0-8.0-0.0","nk93zbatzvkde78","nk93zbatzvkde78-2024-04-14-17-22-15","null","","","images/stories/paris_story/paris_story_2.png","null",""
"","","","","","image-button-response","20","105399","0.0-8.0-1.0","nk93zbatzvkde78","nk93zbatzvkde78-2024-04-14-17-22-15","1531","","","images/stories/paris_story/paris_story_2.png","1",""
"","","","","","image-button-response","21","107201","0.0-8.0-2.0","nk93zbatzvkde78","nk93zbatzvkde78-2024-04-14-17-22-15","null","","","[]","null",""
"","","","","","image-button-response","22","111703","0.0-8.0-0.1","nk93zbatzvkde78","nk93zbatzvkde78-2024-04-14-17-22-15","null","","","images/stories/paris_story/paris_story_10.png","null",""
"","","","","","image-button-response","23","112999","0.0-8.0-1.1","nk93zbatzvkde78","nk93zbatzvkde78-2024-04-14-17-22-15","1295","","","images/stories/paris_story/paris_story_10.png","0",""
"","","","","","image-button-response","24","114801","0.0-8.0-2.1","nk93zbatzvkde78","nk93zbatzvkde78-2024-04-14-17-22-15","null","","","[]","null",""
"","","","","","image-button-response","25","119302","0.0-8.0-0.2","nk93zbatzvkde78","nk93zbatzvkde78-2024-04-14-17-22-15","null","","","images/stories/paris_story/paris_story_7.png","null",""
"","","","","","image-button-response","26","120399","0.0-8.0-1.2","nk93zbatzvkde78","nk93zbatzvkde78-2024-04-14-17-22-15","1096","","","images/stories/paris_story/paris_story_7.png","0",""
"","","","","","image-button-response","27","122200","0.0-8.0-2.2","nk93zbatzvkde78","nk93zbatzvkde78-2024-04-14-17-22-15","null","","","[]","null",""
"","","","","","image-button-response","28","126702","0.0-8.0-0.3","nk93zbatzvkde78","nk93zbatzvkde78-2024-04-14-17-22-15","null","","","images/stories/paris_story/paris_story_1.png","null",""
"","","","","","image-button-response","29","128920","0.0-8.0-1.3","nk93zbatzvkde78","nk93zbatzvkde78-2024-04-14-17-22-15","2217","","","images/stories/paris_story/paris_story_1.png","0",""
"","","","","","image-button-response","30","130722","0.0-8.0-2.3","nk93zbatzvkde78","nk93zbatzvkde78-2024-04-14-17-22-15","null","","","[]","null",""
"","","","","","image-button-response","31","135223","0.0-8.0-0.4","nk93zbatzvkde78","nk93zbatzvkde78-2024-04-14-17-22-15","null","","","images/stories/paris_story/paris_story_8.png","null",""
"","","","","","image-button-response","32","136775","0.0-8.0-1.4","nk93zbatzvkde78","nk93zbatzvkde78-2024-04-14-17-22-15","1550","","","images/stories/paris_story/paris_story_8.png","1",""
"","","","","","image-button-response","33","138577","0.0-8.0-2.4","nk93zbatzvkde78","nk93zbatzvkde78-2024-04-14-17-22-15","null","","","[]","null",""
"","","","","","image-button-response","34","143080","0.0-8.0-0.5","nk93zbatzvkde78","nk93zbatzvkde78-2024-04-14-17-22-15","null","","","images/stories/paris_story/paris_story_6.png","null",""
"","","","","","image-button-response","35","143817","0.0-8.0-1.5","nk93zbatzvkde78","nk93zbatzvkde78-2024-04-14-17-22-15","735","","","images/stories/paris_story/paris_story_6.png","1",""
"","","","","","image-button-response","36","145618","0.0-8.0-2.5","nk93zbatzvkde78","nk93zbatzvkde78-2024-04-14-17-22-15","null","","","[]","null",""
"","","","","","image-button-response","37","150120","0.0-8.0-0.6","nk93zbatzvkde78","nk93zbatzvkde78-2024-04-14-17-22-15","null","","","images/stories/paris_story/paris_story_4.png","null",""
"","","","","","image-button-response","38","150943","0.0-8.0-1.6","nk93zbatzvkde78","nk93zbatzvkde78-2024-04-14-17-22-15","822","","","images/stories/paris_story/paris_story_4.png","0",""
"","","","","","image-button-response","39","152744","0.0-8.0-2.6","nk93zbatzvkde78","nk93zbatzvkde78-2024-04-14-17-22-15","null","","","[]","null",""
"","","","","","image-button-response","40","157246","0.0-8.0-0.7","nk93zbatzvkde78","nk93zbatzvkde78-2024-04-14-17-22-15","null","","","images/stories/paris_story/paris_story_5.png","null",""
"","","","","","image-button-response","41","157978","0.0-8.0-1.7","nk93zbatzvkde78","nk93zbatzvkde78-2024-04-14-17-22-15","731","","","images/stories/paris_story/paris_story_5.png","0",""
"","","","","","image-button-response","42","159781","0.0-8.0-2.7","nk93zbatzvkde78","nk93zbatzvkde78-2024-04-14-17-22-15","null","","","[]","null",""
"","","","","","image-button-response","43","164283","0.0-8.0-0.8","nk93zbatzvkde78","nk93zbatzvkde78-2024-04-14-17-22-15","null","","","images/stories/paris_story/paris_story_3.png","null",""
"","","","","","image-button-response","44","165041","0.0-8.0-1.8","nk93zbatzvkde78","nk93zbatzvkde78-2024-04-14-17-22-15","755","","","images/stories/paris_story/paris_story_3.png","0",""
"","","","","","image-button-response","45","166843","0.0-8.0-2.8","nk93zbatzvkde78","nk93zbatzvkde78-2024-04-14-17-22-15","null","","","[]","null",""
"","","","","","image-button-response","46","171345","0.0-8.0-0.9","nk93zbatzvkde78","nk93zbatzvkde78-2024-04-14-17-22-15","null","","","images/stories/paris_story/paris_story_9.png","null",""
"","","","","","image-button-response","47","171990","0.0-8.0-1.9","nk93zbatzvkde78","nk93zbatzvkde78-2024-04-14-17-22-15","642","","","images/stories/paris_story/paris_story_9.png","1",""
"","","","","","image-button-response","48","173792","0.0-8.0-2.9","nk93zbatzvkde78","nk93zbatzvkde78-2024-04-14-17-22-15","null","","","[]","null",""
"","","","","","html-audio-response","49","194308","0.0-9.0","nk93zbatzvkde78","nk93zbatzvkde78-2024-04-14-17-22-15","4849","","","<span style=""color: red; font-size: 24px""> NOW RECORDING</span>
