"success","timeout","failed_images","failed_audio","failed_video","trial_type","trial_index","time_elapsed","internal_node_id","subject","subject_id","study_id","session_id","urlvar","current_url","view_history","rt","stimulus","response","choice","question_order"
"true","false","[]","[]","[]","preload","0","3052","0.0-0.0","E323847D1A9A43C7966A88C86114D06A","E323847D1A9A43C7966A88C86114D06A","5e380c44-0c55-405a-b69d-696a38811ed7","bea99957-1862-4ad8-9558-57b91e42ce64","{""participantId"":""E323847D1A9A43C7966A88C86114D06A"",""assignmentId"":""5e380c44-0c55-405a-b69d-696a38811ed7"",""projectId"":""bea99957-1862-4ad8-9558-57b91e42ce64""}","https://test12345.live/?participantId=E323847D1A9A43C7966A88C86114D06A&assignmentId=5e380c44-0c55-405a-b69d-696a38811ed7&projectId=bea99957-1862-4ad8-9558-57b91e42ce64","","","","","",""
"","","","","","instructions","1","464864","0.0-1.0","E323847D1A9A43C7966A88C86114D06A","E323847D1A9A43C7966A88C86114D06A","5e380c44-0c55-405a-b69d-696a38811ed7","bea99957-1862-4ad8-9558-57b91e42ce64","{""participantId"":""E323847D1A9A43C7966A88C86114D06A"",""assignmentId"":""5e380c44-0c55-405a-b69d-696a38811ed7"",""projectId"":""bea99957-1862-4ad8-9558-57b91e42ce64""}","https://test12345.live/?participantId=E323847D1A9A43C7966A88C86114D06A&assignmentId=5e380c44-0c55-405a-b69d-696a38811ed7&projectId=bea99957-1862-4ad8-9558-57b91e42ce64","[{""page_index"":0,""viewing_time"":461811}]","461811","","","",""
"","","","","","instructions","2","470075","0.0-2.0","E323847D1A9A43C7966A88C86114D06A","E323847D1A9A43C7966A88C86114D06A","5e380c44-0c55-405a-b69d-696a38811ed7","bea99957-1862-4ad8-9558-57b91e42ce64","{""participantId"":""E323847D1A9A43C7966A88C86114D06A"",""assignmentId"":""5e380c44-0c55-405a-b69d-696a38811ed7"",""projectId"":""bea99957-1862-4ad8-9558-57b91e42ce64""}","https://test12345.live/?participantId=E323847D1A9A43C7966A88C86114D06A&assignmentId=5e380c44-0c55-405a-b69d-696a38811ed7&projectId=bea99957-1862-4ad8-9558-57b91e42ce64","[{""page_index"":0,""viewing_time"":5209}]","5210","","","",""
"true","","","","","fullscreen","3","472860","0.0-3.0","E323847D1A9A43C7966A88C86114D06A","E323847D1A9A43C7966A88C86114D06A","5e380c44-0c55-405a-b69d-696a38811ed7","bea99957-1862-4ad8-9558-57b91e42ce64","{""participantId"":""E323847D1A9A43C7966A88C86114D06A"",""assignmentId"":""5e380c44-0c55-405a-b69d-696a38811ed7"",""projectId"":""bea99957-1862-4ad8-9558-57b91e42ce64""}","https://test12345.live/?participantId=E323847D1A9A43C7966A88C86114D06A&assignmentId=5e380c44-0c55-405a-b69d-696a38811ed7&projectId=bea99957-1862-4ad8-9558-57b91e42ce64","","1775","","","",""
"","","","","","instructions","4","474846","0.0-4.0","E323847D1A9A43C7966A88C86114D06A","E323847D1A9A43C7966A88C86114D06A","5e380c44-0c55-405a-b69d-696a38811ed7","bea99957-1862-4ad8-9558-57b91e42ce64","{""participantId"":""E323847D1A9A43C7966A88C86114D06A"",""assignmentId"":""5e380c44-0c55-405a-b69d-696a38811ed7"",""projectId"":""bea99957-1862-4ad8-9558-57b91e42ce64""}","https://test12345.live/?participantId=E323847D1A9A43C7966A88C86114D06A&assignmentId=5e380c44-0c55-405a-b69d-696a38811ed7&projectId=bea99957-1862-4ad8-9558-57b91e42ce64","[{""page_index"":0,""viewing_time"":1984}]","1984","","","",""
"","","","","","html-button-response","5","488931","0.0-5.0","E323847D1A9A43C7966A88C86114D06A","E323847D1A9A43C7966A88C86114D06A","5e380c44-0c55-405a-b69d-696a38811ed7","bea99957-1862-4ad8-9558-57b91e42ce64","{""participantId"":""E323847D1A9A43C7966A88C86114D06A"",""assignmentId"":""5e380c44-0c55-405a-b69d-696a38811ed7"",""projectId"":""bea99957-1862-4ad8-9558-57b91e42ce64""}","https://test12345.live/?participantId=E323847D1A9A43C7966A88C86114D06A&assignmentId=5e380c44-0c55-405a-b69d-696a38811ed7&projectId=bea99957-1862-4ad8-9558-57b91e42ce64","","14082","
    <div style=""display: flex; justify-content: center; align-items: center;"">
      <img src=""images/red_deck_2.png"" style=""width: 300px; height: 300px; margin-right: 10px;"" />
      <img src=""images/blue_deck_1.png"" style=""width: 300px; height: 300px;"" />
    </div>","1","1",""
"","","","","","html-keyboard-response","6","491943","0.0-6.0-0.0","E323847D1A9A43C7966A88C86114D06A","E323847D1A9A43C7966A88C86114D06A","5e380c44-0c55-405a-b69d-696a38811ed7","bea99957-1862-4ad8-9558-57b91e42ce64","{""participantId"":""E323847D1A9A43C7966A88C86114D06A"",""assignmentId"":""5e380c44-0c55-405a-b69d-696a38811ed7"",""projectId"":""bea99957-1862-4ad8-9558-57b91e42ce64""}","https://test12345.live/?participantId=E323847D1A9A43C7966A88C86114D06A&assignmentId=5e380c44-0c55-405a-b69d-696a38811ed7&projectId=bea99957-1862-4ad8-9558-57b91e42ce64","","null","<div style=""display: flex; justify-content: center; align-items: center;"">
                    <img src=""images/causal/causal_series_7/causal_series_7_a.jpg"" style=""width: 300px; height: 300px;"" />
                  </div>","null","",""
"","","","","","html-keyboard-response","7","494946","0.0-6.0-1.0","E323847D1A9A43C7966A88C86114D06A","E323847D1A9A43C7966A88C86114D06A","5e380c44-0c55-405a-b69d-696a38811ed7","bea99957-1862-4ad8-9558-57b91e42ce64","{""participantId"":""E323847D1A9A43C7966A88C86114D06A"",""assignmentId"":""5e380c44-0c55-405a-b69d-696a38811ed7"",""projectId"":""bea99957-1862-4ad8-9558-57b91e42ce64""}","https://test12345.live/?participantId=E323847D1A9A43C7966A88C86114D06A&assignmentId=5e380c44-0c55-405a-b69d-696a38811ed7&projectId=bea99957-1862-4ad8-9558-57b91e42ce64","","null","<div style=""display: flex; justify-content: center; align-items: center;"">
                    <img src=""images/causal/causal_series_7/causal_series_7_b.jpg"" style=""width: 300px; height: 300px;"" />
                  </div>","null","",""
"","","","","","html-keyboard-response","8","497960","0.0-6.0-2.0","E323847D1A9A43C7966A88C86114D06A","E323847D1A9A43C7966A88C86114D06A","5e380c44-0c55-405a-b69d-696a38811ed7","bea99957-1862-4ad8-9558-57b91e42ce64","{""participantId"":""E323847D1A9A43C7966A88C86114D06A"",""assignmentId"":""5e380c44-0c55-405a-b69d-696a38811ed7"",""projectId"":""bea99957-1862-4ad8-9558-57b91e42ce64""}","https://test12345.live/?participantId=E323847D1A9A43C7966A88C86114D06A&assignmentId=5e380c44-0c55-405a-b69d-696a38811ed7&projectId=bea99957-1862-4ad8-9558-57b91e42ce64","","null","<div style=""display: flex; justify-content: center; align-items: center;"">
                    <img src=""images/causal/causal_series_7/causal_series_7_c.jpg"" style=""width: 300px; height: 300px;"" />
                  </div>","null","",""
"","","","","","html-keyboard-response","9","500977","0.0-6.0-3.0","E323847D1A9A43C7966A88C86114D06A","E323847D1A9A43C7966A88C86114D06A","5e380c44-0c55-405a-b69d-696a38811ed7","bea99957-1862-4ad8-9558-57b91e42ce64","{""participantId"":""E323847D1A9A43C7966A88C86114D06A"",""assignmentId"":""5e380c44-0c55-405a-b69d-696a38811ed7"",""projectId"":""bea99957-1862-4ad8-9558-57b91e42ce64""}","https://test12345.live/?participantId=E323847D1A9A43C7966A88C86114D06A&assignmentId=5e380c44-0c55-405a-b69d-696a38811ed7&projectId=bea99957-1862-4ad8-9558-57b91e42ce64","","null","<div style=""display: flex; justify-content: center; align-items: center;"">
                    <img src=""images/causal/causal_series_7/causal_series_7_d.jpg"" style=""width: 300px; height: 300px;"" />
                  </div>","null","",""
"","","","","","html-button-response","10","508418","0.0-8.0","E323847D1A9A43C7966A88C86114D06A","E323847D1A9A43C7966A88C86114D06A","5e380c44-0c55-405a-b69d-696a38811ed7","bea99957-1862-4ad8-9558-57b91e42ce64","{""participantId"":""E323847D1A9A43C7966A88C86114D06A"",""assignmentId"":""5e380c44-0c55-405a-b69d-696a38811ed7"",""projectId"":""bea99957-1862-4ad8-9558-57b91e42ce64""}","https://test12345.live/?participantId=E323847D1A9A43C7966A88C86114D06A&assignmentId=5e380c44-0c55-405a-b69d-696a38811ed7&projectId=bea99957-1862-4ad8-9558-57b91e42ce64","","7439","Was there a person in the picture?","1","",""
"","","","","","survey-likert","11","515346","0.0-9.0","E323847D1A9A43C7966A88C86114D06A","E323847D1A9A43C7966A88C86114D06A","5e380c44-0c55-405a-b69d-696a38811ed7","bea99957-1862-4ad8-9558-57b91e42ce64","{""participantId"":""E323847D1A9A43C7966A88C86114D06A"",""assignmentId"":""5e380c44-0c55-405a-b69d-696a38811ed7"",""projectId"":""bea99957-1862-4ad8-9558-57b91e42ce64""}","https://test12345.live/?participantId=E323847D1A9A43C7966A88C86114D06A&assignmentId=5e380c44-0c55-405a-b69d-696a38811ed7&projectId=bea99957-1862-4ad8-9558-57b91e42ce64","","6923","","{""Q0"":4}","","[0]"
"","","","","","html-button-response","12","518836","0.0-10.0","E323847D1A9A43C7966A88C86114D06A","E323847D1A9A43C7966A88C86114D06A","5e380c44-0c55-405a-b69d-696a38811ed7","bea99957-1862-4ad8-9558-57b91e42ce64","{""participantId"":""E323847D1A9A43C7966A88C86114D06A"",""assignmentId"":""5e380c44-0c55-405a-b69d-696a38811ed7"",""projectId"":""bea99957-1862-4ad8-9558-57b91e42ce64""}","https://test12345.live/?participantId=E323847D1A9A43C7966A88C86114D06A&assignmentId=5e380c44-0c55-405a-b69d-696a38811ed7&projectId=bea99957-1862-4ad8-9558-57b91e42ce64","","3487","
    <div style=""display: flex; justify-content: center; align-items: center;"">
      <img src=""images/red_deck_2.png"" style=""width: 300px; height: 300px; margin-right: 10px;"" />
      <img src=""images/blue_deck_1.png"" style=""width: 300px; height: 300px;"" />
    </div>","0","0",""
"","","","","","html-keyboard-response","13","521847","0.0-12.0-0.0","E323847D1A9A43C7966A88C86114D06A","E323847D1A9A43C7966A88C86114D06A","5e380c44-0c55-405a-b69d-696a38811ed7","bea99957-1862-4ad8-9558-57b91e42ce64","{""participantId"":""E323847D1A9A43C7966A88C86114D06A"",""assignmentId"":""5e380c44-0c55-405a-b69d-696a38811ed7"",""projectId"":""bea99957-1862-4ad8-9558-57b91e42ce64""}","https://test12345.live/?participantId=E323847D1A9A43C7966A88C86114D06A&assignmentId=5e380c44-0c55-405a-b69d-696a38811ed7&projectId=bea99957-1862-4ad8-9558-57b91e42ce64","","null","<div style=""display: flex; justify-content: center; align-items: center;"">
                    <img src=""images/semantic/semantic_series_13/semantic_series_13_a.jpg"" style=""width: 300px; height: 300px;"" />
                  </div>","null","",""
"","","","","","html-keyboard-response","14","524863","0.0-12.0-1.0","E323847D1A9A43C7966A88C86114D06A","E323847D1A9A43C7966A88C86114D06A","5e380c44-0c55-405a-b69d-696a38811ed7","bea99957-1862-4ad8-9558-57b91e42ce64","{""participantId"":""E323847D1A9A43C7966A88C86114D06A"",""assignmentId"":""5e380c44-0c55-405a-b69d-696a38811ed7"",""projectId"":""bea99957-1862-4ad8-9558-57b91e42ce64""}","https://test12345.live/?participantId=E323847D1A9A43C7966A88C86114D06A&assignmentId=5e380c44-0c55-405a-b69d-696a38811ed7&projectId=bea99957-1862-4ad8-9558-57b91e42ce64","","null","<div style=""display: flex; justify-content: center; align-items: center;"">
                    <img src=""images/semantic/semantic_series_13/semantic_series_13_b.jpg"" style=""width: 300px; height: 300px;"" />
                  </div>","null","",""
"","","","","","html-keyboard-response","15","527869","0.0-12.0-2.0","E323847D1A9A43C7966A88C86114D06A","E323847D1A9A43C7966A88C86114D06A","5e380c44-0c55-405a-b69d-696a38811ed7","bea99957-1862-4ad8-9558-57b91e42ce64","{""participantId"":""E323847D1A9A43C7966A88C86114D06A"",""assignmentId"":""5e380c44-0c55-405a-b69d-696a38811ed7"",""projectId"":""bea99957-1862-4ad8-9558-57b91e42ce64""}","https://test12345.live/?participantId=E323847D1A9A43C7966A88C86114D06A&assignmentId=5e380c44-0c55-405a-b69d-696a38811ed7&projectId=bea99957-1862-4ad8-9558-57b91e42ce64","","null","<div style=""display: flex; justify-content: center; align-items: center;"">
                    <img src=""images/semantic/semantic_series_13/semantic_series_13_c.jpg"" style=""width: 300px; height: 300px;"" />
                  </div>","null","",""
"","","","","","html-keyboard-response","16","530872","0.0-12.0-3.0","E323847D1A9A43C7966A88C86114D06A","E323847D1A9A43C7966A88C86114D06A","5e380c44-0c55-405a-b69d-696a38811ed7","bea99957-1862-4ad8-9558-57b91e42ce64","{""participantId"":""E323847D1A9A43C7966A88C86114D06A"",""assignmentId"":""5e380c44-0c55-405a-b69d-696a38811ed7"",""projectId"":""bea99957-1862-4ad8-9558-57b91e42ce64""}","https://test12345.live/?participantId=E323847D1A9A43C7966A88C86114D06A&assignmentId=5e380c44-0c55-405a-b69d-696a38811ed7&projectId=bea99957-1862-4ad8-9558-57b91e42ce64","","null","<div style=""display: flex; justify-content: center; align-items: center;"">
                    <img src=""images/semantic/semantic_series_13/semantic_series_13_d.jpg"" style=""width: 300px; height: 300px;"" />
                  </div>","null","",""
"","","","","","html-button-response","17","536972","0.0-13.0","E323847D1A9A43C7966A88C86114D06A","E323847D1A9A43C7966A88C86114D06A","5e380c44-0c55-405a-b69d-696a38811ed7","bea99957-1862-4ad8-9558-57b91e42ce64","{""participantId"":""E323847D1A9A43C7966A88C86114D06A"",""assignmentId"":""5e380c44-0c55-405a-b69d-696a38811ed7"",""projectId"":""bea99957-1862-4ad8-9558-57b91e42ce64""}","https://test12345.live/?participantId=E323847D1A9A43C7966A88C86114D06A&assignmentId=5e380c44-0c55-405a-b69d-696a38811ed7&projectId=bea99957-1862-4ad8-9558-57b91e42ce64","","6098","Was there a person in the picture?","0","",""
"","","","","","survey-likert","18","543978","0.0-14.0","E323847D1A9A43C7966A88C86114D06A","E323847D1A9A43C7966A88C86114D06A","5e380c44-0c55-405a-b69d-696a38811ed7","bea99957-1862-4ad8-9558-57b91e42ce64","{""participantId"":""E323847D1A9A43C7966A88C86114D06A"",""assignmentId"":""5e380c44-0c55-405a-b69d-696a38811ed7"",""projectId"":""bea99957-1862-4ad8-9558-57b91e42ce64""}","https://test12345.live/?participantId=E323847D1A9A43C7966A88C86114D06A&assignmentId=5e380c44-0c55-405a-b69d-696a38811ed7&projectId=bea99957-1862-4ad8-9558-57b91e42ce64","","7006","","{""Q0"":4}","","[0]"
"","","","","","html-button-response","19","547497","0.0-15.0","E323847D1A9A43C7966A88C86114D06A","E323847D1A9A43C7966A88C86114D06A","5e380c44-0c55-405a-b69d-696a38811ed7","bea99957-1862-4ad8-9558-57b91e42ce64","{""participantId"":""E323847D1A9A43C7966A88C86114D06A"",""assignmentId"":""5e380c44-0c55-405a-b69d-696a38811ed7"",""projectId"":""bea99957-1862-4ad8-9558-57b91e42ce64""}","https://test12345.live/?participantId=E323847D1A9A43C7966A88C86114D06A&assignmentId=5e380c44-0c55-405a-b69d-696a38811ed7&projectId=bea99957-1862-4ad8-9558-57b91e42ce64","","3517","
    <div style=""display: flex; justify-content: center; align-items: center;"">
      <img src=""images/red_deck_2.png"" style=""width: 300px; height: 300px; margin-right: 10px;"" />
      <img src=""images/blue_deck_1.png"" style=""width: 300px; height: 300px;"" />
    </div>","0","0",""
"","","","","","html-keyboard-response","20","550499","0.0-17.0-0.0","E323847D1A9A43C7966A88C86114D06A","E323847D1A9A43C7966A88C86114D06A","5e380c44-0c55-405a-b69d-696a38811ed7","bea99957-1862-4ad8-9558-57b91e42ce64","{""participantId"":""E323847D1A9A43C7966A88C86114D06A"",""assignmentId"":""5e380c44-0c55-405a-b69d-696a38811ed7"",""projectId"":""bea99957-1862-4ad8-9558-57b91e42ce64""}","https://test12345.live/?participantId=E323847D1A9A43C7966A88C86114D06A&assignmentId=5e380c44-0c55-405a-b69d-696a38811ed7&projectId=bea99957-1862-4ad8-9558-57b91e42ce64","","null","<div style=""display: flex; justify-content: center; align-items: center;"">
                    <img src=""images/semantic/semantic_series_4/semantic_series_4_a.jpg"" style=""width: 300px; height: 300px;"" />
                  </div>","null","",""
"","","","","","html-keyboard-response","21","553509","0.0-17.0-1.0","E323847D1A9A43C7966A88C86114D06A","E323847D1A9A43C7966A88C86114D06A","5e380c44-0c55-405a-b69d-696a38811ed7","bea99957-1862-4ad8-9558-57b91e42ce64","{""participantId"":""E323847D1A9A43C7966A88C86114D06A"",""assignmentId"":""5e380c44-0c55-405a-b69d-696a38811ed7"",""projectId"":""bea99957-1862-4ad8-9558-57b91e42ce64""}","https://test12345.live/?participantId=E323847D1A9A43C7966A88C86114D06A&assignmentId=5e380c44-0c55-405a-b69d-696a38811ed7&projectId=bea99957-1862-4ad8-9558-57b91e42ce64","","null","<div style=""display: flex; justify-content: center; align-items: center;"">
                    <img src=""images/semantic/semantic_series_4/semantic_series_4_b.jpg"" style=""width: 300px; height: 300px;"" />
                  </div>","null","",""
"","","","","","html-keyboard-response","22","556519","0.0-17.0-2.0","E323847D1A9A43C7966A88C86114D06A","E323847D1A9A43C7966A88C86114D06A","5e380c44-0c55-405a-b69d-696a38811ed7","bea99957-1862-4ad8-9558-57b91e42ce64","{""participantId"":""E323847D1A9A43C7966A88C86114D06A"",""assignmentId"":""5e380c44-0c55-405a-b69d-696a38811ed7"",""projectId"":""bea99957-1862-4ad8-9558-57b91e42ce64""}","https://test12345.live/?participantId=E323847D1A9A43C7966A88C86114D06A&assignmentId=5e380c44-0c55-405a-b69d-696a38811ed7&projectId=bea99957-1862-4ad8-9558-57b91e42ce64","","null","<div style=""display: flex; justify-content: center; align-items: center;"">
                    <img src=""images/semantic/semantic_series_4/semantic_series_4_c.jpg"" style=""width: 300px; height: 300px;"" />
                  </div>","null","",""
"","","","","","html-keyboard-response","23","559529","0.0-17.0-3.0","E323847D1A9A43C7966A88C86114D06A","E323847D1A9A43C7966A88C86114D06A","5e380c44-0c55-405a-b69d-696a38811ed7","bea99957-1862-4ad8-9558-57b91e42ce64","{""participantId"":""E323847D1A9A43C7966A88C86114D06A"",""assignmentId"":""5e380c44-0c55-405a-b69d-696a38811ed7"",""projectId"":""bea99957-1862-4ad8-9558-57b91e42ce64""}","https://test12345.live/?participantId=E323847D1A9A43C7966A88C86114D06A&assignmentId=5e380c44-0c55-405a-b69d-696a38811ed7&projectId=bea99957-1862-4ad8-9558-57b91e42ce64","","null","<div style=""display: flex; justify-content: center; align-items: center;"">
                    <img src=""images/semantic/semantic_series_4/semantic_series_4_d.jpg"" style=""width: 300px; height: 300px;"" />
                  </div>","null","",""
"","","","","","html-button-response","24","568360","0.0-18.0","E323847D1A9A43C7966A88C86114D06A","E323847D1A9A43C7966A88C86114D06A","5e380c44-0c55-405a-b69d-696a38811ed7","bea99957-1862-4ad8-9558-57b91e42ce64","{""participantId"":""E323847D1A9A43C7966A88C86114D06A"",""assignmentId"":""5e380c44-0c55-405a-b69d-696a38811ed7"",""projectId"":""bea99957-1862-4ad8-9558-57b91e42ce64""}","https://test12345.live/?participantId=E323847D1A9A43C7966A88C86114D06A&assignmentId=5e380c44-0c55-405a-b69d-696a38811ed7&projectId=bea99957-1862-4ad8-9558-57b91e42ce64","","8829","Was there a person in the picture?","1","",""
"","","","","","survey-likert","25","575673","0.0-19.0","E323847D1A9A43C7966A88C86114D06A","E323847D1A9A43C7966A88C86114D06A","5e380c44-0c55-405a-b69d-696a38811ed7","bea99957-1862-4ad8-9558-57b91e42ce64","{""participantId"":""E323847D1A9A43C7966A88C86114D06A"",""assignmentId"":""5e380c44-0c55-405a-b69d-696a38811ed7"",""projectId"":""bea99957-1862-4ad8-9558-57b91e42ce64""}","https://test12345.live/?participantId=E323847D1A9A43C7966A88C86114D06A&assignmentId=5e380c44-0c55-405a-b69d-696a38811ed7&projectId=bea99957-1862-4ad8-9558-57b91e42ce64","","7312","","{""Q0"":4}","","[0]"
"","","","","","html-button-response","26","586455","0.0-20.0","E323847D1A9A43C7966A88C86114D06A","E323847D1A9A43C7966A88C86114D06A","5e380c44-0c55-405a-b69d-696a38811ed7","bea99957-1862-4ad8-9558-57b91e42ce64","{""participantId"":""E323847D1A9A43C7966A88C86114D06A"",""assignmentId"":""5e380c44-0c55-405a-b69d-696a38811ed7"",""projectId"":""bea99957-1862-4ad8-9558-57b91e42ce64""}","https://test12345.live/?participantId=E323847D1A9A43C7966A88C86114D06A&assignmentId=5e380c44-0c55-405a-b69d-696a38811ed7&projectId=bea99957-1862-4ad8-9558-57b91e42ce64","","10778","
    <div style=""display: flex; justify-content: center; align-items: center;"">
      <img src=""images/red_deck_2.png"" style=""width: 300px; height: 300px; margin-right: 10px;"" />
      <img src=""images/blue_deck_1.png"" style=""width: 300px; height: 300px;"" />
    </div>","0","0",""
"","","","","","html-keyboard-response","27","589458","0.0-22.0-0.0","E323847D1A9A43C7966A88C86114D06A","E323847D1A9A43C7966A88C86114D06A","5e380c44-0c55-405a-b69d-696a38811ed7","bea99957-1862-4ad8-9558-57b91e42ce64","{""participantId"":""E323847D1A9A43C7966A88C86114D06A"",""assignmentId"":""5e380c44-0c55-405a-b69d-696a38811ed7"",""projectId"":""bea99957-1862-4ad8-9558-57b91e42ce64""}","https://test12345.live/?participantId=E323847D1A9A43C7966A88C86114D06A&assignmentId=5e380c44-0c55-405a-b69d-696a38811ed7&projectId=bea99957-1862-4ad8-9558-57b91e42ce64","","null","<div style=""display: flex; justify-content: center; align-items: center;"">
                    <img src=""images/semantic/semantic_series_15/semantic_series_15_a.jpg"" style=""width: 300px; height: 300px;"" />
                  </div>","null","",""
"","","","","","html-keyboard-response","28","592459","0.0-22.0-1.0","E323847D1A9A43C7966A88C86114D06A","E323847D1A9A43C7966A88C86114D06A","5e380c44-0c55-405a-b69d-696a38811ed7","bea99957-1862-4ad8-9558-57b91e42ce64","{""participantId"":""E323847D1A9A43C7966A88C86114D06A"",""assignmentId"":""5e380c44-0c55-405a-b69d-696a38811ed7"",""projectId"":""bea99957-1862-4ad8-9558-57b91e42ce64""}","https://test12345.live/?participantId=E323847D1A9A43C7966A88C86114D06A&assignmentId=5e380c44-0c55-405a-b69d-696a38811ed7&projectId=bea99957-1862-4ad8-9558-57b91e42ce64","","null","<div style=""display: flex; justify-content: center; align-items: center;"">
                    <img src=""images/semantic/semantic_series_15/semantic_series_15_b.jpg"" style=""width: 300px; height: 300px;"" />
                  </div>","null","",""
"","","","","","html-keyboard-response","29","595464","0.0-22.0-2.0","E323847D1A9A43C7966A88C86114D06A","E323847D1A9A43C7966A88C86114D06A","5e380c44-0c55-405a-b69d-696a38811ed7","bea99957-1862-4ad8-9558-57b91e42ce64","{""participantId"":""E323847D1A9A43C7966A88C86114D06A"",""assignmentId"":""5e380c44-0c55-405a-b69d-696a38811ed7"",""projectId"":""bea99957-1862-4ad8-9558-57b91e42ce64""}","https://test12345.live/?participantId=E323847D1A9A43C7966A88C86114D06A&assignmentId=5e380c44-0c55-405a-b69d-696a38811ed7&projectId=bea99957-1862-4ad8-9558-57b91e42ce64","","null","<div style=""display: flex; justify-content: center; align-items: center;"">
                    <img src=""images/semantic/semantic_series_15/semantic_series_15_c.jpg"" style=""width: 300px; height: 300px;"" />
                  </div>","null","",""
"","","","","","html-keyboard-response","30","598466","0.0-22.0-3.0","E323847D1A9A43C7966A88C86114D06A","E323847D1A9A43C7966A88C86114D06A","5e380c44-0c55-405a-b69d-696a38811ed7","bea99957-1862-4ad8-9558-57b91e42ce64","{""participantId"":""E323847D1A9A43C7966A88C86114D06A"",""assignmentId"":""5e380c44-0c55-405a-b69d-696a38811ed7"",""projectId"":""bea99957-1862-4ad8-9558-57b91e42ce64""}","https://test12345.live/?participantId=E323847D1A9A43C7966A88C86114D06A&assignmentId=5e380c44-0c55-405a-b69d-696a38811ed7&projectId=bea99957-1862-4ad8-9558-57b91e42ce64","","null","<div style=""display: flex; justify-content: center; align-items: center;"">
                    <img src=""images/semantic/semantic_series_15/semantic_series_15_d.jpg"" style=""width: 300px; height: 300px;"" />
                  </div>","null","",""
"","","","","","html-button-response","31","606215","0.0-23.0","E323847D1A9A43C7966A88C86114D06A","E323847D1A9A43C7966A88C86114D06A","5e380c44-0c55-405a-b69d-696a38811ed7","bea99957-1862-4ad8-9558-57b91e42ce64","{""participantId"":""E323847D1A9A43C7966A88C86114D06A"",""assignmentId"":""5e380c44-0c55-405a-b69d-696a38811ed7"",""projectId"":""bea99957-1862-4ad8-9558-57b91e42ce64""}","https://test12345.live/?participantId=E323847D1A9A43C7966A88C86114D06A&assignmentId=5e380c44-0c55-405a-b69d-696a38811ed7&projectId=bea99957-1862-4ad8-9558-57b91e42ce64","","7748","Was there a person in the picture?","0","",""
"","","","","","survey-likert","32","616966","0.0-24.0","E323847D1A9A43C7966A88C86114D06A","E323847D1A9A43C7966A88C86114D06A","5e380c44-0c55-405a-b69d-696a38811ed7","bea99957-1862-4ad8-9558-57b91e42ce64","{""participantId"":""E323847D1A9A43C7966A88C86114D06A"",""assignmentId"":""5e380c44-0c55-405a-b69d-696a38811ed7"",""projectId"":""bea99957-1862-4ad8-9558-57b91e42ce64""}","https://test12345.live/?participantId=E323847D1A9A43C7966A88C86114D06A&assignmentId=5e380c44-0c55-405a-b69d-696a38811ed7&projectId=bea99957-1862-4ad8-9558-57b91e42ce64","","10748","","{""Q0"":4}","","[0]"
"","","","","","html-button-response","33","618358","0.0-25.0","E323847D1A9A43C7966A88C86114D06A","E323847D1A9A43C7966A88C86114D06A","5e380c44-0c55-405a-b69d-696a38811ed7","bea99957-1862-4ad8-9558-57b91e42ce64","{""participantId"":""E323847D1A9A43C7966A88C86114D06A"",""assignmentId"":""5e380c44-0c55-405a-b69d-696a38811ed7"",""projectId"":""bea99957-1862-4ad8-9558-57b91e42ce64""}","https://test12345.live/?participantId=E323847D1A9A43C7966A88C86114D06A&assignmentId=5e380c44-0c55-405a-b69d-696a38811ed7&projectId=bea99957-1862-4ad8-9558-57b91e42ce64","","1388","
    <div style=""display: flex; justify-content: center; align-items: center;"">
      <img src=""images/red_deck_2.png"" style=""width: 300px; height: 300px; margin-right: 10px;"" />
      <img src=""images/blue_deck_1.png"" style=""width: 300px; height: 300px;"" />
    </div>","0","0",""
"","","","","","html-keyboard-response","34","621369","0.0-27.0-0.0","E323847D1A9A43C7966A88C86114D06A","E323847D1A9A43C7966A88C86114D06A","5e380c44-0c55-405a-b69d-696a38811ed7","bea99957-1862-4ad8-9558-57b91e42ce64","{""participantId"":""E323847D1A9A43C7966A88C86114D06A"",""assignmentId"":""5e380c44-0c55-405a-b69d-696a38811ed7"",""projectId"":""bea99957-1862-4ad8-9558-57b91e42ce64""}","https://test12345.live/?participantId=E323847D1A9A43C7966A88C86114D06A&assignmentId=5e380c44-0c55-405a-b69d-696a38811ed7&projectId=bea99957-1862-4ad8-9558-57b91e42ce64","","null","<div style=""display: flex; justify-content: center; align-items: center;"">
                    <img src=""images/semantic/semantic_series_3/semantic_series_3_a.jpg"" style=""width: 300px; height: 300px;"" />
                  </div>","null","",""
"","","","","","html-keyboard-response","35","624384","0.0-27.0-1.0","E323847D1A9A43C7966A88C86114D06A","E323847D1A9A43C7966A88C86114D06A","5e380c44-0c55-405a-b69d-696a38811ed7","bea99957-1862-4ad8-9558-57b91e42ce64","{""participantId"":""E323847D1A9A43C7966A88C86114D06A"",""assignmentId"":""5e380c44-0c55-405a-b69d-696a38811ed7"",""projectId"":""bea99957-1862-4ad8-9558-57b91e42ce64""}","https://test12345.live/?participantId=E323847D1A9A43C7966A88C86114D06A&assignmentId=5e380c44-0c55-405a-b69d-696a38811ed7&projectId=bea99957-1862-4ad8-9558-57b91e42ce64","","null","<div style=""display: flex; justify-content: center; align-items: center;"">
                    <img src=""images/semantic/semantic_series_3/semantic_series_3_b.jpg"" style=""width: 300px; height: 300px;"" />
                  </div>","null","",""
"","","","","","html-keyboard-response","36","627399","0.0-27.0-2.0","E323847D1A9A43C7966A88C86114D06A","E323847D1A9A43C7966A88C86114D06A","5e380c44-0c55-405a-b69d-696a38811ed7","bea99957-1862-4ad8-9558-57b91e42ce64","{""participantId"":""E323847D1A9A43C7966A88C86114D06A"",""assignmentId"":""5e380c44-0c55-405a-b69d-696a38811ed7"",""projectId"":""bea99957-1862-4ad8-9558-57b91e42ce64""}","https://test12345.live/?participantId=E323847D1A9A43C7966A88C86114D06A&assignmentId=5e380c44-0c55-405a-b69d-696a38811ed7&projectId=bea99957-1862-4ad8-9558-57b91e42ce64","","null","<div style=""display: flex; justify-content: center; align-items: center;"">
                    <img src=""images/semantic/semantic_series_3/semantic_series_3_c.jpg"" style=""width: 300px; height: 300px;"" />
                  </div>","null","",""
"","","","","","html-keyboard-response","37","630404","0.0-27.0-3.0","E323847D1A9A43C7966A88C86114D06A","E323847D1A9A43C7966A88C86114D06A","5e380c44-0c55-405a-b69d-696a38811ed7","bea99957-1862-4ad8-9558-57b91e42ce64","{""participantId"":""E323847D1A9A43C7966A88C86114D06A"",""assignmentId"":""5e380c44-0c55-405a-b69d-696a38811ed7"",""projectId"":""bea99957-1862-4ad8-9558-57b91e42ce64""}","https://test12345.live/?participantId=E323847D1A9A43C7966A88C86114D06A&assignmentId=5e380c44-0c55-405a-b69d-696a38811ed7&projectId=bea99957-1862-4ad8-9558-57b91e42ce64","","null","<div style=""display: flex; justify-content: center; align-items: center;"">
                    <img src=""images/semantic/semantic_series_3/semantic_series_3_d.jpg"" style=""width: 300px; height: 300px;"" />
                  </div>","null","",""
"","","","","","html-button-response","38","635483","0.0-28.0","E323847D1A9A43C7966A88C86114D06A","E323847D1A9A43C7966A88C86114D06A","5e380c44-0c55-405a-b69d-696a38811ed7","bea99957-1862-4ad8-9558-57b91e42ce64","{""participantId"":""E323847D1A9A43C7966A88C86114D06A"",""assignmentId"":""5e380c44-0c55-405a-b69d-696a38811ed7"",""projectId"":""bea99957-1862-4ad8-9558-57b91e42ce64""}","https://test12345.live/?participantId=E323847D1A9A43C7966A88C86114D06A&assignmentId=5e380c44-0c55-405a-b69d-696a38811ed7&projectId=bea99957-1862-4ad8-9558-57b91e42ce64","","5078","Was there a person in the picture?","0","",""
"","","","","","survey-likert","39","644072","0.0-29.0","E323847D1A9A43C7966A88C86114D06A","E323847D1A9A43C7966A88C86114D06A","5e380c44-0c55-405a-b69d-696a38811ed7","bea99957-1862-4ad8-9558-57b91e42ce64","{""participantId"":""E323847D1A9A43C7966A88C86114D06A"",""assignmentId"":""5e380c44-0c55-405a-b69d-696a38811ed7"",""projectId"":""bea99957-1862-4ad8-9558-57b91e42ce64""}","https://test12345.live/?participantId=E323847D1A9A43C7966A88C86114D06A&assignmentId=5e380c44-0c55-405a-b69d-696a38811ed7&projectId=bea99957-1862-4ad8-9558-57b91e42ce64","","8586","","{""Q0"":4}","","[0]"
"","","","","","html-button-response","40","650521","0.0-30.0","E323847D1A9A43C7966A88C86114D06A","E323847D1A9A43C7966A88C86114D06A","5e380c44-0c55-405a-b69d-696a38811ed7","bea99957-1862-4ad8-9558-57b91e42ce64","{""participantId"":""E323847D1A9A43C7966A88C86114D06A"",""assignmentId"":""5e380c44-0c55-405a-b69d-696a38811ed7"",""projectId"":""bea99957-1862-4ad8-9558-57b91e42ce64""}","https://test12345.live/?participantId=E323847D1A9A43C7966A88C86114D06A&assignmentId=5e380c44-0c55-405a-b69d-696a38811ed7&projectId=bea99957-1862-4ad8-9558-57b91e42ce64","","6445","
    <div style=""display: flex; justify-content: center; align-items: center;"">
      <img src=""images/red_deck_2.png"" style=""width: 300px; height: 300px; margin-right: 10px;"" />
      <img src=""images/blue_deck_1.png"" style=""width: 300px; height: 300px;"" />
    </div>","0","0",""
"","","","","","html-keyboard-response","41","653524","0.0-32.0-0.0","E323847D1A9A43C7966A88C86114D06A","E323847D1A9A43C7966A88C86114D06A","5e380c44-0c55-405a-b69d-696a38811ed7","bea99957-1862-4ad8-9558-57b91e42ce64","{""participantId"":""E323847D1A9A43C7966A88C86114D06A"",""assignmentId"":""5e380c44-0c55-405a-b69d-696a38811ed7"",""projectId"":""bea99957-1862-4ad8-9558-57b91e42ce64""}","https://test12345.live/?participantId=E323847D1A9A43C7966A88C86114D06A&assignmentId=5e380c44-0c55-405a-b69d-696a38811ed7&projectId=bea99957-1862-4ad8-9558-57b91e42ce64","","null","<div style=""display: flex; justify-content: center; align-items: center;"">
                    <img src=""images/semantic/semantic_series_8/semantic_series_8_a.jpg"" style=""width: 300px; height: 300px;"" />
                  </div>","null","",""
"","","","","","html-keyboard-response","42","656537","0.0-32.0-1.0","E323847D1A9A43C7966A88C86114D06A","E323847D1A9A43C7966A88C86114D06A","5e380c44-0c55-405a-b69d-696a38811ed7","bea99957-1862-4ad8-9558-57b91e42ce64","{""participantId"":""E323847D1A9A43C7966A88C86114D06A"",""assignmentId"":""5e380c44-0c55-405a-b69d-696a38811ed7"",""projectId"":""bea99957-1862-4ad8-9558-57b91e42ce64""}","https://test12345.live/?participantId=E323847D1A9A43C7966A88C86114D06A&assignmentId=5e380c44-0c55-405a-b69d-696a38811ed7&projectId=bea99957-1862-4ad8-9558-57b91e42ce64","","null","<div style=""display: flex; justify-content: center; align-items: center;"">
                    <img src=""images/semantic/semantic_series_8/semantic_series_8_b.jpg"" style=""width: 300px; height: 300px;"" />
                  </div>","null","",""
"","","","","","html-keyboard-response","43","659543","0.0-32.0-2.0","E323847D1A9A43C7966A88C86114D06A","E323847D1A9A43C7966A88C86114D06A","5e380c44-0c55-405a-b69d-696a38811ed7","bea99957-1862-4ad8-9558-57b91e42ce64","{""participantId"":""E323847D1A9A43C7966A88C86114D06A"",""assignmentId"":""5e380c44-0c55-405a-b69d-696a38811ed7"",""projectId"":""bea99957-1862-4ad8-9558-57b91e42ce64""}","https://test12345.live/?participantId=E323847D1A9A43C7966A88C86114D06A&assignmentId=5e380c44-0c55-405a-b69d-696a38811ed7&projectId=bea99957-1862-4ad8-9558-57b91e42ce64","","null","<div style=""display: flex; justify-content: center; align-items: center;"">
                    <img src=""images/semantic/semantic_series_8/semantic_series_8_c.jpg"" style=""width: 300px; height: 300px;"" />
                  </div>","null","",""
"","","","","","html-keyboard-response","44","662546","0.0-32.0-3.0","E323847D1A9A43C7966A88C86114D06A","E323847D1A9A43C7966A88C86114D06A","5e380c44-0c55-405a-b69d-696a38811ed7","bea99957-1862-4ad8-9558-57b91e42ce64","{""participantId"":""E323847D1A9A43C7966A88C86114D06A"",""assignmentId"":""5e380c44-0c55-405a-b69d-696a38811ed7"",""projectId"":""bea99957-1862-4ad8-9558-57b91e42ce64""}","https://test12345.live/?participantId=E323847D1A9A43C7966A88C86114D06A&assignmentId=5e380c44-0c55-405a-b69d-696a38811ed7&projectId=bea99957-1862-4ad8-9558-57b91e42ce64","","null","<div style=""display: flex; justify-content: center; align-items: center;"">
                    <img src=""images/semantic/semantic_series_8/semantic_series_8_d.jpg"" style=""width: 300px; height: 300px;"" />
                  </div>","null","",""
"","","","","","html-button-response","45","665741","0.0-33.0","E323847D1A9A43C7966A88C86114D06A","E323847D1A9A43C7966A88C86114D06A","5e380c44-0c55-405a-b69d-696a38811ed7","bea99957-1862-4ad8-9558-57b91e42ce64","{""participantId"":""E323847D1A9A43C7966A88C86114D06A"",""assignmentId"":""5e380c44-0c55-405a-b69d-696a38811ed7"",""projectId"":""bea99957-1862-4ad8-9558-57b91e42ce64""}","https://test12345.live/?participantId=E323847D1A9A43C7966A88C86114D06A&assignmentId=5e380c44-0c55-405a-b69d-696a38811ed7&projectId=bea99957-1862-4ad8-9558-57b91e42ce64","","3194","Was there a person in the picture?","1","",""
"","","","","","survey-likert","46","673584","0.0-34.0","E323847D1A9A43C7966A88C86114D06A","E323847D1A9A43C7966A88C86114D06A","5e380c44-0c55-405a-b69d-696a38811ed7","bea99957-1862-4ad8-9558-57b91e42ce64","{""participantId"":""E323847D1A9A43C7966A88C86114D06A"",""assignmentId"":""5e380c44-0c55-405a-b69d-696a38811ed7"",""projectId"":""bea99957-1862-4ad8-9558-57b91e42ce64""}","https://test12345.live/?participantId=E323847D1A9A43C7966A88C86114D06A&assignmentId=5e380c44-0c55-405a-b69d-696a38811ed7&projectId=bea99957-1862-4ad8-9558-57b91e42ce64","","7841","","{""Q0"":4}","","[0]"
"","","","","","html-button-response","47","675032","0.0-35.0","E323847D1A9A43C7966A88C86114D06A","E323847D1A9A43C7966A88C86114D06A","5e380c44-0c55-405a-b69d-696a38811ed7","bea99957-1862-4ad8-9558-57b91e42ce64","{""participantId"":""E323847D1A9A43C7966A88C86114D06A"",""assignmentId"":""5e380c44-0c55-405a-b69d-696a38811ed7"",""projectId"":""bea99957-1862-4ad8-9558-57b91e42ce64""}","https://test12345.live/?participantId=E323847D1A9A43C7966A88C86114D06A&assignmentId=5e380c44-0c55-405a-b69d-696a38811ed7&projectId=bea99957-1862-4ad8-9558-57b91e42ce64","","1445","
    <div style=""display: flex; justify-content: center; align-items: center;"">
      <img src=""images/red_deck_2.png"" style=""width: 300px; height: 300px; margin-right: 10px;"" />
      <img src=""images/blue_deck_1.png"" style=""width: 300px; height: 300px;"" />
    </div>","1","1",""
"","","","","","html-keyboard-response","48","678050","0.0-36.0-0.0","E323847D1A9A43C7966A88C86114D06A","E323847D1A9A43C7966A88C86114D06A","5e380c44-0c55-405a-b69d-696a38811ed7","bea99957-1862-4ad8-9558-57b91e42ce64","{""participantId"":""E323847D1A9A43C7966A88C86114D06A"",""assignmentId"":""5e380c44-0c55-405a-b69d-696a38811ed7"",""projectId"":""bea99957-1862-4ad8-9558-57b91e42ce64""}","https://test12345.live/?participantId=E323847D1A9A43C7966A88C86114D06A&assignmentId=5e380c44-0c55-405a-b69d-696a38811ed7&projectId=bea99957-1862-4ad8-9558-57b91e42ce64","","null","<div style=""display: flex; justify-content: center; align-items: center;"">
                    <img src=""images/causal/causal_series_12/causal_series_12_a.jpg"" style=""width: 300px; height: 300px;"" />
                  </div>","null","",""
"","","","","","html-keyboard-response","49","681052","0.0-36.0-1.0","E323847D1A9A43C7966A88C86114D06A","E323847D1A9A43C7966A88C86114D06A","5e380c44-0c55-405a-b69d-696a38811ed7","bea99957-1862-4ad8-9558-57b91e42ce64","{""participantId"":""E323847D1A9A43C7966A88C86114D06A"",""assignmentId"":""5e380c44-0c55-405a-b69d-696a38811ed7"",""projectId"":""bea99957-1862-4ad8-9558-57b91e42ce64""}","https://test12345.live/?participantId=E323847D1A9A43C7966A88C86114D06A&assignmentId=5e380c44-0c55-405a-b69d-696a38811ed7&projectId=bea99957-1862-4ad8-9558-57b91e42ce64","","null","<div style=""display: flex; justify-content: center; align-items: center;"">
                    <img src=""images/causal/causal_series_12/causal_series_12_b.jpg"" style=""width: 300px; height: 300px;"" />
                  </div>","null","",""
"","","","","","html-keyboard-response","50","684054","0.0-36.0-2.0","E323847D1A9A43C7966A88C86114D06A","E323847D1A9A43C7966A88C86114D06A","5e380c44-0c55-405a-b69d-696a38811ed7","bea99957-1862-4ad8-9558-57b91e42ce64","{""participantId"":""E323847D1A9A43C7966A88C86114D06A"",""assignmentId"":""5e380c44-0c55-405a-b69d-696a38811ed7"",""projectId"":""bea99957-1862-4ad8-9558-57b91e42ce64""}","https://test12345.live/?participantId=E323847D1A9A43C7966A88C86114D06A&assignmentId=5e380c44-0c55-405a-b69d-696a38811ed7&projectId=bea99957-1862-4ad8-9558-57b91e42ce64","","null","<div style=""display: flex; justify-content: center; align-items: center;"">
                    <img src=""images/causal/causal_series_12/causal_series_12_c.jpg"" style=""width: 300px; height: 300px;"" />
                  </div>","null","",""
"","","","","","html-keyboard-response","51","687060","0.0-36.0-3.0","E323847D1A9A43C7966A88C86114D06A","E323847D1A9A43C7966A88C86114D06A","5e380c44-0c55-405a-b69d-696a38811ed7","bea99957-1862-4ad8-9558-57b91e42ce64","{""participantId"":""E323847D1A9A43C7966A88C86114D06A"",""assignmentId"":""5e380c44-0c55-405a-b69d-696a38811ed7"",""projectId"":""bea99957-1862-4ad8-9558-57b91e42ce64""}","https://test12345.live/?participantId=E323847D1A9A43C7966A88C86114D06A&assignmentId=5e380c44-0c55-405a-b69d-696a38811ed7&projectId=bea99957-1862-4ad8-9558-57b91e42ce64","","null","<div style=""display: flex; justify-content: center; align-items: center;"">
                    <img src=""images/causal/causal_series_12/causal_series_12_d.jpg"" style=""width: 300px; height: 300px;"" />
                  </div>","null","",""
"","","","","","html-button-response","52","689945","0.0-38.0","E323847D1A9A43C7966A88C86114D06A","E323847D1A9A43C7966A88C86114D06A","5e380c44-0c55-405a-b69d-696a38811ed7","bea99957-1862-4ad8-9558-57b91e42ce64","{""participantId"":""E323847D1A9A43C7966A88C86114D06A"",""assignmentId"":""5e380c44-0c55-405a-b69d-696a38811ed7"",""projectId"":""bea99957-1862-4ad8-9558-57b91e42ce64""}","https://test12345.live/?participantId=E323847D1A9A43C7966A88C86114D06A&assignmentId=5e380c44-0c55-405a-b69d-696a38811ed7&projectId=bea99957-1862-4ad8-9558-57b91e42ce64","","2882","Was there a person in the picture?","1","",""
"","","","","","survey-likert","53","734858","0.0-39.0","E323847D1A9A43C7966A88C86114D06A","E323847D1A9A43C7966A88C86114D06A","5e380c44-0c55-405a-b69d-696a38811ed7","bea99957-1862-4ad8-9558-57b91e42ce64","{""participantId"":""E323847D1A9A43C7966A88C86114D06A"",""assignmentId"":""5e380c44-0c55-405a-b69d-696a38811ed7"",""projectId"":""bea99957-1862-4ad8-9558-57b91e42ce64""}","https://test12345.live/?participantId=E323847D1A9A43C7966A88C86114D06A&assignmentId=5e380c44-0c55-405a-b69d-696a38811ed7&projectId=bea99957-1862-4ad8-9558-57b91e42ce64","","44910","","{""Q0"":4}","","[0]"
"","","","","","html-button-response","54","740627","0.0-40.0","E323847D1A9A43C7966A88C86114D06A","E323847D1A9A43C7966A88C86114D06A","5e380c44-0c55-405a-b69d-696a38811ed7","bea99957-1862-4ad8-9558-57b91e42ce64","{""participantId"":""E323847D1A9A43C7966A88C86114D06A"",""assignmentId"":""5e380c44-0c55-405a-b69d-696a38811ed7"",""projectId"":""bea99957-1862-4ad8-9558-57b91e42ce64""}","https://test12345.live/?participantId=E323847D1A9A43C7966A88C86114D06A&assignmentId=5e380c44-0c55-405a-b69d-696a38811ed7&projectId=bea99957-1862-4ad8-9558-57b91e42ce64","","5766","
    <div style=""display: flex; justify-content: center; align-items: center;"">
      <img src=""images/red_deck_2.png"" style=""width: 300px; height: 300px; margin-right: 10px;"" />
      <img src=""images/blue_deck_1.png"" style=""width: 300px; height: 300px;"" />
    </div>","0","0",""
"","","","","","html-keyboard-response","55","743635","0.0-42.0-0.0","E323847D1A9A43C7966A88C86114D06A","E323847D1A9A43C7966A88C86114D06A","5e380c44-0c55-405a-b69d-696a38811ed7","bea99957-1862-4ad8-9558-57b91e42ce64","{""participantId"":""E323847D1A9A43C7966A88C86114D06A"",""assignmentId"":""5e380c44-0c55-405a-b69d-696a38811ed7"",""projectId"":""bea99957-1862-4ad8-9558-57b91e42ce64""}","https://test12345.live/?participantId=E323847D1A9A43C7966A88C86114D06A&assignmentId=5e380c44-0c55-405a-b69d-696a38811ed7&projectId=bea99957-1862-4ad8-9558-57b91e42ce64","","null","<div style=""display: flex; justify-content: center; align-items: center;"">
                    <img src=""images/semantic/semantic_series_9/semantic_series_9_a.jpg"" style=""width: 300px; height: 300px;"" />
                  </div>","null","",""
"","","","","","html-keyboard-response","56","746650","0.0-42.0-1.0","E323847D1A9A43C7966A88C86114D06A","E323847D1A9A43C7966A88C86114D06A","5e380c44-0c55-405a-b69d-696a38811ed7","bea99957-1862-4ad8-9558-57b91e42ce64","{""participantId"":""E323847D1A9A43C7966A88C86114D06A"",""assignmentId"":""5e380c44-0c55-405a-b69d-696a38811ed7"",""projectId"":""bea99957-1862-4ad8-9558-57b91e42ce64""}","https://test12345.live/?participantId=E323847D1A9A43C7966A88C86114D06A&assignmentId=5e380c44-0c55-405a-b69d-696a38811ed7&projectId=bea99957-1862-4ad8-9558-57b91e42ce64","","null","<div style=""display: flex; justify-content: center; align-items: center;"">
                    <img src=""images/semantic/semantic_series_9/semantic_series_9_b.jpg"" style=""width: 300px; height: 300px;"" />
                  </div>","null","",""
"","","","","","html-keyboard-response","57","749654","0.0-42.0-2.0","E323847D1A9A43C7966A88C86114D06A","E323847D1A9A43C7966A88C86114D06A","5e380c44-0c55-405a-b69d-696a38811ed7","bea99957-1862-4ad8-9558-57b91e42ce64","{""participantId"":""E323847D1A9A43C7966A88C86114D06A"",""assignmentId"":""5e380c44-0c55-405a-b69d-696a38811ed7"",""projectId"":""bea99957-1862-4ad8-9558-57b91e42ce64""}","https://test12345.live/?participantId=E323847D1A9A43C7966A88C86114D06A&assignmentId=5e380c44-0c55-405a-b69d-696a38811ed7&projectId=bea99957-1862-4ad8-9558-57b91e42ce64","","null","<div style=""display: flex; justify-content: center; align-items: center;"">
                    <img src=""images/semantic/semantic_series_9/semantic_series_9_c.jpg"" style=""width: 300px; height: 300px;"" />
                  </div>","null","",""
"","","","","","html-keyboard-response","58","752666","0.0-42.0-3.0","E323847D1A9A43C7966A88C86114D06A","E323847D1A9A43C7966A88C86114D06A","5e380c44-0c55-405a-b69d-696a38811ed7","bea99957-1862-4ad8-9558-57b91e42ce64","{""participantId"":""E323847D1A9A43C7966A88C86114D06A"",""assignmentId"":""5e380c44-0c55-405a-b69d-696a38811ed7"",""projectId"":""bea99957-1862-4ad8-9558-57b91e42ce64""}","https://test12345.live/?participantId=E323847D1A9A43C7966A88C86114D06A&assignmentId=5e380c44-0c55-405a-b69d-696a38811ed7&projectId=bea99957-1862-4ad8-9558-57b91e42ce64","","null","<div style=""display: flex; justify-content: center; align-items: center;"">
                    <img src=""images/semantic/semantic_series_9/semantic_series_9_d.jpg"" style=""width: 300px; height: 300px;"" />
                  </div>","null","",""
"","","","","","html-button-response","59","759566","0.0-43.0","E323847D1A9A43C7966A88C86114D06A","E323847D1A9A43C7966A88C86114D06A","5e380c44-0c55-405a-b69d-696a38811ed7","bea99957-1862-4ad8-9558-57b91e42ce64","{""participantId"":""E323847D1A9A43C7966A88C86114D06A"",""assignmentId"":""5e380c44-0c55-405a-b69d-696a38811ed7"",""projectId"":""bea99957-1862-4ad8-9558-57b91e42ce64""}","https://test12345.live/?participantId=E323847D1A9A43C7966A88C86114D06A&assignmentId=5e380c44-0c55-405a-b69d-696a38811ed7&projectId=bea99957-1862-4ad8-9558-57b91e42ce64","","6898","Was there a person in the picture?","1","",""
"","","","","","survey-likert","60","771965","0.0-44.0","E323847D1A9A43C7966A88C86114D06A","E323847D1A9A43C7966A88C86114D06A","5e380c44-0c55-405a-b69d-696a38811ed7","bea99957-1862-4ad8-9558-57b91e42ce64","{""participantId"":""E323847D1A9A43C7966A88C86114D06A"",""assignmentId"":""5e380c44-0c55-405a-b69d-696a38811ed7"",""projectId"":""bea99957-1862-4ad8-9558-57b91e42ce64""}","https://test12345.live/?participantId=E323847D1A9A43C7966A88C86114D06A&assignmentId=5e380c44-0c55-405a-b69d-696a38811ed7&projectId=bea99957-1862-4ad8-9558-57b91e42ce64","","12397","","{""Q0"":4}","","[0]"
"","","","","","html-button-response","61","790825","0.0-45.0","E323847D1A9A43C7966A88C86114D06A","E323847D1A9A43C7966A88C86114D06A","5e380c44-0c55-405a-b69d-696a38811ed7","bea99957-1862-4ad8-9558-57b91e42ce64","{""participantId"":""E323847D1A9A43C7966A88C86114D06A"",""assignmentId"":""5e380c44-0c55-405a-b69d-696a38811ed7"",""projectId"":""bea99957-1862-4ad8-9558-57b91e42ce64""}","https://test12345.live/?participantId=E323847D1A9A43C7966A88C86114D06A&assignmentId=5e380c44-0c55-405a-b69d-696a38811ed7&projectId=bea99957-1862-4ad8-9558-57b91e42ce64","","18858","
    <div style=""display: flex; justify-content: center; align-items: center;"">
      <img src=""images/red_deck_2.png"" style=""width: 300px; height: 300px; margin-right: 10px;"" />
      <img src=""images/blue_deck_1.png"" style=""width: 300px; height: 300px;"" />
    </div>","1","1",""
"","","","","","html-keyboard-response","62","793840","0.0-46.0-0.0","E323847D1A9A43C7966A88C86114D06A","E323847D1A9A43C7966A88C86114D06A","5e380c44-0c55-405a-b69d-696a38811ed7","bea99957-1862-4ad8-9558-57b91e42ce64","{""participantId"":""E323847D1A9A43C7966A88C86114D06A"",""assignmentId"":""5e380c44-0c55-405a-b69d-696a38811ed7"",""projectId"":""bea99957-1862-4ad8-9558-57b91e42ce64""}","https://test12345.live/?participantId=E323847D1A9A43C7966A88C86114D06A&assignmentId=5e380c44-0c55-405a-b69d-696a38811ed7&projectId=bea99957-1862-4ad8-9558-57b91e42ce64","","null","<div style=""display: flex; justify-content: center; align-items: center;"">
                    <img src=""images/causal/causal_series_1/causal_series_1_a.jpg"" style=""width: 300px; height: 300px;"" />
                  </div>","null","",""
"","","","","","html-keyboard-response","63","796856","0.0-46.0-1.0","E323847D1A9A43C7966A88C86114D06A","E323847D1A9A43C7966A88C86114D06A","5e380c44-0c55-405a-b69d-696a38811ed7","bea99957-1862-4ad8-9558-57b91e42ce64","{""participantId"":""E323847D1A9A43C7966A88C86114D06A"",""assignmentId"":""5e380c44-0c55-405a-b69d-696a38811ed7"",""projectId"":""bea99957-1862-4ad8-9558-57b91e42ce64""}","https://test12345.live/?participantId=E323847D1A9A43C7966A88C86114D06A&assignmentId=5e380c44-0c55-405a-b69d-696a38811ed7&projectId=bea99957-1862-4ad8-9558-57b91e42ce64","","null","<div style=""display: flex; justify-content: center; align-items: center;"">
                    <img src=""images/causal/causal_series_1/causal_series_1_b.jpg"" style=""width: 300px; height: 300px;"" />
                  </div>","null","",""
"","","","","","html-keyboard-response","64","799861","0.0-46.0-2.0","E323847D1A9A43C7966A88C86114D06A","E323847D1A9A43C7966A88C86114D06A","5e380c44-0c55-405a-b69d-696a38811ed7","bea99957-1862-4ad8-9558-57b91e42ce64","{""participantId"":""E323847D1A9A43C7966A88C86114D06A"",""assignmentId"":""5e380c44-0c55-405a-b69d-696a38811ed7"",""projectId"":""bea99957-1862-4ad8-9558-57b91e42ce64""}","https://test12345.live/?participantId=E323847D1A9A43C7966A88C86114D06A&assignmentId=5e380c44-0c55-405a-b69d-696a38811ed7&projectId=bea99957-1862-4ad8-9558-57b91e42ce64","","null","<div style=""display: flex; justify-content: center; align-items: center;"">
                    <img src=""images/causal/causal_series_1/causal_series_1_c.jpg"" style=""width: 300px; height: 300px;"" />
                  </div>","null","",""
"","","","","","html-keyboard-response","65","802873","0.0-46.0-3.0","E323847D1A9A43C7966A88C86114D06A","E323847D1A9A43C7966A88C86114D06A","5e380c44-0c55-405a-b69d-696a38811ed7","bea99957-1862-4ad8-9558-57b91e42ce64","{""participantId"":""E323847D1A9A43C7966A88C86114D06A"",""assignmentId"":""5e380c44-0c55-405a-b69d-696a38811ed7"",""projectId"":""bea99957-1862-4ad8-9558-57b91e42ce64""}","https://test12345.live/?participantId=E323847D1A9A43C7966A88C86114D06A&assignmentId=5e380c44-0c55-405a-b69d-696a38811ed7&projectId=bea99957-1862-4ad8-9558-57b91e42ce64","","null","<div style=""display: flex; justify-content: center; align-items: center;"">
                    <img src=""images/causal/causal_series_1/causal_series_1_d.jpg"" style=""width: 300px; height: 300px;"" />
                  </div>","null","",""
"","","","","","html-button-response","66","815687","0.0-48.0","E323847D1A9A43C7966A88C86114D06A","E323847D1A9A43C7966A88C86114D06A","5e380c44-0c55-405a-b69d-696a38811ed7","bea99957-1862-4ad8-9558-57b91e42ce64","{""participantId"":""E323847D1A9A43C7966A88C86114D06A"",""assignmentId"":""5e380c44-0c55-405a-b69d-696a38811ed7"",""projectId"":""bea99957-1862-4ad8-9558-57b91e42ce64""}","https://test12345.live/?participantId=E323847D1A9A43C7966A88C86114D06A&assignmentId=5e380c44-0c55-405a-b69d-696a38811ed7&projectId=bea99957-1862-4ad8-9558-57b91e42ce64","","12812","Was there a person in the picture?","1","",""
"","","","","","survey-likert","67","821499","0.0-49.0","E323847D1A9A43C7966A88C86114D06A","E323847D1A9A43C7966A88C86114D06A","5e380c44-0c55-405a-b69d-696a38811ed7","bea99957-1862-4ad8-9558-57b91e42ce64","{""participantId"":""E323847D1A9A43C7966A88C86114D06A"",""assignmentId"":""5e380c44-0c55-405a-b69d-696a38811ed7"",""projectId"":""bea99957-1862-4ad8-9558-57b91e42ce64""}","https://test12345.live/?participantId=E323847D1A9A43C7966A88C86114D06A&assignmentId=5e380c44-0c55-405a-b69d-696a38811ed7&projectId=bea99957-1862-4ad8-9558-57b91e42ce64","","5810","","{""Q0"":4}","","[0]"
"","","","","","html-button-response","68","822859","0.0-50.0","E323847D1A9A43C7966A88C86114D06A","E323847D1A9A43C7966A88C86114D06A","5e380c44-0c55-405a-b69d-696a38811ed7","bea99957-1862-4ad8-9558-57b91e42ce64","{""participantId"":""E323847D1A9A43C7966A88C86114D06A"",""assignmentId"":""5e380c44-0c55-405a-b69d-696a38811ed7"",""projectId"":""bea99957-1862-4ad8-9558-57b91e42ce64""}","https://test12345.live/?participantId=E323847D1A9A43C7966A88C86114D06A&assignmentId=5e380c44-0c55-405a-b69d-696a38811ed7&projectId=bea99957-1862-4ad8-9558-57b91e42ce64","","1356","
    <div style=""display: flex; justify-content: center; align-items: center;"">
      <img src=""images/red_deck_2.png"" style=""width: 300px; height: 300px; margin-right: 10px;"" />
      <img src=""images/blue_deck_1.png"" style=""width: 300px; height: 300px;"" />
    </div>","1","1",""
"","","","","","html-keyboard-response","69","825860","0.0-51.0-0.0","E323847D1A9A43C7966A88C86114D06A","E323847D1A9A43C7966A88C86114D06A","5e380c44-0c55-405a-b69d-696a38811ed7","bea99957-1862-4ad8-9558-57b91e42ce64","{""participantId"":""E323847D1A9A43C7966A88C86114D06A"",""assignmentId"":""5e380c44-0c55-405a-b69d-696a38811ed7"",""projectId"":""bea99957-1862-4ad8-9558-57b91e42ce64""}","https://test12345.live/?participantId=E323847D1A9A43C7966A88C86114D06A&assignmentId=5e380c44-0c55-405a-b69d-696a38811ed7&projectId=bea99957-1862-4ad8-9558-57b91e42ce64","","null","<div style=""display: flex; justify-content: center; align-items: center;"">
                    <img src=""images/causal/causal_series_6/causal_series_6_a.jpg"" style=""width: 300px; height: 300px;"" />
                  </div>","null","",""
"","","","","","html-keyboard-response","70","828871","0.0-51.0-1.0","E323847D1A9A43C7966A88C86114D06A","E323847D1A9A43C7966A88C86114D06A","5e380c44-0c55-405a-b69d-696a38811ed7","bea99957-1862-4ad8-9558-57b91e42ce64","{""participantId"":""E323847D1A9A43C7966A88C86114D06A"",""assignmentId"":""5e380c44-0c55-405a-b69d-696a38811ed7"",""projectId"":""bea99957-1862-4ad8-9558-57b91e42ce64""}","https://test12345.live/?participantId=E323847D1A9A43C7966A88C86114D06A&assignmentId=5e380c44-0c55-405a-b69d-696a38811ed7&projectId=bea99957-1862-4ad8-9558-57b91e42ce64","","null","<div style=""display: flex; justify-content: center; align-items: center;"">
                    <img src=""images/causal/causal_series_6/causal_series_6_b.jpg"" style=""width: 300px; height: 300px;"" />
                  </div>","null","",""
"","","","","","html-keyboard-response","71","831881","0.0-51.0-2.0","E323847D1A9A43C7966A88C86114D06A","E323847D1A9A43C7966A88C86114D06A","5e380c44-0c55-405a-b69d-696a38811ed7","bea99957-1862-4ad8-9558-57b91e42ce64","{""participantId"":""E323847D1A9A43C7966A88C86114D06A"",""assignmentId"":""5e380c44-0c55-405a-b69d-696a38811ed7"",""projectId"":""bea99957-1862-4ad8-9558-57b91e42ce64""}","https://test12345.live/?participantId=E323847D1A9A43C7966A88C86114D06A&assignmentId=5e380c44-0c55-405a-b69d-696a38811ed7&projectId=bea99957-1862-4ad8-9558-57b91e42ce64","","null","<div style=""display: flex; justify-content: center; align-items: center;"">
                    <img src=""images/causal/causal_series_6/causal_series_6_c.jpg"" style=""width: 300px; height: 300px;"" />
                  </div>","null","",""
"","","","","","html-keyboard-response","72","834883","0.0-51.0-3.0","E323847D1A9A43C7966A88C86114D06A","E323847D1A9A43C7966A88C86114D06A","5e380c44-0c55-405a-b69d-696a38811ed7","bea99957-1862-4ad8-9558-57b91e42ce64","{""participantId"":""E323847D1A9A43C7966A88C86114D06A"",""assignmentId"":""5e380c44-0c55-405a-b69d-696a38811ed7"",""projectId"":""bea99957-1862-4ad8-9558-57b91e42ce64""}","https://test12345.live/?participantId=E323847D1A9A43C7966A88C86114D06A&assignmentId=5e380c44-0c55-405a-b69d-696a38811ed7&projectId=bea99957-1862-4ad8-9558-57b91e42ce64","","null","<div style=""display: flex; justify-content: center; align-items: center;"">
                    <img src=""images/causal/causal_series_6/causal_series_6_d.jpg"" style=""width: 300px; height: 300px;"" />
                  </div>","null","",""
"","","","","","html-button-response","73","855270","0.0-53.0","E323847D1A9A43C7966A88C86114D06A","E323847D1A9A43C7966A88C86114D06A","5e380c44-0c55-405a-b69d-696a38811ed7","bea99957-1862-4ad8-9558-57b91e42ce64","{""participantId"":""E323847D1A9A43C7966A88C86114D06A"",""assignmentId"":""5e380c44-0c55-405a-b69d-696a38811ed7"",""projectId"":""bea99957-1862-4ad8-9558-57b91e42ce64""}","https://test12345.live/?participantId=E323847D1A9A43C7966A88C86114D06A&assignmentId=5e380c44-0c55-405a-b69d-696a38811ed7&projectId=bea99957-1862-4ad8-9558-57b91e42ce64","","20386","Was there a person in the picture?","1","",""
"","","","","","survey-likert","74","858499","0.0-54.0","E323847D1A9A43C7966A88C86114D06A","E323847D1A9A43C7966A88C86114D06A","5e380c44-0c55-405a-b69d-696a38811ed7","bea99957-1862-4ad8-9558-57b91e42ce64","{""participantId"":""E323847D1A9A43C7966A88C86114D06A"",""assignmentId"":""5e380c44-0c55-405a-b69d-696a38811ed7"",""projectId"":""bea99957-1862-4ad8-9558-57b91e42ce64""}","https://test12345.live/?participantId=E323847D1A9A43C7966A88C86114D06A&assignmentId=5e380c44-0c55-405a-b69d-696a38811ed7&projectId=bea99957-1862-4ad8-9558-57b91e42ce64","","3227","","{""Q0"":4}","","[0]"
"","","","","","html-button-response","75","865812","0.0-55.0","E323847D1A9A43C7966A88C86114D06A","E323847D1A9A43C7966A88C86114D06A","5e380c44-0c55-405a-b69d-696a38811ed7","bea99957-1862-4ad8-9558-57b91e42ce64","{""participantId"":""E323847D1A9A43C7966A88C86114D06A"",""assignmentId"":""5e380c44-0c55-405a-b69d-696a38811ed7"",""projectId"":""bea99957-1862-4ad8-9558-57b91e42ce64""}","https://test12345.live/?participantId=E323847D1A9A43C7966A88C86114D06A&assignmentId=5e380c44-0c55-405a-b69d-696a38811ed7&projectId=bea99957-1862-4ad8-9558-57b91e42ce64","","7310","
    <div style=""display: flex; justify-content: center; align-items: center;"">
      <img src=""images/red_deck_2.png"" style=""width: 300px; height: 300px; margin-right: 10px;"" />
      <img src=""images/blue_deck_1.png"" style=""width: 300px; height: 300px;"" />
    </div>","0","0",""
"","","","","","html-keyboard-response","76","868827","0.0-57.0-0.0","E323847D1A9A43C7966A88C86114D06A","E323847D1A9A43C7966A88C86114D06A","5e380c44-0c55-405a-b69d-696a38811ed7","bea99957-1862-4ad8-9558-57b91e42ce64","{""participantId"":""E323847D1A9A43C7966A88C86114D06A"",""assignmentId"":""5e380c44-0c55-405a-b69d-696a38811ed7"",""projectId"":""bea99957-1862-4ad8-9558-57b91e42ce64""}","https://test12345.live/?participantId=E323847D1A9A43C7966A88C86114D06A&assignmentId=5e380c44-0c55-405a-b69d-696a38811ed7&projectId=bea99957-1862-4ad8-9558-57b91e42ce64","","null","<div style=""display: flex; justify-content: center; align-items: center;"">
                    <img src=""images/semantic/semantic_series_12/semantic_series_12_a.jpg"" style=""width: 300px; height: 300px;"" />
                  </div>","null","",""
"","","","","","html-keyboard-response","77","871835","0.0-57.0-1.0","E323847D1A9A43C7966A88C86114D06A","E323847D1A9A43C7966A88C86114D06A","5e380c44-0c55-405a-b69d-696a38811ed7","bea99957-1862-4ad8-9558-57b91e42ce64","{""participantId"":""E323847D1A9A43C7966A88C86114D06A"",""assignmentId"":""5e380c44-0c55-405a-b69d-696a38811ed7"",""projectId"":""bea99957-1862-4ad8-9558-57b91e42ce64""}","https://test12345.live/?participantId=E323847D1A9A43C7966A88C86114D06A&assignmentId=5e380c44-0c55-405a-b69d-696a38811ed7&projectId=bea99957-1862-4ad8-9558-57b91e42ce64","","null","<div style=""display: flex; justify-content: center; align-items: center;"">
                    <img src=""images/semantic/semantic_series_12/semantic_series_12_b.jpg"" style=""width: 300px; height: 300px;"" />
                  </div>","null","",""
"","","","","","html-keyboard-response","78","874845","0.0-57.0-2.0","E323847D1A9A43C7966A88C86114D06A","E323847D1A9A43C7966A88C86114D06A","5e380c44-0c55-405a-b69d-696a38811ed7","bea99957-1862-4ad8-9558-57b91e42ce64","{""participantId"":""E323847D1A9A43C7966A88C86114D06A"",""assignmentId"":""5e380c44-0c55-405a-b69d-696a38811ed7"",""projectId"":""bea99957-1862-4ad8-9558-57b91e42ce64""}","https://test12345.live/?participantId=E323847D1A9A43C7966A88C86114D06A&assignmentId=5e380c44-0c55-405a-b69d-696a38811ed7&projectId=bea99957-1862-4ad8-9558-57b91e42ce64","","null","<div style=""display: flex; justify-content: center; align-items: center;"">
                    <img src=""images/semantic/semantic_series_12/semantic_series_12_c.jpg"" style=""width: 300px; height: 300px;"" />
                  </div>","null","",""
"","","","","","html-keyboard-response","79","877854","0.0-57.0-3.0","E323847D1A9A43C7966A88C86114D06A","E323847D1A9A43C7966A88C86114D06A","5e380c44-0c55-405a-b69d-696a38811ed7","bea99957-1862-4ad8-9558-57b91e42ce64","{""participantId"":""E323847D1A9A43C7966A88C86114D06A"",""assignmentId"":""5e380c44-0c55-405a-b69d-696a38811ed7"",""projectId"":""bea99957-1862-4ad8-9558-57b91e42ce64""}","https://test12345.live/?participantId=E323847D1A9A43C7966A88C86114D06A&assignmentId=5e380c44-0c55-405a-b69d-696a38811ed7&projectId=bea99957-1862-4ad8-9558-57b91e42ce64","","null","<div style=""display: flex; justify-content: center; align-items: center;"">
                    <img src=""images/semantic/semantic_series_12/semantic_series_12_d.jpg"" style=""width: 300px; height: 300px;"" />
                  </div>","null","",""
"","","","","","html-button-response","80","882155","0.0-58.0","E323847D1A9A43C7966A88C86114D06A","E323847D1A9A43C7966A88C86114D06A","5e380c44-0c55-405a-b69d-696a38811ed7","bea99957-1862-4ad8-9558-57b91e42ce64","{""participantId"":""E323847D1A9A43C7966A88C86114D06A"",""assignmentId"":""5e380c44-0c55-405a-b69d-696a38811ed7"",""projectId"":""bea99957-1862-4ad8-9558-57b91e42ce64""}","https://test12345.live/?participantId=E323847D1A9A43C7966A88C86114D06A&assignmentId=5e380c44-0c55-405a-b69d-696a38811ed7&projectId=bea99957-1862-4ad8-9558-57b91e42ce64","","4300","Was there a person in the picture?","1","",""
"","","","","","survey-likert","81","889345","0.0-59.0","E323847D1A9A43C7966A88C86114D06A","E323847D1A9A43C7966A88C86114D06A","5e380c44-0c55-405a-b69d-696a38811ed7","bea99957-1862-4ad8-9558-57b91e42ce64","{""participantId"":""E323847D1A9A43C7966A88C86114D06A"",""assignmentId"":""5e380c44-0c55-405a-b69d-696a38811ed7"",""projectId"":""bea99957-1862-4ad8-9558-57b91e42ce64""}","https://test12345.live/?participantId=E323847D1A9A43C7966A88C86114D06A&assignmentId=5e380c44-0c55-405a-b69d-696a38811ed7&projectId=bea99957-1862-4ad8-9558-57b91e42ce64","","7187","","{""Q0"":4}","","[0]"
"","","","","","html-button-response","82","942119","0.0-60.0","E323847D1A9A43C7966A88C86114D06A","E323847D1A9A43C7966A88C86114D06A","5e380c44-0c55-405a-b69d-696a38811ed7","bea99957-1862-4ad8-9558-57b91e42ce64","{""participantId"":""E323847D1A9A43C7966A88C86114D06A"",""assignmentId"":""5e380c44-0c55-405a-b69d-696a38811ed7"",""projectId"":""bea99957-1862-4ad8-9558-57b91e42ce64""}","https://test12345.live/?participantId=E323847D1A9A43C7966A88C86114D06A&assignmentId=5e380c44-0c55-405a-b69d-696a38811ed7&projectId=bea99957-1862-4ad8-9558-57b91e42ce64","","52771","
    <div style=""display: flex; justify-content: center; align-items: center;"">
      <img src=""images/red_deck_2.png"" style=""width: 300px; height: 300px; margin-right: 10px;"" />
      <img src=""images/blue_deck_1.png"" style=""width: 300px; height: 300px;"" />
    </div>","1","1",""
"","","","","","html-keyboard-response","83","945122","0.0-61.0-0.0","E323847D1A9A43C7966A88C86114D06A","E323847D1A9A43C7966A88C86114D06A","5e380c44-0c55-405a-b69d-696a38811ed7","bea99957-1862-4ad8-9558-57b91e42ce64","{""participantId"":""E323847D1A9A43C7966A88C86114D06A"",""assignmentId"":""5e380c44-0c55-405a-b69d-696a38811ed7"",""projectId"":""bea99957-1862-4ad8-9558-57b91e42ce64""}","https://test12345.live/?participantId=E323847D1A9A43C7966A88C86114D06A&assignmentId=5e380c44-0c55-405a-b69d-696a38811ed7&projectId=bea99957-1862-4ad8-9558-57b91e42ce64","","null","<div style=""display: flex; justify-content: center; align-items: center;"">
                    <img src=""images/causal/causal_series_5/causal_series_5_a.jpg"" style=""width: 300px; height: 300px;"" />
                  </div>","null","",""
"","","","","","html-keyboard-response","84","948129","0.0-61.0-1.0","E323847D1A9A43C7966A88C86114D06A","E323847D1A9A43C7966A88C86114D06A","5e380c44-0c55-405a-b69d-696a38811ed7","bea99957-1862-4ad8-9558-57b91e42ce64","{""participantId"":""E323847D1A9A43C7966A88C86114D06A"",""assignmentId"":""5e380c44-0c55-405a-b69d-696a38811ed7"",""projectId"":""bea99957-1862-4ad8-9558-57b91e42ce64""}","https://test12345.live/?participantId=E323847D1A9A43C7966A88C86114D06A&assignmentId=5e380c44-0c55-405a-b69d-696a38811ed7&projectId=bea99957-1862-4ad8-9558-57b91e42ce64","","null","<div style=""display: flex; justify-content: center; align-items: center;"">
                    <img src=""images/causal/causal_series_5/causal_series_5_b.jpg"" style=""width: 300px; height: 300px;"" />
                  </div>","null","",""
"","","","","","html-keyboard-response","85","951143","0.0-61.0-2.0","E323847D1A9A43C7966A88C86114D06A","E323847D1A9A43C7966A88C86114D06A","5e380c44-0c55-405a-b69d-696a38811ed7","bea99957-1862-4ad8-9558-57b91e42ce64","{""participantId"":""E323847D1A9A43C7966A88C86114D06A"",""assignmentId"":""5e380c44-0c55-405a-b69d-696a38811ed7"",""projectId"":""bea99957-1862-4ad8-9558-57b91e42ce64""}","https://test12345.live/?participantId=E323847D1A9A43C7966A88C86114D06A&assignmentId=5e380c44-0c55-405a-b69d-696a38811ed7&projectId=bea99957-1862-4ad8-9558-57b91e42ce64","","null","<div style=""display: flex; justify-content: center; align-items: center;"">
                    <img src=""images/causal/causal_series_5/causal_series_5_c.jpg"" style=""width: 300px; height: 300px;"" />
                  </div>","null","",""
"","","","","","html-keyboard-response","86","954160","0.0-61.0-3.0","E323847D1A9A43C7966A88C86114D06A","E323847D1A9A43C7966A88C86114D06A","5e380c44-0c55-405a-b69d-696a38811ed7","bea99957-1862-4ad8-9558-57b91e42ce64","{""participantId"":""E323847D1A9A43C7966A88C86114D06A"",""assignmentId"":""5e380c44-0c55-405a-b69d-696a38811ed7"",""projectId"":""bea99957-1862-4ad8-9558-57b91e42ce64""}","https://test12345.live/?participantId=E323847D1A9A43C7966A88C86114D06A&assignmentId=5e380c44-0c55-405a-b69d-696a38811ed7&projectId=bea99957-1862-4ad8-9558-57b91e42ce64","","null","<div style=""display: flex; justify-content: center; align-items: center;"">
                    <img src=""images/causal/causal_series_5/causal_series_5_d.jpg"" style=""width: 300px; height: 300px;"" />
                  </div>","null","",""
"","","","","","html-button-response","87","996477","0.0-63.0","E323847D1A9A43C7966A88C86114D06A","E323847D1A9A43C7966A88C86114D06A","5e380c44-0c55-405a-b69d-696a38811ed7","bea99957-1862-4ad8-9558-57b91e42ce64","{""participantId"":""E323847D1A9A43C7966A88C86114D06A"",""assignmentId"":""5e380c44-0c55-405a-b69d-696a38811ed7"",""projectId"":""bea99957-1862-4ad8-9558-57b91e42ce64""}","https://test12345.live/?participantId=E323847D1A9A43C7966A88C86114D06A&assignmentId=5e380c44-0c55-405a-b69d-696a38811ed7&projectId=bea99957-1862-4ad8-9558-57b91e42ce64","","42316","Was there a person in the picture?","1","",""
"","","","","","survey-likert","88","1004676","0.0-64.0","E323847D1A9A43C7966A88C86114D06A","E323847D1A9A43C7966A88C86114D06A","5e380c44-0c55-405a-b69d-696a38811ed7","bea99957-1862-4ad8-9558-57b91e42ce64","{""participantId"":""E323847D1A9A43C7966A88C86114D06A"",""assignmentId"":""5e380c44-0c55-405a-b69d-696a38811ed7"",""projectId"":""bea99957-1862-4ad8-9558-57b91e42ce64""}","https://test12345.live/?participantId=E323847D1A9A43C7966A88C86114D06A&assignmentId=5e380c44-0c55-405a-b69d-696a38811ed7&projectId=bea99957-1862-4ad8-9558-57b91e42ce64","","8197","","{""Q0"":4}","","[0]"
"","","","","","html-button-response","89","1009965","0.0-65.0","E323847D1A9A43C7966A88C86114D06A","E323847D1A9A43C7966A88C86114D06A","5e380c44-0c55-405a-b69d-696a38811ed7","bea99957-1862-4ad8-9558-57b91e42ce64","{""participantId"":""E323847D1A9A43C7966A88C86114D06A"",""assignmentId"":""5e380c44-0c55-405a-b69d-696a38811ed7"",""projectId"":""bea99957-1862-4ad8-9558-57b91e42ce64""}","https://test12345.live/?participantId=E323847D1A9A43C7966A88C86114D06A&assignmentId=5e380c44-0c55-405a-b69d-696a38811ed7&projectId=bea99957-1862-4ad8-9558-57b91e42ce64","","5286","
    <div style=""display: flex; justify-content: center; align-items: center;"">
      <img src=""images/red_deck_2.png"" style=""width: 300px; height: 300px; margin-right: 10px;"" />
      <img src=""images/blue_deck_1.png"" style=""width: 300px; height: 300px;"" />
    </div>","1","1",""
"","","","","","html-keyboard-response","90","1012975","0.0-66.0-0.0","E323847D1A9A43C7966A88C86114D06A","E323847D1A9A43C7966A88C86114D06A","5e380c44-0c55-405a-b69d-696a38811ed7","bea99957-1862-4ad8-9558-57b91e42ce64","{""participantId"":""E323847D1A9A43C7966A88C86114D06A"",""assignmentId"":""5e380c44-0c55-405a-b69d-696a38811ed7"",""projectId"":""bea99957-1862-4ad8-9558-57b91e42ce64""}","https://test12345.live/?participantId=E323847D1A9A43C7966A88C86114D06A&assignmentId=5e380c44-0c55-405a-b69d-696a38811ed7&projectId=bea99957-1862-4ad8-9558-57b91e42ce64","","null","<div style=""display: flex; justify-content: center; align-items: center;"">
                    <img src=""images/causal/causal_series_11/causal_series_11_a.jpg"" style=""width: 300px; height: 300px;"" />
                  </div>","null","",""
"","","","","","html-keyboard-response","91","1015989","0.0-66.0-1.0","E323847D1A9A43C7966A88C86114D06A","E323847D1A9A43C7966A88C86114D06A","5e380c44-0c55-405a-b69d-696a38811ed7","bea99957-1862-4ad8-9558-57b91e42ce64","{""participantId"":""E323847D1A9A43C7966A88C86114D06A"",""assignmentId"":""5e380c44-0c55-405a-b69d-696a38811ed7"",""projectId"":""bea99957-1862-4ad8-9558-57b91e42ce64""}","https://test12345.live/?participantId=E323847D1A9A43C7966A88C86114D06A&assignmentId=5e380c44-0c55-405a-b69d-696a38811ed7&projectId=bea99957-1862-4ad8-9558-57b91e42ce64","","null","<div style=""display: flex; justify-content: center; align-items: center;"">
                    <img src=""images/causal/causal_series_11/causal_series_11_b.jpg"" style=""width: 300px; height: 300px;"" />
                  </div>","null","",""
"","","","","","html-keyboard-response","92","1019003","0.0-66.0-2.0","E323847D1A9A43C7966A88C86114D06A","E323847D1A9A43C7966A88C86114D06A","5e380c44-0c55-405a-b69d-696a38811ed7","bea99957-1862-4ad8-9558-57b91e42ce64","{""participantId"":""E323847D1A9A43C7966A88C86114D06A"",""assignmentId"":""5e380c44-0c55-405a-b69d-696a38811ed7"",""projectId"":""bea99957-1862-4ad8-9558-57b91e42ce64""}","https://test12345.live/?participantId=E323847D1A9A43C7966A88C86114D06A&assignmentId=5e380c44-0c55-405a-b69d-696a38811ed7&projectId=bea99957-1862-4ad8-9558-57b91e42ce64","","null","<div style=""display: flex; justify-content: center; align-items: center;"">
                    <img src=""images/causal/causal_series_11/causal_series_11_c.jpg"" style=""width: 300px; height: 300px;"" />
                  </div>","null","",""
"","","","","","html-keyboard-response","93","1022010","0.0-66.0-3.0","E323847D1A9A43C7966A88C86114D06A","E323847D1A9A43C7966A88C86114D06A","5e380c44-0c55-405a-b69d-696a38811ed7","bea99957-1862-4ad8-9558-57b91e42ce64","{""participantId"":""E323847D1A9A43C7966A88C86114D06A"",""assignmentId"":""5e380c44-0c55-405a-b69d-696a38811ed7"",""projectId"":""bea99957-1862-4ad8-9558-57b91e42ce64""}","https://test12345.live/?participantId=E323847D1A9A43C7966A88C86114D06A&assignmentId=5e380c44-0c55-405a-b69d-696a38811ed7&projectId=bea99957-1862-4ad8-9558-57b91e42ce64","","null","<div style=""display: flex; justify-content: center; align-items: center;"">
                    <img src=""images/causal/causal_series_11/causal_series_11_d.jpg"" style=""width: 300px; height: 300px;"" />
                  </div>","null","",""
"","","","","","html-button-response","94","1023561","0.0-68.0","E323847D1A9A43C7966A88C86114D06A","E323847D1A9A43C7966A88C86114D06A","5e380c44-0c55-405a-b69d-696a38811ed7","bea99957-1862-4ad8-9558-57b91e42ce64","{""participantId"":""E323847D1A9A43C7966A88C86114D06A"",""assignmentId"":""5e380c44-0c55-405a-b69d-696a38811ed7"",""projectId"":""bea99957-1862-4ad8-9558-57b91e42ce64""}","https://test12345.live/?participantId=E323847D1A9A43C7966A88C86114D06A&assignmentId=5e380c44-0c55-405a-b69d-696a38811ed7&projectId=bea99957-1862-4ad8-9558-57b91e42ce64","","1550","Was there a person in the picture?","0","",""
"","","","","","survey-likert","95","1026998","0.0-69.0","E323847D1A9A43C7966A88C86114D06A","E323847D1A9A43C7966A88C86114D06A","5e380c44-0c55-405a-b69d-696a38811ed7","bea99957-1862-4ad8-9558-57b91e42ce64","{""participantId"":""E323847D1A9A43C7966A88C86114D06A"",""assignmentId"":""5e380c44-0c55-405a-b69d-696a38811ed7"",""projectId"":""bea99957-1862-4ad8-9558-57b91e42ce64""}","https://test12345.live/?participantId=E323847D1A9A43C7966A88C86114D06A&assignmentId=5e380c44-0c55-405a-b69d-696a38811ed7&projectId=bea99957-1862-4ad8-9558-57b91e42ce64","","3436","","{""Q0"":4}","","[0]"
"","","","","","html-button-response","96","1028885","0.0-70.0","E323847D1A9A43C7966A88C86114D06A","E323847D1A9A43C7966A88C86114D06A","5e380c44-0c55-405a-b69d-696a38811ed7","bea99957-1862-4ad8-9558-57b91e42ce64","{""participantId"":""E323847D1A9A43C7966A88C86114D06A"",""assignmentId"":""5e380c44-0c55-405a-b69d-696a38811ed7"",""projectId"":""bea99957-1862-4ad8-9558-57b91e42ce64""}","https://test12345.live/?participantId=E323847D1A9A43C7966A88C86114D06A&assignmentId=5e380c44-0c55-405a-b69d-696a38811ed7&projectId=bea99957-1862-4ad8-9558-57b91e42ce64","","1885","
    <div style=""display: flex; justify-content: center; align-items: center;"">
      <img src=""images/red_deck_2.png"" style=""width: 300px; height: 300px; margin-right: 10px;"" />
      <img src=""images/blue_deck_1.png"" style=""width: 300px; height: 300px;"" />
    </div>","0","0",""
"","","","","","html-keyboard-response","97","1031898","0.0-72.0-0.0","E323847D1A9A43C7966A88C86114D06A","E323847D1A9A43C7966A88C86114D06A","5e380c44-0c55-405a-b69d-696a38811ed7","bea99957-1862-4ad8-9558-57b91e42ce64","{""participantId"":""E323847D1A9A43C7966A88C86114D06A"",""assignmentId"":""5e380c44-0c55-405a-b69d-696a38811ed7"",""projectId"":""bea99957-1862-4ad8-9558-57b91e42ce64""}","https://test12345.live/?participantId=E323847D1A9A43C7966A88C86114D06A&assignmentId=5e380c44-0c55-405a-b69d-696a38811ed7&projectId=bea99957-1862-4ad8-9558-57b91e42ce64","","null","<div style=""display: flex; justify-content: center; align-items: center;"">
                    <img src=""images/semantic/semantic_series_11/semantic_series_11_a.jpg"" style=""width: 300px; height: 300px;"" />
                  </div>","null","",""
"","","","","","html-keyboard-response","98","1034911","0.0-72.0-1.0","E323847D1A9A43C7966A88C86114D06A","E323847D1A9A43C7966A88C86114D06A","5e380c44-0c55-405a-b69d-696a38811ed7","bea99957-1862-4ad8-9558-57b91e42ce64","{""participantId"":""E323847D1A9A43C7966A88C86114D06A"",""assignmentId"":""5e380c44-0c55-405a-b69d-696a38811ed7"",""projectId"":""bea99957-1862-4ad8-9558-57b91e42ce64""}","https://test12345.live/?participantId=E323847D1A9A43C7966A88C86114D06A&assignmentId=5e380c44-0c55-405a-b69d-696a38811ed7&projectId=bea99957-1862-4ad8-9558-57b91e42ce64","","null","<div style=""display: flex; justify-content: center; align-items: center;"">
                    <img src=""images/semantic/semantic_series_11/semantic_series_11_b.jpg"" style=""width: 300px; height: 300px;"" />
                  </div>","null","",""
"","","","","","html-keyboard-response","99","1037920","0.0-72.0-2.0","E323847D1A9A43C7966A88C86114D06A","E323847D1A9A43C7966A88C86114D06A","5e380c44-0c55-405a-b69d-696a38811ed7","bea99957-1862-4ad8-9558-57b91e42ce64","{""participantId"":""E323847D1A9A43C7966A88C86114D06A"",""assignmentId"":""5e380c44-0c55-405a-b69d-696a38811ed7"",""projectId"":""bea99957-1862-4ad8-9558-57b91e42ce64""}","https://test12345.live/?participantId=E323847D1A9A43C7966A88C86114D06A&assignmentId=5e380c44-0c55-405a-b69d-696a38811ed7&projectId=bea99957-1862-4ad8-9558-57b91e42ce64","","null","<div style=""display: flex; justify-content: center; align-items: center;"">
                    <img src=""images/semantic/semantic_series_11/semantic_series_11_c.jpg"" style=""width: 300px; height: 300px;"" />
                  </div>","null","",""
"","","","","","html-keyboard-response","100","1040935","0.0-72.0-3.0","E323847D1A9A43C7966A88C86114D06A","E323847D1A9A43C7966A88C86114D06A","5e380c44-0c55-405a-b69d-696a38811ed7","bea99957-1862-4ad8-9558-57b91e42ce64","{""participantId"":""E323847D1A9A43C7966A88C86114D06A"",""assignmentId"":""5e380c44-0c55-405a-b69d-696a38811ed7"",""projectId"":""bea99957-1862-4ad8-9558-57b91e42ce64""}","https://test12345.live/?participantId=E323847D1A9A43C7966A88C86114D06A&assignmentId=5e380c44-0c55-405a-b69d-696a38811ed7&projectId=bea99957-1862-4ad8-9558-57b91e42ce64","","null","<div style=""display: flex; justify-content: center; align-items: center;"">
                    <img src=""images/semantic/semantic_series_11/semantic_series_11_d.jpg"" style=""width: 300px; height: 300px;"" />
                  </div>","null","",""
"","","","","","html-button-response","101","1042404","0.0-73.0","E323847D1A9A43C7966A88C86114D06A","E323847D1A9A43C7966A88C86114D06A","5e380c44-0c55-405a-b69d-696a38811ed7","bea99957-1862-4ad8-9558-57b91e42ce64","{""participantId"":""E323847D1A9A43C7966A88C86114D06A"",""assignmentId"":""5e380c44-0c55-405a-b69d-696a38811ed7"",""projectId"":""bea99957-1862-4ad8-9558-57b91e42ce64""}","https://test12345.live/?participantId=E323847D1A9A43C7966A88C86114D06A&assignmentId=5e380c44-0c55-405a-b69d-696a38811ed7&projectId=bea99957-1862-4ad8-9558-57b91e42ce64","","1468","Was there a person in the picture?","0","",""
"","","","","","survey-likert","102","1045334","0.0-74.0","E323847D1A9A43C7966A88C86114D06A","E323847D1A9A43C7966A88C86114D06A","5e380c44-0c55-405a-b69d-696a38811ed7","bea99957-1862-4ad8-9558-57b91e42ce64","{""participantId"":""E323847D1A9A43C7966A88C86114D06A"",""assignmentId"":""5e380c44-0c55-405a-b69d-696a38811ed7"",""projectId"":""bea99957-1862-4ad8-9558-57b91e42ce64""}","https://test12345.live/?participantId=E323847D1A9A43C7966A88C86114D06A&assignmentId=5e380c44-0c55-405a-b69d-696a38811ed7&projectId=bea99957-1862-4ad8-9558-57b91e42ce64","","2928","","{""Q0"":4}","","[0]"
"","","","","","html-button-response","103","1047586","0.0-75.0","E323847D1A9A43C7966A88C86114D06A","E323847D1A9A43C7966A88C86114D06A","5e380c44-0c55-405a-b69d-696a38811ed7","bea99957-1862-4ad8-9558-57b91e42ce64","{""participantId"":""E323847D1A9A43C7966A88C86114D06A"",""assignmentId"":""5e380c44-0c55-405a-b69d-696a38811ed7"",""projectId"":""bea99957-1862-4ad8-9558-57b91e42ce64""}","https://test12345.live/?participantId=E323847D1A9A43C7966A88C86114D06A&assignmentId=5e380c44-0c55-405a-b69d-696a38811ed7&projectId=bea99957-1862-4ad8-9558-57b91e42ce64","","2250","
    <div style=""display: flex; justify-content: center; align-items: center;"">
      <img src=""images/red_deck_2.png"" style=""width: 300px; height: 300px; margin-right: 10px;"" />
      <img src=""images/blue_deck_1.png"" style=""width: 300px; height: 300px;"" />
    </div>","1","1",""
"","","","","","html-keyboard-response","104","1050602","0.0-76.0-0.0","E323847D1A9A43C7966A88C86114D06A","E323847D1A9A43C7966A88C86114D06A","5e380c44-0c55-405a-b69d-696a38811ed7","bea99957-1862-4ad8-9558-57b91e42ce64","{""participantId"":""E323847D1A9A43C7966A88C86114D06A"",""assignmentId"":""5e380c44-0c55-405a-b69d-696a38811ed7"",""projectId"":""bea99957-1862-4ad8-9558-57b91e42ce64""}","https://test12345.live/?participantId=E323847D1A9A43C7966A88C86114D06A&assignmentId=5e380c44-0c55-405a-b69d-696a38811ed7&projectId=bea99957-1862-4ad8-9558-57b91e42ce64","","null","<div style=""display: flex; justify-content: center; align-items: center;"">
                    <img src=""images/causal/causal_series_2/causal_series_2_a.jpg"" style=""width: 300px; height: 300px;"" />
                  </div>","null","",""
"","","","","","html-keyboard-response","105","1053609","0.0-76.0-1.0","E323847D1A9A43C7966A88C86114D06A","E323847D1A9A43C7966A88C86114D06A","5e380c44-0c55-405a-b69d-696a38811ed7","bea99957-1862-4ad8-9558-57b91e42ce64","{""participantId"":""E323847D1A9A43C7966A88C86114D06A"",""assignmentId"":""5e380c44-0c55-405a-b69d-696a38811ed7"",""projectId"":""bea99957-1862-4ad8-9558-57b91e42ce64""}","https://test12345.live/?participantId=E323847D1A9A43C7966A88C86114D06A&assignmentId=5e380c44-0c55-405a-b69d-696a38811ed7&projectId=bea99957-1862-4ad8-9558-57b91e42ce64","","null","<div style=""display: flex; justify-content: center; align-items: center;"">
                    <img src=""images/causal/causal_series_2/causal_series_2_b.jpg"" style=""width: 300px; height: 300px;"" />
                  </div>","null","",""
"","","","","","html-keyboard-response","106","1056614","0.0-76.0-2.0","E323847D1A9A43C7966A88C86114D06A","E323847D1A9A43C7966A88C86114D06A","5e380c44-0c55-405a-b69d-696a38811ed7","bea99957-1862-4ad8-9558-57b91e42ce64","{""participantId"":""E323847D1A9A43C7966A88C86114D06A"",""assignmentId"":""5e380c44-0c55-405a-b69d-696a38811ed7"",""projectId"":""bea99957-1862-4ad8-9558-57b91e42ce64""}","https://test12345.live/?participantId=E323847D1A9A43C7966A88C86114D06A&assignmentId=5e380c44-0c55-405a-b69d-696a38811ed7&projectId=bea99957-1862-4ad8-9558-57b91e42ce64","","null","<div style=""display: flex; justify-content: center; align-items: center;"">
                    <img src=""images/causal/causal_series_2/causal_series_2_c.jpg"" style=""width: 300px; height: 300px;"" />
                  </div>","null","",""
"","","","","","html-keyboard-response","107","1059620","0.0-76.0-3.0","E323847D1A9A43C7966A88C86114D06A","E323847D1A9A43C7966A88C86114D06A","5e380c44-0c55-405a-b69d-696a38811ed7","bea99957-1862-4ad8-9558-57b91e42ce64","{""participantId"":""E323847D1A9A43C7966A88C86114D06A"",""assignmentId"":""5e380c44-0c55-405a-b69d-696a38811ed7"",""projectId"":""bea99957-1862-4ad8-9558-57b91e42ce64""}","https://test12345.live/?participantId=E323847D1A9A43C7966A88C86114D06A&assignmentId=5e380c44-0c55-405a-b69d-696a38811ed7&projectId=bea99957-1862-4ad8-9558-57b91e42ce64","","null","<div style=""display: flex; justify-content: center; align-items: center;"">
                    <img src=""images/causal/causal_series_2/causal_series_2_d.jpg"" style=""width: 300px; height: 300px;"" />
                  </div>","null","",""
"","","","","","html-button-response","108","1060740","0.0-78.0","E323847D1A9A43C7966A88C86114D06A","E323847D1A9A43C7966A88C86114D06A","5e380c44-0c55-405a-b69d-696a38811ed7","bea99957-1862-4ad8-9558-57b91e42ce64","{""participantId"":""E323847D1A9A43C7966A88C86114D06A"",""assignmentId"":""5e380c44-0c55-405a-b69d-696a38811ed7"",""projectId"":""bea99957-1862-4ad8-9558-57b91e42ce64""}","https://test12345.live/?participantId=E323847D1A9A43C7966A88C86114D06A&assignmentId=5e380c44-0c55-405a-b69d-696a38811ed7&projectId=bea99957-1862-4ad8-9558-57b91e42ce64","","1118","Was there a person in the picture?","0","",""
"","","","","","survey-likert","109","1063715","0.0-79.0","E323847D1A9A43C7966A88C86114D06A","E323847D1A9A43C7966A88C86114D06A","5e380c44-0c55-405a-b69d-696a38811ed7","bea99957-1862-4ad8-9558-57b91e42ce64","{""participantId"":""E323847D1A9A43C7966A88C86114D06A"",""assignmentId"":""5e380c44-0c55-405a-b69d-696a38811ed7"",""projectId"":""bea99957-1862-4ad8-9558-57b91e42ce64""}","https://test12345.live/?participantId=E323847D1A9A43C7966A88C86114D06A&assignmentId=5e380c44-0c55-405a-b69d-696a38811ed7&projectId=bea99957-1862-4ad8-9558-57b91e42ce64","","2974","","{""Q0"":4}","","[0]"
"","","","","","html-button-response","110","1064888","0.0-80.0","E323847D1A9A43C7966A88C86114D06A","E323847D1A9A43C7966A88C86114D06A","5e380c44-0c55-405a-b69d-696a38811ed7","bea99957-1862-4ad8-9558-57b91e42ce64","{""participantId"":""E323847D1A9A43C7966A88C86114D06A"",""assignmentId"":""5e380c44-0c55-405a-b69d-696a38811ed7"",""projectId"":""bea99957-1862-4ad8-9558-57b91e42ce64""}","https://test12345.live/?participantId=E323847D1A9A43C7966A88C86114D06A&assignmentId=5e380c44-0c55-405a-b69d-696a38811ed7&projectId=bea99957-1862-4ad8-9558-57b91e42ce64","","1171","
    <div style=""display: flex; justify-content: center; align-items: center;"">
      <img src=""images/red_deck_2.png"" style=""width: 300px; height: 300px; margin-right: 10px;"" />
      <img src=""images/blue_deck_1.png"" style=""width: 300px; height: 300px;"" />
    </div>","0","0",""
"","","","","","html-keyboard-response","111","1067904","0.0-82.0-0.0","E323847D1A9A43C7966A88C86114D06A","E323847D1A9A43C7966A88C86114D06A","5e380c44-0c55-405a-b69d-696a38811ed7","bea99957-1862-4ad8-9558-57b91e42ce64","{""participantId"":""E323847D1A9A43C7966A88C86114D06A"",""assignmentId"":""5e380c44-0c55-405a-b69d-696a38811ed7"",""projectId"":""bea99957-1862-4ad8-9558-57b91e42ce64""}","https://test12345.live/?participantId=E323847D1A9A43C7966A88C86114D06A&assignmentId=5e380c44-0c55-405a-b69d-696a38811ed7&projectId=bea99957-1862-4ad8-9558-57b91e42ce64","","null","<div style=""display: flex; justify-content: center; align-items: center;"">
                    <img src=""images/semantic/semantic_series_10/semantic_series_10_a.jpg"" style=""width: 300px; height: 300px;"" />
                  </div>","null","",""
"","","","","","html-keyboard-response","112","1070917","0.0-82.0-1.0","E323847D1A9A43C7966A88C86114D06A","E323847D1A9A43C7966A88C86114D06A","5e380c44-0c55-405a-b69d-696a38811ed7","bea99957-1862-4ad8-9558-57b91e42ce64","{""participantId"":""E323847D1A9A43C7966A88C86114D06A"",""assignmentId"":""5e380c44-0c55-405a-b69d-696a38811ed7"",""projectId"":""bea99957-1862-4ad8-9558-57b91e42ce64""}","https://test12345.live/?participantId=E323847D1A9A43C7966A88C86114D06A&assignmentId=5e380c44-0c55-405a-b69d-696a38811ed7&projectId=bea99957-1862-4ad8-9558-57b91e42ce64","","null","<div style=""display: flex; justify-content: center; align-items: center;"">
                    <img src=""images/semantic/semantic_series_10/semantic_series_10_b.jpg"" style=""width: 300px; height: 300px;"" />
                  </div>","null","",""
"","","","","","html-keyboard-response","113","1073927","0.0-82.0-2.0","E323847D1A9A43C7966A88C86114D06A","E323847D1A9A43C7966A88C86114D06A","5e380c44-0c55-405a-b69d-696a38811ed7","bea99957-1862-4ad8-9558-57b91e42ce64","{""participantId"":""E323847D1A9A43C7966A88C86114D06A"",""assignmentId"":""5e380c44-0c55-405a-b69d-696a38811ed7"",""projectId"":""bea99957-1862-4ad8-9558-57b91e42ce64""}","https://test12345.live/?participantId=E323847D1A9A43C7966A88C86114D06A&assignmentId=5e380c44-0c55-405a-b69d-696a38811ed7&projectId=bea99957-1862-4ad8-9558-57b91e42ce64","","null","<div style=""display: flex; justify-content: center; align-items: center;"">
                    <img src=""images/semantic/semantic_series_10/semantic_series_10_c.jpg"" style=""width: 300px; height: 300px;"" />
                  </div>","null","",""
"","","","","","html-keyboard-response","114","1076932","0.0-82.0-3.0","E323847D1A9A43C7966A88C86114D06A","E323847D1A9A43C7966A88C86114D06A","5e380c44-0c55-405a-b69d-696a38811ed7","bea99957-1862-4ad8-9558-57b91e42ce64","{""participantId"":""E323847D1A9A43C7966A88C86114D06A"",""assignmentId"":""5e380c44-0c55-405a-b69d-696a38811ed7"",""projectId"":""bea99957-1862-4ad8-9558-57b91e42ce64""}","https://test12345.live/?participantId=E323847D1A9A43C7966A88C86114D06A&assignmentId=5e380c44-0c55-405a-b69d-696a38811ed7&projectId=bea99957-1862-4ad8-9558-57b91e42ce64","","null","<div style=""display: flex; justify-content: center; align-items: center;"">
                    <img src=""images/semantic/semantic_series_10/semantic_series_10_d.jpg"" style=""width: 300px; height: 300px;"" />
                  </div>","null","",""
"","","","","","html-button-response","115","1078567","0.0-83.0","E323847D1A9A43C7966A88C86114D06A","E323847D1A9A43C7966A88C86114D06A","5e380c44-0c55-405a-b69d-696a38811ed7","bea99957-1862-4ad8-9558-57b91e42ce64","{""participantId"":""E323847D1A9A43C7966A88C86114D06A"",""assignmentId"":""5e380c44-0c55-405a-b69d-696a38811ed7"",""projectId"":""bea99957-1862-4ad8-9558-57b91e42ce64""}","https://test12345.live/?participantId=E323847D1A9A43C7966A88C86114D06A&assignmentId=5e380c44-0c55-405a-b69d-696a38811ed7&projectId=bea99957-1862-4ad8-9558-57b91e42ce64","","1633","Was there a person in the picture?","1","",""
"","","","","","survey-likert","116","1080904","0.0-84.0","E323847D1A9A43C7966A88C86114D06A","E323847D1A9A43C7966A88C86114D06A","5e380c44-0c55-405a-b69d-696a38811ed7","bea99957-1862-4ad8-9558-57b91e42ce64","{""participantId"":""E323847D1A9A43C7966A88C86114D06A"",""assignmentId"":""5e380c44-0c55-405a-b69d-696a38811ed7"",""projectId"":""bea99957-1862-4ad8-9558-57b91e42ce64""}","https://test12345.live/?participantId=E323847D1A9A43C7966A88C86114D06A&assignmentId=5e380c44-0c55-405a-b69d-696a38811ed7&projectId=bea99957-1862-4ad8-9558-57b91e42ce64","","2336","","{""Q0"":4}","","[0]"
"","","","","","html-button-response","117","1209595","0.0-85.0","E323847D1A9A43C7966A88C86114D06A","E323847D1A9A43C7966A88C86114D06A","5e380c44-0c55-405a-b69d-696a38811ed7","bea99957-1862-4ad8-9558-57b91e42ce64","{""participantId"":""E323847D1A9A43C7966A88C86114D06A"",""assignmentId"":""5e380c44-0c55-405a-b69d-696a38811ed7"",""projectId"":""bea99957-1862-4ad8-9558-57b91e42ce64""}","https://test12345.live/?participantId=E323847D1A9A43C7966A88C86114D06A&assignmentId=5e380c44-0c55-405a-b69d-696a38811ed7&projectId=bea99957-1862-4ad8-9558-57b91e42ce64","","128690","
    <div style=""display: flex; justify-content: center; align-items: center;"">
      <img src=""images/red_deck_2.png"" style=""width: 300px; height: 300px; margin-right: 10px;"" />
      <img src=""images/blue_deck_1.png"" style=""width: 300px; height: 300px;"" />
    </div>","1","1",""
"","","","","","html-keyboard-response","118","1212602","0.0-86.0-0.0","E323847D1A9A43C7966A88C86114D06A","E323847D1A9A43C7966A88C86114D06A","5e380c44-0c55-405a-b69d-696a38811ed7","bea99957-1862-4ad8-9558-57b91e42ce64","{""participantId"":""E323847D1A9A43C7966A88C86114D06A"",""assignmentId"":""5e380c44-0c55-405a-b69d-696a38811ed7"",""projectId"":""bea99957-1862-4ad8-9558-57b91e42ce64""}","https://test12345.live/?participantId=E323847D1A9A43C7966A88C86114D06A&assignmentId=5e380c44-0c55-405a-b69d-696a38811ed7&projectId=bea99957-1862-4ad8-9558-57b91e42ce64","","null","<div style=""display: flex; justify-content: center; align-items: center;"">
                    <img src=""images/causal/causal_series_10/causal_series_10_a.jpg"" style=""width: 300px; height: 300px;"" />
                  </div>","null","",""
"","","","","","html-keyboard-response","119","1215618","0.0-86.0-1.0","E323847D1A9A43C7966A88C86114D06A","E323847D1A9A43C7966A88C86114D06A","5e380c44-0c55-405a-b69d-696a38811ed7","bea99957-1862-4ad8-9558-57b91e42ce64","{""participantId"":""E323847D1A9A43C7966A88C86114D06A"",""assignmentId"":""5e380c44-0c55-405a-b69d-696a38811ed7"",""projectId"":""bea99957-1862-4ad8-9558-57b91e42ce64""}","https://test12345.live/?participantId=E323847D1A9A43C7966A88C86114D06A&assignmentId=5e380c44-0c55-405a-b69d-696a38811ed7&projectId=bea99957-1862-4ad8-9558-57b91e42ce64","","null","<div style=""display: flex; justify-content: center; align-items: center;"">
                    <img src=""images/causal/causal_series_10/causal_series_10_b.jpg"" style=""width: 300px; height: 300px;"" />
                  </div>","null","",""
"","","","","","html-keyboard-response","120","1218621","0.0-86.0-2.0","E323847D1A9A43C7966A88C86114D06A","E323847D1A9A43C7966A88C86114D06A","5e380c44-0c55-405a-b69d-696a38811ed7","bea99957-1862-4ad8-9558-57b91e42ce64","{""participantId"":""E323847D1A9A43C7966A88C86114D06A"",""assignmentId"":""5e380c44-0c55-405a-b69d-696a38811ed7"",""projectId"":""bea99957-1862-4ad8-9558-57b91e42ce64""}","https://test12345.live/?participantId=E323847D1A9A43C7966A88C86114D06A&assignmentId=5e380c44-0c55-405a-b69d-696a38811ed7&projectId=bea99957-1862-4ad8-9558-57b91e42ce64","","null","<div style=""display: flex; justify-content: center; align-items: center;"">
                    <img src=""images/causal/causal_series_10/causal_series_10_c.jpg"" style=""width: 300px; height: 300px;"" />
                  </div>","null","",""
"","","","","","html-keyboard-response","121","1221635","0.0-86.0-3.0","E323847D1A9A43C7966A88C86114D06A","E323847D1A9A43C7966A88C86114D06A","5e380c44-0c55-405a-b69d-696a38811ed7","bea99957-1862-4ad8-9558-57b91e42ce64","{""participantId"":""E323847D1A9A43C7966A88C86114D06A"",""assignmentId"":""5e380c44-0c55-405a-b69d-696a38811ed7"",""projectId"":""bea99957-1862-4ad8-9558-57b91e42ce64""}","https://test12345.live/?participantId=E323847D1A9A43C7966A88C86114D06A&assignmentId=5e380c44-0c55-405a-b69d-696a38811ed7&projectId=bea99957-1862-4ad8-9558-57b91e42ce64","","null","<div style=""display: flex; justify-content: center; align-items: center;"">
                    <img src=""images/causal/causal_series_10/causal_series_10_d.jpg"" style=""width: 300px; height: 300px;"" />
                  </div>","null","",""
"","","","","","html-button-response","122","1225677","0.0-88.0","E323847D1A9A43C7966A88C86114D06A","E323847D1A9A43C7966A88C86114D06A","5e380c44-0c55-405a-b69d-696a38811ed7","bea99957-1862-4ad8-9558-57b91e42ce64","{""participantId"":""E323847D1A9A43C7966A88C86114D06A"",""assignmentId"":""5e380c44-0c55-405a-b69d-696a38811ed7"",""projectId"":""bea99957-1862-4ad8-9558-57b91e42ce64""}","https://test12345.live/?participantId=E323847D1A9A43C7966A88C86114D06A&assignmentId=5e380c44-0c55-405a-b69d-696a38811ed7&projectId=bea99957-1862-4ad8-9558-57b91e42ce64","","4040","Was there a person in the picture?","1","",""
"","","","","","survey-likert","123","1228585","0.0-89.0","E323847D1A9A43C7966A88C86114D06A","E323847D1A9A43C7966A88C86114D06A","5e380c44-0c55-405a-b69d-696a38811ed7","bea99957-1862-4ad8-9558-57b91e42ce64","{""participantId"":""E323847D1A9A43C7966A88C86114D06A"",""assignmentId"":""5e380c44-0c55-405a-b69d-696a38811ed7"",""projectId"":""bea99957-1862-4ad8-9558-57b91e42ce64""}","https://test12345.live/?participantId=E323847D1A9A43C7966A88C86114D06A&assignmentId=5e380c44-0c55-405a-b69d-696a38811ed7&projectId=bea99957-1862-4ad8-9558-57b91e42ce64","","2905","","{""Q0"":4}","","[0]"
"","","","","","html-button-response","124","1231378","0.0-90.0","E323847D1A9A43C7966A88C86114D06A","E323847D1A9A43C7966A88C86114D06A","5e380c44-0c55-405a-b69d-696a38811ed7","bea99957-1862-4ad8-9558-57b91e42ce64","{""participantId"":""E323847D1A9A43C7966A88C86114D06A"",""assignmentId"":""5e380c44-0c55-405a-b69d-696a38811ed7"",""projectId"":""bea99957-1862-4ad8-9558-57b91e42ce64""}","https://test12345.live/?participantId=E323847D1A9A43C7966A88C86114D06A&assignmentId=5e380c44-0c55-405a-b69d-696a38811ed7&projectId=bea99957-1862-4ad8-9558-57b91e42ce64","","2790","
    <div style=""display: flex; justify-content: center; align-items: center;"">
      <img src=""images/red_deck_2.png"" style=""width: 300px; height: 300px; margin-right: 10px;"" />
      <img src=""images/blue_deck_1.png"" style=""width: 300px; height: 300px;"" />
    </div>","0","0",""
"","","","","","html-keyboard-response","125","1234382","0.0-92.0-0.0","E323847D1A9A43C7966A88C86114D06A","E323847D1A9A43C7966A88C86114D06A","5e380c44-0c55-405a-b69d-696a38811ed7","bea99957-1862-4ad8-9558-57b91e42ce64","{""participantId"":""E323847D1A9A43C7966A88C86114D06A"",""assignmentId"":""5e380c44-0c55-405a-b69d-696a38811ed7"",""projectId"":""bea99957-1862-4ad8-9558-57b91e42ce64""}","https://test12345.live/?participantId=E323847D1A9A43C7966A88C86114D06A&assignmentId=5e380c44-0c55-405a-b69d-696a38811ed7&projectId=bea99957-1862-4ad8-9558-57b91e42ce64","","null","<div style=""display: flex; justify-content: center; align-items: center;"">
                    <img src=""images/semantic/semantic_series_5/semantic_series_5_a.jpg"" style=""width: 300px; height: 300px;"" />
                  </div>","null","",""
"","","","","","html-keyboard-response","126","1237399","0.0-92.0-1.0","E323847D1A9A43C7966A88C86114D06A","E323847D1A9A43C7966A88C86114D06A","5e380c44-0c55-405a-b69d-696a38811ed7","bea99957-1862-4ad8-9558-57b91e42ce64","{""participantId"":""E323847D1A9A43C7966A88C86114D06A"",""assignmentId"":""5e380c44-0c55-405a-b69d-696a38811ed7"",""projectId"":""bea99957-1862-4ad8-9558-57b91e42ce64""}","https://test12345.live/?participantId=E323847D1A9A43C7966A88C86114D06A&assignmentId=5e380c44-0c55-405a-b69d-696a38811ed7&projectId=bea99957-1862-4ad8-9558-57b91e42ce64","","null","<div style=""display: flex; justify-content: center; align-items: center;"">
                    <img src=""images/semantic/semantic_series_5/semantic_series_5_b.jpg"" style=""width: 300px; height: 300px;"" />
                  </div>","null","",""
"","","","","","html-keyboard-response","127","1240408","0.0-92.0-2.0","E323847D1A9A43C7966A88C86114D06A","E323847D1A9A43C7966A88C86114D06A","5e380c44-0c55-405a-b69d-696a38811ed7","bea99957-1862-4ad8-9558-57b91e42ce64","{""participantId"":""E323847D1A9A43C7966A88C86114D06A"",""assignmentId"":""5e380c44-0c55-405a-b69d-696a38811ed7"",""projectId"":""bea99957-1862-4ad8-9558-57b91e42ce64""}","https://test12345.live/?participantId=E323847D1A9A43C7966A88C86114D06A&assignmentId=5e380c44-0c55-405a-b69d-696a38811ed7&projectId=bea99957-1862-4ad8-9558-57b91e42ce64","","null","<div style=""display: flex; justify-content: center; align-items: center;"">
                    <img src=""images/semantic/semantic_series_5/semantic_series_5_c.jpg"" style=""width: 300px; height: 300px;"" />
                  </div>","null","",""
"","","","","","html-keyboard-response","128","1243418","0.0-92.0-3.0","E323847D1A9A43C7966A88C86114D06A","E323847D1A9A43C7966A88C86114D06A","5e380c44-0c55-405a-b69d-696a38811ed7","bea99957-1862-4ad8-9558-57b91e42ce64","{""participantId"":""E323847D1A9A43C7966A88C86114D06A"",""assignmentId"":""5e380c44-0c55-405a-b69d-696a38811ed7"",""projectId"":""bea99957-1862-4ad8-9558-57b91e42ce64""}","https://test12345.live/?participantId=E323847D1A9A43C7966A88C86114D06A&assignmentId=5e380c44-0c55-405a-b69d-696a38811ed7&projectId=bea99957-1862-4ad8-9558-57b91e42ce64","","null","<div style=""display: flex; justify-content: center; align-items: center;"">
                    <img src=""images/semantic/semantic_series_5/semantic_series_5_d.jpg"" style=""width: 300px; height: 300px;"" />
                  </div>","null","",""
"","","","","","html-button-response","129","1245014","0.0-93.0","E323847D1A9A43C7966A88C86114D06A","E323847D1A9A43C7966A88C86114D06A","5e380c44-0c55-405a-b69d-696a38811ed7","bea99957-1862-4ad8-9558-57b91e42ce64","{""participantId"":""E323847D1A9A43C7966A88C86114D06A"",""assignmentId"":""5e380c44-0c55-405a-b69d-696a38811ed7"",""projectId"":""bea99957-1862-4ad8-9558-57b91e42ce64""}","https://test12345.live/?participantId=E323847D1A9A43C7966A88C86114D06A&assignmentId=5e380c44-0c55-405a-b69d-696a38811ed7&projectId=bea99957-1862-4ad8-9558-57b91e42ce64","","1595","Was there a person in the picture?","1","",""
"","","","","","survey-likert","130","1247826","0.0-94.0","E323847D1A9A43C7966A88C86114D06A","E323847D1A9A43C7966A88C86114D06A","5e380c44-0c55-405a-b69d-696a38811ed7","bea99957-1862-4ad8-9558-57b91e42ce64","{""participantId"":""E323847D1A9A43C7966A88C86114D06A"",""assignmentId"":""5e380c44-0c55-405a-b69d-696a38811ed7"",""projectId"":""bea99957-1862-4ad8-9558-57b91e42ce64""}","https://test12345.live/?participantId=E323847D1A9A43C7966A88C86114D06A&assignmentId=5e380c44-0c55-405a-b69d-696a38811ed7&projectId=bea99957-1862-4ad8-9558-57b91e42ce64","","2810","","{""Q0"":4}","","[0]"
"","","","","","survey-text","131","1278061","0.0-95.0","E323847D1A9A43C7966A88C86114D06A","E323847D1A9A43C7966A88C86114D06A","5e380c44-0c55-405a-b69d-696a38811ed7","bea99957-1862-4ad8-9558-57b91e42ce64","{""participantId"":""E323847D1A9A43C7966A88C86114D06A"",""assignmentId"":""5e380c44-0c55-405a-b69d-696a38811ed7"",""projectId"":""bea99957-1862-4ad8-9558-57b91e42ce64""}","https://test12345.live/?participantId=E323847D1A9A43C7966A88C86114D06A&assignmentId=5e380c44-0c55-405a-b69d-696a38811ed7&projectId=bea99957-1862-4ad8-9558-57b91e42ce64","","30229","","{""Q0"":""no difference""}","",""
