"success","timeout","failed_images","failed_audio","failed_video","trial_type","trial_index","time_elapsed","internal_node_id","subject_id","study_id","session_id","view_history","rt","stimulus","response","choice"
"true","false","[]","[]","[]","preload","0","9582","0.0-0.0","E314B2F0B676428D9122CDC8E2B779D2","8c598640-6484-49c0-ba81-1bcca832291c","7c9f784d-5202-4c36-a6e2-1fcf7bf41701","","","","",""
"","","","","","instructions","1","32711","0.0-1.0","E314B2F0B676428D9122CDC8E2B779D2","8c598640-6484-49c0-ba81-1bcca832291c","7c9f784d-5202-4c36-a6e2-1fcf7bf41701","[{""page_index"":0,""viewing_time"":23129}]","23129","","",""
"","","","","","instructions","2","35232","0.0-2.0","E314B2F0B676428D9122CDC8E2B779D2","8c598640-6484-49c0-ba81-1bcca832291c","7c9f784d-5202-4c36-a6e2-1fcf7bf41701","[{""page_index"":0,""viewing_time"":2520}]","2521","","",""
"true","","","","","fullscreen","3","37526","0.0-3.0","E314B2F0B676428D9122CDC8E2B779D2","8c598640-6484-49c0-ba81-1bcca832291c","7c9f784d-5202-4c36-a6e2-1fcf7bf41701","","1284","","",""
"","","","","","instructions","4","50590","0.0-4.0","E314B2F0B676428D9122CDC8E2B779D2","8c598640-6484-49c0-ba81-1bcca832291c","7c9f784d-5202-4c36-a6e2-1fcf7bf41701","[{""page_index"":0,""viewing_time"":13065}]","13065","","",""
"","","","","","html-keyboard-response","5","53593","0.0-5.0","E314B2F0B676428D9122CDC8E2B779D2","8c598640-6484-49c0-ba81-1bcca832291c","7c9f784d-5202-4c36-a6e2-1fcf7bf41701","","null","<div style=""display: flex; justify-content: center; align-items: center;"">
                <img src=""images/causal/causal_series_15/causal_series_15_a.jpg"" style=""width: 300px; height: 300px;"" />
              </div>","null",""
"","","","","","html-keyboard-response","6","56606","0.0-6.0","E314B2F0B676428D9122CDC8E2B779D2","8c598640-6484-49c0-ba81-1bcca832291c","7c9f784d-5202-4c36-a6e2-1fcf7bf41701","","null","<div style=""display: flex; justify-content: center; align-items: center;"">
                <img src=""images/causal/causal_series_15/causal_series_15_b.jpg"" style=""width: 300px; height: 300px;"" />
              </div>","null",""
"","","","","","html-keyboard-response","7","59617","0.0-7.0","E314B2F0B676428D9122CDC8E2B779D2","8c598640-6484-49c0-ba81-1bcca832291c","7c9f784d-5202-4c36-a6e2-1fcf7bf41701","","null","<div style=""display: flex; justify-content: center; align-items: center;"">
                <img src=""images/causal/causal_series_15/causal_series_15_c.jpg"" style=""width: 300px; height: 300px;"" />
              </div>","null",""
"","","","","","html-button-response","8","61917","0.0-8.0","E314B2F0B676428D9122CDC8E2B779D2","8c598640-6484-49c0-ba81-1bcca832291c","7c9f784d-5202-4c36-a6e2-1fcf7bf41701","","2299","
    <div style=""display: flex; justify-content: center; align-items: center;"">
      <img src=""images/blue_deck_1.png"" style=""width: 300px; height: 300px; margin-right: 10px;"" />
      <img src=""images/red_deck_2.png"" style=""width: 300px; height: 300px;"" />
    </div>","0","0"
"","","","","","html-keyboard-response","9","64920","0.0-9.0-0.0-0.0","E314B2F0B676428D9122CDC8E2B779D2","8c598640-6484-49c0-ba81-1bcca832291c","7c9f784d-5202-4c36-a6e2-1fcf7bf41701","","null","<div style=""display: flex; justify-content: center; align-items: center;"">
                <img src=""images/causal/causal_series_15/causal_series_15_d.jpg"" style=""width: 300px; height: 300px;"" />
              </div>","null",""
"","","","","","html-keyboard-response","10","67921","0.0-10.0","E314B2F0B676428D9122CDC8E2B779D2","8c598640-6484-49c0-ba81-1bcca832291c","7c9f784d-5202-4c36-a6e2-1fcf7bf41701","","null","<div style=""display: flex; justify-content: center; align-items: center;"">
                <img src=""images/other/blank.jpg"" style=""width: 300px; height: 300px;"" />
              </div>","null",""
"","","","","","html-keyboard-response","11","70922","0.0-11.0","E314B2F0B676428D9122CDC8E2B779D2","8c598640-6484-49c0-ba81-1bcca832291c","7c9f784d-5202-4c36-a6e2-1fcf7bf41701","","null","<div style=""display: flex; justify-content: center; align-items: center;"">
                <img src=""images/causal/causal_series_2/causal_series_2_a.jpg"" style=""width: 300px; height: 300px;"" />
              </div>","null",""
"","","","","","html-keyboard-response","12","73928","0.0-12.0","E314B2F0B676428D9122CDC8E2B779D2","8c598640-6484-49c0-ba81-1bcca832291c","7c9f784d-5202-4c36-a6e2-1fcf7bf41701","","null","<div style=""display: flex; justify-content: center; align-items: center;"">
                <img src=""images/causal/causal_series_2/causal_series_2_b.jpg"" style=""width: 300px; height: 300px;"" />
              </div>","null",""
"","","","","","html-keyboard-response","13","76929","0.0-13.0","E314B2F0B676428D9122CDC8E2B779D2","8c598640-6484-49c0-ba81-1bcca832291c","7c9f784d-5202-4c36-a6e2-1fcf7bf41701","","null","<div style=""display: flex; justify-content: center; align-items: center;"">
                <img src=""images/causal/causal_series_2/causal_series_2_c.jpg"" style=""width: 300px; height: 300px;"" />
              </div>","null",""
"","","","","","html-button-response","14","77928","0.0-14.0","E314B2F0B676428D9122CDC8E2B779D2","8c598640-6484-49c0-ba81-1bcca832291c","7c9f784d-5202-4c36-a6e2-1fcf7bf41701","","998","
    <div style=""display: flex; justify-content: center; align-items: center;"">
      <img src=""images/blue_deck_1.png"" style=""width: 300px; height: 300px; margin-right: 10px;"" />
      <img src=""images/red_deck_2.png"" style=""width: 300px; height: 300px;"" />
    </div>","1","1"
"","","","","","html-keyboard-response","15","80944","0.0-15.0-1.0-0.0","E314B2F0B676428D9122CDC8E2B779D2","8c598640-6484-49c0-ba81-1bcca832291c","7c9f784d-5202-4c36-a6e2-1fcf7bf41701","","null","<div style=""display: flex; justify-content: center; align-items: center;"">
                <img src=""images/semantic/semantic_series_1/semantic_series_1_d.jpg"" style=""width: 300px; height: 300px;"" />
              </div>","null",""
"","","","","","html-keyboard-response","16","83951","0.0-16.0","E314B2F0B676428D9122CDC8E2B779D2","8c598640-6484-49c0-ba81-1bcca832291c","7c9f784d-5202-4c36-a6e2-1fcf7bf41701","","null","<div style=""display: flex; justify-content: center; align-items: center;"">
                <img src=""images/other/blank.jpg"" style=""width: 300px; height: 300px;"" />
              </div>","null",""
"","","","","","html-keyboard-response","17","86961","0.0-17.0","E314B2F0B676428D9122CDC8E2B779D2","8c598640-6484-49c0-ba81-1bcca832291c","7c9f784d-5202-4c36-a6e2-1fcf7bf41701","","null","<div style=""display: flex; justify-content: center; align-items: center;"">
                <img src=""images/causal/causal_series_14/causal_series_14_a.jpg"" style=""width: 300px; height: 300px;"" />
              </div>","null",""
"","","","","","html-keyboard-response","18","89967","0.0-18.0","E314B2F0B676428D9122CDC8E2B779D2","8c598640-6484-49c0-ba81-1bcca832291c","7c9f784d-5202-4c36-a6e2-1fcf7bf41701","","null","<div style=""display: flex; justify-content: center; align-items: center;"">
                <img src=""images/causal/causal_series_14/causal_series_14_b.jpg"" style=""width: 300px; height: 300px;"" />
              </div>","null",""
"","","","","","html-keyboard-response","19","92972","0.0-19.0","E314B2F0B676428D9122CDC8E2B779D2","8c598640-6484-49c0-ba81-1bcca832291c","7c9f784d-5202-4c36-a6e2-1fcf7bf41701","","null","<div style=""display: flex; justify-content: center; align-items: center;"">
                <img src=""images/causal/causal_series_14/causal_series_14_c.jpg"" style=""width: 300px; height: 300px;"" />
              </div>","null",""
"","","","","","html-button-response","20","94331","0.0-20.0","E314B2F0B676428D9122CDC8E2B779D2","8c598640-6484-49c0-ba81-1bcca832291c","7c9f784d-5202-4c36-a6e2-1fcf7bf41701","","1359","
    <div style=""display: flex; justify-content: center; align-items: center;"">
      <img src=""images/blue_deck_1.png"" style=""width: 300px; height: 300px; margin-right: 10px;"" />
      <img src=""images/red_deck_2.png"" style=""width: 300px; height: 300px;"" />
    </div>","0","0"
"","","","","","html-keyboard-response","21","97333","0.0-21.0-0.0-0.0","E314B2F0B676428D9122CDC8E2B779D2","8c598640-6484-49c0-ba81-1bcca832291c","7c9f784d-5202-4c36-a6e2-1fcf7bf41701","","null","<div style=""display: flex; justify-content: center; align-items: center;"">
                <img src=""images/causal/causal_series_14/causal_series_14_d.jpg"" style=""width: 300px; height: 300px;"" />
              </div>","null",""
"","","","","","html-keyboard-response","22","100339","0.0-22.0","E314B2F0B676428D9122CDC8E2B779D2","8c598640-6484-49c0-ba81-1bcca832291c","7c9f784d-5202-4c36-a6e2-1fcf7bf41701","","null","<div style=""display: flex; justify-content: center; align-items: center;"">
                <img src=""images/other/blank.jpg"" style=""width: 300px; height: 300px;"" />
              </div>","null",""
"","","","","","html-keyboard-response","23","103352","0.0-23.0","E314B2F0B676428D9122CDC8E2B779D2","8c598640-6484-49c0-ba81-1bcca832291c","7c9f784d-5202-4c36-a6e2-1fcf7bf41701","","null","<div style=""display: flex; justify-content: center; align-items: center;"">
                <img src=""images/causal/causal_series_13/causal_series_13_a.jpg"" style=""width: 300px; height: 300px;"" />
              </div>","null",""
"","","","","","html-keyboard-response","24","106354","0.0-24.0","E314B2F0B676428D9122CDC8E2B779D2","8c598640-6484-49c0-ba81-1bcca832291c","7c9f784d-5202-4c36-a6e2-1fcf7bf41701","","null","<div style=""display: flex; justify-content: center; align-items: center;"">
                <img src=""images/causal/causal_series_13/causal_series_13_b.jpg"" style=""width: 300px; height: 300px;"" />
              </div>","null",""
"","","","","","html-keyboard-response","25","109356","0.0-25.0","E314B2F0B676428D9122CDC8E2B779D2","8c598640-6484-49c0-ba81-1bcca832291c","7c9f784d-5202-4c36-a6e2-1fcf7bf41701","","null","<div style=""display: flex; justify-content: center; align-items: center;"">
                <img src=""images/causal/causal_series_13/causal_series_13_c.jpg"" style=""width: 300px; height: 300px;"" />
              </div>","null",""
"","","","","","html-button-response","26","113681","0.0-26.0","E314B2F0B676428D9122CDC8E2B779D2","8c598640-6484-49c0-ba81-1bcca832291c","7c9f784d-5202-4c36-a6e2-1fcf7bf41701","","4324","
    <div style=""display: flex; justify-content: center; align-items: center;"">
      <img src=""images/blue_deck_1.png"" style=""width: 300px; height: 300px; margin-right: 10px;"" />
      <img src=""images/red_deck_2.png"" style=""width: 300px; height: 300px;"" />
    </div>","1","1"
"","","","","","html-keyboard-response","27","116697","0.0-27.0-1.0-0.0","E314B2F0B676428D9122CDC8E2B779D2","8c598640-6484-49c0-ba81-1bcca832291c","7c9f784d-5202-4c36-a6e2-1fcf7bf41701","","null","<div style=""display: flex; justify-content: center; align-items: center;"">
                <img src=""images/semantic/semantic_series_12/semantic_series_12_d.jpg"" style=""width: 300px; height: 300px;"" />
              </div>","null",""
"","","","","","html-keyboard-response","28","119706","0.0-28.0","E314B2F0B676428D9122CDC8E2B779D2","8c598640-6484-49c0-ba81-1bcca832291c","7c9f784d-5202-4c36-a6e2-1fcf7bf41701","","null","<div style=""display: flex; justify-content: center; align-items: center;"">
                <img src=""images/other/blank.jpg"" style=""width: 300px; height: 300px;"" />
              </div>","null",""
"","","","","","html-keyboard-response","29","122718","0.0-29.0","E314B2F0B676428D9122CDC8E2B779D2","8c598640-6484-49c0-ba81-1bcca832291c","7c9f784d-5202-4c36-a6e2-1fcf7bf41701","","null","<div style=""display: flex; justify-content: center; align-items: center;"">
                <img src=""images/causal/causal_series_10/causal_series_10_a.jpg"" style=""width: 300px; height: 300px;"" />
              </div>","null",""
"","","","","","html-keyboard-response","30","125734","0.0-30.0","E314B2F0B676428D9122CDC8E2B779D2","8c598640-6484-49c0-ba81-1bcca832291c","7c9f784d-5202-4c36-a6e2-1fcf7bf41701","","null","<div style=""display: flex; justify-content: center; align-items: center;"">
                <img src=""images/causal/causal_series_10/causal_series_10_b.jpg"" style=""width: 300px; height: 300px;"" />
              </div>","null",""
"","","","","","html-keyboard-response","31","128737","0.0-31.0","E314B2F0B676428D9122CDC8E2B779D2","8c598640-6484-49c0-ba81-1bcca832291c","7c9f784d-5202-4c36-a6e2-1fcf7bf41701","","null","<div style=""display: flex; justify-content: center; align-items: center;"">
                <img src=""images/causal/causal_series_10/causal_series_10_c.jpg"" style=""width: 300px; height: 300px;"" />
              </div>","null",""
"","","","","","html-button-response","32","130707","0.0-32.0","E314B2F0B676428D9122CDC8E2B779D2","8c598640-6484-49c0-ba81-1bcca832291c","7c9f784d-5202-4c36-a6e2-1fcf7bf41701","","1969","
    <div style=""display: flex; justify-content: center; align-items: center;"">
      <img src=""images/blue_deck_1.png"" style=""width: 300px; height: 300px; margin-right: 10px;"" />
      <img src=""images/red_deck_2.png"" style=""width: 300px; height: 300px;"" />
    </div>","1","1"
"","","","","","html-keyboard-response","33","133708","0.0-33.0-1.0-0.0","E314B2F0B676428D9122CDC8E2B779D2","8c598640-6484-49c0-ba81-1bcca832291c","7c9f784d-5202-4c36-a6e2-1fcf7bf41701","","null","<div style=""display: flex; justify-content: center; align-items: center;"">
                <img src=""images/semantic/semantic_series_9/semantic_series_9_d.jpg"" style=""width: 300px; height: 300px;"" />
              </div>","null",""
"","","","","","html-keyboard-response","34","136720","0.0-34.0","E314B2F0B676428D9122CDC8E2B779D2","8c598640-6484-49c0-ba81-1bcca832291c","7c9f784d-5202-4c36-a6e2-1fcf7bf41701","","null","<div style=""display: flex; justify-content: center; align-items: center;"">
                <img src=""images/other/blank.jpg"" style=""width: 300px; height: 300px;"" />
              </div>","null",""
"","","","","","html-keyboard-response","35","139729","0.0-35.0","E314B2F0B676428D9122CDC8E2B779D2","8c598640-6484-49c0-ba81-1bcca832291c","7c9f784d-5202-4c36-a6e2-1fcf7bf41701","","null","<div style=""display: flex; justify-content: center; align-items: center;"">
                <img src=""images/causal/causal_series_16/causal_series_16_a.jpg"" style=""width: 300px; height: 300px;"" />
              </div>","null",""
"","","","","","html-keyboard-response","36","142738","0.0-36.0","E314B2F0B676428D9122CDC8E2B779D2","8c598640-6484-49c0-ba81-1bcca832291c","7c9f784d-5202-4c36-a6e2-1fcf7bf41701","","null","<div style=""display: flex; justify-content: center; align-items: center;"">
                <img src=""images/causal/causal_series_16/causal_series_16_b.jpg"" style=""width: 300px; height: 300px;"" />
              </div>","null",""
"","","","","","html-keyboard-response","37","145746","0.0-37.0","E314B2F0B676428D9122CDC8E2B779D2","8c598640-6484-49c0-ba81-1bcca832291c","7c9f784d-5202-4c36-a6e2-1fcf7bf41701","","null","<div style=""display: flex; justify-content: center; align-items: center;"">
                <img src=""images/causal/causal_series_16/causal_series_16_c.jpg"" style=""width: 300px; height: 300px;"" />
              </div>","null",""
"","","","","","html-button-response","38","148023","0.0-38.0","E314B2F0B676428D9122CDC8E2B779D2","8c598640-6484-49c0-ba81-1bcca832291c","7c9f784d-5202-4c36-a6e2-1fcf7bf41701","","2276","
    <div style=""display: flex; justify-content: center; align-items: center;"">
      <img src=""images/blue_deck_1.png"" style=""width: 300px; height: 300px; margin-right: 10px;"" />
      <img src=""images/red_deck_2.png"" style=""width: 300px; height: 300px;"" />
    </div>","0","0"
"","","","","","html-keyboard-response","39","151033","0.0-39.0-0.0-0.0","E314B2F0B676428D9122CDC8E2B779D2","8c598640-6484-49c0-ba81-1bcca832291c","7c9f784d-5202-4c36-a6e2-1fcf7bf41701","","null","<div style=""display: flex; justify-content: center; align-items: center;"">
                <img src=""images/causal/causal_series_16/causal_series_16_d.jpg"" style=""width: 300px; height: 300px;"" />
              </div>","null",""
"","","","","","html-keyboard-response","40","154034","0.0-40.0","E314B2F0B676428D9122CDC8E2B779D2","8c598640-6484-49c0-ba81-1bcca832291c","7c9f784d-5202-4c36-a6e2-1fcf7bf41701","","null","<div style=""display: flex; justify-content: center; align-items: center;"">
                <img src=""images/other/blank.jpg"" style=""width: 300px; height: 300px;"" />
              </div>","null",""
"","","","","","html-keyboard-response","41","157048","0.0-41.0","E314B2F0B676428D9122CDC8E2B779D2","8c598640-6484-49c0-ba81-1bcca832291c","7c9f784d-5202-4c36-a6e2-1fcf7bf41701","","null","<div style=""display: flex; justify-content: center; align-items: center;"">
                <img src=""images/causal/causal_series_5/causal_series_5_a.jpg"" style=""width: 300px; height: 300px;"" />
              </div>","null",""
"","","","","","html-keyboard-response","42","160055","0.0-42.0","E314B2F0B676428D9122CDC8E2B779D2","8c598640-6484-49c0-ba81-1bcca832291c","7c9f784d-5202-4c36-a6e2-1fcf7bf41701","","null","<div style=""display: flex; justify-content: center; align-items: center;"">
                <img src=""images/causal/causal_series_5/causal_series_5_b.jpg"" style=""width: 300px; height: 300px;"" />
              </div>","null",""
"","","","","","html-keyboard-response","43","163057","0.0-43.0","E314B2F0B676428D9122CDC8E2B779D2","8c598640-6484-49c0-ba81-1bcca832291c","7c9f784d-5202-4c36-a6e2-1fcf7bf41701","","null","<div style=""display: flex; justify-content: center; align-items: center;"">
                <img src=""images/causal/causal_series_5/causal_series_5_c.jpg"" style=""width: 300px; height: 300px;"" />
              </div>","null",""
"","","","","","html-button-response","44","163809","0.0-44.0","E314B2F0B676428D9122CDC8E2B779D2","8c598640-6484-49c0-ba81-1bcca832291c","7c9f784d-5202-4c36-a6e2-1fcf7bf41701","","751","
    <div style=""display: flex; justify-content: center; align-items: center;"">
      <img src=""images/blue_deck_1.png"" style=""width: 300px; height: 300px; margin-right: 10px;"" />
      <img src=""images/red_deck_2.png"" style=""width: 300px; height: 300px;"" />
    </div>","1","1"
"","","","","","html-keyboard-response","45","166811","0.0-45.0-1.0-0.0","E314B2F0B676428D9122CDC8E2B779D2","8c598640-6484-49c0-ba81-1bcca832291c","7c9f784d-5202-4c36-a6e2-1fcf7bf41701","","null","<div style=""display: flex; justify-content: center; align-items: center;"">
                <img src=""images/semantic/semantic_series_4/semantic_series_4_d.jpg"" style=""width: 300px; height: 300px;"" />
              </div>","null",""
"","","","","","html-keyboard-response","46","169813","0.0-46.0","E314B2F0B676428D9122CDC8E2B779D2","8c598640-6484-49c0-ba81-1bcca832291c","7c9f784d-5202-4c36-a6e2-1fcf7bf41701","","null","<div style=""display: flex; justify-content: center; align-items: center;"">
                <img src=""images/other/blank.jpg"" style=""width: 300px; height: 300px;"" />
              </div>","null",""
"","","","","","html-keyboard-response","47","172827","0.0-47.0","E314B2F0B676428D9122CDC8E2B779D2","8c598640-6484-49c0-ba81-1bcca832291c","7c9f784d-5202-4c36-a6e2-1fcf7bf41701","","null","<div style=""display: flex; justify-content: center; align-items: center;"">
                <img src=""images/causal/causal_series_11/causal_series_11_a.jpg"" style=""width: 300px; height: 300px;"" />
              </div>","null",""
"","","","","","html-keyboard-response","48","175838","0.0-48.0","E314B2F0B676428D9122CDC8E2B779D2","8c598640-6484-49c0-ba81-1bcca832291c","7c9f784d-5202-4c36-a6e2-1fcf7bf41701","","null","<div style=""display: flex; justify-content: center; align-items: center;"">
                <img src=""images/causal/causal_series_11/causal_series_11_b.jpg"" style=""width: 300px; height: 300px;"" />
              </div>","null",""
"","","","","","html-keyboard-response","49","178845","0.0-49.0","E314B2F0B676428D9122CDC8E2B779D2","8c598640-6484-49c0-ba81-1bcca832291c","7c9f784d-5202-4c36-a6e2-1fcf7bf41701","","null","<div style=""display: flex; justify-content: center; align-items: center;"">
                <img src=""images/causal/causal_series_11/causal_series_11_c.jpg"" style=""width: 300px; height: 300px;"" />
              </div>","null",""
"","","","","","html-button-response","50","181814","0.0-50.0","E314B2F0B676428D9122CDC8E2B779D2","8c598640-6484-49c0-ba81-1bcca832291c","7c9f784d-5202-4c36-a6e2-1fcf7bf41701","","2968","
    <div style=""display: flex; justify-content: center; align-items: center;"">
      <img src=""images/blue_deck_1.png"" style=""width: 300px; height: 300px; margin-right: 10px;"" />
      <img src=""images/red_deck_2.png"" style=""width: 300px; height: 300px;"" />
    </div>","0","0"
"","","","","","html-keyboard-response","51","184815","0.0-51.0-0.0-0.0","E314B2F0B676428D9122CDC8E2B779D2","8c598640-6484-49c0-ba81-1bcca832291c","7c9f784d-5202-4c36-a6e2-1fcf7bf41701","","null","<div style=""display: flex; justify-content: center; align-items: center;"">
                <img src=""images/causal/causal_series_11/causal_series_11_d.jpg"" style=""width: 300px; height: 300px;"" />
              </div>","null",""
"","","","","","html-keyboard-response","52","187828","0.0-52.0","E314B2F0B676428D9122CDC8E2B779D2","8c598640-6484-49c0-ba81-1bcca832291c","7c9f784d-5202-4c36-a6e2-1fcf7bf41701","","null","<div style=""display: flex; justify-content: center; align-items: center;"">
                <img src=""images/other/blank.jpg"" style=""width: 300px; height: 300px;"" />
              </div>","null",""
"","","","","","html-keyboard-response","53","190831","0.0-53.0","E314B2F0B676428D9122CDC8E2B779D2","8c598640-6484-49c0-ba81-1bcca832291c","7c9f784d-5202-4c36-a6e2-1fcf7bf41701","","null","<div style=""display: flex; justify-content: center; align-items: center;"">
                <img src=""images/causal/causal_series_17/causal_series_17_a.jpg"" style=""width: 300px; height: 300px;"" />
              </div>","null",""
"","","","","","html-keyboard-response","54","193846","0.0-54.0","E314B2F0B676428D9122CDC8E2B779D2","8c598640-6484-49c0-ba81-1bcca832291c","7c9f784d-5202-4c36-a6e2-1fcf7bf41701","","null","<div style=""display: flex; justify-content: center; align-items: center;"">
                <img src=""images/causal/causal_series_17/causal_series_17_b.jpg"" style=""width: 300px; height: 300px;"" />
              </div>","null",""
"","","","","","html-keyboard-response","55","196859","0.0-55.0","E314B2F0B676428D9122CDC8E2B779D2","8c598640-6484-49c0-ba81-1bcca832291c","7c9f784d-5202-4c36-a6e2-1fcf7bf41701","","null","<div style=""display: flex; justify-content: center; align-items: center;"">
                <img src=""images/causal/causal_series_17/causal_series_17_c.jpg"" style=""width: 300px; height: 300px;"" />
              </div>","null",""
"","","","","","html-button-response","56","197493","0.0-56.0","E314B2F0B676428D9122CDC8E2B779D2","8c598640-6484-49c0-ba81-1bcca832291c","7c9f784d-5202-4c36-a6e2-1fcf7bf41701","","634","
    <div style=""display: flex; justify-content: center; align-items: center;"">
      <img src=""images/blue_deck_1.png"" style=""width: 300px; height: 300px; margin-right: 10px;"" />
      <img src=""images/red_deck_2.png"" style=""width: 300px; height: 300px;"" />
    </div>","0","0"
"","","","","","html-keyboard-response","57","200502","0.0-57.0-0.0-0.0","E314B2F0B676428D9122CDC8E2B779D2","8c598640-6484-49c0-ba81-1bcca832291c","7c9f784d-5202-4c36-a6e2-1fcf7bf41701","","null","<div style=""display: flex; justify-content: center; align-items: center;"">
                <img src=""images/causal/causal_series_17/causal_series_17_d.jpg"" style=""width: 300px; height: 300px;"" />
              </div>","null",""
"","","","","","html-keyboard-response","58","203515","0.0-58.0","E314B2F0B676428D9122CDC8E2B779D2","8c598640-6484-49c0-ba81-1bcca832291c","7c9f784d-5202-4c36-a6e2-1fcf7bf41701","","null","<div style=""display: flex; justify-content: center; align-items: center;"">
                <img src=""images/other/blank.jpg"" style=""width: 300px; height: 300px;"" />
              </div>","null",""
"","","","","","html-keyboard-response","59","206524","0.0-59.0","E314B2F0B676428D9122CDC8E2B779D2","8c598640-6484-49c0-ba81-1bcca832291c","7c9f784d-5202-4c36-a6e2-1fcf7bf41701","","null","<div style=""display: flex; justify-content: center; align-items: center;"">
                <img src=""images/causal/causal_series_6/causal_series_6_a.jpg"" style=""width: 300px; height: 300px;"" />
              </div>","null",""
"","","","","","html-keyboard-response","60","209540","0.0-60.0","E314B2F0B676428D9122CDC8E2B779D2","8c598640-6484-49c0-ba81-1bcca832291c","7c9f784d-5202-4c36-a6e2-1fcf7bf41701","","null","<div style=""display: flex; justify-content: center; align-items: center;"">
                <img src=""images/causal/causal_series_6/causal_series_6_b.jpg"" style=""width: 300px; height: 300px;"" />
              </div>","null",""
"","","","","","html-keyboard-response","61","212541","0.0-61.0","E314B2F0B676428D9122CDC8E2B779D2","8c598640-6484-49c0-ba81-1bcca832291c","7c9f784d-5202-4c36-a6e2-1fcf7bf41701","","null","<div style=""display: flex; justify-content: center; align-items: center;"">
                <img src=""images/causal/causal_series_6/causal_series_6_c.jpg"" style=""width: 300px; height: 300px;"" />
              </div>","null",""
"","","","","","html-button-response","62","213423","0.0-62.0","E314B2F0B676428D9122CDC8E2B779D2","8c598640-6484-49c0-ba81-1bcca832291c","7c9f784d-5202-4c36-a6e2-1fcf7bf41701","","882","
    <div style=""display: flex; justify-content: center; align-items: center;"">
      <img src=""images/blue_deck_1.png"" style=""width: 300px; height: 300px; margin-right: 10px;"" />
      <img src=""images/red_deck_2.png"" style=""width: 300px; height: 300px;"" />
    </div>","0","0"
"","","","","","html-keyboard-response","63","216432","0.0-63.0-0.0-0.0","E314B2F0B676428D9122CDC8E2B779D2","8c598640-6484-49c0-ba81-1bcca832291c","7c9f784d-5202-4c36-a6e2-1fcf7bf41701","","null","<div style=""display: flex; justify-content: center; align-items: center;"">
                <img src=""images/causal/causal_series_6/causal_series_6_d.jpg"" style=""width: 300px; height: 300px;"" />
              </div>","null",""
"","","","","","html-keyboard-response","64","219436","0.0-64.0","E314B2F0B676428D9122CDC8E2B779D2","8c598640-6484-49c0-ba81-1bcca832291c","7c9f784d-5202-4c36-a6e2-1fcf7bf41701","","null","<div style=""display: flex; justify-content: center; align-items: center;"">
                <img src=""images/other/blank.jpg"" style=""width: 300px; height: 300px;"" />
              </div>","null",""
"","","","","","html-keyboard-response","65","222439","0.0-65.0","E314B2F0B676428D9122CDC8E2B779D2","8c598640-6484-49c0-ba81-1bcca832291c","7c9f784d-5202-4c36-a6e2-1fcf7bf41701","","null","<div style=""display: flex; justify-content: center; align-items: center;"">
                <img src=""images/causal/causal_series_9/causal_series_9_a.jpg"" style=""width: 300px; height: 300px;"" />
              </div>","null",""
"","","","","","html-keyboard-response","66","225440","0.0-66.0","E314B2F0B676428D9122CDC8E2B779D2","8c598640-6484-49c0-ba81-1bcca832291c","7c9f784d-5202-4c36-a6e2-1fcf7bf41701","","null","<div style=""display: flex; justify-content: center; align-items: center;"">
                <img src=""images/causal/causal_series_9/causal_series_9_b.jpg"" style=""width: 300px; height: 300px;"" />
              </div>","null",""
"","","","","","html-keyboard-response","67","228444","0.0-67.0","E314B2F0B676428D9122CDC8E2B779D2","8c598640-6484-49c0-ba81-1bcca832291c","7c9f784d-5202-4c36-a6e2-1fcf7bf41701","","null","<div style=""display: flex; justify-content: center; align-items: center;"">
                <img src=""images/causal/causal_series_9/causal_series_9_c.jpg"" style=""width: 300px; height: 300px;"" />
              </div>","null",""
"","","","","","html-button-response","68","230903","0.0-68.0","E314B2F0B676428D9122CDC8E2B779D2","8c598640-6484-49c0-ba81-1bcca832291c","7c9f784d-5202-4c36-a6e2-1fcf7bf41701","","2459","
    <div style=""display: flex; justify-content: center; align-items: center;"">
      <img src=""images/blue_deck_1.png"" style=""width: 300px; height: 300px; margin-right: 10px;"" />
      <img src=""images/red_deck_2.png"" style=""width: 300px; height: 300px;"" />
    </div>","0","0"
"","","","","","html-keyboard-response","69","233906","0.0-69.0-0.0-0.0","E314B2F0B676428D9122CDC8E2B779D2","8c598640-6484-49c0-ba81-1bcca832291c","7c9f784d-5202-4c36-a6e2-1fcf7bf41701","","null","<div style=""display: flex; justify-content: center; align-items: center;"">
                <img src=""images/causal/causal_series_9/causal_series_9_d.jpg"" style=""width: 300px; height: 300px;"" />
              </div>","null",""
"","","","","","html-keyboard-response","70","236918","0.0-70.0","E314B2F0B676428D9122CDC8E2B779D2","8c598640-6484-49c0-ba81-1bcca832291c","7c9f784d-5202-4c36-a6e2-1fcf7bf41701","","null","<div style=""display: flex; justify-content: center; align-items: center;"">
                <img src=""images/other/blank.jpg"" style=""width: 300px; height: 300px;"" />
              </div>","null",""
"","","","","","html-keyboard-response","71","239919","0.0-71.0","E314B2F0B676428D9122CDC8E2B779D2","8c598640-6484-49c0-ba81-1bcca832291c","7c9f784d-5202-4c36-a6e2-1fcf7bf41701","","null","<div style=""display: flex; justify-content: center; align-items: center;"">
                <img src=""images/causal/causal_series_18/causal_series_18_a.jpg"" style=""width: 300px; height: 300px;"" />
              </div>","null",""
"","","","","","html-keyboard-response","72","242935","0.0-72.0","E314B2F0B676428D9122CDC8E2B779D2","8c598640-6484-49c0-ba81-1bcca832291c","7c9f784d-5202-4c36-a6e2-1fcf7bf41701","","null","<div style=""display: flex; justify-content: center; align-items: center;"">
                <img src=""images/causal/causal_series_18/causal_series_18_b.jpg"" style=""width: 300px; height: 300px;"" />
              </div>","null",""
"","","","","","html-keyboard-response","73","245940","0.0-73.0","E314B2F0B676428D9122CDC8E2B779D2","8c598640-6484-49c0-ba81-1bcca832291c","7c9f784d-5202-4c36-a6e2-1fcf7bf41701","","null","<div style=""display: flex; justify-content: center; align-items: center;"">
                <img src=""images/causal/causal_series_18/causal_series_18_c.jpg"" style=""width: 300px; height: 300px;"" />
              </div>","null",""
"","","","","","html-button-response","74","246747","0.0-74.0","E314B2F0B676428D9122CDC8E2B779D2","8c598640-6484-49c0-ba81-1bcca832291c","7c9f784d-5202-4c36-a6e2-1fcf7bf41701","","806","
    <div style=""display: flex; justify-content: center; align-items: center;"">
      <img src=""images/blue_deck_1.png"" style=""width: 300px; height: 300px; margin-right: 10px;"" />
      <img src=""images/red_deck_2.png"" style=""width: 300px; height: 300px;"" />
    </div>","0","0"
"","","","","","html-keyboard-response","75","249753","0.0-75.0-0.0-0.0","E314B2F0B676428D9122CDC8E2B779D2","8c598640-6484-49c0-ba81-1bcca832291c","7c9f784d-5202-4c36-a6e2-1fcf7bf41701","","null","<div style=""display: flex; justify-content: center; align-items: center;"">
                <img src=""images/causal/causal_series_18/causal_series_18_d.jpg"" style=""width: 300px; height: 300px;"" />
              </div>","null",""
"","","","","","html-keyboard-response","76","252760","0.0-76.0","E314B2F0B676428D9122CDC8E2B779D2","8c598640-6484-49c0-ba81-1bcca832291c","7c9f784d-5202-4c36-a6e2-1fcf7bf41701","","null","<div style=""display: flex; justify-content: center; align-items: center;"">
                <img src=""images/other/blank.jpg"" style=""width: 300px; height: 300px;"" />
              </div>","null",""
"","","","","","html-keyboard-response","77","255761","0.0-77.0","E314B2F0B676428D9122CDC8E2B779D2","8c598640-6484-49c0-ba81-1bcca832291c","7c9f784d-5202-4c36-a6e2-1fcf7bf41701","","null","<div style=""display: flex; justify-content: center; align-items: center;"">
                <img src=""images/causal/causal_series_3/causal_series_3_a.jpg"" style=""width: 300px; height: 300px;"" />
              </div>","null",""
"","","","","","html-keyboard-response","78","258770","0.0-78.0","E314B2F0B676428D9122CDC8E2B779D2","8c598640-6484-49c0-ba81-1bcca832291c","7c9f784d-5202-4c36-a6e2-1fcf7bf41701","","null","<div style=""display: flex; justify-content: center; align-items: center;"">
                <img src=""images/causal/causal_series_3/causal_series_3_b.jpg"" style=""width: 300px; height: 300px;"" />
              </div>","null",""
"","","","","","html-keyboard-response","79","261772","0.0-79.0","E314B2F0B676428D9122CDC8E2B779D2","8c598640-6484-49c0-ba81-1bcca832291c","7c9f784d-5202-4c36-a6e2-1fcf7bf41701","","null","<div style=""display: flex; justify-content: center; align-items: center;"">
                <img src=""images/causal/causal_series_3/causal_series_3_c.jpg"" style=""width: 300px; height: 300px;"" />
              </div>","null",""
"","","","","","html-button-response","80","262477","0.0-80.0","E314B2F0B676428D9122CDC8E2B779D2","8c598640-6484-49c0-ba81-1bcca832291c","7c9f784d-5202-4c36-a6e2-1fcf7bf41701","","705","
    <div style=""display: flex; justify-content: center; align-items: center;"">
      <img src=""images/blue_deck_1.png"" style=""width: 300px; height: 300px; margin-right: 10px;"" />
      <img src=""images/red_deck_2.png"" style=""width: 300px; height: 300px;"" />
    </div>","0","0"
"","","","","","html-keyboard-response","81","265478","0.0-81.0-0.0-0.0","E314B2F0B676428D9122CDC8E2B779D2","8c598640-6484-49c0-ba81-1bcca832291c","7c9f784d-5202-4c36-a6e2-1fcf7bf41701","","null","<div style=""display: flex; justify-content: center; align-items: center;"">
                <img src=""images/causal/causal_series_3/causal_series_3_d.jpg"" style=""width: 300px; height: 300px;"" />
              </div>","null",""
"","","","","","html-keyboard-response","82","268479","0.0-82.0","E314B2F0B676428D9122CDC8E2B779D2","8c598640-6484-49c0-ba81-1bcca832291c","7c9f784d-5202-4c36-a6e2-1fcf7bf41701","","null","<div style=""display: flex; justify-content: center; align-items: center;"">
                <img src=""images/other/blank.jpg"" style=""width: 300px; height: 300px;"" />
              </div>","null",""
"","","","","","html-keyboard-response","83","271486","0.0-83.0","E314B2F0B676428D9122CDC8E2B779D2","8c598640-6484-49c0-ba81-1bcca832291c","7c9f784d-5202-4c36-a6e2-1fcf7bf41701","","null","<div style=""display: flex; justify-content: center; align-items: center;"">
                <img src=""images/causal/causal_series_1/causal_series_1_a.jpg"" style=""width: 300px; height: 300px;"" />
              </div>","null",""
"","","","","","html-keyboard-response","84","274489","0.0-84.0","E314B2F0B676428D9122CDC8E2B779D2","8c598640-6484-49c0-ba81-1bcca832291c","7c9f784d-5202-4c36-a6e2-1fcf7bf41701","","null","<div style=""display: flex; justify-content: center; align-items: center;"">
                <img src=""images/causal/causal_series_1/causal_series_1_b.jpg"" style=""width: 300px; height: 300px;"" />
              </div>","null",""
"","","","","","html-keyboard-response","85","277504","0.0-85.0","E314B2F0B676428D9122CDC8E2B779D2","8c598640-6484-49c0-ba81-1bcca832291c","7c9f784d-5202-4c36-a6e2-1fcf7bf41701","","null","<div style=""display: flex; justify-content: center; align-items: center;"">
                <img src=""images/causal/causal_series_1/causal_series_1_c.jpg"" style=""width: 300px; height: 300px;"" />
              </div>","null",""
"","","","","","html-button-response","86","278918","0.0-86.0","E314B2F0B676428D9122CDC8E2B779D2","8c598640-6484-49c0-ba81-1bcca832291c","7c9f784d-5202-4c36-a6e2-1fcf7bf41701","","1413","
    <div style=""display: flex; justify-content: center; align-items: center;"">
      <img src=""images/blue_deck_1.png"" style=""width: 300px; height: 300px; margin-right: 10px;"" />
      <img src=""images/red_deck_2.png"" style=""width: 300px; height: 300px;"" />
    </div>","0","0"
"","","","","","html-keyboard-response","87","281925","0.0-87.0-0.0-0.0","E314B2F0B676428D9122CDC8E2B779D2","8c598640-6484-49c0-ba81-1bcca832291c","7c9f784d-5202-4c36-a6e2-1fcf7bf41701","","null","<div style=""display: flex; justify-content: center; align-items: center;"">
                <img src=""images/causal/causal_series_1/causal_series_1_d.jpg"" style=""width: 300px; height: 300px;"" />
              </div>","null",""
"","","","","","html-keyboard-response","88","284933","0.0-88.0","E314B2F0B676428D9122CDC8E2B779D2","8c598640-6484-49c0-ba81-1bcca832291c","7c9f784d-5202-4c36-a6e2-1fcf7bf41701","","null","<div style=""display: flex; justify-content: center; align-items: center;"">
                <img src=""images/other/blank.jpg"" style=""width: 300px; height: 300px;"" />
              </div>","null",""
"","","","","","html-keyboard-response","89","287949","0.0-89.0","E314B2F0B676428D9122CDC8E2B779D2","8c598640-6484-49c0-ba81-1bcca832291c","7c9f784d-5202-4c36-a6e2-1fcf7bf41701","","null","<div style=""display: flex; justify-content: center; align-items: center;"">
                <img src=""images/causal/causal_series_7/causal_series_7_a.jpg"" style=""width: 300px; height: 300px;"" />
              </div>","null",""
"","","","","","html-keyboard-response","90","290951","0.0-90.0","E314B2F0B676428D9122CDC8E2B779D2","8c598640-6484-49c0-ba81-1bcca832291c","7c9f784d-5202-4c36-a6e2-1fcf7bf41701","","null","<div style=""display: flex; justify-content: center; align-items: center;"">
                <img src=""images/causal/causal_series_7/causal_series_7_b.jpg"" style=""width: 300px; height: 300px;"" />
              </div>","null",""
"","","","","","html-keyboard-response","91","293967","0.0-91.0","E314B2F0B676428D9122CDC8E2B779D2","8c598640-6484-49c0-ba81-1bcca832291c","7c9f784d-5202-4c36-a6e2-1fcf7bf41701","","null","<div style=""display: flex; justify-content: center; align-items: center;"">
                <img src=""images/causal/causal_series_7/causal_series_7_c.jpg"" style=""width: 300px; height: 300px;"" />
              </div>","null",""
"","","","","","html-button-response","92","294543","0.0-92.0","E314B2F0B676428D9122CDC8E2B779D2","8c598640-6484-49c0-ba81-1bcca832291c","7c9f784d-5202-4c36-a6e2-1fcf7bf41701","","575","
    <div style=""display: flex; justify-content: center; align-items: center;"">
      <img src=""images/blue_deck_1.png"" style=""width: 300px; height: 300px; margin-right: 10px;"" />
      <img src=""images/red_deck_2.png"" style=""width: 300px; height: 300px;"" />
    </div>","1","1"
"","","","","","html-keyboard-response","93","297550","0.0-93.0-1.0-0.0","E314B2F0B676428D9122CDC8E2B779D2","8c598640-6484-49c0-ba81-1bcca832291c","7c9f784d-5202-4c36-a6e2-1fcf7bf41701","","null","<div style=""display: flex; justify-content: center; align-items: center;"">
                <img src=""images/semantic/semantic_series_6/semantic_series_6_d.jpg"" style=""width: 300px; height: 300px;"" />
              </div>","null",""
"","","","","","html-keyboard-response","94","300552","0.0-94.0","E314B2F0B676428D9122CDC8E2B779D2","8c598640-6484-49c0-ba81-1bcca832291c","7c9f784d-5202-4c36-a6e2-1fcf7bf41701","","null","<div style=""display: flex; justify-content: center; align-items: center;"">
                <img src=""images/other/blank.jpg"" style=""width: 300px; height: 300px;"" />
              </div>","null",""
"","","","","","html-keyboard-response","95","303567","0.0-95.0","E314B2F0B676428D9122CDC8E2B779D2","8c598640-6484-49c0-ba81-1bcca832291c","7c9f784d-5202-4c36-a6e2-1fcf7bf41701","","null","<div style=""display: flex; justify-content: center; align-items: center;"">
                <img src=""images/causal/causal_series_4/causal_series_4_a.jpg"" style=""width: 300px; height: 300px;"" />
              </div>","null",""
"","","","","","html-keyboard-response","96","306574","0.0-96.0","E314B2F0B676428D9122CDC8E2B779D2","8c598640-6484-49c0-ba81-1bcca832291c","7c9f784d-5202-4c36-a6e2-1fcf7bf41701","","null","<div style=""display: flex; justify-content: center; align-items: center;"">
                <img src=""images/causal/causal_series_4/causal_series_4_b.jpg"" style=""width: 300px; height: 300px;"" />
              </div>","null",""
"","","","","","html-keyboard-response","97","309589","0.0-97.0","E314B2F0B676428D9122CDC8E2B779D2","8c598640-6484-49c0-ba81-1bcca832291c","7c9f784d-5202-4c36-a6e2-1fcf7bf41701","","null","<div style=""display: flex; justify-content: center; align-items: center;"">
                <img src=""images/causal/causal_series_4/causal_series_4_c.jpg"" style=""width: 300px; height: 300px;"" />
              </div>","null",""
"","","","","","html-button-response","98","310338","0.0-98.0","E314B2F0B676428D9122CDC8E2B779D2","8c598640-6484-49c0-ba81-1bcca832291c","7c9f784d-5202-4c36-a6e2-1fcf7bf41701","","749","
    <div style=""display: flex; justify-content: center; align-items: center;"">
      <img src=""images/blue_deck_1.png"" style=""width: 300px; height: 300px; margin-right: 10px;"" />
      <img src=""images/red_deck_2.png"" style=""width: 300px; height: 300px;"" />
    </div>","0","0"
"","","","","","html-keyboard-response","99","313350","0.0-99.0-0.0-0.0","E314B2F0B676428D9122CDC8E2B779D2","8c598640-6484-49c0-ba81-1bcca832291c","7c9f784d-5202-4c36-a6e2-1fcf7bf41701","","null","<div style=""display: flex; justify-content: center; align-items: center;"">
                <img src=""images/causal/causal_series_4/causal_series_4_d.jpg"" style=""width: 300px; height: 300px;"" />
              </div>","null",""
"","","","","","html-keyboard-response","100","316351","0.0-100.0","E314B2F0B676428D9122CDC8E2B779D2","8c598640-6484-49c0-ba81-1bcca832291c","7c9f784d-5202-4c36-a6e2-1fcf7bf41701","","null","<div style=""display: flex; justify-content: center; align-items: center;"">
                <img src=""images/other/blank.jpg"" style=""width: 300px; height: 300px;"" />
              </div>","null",""
"","","","","","html-keyboard-response","101","319361","0.0-101.0","E314B2F0B676428D9122CDC8E2B779D2","8c598640-6484-49c0-ba81-1bcca832291c","7c9f784d-5202-4c36-a6e2-1fcf7bf41701","","null","<div style=""display: flex; justify-content: center; align-items: center;"">
                <img src=""images/causal/causal_series_8/causal_series_8_a.jpg"" style=""width: 300px; height: 300px;"" />
              </div>","null",""
"","","","","","html-keyboard-response","102","322363","0.0-102.0","E314B2F0B676428D9122CDC8E2B779D2","8c598640-6484-49c0-ba81-1bcca832291c","7c9f784d-5202-4c36-a6e2-1fcf7bf41701","","null","<div style=""display: flex; justify-content: center; align-items: center;"">
                <img src=""images/causal/causal_series_8/causal_series_8_b.jpg"" style=""width: 300px; height: 300px;"" />
              </div>","null",""
"","","","","","html-keyboard-response","103","325378","0.0-103.0","E314B2F0B676428D9122CDC8E2B779D2","8c598640-6484-49c0-ba81-1bcca832291c","7c9f784d-5202-4c36-a6e2-1fcf7bf41701","","null","<div style=""display: flex; justify-content: center; align-items: center;"">
                <img src=""images/causal/causal_series_8/causal_series_8_c.jpg"" style=""width: 300px; height: 300px;"" />
              </div>","null",""
"","","","","","html-button-response","104","326623","0.0-104.0","E314B2F0B676428D9122CDC8E2B779D2","8c598640-6484-49c0-ba81-1bcca832291c","7c9f784d-5202-4c36-a6e2-1fcf7bf41701","","1245","
    <div style=""display: flex; justify-content: center; align-items: center;"">
      <img src=""images/blue_deck_1.png"" style=""width: 300px; height: 300px; margin-right: 10px;"" />
      <img src=""images/red_deck_2.png"" style=""width: 300px; height: 300px;"" />
    </div>","0","0"
"","","","","","html-keyboard-response","105","329634","0.0-105.0-0.0-0.0","E314B2F0B676428D9122CDC8E2B779D2","8c598640-6484-49c0-ba81-1bcca832291c","7c9f784d-5202-4c36-a6e2-1fcf7bf41701","","null","<div style=""display: flex; justify-content: center; align-items: center;"">
                <img src=""images/causal/causal_series_8/causal_series_8_d.jpg"" style=""width: 300px; height: 300px;"" />
              </div>","null",""
"","","","","","html-keyboard-response","106","332638","0.0-106.0","E314B2F0B676428D9122CDC8E2B779D2","8c598640-6484-49c0-ba81-1bcca832291c","7c9f784d-5202-4c36-a6e2-1fcf7bf41701","","null","<div style=""display: flex; justify-content: center; align-items: center;"">
                <img src=""images/other/blank.jpg"" style=""width: 300px; height: 300px;"" />
              </div>","null",""
"","","","","","html-keyboard-response","107","335644","0.0-107.0","E314B2F0B676428D9122CDC8E2B779D2","8c598640-6484-49c0-ba81-1bcca832291c","7c9f784d-5202-4c36-a6e2-1fcf7bf41701","","null","<div style=""display: flex; justify-content: center; align-items: center;"">
                <img src=""images/causal/causal_series_12/causal_series_12_a.jpg"" style=""width: 300px; height: 300px;"" />
              </div>","null",""
"","","","","","html-keyboard-response","108","338650","0.0-108.0","E314B2F0B676428D9122CDC8E2B779D2","8c598640-6484-49c0-ba81-1bcca832291c","7c9f784d-5202-4c36-a6e2-1fcf7bf41701","","null","<div style=""display: flex; justify-content: center; align-items: center;"">
                <img src=""images/causal/causal_series_12/causal_series_12_b.jpg"" style=""width: 300px; height: 300px;"" />
              </div>","null",""
"","","","","","html-keyboard-response","109","341653","0.0-109.0","E314B2F0B676428D9122CDC8E2B779D2","8c598640-6484-49c0-ba81-1bcca832291c","7c9f784d-5202-4c36-a6e2-1fcf7bf41701","","null","<div style=""display: flex; justify-content: center; align-items: center;"">
                <img src=""images/causal/causal_series_12/causal_series_12_c.jpg"" style=""width: 300px; height: 300px;"" />
              </div>","null",""
"","","","","","html-button-response","110","342439","0.0-110.0","E314B2F0B676428D9122CDC8E2B779D2","8c598640-6484-49c0-ba81-1bcca832291c","7c9f784d-5202-4c36-a6e2-1fcf7bf41701","","786","
    <div style=""display: flex; justify-content: center; align-items: center;"">
      <img src=""images/blue_deck_1.png"" style=""width: 300px; height: 300px; margin-right: 10px;"" />
      <img src=""images/red_deck_2.png"" style=""width: 300px; height: 300px;"" />
    </div>","0","0"
"","","","","","html-keyboard-response","111","345452","0.0-111.0-0.0-0.0","E314B2F0B676428D9122CDC8E2B779D2","8c598640-6484-49c0-ba81-1bcca832291c","7c9f784d-5202-4c36-a6e2-1fcf7bf41701","","null","<div style=""display: flex; justify-content: center; align-items: center;"">
                <img src=""images/causal/causal_series_12/causal_series_12_d.jpg"" style=""width: 300px; height: 300px;"" />
              </div>","null",""
"","","","","","html-keyboard-response","112","348460","0.0-112.0","E314B2F0B676428D9122CDC8E2B779D2","8c598640-6484-49c0-ba81-1bcca832291c","7c9f784d-5202-4c36-a6e2-1fcf7bf41701","","null","<div style=""display: flex; justify-content: center; align-items: center;"">
                <img src=""images/other/blank.jpg"" style=""width: 300px; height: 300px;"" />
              </div>","null",""
"","","","","","survey-text","113","373198","0.0-113.0","E314B2F0B676428D9122CDC8E2B779D2","8c598640-6484-49c0-ba81-1bcca832291c","7c9f784d-5202-4c36-a6e2-1fcf7bf41701","","24735","","{""Q0"":""the blue deck shows what happens next in the story. the red deck shows a random picture""}",""
"","","","","","survey-text","114","379748","0.0-114.0","E314B2F0B676428D9122CDC8E2B779D2","8c598640-6484-49c0-ba81-1bcca832291c","7c9f784d-5202-4c36-a6e2-1fcf7bf41701","","6549","","{""Q0"":""the blue deck""}",""
"","","","","","html-button-response","115","386624","0.0-115.0","E314B2F0B676428D9122CDC8E2B779D2","8c598640-6484-49c0-ba81-1bcca832291c","7c9f784d-5202-4c36-a6e2-1fcf7bf41701","","6875","Which color deck does the fourth image continue the story from the series?","0",""
"","","","","","html-button-response","116","393442","0.0-116.0","E314B2F0B676428D9122CDC8E2B779D2","8c598640-6484-49c0-ba81-1bcca832291c","7c9f784d-5202-4c36-a6e2-1fcf7bf41701","","6817","Which color deck does the fourth image not follow the story from the series?","1",""
"","","","","","survey-text","117","399287","0.0-117.0","E314B2F0B676428D9122CDC8E2B779D2","8c598640-6484-49c0-ba81-1bcca832291c","7c9f784d-5202-4c36-a6e2-1fcf7bf41701","","5843","","{""Q0"":""FEMALE"",""Q1"":""31""}",""
"","","","","","instructions","118","403645","0.0-118.0","E314B2F0B676428D9122CDC8E2B779D2","8c598640-6484-49c0-ba81-1bcca832291c","7c9f784d-5202-4c36-a6e2-1fcf7bf41701","[{""page_index"":0,""viewing_time"":4357}]","4357","","",""
