"success","timeout","failed_images","failed_audio","failed_video","trial_type","trial_index","time_elapsed","internal_node_id","view_history","rt","stimulus","response","firstImageNumber","secondImageNumber","response_made"
"true","false","[]","[]","[]","preload","0","879","0.0-0.0","","","","","","",""
"","","","","","instructions","1","8246","0.0-1.0","[{""page_index"":0,""viewing_time"":7367}]","7367","","","","",""
"","","","","","html-button-response","2","21106","0.0-2.0","","12859","
          <div style=""display: flex; justify-content: center; align-items: center;"">
            <!-- Event 1 on the left -->
            <div style=""text-align: center; margin-right: 20px;"">
              <p style=""font-size: 24px; font-weight: bold;"">Event 1</p>
              <img src=""images/causal/cat_care_semantic/cat_care_semantic_8.png"" style=""width: 300px; height: auto;"">
            </div>
            <!-- Event 2 on the right -->
            <div style=""text-align: center; margin-left: 20px;"">
              <p style=""font-size: 24px; font-weight: bold;"">Event 2</p>
              <img src=""images/causal/cat_care_semantic/cat_care_semantic_2.png"" style=""width: 300px; height: auto;"">
            </div>
          </div>
          <p style=""text-align: center; margin-top: 20px;"">Does Event 1 lead to Event 2?</p>","2","8","2","true"
"","","","","","html-button-response","3","28942","0.0-3.0","","7835","
          <div style=""display: flex; justify-content: center; align-items: center;"">
            <!-- Event 1 on the left -->
            <div style=""text-align: center; margin-right: 20px;"">
              <p style=""font-size: 24px; font-weight: bold;"">Event 1</p>
              <img src=""images/causal/cat_care_semantic/cat_care_semantic_6.png"" style=""width: 300px; height: auto;"">
            </div>
            <!-- Event 2 on the right -->
            <div style=""text-align: center; margin-left: 20px;"">
              <p style=""font-size: 24px; font-weight: bold;"">Event 2</p>
              <img src=""images/causal/cat_care_semantic/cat_care_semantic_3.png"" style=""width: 300px; height: auto;"">
            </div>
          </div>
          <p style=""text-align: center; margin-top: 20px;"">Does Event 1 lead to Event 2?</p>","0","6","3","true"
"","","","","","html-button-response","4","35620","0.0-4.0","","6677","
          <div style=""display: flex; justify-content: center; align-items: center;"">
            <!-- Event 1 on the left -->
            <div style=""text-align: center; margin-right: 20px;"">
              <p style=""font-size: 24px; font-weight: bold;"">Event 1</p>
              <img src=""images/causal/cat_care_semantic/cat_care_semantic_3.png"" style=""width: 300px; height: auto;"">
            </div>
            <!-- Event 2 on the right -->
            <div style=""text-align: center; margin-left: 20px;"">
              <p style=""font-size: 24px; font-weight: bold;"">Event 2</p>
              <img src=""images/causal/cat_care_semantic/cat_care_semantic_2.png"" style=""width: 300px; height: auto;"">
            </div>
          </div>
          <p style=""text-align: center; margin-top: 20px;"">Does Event 1 lead to Event 2?</p>","0","3","2","true"
"","","","","","html-button-response","5","41858","0.0-5.0","","6237","
          <div style=""display: flex; justify-content: center; align-items: center;"">
            <!-- Event 1 on the left -->
            <div style=""text-align: center; margin-right: 20px;"">
              <p style=""font-size: 24px; font-weight: bold;"">Event 1</p>
              <img src=""images/causal/cat_care_semantic/cat_care_semantic_7.png"" style=""width: 300px; height: auto;"">
            </div>
            <!-- Event 2 on the right -->
            <div style=""text-align: center; margin-left: 20px;"">
              <p style=""font-size: 24px; font-weight: bold;"">Event 2</p>
              <img src=""images/causal/cat_care_semantic/cat_care_semantic_2.png"" style=""width: 300px; height: auto;"">
            </div>
          </div>
          <p style=""text-align: center; margin-top: 20px;"">Does Event 1 lead to Event 2?</p>","2","7","2","true"
"","","","","","html-button-response","6","101873","0.0-6.0","","null","
          <div style=""display: flex; justify-content: center; align-items: center;"">
            <!-- Event 1 on the left -->
            <div style=""text-align: center; margin-right: 20px;"">
              <p style=""font-size: 24px; font-weight: bold;"">Event 1</p>
              <img src=""images/causal/cat_care_semantic/cat_care_semantic_1.png"" style=""width: 300px; height: auto;"">
            </div>
            <!-- Event 2 on the right -->
            <div style=""text-align: center; margin-left: 20px;"">
              <p style=""font-size: 24px; font-weight: bold;"">Event 2</p>
              <img src=""images/causal/cat_care_semantic/cat_care_semantic_3.png"" style=""width: 300px; height: auto;"">
            </div>
          </div>
          <p style=""text-align: center; margin-top: 20px;"">Does Event 1 lead to Event 2?</p>","null","1","3","true"
"","","","","","html-button-response","7","149345","0.0-7.0","","47471","
          <div style=""display: flex; justify-content: center; align-items: center;"">
            <!-- Event 1 on the left -->
            <div style=""text-align: center; margin-right: 20px;"">
              <p style=""font-size: 24px; font-weight: bold;"">Event 1</p>
              <img src=""images/causal/cat_care_semantic/cat_care_semantic_9.png"" style=""width: 300px; height: auto;"">
            </div>
            <!-- Event 2 on the right -->
            <div style=""text-align: center; margin-left: 20px;"">
              <p style=""font-size: 24px; font-weight: bold;"">Event 2</p>
              <img src=""images/causal/cat_care_semantic/cat_care_semantic_1.png"" style=""width: 300px; height: auto;"">
            </div>
          </div>
          <p style=""text-align: center; margin-top: 20px;"">Does Event 1 lead to Event 2?</p>","2","9","1","true"
"","","","","","html-button-response","8","160464","0.0-8.0","","11118","
          <div style=""display: flex; justify-content: center; align-items: center;"">
            <!-- Event 1 on the left -->
            <div style=""text-align: center; margin-right: 20px;"">
              <p style=""font-size: 24px; font-weight: bold;"">Event 1</p>
              <img src=""images/causal/cat_care_semantic/cat_care_semantic_10.png"" style=""width: 300px; height: auto;"">
            </div>
            <!-- Event 2 on the right -->
            <div style=""text-align: center; margin-left: 20px;"">
              <p style=""font-size: 24px; font-weight: bold;"">Event 2</p>
              <img src=""images/causal/cat_care_semantic/cat_care_semantic_1.png"" style=""width: 300px; height: auto;"">
            </div>
          </div>
          <p style=""text-align: center; margin-top: 20px;"">Does Event 1 lead to Event 2?</p>","2","10","1","true"
"","","","","","html-button-response","9","166313","0.0-9.0","","5848","
          <div style=""display: flex; justify-content: center; align-items: center;"">
            <!-- Event 1 on the left -->
            <div style=""text-align: center; margin-right: 20px;"">
              <p style=""font-size: 24px; font-weight: bold;"">Event 1</p>
              <img src=""images/causal/cat_care_semantic/cat_care_semantic_9.png"" style=""width: 300px; height: auto;"">
            </div>
            <!-- Event 2 on the right -->
            <div style=""text-align: center; margin-left: 20px;"">
              <p style=""font-size: 24px; font-weight: bold;"">Event 2</p>
              <img src=""images/causal/cat_care_semantic/cat_care_semantic_7.png"" style=""width: 300px; height: auto;"">
            </div>
          </div>
          <p style=""text-align: center; margin-top: 20px;"">Does Event 1 lead to Event 2?</p>","2","9","7","true"
"","","","","","html-button-response","10","171686","0.0-10.0","","5372","
          <div style=""display: flex; justify-content: center; align-items: center;"">
            <!-- Event 1 on the left -->
            <div style=""text-align: center; margin-right: 20px;"">
              <p style=""font-size: 24px; font-weight: bold;"">Event 1</p>
              <img src=""images/causal/cat_care_semantic/cat_care_semantic_8.png"" style=""width: 300px; height: auto;"">
            </div>
            <!-- Event 2 on the right -->
            <div style=""text-align: center; margin-left: 20px;"">
              <p style=""font-size: 24px; font-weight: bold;"">Event 2</p>
              <img src=""images/causal/cat_care_semantic/cat_care_semantic_3.png"" style=""width: 300px; height: auto;"">
            </div>
          </div>
          <p style=""text-align: center; margin-top: 20px;"">Does Event 1 lead to Event 2?</p>","2","8","3","true"
"","","","","","html-button-response","11","180234","0.0-11.0","","8548","
          <div style=""display: flex; justify-content: center; align-items: center;"">
            <!-- Event 1 on the left -->
            <div style=""text-align: center; margin-right: 20px;"">
              <p style=""font-size: 24px; font-weight: bold;"">Event 1</p>
              <img src=""images/causal/cat_care_semantic/cat_care_semantic_4.png"" style=""width: 300px; height: auto;"">
            </div>
            <!-- Event 2 on the right -->
            <div style=""text-align: center; margin-left: 20px;"">
              <p style=""font-size: 24px; font-weight: bold;"">Event 2</p>
              <img src=""images/causal/cat_care_semantic/cat_care_semantic_1.png"" style=""width: 300px; height: auto;"">
            </div>
          </div>
          <p style=""text-align: center; margin-top: 20px;"">Does Event 1 lead to Event 2?</p>","2","4","1","true"
"","","","","","html-button-response","12","189970","0.0-12.0","","9735","
          <div style=""display: flex; justify-content: center; align-items: center;"">
            <!-- Event 1 on the left -->
            <div style=""text-align: center; margin-right: 20px;"">
              <p style=""font-size: 24px; font-weight: bold;"">Event 1</p>
              <img src=""images/causal/cat_care_semantic/cat_care_semantic_2.png"" style=""width: 300px; height: auto;"">
            </div>
            <!-- Event 2 on the right -->
            <div style=""text-align: center; margin-left: 20px;"">
              <p style=""font-size: 24px; font-weight: bold;"">Event 2</p>
              <img src=""images/causal/cat_care_semantic/cat_care_semantic_9.png"" style=""width: 300px; height: auto;"">
            </div>
          </div>
          <p style=""text-align: center; margin-top: 20px;"">Does Event 1 lead to Event 2?</p>","1","2","9","true"
"","","","","","html-button-response","13","196479","0.0-13.0","","6508","
          <div style=""display: flex; justify-content: center; align-items: center;"">
            <!-- Event 1 on the left -->
            <div style=""text-align: center; margin-right: 20px;"">
              <p style=""font-size: 24px; font-weight: bold;"">Event 1</p>
              <img src=""images/causal/cat_care_semantic/cat_care_semantic_6.png"" style=""width: 300px; height: auto;"">
            </div>
            <!-- Event 2 on the right -->
            <div style=""text-align: center; margin-left: 20px;"">
              <p style=""font-size: 24px; font-weight: bold;"">Event 2</p>
              <img src=""images/causal/cat_care_semantic/cat_care_semantic_1.png"" style=""width: 300px; height: auto;"">
            </div>
          </div>
          <p style=""text-align: center; margin-top: 20px;"">Does Event 1 lead to Event 2?</p>","1","6","1","true"
"","","","","","html-button-response","14","256494","0.0-14.0","","null","
          <div style=""display: flex; justify-content: center; align-items: center;"">
            <!-- Event 1 on the left -->
            <div style=""text-align: center; margin-right: 20px;"">
              <p style=""font-size: 24px; font-weight: bold;"">Event 1</p>
              <img src=""images/causal/cat_care_semantic/cat_care_semantic_4.png"" style=""width: 300px; height: auto;"">
            </div>
            <!-- Event 2 on the right -->
            <div style=""text-align: center; margin-left: 20px;"">
              <p style=""font-size: 24px; font-weight: bold;"">Event 2</p>
              <img src=""images/causal/cat_care_semantic/cat_care_semantic_3.png"" style=""width: 300px; height: auto;"">
            </div>
          </div>
          <p style=""text-align: center; margin-top: 20px;"">Does Event 1 lead to Event 2?</p>","null","4","3","true"
"","","","","","html-button-response","15","262647","0.0-15.0","","6152","
          <div style=""display: flex; justify-content: center; align-items: center;"">
            <!-- Event 1 on the left -->
            <div style=""text-align: center; margin-right: 20px;"">
              <p style=""font-size: 24px; font-weight: bold;"">Event 1</p>
              <img src=""images/causal/cat_care_semantic/cat_care_semantic_7.png"" style=""width: 300px; height: auto;"">
            </div>
            <!-- Event 2 on the right -->
            <div style=""text-align: center; margin-left: 20px;"">
              <p style=""font-size: 24px; font-weight: bold;"">Event 2</p>
              <img src=""images/causal/cat_care_semantic/cat_care_semantic_6.png"" style=""width: 300px; height: auto;"">
            </div>
          </div>
          <p style=""text-align: center; margin-top: 20px;"">Does Event 1 lead to Event 2?</p>","2","7","6","true"
"","","","","","html-button-response","16","277229","0.0-16.0","","14581","
          <div style=""display: flex; justify-content: center; align-items: center;"">
            <!-- Event 1 on the left -->
            <div style=""text-align: center; margin-right: 20px;"">
              <p style=""font-size: 24px; font-weight: bold;"">Event 1</p>
              <img src=""images/causal/cat_care_semantic/cat_care_semantic_5.png"" style=""width: 300px; height: auto;"">
            </div>
            <!-- Event 2 on the right -->
            <div style=""text-align: center; margin-left: 20px;"">
              <p style=""font-size: 24px; font-weight: bold;"">Event 2</p>
              <img src=""images/causal/cat_care_semantic/cat_care_semantic_8.png"" style=""width: 300px; height: auto;"">
            </div>
          </div>
          <p style=""text-align: center; margin-top: 20px;"">Does Event 1 lead to Event 2?</p>","0","5","8","true"
"","","","","","html-button-response","17","284015","0.0-17.0","","6785","
          <div style=""display: flex; justify-content: center; align-items: center;"">
            <!-- Event 1 on the left -->
            <div style=""text-align: center; margin-right: 20px;"">
              <p style=""font-size: 24px; font-weight: bold;"">Event 1</p>
              <img src=""images/causal/cat_care_semantic/cat_care_semantic_5.png"" style=""width: 300px; height: auto;"">
            </div>
            <!-- Event 2 on the right -->
            <div style=""text-align: center; margin-left: 20px;"">
              <p style=""font-size: 24px; font-weight: bold;"">Event 2</p>
              <img src=""images/causal/cat_care_semantic/cat_care_semantic_9.png"" style=""width: 300px; height: auto;"">
            </div>
          </div>
          <p style=""text-align: center; margin-top: 20px;"">Does Event 1 lead to Event 2?</p>","1","5","9","true"
"","","","","","html-button-response","18","344020","0.0-18.0","","null","
          <div style=""display: flex; justify-content: center; align-items: center;"">
            <!-- Event 1 on the left -->
            <div style=""text-align: center; margin-right: 20px;"">
              <p style=""font-size: 24px; font-weight: bold;"">Event 1</p>
              <img src=""images/causal/cat_care_semantic/cat_care_semantic_2.png"" style=""width: 300px; height: auto;"">
            </div>
            <!-- Event 2 on the right -->
            <div style=""text-align: center; margin-left: 20px;"">
              <p style=""font-size: 24px; font-weight: bold;"">Event 2</p>
              <img src=""images/causal/cat_care_semantic/cat_care_semantic_4.png"" style=""width: 300px; height: auto;"">
            </div>
          </div>
          <p style=""text-align: center; margin-top: 20px;"">Does Event 1 lead to Event 2?</p>","null","2","4","true"
"","","","","","html-button-response","19","404034","0.0-19.0","","null","
          <div style=""display: flex; justify-content: center; align-items: center;"">
            <!-- Event 1 on the left -->
            <div style=""text-align: center; margin-right: 20px;"">
              <p style=""font-size: 24px; font-weight: bold;"">Event 1</p>
              <img src=""images/causal/cat_care_semantic/cat_care_semantic_7.png"" style=""width: 300px; height: auto;"">
            </div>
            <!-- Event 2 on the right -->
            <div style=""text-align: center; margin-left: 20px;"">
              <p style=""font-size: 24px; font-weight: bold;"">Event 2</p>
              <img src=""images/causal/cat_care_semantic/cat_care_semantic_10.png"" style=""width: 300px; height: auto;"">
            </div>
          </div>
          <p style=""text-align: center; margin-top: 20px;"">Does Event 1 lead to Event 2?</p>","null","7","10","true"
"","","","","","html-button-response","20","464046","0.0-20.0","","null","
          <div style=""display: flex; justify-content: center; align-items: center;"">
            <!-- Event 1 on the left -->
            <div style=""text-align: center; margin-right: 20px;"">
              <p style=""font-size: 24px; font-weight: bold;"">Event 1</p>
              <img src=""images/causal/cat_care_semantic/cat_care_semantic_7.png"" style=""width: 300px; height: auto;"">
            </div>
            <!-- Event 2 on the right -->
            <div style=""text-align: center; margin-left: 20px;"">
              <p style=""font-size: 24px; font-weight: bold;"">Event 2</p>
              <img src=""images/causal/cat_care_semantic/cat_care_semantic_3.png"" style=""width: 300px; height: auto;"">
            </div>
          </div>
          <p style=""text-align: center; margin-top: 20px;"">Does Event 1 lead to Event 2?</p>","null","7","3","true"
"","","","","","html-button-response","21","475811","0.0-21.0","","11764","
          <div style=""display: flex; justify-content: center; align-items: center;"">
            <!-- Event 1 on the left -->
            <div style=""text-align: center; margin-right: 20px;"">
              <p style=""font-size: 24px; font-weight: bold;"">Event 1</p>
              <img src=""images/causal/cat_care_semantic/cat_care_semantic_1.png"" style=""width: 300px; height: auto;"">
            </div>
            <!-- Event 2 on the right -->
            <div style=""text-align: center; margin-left: 20px;"">
              <p style=""font-size: 24px; font-weight: bold;"">Event 2</p>
              <img src=""images/causal/cat_care_semantic/cat_care_semantic_7.png"" style=""width: 300px; height: auto;"">
            </div>
          </div>
          <p style=""text-align: center; margin-top: 20px;"">Does Event 1 lead to Event 2?</p>","2","1","7","true"
"","","","","","html-button-response","22","483877","0.0-22.0","","8065","
          <div style=""display: flex; justify-content: center; align-items: center;"">
            <!-- Event 1 on the left -->
            <div style=""text-align: center; margin-right: 20px;"">
              <p style=""font-size: 24px; font-weight: bold;"">Event 1</p>
              <img src=""images/causal/cat_care_semantic/cat_care_semantic_6.png"" style=""width: 300px; height: auto;"">
            </div>
            <!-- Event 2 on the right -->
            <div style=""text-align: center; margin-left: 20px;"">
              <p style=""font-size: 24px; font-weight: bold;"">Event 2</p>
              <img src=""images/causal/cat_care_semantic/cat_care_semantic_5.png"" style=""width: 300px; height: auto;"">
            </div>
          </div>
          <p style=""text-align: center; margin-top: 20px;"">Does Event 1 lead to Event 2?</p>","2","6","5","true"
"","","","","","html-button-response","23","512651","0.0-23.0","","28773","
          <div style=""display: flex; justify-content: center; align-items: center;"">
            <!-- Event 1 on the left -->
            <div style=""text-align: center; margin-right: 20px;"">
              <p style=""font-size: 24px; font-weight: bold;"">Event 1</p>
              <img src=""images/causal/cat_care_semantic/cat_care_semantic_6.png"" style=""width: 300px; height: auto;"">
            </div>
            <!-- Event 2 on the right -->
            <div style=""text-align: center; margin-left: 20px;"">
              <p style=""font-size: 24px; font-weight: bold;"">Event 2</p>
              <img src=""images/causal/cat_care_semantic/cat_care_semantic_2.png"" style=""width: 300px; height: auto;"">
            </div>
          </div>
          <p style=""text-align: center; margin-top: 20px;"">Does Event 1 lead to Event 2?</p>","2","6","2","true"
"","","","","","html-button-response","24","525516","0.0-24.0","","12865","
          <div style=""display: flex; justify-content: center; align-items: center;"">
            <!-- Event 1 on the left -->
            <div style=""text-align: center; margin-right: 20px;"">
              <p style=""font-size: 24px; font-weight: bold;"">Event 1</p>
              <img src=""images/causal/cat_care_semantic/cat_care_semantic_2.png"" style=""width: 300px; height: auto;"">
            </div>
            <!-- Event 2 on the right -->
            <div style=""text-align: center; margin-left: 20px;"">
              <p style=""font-size: 24px; font-weight: bold;"">Event 2</p>
              <img src=""images/causal/cat_care_semantic/cat_care_semantic_10.png"" style=""width: 300px; height: auto;"">
            </div>
          </div>
          <p style=""text-align: center; margin-top: 20px;"">Does Event 1 lead to Event 2?</p>","2","2","10","true"
"","","","","","html-button-response","25","533277","0.0-25.0","","7760","
          <div style=""display: flex; justify-content: center; align-items: center;"">
            <!-- Event 1 on the left -->
            <div style=""text-align: center; margin-right: 20px;"">
              <p style=""font-size: 24px; font-weight: bold;"">Event 1</p>
              <img src=""images/causal/cat_care_semantic/cat_care_semantic_4.png"" style=""width: 300px; height: auto;"">
            </div>
            <!-- Event 2 on the right -->
            <div style=""text-align: center; margin-left: 20px;"">
              <p style=""font-size: 24px; font-weight: bold;"">Event 2</p>
              <img src=""images/causal/cat_care_semantic/cat_care_semantic_7.png"" style=""width: 300px; height: auto;"">
            </div>
          </div>
          <p style=""text-align: center; margin-top: 20px;"">Does Event 1 lead to Event 2?</p>","2","4","7","true"
"","","","","","html-button-response","26","540321","0.0-26.0","","7044","
          <div style=""display: flex; justify-content: center; align-items: center;"">
            <!-- Event 1 on the left -->
            <div style=""text-align: center; margin-right: 20px;"">
              <p style=""font-size: 24px; font-weight: bold;"">Event 1</p>
              <img src=""images/causal/cat_care_semantic/cat_care_semantic_8.png"" style=""width: 300px; height: auto;"">
            </div>
            <!-- Event 2 on the right -->
            <div style=""text-align: center; margin-left: 20px;"">
              <p style=""font-size: 24px; font-weight: bold;"">Event 2</p>
              <img src=""images/causal/cat_care_semantic/cat_care_semantic_10.png"" style=""width: 300px; height: auto;"">
            </div>
          </div>
          <p style=""text-align: center; margin-top: 20px;"">Does Event 1 lead to Event 2?</p>","2","8","10","true"
"","","","","","html-button-response","27","561232","0.0-27.0","","20910","
          <div style=""display: flex; justify-content: center; align-items: center;"">
            <!-- Event 1 on the left -->
            <div style=""text-align: center; margin-right: 20px;"">
              <p style=""font-size: 24px; font-weight: bold;"">Event 1</p>
              <img src=""images/causal/cat_care_semantic/cat_care_semantic_5.png"" style=""width: 300px; height: auto;"">
            </div>
            <!-- Event 2 on the right -->
            <div style=""text-align: center; margin-left: 20px;"">
              <p style=""font-size: 24px; font-weight: bold;"">Event 2</p>
              <img src=""images/causal/cat_care_semantic/cat_care_semantic_10.png"" style=""width: 300px; height: auto;"">
            </div>
          </div>
          <p style=""text-align: center; margin-top: 20px;"">Does Event 1 lead to Event 2?</p>","2","5","10","true"
"","","","","","html-button-response","28","621235","0.0-28.0","","null","
          <div style=""display: flex; justify-content: center; align-items: center;"">
            <!-- Event 1 on the left -->
            <div style=""text-align: center; margin-right: 20px;"">
              <p style=""font-size: 24px; font-weight: bold;"">Event 1</p>
              <img src=""images/causal/cat_care_semantic/cat_care_semantic_4.png"" style=""width: 300px; height: auto;"">
            </div>
            <!-- Event 2 on the right -->
            <div style=""text-align: center; margin-left: 20px;"">
              <p style=""font-size: 24px; font-weight: bold;"">Event 2</p>
              <img src=""images/causal/cat_care_semantic/cat_care_semantic_10.png"" style=""width: 300px; height: auto;"">
            </div>
          </div>
          <p style=""text-align: center; margin-top: 20px;"">Does Event 1 lead to Event 2?</p>","null","4","10","true"
"","","","","","html-button-response","29","676969","0.0-29.0","","55733","
          <div style=""display: flex; justify-content: center; align-items: center;"">
            <!-- Event 1 on the left -->
            <div style=""text-align: center; margin-right: 20px;"">
              <p style=""font-size: 24px; font-weight: bold;"">Event 1</p>
              <img src=""images/causal/cat_care_semantic/cat_care_semantic_8.png"" style=""width: 300px; height: auto;"">
            </div>
            <!-- Event 2 on the right -->
            <div style=""text-align: center; margin-left: 20px;"">
              <p style=""font-size: 24px; font-weight: bold;"">Event 2</p>
              <img src=""images/causal/cat_care_semantic/cat_care_semantic_1.png"" style=""width: 300px; height: auto;"">
            </div>
          </div>
          <p style=""text-align: center; margin-top: 20px;"">Does Event 1 lead to Event 2?</p>","2","8","1","true"
"","","","","","html-button-response","30","682566","0.0-30.0","","5596","
          <div style=""display: flex; justify-content: center; align-items: center;"">
            <!-- Event 1 on the left -->
            <div style=""text-align: center; margin-right: 20px;"">
              <p style=""font-size: 24px; font-weight: bold;"">Event 1</p>
              <img src=""images/causal/cat_care_semantic/cat_care_semantic_9.png"" style=""width: 300px; height: auto;"">
            </div>
            <!-- Event 2 on the right -->
            <div style=""text-align: center; margin-left: 20px;"">
              <p style=""font-size: 24px; font-weight: bold;"">Event 2</p>
              <img src=""images/causal/cat_care_semantic/cat_care_semantic_3.png"" style=""width: 300px; height: auto;"">
            </div>
          </div>
          <p style=""text-align: center; margin-top: 20px;"">Does Event 1 lead to Event 2?</p>","2","9","3","true"
"","","","","","html-button-response","31","688234","0.0-31.0","","5667","
          <div style=""display: flex; justify-content: center; align-items: center;"">
            <!-- Event 1 on the left -->
            <div style=""text-align: center; margin-right: 20px;"">
              <p style=""font-size: 24px; font-weight: bold;"">Event 1</p>
              <img src=""images/causal/cat_care_semantic/cat_care_semantic_8.png"" style=""width: 300px; height: auto;"">
            </div>
            <!-- Event 2 on the right -->
            <div style=""text-align: center; margin-left: 20px;"">
              <p style=""font-size: 24px; font-weight: bold;"">Event 2</p>
              <img src=""images/causal/cat_care_semantic/cat_care_semantic_6.png"" style=""width: 300px; height: auto;"">
            </div>
          </div>
          <p style=""text-align: center; margin-top: 20px;"">Does Event 1 lead to Event 2?</p>","2","8","6","true"
"","","","","","html-button-response","32","693899","0.0-32.0","","5665","
          <div style=""display: flex; justify-content: center; align-items: center;"">
            <!-- Event 1 on the left -->
            <div style=""text-align: center; margin-right: 20px;"">
              <p style=""font-size: 24px; font-weight: bold;"">Event 1</p>
              <img src=""images/causal/cat_care_semantic/cat_care_semantic_5.png"" style=""width: 300px; height: auto;"">
            </div>
            <!-- Event 2 on the right -->
            <div style=""text-align: center; margin-left: 20px;"">
              <p style=""font-size: 24px; font-weight: bold;"">Event 2</p>
              <img src=""images/causal/cat_care_semantic/cat_care_semantic_1.png"" style=""width: 300px; height: auto;"">
            </div>
          </div>
          <p style=""text-align: center; margin-top: 20px;"">Does Event 1 lead to Event 2?</p>","2","5","1","true"
"","","","","","html-button-response","33","698948","0.0-33.0","","5049","
          <div style=""display: flex; justify-content: center; align-items: center;"">
            <!-- Event 1 on the left -->
            <div style=""text-align: center; margin-right: 20px;"">
              <p style=""font-size: 24px; font-weight: bold;"">Event 1</p>
              <img src=""images/causal/cat_care_semantic/cat_care_semantic_10.png"" style=""width: 300px; height: auto;"">
            </div>
            <!-- Event 2 on the right -->
            <div style=""text-align: center; margin-left: 20px;"">
              <p style=""font-size: 24px; font-weight: bold;"">Event 2</p>
              <img src=""images/causal/cat_care_semantic/cat_care_semantic_9.png"" style=""width: 300px; height: auto;"">
            </div>
          </div>
          <p style=""text-align: center; margin-top: 20px;"">Does Event 1 lead to Event 2?</p>","2","10","9","true"
"","","","","","html-button-response","34","705136","0.0-34.0","","6188","
          <div style=""display: flex; justify-content: center; align-items: center;"">
            <!-- Event 1 on the left -->
            <div style=""text-align: center; margin-right: 20px;"">
              <p style=""font-size: 24px; font-weight: bold;"">Event 1</p>
              <img src=""images/causal/cat_care_semantic/cat_care_semantic_6.png"" style=""width: 300px; height: auto;"">
            </div>
            <!-- Event 2 on the right -->
            <div style=""text-align: center; margin-left: 20px;"">
              <p style=""font-size: 24px; font-weight: bold;"">Event 2</p>
              <img src=""images/causal/cat_care_semantic/cat_care_semantic_10.png"" style=""width: 300px; height: auto;"">
            </div>
          </div>
          <p style=""text-align: center; margin-top: 20px;"">Does Event 1 lead to Event 2?</p>","1","6","10","true"
"","","","","","html-button-response","35","711596","0.0-35.0","","6459","
          <div style=""display: flex; justify-content: center; align-items: center;"">
            <!-- Event 1 on the left -->
            <div style=""text-align: center; margin-right: 20px;"">
              <p style=""font-size: 24px; font-weight: bold;"">Event 1</p>
              <img src=""images/causal/cat_care_semantic/cat_care_semantic_5.png"" style=""width: 300px; height: auto;"">
            </div>
            <!-- Event 2 on the right -->
            <div style=""text-align: center; margin-left: 20px;"">
              <p style=""font-size: 24px; font-weight: bold;"">Event 2</p>
              <img src=""images/causal/cat_care_semantic/cat_care_semantic_2.png"" style=""width: 300px; height: auto;"">
            </div>
          </div>
          <p style=""text-align: center; margin-top: 20px;"">Does Event 1 lead to Event 2?</p>","1","5","2","true"
"","","","","","html-button-response","36","716700","0.0-36.0","","5103","
          <div style=""display: flex; justify-content: center; align-items: center;"">
            <!-- Event 1 on the left -->
            <div style=""text-align: center; margin-right: 20px;"">
              <p style=""font-size: 24px; font-weight: bold;"">Event 1</p>
              <img src=""images/causal/cat_care_semantic/cat_care_semantic_6.png"" style=""width: 300px; height: auto;"">
            </div>
            <!-- Event 2 on the right -->
            <div style=""text-align: center; margin-left: 20px;"">
              <p style=""font-size: 24px; font-weight: bold;"">Event 2</p>
              <img src=""images/causal/cat_care_semantic/cat_care_semantic_9.png"" style=""width: 300px; height: auto;"">
            </div>
          </div>
          <p style=""text-align: center; margin-top: 20px;"">Does Event 1 lead to Event 2?</p>","2","6","9","true"
"","","","","","html-button-response","37","750524","0.0-37.0","","33823","
          <div style=""display: flex; justify-content: center; align-items: center;"">
            <!-- Event 1 on the left -->
            <div style=""text-align: center; margin-right: 20px;"">
              <p style=""font-size: 24px; font-weight: bold;"">Event 1</p>
              <img src=""images/causal/cat_care_semantic/cat_care_semantic_7.png"" style=""width: 300px; height: auto;"">
            </div>
            <!-- Event 2 on the right -->
            <div style=""text-align: center; margin-left: 20px;"">
              <p style=""font-size: 24px; font-weight: bold;"">Event 2</p>
              <img src=""images/causal/cat_care_semantic/cat_care_semantic_8.png"" style=""width: 300px; height: auto;"">
            </div>
          </div>
          <p style=""text-align: center; margin-top: 20px;"">Does Event 1 lead to Event 2?</p>","2","7","8","true"
"","","","","","html-button-response","38","810527","0.0-38.0","","null","
          <div style=""display: flex; justify-content: center; align-items: center;"">
            <!-- Event 1 on the left -->
            <div style=""text-align: center; margin-right: 20px;"">
              <p style=""font-size: 24px; font-weight: bold;"">Event 1</p>
              <img src=""images/causal/cat_care_semantic/cat_care_semantic_10.png"" style=""width: 300px; height: auto;"">
            </div>
            <!-- Event 2 on the right -->
            <div style=""text-align: center; margin-left: 20px;"">
              <p style=""font-size: 24px; font-weight: bold;"">Event 2</p>
              <img src=""images/causal/cat_care_semantic/cat_care_semantic_3.png"" style=""width: 300px; height: auto;"">
            </div>
          </div>
          <p style=""text-align: center; margin-top: 20px;"">Does Event 1 lead to Event 2?</p>","null","10","3","true"
"","","","","","html-button-response","39","870536","0.0-39.0","","null","
          <div style=""display: flex; justify-content: center; align-items: center;"">
            <!-- Event 1 on the left -->
            <div style=""text-align: center; margin-right: 20px;"">
              <p style=""font-size: 24px; font-weight: bold;"">Event 1</p>
              <img src=""images/causal/cat_care_semantic/cat_care_semantic_4.png"" style=""width: 300px; height: auto;"">
            </div>
            <!-- Event 2 on the right -->
            <div style=""text-align: center; margin-left: 20px;"">
              <p style=""font-size: 24px; font-weight: bold;"">Event 2</p>
              <img src=""images/causal/cat_care_semantic/cat_care_semantic_5.png"" style=""width: 300px; height: auto;"">
            </div>
          </div>
          <p style=""text-align: center; margin-top: 20px;"">Does Event 1 lead to Event 2?</p>","null","4","5","true"
"","","","","","html-button-response","40","929558","0.0-40.0","","59020","
          <div style=""display: flex; justify-content: center; align-items: center;"">
            <!-- Event 1 on the left -->
            <div style=""text-align: center; margin-right: 20px;"">
              <p style=""font-size: 24px; font-weight: bold;"">Event 1</p>
              <img src=""images/causal/cat_care_semantic/cat_care_semantic_8.png"" style=""width: 300px; height: auto;"">
            </div>
            <!-- Event 2 on the right -->
            <div style=""text-align: center; margin-left: 20px;"">
              <p style=""font-size: 24px; font-weight: bold;"">Event 2</p>
              <img src=""images/causal/cat_care_semantic/cat_care_semantic_4.png"" style=""width: 300px; height: auto;"">
            </div>
          </div>
          <p style=""text-align: center; margin-top: 20px;"">Does Event 1 lead to Event 2?</p>","1","8","4","true"
"","","","","","html-button-response","41","983127","0.0-41.0","","53569","
          <div style=""display: flex; justify-content: center; align-items: center;"">
            <!-- Event 1 on the left -->
            <div style=""text-align: center; margin-right: 20px;"">
              <p style=""font-size: 24px; font-weight: bold;"">Event 1</p>
              <img src=""images/causal/cat_care_semantic/cat_care_semantic_6.png"" style=""width: 300px; height: auto;"">
            </div>
            <!-- Event 2 on the right -->
            <div style=""text-align: center; margin-left: 20px;"">
              <p style=""font-size: 24px; font-weight: bold;"">Event 2</p>
              <img src=""images/causal/cat_care_semantic/cat_care_semantic_4.png"" style=""width: 300px; height: auto;"">
            </div>
          </div>
          <p style=""text-align: center; margin-top: 20px;"">Does Event 1 lead to Event 2?</p>","2","6","4","true"
"","","","","","html-button-response","42","996497","0.0-42.0","","13369","
          <div style=""display: flex; justify-content: center; align-items: center;"">
            <!-- Event 1 on the left -->
            <div style=""text-align: center; margin-right: 20px;"">
              <p style=""font-size: 24px; font-weight: bold;"">Event 1</p>
              <img src=""images/causal/cat_care_semantic/cat_care_semantic_5.png"" style=""width: 300px; height: auto;"">
            </div>
            <!-- Event 2 on the right -->
            <div style=""text-align: center; margin-left: 20px;"">
              <p style=""font-size: 24px; font-weight: bold;"">Event 2</p>
              <img src=""images/causal/cat_care_semantic/cat_care_semantic_3.png"" style=""width: 300px; height: auto;"">
            </div>
          </div>
          <p style=""text-align: center; margin-top: 20px;"">Does Event 1 lead to Event 2?</p>","2","5","3","true"
"","","","","","html-button-response","43","1041811","0.0-43.0","","45314","
          <div style=""display: flex; justify-content: center; align-items: center;"">
            <!-- Event 1 on the left -->
            <div style=""text-align: center; margin-right: 20px;"">
              <p style=""font-size: 24px; font-weight: bold;"">Event 1</p>
              <img src=""images/causal/cat_care_semantic/cat_care_semantic_7.png"" style=""width: 300px; height: auto;"">
            </div>
            <!-- Event 2 on the right -->
            <div style=""text-align: center; margin-left: 20px;"">
              <p style=""font-size: 24px; font-weight: bold;"">Event 2</p>
              <img src=""images/causal/cat_care_semantic/cat_care_semantic_5.png"" style=""width: 300px; height: auto;"">
            </div>
          </div>
          <p style=""text-align: center; margin-top: 20px;"">Does Event 1 lead to Event 2?</p>","2","7","5","true"
"","","","","","html-button-response","44","1048977","0.0-44.0","","7165","
          <div style=""display: flex; justify-content: center; align-items: center;"">
            <!-- Event 1 on the left -->
            <div style=""text-align: center; margin-right: 20px;"">
              <p style=""font-size: 24px; font-weight: bold;"">Event 1</p>
              <img src=""images/causal/cat_care_semantic/cat_care_semantic_9.png"" style=""width: 300px; height: auto;"">
            </div>
            <!-- Event 2 on the right -->
            <div style=""text-align: center; margin-left: 20px;"">
              <p style=""font-size: 24px; font-weight: bold;"">Event 2</p>
              <img src=""images/causal/cat_care_semantic/cat_care_semantic_8.png"" style=""width: 300px; height: auto;"">
            </div>
          </div>
          <p style=""text-align: center; margin-top: 20px;"">Does Event 1 lead to Event 2?</p>","0","9","8","true"
"","","","","","html-button-response","45","1054321","0.0-45.0","","5343","
          <div style=""display: flex; justify-content: center; align-items: center;"">
            <!-- Event 1 on the left -->
            <div style=""text-align: center; margin-right: 20px;"">
              <p style=""font-size: 24px; font-weight: bold;"">Event 1</p>
              <img src=""images/causal/cat_care_semantic/cat_care_semantic_4.png"" style=""width: 300px; height: auto;"">
            </div>
            <!-- Event 2 on the right -->
            <div style=""text-align: center; margin-left: 20px;"">
              <p style=""font-size: 24px; font-weight: bold;"">Event 2</p>
              <img src=""images/causal/cat_care_semantic/cat_care_semantic_9.png"" style=""width: 300px; height: auto;"">
            </div>
          </div>
          <p style=""text-align: center; margin-top: 20px;"">Does Event 1 lead to Event 2?</p>","2","4","9","true"
"","","","","","html-button-response","46","1073667","0.0-46.0","","19345","
          <div style=""display: flex; justify-content: center; align-items: center;"">
            <!-- Event 1 on the left -->
            <div style=""text-align: center; margin-right: 20px;"">
              <p style=""font-size: 24px; font-weight: bold;"">Event 1</p>
              <img src=""images/causal/cat_care_semantic/cat_care_semantic_2.png"" style=""width: 300px; height: auto;"">
            </div>
            <!-- Event 2 on the right -->
            <div style=""text-align: center; margin-left: 20px;"">
              <p style=""font-size: 24px; font-weight: bold;"">Event 2</p>
              <img src=""images/causal/cat_care_semantic/cat_care_semantic_1.png"" style=""width: 300px; height: auto;"">
            </div>
          </div>
          <p style=""text-align: center; margin-top: 20px;"">Does Event 1 lead to Event 2?</p>","2","2","1","true"
"","","","","","instructions","47","1086741","0.0-47.0","[{""page_index"":0,""viewing_time"":13073}]","13073","","","","",""
