"success","timeout","failed_images","failed_audio","failed_video","trial_type","trial_index","time_elapsed","internal_node_id","subject_id","study_id","session_id","view_history","rt","stimulus","response","choice"
"true","false","[]","[]","[]","preload","0","7379","0.0-0.0","A2305E4B93FA41C5844D0043E3542501","4ca2a0d1-069f-485e-8045-c2d17cf4e59a","5479079d-2186-49b2-89e2-e3afab6abcc2","","","","",""
"","","","","","instructions","1","12200","0.0-1.0","A2305E4B93FA41C5844D0043E3542501","4ca2a0d1-069f-485e-8045-c2d17cf4e59a","5479079d-2186-49b2-89e2-e3afab6abcc2","[{""page_index"":0,""viewing_time"":4819}]","4820","","",""
"","","","","","instructions","2","21341","0.0-2.0","A2305E4B93FA41C5844D0043E3542501","4ca2a0d1-069f-485e-8045-c2d17cf4e59a","5479079d-2186-49b2-89e2-e3afab6abcc2","[{""page_index"":0,""viewing_time"":9138}]","9138","","",""
"true","","","","","fullscreen","3","24768","0.0-3.0","A2305E4B93FA41C5844D0043E3542501","4ca2a0d1-069f-485e-8045-c2d17cf4e59a","5479079d-2186-49b2-89e2-e3afab6abcc2","","2419","","",""
"","","","","","instructions","4","44966","0.0-4.0","A2305E4B93FA41C5844D0043E3542501","4ca2a0d1-069f-485e-8045-c2d17cf4e59a","5479079d-2186-49b2-89e2-e3afab6abcc2","[{""page_index"":0,""viewing_time"":20197}]","20198","","",""
"","","","","","html-keyboard-response","5","47984","0.0-5.0","A2305E4B93FA41C5844D0043E3542501","4ca2a0d1-069f-485e-8045-c2d17cf4e59a","5479079d-2186-49b2-89e2-e3afab6abcc2","","null","<div style=""display: flex; justify-content: center; align-items: center;"">
                <img src=""images/causal/causal_series_16/causal_series_16_a.jpg"" style=""width: 300px; height: 300px;"" />
              </div>","null",""
"","","","","","html-keyboard-response","6","51002","0.0-6.0","A2305E4B93FA41C5844D0043E3542501","4ca2a0d1-069f-485e-8045-c2d17cf4e59a","5479079d-2186-49b2-89e2-e3afab6abcc2","","null","<div style=""display: flex; justify-content: center; align-items: center;"">
                <img src=""images/causal/causal_series_16/causal_series_16_b.jpg"" style=""width: 300px; height: 300px;"" />
              </div>","null",""
"","","","","","html-keyboard-response","7","54017","0.0-7.0","A2305E4B93FA41C5844D0043E3542501","4ca2a0d1-069f-485e-8045-c2d17cf4e59a","5479079d-2186-49b2-89e2-e3afab6abcc2","","null","<div style=""display: flex; justify-content: center; align-items: center;"">
                <img src=""images/causal/causal_series_16/causal_series_16_c.jpg"" style=""width: 300px; height: 300px;"" />
              </div>","null",""
"","","","","","html-button-response","8","59495","0.0-8.0","A2305E4B93FA41C5844D0043E3542501","4ca2a0d1-069f-485e-8045-c2d17cf4e59a","5479079d-2186-49b2-89e2-e3afab6abcc2","","5470","
    <div style=""display: flex; justify-content: center; align-items: center;"">
      <img src=""images/blue_deck_1.png"" style=""width: 300px; height: 300px; margin-right: 10px;"" />
      <img src=""images/red_deck_2.png"" style=""width: 300px; height: 300px;"" />
    </div>","1","1"
"","","","","","html-keyboard-response","9","62513","0.0-9.0-1.0-0.0","A2305E4B93FA41C5844D0043E3542501","4ca2a0d1-069f-485e-8045-c2d17cf4e59a","5479079d-2186-49b2-89e2-e3afab6abcc2","","null","<div style=""display: flex; justify-content: center; align-items: center;"">
                <img src=""images/semantic/semantic_series_16/semantic_series_16_d.jpg"" style=""width: 300px; height: 300px;"" />
              </div>","null",""
"","","","","","html-keyboard-response","10","65530","0.0-10.0","A2305E4B93FA41C5844D0043E3542501","4ca2a0d1-069f-485e-8045-c2d17cf4e59a","5479079d-2186-49b2-89e2-e3afab6abcc2","","null","<div style=""display: flex; justify-content: center; align-items: center;"">
                <img src=""images/other/blank.jpg"" style=""width: 300px; height: 300px;"" />
              </div>","null",""
"","","","","","html-keyboard-response","11","68534","0.0-11.0","A2305E4B93FA41C5844D0043E3542501","4ca2a0d1-069f-485e-8045-c2d17cf4e59a","5479079d-2186-49b2-89e2-e3afab6abcc2","","null","<div style=""display: flex; justify-content: center; align-items: center;"">
                <img src=""images/causal/causal_series_6/causal_series_6_a.jpg"" style=""width: 300px; height: 300px;"" />
              </div>","null",""
"","","","","","html-keyboard-response","12","71548","0.0-12.0","A2305E4B93FA41C5844D0043E3542501","4ca2a0d1-069f-485e-8045-c2d17cf4e59a","5479079d-2186-49b2-89e2-e3afab6abcc2","","null","<div style=""display: flex; justify-content: center; align-items: center;"">
                <img src=""images/causal/causal_series_6/causal_series_6_b.jpg"" style=""width: 300px; height: 300px;"" />
              </div>","null",""
"","","","","","html-keyboard-response","13","74556","0.0-13.0","A2305E4B93FA41C5844D0043E3542501","4ca2a0d1-069f-485e-8045-c2d17cf4e59a","5479079d-2186-49b2-89e2-e3afab6abcc2","","null","<div style=""display: flex; justify-content: center; align-items: center;"">
                <img src=""images/causal/causal_series_6/causal_series_6_c.jpg"" style=""width: 300px; height: 300px;"" />
              </div>","null",""
"","","","","","html-button-response","14","77548","0.0-14.0","A2305E4B93FA41C5844D0043E3542501","4ca2a0d1-069f-485e-8045-c2d17cf4e59a","5479079d-2186-49b2-89e2-e3afab6abcc2","","2988","
    <div style=""display: flex; justify-content: center; align-items: center;"">
      <img src=""images/blue_deck_1.png"" style=""width: 300px; height: 300px; margin-right: 10px;"" />
      <img src=""images/red_deck_2.png"" style=""width: 300px; height: 300px;"" />
    </div>","0","0"
"","","","","","html-keyboard-response","15","80555","0.0-15.0-0.0-0.0","A2305E4B93FA41C5844D0043E3542501","4ca2a0d1-069f-485e-8045-c2d17cf4e59a","5479079d-2186-49b2-89e2-e3afab6abcc2","","null","<div style=""display: flex; justify-content: center; align-items: center;"">
                <img src=""images/causal/causal_series_6/causal_series_6_d.jpg"" style=""width: 300px; height: 300px;"" />
              </div>","null",""
"","","","","","html-keyboard-response","16","83563","0.0-16.0","A2305E4B93FA41C5844D0043E3542501","4ca2a0d1-069f-485e-8045-c2d17cf4e59a","5479079d-2186-49b2-89e2-e3afab6abcc2","","null","<div style=""display: flex; justify-content: center; align-items: center;"">
                <img src=""images/other/blank.jpg"" style=""width: 300px; height: 300px;"" />
              </div>","null",""
"","","","","","html-keyboard-response","17","86578","0.0-17.0","A2305E4B93FA41C5844D0043E3542501","4ca2a0d1-069f-485e-8045-c2d17cf4e59a","5479079d-2186-49b2-89e2-e3afab6abcc2","","null","<div style=""display: flex; justify-content: center; align-items: center;"">
                <img src=""images/causal/causal_series_5/causal_series_5_a.jpg"" style=""width: 300px; height: 300px;"" />
              </div>","null",""
"","","","","","html-keyboard-response","18","89594","0.0-18.0","A2305E4B93FA41C5844D0043E3542501","4ca2a0d1-069f-485e-8045-c2d17cf4e59a","5479079d-2186-49b2-89e2-e3afab6abcc2","","null","<div style=""display: flex; justify-content: center; align-items: center;"">
                <img src=""images/causal/causal_series_5/causal_series_5_b.jpg"" style=""width: 300px; height: 300px;"" />
              </div>","null",""
"","","","","","html-keyboard-response","19","92610","0.0-19.0","A2305E4B93FA41C5844D0043E3542501","4ca2a0d1-069f-485e-8045-c2d17cf4e59a","5479079d-2186-49b2-89e2-e3afab6abcc2","","null","<div style=""display: flex; justify-content: center; align-items: center;"">
                <img src=""images/causal/causal_series_5/causal_series_5_c.jpg"" style=""width: 300px; height: 300px;"" />
              </div>","null",""
"","","","","","html-button-response","20","94194","0.0-20.0","A2305E4B93FA41C5844D0043E3542501","4ca2a0d1-069f-485e-8045-c2d17cf4e59a","5479079d-2186-49b2-89e2-e3afab6abcc2","","1582","
    <div style=""display: flex; justify-content: center; align-items: center;"">
      <img src=""images/blue_deck_1.png"" style=""width: 300px; height: 300px; margin-right: 10px;"" />
      <img src=""images/red_deck_2.png"" style=""width: 300px; height: 300px;"" />
    </div>","1","1"
"","","","","","html-keyboard-response","21","97199","0.0-21.0-1.0-0.0","A2305E4B93FA41C5844D0043E3542501","4ca2a0d1-069f-485e-8045-c2d17cf4e59a","5479079d-2186-49b2-89e2-e3afab6abcc2","","null","<div style=""display: flex; justify-content: center; align-items: center;"">
                <img src=""images/semantic/semantic_series_5/semantic_series_5_d.jpg"" style=""width: 300px; height: 300px;"" />
              </div>","null",""
"","","","","","html-keyboard-response","22","100203","0.0-22.0","A2305E4B93FA41C5844D0043E3542501","4ca2a0d1-069f-485e-8045-c2d17cf4e59a","5479079d-2186-49b2-89e2-e3afab6abcc2","","null","<div style=""display: flex; justify-content: center; align-items: center;"">
                <img src=""images/other/blank.jpg"" style=""width: 300px; height: 300px;"" />
              </div>","null",""
"","","","","","html-keyboard-response","23","103206","0.0-23.0","A2305E4B93FA41C5844D0043E3542501","4ca2a0d1-069f-485e-8045-c2d17cf4e59a","5479079d-2186-49b2-89e2-e3afab6abcc2","","null","<div style=""display: flex; justify-content: center; align-items: center;"">
                <img src=""images/causal/causal_series_13/causal_series_13_a.jpg"" style=""width: 300px; height: 300px;"" />
              </div>","null",""
"","","","","","html-keyboard-response","24","106213","0.0-24.0","A2305E4B93FA41C5844D0043E3542501","4ca2a0d1-069f-485e-8045-c2d17cf4e59a","5479079d-2186-49b2-89e2-e3afab6abcc2","","null","<div style=""display: flex; justify-content: center; align-items: center;"">
                <img src=""images/causal/causal_series_13/causal_series_13_b.jpg"" style=""width: 300px; height: 300px;"" />
              </div>","null",""
"","","","","","html-keyboard-response","25","109221","0.0-25.0","A2305E4B93FA41C5844D0043E3542501","4ca2a0d1-069f-485e-8045-c2d17cf4e59a","5479079d-2186-49b2-89e2-e3afab6abcc2","","null","<div style=""display: flex; justify-content: center; align-items: center;"">
                <img src=""images/causal/causal_series_13/causal_series_13_c.jpg"" style=""width: 300px; height: 300px;"" />
              </div>","null",""
"","","","","","html-button-response","26","111253","0.0-26.0","A2305E4B93FA41C5844D0043E3542501","4ca2a0d1-069f-485e-8045-c2d17cf4e59a","5479079d-2186-49b2-89e2-e3afab6abcc2","","2027","
    <div style=""display: flex; justify-content: center; align-items: center;"">
      <img src=""images/blue_deck_1.png"" style=""width: 300px; height: 300px; margin-right: 10px;"" />
      <img src=""images/red_deck_2.png"" style=""width: 300px; height: 300px;"" />
    </div>","1","1"
"","","","","","html-keyboard-response","27","114262","0.0-27.0-1.0-0.0","A2305E4B93FA41C5844D0043E3542501","4ca2a0d1-069f-485e-8045-c2d17cf4e59a","5479079d-2186-49b2-89e2-e3afab6abcc2","","null","<div style=""display: flex; justify-content: center; align-items: center;"">
                <img src=""images/semantic/semantic_series_13/semantic_series_13_d.jpg"" style=""width: 300px; height: 300px;"" />
              </div>","null",""
"","","","","","html-keyboard-response","28","117276","0.0-28.0","A2305E4B93FA41C5844D0043E3542501","4ca2a0d1-069f-485e-8045-c2d17cf4e59a","5479079d-2186-49b2-89e2-e3afab6abcc2","","null","<div style=""display: flex; justify-content: center; align-items: center;"">
                <img src=""images/other/blank.jpg"" style=""width: 300px; height: 300px;"" />
              </div>","null",""
"","","","","","html-keyboard-response","29","120291","0.0-29.0","A2305E4B93FA41C5844D0043E3542501","4ca2a0d1-069f-485e-8045-c2d17cf4e59a","5479079d-2186-49b2-89e2-e3afab6abcc2","","null","<div style=""display: flex; justify-content: center; align-items: center;"">
                <img src=""images/causal/causal_series_12/causal_series_12_a.jpg"" style=""width: 300px; height: 300px;"" />
              </div>","null",""
"","","","","","html-keyboard-response","30","123309","0.0-30.0","A2305E4B93FA41C5844D0043E3542501","4ca2a0d1-069f-485e-8045-c2d17cf4e59a","5479079d-2186-49b2-89e2-e3afab6abcc2","","null","<div style=""display: flex; justify-content: center; align-items: center;"">
                <img src=""images/causal/causal_series_12/causal_series_12_b.jpg"" style=""width: 300px; height: 300px;"" />
              </div>","null",""
"","","","","","html-keyboard-response","31","126325","0.0-31.0","A2305E4B93FA41C5844D0043E3542501","4ca2a0d1-069f-485e-8045-c2d17cf4e59a","5479079d-2186-49b2-89e2-e3afab6abcc2","","null","<div style=""display: flex; justify-content: center; align-items: center;"">
                <img src=""images/causal/causal_series_12/causal_series_12_c.jpg"" style=""width: 300px; height: 300px;"" />
              </div>","null",""
"","","","","","html-button-response","32","128356","0.0-32.0","A2305E4B93FA41C5844D0043E3542501","4ca2a0d1-069f-485e-8045-c2d17cf4e59a","5479079d-2186-49b2-89e2-e3afab6abcc2","","2026","
    <div style=""display: flex; justify-content: center; align-items: center;"">
      <img src=""images/blue_deck_1.png"" style=""width: 300px; height: 300px; margin-right: 10px;"" />
      <img src=""images/red_deck_2.png"" style=""width: 300px; height: 300px;"" />
    </div>","0","0"
"","","","","","html-keyboard-response","33","131369","0.0-33.0-0.0-0.0","A2305E4B93FA41C5844D0043E3542501","4ca2a0d1-069f-485e-8045-c2d17cf4e59a","5479079d-2186-49b2-89e2-e3afab6abcc2","","null","<div style=""display: flex; justify-content: center; align-items: center;"">
                <img src=""images/causal/causal_series_12/causal_series_12_d.jpg"" style=""width: 300px; height: 300px;"" />
              </div>","null",""
"","","","","","html-keyboard-response","34","134387","0.0-34.0","A2305E4B93FA41C5844D0043E3542501","4ca2a0d1-069f-485e-8045-c2d17cf4e59a","5479079d-2186-49b2-89e2-e3afab6abcc2","","null","<div style=""display: flex; justify-content: center; align-items: center;"">
                <img src=""images/other/blank.jpg"" style=""width: 300px; height: 300px;"" />
              </div>","null",""
"","","","","","html-keyboard-response","35","137404","0.0-35.0","A2305E4B93FA41C5844D0043E3542501","4ca2a0d1-069f-485e-8045-c2d17cf4e59a","5479079d-2186-49b2-89e2-e3afab6abcc2","","null","<div style=""display: flex; justify-content: center; align-items: center;"">
                <img src=""images/causal/causal_series_1/causal_series_1_a.jpg"" style=""width: 300px; height: 300px;"" />
              </div>","null",""
"","","","","","html-keyboard-response","36","140414","0.0-36.0","A2305E4B93FA41C5844D0043E3542501","4ca2a0d1-069f-485e-8045-c2d17cf4e59a","5479079d-2186-49b2-89e2-e3afab6abcc2","","null","<div style=""display: flex; justify-content: center; align-items: center;"">
                <img src=""images/causal/causal_series_1/causal_series_1_b.jpg"" style=""width: 300px; height: 300px;"" />
              </div>","null",""
"","","","","","html-keyboard-response","37","143429","0.0-37.0","A2305E4B93FA41C5844D0043E3542501","4ca2a0d1-069f-485e-8045-c2d17cf4e59a","5479079d-2186-49b2-89e2-e3afab6abcc2","","null","<div style=""display: flex; justify-content: center; align-items: center;"">
                <img src=""images/causal/causal_series_1/causal_series_1_c.jpg"" style=""width: 300px; height: 300px;"" />
              </div>","null",""
"","","","","","html-button-response","38","145692","0.0-38.0","A2305E4B93FA41C5844D0043E3542501","4ca2a0d1-069f-485e-8045-c2d17cf4e59a","5479079d-2186-49b2-89e2-e3afab6abcc2","","2260","
    <div style=""display: flex; justify-content: center; align-items: center;"">
      <img src=""images/blue_deck_1.png"" style=""width: 300px; height: 300px; margin-right: 10px;"" />
      <img src=""images/red_deck_2.png"" style=""width: 300px; height: 300px;"" />
    </div>","0","0"
"","","","","","html-keyboard-response","39","148700","0.0-39.0-0.0-0.0","A2305E4B93FA41C5844D0043E3542501","4ca2a0d1-069f-485e-8045-c2d17cf4e59a","5479079d-2186-49b2-89e2-e3afab6abcc2","","null","<div style=""display: flex; justify-content: center; align-items: center;"">
                <img src=""images/causal/causal_series_1/causal_series_1_d.jpg"" style=""width: 300px; height: 300px;"" />
              </div>","null",""
"","","","","","html-keyboard-response","40","151710","0.0-40.0","A2305E4B93FA41C5844D0043E3542501","4ca2a0d1-069f-485e-8045-c2d17cf4e59a","5479079d-2186-49b2-89e2-e3afab6abcc2","","null","<div style=""display: flex; justify-content: center; align-items: center;"">
                <img src=""images/other/blank.jpg"" style=""width: 300px; height: 300px;"" />
              </div>","null",""
"","","","","","html-keyboard-response","41","154714","0.0-41.0","A2305E4B93FA41C5844D0043E3542501","4ca2a0d1-069f-485e-8045-c2d17cf4e59a","5479079d-2186-49b2-89e2-e3afab6abcc2","","null","<div style=""display: flex; justify-content: center; align-items: center;"">
                <img src=""images/causal/causal_series_8/causal_series_8_a.jpg"" style=""width: 300px; height: 300px;"" />
              </div>","null",""
"","","","","","html-keyboard-response","42","157718","0.0-42.0","A2305E4B93FA41C5844D0043E3542501","4ca2a0d1-069f-485e-8045-c2d17cf4e59a","5479079d-2186-49b2-89e2-e3afab6abcc2","","null","<div style=""display: flex; justify-content: center; align-items: center;"">
                <img src=""images/causal/causal_series_8/causal_series_8_b.jpg"" style=""width: 300px; height: 300px;"" />
              </div>","null",""
"","","","","","html-keyboard-response","43","160721","0.0-43.0","A2305E4B93FA41C5844D0043E3542501","4ca2a0d1-069f-485e-8045-c2d17cf4e59a","5479079d-2186-49b2-89e2-e3afab6abcc2","","null","<div style=""display: flex; justify-content: center; align-items: center;"">
                <img src=""images/causal/causal_series_8/causal_series_8_c.jpg"" style=""width: 300px; height: 300px;"" />
              </div>","null",""
"","","","","","html-button-response","44","163454","0.0-44.0","A2305E4B93FA41C5844D0043E3542501","4ca2a0d1-069f-485e-8045-c2d17cf4e59a","5479079d-2186-49b2-89e2-e3afab6abcc2","","2729","
    <div style=""display: flex; justify-content: center; align-items: center;"">
      <img src=""images/blue_deck_1.png"" style=""width: 300px; height: 300px; margin-right: 10px;"" />
      <img src=""images/red_deck_2.png"" style=""width: 300px; height: 300px;"" />
    </div>","1","1"
"","","","","","html-keyboard-response","45","166464","0.0-45.0-1.0-0.0","A2305E4B93FA41C5844D0043E3542501","4ca2a0d1-069f-485e-8045-c2d17cf4e59a","5479079d-2186-49b2-89e2-e3afab6abcc2","","null","<div style=""display: flex; justify-content: center; align-items: center;"">
                <img src=""images/semantic/semantic_series_8/semantic_series_8_d.jpg"" style=""width: 300px; height: 300px;"" />
              </div>","null",""
"","","","","","html-keyboard-response","46","169468","0.0-46.0","A2305E4B93FA41C5844D0043E3542501","4ca2a0d1-069f-485e-8045-c2d17cf4e59a","5479079d-2186-49b2-89e2-e3afab6abcc2","","null","<div style=""display: flex; justify-content: center; align-items: center;"">
                <img src=""images/other/blank.jpg"" style=""width: 300px; height: 300px;"" />
              </div>","null",""
"","","","","","html-keyboard-response","47","172474","0.0-47.0","A2305E4B93FA41C5844D0043E3542501","4ca2a0d1-069f-485e-8045-c2d17cf4e59a","5479079d-2186-49b2-89e2-e3afab6abcc2","","null","<div style=""display: flex; justify-content: center; align-items: center;"">
                <img src=""images/causal/causal_series_2/causal_series_2_a.jpg"" style=""width: 300px; height: 300px;"" />
              </div>","null",""
"","","","","","html-keyboard-response","48","175482","0.0-48.0","A2305E4B93FA41C5844D0043E3542501","4ca2a0d1-069f-485e-8045-c2d17cf4e59a","5479079d-2186-49b2-89e2-e3afab6abcc2","","null","<div style=""display: flex; justify-content: center; align-items: center;"">
                <img src=""images/causal/causal_series_2/causal_series_2_b.jpg"" style=""width: 300px; height: 300px;"" />
              </div>","null",""
"","","","","","html-keyboard-response","49","178495","0.0-49.0","A2305E4B93FA41C5844D0043E3542501","4ca2a0d1-069f-485e-8045-c2d17cf4e59a","5479079d-2186-49b2-89e2-e3afab6abcc2","","null","<div style=""display: flex; justify-content: center; align-items: center;"">
                <img src=""images/causal/causal_series_2/causal_series_2_c.jpg"" style=""width: 300px; height: 300px;"" />
              </div>","null",""
"","","","","","html-button-response","50","181221","0.0-50.0","A2305E4B93FA41C5844D0043E3542501","4ca2a0d1-069f-485e-8045-c2d17cf4e59a","5479079d-2186-49b2-89e2-e3afab6abcc2","","2724","
    <div style=""display: flex; justify-content: center; align-items: center;"">
      <img src=""images/blue_deck_1.png"" style=""width: 300px; height: 300px; margin-right: 10px;"" />
      <img src=""images/red_deck_2.png"" style=""width: 300px; height: 300px;"" />
    </div>","0","0"
"","","","","","html-keyboard-response","51","184230","0.0-51.0-0.0-0.0","A2305E4B93FA41C5844D0043E3542501","4ca2a0d1-069f-485e-8045-c2d17cf4e59a","5479079d-2186-49b2-89e2-e3afab6abcc2","","null","<div style=""display: flex; justify-content: center; align-items: center;"">
                <img src=""images/causal/causal_series_2/causal_series_2_d.jpg"" style=""width: 300px; height: 300px;"" />
              </div>","null",""
"","","","","","html-keyboard-response","52","187240","0.0-52.0","A2305E4B93FA41C5844D0043E3542501","4ca2a0d1-069f-485e-8045-c2d17cf4e59a","5479079d-2186-49b2-89e2-e3afab6abcc2","","null","<div style=""display: flex; justify-content: center; align-items: center;"">
                <img src=""images/other/blank.jpg"" style=""width: 300px; height: 300px;"" />
              </div>","null",""
"","","","","","html-keyboard-response","53","190244","0.0-53.0","A2305E4B93FA41C5844D0043E3542501","4ca2a0d1-069f-485e-8045-c2d17cf4e59a","5479079d-2186-49b2-89e2-e3afab6abcc2","","null","<div style=""display: flex; justify-content: center; align-items: center;"">
                <img src=""images/causal/causal_series_9/causal_series_9_a.jpg"" style=""width: 300px; height: 300px;"" />
              </div>","null",""
"","","","","","html-keyboard-response","54","193256","0.0-54.0","A2305E4B93FA41C5844D0043E3542501","4ca2a0d1-069f-485e-8045-c2d17cf4e59a","5479079d-2186-49b2-89e2-e3afab6abcc2","","null","<div style=""display: flex; justify-content: center; align-items: center;"">
                <img src=""images/causal/causal_series_9/causal_series_9_b.jpg"" style=""width: 300px; height: 300px;"" />
              </div>","null",""
"","","","","","html-keyboard-response","55","196273","0.0-55.0","A2305E4B93FA41C5844D0043E3542501","4ca2a0d1-069f-485e-8045-c2d17cf4e59a","5479079d-2186-49b2-89e2-e3afab6abcc2","","null","<div style=""display: flex; justify-content: center; align-items: center;"">
                <img src=""images/causal/causal_series_9/causal_series_9_c.jpg"" style=""width: 300px; height: 300px;"" />
              </div>","null",""
"","","","","","html-button-response","56","199161","0.0-56.0","A2305E4B93FA41C5844D0043E3542501","4ca2a0d1-069f-485e-8045-c2d17cf4e59a","5479079d-2186-49b2-89e2-e3afab6abcc2","","2886","
    <div style=""display: flex; justify-content: center; align-items: center;"">
      <img src=""images/blue_deck_1.png"" style=""width: 300px; height: 300px; margin-right: 10px;"" />
      <img src=""images/red_deck_2.png"" style=""width: 300px; height: 300px;"" />
    </div>","1","1"
"","","","","","html-keyboard-response","57","202169","0.0-57.0-1.0-0.0","A2305E4B93FA41C5844D0043E3542501","4ca2a0d1-069f-485e-8045-c2d17cf4e59a","5479079d-2186-49b2-89e2-e3afab6abcc2","","null","<div style=""display: flex; justify-content: center; align-items: center;"">
                <img src=""images/semantic/semantic_series_9/semantic_series_9_d.jpg"" style=""width: 300px; height: 300px;"" />
              </div>","null",""
"","","","","","html-keyboard-response","58","205173","0.0-58.0","A2305E4B93FA41C5844D0043E3542501","4ca2a0d1-069f-485e-8045-c2d17cf4e59a","5479079d-2186-49b2-89e2-e3afab6abcc2","","null","<div style=""display: flex; justify-content: center; align-items: center;"">
                <img src=""images/other/blank.jpg"" style=""width: 300px; height: 300px;"" />
              </div>","null",""
"","","","","","html-keyboard-response","59","208179","0.0-59.0","A2305E4B93FA41C5844D0043E3542501","4ca2a0d1-069f-485e-8045-c2d17cf4e59a","5479079d-2186-49b2-89e2-e3afab6abcc2","","null","<div style=""display: flex; justify-content: center; align-items: center;"">
                <img src=""images/causal/causal_series_17/causal_series_17_a.jpg"" style=""width: 300px; height: 300px;"" />
              </div>","null",""
"","","","","","html-keyboard-response","60","211190","0.0-60.0","A2305E4B93FA41C5844D0043E3542501","4ca2a0d1-069f-485e-8045-c2d17cf4e59a","5479079d-2186-49b2-89e2-e3afab6abcc2","","null","<div style=""display: flex; justify-content: center; align-items: center;"">
                <img src=""images/causal/causal_series_17/causal_series_17_b.jpg"" style=""width: 300px; height: 300px;"" />
              </div>","null",""
"","","","","","html-keyboard-response","61","214197","0.0-61.0","A2305E4B93FA41C5844D0043E3542501","4ca2a0d1-069f-485e-8045-c2d17cf4e59a","5479079d-2186-49b2-89e2-e3afab6abcc2","","null","<div style=""display: flex; justify-content: center; align-items: center;"">
                <img src=""images/causal/causal_series_17/causal_series_17_c.jpg"" style=""width: 300px; height: 300px;"" />
              </div>","null",""
"","","","","","html-button-response","62","216617","0.0-62.0","A2305E4B93FA41C5844D0043E3542501","4ca2a0d1-069f-485e-8045-c2d17cf4e59a","5479079d-2186-49b2-89e2-e3afab6abcc2","","2414","
    <div style=""display: flex; justify-content: center; align-items: center;"">
      <img src=""images/blue_deck_1.png"" style=""width: 300px; height: 300px; margin-right: 10px;"" />
      <img src=""images/red_deck_2.png"" style=""width: 300px; height: 300px;"" />
    </div>","0","0"
"","","","","","html-keyboard-response","63","219625","0.0-63.0-0.0-0.0","A2305E4B93FA41C5844D0043E3542501","4ca2a0d1-069f-485e-8045-c2d17cf4e59a","5479079d-2186-49b2-89e2-e3afab6abcc2","","null","<div style=""display: flex; justify-content: center; align-items: center;"">
                <img src=""images/causal/causal_series_17/causal_series_17_d.jpg"" style=""width: 300px; height: 300px;"" />
              </div>","null",""
"","","","","","html-keyboard-response","64","222639","0.0-64.0","A2305E4B93FA41C5844D0043E3542501","4ca2a0d1-069f-485e-8045-c2d17cf4e59a","5479079d-2186-49b2-89e2-e3afab6abcc2","","null","<div style=""display: flex; justify-content: center; align-items: center;"">
                <img src=""images/other/blank.jpg"" style=""width: 300px; height: 300px;"" />
              </div>","null",""
"","","","","","html-keyboard-response","65","225653","0.0-65.0","A2305E4B93FA41C5844D0043E3542501","4ca2a0d1-069f-485e-8045-c2d17cf4e59a","5479079d-2186-49b2-89e2-e3afab6abcc2","","null","<div style=""display: flex; justify-content: center; align-items: center;"">
                <img src=""images/causal/causal_series_18/causal_series_18_a.jpg"" style=""width: 300px; height: 300px;"" />
              </div>","null",""
"","","","","","html-keyboard-response","66","228668","0.0-66.0","A2305E4B93FA41C5844D0043E3542501","4ca2a0d1-069f-485e-8045-c2d17cf4e59a","5479079d-2186-49b2-89e2-e3afab6abcc2","","null","<div style=""display: flex; justify-content: center; align-items: center;"">
                <img src=""images/causal/causal_series_18/causal_series_18_b.jpg"" style=""width: 300px; height: 300px;"" />
              </div>","null",""
"","","","","","html-keyboard-response","67","231670","0.0-67.0","A2305E4B93FA41C5844D0043E3542501","4ca2a0d1-069f-485e-8045-c2d17cf4e59a","5479079d-2186-49b2-89e2-e3afab6abcc2","","null","<div style=""display: flex; justify-content: center; align-items: center;"">
                <img src=""images/causal/causal_series_18/causal_series_18_c.jpg"" style=""width: 300px; height: 300px;"" />
              </div>","null",""
"","","","","","html-button-response","68","234043","0.0-68.0","A2305E4B93FA41C5844D0043E3542501","4ca2a0d1-069f-485e-8045-c2d17cf4e59a","5479079d-2186-49b2-89e2-e3afab6abcc2","","2368","
    <div style=""display: flex; justify-content: center; align-items: center;"">
      <img src=""images/blue_deck_1.png"" style=""width: 300px; height: 300px; margin-right: 10px;"" />
      <img src=""images/red_deck_2.png"" style=""width: 300px; height: 300px;"" />
    </div>","1","1"
"","","","","","html-keyboard-response","69","237054","0.0-69.0-1.0-0.0","A2305E4B93FA41C5844D0043E3542501","4ca2a0d1-069f-485e-8045-c2d17cf4e59a","5479079d-2186-49b2-89e2-e3afab6abcc2","","null","<div style=""display: flex; justify-content: center; align-items: center;"">
                <img src=""images/semantic/semantic_series_18/semantic_series_18_d.jpg"" style=""width: 300px; height: 300px;"" />
              </div>","null",""
"","","","","","html-keyboard-response","70","240059","0.0-70.0","A2305E4B93FA41C5844D0043E3542501","4ca2a0d1-069f-485e-8045-c2d17cf4e59a","5479079d-2186-49b2-89e2-e3afab6abcc2","","null","<div style=""display: flex; justify-content: center; align-items: center;"">
                <img src=""images/other/blank.jpg"" style=""width: 300px; height: 300px;"" />
              </div>","null",""
"","","","","","html-keyboard-response","71","243065","0.0-71.0","A2305E4B93FA41C5844D0043E3542501","4ca2a0d1-069f-485e-8045-c2d17cf4e59a","5479079d-2186-49b2-89e2-e3afab6abcc2","","null","<div style=""display: flex; justify-content: center; align-items: center;"">
                <img src=""images/causal/causal_series_4/causal_series_4_a.jpg"" style=""width: 300px; height: 300px;"" />
              </div>","null",""
"","","","","","html-keyboard-response","72","246078","0.0-72.0","A2305E4B93FA41C5844D0043E3542501","4ca2a0d1-069f-485e-8045-c2d17cf4e59a","5479079d-2186-49b2-89e2-e3afab6abcc2","","null","<div style=""display: flex; justify-content: center; align-items: center;"">
                <img src=""images/causal/causal_series_4/causal_series_4_b.jpg"" style=""width: 300px; height: 300px;"" />
              </div>","null",""
"","","","","","html-keyboard-response","73","249094","0.0-73.0","A2305E4B93FA41C5844D0043E3542501","4ca2a0d1-069f-485e-8045-c2d17cf4e59a","5479079d-2186-49b2-89e2-e3afab6abcc2","","null","<div style=""display: flex; justify-content: center; align-items: center;"">
                <img src=""images/causal/causal_series_4/causal_series_4_c.jpg"" style=""width: 300px; height: 300px;"" />
              </div>","null",""
"","","","","","html-button-response","74","252956","0.0-74.0","A2305E4B93FA41C5844D0043E3542501","4ca2a0d1-069f-485e-8045-c2d17cf4e59a","5479079d-2186-49b2-89e2-e3afab6abcc2","","3861","
    <div style=""display: flex; justify-content: center; align-items: center;"">
      <img src=""images/blue_deck_1.png"" style=""width: 300px; height: 300px; margin-right: 10px;"" />
      <img src=""images/red_deck_2.png"" style=""width: 300px; height: 300px;"" />
    </div>","1","1"
"","","","","","html-keyboard-response","75","255961","0.0-75.0-1.0-0.0","A2305E4B93FA41C5844D0043E3542501","4ca2a0d1-069f-485e-8045-c2d17cf4e59a","5479079d-2186-49b2-89e2-e3afab6abcc2","","null","<div style=""display: flex; justify-content: center; align-items: center;"">
                <img src=""images/semantic/semantic_series_4/semantic_series_4_d.jpg"" style=""width: 300px; height: 300px;"" />
              </div>","null",""
"","","","","","html-keyboard-response","76","258977","0.0-76.0","A2305E4B93FA41C5844D0043E3542501","4ca2a0d1-069f-485e-8045-c2d17cf4e59a","5479079d-2186-49b2-89e2-e3afab6abcc2","","null","<div style=""display: flex; justify-content: center; align-items: center;"">
                <img src=""images/other/blank.jpg"" style=""width: 300px; height: 300px;"" />
              </div>","null",""
"","","","","","html-keyboard-response","77","261989","0.0-77.0","A2305E4B93FA41C5844D0043E3542501","4ca2a0d1-069f-485e-8045-c2d17cf4e59a","5479079d-2186-49b2-89e2-e3afab6abcc2","","null","<div style=""display: flex; justify-content: center; align-items: center;"">
                <img src=""images/causal/causal_series_10/causal_series_10_a.jpg"" style=""width: 300px; height: 300px;"" />
              </div>","null",""
"","","","","","html-keyboard-response","78","264993","0.0-78.0","A2305E4B93FA41C5844D0043E3542501","4ca2a0d1-069f-485e-8045-c2d17cf4e59a","5479079d-2186-49b2-89e2-e3afab6abcc2","","null","<div style=""display: flex; justify-content: center; align-items: center;"">
                <img src=""images/causal/causal_series_10/causal_series_10_b.jpg"" style=""width: 300px; height: 300px;"" />
              </div>","null",""
"","","","","","html-keyboard-response","79","268009","0.0-79.0","A2305E4B93FA41C5844D0043E3542501","4ca2a0d1-069f-485e-8045-c2d17cf4e59a","5479079d-2186-49b2-89e2-e3afab6abcc2","","null","<div style=""display: flex; justify-content: center; align-items: center;"">
                <img src=""images/causal/causal_series_10/causal_series_10_c.jpg"" style=""width: 300px; height: 300px;"" />
              </div>","null",""
"","","","","","html-button-response","80","273127","0.0-80.0","A2305E4B93FA41C5844D0043E3542501","4ca2a0d1-069f-485e-8045-c2d17cf4e59a","5479079d-2186-49b2-89e2-e3afab6abcc2","","5116","
    <div style=""display: flex; justify-content: center; align-items: center;"">
      <img src=""images/blue_deck_1.png"" style=""width: 300px; height: 300px; margin-right: 10px;"" />
      <img src=""images/red_deck_2.png"" style=""width: 300px; height: 300px;"" />
    </div>","0","0"
"","","","","","html-keyboard-response","81","276147","0.0-81.0-0.0-0.0","A2305E4B93FA41C5844D0043E3542501","4ca2a0d1-069f-485e-8045-c2d17cf4e59a","5479079d-2186-49b2-89e2-e3afab6abcc2","","null","<div style=""display: flex; justify-content: center; align-items: center;"">
                <img src=""images/causal/causal_series_10/causal_series_10_d.jpg"" style=""width: 300px; height: 300px;"" />
              </div>","null",""
"","","","","","html-keyboard-response","82","279151","0.0-82.0","A2305E4B93FA41C5844D0043E3542501","4ca2a0d1-069f-485e-8045-c2d17cf4e59a","5479079d-2186-49b2-89e2-e3afab6abcc2","","null","<div style=""display: flex; justify-content: center; align-items: center;"">
                <img src=""images/other/blank.jpg"" style=""width: 300px; height: 300px;"" />
              </div>","null",""
"","","","","","html-keyboard-response","83","282156","0.0-83.0","A2305E4B93FA41C5844D0043E3542501","4ca2a0d1-069f-485e-8045-c2d17cf4e59a","5479079d-2186-49b2-89e2-e3afab6abcc2","","null","<div style=""display: flex; justify-content: center; align-items: center;"">
                <img src=""images/causal/causal_series_15/causal_series_15_a.jpg"" style=""width: 300px; height: 300px;"" />
              </div>","null",""
"","","","","","html-keyboard-response","84","285161","0.0-84.0","A2305E4B93FA41C5844D0043E3542501","4ca2a0d1-069f-485e-8045-c2d17cf4e59a","5479079d-2186-49b2-89e2-e3afab6abcc2","","null","<div style=""display: flex; justify-content: center; align-items: center;"">
                <img src=""images/causal/causal_series_15/causal_series_15_b.jpg"" style=""width: 300px; height: 300px;"" />
              </div>","null",""
"","","","","","html-keyboard-response","85","288170","0.0-85.0","A2305E4B93FA41C5844D0043E3542501","4ca2a0d1-069f-485e-8045-c2d17cf4e59a","5479079d-2186-49b2-89e2-e3afab6abcc2","","null","<div style=""display: flex; justify-content: center; align-items: center;"">
                <img src=""images/causal/causal_series_15/causal_series_15_c.jpg"" style=""width: 300px; height: 300px;"" />
              </div>","null",""
"","","","","","html-button-response","86","290904","0.0-86.0","A2305E4B93FA41C5844D0043E3542501","4ca2a0d1-069f-485e-8045-c2d17cf4e59a","5479079d-2186-49b2-89e2-e3afab6abcc2","","2732","
    <div style=""display: flex; justify-content: center; align-items: center;"">
      <img src=""images/blue_deck_1.png"" style=""width: 300px; height: 300px; margin-right: 10px;"" />
      <img src=""images/red_deck_2.png"" style=""width: 300px; height: 300px;"" />
    </div>","0","0"
"","","","","","html-keyboard-response","87","293916","0.0-87.0-0.0-0.0","A2305E4B93FA41C5844D0043E3542501","4ca2a0d1-069f-485e-8045-c2d17cf4e59a","5479079d-2186-49b2-89e2-e3afab6abcc2","","null","<div style=""display: flex; justify-content: center; align-items: center;"">
                <img src=""images/causal/causal_series_15/causal_series_15_d.jpg"" style=""width: 300px; height: 300px;"" />
              </div>","null",""
"","","","","","html-keyboard-response","88","296925","0.0-88.0","A2305E4B93FA41C5844D0043E3542501","4ca2a0d1-069f-485e-8045-c2d17cf4e59a","5479079d-2186-49b2-89e2-e3afab6abcc2","","null","<div style=""display: flex; justify-content: center; align-items: center;"">
                <img src=""images/other/blank.jpg"" style=""width: 300px; height: 300px;"" />
              </div>","null",""
"","","","","","html-keyboard-response","89","299935","0.0-89.0","A2305E4B93FA41C5844D0043E3542501","4ca2a0d1-069f-485e-8045-c2d17cf4e59a","5479079d-2186-49b2-89e2-e3afab6abcc2","","null","<div style=""display: flex; justify-content: center; align-items: center;"">
                <img src=""images/causal/causal_series_7/causal_series_7_a.jpg"" style=""width: 300px; height: 300px;"" />
              </div>","null",""
"","","","","","html-keyboard-response","90","302945","0.0-90.0","A2305E4B93FA41C5844D0043E3542501","4ca2a0d1-069f-485e-8045-c2d17cf4e59a","5479079d-2186-49b2-89e2-e3afab6abcc2","","null","<div style=""display: flex; justify-content: center; align-items: center;"">
                <img src=""images/causal/causal_series_7/causal_series_7_b.jpg"" style=""width: 300px; height: 300px;"" />
              </div>","null",""
"","","","","","html-keyboard-response","91","305952","0.0-91.0","A2305E4B93FA41C5844D0043E3542501","4ca2a0d1-069f-485e-8045-c2d17cf4e59a","5479079d-2186-49b2-89e2-e3afab6abcc2","","null","<div style=""display: flex; justify-content: center; align-items: center;"">
                <img src=""images/causal/causal_series_7/causal_series_7_c.jpg"" style=""width: 300px; height: 300px;"" />
              </div>","null",""
"","","","","","html-button-response","92","307695","0.0-92.0","A2305E4B93FA41C5844D0043E3542501","4ca2a0d1-069f-485e-8045-c2d17cf4e59a","5479079d-2186-49b2-89e2-e3afab6abcc2","","1741","
    <div style=""display: flex; justify-content: center; align-items: center;"">
      <img src=""images/blue_deck_1.png"" style=""width: 300px; height: 300px; margin-right: 10px;"" />
      <img src=""images/red_deck_2.png"" style=""width: 300px; height: 300px;"" />
    </div>","1","1"
"","","","","","html-keyboard-response","93","310705","0.0-93.0-1.0-0.0","A2305E4B93FA41C5844D0043E3542501","4ca2a0d1-069f-485e-8045-c2d17cf4e59a","5479079d-2186-49b2-89e2-e3afab6abcc2","","null","<div style=""display: flex; justify-content: center; align-items: center;"">
                <img src=""images/semantic/semantic_series_7/semantic_series_7_d.jpg"" style=""width: 300px; height: 300px;"" />
              </div>","null",""
"","","","","","html-keyboard-response","94","313709","0.0-94.0","A2305E4B93FA41C5844D0043E3542501","4ca2a0d1-069f-485e-8045-c2d17cf4e59a","5479079d-2186-49b2-89e2-e3afab6abcc2","","null","<div style=""display: flex; justify-content: center; align-items: center;"">
                <img src=""images/other/blank.jpg"" style=""width: 300px; height: 300px;"" />
              </div>","null",""
"","","","","","html-keyboard-response","95","316725","0.0-95.0","A2305E4B93FA41C5844D0043E3542501","4ca2a0d1-069f-485e-8045-c2d17cf4e59a","5479079d-2186-49b2-89e2-e3afab6abcc2","","null","<div style=""display: flex; justify-content: center; align-items: center;"">
                <img src=""images/causal/causal_series_14/causal_series_14_a.jpg"" style=""width: 300px; height: 300px;"" />
              </div>","null",""
"","","","","","html-keyboard-response","96","319733","0.0-96.0","A2305E4B93FA41C5844D0043E3542501","4ca2a0d1-069f-485e-8045-c2d17cf4e59a","5479079d-2186-49b2-89e2-e3afab6abcc2","","null","<div style=""display: flex; justify-content: center; align-items: center;"">
                <img src=""images/causal/causal_series_14/causal_series_14_b.jpg"" style=""width: 300px; height: 300px;"" />
              </div>","null",""
"","","","","","html-keyboard-response","97","322749","0.0-97.0","A2305E4B93FA41C5844D0043E3542501","4ca2a0d1-069f-485e-8045-c2d17cf4e59a","5479079d-2186-49b2-89e2-e3afab6abcc2","","null","<div style=""display: flex; justify-content: center; align-items: center;"">
                <img src=""images/causal/causal_series_14/causal_series_14_c.jpg"" style=""width: 300px; height: 300px;"" />
              </div>","null",""
"","","","","","html-button-response","98","325188","0.0-98.0","A2305E4B93FA41C5844D0043E3542501","4ca2a0d1-069f-485e-8045-c2d17cf4e59a","5479079d-2186-49b2-89e2-e3afab6abcc2","","2435","
    <div style=""display: flex; justify-content: center; align-items: center;"">
      <img src=""images/blue_deck_1.png"" style=""width: 300px; height: 300px; margin-right: 10px;"" />
      <img src=""images/red_deck_2.png"" style=""width: 300px; height: 300px;"" />
    </div>","1","1"
"","","","","","html-keyboard-response","99","328205","0.0-99.0-1.0-0.0","A2305E4B93FA41C5844D0043E3542501","4ca2a0d1-069f-485e-8045-c2d17cf4e59a","5479079d-2186-49b2-89e2-e3afab6abcc2","","null","<div style=""display: flex; justify-content: center; align-items: center;"">
                <img src=""images/semantic/semantic_series_14/semantic_series_14_d.jpg"" style=""width: 300px; height: 300px;"" />
              </div>","null",""
"","","","","","html-keyboard-response","100","331214","0.0-100.0","A2305E4B93FA41C5844D0043E3542501","4ca2a0d1-069f-485e-8045-c2d17cf4e59a","5479079d-2186-49b2-89e2-e3afab6abcc2","","null","<div style=""display: flex; justify-content: center; align-items: center;"">
                <img src=""images/other/blank.jpg"" style=""width: 300px; height: 300px;"" />
              </div>","null",""
"","","","","","html-keyboard-response","101","334222","0.0-101.0","A2305E4B93FA41C5844D0043E3542501","4ca2a0d1-069f-485e-8045-c2d17cf4e59a","5479079d-2186-49b2-89e2-e3afab6abcc2","","null","<div style=""display: flex; justify-content: center; align-items: center;"">
                <img src=""images/causal/causal_series_11/causal_series_11_a.jpg"" style=""width: 300px; height: 300px;"" />
              </div>","null",""
"","","","","","html-keyboard-response","102","337236","0.0-102.0","A2305E4B93FA41C5844D0043E3542501","4ca2a0d1-069f-485e-8045-c2d17cf4e59a","5479079d-2186-49b2-89e2-e3afab6abcc2","","null","<div style=""display: flex; justify-content: center; align-items: center;"">
                <img src=""images/causal/causal_series_11/causal_series_11_b.jpg"" style=""width: 300px; height: 300px;"" />
              </div>","null",""
"","","","","","html-keyboard-response","103","340243","0.0-103.0","A2305E4B93FA41C5844D0043E3542501","4ca2a0d1-069f-485e-8045-c2d17cf4e59a","5479079d-2186-49b2-89e2-e3afab6abcc2","","null","<div style=""display: flex; justify-content: center; align-items: center;"">
                <img src=""images/causal/causal_series_11/causal_series_11_c.jpg"" style=""width: 300px; height: 300px;"" />
              </div>","null",""
"","","","","","html-button-response","104","341949","0.0-104.0","A2305E4B93FA41C5844D0043E3542501","4ca2a0d1-069f-485e-8045-c2d17cf4e59a","5479079d-2186-49b2-89e2-e3afab6abcc2","","1704","
    <div style=""display: flex; justify-content: center; align-items: center;"">
      <img src=""images/blue_deck_1.png"" style=""width: 300px; height: 300px; margin-right: 10px;"" />
      <img src=""images/red_deck_2.png"" style=""width: 300px; height: 300px;"" />
    </div>","1","1"
"","","","","","html-keyboard-response","105","344956","0.0-105.0-1.0-0.0","A2305E4B93FA41C5844D0043E3542501","4ca2a0d1-069f-485e-8045-c2d17cf4e59a","5479079d-2186-49b2-89e2-e3afab6abcc2","","null","<div style=""display: flex; justify-content: center; align-items: center;"">
                <img src=""images/semantic/semantic_series_11/semantic_series_11_d.jpg"" style=""width: 300px; height: 300px;"" />
              </div>","null",""
"","","","","","html-keyboard-response","106","347964","0.0-106.0","A2305E4B93FA41C5844D0043E3542501","4ca2a0d1-069f-485e-8045-c2d17cf4e59a","5479079d-2186-49b2-89e2-e3afab6abcc2","","null","<div style=""display: flex; justify-content: center; align-items: center;"">
                <img src=""images/other/blank.jpg"" style=""width: 300px; height: 300px;"" />
              </div>","null",""
"","","","","","html-keyboard-response","107","350973","0.0-107.0","A2305E4B93FA41C5844D0043E3542501","4ca2a0d1-069f-485e-8045-c2d17cf4e59a","5479079d-2186-49b2-89e2-e3afab6abcc2","","null","<div style=""display: flex; justify-content: center; align-items: center;"">
                <img src=""images/causal/causal_series_3/causal_series_3_a.jpg"" style=""width: 300px; height: 300px;"" />
              </div>","null",""
"","","","","","html-keyboard-response","108","353982","0.0-108.0","A2305E4B93FA41C5844D0043E3542501","4ca2a0d1-069f-485e-8045-c2d17cf4e59a","5479079d-2186-49b2-89e2-e3afab6abcc2","","null","<div style=""display: flex; justify-content: center; align-items: center;"">
                <img src=""images/causal/causal_series_3/causal_series_3_b.jpg"" style=""width: 300px; height: 300px;"" />
              </div>","null",""
"","","","","","html-keyboard-response","109","356985","0.0-109.0","A2305E4B93FA41C5844D0043E3542501","4ca2a0d1-069f-485e-8045-c2d17cf4e59a","5479079d-2186-49b2-89e2-e3afab6abcc2","","null","<div style=""display: flex; justify-content: center; align-items: center;"">
                <img src=""images/causal/causal_series_3/causal_series_3_c.jpg"" style=""width: 300px; height: 300px;"" />
              </div>","null",""
"","","","","","html-button-response","110","360119","0.0-110.0","A2305E4B93FA41C5844D0043E3542501","4ca2a0d1-069f-485e-8045-c2d17cf4e59a","5479079d-2186-49b2-89e2-e3afab6abcc2","","3131","
    <div style=""display: flex; justify-content: center; align-items: center;"">
      <img src=""images/blue_deck_1.png"" style=""width: 300px; height: 300px; margin-right: 10px;"" />
      <img src=""images/red_deck_2.png"" style=""width: 300px; height: 300px;"" />
    </div>","0","0"
"","","","","","html-keyboard-response","111","363131","0.0-111.0-0.0-0.0","A2305E4B93FA41C5844D0043E3542501","4ca2a0d1-069f-485e-8045-c2d17cf4e59a","5479079d-2186-49b2-89e2-e3afab6abcc2","","null","<div style=""display: flex; justify-content: center; align-items: center;"">
                <img src=""images/causal/causal_series_3/causal_series_3_d.jpg"" style=""width: 300px; height: 300px;"" />
              </div>","null",""
"","","","","","html-keyboard-response","112","366140","0.0-112.0","A2305E4B93FA41C5844D0043E3542501","4ca2a0d1-069f-485e-8045-c2d17cf4e59a","5479079d-2186-49b2-89e2-e3afab6abcc2","","null","<div style=""display: flex; justify-content: center; align-items: center;"">
                <img src=""images/other/blank.jpg"" style=""width: 300px; height: 300px;"" />
              </div>","null",""
"","","","","","survey-text","113","382630","0.0-113.0","A2305E4B93FA41C5844D0043E3542501","4ca2a0d1-069f-485e-8045-c2d17cf4e59a","5479079d-2186-49b2-89e2-e3afab6abcc2","","16463","","{""Q0"":""colour""}",""
"","","","","","survey-text","114","395684","0.0-114.0","A2305E4B93FA41C5844D0043E3542501","4ca2a0d1-069f-485e-8045-c2d17cf4e59a","5479079d-2186-49b2-89e2-e3afab6abcc2","","13038","","{""Q0"":""both""}",""
"","","","","","html-button-response","115","404135","0.0-115.0","A2305E4B93FA41C5844D0043E3542501","4ca2a0d1-069f-485e-8045-c2d17cf4e59a","5479079d-2186-49b2-89e2-e3afab6abcc2","","8447","Which color deck does the fourth image continue the story from the series?","0",""
"","","","","","html-button-response","116","411379","0.0-116.0","A2305E4B93FA41C5844D0043E3542501","4ca2a0d1-069f-485e-8045-c2d17cf4e59a","5479079d-2186-49b2-89e2-e3afab6abcc2","","7238","Which color deck does the fourth image not follow the story from the series?","0",""
"","","","","","survey-text","117","419878","0.0-117.0","A2305E4B93FA41C5844D0043E3542501","4ca2a0d1-069f-485e-8045-c2d17cf4e59a","5479079d-2186-49b2-89e2-e3afab6abcc2","","8476","","{""Q0"":""male"",""Q1"":""31""}",""
"","","","","","instructions","118","431276","0.0-118.0","A2305E4B93FA41C5844D0043E3542501","4ca2a0d1-069f-485e-8045-c2d17cf4e59a","5479079d-2186-49b2-89e2-e3afab6abcc2","[{""page_index"":0,""viewing_time"":11392}]","11393","","",""
