"success","timeout","failed_images","failed_audio","failed_video","trial_type","trial_index","time_elapsed","internal_node_id","subject_id","study_id","session_id","view_history","rt","stimulus","response","choice"
"true","false","[]","[]","[]","preload","0","2174","0.0-0.0","423F1A561CED4608AAFDEFB328927865","523dda02-a324-41f8-b834-913d019d6062","5479079d-2186-49b2-89e2-e3afab6abcc2","","","","",""
"","","","","","instructions","1","3677","0.0-1.0","423F1A561CED4608AAFDEFB328927865","523dda02-a324-41f8-b834-913d019d6062","5479079d-2186-49b2-89e2-e3afab6abcc2","[{""page_index"":0,""viewing_time"":1502}]","1502","","",""
"","","","","","instructions","2","15560","0.0-2.0","423F1A561CED4608AAFDEFB328927865","523dda02-a324-41f8-b834-913d019d6062","5479079d-2186-49b2-89e2-e3afab6abcc2","[{""page_index"":0,""viewing_time"":11881}]","11882","","",""
"true","","","","","fullscreen","3","18307","0.0-3.0","423F1A561CED4608AAFDEFB328927865","523dda02-a324-41f8-b834-913d019d6062","5479079d-2186-49b2-89e2-e3afab6abcc2","","1661","","",""
"","","","","","instructions","4","23439","0.0-4.0","423F1A561CED4608AAFDEFB328927865","523dda02-a324-41f8-b834-913d019d6062","5479079d-2186-49b2-89e2-e3afab6abcc2","[{""page_index"":0,""viewing_time"":5131}]","5131","","",""
"","","","","","html-keyboard-response","5","26450","0.0-5.0","423F1A561CED4608AAFDEFB328927865","523dda02-a324-41f8-b834-913d019d6062","5479079d-2186-49b2-89e2-e3afab6abcc2","","null","<div style=""display: flex; justify-content: center; align-items: center;"">
                <img src=""images/causal/causal_series_12/causal_series_12_a.jpg"" style=""width: 300px; height: 300px;"" />
              </div>","null",""
"","","","","","html-keyboard-response","6","29452","0.0-6.0","423F1A561CED4608AAFDEFB328927865","523dda02-a324-41f8-b834-913d019d6062","5479079d-2186-49b2-89e2-e3afab6abcc2","","null","<div style=""display: flex; justify-content: center; align-items: center;"">
                <img src=""images/causal/causal_series_12/causal_series_12_b.jpg"" style=""width: 300px; height: 300px;"" />
              </div>","null",""
"","","","","","html-keyboard-response","7","32472","0.0-7.0","423F1A561CED4608AAFDEFB328927865","523dda02-a324-41f8-b834-913d019d6062","5479079d-2186-49b2-89e2-e3afab6abcc2","","null","<div style=""display: flex; justify-content: center; align-items: center;"">
                <img src=""images/causal/causal_series_12/causal_series_12_c.jpg"" style=""width: 300px; height: 300px;"" />
              </div>","null",""
"","","","","","html-button-response","8","35090","0.0-8.0","423F1A561CED4608AAFDEFB328927865","523dda02-a324-41f8-b834-913d019d6062","5479079d-2186-49b2-89e2-e3afab6abcc2","","2617","
    <div style=""display: flex; justify-content: center; align-items: center;"">
      <img src=""images/blue_deck_1.png"" style=""width: 300px; height: 300px; margin-right: 10px;"" />
      <img src=""images/red_deck_2.png"" style=""width: 300px; height: 300px;"" />
    </div>","1","1"
"","","","","","html-keyboard-response","9","38099","0.0-9.0-1.0-0.0","423F1A561CED4608AAFDEFB328927865","523dda02-a324-41f8-b834-913d019d6062","5479079d-2186-49b2-89e2-e3afab6abcc2","","null","<div style=""display: flex; justify-content: center; align-items: center;"">
                <img src=""images/semantic/semantic_series_12/semantic_series_12_d.jpg"" style=""width: 300px; height: 300px;"" />
              </div>","null",""
"","","","","","html-keyboard-response","10","41110","0.0-10.0","423F1A561CED4608AAFDEFB328927865","523dda02-a324-41f8-b834-913d019d6062","5479079d-2186-49b2-89e2-e3afab6abcc2","","null","<div style=""display: flex; justify-content: center; align-items: center;"">
                <img src=""images/other/blank.jpg"" style=""width: 300px; height: 300px;"" />
              </div>","null",""
"","","","","","html-keyboard-response","11","44111","0.0-11.0","423F1A561CED4608AAFDEFB328927865","523dda02-a324-41f8-b834-913d019d6062","5479079d-2186-49b2-89e2-e3afab6abcc2","","null","<div style=""display: flex; justify-content: center; align-items: center;"">
                <img src=""images/causal/causal_series_8/causal_series_8_a.jpg"" style=""width: 300px; height: 300px;"" />
              </div>","null",""
"","","","","","html-keyboard-response","12","47120","0.0-12.0","423F1A561CED4608AAFDEFB328927865","523dda02-a324-41f8-b834-913d019d6062","5479079d-2186-49b2-89e2-e3afab6abcc2","","null","<div style=""display: flex; justify-content: center; align-items: center;"">
                <img src=""images/causal/causal_series_8/causal_series_8_b.jpg"" style=""width: 300px; height: 300px;"" />
              </div>","null",""
"","","","","","html-keyboard-response","13","50123","0.0-13.0","423F1A561CED4608AAFDEFB328927865","523dda02-a324-41f8-b834-913d019d6062","5479079d-2186-49b2-89e2-e3afab6abcc2","","null","<div style=""display: flex; justify-content: center; align-items: center;"">
                <img src=""images/causal/causal_series_8/causal_series_8_c.jpg"" style=""width: 300px; height: 300px;"" />
              </div>","null",""
"","","","","","html-button-response","14","51917","0.0-14.0","423F1A561CED4608AAFDEFB328927865","523dda02-a324-41f8-b834-913d019d6062","5479079d-2186-49b2-89e2-e3afab6abcc2","","1792","
    <div style=""display: flex; justify-content: center; align-items: center;"">
      <img src=""images/blue_deck_1.png"" style=""width: 300px; height: 300px; margin-right: 10px;"" />
      <img src=""images/red_deck_2.png"" style=""width: 300px; height: 300px;"" />
    </div>","0","0"
"","","","","","html-keyboard-response","15","54922","0.0-15.0-0.0-0.0","423F1A561CED4608AAFDEFB328927865","523dda02-a324-41f8-b834-913d019d6062","5479079d-2186-49b2-89e2-e3afab6abcc2","","null","<div style=""display: flex; justify-content: center; align-items: center;"">
                <img src=""images/causal/causal_series_8/causal_series_8_d.jpg"" style=""width: 300px; height: 300px;"" />
              </div>","null",""
"","","","","","html-keyboard-response","16","57927","0.0-16.0","423F1A561CED4608AAFDEFB328927865","523dda02-a324-41f8-b834-913d019d6062","5479079d-2186-49b2-89e2-e3afab6abcc2","","null","<div style=""display: flex; justify-content: center; align-items: center;"">
                <img src=""images/other/blank.jpg"" style=""width: 300px; height: 300px;"" />
              </div>","null",""
"","","","","","html-keyboard-response","17","60932","0.0-17.0","423F1A561CED4608AAFDEFB328927865","523dda02-a324-41f8-b834-913d019d6062","5479079d-2186-49b2-89e2-e3afab6abcc2","","null","<div style=""display: flex; justify-content: center; align-items: center;"">
                <img src=""images/causal/causal_series_10/causal_series_10_a.jpg"" style=""width: 300px; height: 300px;"" />
              </div>","null",""
"","","","","","html-keyboard-response","18","63935","0.0-18.0","423F1A561CED4608AAFDEFB328927865","523dda02-a324-41f8-b834-913d019d6062","5479079d-2186-49b2-89e2-e3afab6abcc2","","null","<div style=""display: flex; justify-content: center; align-items: center;"">
                <img src=""images/causal/causal_series_10/causal_series_10_b.jpg"" style=""width: 300px; height: 300px;"" />
              </div>","null",""
"","","","","","html-keyboard-response","19","66937","0.0-19.0","423F1A561CED4608AAFDEFB328927865","523dda02-a324-41f8-b834-913d019d6062","5479079d-2186-49b2-89e2-e3afab6abcc2","","null","<div style=""display: flex; justify-content: center; align-items: center;"">
                <img src=""images/causal/causal_series_10/causal_series_10_c.jpg"" style=""width: 300px; height: 300px;"" />
              </div>","null",""
"","","","","","html-button-response","20","68789","0.0-20.0","423F1A561CED4608AAFDEFB328927865","523dda02-a324-41f8-b834-913d019d6062","5479079d-2186-49b2-89e2-e3afab6abcc2","","1850","
    <div style=""display: flex; justify-content: center; align-items: center;"">
      <img src=""images/blue_deck_1.png"" style=""width: 300px; height: 300px; margin-right: 10px;"" />
      <img src=""images/red_deck_2.png"" style=""width: 300px; height: 300px;"" />
    </div>","0","0"
"","","","","","html-keyboard-response","21","71796","0.0-21.0-0.0-0.0","423F1A561CED4608AAFDEFB328927865","523dda02-a324-41f8-b834-913d019d6062","5479079d-2186-49b2-89e2-e3afab6abcc2","","null","<div style=""display: flex; justify-content: center; align-items: center;"">
                <img src=""images/causal/causal_series_10/causal_series_10_d.jpg"" style=""width: 300px; height: 300px;"" />
              </div>","null",""
"","","","","","html-keyboard-response","22","74798","0.0-22.0","423F1A561CED4608AAFDEFB328927865","523dda02-a324-41f8-b834-913d019d6062","5479079d-2186-49b2-89e2-e3afab6abcc2","","null","<div style=""display: flex; justify-content: center; align-items: center;"">
                <img src=""images/other/blank.jpg"" style=""width: 300px; height: 300px;"" />
              </div>","null",""
"","","","","","html-keyboard-response","23","77799","0.0-23.0","423F1A561CED4608AAFDEFB328927865","523dda02-a324-41f8-b834-913d019d6062","5479079d-2186-49b2-89e2-e3afab6abcc2","","null","<div style=""display: flex; justify-content: center; align-items: center;"">
                <img src=""images/causal/causal_series_13/causal_series_13_a.jpg"" style=""width: 300px; height: 300px;"" />
              </div>","null",""
"","","","","","html-keyboard-response","24","80800","0.0-24.0","423F1A561CED4608AAFDEFB328927865","523dda02-a324-41f8-b834-913d019d6062","5479079d-2186-49b2-89e2-e3afab6abcc2","","null","<div style=""display: flex; justify-content: center; align-items: center;"">
                <img src=""images/causal/causal_series_13/causal_series_13_b.jpg"" style=""width: 300px; height: 300px;"" />
              </div>","null",""
"","","","","","html-keyboard-response","25","83816","0.0-25.0","423F1A561CED4608AAFDEFB328927865","523dda02-a324-41f8-b834-913d019d6062","5479079d-2186-49b2-89e2-e3afab6abcc2","","null","<div style=""display: flex; justify-content: center; align-items: center;"">
                <img src=""images/causal/causal_series_13/causal_series_13_c.jpg"" style=""width: 300px; height: 300px;"" />
              </div>","null",""
"","","","","","html-button-response","26","88799","0.0-26.0","423F1A561CED4608AAFDEFB328927865","523dda02-a324-41f8-b834-913d019d6062","5479079d-2186-49b2-89e2-e3afab6abcc2","","4982","
    <div style=""display: flex; justify-content: center; align-items: center;"">
      <img src=""images/blue_deck_1.png"" style=""width: 300px; height: 300px; margin-right: 10px;"" />
      <img src=""images/red_deck_2.png"" style=""width: 300px; height: 300px;"" />
    </div>","0","0"
"","","","","","html-keyboard-response","27","91813","0.0-27.0-0.0-0.0","423F1A561CED4608AAFDEFB328927865","523dda02-a324-41f8-b834-913d019d6062","5479079d-2186-49b2-89e2-e3afab6abcc2","","null","<div style=""display: flex; justify-content: center; align-items: center;"">
                <img src=""images/causal/causal_series_13/causal_series_13_d.jpg"" style=""width: 300px; height: 300px;"" />
              </div>","null",""
"","","","","","html-keyboard-response","28","94822","0.0-28.0","423F1A561CED4608AAFDEFB328927865","523dda02-a324-41f8-b834-913d019d6062","5479079d-2186-49b2-89e2-e3afab6abcc2","","null","<div style=""display: flex; justify-content: center; align-items: center;"">
                <img src=""images/other/blank.jpg"" style=""width: 300px; height: 300px;"" />
              </div>","null",""
"","","","","","html-keyboard-response","29","97833","0.0-29.0","423F1A561CED4608AAFDEFB328927865","523dda02-a324-41f8-b834-913d019d6062","5479079d-2186-49b2-89e2-e3afab6abcc2","","null","<div style=""display: flex; justify-content: center; align-items: center;"">
                <img src=""images/causal/causal_series_11/causal_series_11_a.jpg"" style=""width: 300px; height: 300px;"" />
              </div>","null",""
"","","","","","html-keyboard-response","30","100837","0.0-30.0","423F1A561CED4608AAFDEFB328927865","523dda02-a324-41f8-b834-913d019d6062","5479079d-2186-49b2-89e2-e3afab6abcc2","","null","<div style=""display: flex; justify-content: center; align-items: center;"">
                <img src=""images/causal/causal_series_11/causal_series_11_b.jpg"" style=""width: 300px; height: 300px;"" />
              </div>","null",""
"","","","","","html-keyboard-response","31","103844","0.0-31.0","423F1A561CED4608AAFDEFB328927865","523dda02-a324-41f8-b834-913d019d6062","5479079d-2186-49b2-89e2-e3afab6abcc2","","null","<div style=""display: flex; justify-content: center; align-items: center;"">
                <img src=""images/causal/causal_series_11/causal_series_11_c.jpg"" style=""width: 300px; height: 300px;"" />
              </div>","null",""
"","","","","","html-button-response","32","105041","0.0-32.0","423F1A561CED4608AAFDEFB328927865","523dda02-a324-41f8-b834-913d019d6062","5479079d-2186-49b2-89e2-e3afab6abcc2","","1196","
    <div style=""display: flex; justify-content: center; align-items: center;"">
      <img src=""images/blue_deck_1.png"" style=""width: 300px; height: 300px; margin-right: 10px;"" />
      <img src=""images/red_deck_2.png"" style=""width: 300px; height: 300px;"" />
    </div>","1","1"
"","","","","","html-keyboard-response","33","108054","0.0-33.0-1.0-0.0","423F1A561CED4608AAFDEFB328927865","523dda02-a324-41f8-b834-913d019d6062","5479079d-2186-49b2-89e2-e3afab6abcc2","","null","<div style=""display: flex; justify-content: center; align-items: center;"">
                <img src=""images/semantic/semantic_series_11/semantic_series_11_d.jpg"" style=""width: 300px; height: 300px;"" />
              </div>","null",""
"","","","","","html-keyboard-response","34","111058","0.0-34.0","423F1A561CED4608AAFDEFB328927865","523dda02-a324-41f8-b834-913d019d6062","5479079d-2186-49b2-89e2-e3afab6abcc2","","null","<div style=""display: flex; justify-content: center; align-items: center;"">
                <img src=""images/other/blank.jpg"" style=""width: 300px; height: 300px;"" />
              </div>","null",""
"","","","","","html-keyboard-response","35","114073","0.0-35.0","423F1A561CED4608AAFDEFB328927865","523dda02-a324-41f8-b834-913d019d6062","5479079d-2186-49b2-89e2-e3afab6abcc2","","null","<div style=""display: flex; justify-content: center; align-items: center;"">
                <img src=""images/causal/causal_series_9/causal_series_9_a.jpg"" style=""width: 300px; height: 300px;"" />
              </div>","null",""
"","","","","","html-keyboard-response","36","117090","0.0-36.0","423F1A561CED4608AAFDEFB328927865","523dda02-a324-41f8-b834-913d019d6062","5479079d-2186-49b2-89e2-e3afab6abcc2","","null","<div style=""display: flex; justify-content: center; align-items: center;"">
                <img src=""images/causal/causal_series_9/causal_series_9_b.jpg"" style=""width: 300px; height: 300px;"" />
              </div>","null",""
"","","","","","html-keyboard-response","37","120102","0.0-37.0","423F1A561CED4608AAFDEFB328927865","523dda02-a324-41f8-b834-913d019d6062","5479079d-2186-49b2-89e2-e3afab6abcc2","","null","<div style=""display: flex; justify-content: center; align-items: center;"">
                <img src=""images/causal/causal_series_9/causal_series_9_c.jpg"" style=""width: 300px; height: 300px;"" />
              </div>","null",""
"","","","","","html-button-response","38","121467","0.0-38.0","423F1A561CED4608AAFDEFB328927865","523dda02-a324-41f8-b834-913d019d6062","5479079d-2186-49b2-89e2-e3afab6abcc2","","1365","
    <div style=""display: flex; justify-content: center; align-items: center;"">
      <img src=""images/blue_deck_1.png"" style=""width: 300px; height: 300px; margin-right: 10px;"" />
      <img src=""images/red_deck_2.png"" style=""width: 300px; height: 300px;"" />
    </div>","0","0"
"","","","","","html-keyboard-response","39","124470","0.0-39.0-0.0-0.0","423F1A561CED4608AAFDEFB328927865","523dda02-a324-41f8-b834-913d019d6062","5479079d-2186-49b2-89e2-e3afab6abcc2","","null","<div style=""display: flex; justify-content: center; align-items: center;"">
                <img src=""images/causal/causal_series_9/causal_series_9_d.jpg"" style=""width: 300px; height: 300px;"" />
              </div>","null",""
"","","","","","html-keyboard-response","40","127471","0.0-40.0","423F1A561CED4608AAFDEFB328927865","523dda02-a324-41f8-b834-913d019d6062","5479079d-2186-49b2-89e2-e3afab6abcc2","","null","<div style=""display: flex; justify-content: center; align-items: center;"">
                <img src=""images/other/blank.jpg"" style=""width: 300px; height: 300px;"" />
              </div>","null",""
"","","","","","html-keyboard-response","41","130483","0.0-41.0","423F1A561CED4608AAFDEFB328927865","523dda02-a324-41f8-b834-913d019d6062","5479079d-2186-49b2-89e2-e3afab6abcc2","","null","<div style=""display: flex; justify-content: center; align-items: center;"">
                <img src=""images/causal/causal_series_15/causal_series_15_a.jpg"" style=""width: 300px; height: 300px;"" />
              </div>","null",""
"","","","","","html-keyboard-response","42","133495","0.0-42.0","423F1A561CED4608AAFDEFB328927865","523dda02-a324-41f8-b834-913d019d6062","5479079d-2186-49b2-89e2-e3afab6abcc2","","null","<div style=""display: flex; justify-content: center; align-items: center;"">
                <img src=""images/causal/causal_series_15/causal_series_15_b.jpg"" style=""width: 300px; height: 300px;"" />
              </div>","null",""
"","","","","","html-keyboard-response","43","136497","0.0-43.0","423F1A561CED4608AAFDEFB328927865","523dda02-a324-41f8-b834-913d019d6062","5479079d-2186-49b2-89e2-e3afab6abcc2","","null","<div style=""display: flex; justify-content: center; align-items: center;"">
                <img src=""images/causal/causal_series_15/causal_series_15_c.jpg"" style=""width: 300px; height: 300px;"" />
              </div>","null",""
"","","","","","html-button-response","44","137837","0.0-44.0","423F1A561CED4608AAFDEFB328927865","523dda02-a324-41f8-b834-913d019d6062","5479079d-2186-49b2-89e2-e3afab6abcc2","","1338","
    <div style=""display: flex; justify-content: center; align-items: center;"">
      <img src=""images/blue_deck_1.png"" style=""width: 300px; height: 300px; margin-right: 10px;"" />
      <img src=""images/red_deck_2.png"" style=""width: 300px; height: 300px;"" />
    </div>","0","0"
"","","","","","html-keyboard-response","45","140842","0.0-45.0-0.0-0.0","423F1A561CED4608AAFDEFB328927865","523dda02-a324-41f8-b834-913d019d6062","5479079d-2186-49b2-89e2-e3afab6abcc2","","null","<div style=""display: flex; justify-content: center; align-items: center;"">
                <img src=""images/causal/causal_series_15/causal_series_15_d.jpg"" style=""width: 300px; height: 300px;"" />
              </div>","null",""
"","","","","","html-keyboard-response","46","143852","0.0-46.0","423F1A561CED4608AAFDEFB328927865","523dda02-a324-41f8-b834-913d019d6062","5479079d-2186-49b2-89e2-e3afab6abcc2","","null","<div style=""display: flex; justify-content: center; align-items: center;"">
                <img src=""images/other/blank.jpg"" style=""width: 300px; height: 300px;"" />
              </div>","null",""
"","","","","","html-keyboard-response","47","146859","0.0-47.0","423F1A561CED4608AAFDEFB328927865","523dda02-a324-41f8-b834-913d019d6062","5479079d-2186-49b2-89e2-e3afab6abcc2","","null","<div style=""display: flex; justify-content: center; align-items: center;"">
                <img src=""images/causal/causal_series_14/causal_series_14_a.jpg"" style=""width: 300px; height: 300px;"" />
              </div>","null",""
"","","","","","html-keyboard-response","48","149879","0.0-48.0","423F1A561CED4608AAFDEFB328927865","523dda02-a324-41f8-b834-913d019d6062","5479079d-2186-49b2-89e2-e3afab6abcc2","","null","<div style=""display: flex; justify-content: center; align-items: center;"">
                <img src=""images/causal/causal_series_14/causal_series_14_b.jpg"" style=""width: 300px; height: 300px;"" />
              </div>","null",""
"","","","","","html-keyboard-response","49","152884","0.0-49.0","423F1A561CED4608AAFDEFB328927865","523dda02-a324-41f8-b834-913d019d6062","5479079d-2186-49b2-89e2-e3afab6abcc2","","null","<div style=""display: flex; justify-content: center; align-items: center;"">
                <img src=""images/causal/causal_series_14/causal_series_14_c.jpg"" style=""width: 300px; height: 300px;"" />
              </div>","null",""
"","","","","","html-button-response","50","154241","0.0-50.0","423F1A561CED4608AAFDEFB328927865","523dda02-a324-41f8-b834-913d019d6062","5479079d-2186-49b2-89e2-e3afab6abcc2","","1355","
    <div style=""display: flex; justify-content: center; align-items: center;"">
      <img src=""images/blue_deck_1.png"" style=""width: 300px; height: 300px; margin-right: 10px;"" />
      <img src=""images/red_deck_2.png"" style=""width: 300px; height: 300px;"" />
    </div>","1","1"
"","","","","","html-keyboard-response","51","157258","0.0-51.0-1.0-0.0","423F1A561CED4608AAFDEFB328927865","523dda02-a324-41f8-b834-913d019d6062","5479079d-2186-49b2-89e2-e3afab6abcc2","","null","<div style=""display: flex; justify-content: center; align-items: center;"">
                <img src=""images/semantic/semantic_series_14/semantic_series_14_d.jpg"" style=""width: 300px; height: 300px;"" />
              </div>","null",""
"","","","","","html-keyboard-response","52","160274","0.0-52.0","423F1A561CED4608AAFDEFB328927865","523dda02-a324-41f8-b834-913d019d6062","5479079d-2186-49b2-89e2-e3afab6abcc2","","null","<div style=""display: flex; justify-content: center; align-items: center;"">
                <img src=""images/other/blank.jpg"" style=""width: 300px; height: 300px;"" />
              </div>","null",""
"","","","","","html-keyboard-response","53","163283","0.0-53.0","423F1A561CED4608AAFDEFB328927865","523dda02-a324-41f8-b834-913d019d6062","5479079d-2186-49b2-89e2-e3afab6abcc2","","null","<div style=""display: flex; justify-content: center; align-items: center;"">
                <img src=""images/causal/causal_series_3/causal_series_3_a.jpg"" style=""width: 300px; height: 300px;"" />
              </div>","null",""
"","","","","","html-keyboard-response","54","166298","0.0-54.0","423F1A561CED4608AAFDEFB328927865","523dda02-a324-41f8-b834-913d019d6062","5479079d-2186-49b2-89e2-e3afab6abcc2","","null","<div style=""display: flex; justify-content: center; align-items: center;"">
                <img src=""images/causal/causal_series_3/causal_series_3_b.jpg"" style=""width: 300px; height: 300px;"" />
              </div>","null",""
"","","","","","html-keyboard-response","55","169310","0.0-55.0","423F1A561CED4608AAFDEFB328927865","523dda02-a324-41f8-b834-913d019d6062","5479079d-2186-49b2-89e2-e3afab6abcc2","","null","<div style=""display: flex; justify-content: center; align-items: center;"">
                <img src=""images/causal/causal_series_3/causal_series_3_c.jpg"" style=""width: 300px; height: 300px;"" />
              </div>","null",""
"","","","","","html-button-response","56","171002","0.0-56.0","423F1A561CED4608AAFDEFB328927865","523dda02-a324-41f8-b834-913d019d6062","5479079d-2186-49b2-89e2-e3afab6abcc2","","1691","
    <div style=""display: flex; justify-content: center; align-items: center;"">
      <img src=""images/blue_deck_1.png"" style=""width: 300px; height: 300px; margin-right: 10px;"" />
      <img src=""images/red_deck_2.png"" style=""width: 300px; height: 300px;"" />
    </div>","0","0"
"","","","","","html-keyboard-response","57","174011","0.0-57.0-0.0-0.0","423F1A561CED4608AAFDEFB328927865","523dda02-a324-41f8-b834-913d019d6062","5479079d-2186-49b2-89e2-e3afab6abcc2","","null","<div style=""display: flex; justify-content: center; align-items: center;"">
                <img src=""images/causal/causal_series_3/causal_series_3_d.jpg"" style=""width: 300px; height: 300px;"" />
              </div>","null",""
"","","","","","html-keyboard-response","58","177013","0.0-58.0","423F1A561CED4608AAFDEFB328927865","523dda02-a324-41f8-b834-913d019d6062","5479079d-2186-49b2-89e2-e3afab6abcc2","","null","<div style=""display: flex; justify-content: center; align-items: center;"">
                <img src=""images/other/blank.jpg"" style=""width: 300px; height: 300px;"" />
              </div>","null",""
"","","","","","html-keyboard-response","59","180024","0.0-59.0","423F1A561CED4608AAFDEFB328927865","523dda02-a324-41f8-b834-913d019d6062","5479079d-2186-49b2-89e2-e3afab6abcc2","","null","<div style=""display: flex; justify-content: center; align-items: center;"">
                <img src=""images/causal/causal_series_5/causal_series_5_a.jpg"" style=""width: 300px; height: 300px;"" />
              </div>","null",""
"","","","","","html-keyboard-response","60","183031","0.0-60.0","423F1A561CED4608AAFDEFB328927865","523dda02-a324-41f8-b834-913d019d6062","5479079d-2186-49b2-89e2-e3afab6abcc2","","null","<div style=""display: flex; justify-content: center; align-items: center;"">
                <img src=""images/causal/causal_series_5/causal_series_5_b.jpg"" style=""width: 300px; height: 300px;"" />
              </div>","null",""
"","","","","","html-keyboard-response","61","186041","0.0-61.0","423F1A561CED4608AAFDEFB328927865","523dda02-a324-41f8-b834-913d019d6062","5479079d-2186-49b2-89e2-e3afab6abcc2","","null","<div style=""display: flex; justify-content: center; align-items: center;"">
                <img src=""images/causal/causal_series_5/causal_series_5_c.jpg"" style=""width: 300px; height: 300px;"" />
              </div>","null",""
"","","","","","html-button-response","62","187488","0.0-62.0","423F1A561CED4608AAFDEFB328927865","523dda02-a324-41f8-b834-913d019d6062","5479079d-2186-49b2-89e2-e3afab6abcc2","","1446","
    <div style=""display: flex; justify-content: center; align-items: center;"">
      <img src=""images/blue_deck_1.png"" style=""width: 300px; height: 300px; margin-right: 10px;"" />
      <img src=""images/red_deck_2.png"" style=""width: 300px; height: 300px;"" />
    </div>","0","0"
"","","","","","html-keyboard-response","63","190504","0.0-63.0-0.0-0.0","423F1A561CED4608AAFDEFB328927865","523dda02-a324-41f8-b834-913d019d6062","5479079d-2186-49b2-89e2-e3afab6abcc2","","null","<div style=""display: flex; justify-content: center; align-items: center;"">
                <img src=""images/causal/causal_series_5/causal_series_5_d.jpg"" style=""width: 300px; height: 300px;"" />
              </div>","null",""
"","","","","","html-keyboard-response","64","193513","0.0-64.0","423F1A561CED4608AAFDEFB328927865","523dda02-a324-41f8-b834-913d019d6062","5479079d-2186-49b2-89e2-e3afab6abcc2","","null","<div style=""display: flex; justify-content: center; align-items: center;"">
                <img src=""images/other/blank.jpg"" style=""width: 300px; height: 300px;"" />
              </div>","null",""
"","","","","","html-keyboard-response","65","196519","0.0-65.0","423F1A561CED4608AAFDEFB328927865","523dda02-a324-41f8-b834-913d019d6062","5479079d-2186-49b2-89e2-e3afab6abcc2","","null","<div style=""display: flex; justify-content: center; align-items: center;"">
                <img src=""images/causal/causal_series_17/causal_series_17_a.jpg"" style=""width: 300px; height: 300px;"" />
              </div>","null",""
"","","","","","html-keyboard-response","66","199532","0.0-66.0","423F1A561CED4608AAFDEFB328927865","523dda02-a324-41f8-b834-913d019d6062","5479079d-2186-49b2-89e2-e3afab6abcc2","","null","<div style=""display: flex; justify-content: center; align-items: center;"">
                <img src=""images/causal/causal_series_17/causal_series_17_b.jpg"" style=""width: 300px; height: 300px;"" />
              </div>","null",""
"","","","","","html-keyboard-response","67","202544","0.0-67.0","423F1A561CED4608AAFDEFB328927865","523dda02-a324-41f8-b834-913d019d6062","5479079d-2186-49b2-89e2-e3afab6abcc2","","null","<div style=""display: flex; justify-content: center; align-items: center;"">
                <img src=""images/causal/causal_series_17/causal_series_17_c.jpg"" style=""width: 300px; height: 300px;"" />
              </div>","null",""
"","","","","","html-button-response","68","203846","0.0-68.0","423F1A561CED4608AAFDEFB328927865","523dda02-a324-41f8-b834-913d019d6062","5479079d-2186-49b2-89e2-e3afab6abcc2","","1301","
    <div style=""display: flex; justify-content: center; align-items: center;"">
      <img src=""images/blue_deck_1.png"" style=""width: 300px; height: 300px; margin-right: 10px;"" />
      <img src=""images/red_deck_2.png"" style=""width: 300px; height: 300px;"" />
    </div>","1","1"
"","","","","","html-keyboard-response","69","206854","0.0-69.0-1.0-0.0","423F1A561CED4608AAFDEFB328927865","523dda02-a324-41f8-b834-913d019d6062","5479079d-2186-49b2-89e2-e3afab6abcc2","","null","<div style=""display: flex; justify-content: center; align-items: center;"">
                <img src=""images/semantic/semantic_series_17/semantic_series_17_d.jpg"" style=""width: 300px; height: 300px;"" />
              </div>","null",""
"","","","","","html-keyboard-response","70","209870","0.0-70.0","423F1A561CED4608AAFDEFB328927865","523dda02-a324-41f8-b834-913d019d6062","5479079d-2186-49b2-89e2-e3afab6abcc2","","null","<div style=""display: flex; justify-content: center; align-items: center;"">
                <img src=""images/other/blank.jpg"" style=""width: 300px; height: 300px;"" />
              </div>","null",""
"","","","","","html-keyboard-response","71","212874","0.0-71.0","423F1A561CED4608AAFDEFB328927865","523dda02-a324-41f8-b834-913d019d6062","5479079d-2186-49b2-89e2-e3afab6abcc2","","null","<div style=""display: flex; justify-content: center; align-items: center;"">
                <img src=""images/causal/causal_series_6/causal_series_6_a.jpg"" style=""width: 300px; height: 300px;"" />
              </div>","null",""
"","","","","","html-keyboard-response","72","215885","0.0-72.0","423F1A561CED4608AAFDEFB328927865","523dda02-a324-41f8-b834-913d019d6062","5479079d-2186-49b2-89e2-e3afab6abcc2","","null","<div style=""display: flex; justify-content: center; align-items: center;"">
                <img src=""images/causal/causal_series_6/causal_series_6_b.jpg"" style=""width: 300px; height: 300px;"" />
              </div>","null",""
"","","","","","html-keyboard-response","73","218891","0.0-73.0","423F1A561CED4608AAFDEFB328927865","523dda02-a324-41f8-b834-913d019d6062","5479079d-2186-49b2-89e2-e3afab6abcc2","","null","<div style=""display: flex; justify-content: center; align-items: center;"">
                <img src=""images/causal/causal_series_6/causal_series_6_c.jpg"" style=""width: 300px; height: 300px;"" />
              </div>","null",""
"","","","","","html-button-response","74","220691","0.0-74.0","423F1A561CED4608AAFDEFB328927865","523dda02-a324-41f8-b834-913d019d6062","5479079d-2186-49b2-89e2-e3afab6abcc2","","1798","
    <div style=""display: flex; justify-content: center; align-items: center;"">
      <img src=""images/blue_deck_1.png"" style=""width: 300px; height: 300px; margin-right: 10px;"" />
      <img src=""images/red_deck_2.png"" style=""width: 300px; height: 300px;"" />
    </div>","1","1"
"","","","","","html-keyboard-response","75","223703","0.0-75.0-1.0-0.0","423F1A561CED4608AAFDEFB328927865","523dda02-a324-41f8-b834-913d019d6062","5479079d-2186-49b2-89e2-e3afab6abcc2","","null","<div style=""display: flex; justify-content: center; align-items: center;"">
                <img src=""images/semantic/semantic_series_6/semantic_series_6_d.jpg"" style=""width: 300px; height: 300px;"" />
              </div>","null",""
"","","","","","html-keyboard-response","76","226716","0.0-76.0","423F1A561CED4608AAFDEFB328927865","523dda02-a324-41f8-b834-913d019d6062","5479079d-2186-49b2-89e2-e3afab6abcc2","","null","<div style=""display: flex; justify-content: center; align-items: center;"">
                <img src=""images/other/blank.jpg"" style=""width: 300px; height: 300px;"" />
              </div>","null",""
"","","","","","html-keyboard-response","77","229717","0.0-77.0","423F1A561CED4608AAFDEFB328927865","523dda02-a324-41f8-b834-913d019d6062","5479079d-2186-49b2-89e2-e3afab6abcc2","","null","<div style=""display: flex; justify-content: center; align-items: center;"">
                <img src=""images/causal/causal_series_2/causal_series_2_a.jpg"" style=""width: 300px; height: 300px;"" />
              </div>","null",""
"","","","","","html-keyboard-response","78","232727","0.0-78.0","423F1A561CED4608AAFDEFB328927865","523dda02-a324-41f8-b834-913d019d6062","5479079d-2186-49b2-89e2-e3afab6abcc2","","null","<div style=""display: flex; justify-content: center; align-items: center;"">
                <img src=""images/causal/causal_series_2/causal_series_2_b.jpg"" style=""width: 300px; height: 300px;"" />
              </div>","null",""
"","","","","","html-keyboard-response","79","235733","0.0-79.0","423F1A561CED4608AAFDEFB328927865","523dda02-a324-41f8-b834-913d019d6062","5479079d-2186-49b2-89e2-e3afab6abcc2","","null","<div style=""display: flex; justify-content: center; align-items: center;"">
                <img src=""images/causal/causal_series_2/causal_series_2_c.jpg"" style=""width: 300px; height: 300px;"" />
              </div>","null",""
"","","","","","html-button-response","80","237829","0.0-80.0","423F1A561CED4608AAFDEFB328927865","523dda02-a324-41f8-b834-913d019d6062","5479079d-2186-49b2-89e2-e3afab6abcc2","","2094","
    <div style=""display: flex; justify-content: center; align-items: center;"">
      <img src=""images/blue_deck_1.png"" style=""width: 300px; height: 300px; margin-right: 10px;"" />
      <img src=""images/red_deck_2.png"" style=""width: 300px; height: 300px;"" />
    </div>","0","0"
"","","","","","html-keyboard-response","81","240834","0.0-81.0-0.0-0.0","423F1A561CED4608AAFDEFB328927865","523dda02-a324-41f8-b834-913d019d6062","5479079d-2186-49b2-89e2-e3afab6abcc2","","null","<div style=""display: flex; justify-content: center; align-items: center;"">
                <img src=""images/causal/causal_series_2/causal_series_2_d.jpg"" style=""width: 300px; height: 300px;"" />
              </div>","null",""
"","","","","","html-keyboard-response","82","243853","0.0-82.0","423F1A561CED4608AAFDEFB328927865","523dda02-a324-41f8-b834-913d019d6062","5479079d-2186-49b2-89e2-e3afab6abcc2","","null","<div style=""display: flex; justify-content: center; align-items: center;"">
                <img src=""images/other/blank.jpg"" style=""width: 300px; height: 300px;"" />
              </div>","null",""
"","","","","","html-keyboard-response","83","246858","0.0-83.0","423F1A561CED4608AAFDEFB328927865","523dda02-a324-41f8-b834-913d019d6062","5479079d-2186-49b2-89e2-e3afab6abcc2","","null","<div style=""display: flex; justify-content: center; align-items: center;"">
                <img src=""images/causal/causal_series_18/causal_series_18_a.jpg"" style=""width: 300px; height: 300px;"" />
              </div>","null",""
"","","","","","html-keyboard-response","84","249860","0.0-84.0","423F1A561CED4608AAFDEFB328927865","523dda02-a324-41f8-b834-913d019d6062","5479079d-2186-49b2-89e2-e3afab6abcc2","","null","<div style=""display: flex; justify-content: center; align-items: center;"">
                <img src=""images/causal/causal_series_18/causal_series_18_b.jpg"" style=""width: 300px; height: 300px;"" />
              </div>","null",""
"","","","","","html-keyboard-response","85","252877","0.0-85.0","423F1A561CED4608AAFDEFB328927865","523dda02-a324-41f8-b834-913d019d6062","5479079d-2186-49b2-89e2-e3afab6abcc2","","null","<div style=""display: flex; justify-content: center; align-items: center;"">
                <img src=""images/causal/causal_series_18/causal_series_18_c.jpg"" style=""width: 300px; height: 300px;"" />
              </div>","null",""
"","","","","","html-button-response","86","254412","0.0-86.0","423F1A561CED4608AAFDEFB328927865","523dda02-a324-41f8-b834-913d019d6062","5479079d-2186-49b2-89e2-e3afab6abcc2","","1534","
    <div style=""display: flex; justify-content: center; align-items: center;"">
      <img src=""images/blue_deck_1.png"" style=""width: 300px; height: 300px; margin-right: 10px;"" />
      <img src=""images/red_deck_2.png"" style=""width: 300px; height: 300px;"" />
    </div>","0","0"
"","","","","","html-keyboard-response","87","257417","0.0-87.0-0.0-0.0","423F1A561CED4608AAFDEFB328927865","523dda02-a324-41f8-b834-913d019d6062","5479079d-2186-49b2-89e2-e3afab6abcc2","","null","<div style=""display: flex; justify-content: center; align-items: center;"">
                <img src=""images/causal/causal_series_18/causal_series_18_d.jpg"" style=""width: 300px; height: 300px;"" />
              </div>","null",""
"","","","","","html-keyboard-response","88","260434","0.0-88.0","423F1A561CED4608AAFDEFB328927865","523dda02-a324-41f8-b834-913d019d6062","5479079d-2186-49b2-89e2-e3afab6abcc2","","null","<div style=""display: flex; justify-content: center; align-items: center;"">
                <img src=""images/other/blank.jpg"" style=""width: 300px; height: 300px;"" />
              </div>","null",""
"","","","","","html-keyboard-response","89","263445","0.0-89.0","423F1A561CED4608AAFDEFB328927865","523dda02-a324-41f8-b834-913d019d6062","5479079d-2186-49b2-89e2-e3afab6abcc2","","null","<div style=""display: flex; justify-content: center; align-items: center;"">
                <img src=""images/causal/causal_series_16/causal_series_16_a.jpg"" style=""width: 300px; height: 300px;"" />
              </div>","null",""
"","","","","","html-keyboard-response","90","266447","0.0-90.0","423F1A561CED4608AAFDEFB328927865","523dda02-a324-41f8-b834-913d019d6062","5479079d-2186-49b2-89e2-e3afab6abcc2","","null","<div style=""display: flex; justify-content: center; align-items: center;"">
                <img src=""images/causal/causal_series_16/causal_series_16_b.jpg"" style=""width: 300px; height: 300px;"" />
              </div>","null",""
"","","","","","html-keyboard-response","91","269449","0.0-91.0","423F1A561CED4608AAFDEFB328927865","523dda02-a324-41f8-b834-913d019d6062","5479079d-2186-49b2-89e2-e3afab6abcc2","","null","<div style=""display: flex; justify-content: center; align-items: center;"">
                <img src=""images/causal/causal_series_16/causal_series_16_c.jpg"" style=""width: 300px; height: 300px;"" />
              </div>","null",""
"","","","","","html-button-response","92","270878","0.0-92.0","423F1A561CED4608AAFDEFB328927865","523dda02-a324-41f8-b834-913d019d6062","5479079d-2186-49b2-89e2-e3afab6abcc2","","1428","
    <div style=""display: flex; justify-content: center; align-items: center;"">
      <img src=""images/blue_deck_1.png"" style=""width: 300px; height: 300px; margin-right: 10px;"" />
      <img src=""images/red_deck_2.png"" style=""width: 300px; height: 300px;"" />
    </div>","1","1"
"","","","","","html-keyboard-response","93","273894","0.0-93.0-1.0-0.0","423F1A561CED4608AAFDEFB328927865","523dda02-a324-41f8-b834-913d019d6062","5479079d-2186-49b2-89e2-e3afab6abcc2","","null","<div style=""display: flex; justify-content: center; align-items: center;"">
                <img src=""images/semantic/semantic_series_16/semantic_series_16_d.jpg"" style=""width: 300px; height: 300px;"" />
              </div>","null",""
"","","","","","html-keyboard-response","94","276896","0.0-94.0","423F1A561CED4608AAFDEFB328927865","523dda02-a324-41f8-b834-913d019d6062","5479079d-2186-49b2-89e2-e3afab6abcc2","","null","<div style=""display: flex; justify-content: center; align-items: center;"">
                <img src=""images/other/blank.jpg"" style=""width: 300px; height: 300px;"" />
              </div>","null",""
"","","","","","html-keyboard-response","95","279897","0.0-95.0","423F1A561CED4608AAFDEFB328927865","523dda02-a324-41f8-b834-913d019d6062","5479079d-2186-49b2-89e2-e3afab6abcc2","","null","<div style=""display: flex; justify-content: center; align-items: center;"">
                <img src=""images/causal/causal_series_4/causal_series_4_a.jpg"" style=""width: 300px; height: 300px;"" />
              </div>","null",""
"","","","","","html-keyboard-response","96","282909","0.0-96.0","423F1A561CED4608AAFDEFB328927865","523dda02-a324-41f8-b834-913d019d6062","5479079d-2186-49b2-89e2-e3afab6abcc2","","null","<div style=""display: flex; justify-content: center; align-items: center;"">
                <img src=""images/causal/causal_series_4/causal_series_4_b.jpg"" style=""width: 300px; height: 300px;"" />
              </div>","null",""
"","","","","","html-keyboard-response","97","285923","0.0-97.0","423F1A561CED4608AAFDEFB328927865","523dda02-a324-41f8-b834-913d019d6062","5479079d-2186-49b2-89e2-e3afab6abcc2","","null","<div style=""display: flex; justify-content: center; align-items: center;"">
                <img src=""images/causal/causal_series_4/causal_series_4_c.jpg"" style=""width: 300px; height: 300px;"" />
              </div>","null",""
"","","","","","html-button-response","98","286777","0.0-98.0","423F1A561CED4608AAFDEFB328927865","523dda02-a324-41f8-b834-913d019d6062","5479079d-2186-49b2-89e2-e3afab6abcc2","","852","
    <div style=""display: flex; justify-content: center; align-items: center;"">
      <img src=""images/blue_deck_1.png"" style=""width: 300px; height: 300px; margin-right: 10px;"" />
      <img src=""images/red_deck_2.png"" style=""width: 300px; height: 300px;"" />
    </div>","0","0"
"","","","","","html-keyboard-response","99","289792","0.0-99.0-0.0-0.0","423F1A561CED4608AAFDEFB328927865","523dda02-a324-41f8-b834-913d019d6062","5479079d-2186-49b2-89e2-e3afab6abcc2","","null","<div style=""display: flex; justify-content: center; align-items: center;"">
                <img src=""images/causal/causal_series_4/causal_series_4_d.jpg"" style=""width: 300px; height: 300px;"" />
              </div>","null",""
"","","","","","html-keyboard-response","100","292797","0.0-100.0","423F1A561CED4608AAFDEFB328927865","523dda02-a324-41f8-b834-913d019d6062","5479079d-2186-49b2-89e2-e3afab6abcc2","","null","<div style=""display: flex; justify-content: center; align-items: center;"">
                <img src=""images/other/blank.jpg"" style=""width: 300px; height: 300px;"" />
              </div>","null",""
"","","","","","html-keyboard-response","101","295804","0.0-101.0","423F1A561CED4608AAFDEFB328927865","523dda02-a324-41f8-b834-913d019d6062","5479079d-2186-49b2-89e2-e3afab6abcc2","","null","<div style=""display: flex; justify-content: center; align-items: center;"">
                <img src=""images/causal/causal_series_7/causal_series_7_a.jpg"" style=""width: 300px; height: 300px;"" />
              </div>","null",""
"","","","","","html-keyboard-response","102","298819","0.0-102.0","423F1A561CED4608AAFDEFB328927865","523dda02-a324-41f8-b834-913d019d6062","5479079d-2186-49b2-89e2-e3afab6abcc2","","null","<div style=""display: flex; justify-content: center; align-items: center;"">
                <img src=""images/causal/causal_series_7/causal_series_7_b.jpg"" style=""width: 300px; height: 300px;"" />
              </div>","null",""
"","","","","","html-keyboard-response","103","301826","0.0-103.0","423F1A561CED4608AAFDEFB328927865","523dda02-a324-41f8-b834-913d019d6062","5479079d-2186-49b2-89e2-e3afab6abcc2","","null","<div style=""display: flex; justify-content: center; align-items: center;"">
                <img src=""images/causal/causal_series_7/causal_series_7_c.jpg"" style=""width: 300px; height: 300px;"" />
              </div>","null",""
"","","","","","html-button-response","104","306882","0.0-104.0","423F1A561CED4608AAFDEFB328927865","523dda02-a324-41f8-b834-913d019d6062","5479079d-2186-49b2-89e2-e3afab6abcc2","","5057","
    <div style=""display: flex; justify-content: center; align-items: center;"">
      <img src=""images/blue_deck_1.png"" style=""width: 300px; height: 300px; margin-right: 10px;"" />
      <img src=""images/red_deck_2.png"" style=""width: 300px; height: 300px;"" />
    </div>","0","0"
"","","","","","html-keyboard-response","105","309892","0.0-105.0-0.0-0.0","423F1A561CED4608AAFDEFB328927865","523dda02-a324-41f8-b834-913d019d6062","5479079d-2186-49b2-89e2-e3afab6abcc2","","null","<div style=""display: flex; justify-content: center; align-items: center;"">
                <img src=""images/causal/causal_series_7/causal_series_7_d.jpg"" style=""width: 300px; height: 300px;"" />
              </div>","null",""
"","","","","","html-keyboard-response","106","312907","0.0-106.0","423F1A561CED4608AAFDEFB328927865","523dda02-a324-41f8-b834-913d019d6062","5479079d-2186-49b2-89e2-e3afab6abcc2","","null","<div style=""display: flex; justify-content: center; align-items: center;"">
                <img src=""images/other/blank.jpg"" style=""width: 300px; height: 300px;"" />
              </div>","null",""
"","","","","","html-keyboard-response","107","315920","0.0-107.0","423F1A561CED4608AAFDEFB328927865","523dda02-a324-41f8-b834-913d019d6062","5479079d-2186-49b2-89e2-e3afab6abcc2","","null","<div style=""display: flex; justify-content: center; align-items: center;"">
                <img src=""images/causal/causal_series_1/causal_series_1_a.jpg"" style=""width: 300px; height: 300px;"" />
              </div>","null",""
"","","","","","html-keyboard-response","108","318921","0.0-108.0","423F1A561CED4608AAFDEFB328927865","523dda02-a324-41f8-b834-913d019d6062","5479079d-2186-49b2-89e2-e3afab6abcc2","","null","<div style=""display: flex; justify-content: center; align-items: center;"">
                <img src=""images/causal/causal_series_1/causal_series_1_b.jpg"" style=""width: 300px; height: 300px;"" />
              </div>","null",""
"","","","","","html-keyboard-response","109","321923","0.0-109.0","423F1A561CED4608AAFDEFB328927865","523dda02-a324-41f8-b834-913d019d6062","5479079d-2186-49b2-89e2-e3afab6abcc2","","null","<div style=""display: flex; justify-content: center; align-items: center;"">
                <img src=""images/causal/causal_series_1/causal_series_1_c.jpg"" style=""width: 300px; height: 300px;"" />
              </div>","null",""
"","","","","","html-button-response","110","325710","0.0-110.0","423F1A561CED4608AAFDEFB328927865","523dda02-a324-41f8-b834-913d019d6062","5479079d-2186-49b2-89e2-e3afab6abcc2","","3785","
    <div style=""display: flex; justify-content: center; align-items: center;"">
      <img src=""images/blue_deck_1.png"" style=""width: 300px; height: 300px; margin-right: 10px;"" />
      <img src=""images/red_deck_2.png"" style=""width: 300px; height: 300px;"" />
    </div>","1","1"
"","","","","","html-keyboard-response","111","328723","0.0-111.0-1.0-0.0","423F1A561CED4608AAFDEFB328927865","523dda02-a324-41f8-b834-913d019d6062","5479079d-2186-49b2-89e2-e3afab6abcc2","","null","<div style=""display: flex; justify-content: center; align-items: center;"">
                <img src=""images/semantic/semantic_series_1/semantic_series_1_d.jpg"" style=""width: 300px; height: 300px;"" />
              </div>","null",""
"","","","","","html-keyboard-response","112","331727","0.0-112.0","423F1A561CED4608AAFDEFB328927865","523dda02-a324-41f8-b834-913d019d6062","5479079d-2186-49b2-89e2-e3afab6abcc2","","null","<div style=""display: flex; justify-content: center; align-items: center;"">
                <img src=""images/other/blank.jpg"" style=""width: 300px; height: 300px;"" />
              </div>","null",""
"","","","","","survey-text","113","408482","0.0-113.0","423F1A561CED4608AAFDEFB328927865","523dda02-a324-41f8-b834-913d019d6062","5479079d-2186-49b2-89e2-e3afab6abcc2","","76744","","{""Q0"":""One deck might be designed for traditional card games, while the other could be tailored for specific games like poker, tarot reading, or even educational purposes.""}",""
"","","","","","survey-text","114","422508","0.0-114.0","423F1A561CED4608AAFDEFB328927865","523dda02-a324-41f8-b834-913d019d6062","5479079d-2186-49b2-89e2-e3afab6abcc2","","14020","","{""Q0"":""deck 1""}",""
"","","","","","html-button-response","115","430050","0.0-115.0","423F1A561CED4608AAFDEFB328927865","523dda02-a324-41f8-b834-913d019d6062","5479079d-2186-49b2-89e2-e3afab6abcc2","","7541","Which color deck does the fourth image continue the story from the series?","0",""
"","","","","","html-button-response","116","433258","0.0-116.0","423F1A561CED4608AAFDEFB328927865","523dda02-a324-41f8-b834-913d019d6062","5479079d-2186-49b2-89e2-e3afab6abcc2","","3206","Which color deck does the fourth image not follow the story from the series?","1",""
"","","","","","survey-text","117","446430","0.0-117.0","423F1A561CED4608AAFDEFB328927865","523dda02-a324-41f8-b834-913d019d6062","5479079d-2186-49b2-89e2-e3afab6abcc2","","13167","","{""Q0"":""FEMALE"",""Q1"":""26""}",""
"","","","","","instructions","118","453509","0.0-118.0","423F1A561CED4608AAFDEFB328927865","523dda02-a324-41f8-b834-913d019d6062","5479079d-2186-49b2-89e2-e3afab6abcc2","[{""page_index"":0,""viewing_time"":7078}]","7079","","",""
