"success","timeout","failed_images","failed_audio","failed_video","trial_type","trial_index","time_elapsed","internal_node_id","subject_id","study_id","session_id","view_history","rt","stimulus","response","choice"
"true","false","[]","[]","[]","preload","0","10209","0.0-0.0","CC274A6AFDB649DBBF77DA7C70D3A118","0ae275ca-32f4-4ac3-b0a8-dc0c098eb46a","5479079d-2186-49b2-89e2-e3afab6abcc2","","","","",""
"","","","","","instructions","1","26039","0.0-1.0","CC274A6AFDB649DBBF77DA7C70D3A118","0ae275ca-32f4-4ac3-b0a8-dc0c098eb46a","5479079d-2186-49b2-89e2-e3afab6abcc2","[{""page_index"":0,""viewing_time"":15830}]","15830","","",""
"","","","","","instructions","2","40862","0.0-2.0","CC274A6AFDB649DBBF77DA7C70D3A118","0ae275ca-32f4-4ac3-b0a8-dc0c098eb46a","5479079d-2186-49b2-89e2-e3afab6abcc2","[{""page_index"":0,""viewing_time"":14822}]","14822","","",""
"true","","","","","fullscreen","3","43827","0.0-3.0","CC274A6AFDB649DBBF77DA7C70D3A118","0ae275ca-32f4-4ac3-b0a8-dc0c098eb46a","5479079d-2186-49b2-89e2-e3afab6abcc2","","1957","","",""
"","","","","","instructions","4","53381","0.0-4.0","CC274A6AFDB649DBBF77DA7C70D3A118","0ae275ca-32f4-4ac3-b0a8-dc0c098eb46a","5479079d-2186-49b2-89e2-e3afab6abcc2","[{""page_index"":0,""viewing_time"":9553}]","9553","","",""
"","","","","","html-keyboard-response","5","56390","0.0-5.0","CC274A6AFDB649DBBF77DA7C70D3A118","0ae275ca-32f4-4ac3-b0a8-dc0c098eb46a","5479079d-2186-49b2-89e2-e3afab6abcc2","","null","<div style=""display: flex; justify-content: center; align-items: center;"">
                <img src=""images/causal/causal_series_7/causal_series_7_a.jpg"" style=""width: 300px; height: 300px;"" />
              </div>","null",""
"","","","","","html-keyboard-response","6","59396","0.0-6.0","CC274A6AFDB649DBBF77DA7C70D3A118","0ae275ca-32f4-4ac3-b0a8-dc0c098eb46a","5479079d-2186-49b2-89e2-e3afab6abcc2","","null","<div style=""display: flex; justify-content: center; align-items: center;"">
                <img src=""images/causal/causal_series_7/causal_series_7_b.jpg"" style=""width: 300px; height: 300px;"" />
              </div>","null",""
"","","","","","html-keyboard-response","7","62408","0.0-7.0","CC274A6AFDB649DBBF77DA7C70D3A118","0ae275ca-32f4-4ac3-b0a8-dc0c098eb46a","5479079d-2186-49b2-89e2-e3afab6abcc2","","null","<div style=""display: flex; justify-content: center; align-items: center;"">
                <img src=""images/causal/causal_series_7/causal_series_7_c.jpg"" style=""width: 300px; height: 300px;"" />
              </div>","null",""
"","","","","","html-button-response","8","65523","0.0-8.0","CC274A6AFDB649DBBF77DA7C70D3A118","0ae275ca-32f4-4ac3-b0a8-dc0c098eb46a","5479079d-2186-49b2-89e2-e3afab6abcc2","","3112","
    <div style=""display: flex; justify-content: center; align-items: center;"">
      <img src=""images/blue_deck_1.png"" style=""width: 300px; height: 300px; margin-right: 10px;"" />
      <img src=""images/red_deck_2.png"" style=""width: 300px; height: 300px;"" />
    </div>","1","1"
"","","","","","html-keyboard-response","9","68539","0.0-9.0-1.0-0.0","CC274A6AFDB649DBBF77DA7C70D3A118","0ae275ca-32f4-4ac3-b0a8-dc0c098eb46a","5479079d-2186-49b2-89e2-e3afab6abcc2","","null","<div style=""display: flex; justify-content: center; align-items: center;"">
                <img src=""images/semantic/semantic_series_7/semantic_series_7_d.jpg"" style=""width: 300px; height: 300px;"" />
              </div>","null",""
"","","","","","html-keyboard-response","10","71543","0.0-10.0","CC274A6AFDB649DBBF77DA7C70D3A118","0ae275ca-32f4-4ac3-b0a8-dc0c098eb46a","5479079d-2186-49b2-89e2-e3afab6abcc2","","null","<div style=""display: flex; justify-content: center; align-items: center;"">
                <img src=""images/other/blank.jpg"" style=""width: 300px; height: 300px;"" />
              </div>","null",""
"","","","","","html-keyboard-response","11","74549","0.0-11.0","CC274A6AFDB649DBBF77DA7C70D3A118","0ae275ca-32f4-4ac3-b0a8-dc0c098eb46a","5479079d-2186-49b2-89e2-e3afab6abcc2","","null","<div style=""display: flex; justify-content: center; align-items: center;"">
                <img src=""images/causal/causal_series_10/causal_series_10_a.jpg"" style=""width: 300px; height: 300px;"" />
              </div>","null",""
"","","","","","html-keyboard-response","12","77556","0.0-12.0","CC274A6AFDB649DBBF77DA7C70D3A118","0ae275ca-32f4-4ac3-b0a8-dc0c098eb46a","5479079d-2186-49b2-89e2-e3afab6abcc2","","null","<div style=""display: flex; justify-content: center; align-items: center;"">
                <img src=""images/causal/causal_series_10/causal_series_10_b.jpg"" style=""width: 300px; height: 300px;"" />
              </div>","null",""
"","","","","","html-keyboard-response","13","80564","0.0-13.0","CC274A6AFDB649DBBF77DA7C70D3A118","0ae275ca-32f4-4ac3-b0a8-dc0c098eb46a","5479079d-2186-49b2-89e2-e3afab6abcc2","","null","<div style=""display: flex; justify-content: center; align-items: center;"">
                <img src=""images/causal/causal_series_10/causal_series_10_c.jpg"" style=""width: 300px; height: 300px;"" />
              </div>","null",""
"","","","","","html-button-response","14","81689","0.0-14.0","CC274A6AFDB649DBBF77DA7C70D3A118","0ae275ca-32f4-4ac3-b0a8-dc0c098eb46a","5479079d-2186-49b2-89e2-e3afab6abcc2","","1123","
    <div style=""display: flex; justify-content: center; align-items: center;"">
      <img src=""images/blue_deck_1.png"" style=""width: 300px; height: 300px; margin-right: 10px;"" />
      <img src=""images/red_deck_2.png"" style=""width: 300px; height: 300px;"" />
    </div>","0","0"
"","","","","","html-keyboard-response","15","84693","0.0-15.0-0.0-0.0","CC274A6AFDB649DBBF77DA7C70D3A118","0ae275ca-32f4-4ac3-b0a8-dc0c098eb46a","5479079d-2186-49b2-89e2-e3afab6abcc2","","null","<div style=""display: flex; justify-content: center; align-items: center;"">
                <img src=""images/causal/causal_series_10/causal_series_10_d.jpg"" style=""width: 300px; height: 300px;"" />
              </div>","null",""
"","","","","","html-keyboard-response","16","87695","0.0-16.0","CC274A6AFDB649DBBF77DA7C70D3A118","0ae275ca-32f4-4ac3-b0a8-dc0c098eb46a","5479079d-2186-49b2-89e2-e3afab6abcc2","","null","<div style=""display: flex; justify-content: center; align-items: center;"">
                <img src=""images/other/blank.jpg"" style=""width: 300px; height: 300px;"" />
              </div>","null",""
"","","","","","html-keyboard-response","17","90706","0.0-17.0","CC274A6AFDB649DBBF77DA7C70D3A118","0ae275ca-32f4-4ac3-b0a8-dc0c098eb46a","5479079d-2186-49b2-89e2-e3afab6abcc2","","null","<div style=""display: flex; justify-content: center; align-items: center;"">
                <img src=""images/causal/causal_series_8/causal_series_8_a.jpg"" style=""width: 300px; height: 300px;"" />
              </div>","null",""
"","","","","","html-keyboard-response","18","93719","0.0-18.0","CC274A6AFDB649DBBF77DA7C70D3A118","0ae275ca-32f4-4ac3-b0a8-dc0c098eb46a","5479079d-2186-49b2-89e2-e3afab6abcc2","","null","<div style=""display: flex; justify-content: center; align-items: center;"">
                <img src=""images/causal/causal_series_8/causal_series_8_b.jpg"" style=""width: 300px; height: 300px;"" />
              </div>","null",""
"","","","","","html-keyboard-response","19","96732","0.0-19.0","CC274A6AFDB649DBBF77DA7C70D3A118","0ae275ca-32f4-4ac3-b0a8-dc0c098eb46a","5479079d-2186-49b2-89e2-e3afab6abcc2","","null","<div style=""display: flex; justify-content: center; align-items: center;"">
                <img src=""images/causal/causal_series_8/causal_series_8_c.jpg"" style=""width: 300px; height: 300px;"" />
              </div>","null",""
"","","","","","html-button-response","20","106743","0.0-20.0","CC274A6AFDB649DBBF77DA7C70D3A118","0ae275ca-32f4-4ac3-b0a8-dc0c098eb46a","5479079d-2186-49b2-89e2-e3afab6abcc2","","10008","
    <div style=""display: flex; justify-content: center; align-items: center;"">
      <img src=""images/blue_deck_1.png"" style=""width: 300px; height: 300px; margin-right: 10px;"" />
      <img src=""images/red_deck_2.png"" style=""width: 300px; height: 300px;"" />
    </div>","1","1"
"","","","","","html-keyboard-response","21","109751","0.0-21.0-1.0-0.0","CC274A6AFDB649DBBF77DA7C70D3A118","0ae275ca-32f4-4ac3-b0a8-dc0c098eb46a","5479079d-2186-49b2-89e2-e3afab6abcc2","","null","<div style=""display: flex; justify-content: center; align-items: center;"">
                <img src=""images/semantic/semantic_series_8/semantic_series_8_d.jpg"" style=""width: 300px; height: 300px;"" />
              </div>","null",""
"","","","","","html-keyboard-response","22","112760","0.0-22.0","CC274A6AFDB649DBBF77DA7C70D3A118","0ae275ca-32f4-4ac3-b0a8-dc0c098eb46a","5479079d-2186-49b2-89e2-e3afab6abcc2","","null","<div style=""display: flex; justify-content: center; align-items: center;"">
                <img src=""images/other/blank.jpg"" style=""width: 300px; height: 300px;"" />
              </div>","null",""
"","","","","","html-keyboard-response","23","115777","0.0-23.0","CC274A6AFDB649DBBF77DA7C70D3A118","0ae275ca-32f4-4ac3-b0a8-dc0c098eb46a","5479079d-2186-49b2-89e2-e3afab6abcc2","","null","<div style=""display: flex; justify-content: center; align-items: center;"">
                <img src=""images/causal/causal_series_16/causal_series_16_a.jpg"" style=""width: 300px; height: 300px;"" />
              </div>","null",""
"","","","","","html-keyboard-response","24","118780","0.0-24.0","CC274A6AFDB649DBBF77DA7C70D3A118","0ae275ca-32f4-4ac3-b0a8-dc0c098eb46a","5479079d-2186-49b2-89e2-e3afab6abcc2","","null","<div style=""display: flex; justify-content: center; align-items: center;"">
                <img src=""images/causal/causal_series_16/causal_series_16_b.jpg"" style=""width: 300px; height: 300px;"" />
              </div>","null",""
"","","","","","html-keyboard-response","25","121783","0.0-25.0","CC274A6AFDB649DBBF77DA7C70D3A118","0ae275ca-32f4-4ac3-b0a8-dc0c098eb46a","5479079d-2186-49b2-89e2-e3afab6abcc2","","null","<div style=""display: flex; justify-content: center; align-items: center;"">
                <img src=""images/causal/causal_series_16/causal_series_16_c.jpg"" style=""width: 300px; height: 300px;"" />
              </div>","null",""
"","","","","","html-button-response","26","125095","0.0-26.0","CC274A6AFDB649DBBF77DA7C70D3A118","0ae275ca-32f4-4ac3-b0a8-dc0c098eb46a","5479079d-2186-49b2-89e2-e3afab6abcc2","","3311","
    <div style=""display: flex; justify-content: center; align-items: center;"">
      <img src=""images/blue_deck_1.png"" style=""width: 300px; height: 300px; margin-right: 10px;"" />
      <img src=""images/red_deck_2.png"" style=""width: 300px; height: 300px;"" />
    </div>","0","0"
"","","","","","html-keyboard-response","27","128096","0.0-27.0-0.0-0.0","CC274A6AFDB649DBBF77DA7C70D3A118","0ae275ca-32f4-4ac3-b0a8-dc0c098eb46a","5479079d-2186-49b2-89e2-e3afab6abcc2","","null","<div style=""display: flex; justify-content: center; align-items: center;"">
                <img src=""images/causal/causal_series_16/causal_series_16_d.jpg"" style=""width: 300px; height: 300px;"" />
              </div>","null",""
"","","","","","html-keyboard-response","28","131104","0.0-28.0","CC274A6AFDB649DBBF77DA7C70D3A118","0ae275ca-32f4-4ac3-b0a8-dc0c098eb46a","5479079d-2186-49b2-89e2-e3afab6abcc2","","null","<div style=""display: flex; justify-content: center; align-items: center;"">
                <img src=""images/other/blank.jpg"" style=""width: 300px; height: 300px;"" />
              </div>","null",""
"","","","","","html-keyboard-response","29","134111","0.0-29.0","CC274A6AFDB649DBBF77DA7C70D3A118","0ae275ca-32f4-4ac3-b0a8-dc0c098eb46a","5479079d-2186-49b2-89e2-e3afab6abcc2","","null","<div style=""display: flex; justify-content: center; align-items: center;"">
                <img src=""images/causal/causal_series_14/causal_series_14_a.jpg"" style=""width: 300px; height: 300px;"" />
              </div>","null",""
"","","","","","html-keyboard-response","30","137127","0.0-30.0","CC274A6AFDB649DBBF77DA7C70D3A118","0ae275ca-32f4-4ac3-b0a8-dc0c098eb46a","5479079d-2186-49b2-89e2-e3afab6abcc2","","null","<div style=""display: flex; justify-content: center; align-items: center;"">
                <img src=""images/causal/causal_series_14/causal_series_14_b.jpg"" style=""width: 300px; height: 300px;"" />
              </div>","null",""
"","","","","","html-keyboard-response","31","140132","0.0-31.0","CC274A6AFDB649DBBF77DA7C70D3A118","0ae275ca-32f4-4ac3-b0a8-dc0c098eb46a","5479079d-2186-49b2-89e2-e3afab6abcc2","","null","<div style=""display: flex; justify-content: center; align-items: center;"">
                <img src=""images/causal/causal_series_14/causal_series_14_c.jpg"" style=""width: 300px; height: 300px;"" />
              </div>","null",""
"","","","","","html-button-response","32","141960","0.0-32.0","CC274A6AFDB649DBBF77DA7C70D3A118","0ae275ca-32f4-4ac3-b0a8-dc0c098eb46a","5479079d-2186-49b2-89e2-e3afab6abcc2","","1825","
    <div style=""display: flex; justify-content: center; align-items: center;"">
      <img src=""images/blue_deck_1.png"" style=""width: 300px; height: 300px; margin-right: 10px;"" />
      <img src=""images/red_deck_2.png"" style=""width: 300px; height: 300px;"" />
    </div>","1","1"
"","","","","","html-keyboard-response","33","144970","0.0-33.0-1.0-0.0","CC274A6AFDB649DBBF77DA7C70D3A118","0ae275ca-32f4-4ac3-b0a8-dc0c098eb46a","5479079d-2186-49b2-89e2-e3afab6abcc2","","null","<div style=""display: flex; justify-content: center; align-items: center;"">
                <img src=""images/semantic/semantic_series_14/semantic_series_14_d.jpg"" style=""width: 300px; height: 300px;"" />
              </div>","null",""
"","","","","","html-keyboard-response","34","147973","0.0-34.0","CC274A6AFDB649DBBF77DA7C70D3A118","0ae275ca-32f4-4ac3-b0a8-dc0c098eb46a","5479079d-2186-49b2-89e2-e3afab6abcc2","","null","<div style=""display: flex; justify-content: center; align-items: center;"">
                <img src=""images/other/blank.jpg"" style=""width: 300px; height: 300px;"" />
              </div>","null",""
"","","","","","html-keyboard-response","35","150988","0.0-35.0","CC274A6AFDB649DBBF77DA7C70D3A118","0ae275ca-32f4-4ac3-b0a8-dc0c098eb46a","5479079d-2186-49b2-89e2-e3afab6abcc2","","null","<div style=""display: flex; justify-content: center; align-items: center;"">
                <img src=""images/causal/causal_series_11/causal_series_11_a.jpg"" style=""width: 300px; height: 300px;"" />
              </div>","null",""
"","","","","","html-keyboard-response","36","153999","0.0-36.0","CC274A6AFDB649DBBF77DA7C70D3A118","0ae275ca-32f4-4ac3-b0a8-dc0c098eb46a","5479079d-2186-49b2-89e2-e3afab6abcc2","","null","<div style=""display: flex; justify-content: center; align-items: center;"">
                <img src=""images/causal/causal_series_11/causal_series_11_b.jpg"" style=""width: 300px; height: 300px;"" />
              </div>","null",""
"","","","","","html-keyboard-response","37","157008","0.0-37.0","CC274A6AFDB649DBBF77DA7C70D3A118","0ae275ca-32f4-4ac3-b0a8-dc0c098eb46a","5479079d-2186-49b2-89e2-e3afab6abcc2","","null","<div style=""display: flex; justify-content: center; align-items: center;"">
                <img src=""images/causal/causal_series_11/causal_series_11_c.jpg"" style=""width: 300px; height: 300px;"" />
              </div>","null",""
"","","","","","html-button-response","38","167156","0.0-38.0","CC274A6AFDB649DBBF77DA7C70D3A118","0ae275ca-32f4-4ac3-b0a8-dc0c098eb46a","5479079d-2186-49b2-89e2-e3afab6abcc2","","10146","
    <div style=""display: flex; justify-content: center; align-items: center;"">
      <img src=""images/blue_deck_1.png"" style=""width: 300px; height: 300px; margin-right: 10px;"" />
      <img src=""images/red_deck_2.png"" style=""width: 300px; height: 300px;"" />
    </div>","1","1"
"","","","","","html-keyboard-response","39","170171","0.0-39.0-1.0-0.0","CC274A6AFDB649DBBF77DA7C70D3A118","0ae275ca-32f4-4ac3-b0a8-dc0c098eb46a","5479079d-2186-49b2-89e2-e3afab6abcc2","","null","<div style=""display: flex; justify-content: center; align-items: center;"">
                <img src=""images/semantic/semantic_series_11/semantic_series_11_d.jpg"" style=""width: 300px; height: 300px;"" />
              </div>","null",""
"","","","","","html-keyboard-response","40","173179","0.0-40.0","CC274A6AFDB649DBBF77DA7C70D3A118","0ae275ca-32f4-4ac3-b0a8-dc0c098eb46a","5479079d-2186-49b2-89e2-e3afab6abcc2","","null","<div style=""display: flex; justify-content: center; align-items: center;"">
                <img src=""images/other/blank.jpg"" style=""width: 300px; height: 300px;"" />
              </div>","null",""
"","","","","","html-keyboard-response","41","176183","0.0-41.0","CC274A6AFDB649DBBF77DA7C70D3A118","0ae275ca-32f4-4ac3-b0a8-dc0c098eb46a","5479079d-2186-49b2-89e2-e3afab6abcc2","","null","<div style=""display: flex; justify-content: center; align-items: center;"">
                <img src=""images/causal/causal_series_2/causal_series_2_a.jpg"" style=""width: 300px; height: 300px;"" />
              </div>","null",""
"","","","","","html-keyboard-response","42","179193","0.0-42.0","CC274A6AFDB649DBBF77DA7C70D3A118","0ae275ca-32f4-4ac3-b0a8-dc0c098eb46a","5479079d-2186-49b2-89e2-e3afab6abcc2","","null","<div style=""display: flex; justify-content: center; align-items: center;"">
                <img src=""images/causal/causal_series_2/causal_series_2_b.jpg"" style=""width: 300px; height: 300px;"" />
              </div>","null",""
"","","","","","html-keyboard-response","43","182208","0.0-43.0","CC274A6AFDB649DBBF77DA7C70D3A118","0ae275ca-32f4-4ac3-b0a8-dc0c098eb46a","5479079d-2186-49b2-89e2-e3afab6abcc2","","null","<div style=""display: flex; justify-content: center; align-items: center;"">
                <img src=""images/causal/causal_series_2/causal_series_2_c.jpg"" style=""width: 300px; height: 300px;"" />
              </div>","null",""
"","","","","","html-button-response","44","184505","0.0-44.0","CC274A6AFDB649DBBF77DA7C70D3A118","0ae275ca-32f4-4ac3-b0a8-dc0c098eb46a","5479079d-2186-49b2-89e2-e3afab6abcc2","","2295","
    <div style=""display: flex; justify-content: center; align-items: center;"">
      <img src=""images/blue_deck_1.png"" style=""width: 300px; height: 300px; margin-right: 10px;"" />
      <img src=""images/red_deck_2.png"" style=""width: 300px; height: 300px;"" />
    </div>","0","0"
"","","","","","html-keyboard-response","45","187515","0.0-45.0-0.0-0.0","CC274A6AFDB649DBBF77DA7C70D3A118","0ae275ca-32f4-4ac3-b0a8-dc0c098eb46a","5479079d-2186-49b2-89e2-e3afab6abcc2","","null","<div style=""display: flex; justify-content: center; align-items: center;"">
                <img src=""images/causal/causal_series_2/causal_series_2_d.jpg"" style=""width: 300px; height: 300px;"" />
              </div>","null",""
"","","","","","html-keyboard-response","46","190526","0.0-46.0","CC274A6AFDB649DBBF77DA7C70D3A118","0ae275ca-32f4-4ac3-b0a8-dc0c098eb46a","5479079d-2186-49b2-89e2-e3afab6abcc2","","null","<div style=""display: flex; justify-content: center; align-items: center;"">
                <img src=""images/other/blank.jpg"" style=""width: 300px; height: 300px;"" />
              </div>","null",""
"","","","","","html-keyboard-response","47","193536","0.0-47.0","CC274A6AFDB649DBBF77DA7C70D3A118","0ae275ca-32f4-4ac3-b0a8-dc0c098eb46a","5479079d-2186-49b2-89e2-e3afab6abcc2","","null","<div style=""display: flex; justify-content: center; align-items: center;"">
                <img src=""images/causal/causal_series_17/causal_series_17_a.jpg"" style=""width: 300px; height: 300px;"" />
              </div>","null",""
"","","","","","html-keyboard-response","48","196546","0.0-48.0","CC274A6AFDB649DBBF77DA7C70D3A118","0ae275ca-32f4-4ac3-b0a8-dc0c098eb46a","5479079d-2186-49b2-89e2-e3afab6abcc2","","null","<div style=""display: flex; justify-content: center; align-items: center;"">
                <img src=""images/causal/causal_series_17/causal_series_17_b.jpg"" style=""width: 300px; height: 300px;"" />
              </div>","null",""
"","","","","","html-keyboard-response","49","199551","0.0-49.0","CC274A6AFDB649DBBF77DA7C70D3A118","0ae275ca-32f4-4ac3-b0a8-dc0c098eb46a","5479079d-2186-49b2-89e2-e3afab6abcc2","","null","<div style=""display: flex; justify-content: center; align-items: center;"">
                <img src=""images/causal/causal_series_17/causal_series_17_c.jpg"" style=""width: 300px; height: 300px;"" />
              </div>","null",""
"","","","","","html-button-response","50","201560","0.0-50.0","CC274A6AFDB649DBBF77DA7C70D3A118","0ae275ca-32f4-4ac3-b0a8-dc0c098eb46a","5479079d-2186-49b2-89e2-e3afab6abcc2","","2007","
    <div style=""display: flex; justify-content: center; align-items: center;"">
      <img src=""images/blue_deck_1.png"" style=""width: 300px; height: 300px; margin-right: 10px;"" />
      <img src=""images/red_deck_2.png"" style=""width: 300px; height: 300px;"" />
    </div>","1","1"
"","","","","","html-keyboard-response","51","204574","0.0-51.0-1.0-0.0","CC274A6AFDB649DBBF77DA7C70D3A118","0ae275ca-32f4-4ac3-b0a8-dc0c098eb46a","5479079d-2186-49b2-89e2-e3afab6abcc2","","null","<div style=""display: flex; justify-content: center; align-items: center;"">
                <img src=""images/semantic/semantic_series_17/semantic_series_17_d.jpg"" style=""width: 300px; height: 300px;"" />
              </div>","null",""
"","","","","","html-keyboard-response","52","207580","0.0-52.0","CC274A6AFDB649DBBF77DA7C70D3A118","0ae275ca-32f4-4ac3-b0a8-dc0c098eb46a","5479079d-2186-49b2-89e2-e3afab6abcc2","","null","<div style=""display: flex; justify-content: center; align-items: center;"">
                <img src=""images/other/blank.jpg"" style=""width: 300px; height: 300px;"" />
              </div>","null",""
"","","","","","html-keyboard-response","53","210587","0.0-53.0","CC274A6AFDB649DBBF77DA7C70D3A118","0ae275ca-32f4-4ac3-b0a8-dc0c098eb46a","5479079d-2186-49b2-89e2-e3afab6abcc2","","null","<div style=""display: flex; justify-content: center; align-items: center;"">
                <img src=""images/causal/causal_series_12/causal_series_12_a.jpg"" style=""width: 300px; height: 300px;"" />
              </div>","null",""
"","","","","","html-keyboard-response","54","213599","0.0-54.0","CC274A6AFDB649DBBF77DA7C70D3A118","0ae275ca-32f4-4ac3-b0a8-dc0c098eb46a","5479079d-2186-49b2-89e2-e3afab6abcc2","","null","<div style=""display: flex; justify-content: center; align-items: center;"">
                <img src=""images/causal/causal_series_12/causal_series_12_b.jpg"" style=""width: 300px; height: 300px;"" />
              </div>","null",""
"","","","","","html-keyboard-response","55","216608","0.0-55.0","CC274A6AFDB649DBBF77DA7C70D3A118","0ae275ca-32f4-4ac3-b0a8-dc0c098eb46a","5479079d-2186-49b2-89e2-e3afab6abcc2","","null","<div style=""display: flex; justify-content: center; align-items: center;"">
                <img src=""images/causal/causal_series_12/causal_series_12_c.jpg"" style=""width: 300px; height: 300px;"" />
              </div>","null",""
"","","","","","html-button-response","56","217757","0.0-56.0","CC274A6AFDB649DBBF77DA7C70D3A118","0ae275ca-32f4-4ac3-b0a8-dc0c098eb46a","5479079d-2186-49b2-89e2-e3afab6abcc2","","1148","
    <div style=""display: flex; justify-content: center; align-items: center;"">
      <img src=""images/blue_deck_1.png"" style=""width: 300px; height: 300px; margin-right: 10px;"" />
      <img src=""images/red_deck_2.png"" style=""width: 300px; height: 300px;"" />
    </div>","1","1"
"","","","","","html-keyboard-response","57","220768","0.0-57.0-1.0-0.0","CC274A6AFDB649DBBF77DA7C70D3A118","0ae275ca-32f4-4ac3-b0a8-dc0c098eb46a","5479079d-2186-49b2-89e2-e3afab6abcc2","","null","<div style=""display: flex; justify-content: center; align-items: center;"">
                <img src=""images/semantic/semantic_series_12/semantic_series_12_d.jpg"" style=""width: 300px; height: 300px;"" />
              </div>","null",""
"","","","","","html-keyboard-response","58","223781","0.0-58.0","CC274A6AFDB649DBBF77DA7C70D3A118","0ae275ca-32f4-4ac3-b0a8-dc0c098eb46a","5479079d-2186-49b2-89e2-e3afab6abcc2","","null","<div style=""display: flex; justify-content: center; align-items: center;"">
                <img src=""images/other/blank.jpg"" style=""width: 300px; height: 300px;"" />
              </div>","null",""
"","","","","","html-keyboard-response","59","226792","0.0-59.0","CC274A6AFDB649DBBF77DA7C70D3A118","0ae275ca-32f4-4ac3-b0a8-dc0c098eb46a","5479079d-2186-49b2-89e2-e3afab6abcc2","","null","<div style=""display: flex; justify-content: center; align-items: center;"">
                <img src=""images/causal/causal_series_4/causal_series_4_a.jpg"" style=""width: 300px; height: 300px;"" />
              </div>","null",""
"","","","","","html-keyboard-response","60","229807","0.0-60.0","CC274A6AFDB649DBBF77DA7C70D3A118","0ae275ca-32f4-4ac3-b0a8-dc0c098eb46a","5479079d-2186-49b2-89e2-e3afab6abcc2","","null","<div style=""display: flex; justify-content: center; align-items: center;"">
                <img src=""images/causal/causal_series_4/causal_series_4_b.jpg"" style=""width: 300px; height: 300px;"" />
              </div>","null",""
"","","","","","html-keyboard-response","61","232823","0.0-61.0","CC274A6AFDB649DBBF77DA7C70D3A118","0ae275ca-32f4-4ac3-b0a8-dc0c098eb46a","5479079d-2186-49b2-89e2-e3afab6abcc2","","null","<div style=""display: flex; justify-content: center; align-items: center;"">
                <img src=""images/causal/causal_series_4/causal_series_4_c.jpg"" style=""width: 300px; height: 300px;"" />
              </div>","null",""
"","","","","","html-button-response","62","234497","0.0-62.0","CC274A6AFDB649DBBF77DA7C70D3A118","0ae275ca-32f4-4ac3-b0a8-dc0c098eb46a","5479079d-2186-49b2-89e2-e3afab6abcc2","","1672","
    <div style=""display: flex; justify-content: center; align-items: center;"">
      <img src=""images/blue_deck_1.png"" style=""width: 300px; height: 300px; margin-right: 10px;"" />
      <img src=""images/red_deck_2.png"" style=""width: 300px; height: 300px;"" />
    </div>","0","0"
"","","","","","html-keyboard-response","63","237509","0.0-63.0-0.0-0.0","CC274A6AFDB649DBBF77DA7C70D3A118","0ae275ca-32f4-4ac3-b0a8-dc0c098eb46a","5479079d-2186-49b2-89e2-e3afab6abcc2","","null","<div style=""display: flex; justify-content: center; align-items: center;"">
                <img src=""images/causal/causal_series_4/causal_series_4_d.jpg"" style=""width: 300px; height: 300px;"" />
              </div>","null",""
"","","","","","html-keyboard-response","64","240518","0.0-64.0","CC274A6AFDB649DBBF77DA7C70D3A118","0ae275ca-32f4-4ac3-b0a8-dc0c098eb46a","5479079d-2186-49b2-89e2-e3afab6abcc2","","null","<div style=""display: flex; justify-content: center; align-items: center;"">
                <img src=""images/other/blank.jpg"" style=""width: 300px; height: 300px;"" />
              </div>","null",""
"","","","","","html-keyboard-response","65","243521","0.0-65.0","CC274A6AFDB649DBBF77DA7C70D3A118","0ae275ca-32f4-4ac3-b0a8-dc0c098eb46a","5479079d-2186-49b2-89e2-e3afab6abcc2","","null","<div style=""display: flex; justify-content: center; align-items: center;"">
                <img src=""images/causal/causal_series_3/causal_series_3_a.jpg"" style=""width: 300px; height: 300px;"" />
              </div>","null",""
"","","","","","html-keyboard-response","66","246524","0.0-66.0","CC274A6AFDB649DBBF77DA7C70D3A118","0ae275ca-32f4-4ac3-b0a8-dc0c098eb46a","5479079d-2186-49b2-89e2-e3afab6abcc2","","null","<div style=""display: flex; justify-content: center; align-items: center;"">
                <img src=""images/causal/causal_series_3/causal_series_3_b.jpg"" style=""width: 300px; height: 300px;"" />
              </div>","null",""
"","","","","","html-keyboard-response","67","249538","0.0-67.0","CC274A6AFDB649DBBF77DA7C70D3A118","0ae275ca-32f4-4ac3-b0a8-dc0c098eb46a","5479079d-2186-49b2-89e2-e3afab6abcc2","","null","<div style=""display: flex; justify-content: center; align-items: center;"">
                <img src=""images/causal/causal_series_3/causal_series_3_c.jpg"" style=""width: 300px; height: 300px;"" />
              </div>","null",""
"","","","","","html-button-response","68","250920","0.0-68.0","CC274A6AFDB649DBBF77DA7C70D3A118","0ae275ca-32f4-4ac3-b0a8-dc0c098eb46a","5479079d-2186-49b2-89e2-e3afab6abcc2","","1381","
    <div style=""display: flex; justify-content: center; align-items: center;"">
      <img src=""images/blue_deck_1.png"" style=""width: 300px; height: 300px; margin-right: 10px;"" />
      <img src=""images/red_deck_2.png"" style=""width: 300px; height: 300px;"" />
    </div>","0","0"
"","","","","","html-keyboard-response","69","253922","0.0-69.0-0.0-0.0","CC274A6AFDB649DBBF77DA7C70D3A118","0ae275ca-32f4-4ac3-b0a8-dc0c098eb46a","5479079d-2186-49b2-89e2-e3afab6abcc2","","null","<div style=""display: flex; justify-content: center; align-items: center;"">
                <img src=""images/causal/causal_series_3/causal_series_3_d.jpg"" style=""width: 300px; height: 300px;"" />
              </div>","null",""
"","","","","","html-keyboard-response","70","256925","0.0-70.0","CC274A6AFDB649DBBF77DA7C70D3A118","0ae275ca-32f4-4ac3-b0a8-dc0c098eb46a","5479079d-2186-49b2-89e2-e3afab6abcc2","","null","<div style=""display: flex; justify-content: center; align-items: center;"">
                <img src=""images/other/blank.jpg"" style=""width: 300px; height: 300px;"" />
              </div>","null",""
"","","","","","html-keyboard-response","71","259931","0.0-71.0","CC274A6AFDB649DBBF77DA7C70D3A118","0ae275ca-32f4-4ac3-b0a8-dc0c098eb46a","5479079d-2186-49b2-89e2-e3afab6abcc2","","null","<div style=""display: flex; justify-content: center; align-items: center;"">
                <img src=""images/causal/causal_series_5/causal_series_5_a.jpg"" style=""width: 300px; height: 300px;"" />
              </div>","null",""
"","","","","","html-keyboard-response","72","262946","0.0-72.0","CC274A6AFDB649DBBF77DA7C70D3A118","0ae275ca-32f4-4ac3-b0a8-dc0c098eb46a","5479079d-2186-49b2-89e2-e3afab6abcc2","","null","<div style=""display: flex; justify-content: center; align-items: center;"">
                <img src=""images/causal/causal_series_5/causal_series_5_b.jpg"" style=""width: 300px; height: 300px;"" />
              </div>","null",""
"","","","","","html-keyboard-response","73","265961","0.0-73.0","CC274A6AFDB649DBBF77DA7C70D3A118","0ae275ca-32f4-4ac3-b0a8-dc0c098eb46a","5479079d-2186-49b2-89e2-e3afab6abcc2","","null","<div style=""display: flex; justify-content: center; align-items: center;"">
                <img src=""images/causal/causal_series_5/causal_series_5_c.jpg"" style=""width: 300px; height: 300px;"" />
              </div>","null",""
"","","","","","html-button-response","74","273135","0.0-74.0","CC274A6AFDB649DBBF77DA7C70D3A118","0ae275ca-32f4-4ac3-b0a8-dc0c098eb46a","5479079d-2186-49b2-89e2-e3afab6abcc2","","7172","
    <div style=""display: flex; justify-content: center; align-items: center;"">
      <img src=""images/blue_deck_1.png"" style=""width: 300px; height: 300px; margin-right: 10px;"" />
      <img src=""images/red_deck_2.png"" style=""width: 300px; height: 300px;"" />
    </div>","0","0"
"","","","","","html-keyboard-response","75","276138","0.0-75.0-0.0-0.0","CC274A6AFDB649DBBF77DA7C70D3A118","0ae275ca-32f4-4ac3-b0a8-dc0c098eb46a","5479079d-2186-49b2-89e2-e3afab6abcc2","","null","<div style=""display: flex; justify-content: center; align-items: center;"">
                <img src=""images/causal/causal_series_5/causal_series_5_d.jpg"" style=""width: 300px; height: 300px;"" />
              </div>","null",""
"","","","","","html-keyboard-response","76","279148","0.0-76.0","CC274A6AFDB649DBBF77DA7C70D3A118","0ae275ca-32f4-4ac3-b0a8-dc0c098eb46a","5479079d-2186-49b2-89e2-e3afab6abcc2","","null","<div style=""display: flex; justify-content: center; align-items: center;"">
                <img src=""images/other/blank.jpg"" style=""width: 300px; height: 300px;"" />
              </div>","null",""
"","","","","","html-keyboard-response","77","282150","0.0-77.0","CC274A6AFDB649DBBF77DA7C70D3A118","0ae275ca-32f4-4ac3-b0a8-dc0c098eb46a","5479079d-2186-49b2-89e2-e3afab6abcc2","","null","<div style=""display: flex; justify-content: center; align-items: center;"">
                <img src=""images/causal/causal_series_9/causal_series_9_a.jpg"" style=""width: 300px; height: 300px;"" />
              </div>","null",""
"","","","","","html-keyboard-response","78","285162","0.0-78.0","CC274A6AFDB649DBBF77DA7C70D3A118","0ae275ca-32f4-4ac3-b0a8-dc0c098eb46a","5479079d-2186-49b2-89e2-e3afab6abcc2","","null","<div style=""display: flex; justify-content: center; align-items: center;"">
                <img src=""images/causal/causal_series_9/causal_series_9_b.jpg"" style=""width: 300px; height: 300px;"" />
              </div>","null",""
"","","","","","html-keyboard-response","79","288176","0.0-79.0","CC274A6AFDB649DBBF77DA7C70D3A118","0ae275ca-32f4-4ac3-b0a8-dc0c098eb46a","5479079d-2186-49b2-89e2-e3afab6abcc2","","null","<div style=""display: flex; justify-content: center; align-items: center;"">
                <img src=""images/causal/causal_series_9/causal_series_9_c.jpg"" style=""width: 300px; height: 300px;"" />
              </div>","null",""
"","","","","","html-button-response","80","299895","0.0-80.0","CC274A6AFDB649DBBF77DA7C70D3A118","0ae275ca-32f4-4ac3-b0a8-dc0c098eb46a","5479079d-2186-49b2-89e2-e3afab6abcc2","","11717","
    <div style=""display: flex; justify-content: center; align-items: center;"">
      <img src=""images/blue_deck_1.png"" style=""width: 300px; height: 300px; margin-right: 10px;"" />
      <img src=""images/red_deck_2.png"" style=""width: 300px; height: 300px;"" />
    </div>","0","0"
"","","","","","html-keyboard-response","81","302905","0.0-81.0-0.0-0.0","CC274A6AFDB649DBBF77DA7C70D3A118","0ae275ca-32f4-4ac3-b0a8-dc0c098eb46a","5479079d-2186-49b2-89e2-e3afab6abcc2","","null","<div style=""display: flex; justify-content: center; align-items: center;"">
                <img src=""images/causal/causal_series_9/causal_series_9_d.jpg"" style=""width: 300px; height: 300px;"" />
              </div>","null",""
"","","","","","html-keyboard-response","82","305913","0.0-82.0","CC274A6AFDB649DBBF77DA7C70D3A118","0ae275ca-32f4-4ac3-b0a8-dc0c098eb46a","5479079d-2186-49b2-89e2-e3afab6abcc2","","null","<div style=""display: flex; justify-content: center; align-items: center;"">
                <img src=""images/other/blank.jpg"" style=""width: 300px; height: 300px;"" />
              </div>","null",""
"","","","","","html-keyboard-response","83","308922","0.0-83.0","CC274A6AFDB649DBBF77DA7C70D3A118","0ae275ca-32f4-4ac3-b0a8-dc0c098eb46a","5479079d-2186-49b2-89e2-e3afab6abcc2","","null","<div style=""display: flex; justify-content: center; align-items: center;"">
                <img src=""images/causal/causal_series_18/causal_series_18_a.jpg"" style=""width: 300px; height: 300px;"" />
              </div>","null",""
"","","","","","html-keyboard-response","84","311936","0.0-84.0","CC274A6AFDB649DBBF77DA7C70D3A118","0ae275ca-32f4-4ac3-b0a8-dc0c098eb46a","5479079d-2186-49b2-89e2-e3afab6abcc2","","null","<div style=""display: flex; justify-content: center; align-items: center;"">
                <img src=""images/causal/causal_series_18/causal_series_18_b.jpg"" style=""width: 300px; height: 300px;"" />
              </div>","null",""
"","","","","","html-keyboard-response","85","314951","0.0-85.0","CC274A6AFDB649DBBF77DA7C70D3A118","0ae275ca-32f4-4ac3-b0a8-dc0c098eb46a","5479079d-2186-49b2-89e2-e3afab6abcc2","","null","<div style=""display: flex; justify-content: center; align-items: center;"">
                <img src=""images/causal/causal_series_18/causal_series_18_c.jpg"" style=""width: 300px; height: 300px;"" />
              </div>","null",""
"","","","","","html-button-response","86","322387","0.0-86.0","CC274A6AFDB649DBBF77DA7C70D3A118","0ae275ca-32f4-4ac3-b0a8-dc0c098eb46a","5479079d-2186-49b2-89e2-e3afab6abcc2","","7434","
    <div style=""display: flex; justify-content: center; align-items: center;"">
      <img src=""images/blue_deck_1.png"" style=""width: 300px; height: 300px; margin-right: 10px;"" />
      <img src=""images/red_deck_2.png"" style=""width: 300px; height: 300px;"" />
    </div>","1","1"
"","","","","","html-keyboard-response","87","325397","0.0-87.0-1.0-0.0","CC274A6AFDB649DBBF77DA7C70D3A118","0ae275ca-32f4-4ac3-b0a8-dc0c098eb46a","5479079d-2186-49b2-89e2-e3afab6abcc2","","null","<div style=""display: flex; justify-content: center; align-items: center;"">
                <img src=""images/semantic/semantic_series_18/semantic_series_18_d.jpg"" style=""width: 300px; height: 300px;"" />
              </div>","null",""
"","","","","","html-keyboard-response","88","328400","0.0-88.0","CC274A6AFDB649DBBF77DA7C70D3A118","0ae275ca-32f4-4ac3-b0a8-dc0c098eb46a","5479079d-2186-49b2-89e2-e3afab6abcc2","","null","<div style=""display: flex; justify-content: center; align-items: center;"">
                <img src=""images/other/blank.jpg"" style=""width: 300px; height: 300px;"" />
              </div>","null",""
"","","","","","html-keyboard-response","89","331402","0.0-89.0","CC274A6AFDB649DBBF77DA7C70D3A118","0ae275ca-32f4-4ac3-b0a8-dc0c098eb46a","5479079d-2186-49b2-89e2-e3afab6abcc2","","null","<div style=""display: flex; justify-content: center; align-items: center;"">
                <img src=""images/causal/causal_series_1/causal_series_1_a.jpg"" style=""width: 300px; height: 300px;"" />
              </div>","null",""
"","","","","","html-keyboard-response","90","334405","0.0-90.0","CC274A6AFDB649DBBF77DA7C70D3A118","0ae275ca-32f4-4ac3-b0a8-dc0c098eb46a","5479079d-2186-49b2-89e2-e3afab6abcc2","","null","<div style=""display: flex; justify-content: center; align-items: center;"">
                <img src=""images/causal/causal_series_1/causal_series_1_b.jpg"" style=""width: 300px; height: 300px;"" />
              </div>","null",""
"","","","","","html-keyboard-response","91","337409","0.0-91.0","CC274A6AFDB649DBBF77DA7C70D3A118","0ae275ca-32f4-4ac3-b0a8-dc0c098eb46a","5479079d-2186-49b2-89e2-e3afab6abcc2","","null","<div style=""display: flex; justify-content: center; align-items: center;"">
                <img src=""images/causal/causal_series_1/causal_series_1_c.jpg"" style=""width: 300px; height: 300px;"" />
              </div>","null",""
"","","","","","html-button-response","92","346057","0.0-92.0","CC274A6AFDB649DBBF77DA7C70D3A118","0ae275ca-32f4-4ac3-b0a8-dc0c098eb46a","5479079d-2186-49b2-89e2-e3afab6abcc2","","8647","
    <div style=""display: flex; justify-content: center; align-items: center;"">
      <img src=""images/blue_deck_1.png"" style=""width: 300px; height: 300px; margin-right: 10px;"" />
      <img src=""images/red_deck_2.png"" style=""width: 300px; height: 300px;"" />
    </div>","1","1"
"","","","","","html-keyboard-response","93","349068","0.0-93.0-1.0-0.0","CC274A6AFDB649DBBF77DA7C70D3A118","0ae275ca-32f4-4ac3-b0a8-dc0c098eb46a","5479079d-2186-49b2-89e2-e3afab6abcc2","","null","<div style=""display: flex; justify-content: center; align-items: center;"">
                <img src=""images/semantic/semantic_series_1/semantic_series_1_d.jpg"" style=""width: 300px; height: 300px;"" />
              </div>","null",""
"","","","","","html-keyboard-response","94","352076","0.0-94.0","CC274A6AFDB649DBBF77DA7C70D3A118","0ae275ca-32f4-4ac3-b0a8-dc0c098eb46a","5479079d-2186-49b2-89e2-e3afab6abcc2","","null","<div style=""display: flex; justify-content: center; align-items: center;"">
                <img src=""images/other/blank.jpg"" style=""width: 300px; height: 300px;"" />
              </div>","null",""
"","","","","","html-keyboard-response","95","355084","0.0-95.0","CC274A6AFDB649DBBF77DA7C70D3A118","0ae275ca-32f4-4ac3-b0a8-dc0c098eb46a","5479079d-2186-49b2-89e2-e3afab6abcc2","","null","<div style=""display: flex; justify-content: center; align-items: center;"">
                <img src=""images/causal/causal_series_13/causal_series_13_a.jpg"" style=""width: 300px; height: 300px;"" />
              </div>","null",""
"","","","","","html-keyboard-response","96","358090","0.0-96.0","CC274A6AFDB649DBBF77DA7C70D3A118","0ae275ca-32f4-4ac3-b0a8-dc0c098eb46a","5479079d-2186-49b2-89e2-e3afab6abcc2","","null","<div style=""display: flex; justify-content: center; align-items: center;"">
                <img src=""images/causal/causal_series_13/causal_series_13_b.jpg"" style=""width: 300px; height: 300px;"" />
              </div>","null",""
"","","","","","html-keyboard-response","97","361098","0.0-97.0","CC274A6AFDB649DBBF77DA7C70D3A118","0ae275ca-32f4-4ac3-b0a8-dc0c098eb46a","5479079d-2186-49b2-89e2-e3afab6abcc2","","null","<div style=""display: flex; justify-content: center; align-items: center;"">
                <img src=""images/causal/causal_series_13/causal_series_13_c.jpg"" style=""width: 300px; height: 300px;"" />
              </div>","null",""
"","","","","","html-button-response","98","362534","0.0-98.0","CC274A6AFDB649DBBF77DA7C70D3A118","0ae275ca-32f4-4ac3-b0a8-dc0c098eb46a","5479079d-2186-49b2-89e2-e3afab6abcc2","","1435","
    <div style=""display: flex; justify-content: center; align-items: center;"">
      <img src=""images/blue_deck_1.png"" style=""width: 300px; height: 300px; margin-right: 10px;"" />
      <img src=""images/red_deck_2.png"" style=""width: 300px; height: 300px;"" />
    </div>","1","1"
"","","","","","html-keyboard-response","99","365547","0.0-99.0-1.0-0.0","CC274A6AFDB649DBBF77DA7C70D3A118","0ae275ca-32f4-4ac3-b0a8-dc0c098eb46a","5479079d-2186-49b2-89e2-e3afab6abcc2","","null","<div style=""display: flex; justify-content: center; align-items: center;"">
                <img src=""images/semantic/semantic_series_13/semantic_series_13_d.jpg"" style=""width: 300px; height: 300px;"" />
              </div>","null",""
"","","","","","html-keyboard-response","100","368553","0.0-100.0","CC274A6AFDB649DBBF77DA7C70D3A118","0ae275ca-32f4-4ac3-b0a8-dc0c098eb46a","5479079d-2186-49b2-89e2-e3afab6abcc2","","null","<div style=""display: flex; justify-content: center; align-items: center;"">
                <img src=""images/other/blank.jpg"" style=""width: 300px; height: 300px;"" />
              </div>","null",""
"","","","","","html-keyboard-response","101","371560","0.0-101.0","CC274A6AFDB649DBBF77DA7C70D3A118","0ae275ca-32f4-4ac3-b0a8-dc0c098eb46a","5479079d-2186-49b2-89e2-e3afab6abcc2","","null","<div style=""display: flex; justify-content: center; align-items: center;"">
                <img src=""images/causal/causal_series_15/causal_series_15_a.jpg"" style=""width: 300px; height: 300px;"" />
              </div>","null",""
"","","","","","html-keyboard-response","102","374571","0.0-102.0","CC274A6AFDB649DBBF77DA7C70D3A118","0ae275ca-32f4-4ac3-b0a8-dc0c098eb46a","5479079d-2186-49b2-89e2-e3afab6abcc2","","null","<div style=""display: flex; justify-content: center; align-items: center;"">
                <img src=""images/causal/causal_series_15/causal_series_15_b.jpg"" style=""width: 300px; height: 300px;"" />
              </div>","null",""
"","","","","","html-keyboard-response","103","377585","0.0-103.0","CC274A6AFDB649DBBF77DA7C70D3A118","0ae275ca-32f4-4ac3-b0a8-dc0c098eb46a","5479079d-2186-49b2-89e2-e3afab6abcc2","","null","<div style=""display: flex; justify-content: center; align-items: center;"">
                <img src=""images/causal/causal_series_15/causal_series_15_c.jpg"" style=""width: 300px; height: 300px;"" />
              </div>","null",""
"","","","","","html-button-response","104","382907","0.0-104.0","CC274A6AFDB649DBBF77DA7C70D3A118","0ae275ca-32f4-4ac3-b0a8-dc0c098eb46a","5479079d-2186-49b2-89e2-e3afab6abcc2","","5320","
    <div style=""display: flex; justify-content: center; align-items: center;"">
      <img src=""images/blue_deck_1.png"" style=""width: 300px; height: 300px; margin-right: 10px;"" />
      <img src=""images/red_deck_2.png"" style=""width: 300px; height: 300px;"" />
    </div>","0","0"
"","","","","","html-keyboard-response","105","385923","0.0-105.0-0.0-0.0","CC274A6AFDB649DBBF77DA7C70D3A118","0ae275ca-32f4-4ac3-b0a8-dc0c098eb46a","5479079d-2186-49b2-89e2-e3afab6abcc2","","null","<div style=""display: flex; justify-content: center; align-items: center;"">
                <img src=""images/causal/causal_series_15/causal_series_15_d.jpg"" style=""width: 300px; height: 300px;"" />
              </div>","null",""
"","","","","","html-keyboard-response","106","388930","0.0-106.0","CC274A6AFDB649DBBF77DA7C70D3A118","0ae275ca-32f4-4ac3-b0a8-dc0c098eb46a","5479079d-2186-49b2-89e2-e3afab6abcc2","","null","<div style=""display: flex; justify-content: center; align-items: center;"">
                <img src=""images/other/blank.jpg"" style=""width: 300px; height: 300px;"" />
              </div>","null",""
"","","","","","html-keyboard-response","107","391943","0.0-107.0","CC274A6AFDB649DBBF77DA7C70D3A118","0ae275ca-32f4-4ac3-b0a8-dc0c098eb46a","5479079d-2186-49b2-89e2-e3afab6abcc2","","null","<div style=""display: flex; justify-content: center; align-items: center;"">
                <img src=""images/causal/causal_series_6/causal_series_6_a.jpg"" style=""width: 300px; height: 300px;"" />
              </div>","null",""
"","","","","","html-keyboard-response","108","394946","0.0-108.0","CC274A6AFDB649DBBF77DA7C70D3A118","0ae275ca-32f4-4ac3-b0a8-dc0c098eb46a","5479079d-2186-49b2-89e2-e3afab6abcc2","","null","<div style=""display: flex; justify-content: center; align-items: center;"">
                <img src=""images/causal/causal_series_6/causal_series_6_b.jpg"" style=""width: 300px; height: 300px;"" />
              </div>","null",""
"","","","","","html-keyboard-response","109","397960","0.0-109.0","CC274A6AFDB649DBBF77DA7C70D3A118","0ae275ca-32f4-4ac3-b0a8-dc0c098eb46a","5479079d-2186-49b2-89e2-e3afab6abcc2","","null","<div style=""display: flex; justify-content: center; align-items: center;"">
                <img src=""images/causal/causal_series_6/causal_series_6_c.jpg"" style=""width: 300px; height: 300px;"" />
              </div>","null",""
"","","","","","html-button-response","110","403058","0.0-110.0","CC274A6AFDB649DBBF77DA7C70D3A118","0ae275ca-32f4-4ac3-b0a8-dc0c098eb46a","5479079d-2186-49b2-89e2-e3afab6abcc2","","5097","
    <div style=""display: flex; justify-content: center; align-items: center;"">
      <img src=""images/blue_deck_1.png"" style=""width: 300px; height: 300px; margin-right: 10px;"" />
      <img src=""images/red_deck_2.png"" style=""width: 300px; height: 300px;"" />
    </div>","0","0"
"","","","","","html-keyboard-response","111","406071","0.0-111.0-0.0-0.0","CC274A6AFDB649DBBF77DA7C70D3A118","0ae275ca-32f4-4ac3-b0a8-dc0c098eb46a","5479079d-2186-49b2-89e2-e3afab6abcc2","","null","<div style=""display: flex; justify-content: center; align-items: center;"">
                <img src=""images/causal/causal_series_6/causal_series_6_d.jpg"" style=""width: 300px; height: 300px;"" />
              </div>","null",""
"","","","","","html-keyboard-response","112","409082","0.0-112.0","CC274A6AFDB649DBBF77DA7C70D3A118","0ae275ca-32f4-4ac3-b0a8-dc0c098eb46a","5479079d-2186-49b2-89e2-e3afab6abcc2","","null","<div style=""display: flex; justify-content: center; align-items: center;"">
                <img src=""images/other/blank.jpg"" style=""width: 300px; height: 300px;"" />
              </div>","null",""
"","","","","","survey-text","113","420685","0.0-113.0","CC274A6AFDB649DBBF77DA7C70D3A118","0ae275ca-32f4-4ac3-b0a8-dc0c098eb46a","5479079d-2186-49b2-89e2-e3afab6abcc2","","11596","","{""Q0"":""One was blue and the other was red""}",""
"","","","","","survey-text","114","432399","0.0-114.0","CC274A6AFDB649DBBF77DA7C70D3A118","0ae275ca-32f4-4ac3-b0a8-dc0c098eb46a","5479079d-2186-49b2-89e2-e3afab6abcc2","","11710","","{""Q0"":""Neither was interesting.""}",""
"","","","","","html-button-response","115","440099","0.0-115.0","CC274A6AFDB649DBBF77DA7C70D3A118","0ae275ca-32f4-4ac3-b0a8-dc0c098eb46a","5479079d-2186-49b2-89e2-e3afab6abcc2","","7699","Which color deck does the fourth image continue the story from the series?","0",""
"","","","","","html-button-response","116","442226","0.0-116.0","CC274A6AFDB649DBBF77DA7C70D3A118","0ae275ca-32f4-4ac3-b0a8-dc0c098eb46a","5479079d-2186-49b2-89e2-e3afab6abcc2","","2126","Which color deck does the fourth image not follow the story from the series?","1",""
"","","","","","survey-text","117","448480","0.0-117.0","CC274A6AFDB649DBBF77DA7C70D3A118","0ae275ca-32f4-4ac3-b0a8-dc0c098eb46a","5479079d-2186-49b2-89e2-e3afab6abcc2","","6250","","{""Q0"":""Female"",""Q1"":""20""}",""
"","","","","","instructions","118","456518","0.0-118.0","CC274A6AFDB649DBBF77DA7C70D3A118","0ae275ca-32f4-4ac3-b0a8-dc0c098eb46a","5479079d-2186-49b2-89e2-e3afab6abcc2","[{""page_index"":0,""viewing_time"":8036}]","8037","","",""
