"success","timeout","failed_images","failed_audio","failed_video","trial_type","trial_index","time_elapsed","internal_node_id","subject","subject_id","study_id","session_id","urlvar","current_url","view_history","rt","stimulus","response","choice","question_order"
"true","false","[]","[]","[]","preload","0","414","0.0-0.0","1B0A3B436BDB444C985971D16F65ECFD","1B0A3B436BDB444C985971D16F65ECFD","f837b5b4-5428-47da-a62b-2a7da0a2f785","bea99957-1862-4ad8-9558-57b91e42ce64","{""participantId"":""1B0A3B436BDB444C985971D16F65ECFD"",""assignmentId"":""f837b5b4-5428-47da-a62b-2a7da0a2f785"",""projectId"":""bea99957-1862-4ad8-9558-57b91e42ce64""}","https://test12345.live/?participantId=1B0A3B436BDB444C985971D16F65ECFD&assignmentId=f837b5b4-5428-47da-a62b-2a7da0a2f785&projectId=bea99957-1862-4ad8-9558-57b91e42ce64","","","","","",""
"","","","","","instructions","1","3161","0.0-1.0","1B0A3B436BDB444C985971D16F65ECFD","1B0A3B436BDB444C985971D16F65ECFD","f837b5b4-5428-47da-a62b-2a7da0a2f785","bea99957-1862-4ad8-9558-57b91e42ce64","{""participantId"":""1B0A3B436BDB444C985971D16F65ECFD"",""assignmentId"":""f837b5b4-5428-47da-a62b-2a7da0a2f785"",""projectId"":""bea99957-1862-4ad8-9558-57b91e42ce64""}","https://test12345.live/?participantId=1B0A3B436BDB444C985971D16F65ECFD&assignmentId=f837b5b4-5428-47da-a62b-2a7da0a2f785&projectId=bea99957-1862-4ad8-9558-57b91e42ce64","[{""page_index"":0,""viewing_time"":2747}]","2747","","","",""
"","","","","","instructions","2","11553","0.0-2.0","1B0A3B436BDB444C985971D16F65ECFD","1B0A3B436BDB444C985971D16F65ECFD","f837b5b4-5428-47da-a62b-2a7da0a2f785","bea99957-1862-4ad8-9558-57b91e42ce64","{""participantId"":""1B0A3B436BDB444C985971D16F65ECFD"",""assignmentId"":""f837b5b4-5428-47da-a62b-2a7da0a2f785"",""projectId"":""bea99957-1862-4ad8-9558-57b91e42ce64""}","https://test12345.live/?participantId=1B0A3B436BDB444C985971D16F65ECFD&assignmentId=f837b5b4-5428-47da-a62b-2a7da0a2f785&projectId=bea99957-1862-4ad8-9558-57b91e42ce64","[{""page_index"":0,""viewing_time"":8391}]","8392","","","",""
"true","","","","","fullscreen","3","14742","0.0-3.0","1B0A3B436BDB444C985971D16F65ECFD","1B0A3B436BDB444C985971D16F65ECFD","f837b5b4-5428-47da-a62b-2a7da0a2f785","bea99957-1862-4ad8-9558-57b91e42ce64","{""participantId"":""1B0A3B436BDB444C985971D16F65ECFD"",""assignmentId"":""f837b5b4-5428-47da-a62b-2a7da0a2f785"",""projectId"":""bea99957-1862-4ad8-9558-57b91e42ce64""}","https://test12345.live/?participantId=1B0A3B436BDB444C985971D16F65ECFD&assignmentId=f837b5b4-5428-47da-a62b-2a7da0a2f785&projectId=bea99957-1862-4ad8-9558-57b91e42ce64","","2174","","","",""
"","","","","","instructions","4","24441","0.0-4.0","1B0A3B436BDB444C985971D16F65ECFD","1B0A3B436BDB444C985971D16F65ECFD","f837b5b4-5428-47da-a62b-2a7da0a2f785","bea99957-1862-4ad8-9558-57b91e42ce64","{""participantId"":""1B0A3B436BDB444C985971D16F65ECFD"",""assignmentId"":""f837b5b4-5428-47da-a62b-2a7da0a2f785"",""projectId"":""bea99957-1862-4ad8-9558-57b91e42ce64""}","https://test12345.live/?participantId=1B0A3B436BDB444C985971D16F65ECFD&assignmentId=f837b5b4-5428-47da-a62b-2a7da0a2f785&projectId=bea99957-1862-4ad8-9558-57b91e42ce64","[{""page_index"":0,""viewing_time"":9696}]","9696","","","",""
"","","","","","html-button-response","5","28833","0.0-5.0","1B0A3B436BDB444C985971D16F65ECFD","1B0A3B436BDB444C985971D16F65ECFD","f837b5b4-5428-47da-a62b-2a7da0a2f785","bea99957-1862-4ad8-9558-57b91e42ce64","{""participantId"":""1B0A3B436BDB444C985971D16F65ECFD"",""assignmentId"":""f837b5b4-5428-47da-a62b-2a7da0a2f785"",""projectId"":""bea99957-1862-4ad8-9558-57b91e42ce64""}","https://test12345.live/?participantId=1B0A3B436BDB444C985971D16F65ECFD&assignmentId=f837b5b4-5428-47da-a62b-2a7da0a2f785&projectId=bea99957-1862-4ad8-9558-57b91e42ce64","","4391","
    <div style=""display: flex; justify-content: center; align-items: center;"">
      <img src=""images/red_deck_2.png"" style=""width: 300px; height: 300px; margin-right: 10px;"" />
      <img src=""images/blue_deck_1.png"" style=""width: 300px; height: 300px;"" />
    </div>","0","0",""
"","","","","","html-keyboard-response","6","31845","0.0-7.0-0.0","1B0A3B436BDB444C985971D16F65ECFD","1B0A3B436BDB444C985971D16F65ECFD","f837b5b4-5428-47da-a62b-2a7da0a2f785","bea99957-1862-4ad8-9558-57b91e42ce64","{""participantId"":""1B0A3B436BDB444C985971D16F65ECFD"",""assignmentId"":""f837b5b4-5428-47da-a62b-2a7da0a2f785"",""projectId"":""bea99957-1862-4ad8-9558-57b91e42ce64""}","https://test12345.live/?participantId=1B0A3B436BDB444C985971D16F65ECFD&assignmentId=f837b5b4-5428-47da-a62b-2a7da0a2f785&projectId=bea99957-1862-4ad8-9558-57b91e42ce64","","null","<div style=""display: flex; justify-content: center; align-items: center;"">
                    <img src=""images/semantic/semantic_series_12/semantic_series_12_a.jpg"" style=""width: 300px; height: 300px;"" />
                  </div>","null","",""
"","","","","","html-keyboard-response","7","34856","0.0-7.0-1.0","1B0A3B436BDB444C985971D16F65ECFD","1B0A3B436BDB444C985971D16F65ECFD","f837b5b4-5428-47da-a62b-2a7da0a2f785","bea99957-1862-4ad8-9558-57b91e42ce64","{""participantId"":""1B0A3B436BDB444C985971D16F65ECFD"",""assignmentId"":""f837b5b4-5428-47da-a62b-2a7da0a2f785"",""projectId"":""bea99957-1862-4ad8-9558-57b91e42ce64""}","https://test12345.live/?participantId=1B0A3B436BDB444C985971D16F65ECFD&assignmentId=f837b5b4-5428-47da-a62b-2a7da0a2f785&projectId=bea99957-1862-4ad8-9558-57b91e42ce64","","null","<div style=""display: flex; justify-content: center; align-items: center;"">
                    <img src=""images/semantic/semantic_series_12/semantic_series_12_b.jpg"" style=""width: 300px; height: 300px;"" />
                  </div>","null","",""
"","","","","","html-keyboard-response","8","37860","0.0-7.0-2.0","1B0A3B436BDB444C985971D16F65ECFD","1B0A3B436BDB444C985971D16F65ECFD","f837b5b4-5428-47da-a62b-2a7da0a2f785","bea99957-1862-4ad8-9558-57b91e42ce64","{""participantId"":""1B0A3B436BDB444C985971D16F65ECFD"",""assignmentId"":""f837b5b4-5428-47da-a62b-2a7da0a2f785"",""projectId"":""bea99957-1862-4ad8-9558-57b91e42ce64""}","https://test12345.live/?participantId=1B0A3B436BDB444C985971D16F65ECFD&assignmentId=f837b5b4-5428-47da-a62b-2a7da0a2f785&projectId=bea99957-1862-4ad8-9558-57b91e42ce64","","null","<div style=""display: flex; justify-content: center; align-items: center;"">
                    <img src=""images/semantic/semantic_series_12/semantic_series_12_c.jpg"" style=""width: 300px; height: 300px;"" />
                  </div>","null","",""
"","","","","","html-keyboard-response","9","40875","0.0-7.0-3.0","1B0A3B436BDB444C985971D16F65ECFD","1B0A3B436BDB444C985971D16F65ECFD","f837b5b4-5428-47da-a62b-2a7da0a2f785","bea99957-1862-4ad8-9558-57b91e42ce64","{""participantId"":""1B0A3B436BDB444C985971D16F65ECFD"",""assignmentId"":""f837b5b4-5428-47da-a62b-2a7da0a2f785"",""projectId"":""bea99957-1862-4ad8-9558-57b91e42ce64""}","https://test12345.live/?participantId=1B0A3B436BDB444C985971D16F65ECFD&assignmentId=f837b5b4-5428-47da-a62b-2a7da0a2f785&projectId=bea99957-1862-4ad8-9558-57b91e42ce64","","null","<div style=""display: flex; justify-content: center; align-items: center;"">
                    <img src=""images/semantic/semantic_series_12/semantic_series_12_d.jpg"" style=""width: 300px; height: 300px;"" />
                  </div>","null","",""
"","","","","","html-button-response","10","43329","0.0-8.0","1B0A3B436BDB444C985971D16F65ECFD","1B0A3B436BDB444C985971D16F65ECFD","f837b5b4-5428-47da-a62b-2a7da0a2f785","bea99957-1862-4ad8-9558-57b91e42ce64","{""participantId"":""1B0A3B436BDB444C985971D16F65ECFD"",""assignmentId"":""f837b5b4-5428-47da-a62b-2a7da0a2f785"",""projectId"":""bea99957-1862-4ad8-9558-57b91e42ce64""}","https://test12345.live/?participantId=1B0A3B436BDB444C985971D16F65ECFD&assignmentId=f837b5b4-5428-47da-a62b-2a7da0a2f785&projectId=bea99957-1862-4ad8-9558-57b91e42ce64","","2453","Was there a person in the picture?","1","",""
"","","","","","survey-likert","11","47218","0.0-9.0","1B0A3B436BDB444C985971D16F65ECFD","1B0A3B436BDB444C985971D16F65ECFD","f837b5b4-5428-47da-a62b-2a7da0a2f785","bea99957-1862-4ad8-9558-57b91e42ce64","{""participantId"":""1B0A3B436BDB444C985971D16F65ECFD"",""assignmentId"":""f837b5b4-5428-47da-a62b-2a7da0a2f785"",""projectId"":""bea99957-1862-4ad8-9558-57b91e42ce64""}","https://test12345.live/?participantId=1B0A3B436BDB444C985971D16F65ECFD&assignmentId=f837b5b4-5428-47da-a62b-2a7da0a2f785&projectId=bea99957-1862-4ad8-9558-57b91e42ce64","","3888","","{""Q0"":3}","","[0]"
"","","","","","html-button-response","12","49425","0.0-10.0","1B0A3B436BDB444C985971D16F65ECFD","1B0A3B436BDB444C985971D16F65ECFD","f837b5b4-5428-47da-a62b-2a7da0a2f785","bea99957-1862-4ad8-9558-57b91e42ce64","{""participantId"":""1B0A3B436BDB444C985971D16F65ECFD"",""assignmentId"":""f837b5b4-5428-47da-a62b-2a7da0a2f785"",""projectId"":""bea99957-1862-4ad8-9558-57b91e42ce64""}","https://test12345.live/?participantId=1B0A3B436BDB444C985971D16F65ECFD&assignmentId=f837b5b4-5428-47da-a62b-2a7da0a2f785&projectId=bea99957-1862-4ad8-9558-57b91e42ce64","","2206","
    <div style=""display: flex; justify-content: center; align-items: center;"">
      <img src=""images/red_deck_2.png"" style=""width: 300px; height: 300px; margin-right: 10px;"" />
      <img src=""images/blue_deck_1.png"" style=""width: 300px; height: 300px;"" />
    </div>","1","1",""
"","","","","","html-keyboard-response","13","52428","0.0-11.0-0.0","1B0A3B436BDB444C985971D16F65ECFD","1B0A3B436BDB444C985971D16F65ECFD","f837b5b4-5428-47da-a62b-2a7da0a2f785","bea99957-1862-4ad8-9558-57b91e42ce64","{""participantId"":""1B0A3B436BDB444C985971D16F65ECFD"",""assignmentId"":""f837b5b4-5428-47da-a62b-2a7da0a2f785"",""projectId"":""bea99957-1862-4ad8-9558-57b91e42ce64""}","https://test12345.live/?participantId=1B0A3B436BDB444C985971D16F65ECFD&assignmentId=f837b5b4-5428-47da-a62b-2a7da0a2f785&projectId=bea99957-1862-4ad8-9558-57b91e42ce64","","null","<div style=""display: flex; justify-content: center; align-items: center;"">
                    <img src=""images/causal/causal_series_5/causal_series_5_a.jpg"" style=""width: 300px; height: 300px;"" />
                  </div>","null","",""
"","","","","","html-keyboard-response","14","55434","0.0-11.0-1.0","1B0A3B436BDB444C985971D16F65ECFD","1B0A3B436BDB444C985971D16F65ECFD","f837b5b4-5428-47da-a62b-2a7da0a2f785","bea99957-1862-4ad8-9558-57b91e42ce64","{""participantId"":""1B0A3B436BDB444C985971D16F65ECFD"",""assignmentId"":""f837b5b4-5428-47da-a62b-2a7da0a2f785"",""projectId"":""bea99957-1862-4ad8-9558-57b91e42ce64""}","https://test12345.live/?participantId=1B0A3B436BDB444C985971D16F65ECFD&assignmentId=f837b5b4-5428-47da-a62b-2a7da0a2f785&projectId=bea99957-1862-4ad8-9558-57b91e42ce64","","null","<div style=""display: flex; justify-content: center; align-items: center;"">
                    <img src=""images/causal/causal_series_5/causal_series_5_b.jpg"" style=""width: 300px; height: 300px;"" />
                  </div>","null","",""
"","","","","","html-keyboard-response","15","58490","0.0-11.0-2.0","1B0A3B436BDB444C985971D16F65ECFD","1B0A3B436BDB444C985971D16F65ECFD","f837b5b4-5428-47da-a62b-2a7da0a2f785","bea99957-1862-4ad8-9558-57b91e42ce64","{""participantId"":""1B0A3B436BDB444C985971D16F65ECFD"",""assignmentId"":""f837b5b4-5428-47da-a62b-2a7da0a2f785"",""projectId"":""bea99957-1862-4ad8-9558-57b91e42ce64""}","https://test12345.live/?participantId=1B0A3B436BDB444C985971D16F65ECFD&assignmentId=f837b5b4-5428-47da-a62b-2a7da0a2f785&projectId=bea99957-1862-4ad8-9558-57b91e42ce64","","null","<div style=""display: flex; justify-content: center; align-items: center;"">
                    <img src=""images/causal/causal_series_5/causal_series_5_c.jpg"" style=""width: 300px; height: 300px;"" />
                  </div>","null","",""
"","","","","","html-keyboard-response","16","61503","0.0-11.0-3.0","1B0A3B436BDB444C985971D16F65ECFD","1B0A3B436BDB444C985971D16F65ECFD","f837b5b4-5428-47da-a62b-2a7da0a2f785","bea99957-1862-4ad8-9558-57b91e42ce64","{""participantId"":""1B0A3B436BDB444C985971D16F65ECFD"",""assignmentId"":""f837b5b4-5428-47da-a62b-2a7da0a2f785"",""projectId"":""bea99957-1862-4ad8-9558-57b91e42ce64""}","https://test12345.live/?participantId=1B0A3B436BDB444C985971D16F65ECFD&assignmentId=f837b5b4-5428-47da-a62b-2a7da0a2f785&projectId=bea99957-1862-4ad8-9558-57b91e42ce64","","null","<div style=""display: flex; justify-content: center; align-items: center;"">
                    <img src=""images/causal/causal_series_5/causal_series_5_d.jpg"" style=""width: 300px; height: 300px;"" />
                  </div>","null","",""
"","","","","","html-button-response","17","63680","0.0-13.0","1B0A3B436BDB444C985971D16F65ECFD","1B0A3B436BDB444C985971D16F65ECFD","f837b5b4-5428-47da-a62b-2a7da0a2f785","bea99957-1862-4ad8-9558-57b91e42ce64","{""participantId"":""1B0A3B436BDB444C985971D16F65ECFD"",""assignmentId"":""f837b5b4-5428-47da-a62b-2a7da0a2f785"",""projectId"":""bea99957-1862-4ad8-9558-57b91e42ce64""}","https://test12345.live/?participantId=1B0A3B436BDB444C985971D16F65ECFD&assignmentId=f837b5b4-5428-47da-a62b-2a7da0a2f785&projectId=bea99957-1862-4ad8-9558-57b91e42ce64","","2177","Was there a person in the picture?","0","",""
"","","","","","survey-likert","18","65649","0.0-14.0","1B0A3B436BDB444C985971D16F65ECFD","1B0A3B436BDB444C985971D16F65ECFD","f837b5b4-5428-47da-a62b-2a7da0a2f785","bea99957-1862-4ad8-9558-57b91e42ce64","{""participantId"":""1B0A3B436BDB444C985971D16F65ECFD"",""assignmentId"":""f837b5b4-5428-47da-a62b-2a7da0a2f785"",""projectId"":""bea99957-1862-4ad8-9558-57b91e42ce64""}","https://test12345.live/?participantId=1B0A3B436BDB444C985971D16F65ECFD&assignmentId=f837b5b4-5428-47da-a62b-2a7da0a2f785&projectId=bea99957-1862-4ad8-9558-57b91e42ce64","","1967","","{""Q0"":3}","","[0]"
"","","","","","html-button-response","19","67088","0.0-15.0","1B0A3B436BDB444C985971D16F65ECFD","1B0A3B436BDB444C985971D16F65ECFD","f837b5b4-5428-47da-a62b-2a7da0a2f785","bea99957-1862-4ad8-9558-57b91e42ce64","{""participantId"":""1B0A3B436BDB444C985971D16F65ECFD"",""assignmentId"":""f837b5b4-5428-47da-a62b-2a7da0a2f785"",""projectId"":""bea99957-1862-4ad8-9558-57b91e42ce64""}","https://test12345.live/?participantId=1B0A3B436BDB444C985971D16F65ECFD&assignmentId=f837b5b4-5428-47da-a62b-2a7da0a2f785&projectId=bea99957-1862-4ad8-9558-57b91e42ce64","","1438","
    <div style=""display: flex; justify-content: center; align-items: center;"">
      <img src=""images/red_deck_2.png"" style=""width: 300px; height: 300px; margin-right: 10px;"" />
      <img src=""images/blue_deck_1.png"" style=""width: 300px; height: 300px;"" />
    </div>","1","1",""
"","","","","","html-keyboard-response","20","70101","0.0-16.0-0.0","1B0A3B436BDB444C985971D16F65ECFD","1B0A3B436BDB444C985971D16F65ECFD","f837b5b4-5428-47da-a62b-2a7da0a2f785","bea99957-1862-4ad8-9558-57b91e42ce64","{""participantId"":""1B0A3B436BDB444C985971D16F65ECFD"",""assignmentId"":""f837b5b4-5428-47da-a62b-2a7da0a2f785"",""projectId"":""bea99957-1862-4ad8-9558-57b91e42ce64""}","https://test12345.live/?participantId=1B0A3B436BDB444C985971D16F65ECFD&assignmentId=f837b5b4-5428-47da-a62b-2a7da0a2f785&projectId=bea99957-1862-4ad8-9558-57b91e42ce64","","null","<div style=""display: flex; justify-content: center; align-items: center;"">
                    <img src=""images/causal/causal_series_9/causal_series_9_a.jpg"" style=""width: 300px; height: 300px;"" />
                  </div>","null","",""
"","","","","","html-keyboard-response","21","73115","0.0-16.0-1.0","1B0A3B436BDB444C985971D16F65ECFD","1B0A3B436BDB444C985971D16F65ECFD","f837b5b4-5428-47da-a62b-2a7da0a2f785","bea99957-1862-4ad8-9558-57b91e42ce64","{""participantId"":""1B0A3B436BDB444C985971D16F65ECFD"",""assignmentId"":""f837b5b4-5428-47da-a62b-2a7da0a2f785"",""projectId"":""bea99957-1862-4ad8-9558-57b91e42ce64""}","https://test12345.live/?participantId=1B0A3B436BDB444C985971D16F65ECFD&assignmentId=f837b5b4-5428-47da-a62b-2a7da0a2f785&projectId=bea99957-1862-4ad8-9558-57b91e42ce64","","null","<div style=""display: flex; justify-content: center; align-items: center;"">
                    <img src=""images/causal/causal_series_9/causal_series_9_b.jpg"" style=""width: 300px; height: 300px;"" />
                  </div>","null","",""
"","","","","","html-keyboard-response","22","76131","0.0-16.0-2.0","1B0A3B436BDB444C985971D16F65ECFD","1B0A3B436BDB444C985971D16F65ECFD","f837b5b4-5428-47da-a62b-2a7da0a2f785","bea99957-1862-4ad8-9558-57b91e42ce64","{""participantId"":""1B0A3B436BDB444C985971D16F65ECFD"",""assignmentId"":""f837b5b4-5428-47da-a62b-2a7da0a2f785"",""projectId"":""bea99957-1862-4ad8-9558-57b91e42ce64""}","https://test12345.live/?participantId=1B0A3B436BDB444C985971D16F65ECFD&assignmentId=f837b5b4-5428-47da-a62b-2a7da0a2f785&projectId=bea99957-1862-4ad8-9558-57b91e42ce64","","null","<div style=""display: flex; justify-content: center; align-items: center;"">
                    <img src=""images/causal/causal_series_9/causal_series_9_c.jpg"" style=""width: 300px; height: 300px;"" />
                  </div>","null","",""
"","","","","","html-keyboard-response","23","79145","0.0-16.0-3.0","1B0A3B436BDB444C985971D16F65ECFD","1B0A3B436BDB444C985971D16F65ECFD","f837b5b4-5428-47da-a62b-2a7da0a2f785","bea99957-1862-4ad8-9558-57b91e42ce64","{""participantId"":""1B0A3B436BDB444C985971D16F65ECFD"",""assignmentId"":""f837b5b4-5428-47da-a62b-2a7da0a2f785"",""projectId"":""bea99957-1862-4ad8-9558-57b91e42ce64""}","https://test12345.live/?participantId=1B0A3B436BDB444C985971D16F65ECFD&assignmentId=f837b5b4-5428-47da-a62b-2a7da0a2f785&projectId=bea99957-1862-4ad8-9558-57b91e42ce64","","null","<div style=""display: flex; justify-content: center; align-items: center;"">
                    <img src=""images/causal/causal_series_9/causal_series_9_d.jpg"" style=""width: 300px; height: 300px;"" />
                  </div>","null","",""
"","","","","","html-button-response","24","80296","0.0-18.0","1B0A3B436BDB444C985971D16F65ECFD","1B0A3B436BDB444C985971D16F65ECFD","f837b5b4-5428-47da-a62b-2a7da0a2f785","bea99957-1862-4ad8-9558-57b91e42ce64","{""participantId"":""1B0A3B436BDB444C985971D16F65ECFD"",""assignmentId"":""f837b5b4-5428-47da-a62b-2a7da0a2f785"",""projectId"":""bea99957-1862-4ad8-9558-57b91e42ce64""}","https://test12345.live/?participantId=1B0A3B436BDB444C985971D16F65ECFD&assignmentId=f837b5b4-5428-47da-a62b-2a7da0a2f785&projectId=bea99957-1862-4ad8-9558-57b91e42ce64","","1149","Was there a person in the picture?","1","",""
"","","","","","survey-likert","25","84017","0.0-19.0","1B0A3B436BDB444C985971D16F65ECFD","1B0A3B436BDB444C985971D16F65ECFD","f837b5b4-5428-47da-a62b-2a7da0a2f785","bea99957-1862-4ad8-9558-57b91e42ce64","{""participantId"":""1B0A3B436BDB444C985971D16F65ECFD"",""assignmentId"":""f837b5b4-5428-47da-a62b-2a7da0a2f785"",""projectId"":""bea99957-1862-4ad8-9558-57b91e42ce64""}","https://test12345.live/?participantId=1B0A3B436BDB444C985971D16F65ECFD&assignmentId=f837b5b4-5428-47da-a62b-2a7da0a2f785&projectId=bea99957-1862-4ad8-9558-57b91e42ce64","","3721","","{""Q0"":1}","","[0]"
"","","","","","html-button-response","26","85152","0.0-20.0","1B0A3B436BDB444C985971D16F65ECFD","1B0A3B436BDB444C985971D16F65ECFD","f837b5b4-5428-47da-a62b-2a7da0a2f785","bea99957-1862-4ad8-9558-57b91e42ce64","{""participantId"":""1B0A3B436BDB444C985971D16F65ECFD"",""assignmentId"":""f837b5b4-5428-47da-a62b-2a7da0a2f785"",""projectId"":""bea99957-1862-4ad8-9558-57b91e42ce64""}","https://test12345.live/?participantId=1B0A3B436BDB444C985971D16F65ECFD&assignmentId=f837b5b4-5428-47da-a62b-2a7da0a2f785&projectId=bea99957-1862-4ad8-9558-57b91e42ce64","","1135","
    <div style=""display: flex; justify-content: center; align-items: center;"">
      <img src=""images/red_deck_2.png"" style=""width: 300px; height: 300px; margin-right: 10px;"" />
      <img src=""images/blue_deck_1.png"" style=""width: 300px; height: 300px;"" />
    </div>","0","0",""
"","","","","","html-keyboard-response","27","88163","0.0-22.0-0.0","1B0A3B436BDB444C985971D16F65ECFD","1B0A3B436BDB444C985971D16F65ECFD","f837b5b4-5428-47da-a62b-2a7da0a2f785","bea99957-1862-4ad8-9558-57b91e42ce64","{""participantId"":""1B0A3B436BDB444C985971D16F65ECFD"",""assignmentId"":""f837b5b4-5428-47da-a62b-2a7da0a2f785"",""projectId"":""bea99957-1862-4ad8-9558-57b91e42ce64""}","https://test12345.live/?participantId=1B0A3B436BDB444C985971D16F65ECFD&assignmentId=f837b5b4-5428-47da-a62b-2a7da0a2f785&projectId=bea99957-1862-4ad8-9558-57b91e42ce64","","null","<div style=""display: flex; justify-content: center; align-items: center;"">
                    <img src=""images/semantic/semantic_series_15/semantic_series_15_a.jpg"" style=""width: 300px; height: 300px;"" />
                  </div>","null","",""
"","","","","","html-keyboard-response","28","91245","0.0-22.0-1.0","1B0A3B436BDB444C985971D16F65ECFD","1B0A3B436BDB444C985971D16F65ECFD","f837b5b4-5428-47da-a62b-2a7da0a2f785","bea99957-1862-4ad8-9558-57b91e42ce64","{""participantId"":""1B0A3B436BDB444C985971D16F65ECFD"",""assignmentId"":""f837b5b4-5428-47da-a62b-2a7da0a2f785"",""projectId"":""bea99957-1862-4ad8-9558-57b91e42ce64""}","https://test12345.live/?participantId=1B0A3B436BDB444C985971D16F65ECFD&assignmentId=f837b5b4-5428-47da-a62b-2a7da0a2f785&projectId=bea99957-1862-4ad8-9558-57b91e42ce64","","null","<div style=""display: flex; justify-content: center; align-items: center;"">
                    <img src=""images/semantic/semantic_series_15/semantic_series_15_b.jpg"" style=""width: 300px; height: 300px;"" />
                  </div>","null","",""
"","","","","","html-keyboard-response","29","94261","0.0-22.0-2.0","1B0A3B436BDB444C985971D16F65ECFD","1B0A3B436BDB444C985971D16F65ECFD","f837b5b4-5428-47da-a62b-2a7da0a2f785","bea99957-1862-4ad8-9558-57b91e42ce64","{""participantId"":""1B0A3B436BDB444C985971D16F65ECFD"",""assignmentId"":""f837b5b4-5428-47da-a62b-2a7da0a2f785"",""projectId"":""bea99957-1862-4ad8-9558-57b91e42ce64""}","https://test12345.live/?participantId=1B0A3B436BDB444C985971D16F65ECFD&assignmentId=f837b5b4-5428-47da-a62b-2a7da0a2f785&projectId=bea99957-1862-4ad8-9558-57b91e42ce64","","null","<div style=""display: flex; justify-content: center; align-items: center;"">
                    <img src=""images/semantic/semantic_series_15/semantic_series_15_c.jpg"" style=""width: 300px; height: 300px;"" />
                  </div>","null","",""
"","","","","","html-keyboard-response","30","97269","0.0-22.0-3.0","1B0A3B436BDB444C985971D16F65ECFD","1B0A3B436BDB444C985971D16F65ECFD","f837b5b4-5428-47da-a62b-2a7da0a2f785","bea99957-1862-4ad8-9558-57b91e42ce64","{""participantId"":""1B0A3B436BDB444C985971D16F65ECFD"",""assignmentId"":""f837b5b4-5428-47da-a62b-2a7da0a2f785"",""projectId"":""bea99957-1862-4ad8-9558-57b91e42ce64""}","https://test12345.live/?participantId=1B0A3B436BDB444C985971D16F65ECFD&assignmentId=f837b5b4-5428-47da-a62b-2a7da0a2f785&projectId=bea99957-1862-4ad8-9558-57b91e42ce64","","null","<div style=""display: flex; justify-content: center; align-items: center;"">
                    <img src=""images/semantic/semantic_series_15/semantic_series_15_d.jpg"" style=""width: 300px; height: 300px;"" />
                  </div>","null","",""
"","","","","","html-button-response","31","98497","0.0-23.0","1B0A3B436BDB444C985971D16F65ECFD","1B0A3B436BDB444C985971D16F65ECFD","f837b5b4-5428-47da-a62b-2a7da0a2f785","bea99957-1862-4ad8-9558-57b91e42ce64","{""participantId"":""1B0A3B436BDB444C985971D16F65ECFD"",""assignmentId"":""f837b5b4-5428-47da-a62b-2a7da0a2f785"",""projectId"":""bea99957-1862-4ad8-9558-57b91e42ce64""}","https://test12345.live/?participantId=1B0A3B436BDB444C985971D16F65ECFD&assignmentId=f837b5b4-5428-47da-a62b-2a7da0a2f785&projectId=bea99957-1862-4ad8-9558-57b91e42ce64","","1228","Was there a person in the picture?","1","",""
"","","","","","survey-likert","32","101056","0.0-24.0","1B0A3B436BDB444C985971D16F65ECFD","1B0A3B436BDB444C985971D16F65ECFD","f837b5b4-5428-47da-a62b-2a7da0a2f785","bea99957-1862-4ad8-9558-57b91e42ce64","{""participantId"":""1B0A3B436BDB444C985971D16F65ECFD"",""assignmentId"":""f837b5b4-5428-47da-a62b-2a7da0a2f785"",""projectId"":""bea99957-1862-4ad8-9558-57b91e42ce64""}","https://test12345.live/?participantId=1B0A3B436BDB444C985971D16F65ECFD&assignmentId=f837b5b4-5428-47da-a62b-2a7da0a2f785&projectId=bea99957-1862-4ad8-9558-57b91e42ce64","","2559","","{""Q0"":0}","","[0]"
"","","","","","html-button-response","33","102352","0.0-25.0","1B0A3B436BDB444C985971D16F65ECFD","1B0A3B436BDB444C985971D16F65ECFD","f837b5b4-5428-47da-a62b-2a7da0a2f785","bea99957-1862-4ad8-9558-57b91e42ce64","{""participantId"":""1B0A3B436BDB444C985971D16F65ECFD"",""assignmentId"":""f837b5b4-5428-47da-a62b-2a7da0a2f785"",""projectId"":""bea99957-1862-4ad8-9558-57b91e42ce64""}","https://test12345.live/?participantId=1B0A3B436BDB444C985971D16F65ECFD&assignmentId=f837b5b4-5428-47da-a62b-2a7da0a2f785&projectId=bea99957-1862-4ad8-9558-57b91e42ce64","","1295","
    <div style=""display: flex; justify-content: center; align-items: center;"">
      <img src=""images/red_deck_2.png"" style=""width: 300px; height: 300px; margin-right: 10px;"" />
      <img src=""images/blue_deck_1.png"" style=""width: 300px; height: 300px;"" />
    </div>","0","0",""
"","","","","","html-keyboard-response","34","105358","0.0-27.0-0.0","1B0A3B436BDB444C985971D16F65ECFD","1B0A3B436BDB444C985971D16F65ECFD","f837b5b4-5428-47da-a62b-2a7da0a2f785","bea99957-1862-4ad8-9558-57b91e42ce64","{""participantId"":""1B0A3B436BDB444C985971D16F65ECFD"",""assignmentId"":""f837b5b4-5428-47da-a62b-2a7da0a2f785"",""projectId"":""bea99957-1862-4ad8-9558-57b91e42ce64""}","https://test12345.live/?participantId=1B0A3B436BDB444C985971D16F65ECFD&assignmentId=f837b5b4-5428-47da-a62b-2a7da0a2f785&projectId=bea99957-1862-4ad8-9558-57b91e42ce64","","null","<div style=""display: flex; justify-content: center; align-items: center;"">
                    <img src=""images/semantic/semantic_series_5/semantic_series_5_a.jpg"" style=""width: 300px; height: 300px;"" />
                  </div>","null","",""
"","","","","","html-keyboard-response","35","108361","0.0-27.0-1.0","1B0A3B436BDB444C985971D16F65ECFD","1B0A3B436BDB444C985971D16F65ECFD","f837b5b4-5428-47da-a62b-2a7da0a2f785","bea99957-1862-4ad8-9558-57b91e42ce64","{""participantId"":""1B0A3B436BDB444C985971D16F65ECFD"",""assignmentId"":""f837b5b4-5428-47da-a62b-2a7da0a2f785"",""projectId"":""bea99957-1862-4ad8-9558-57b91e42ce64""}","https://test12345.live/?participantId=1B0A3B436BDB444C985971D16F65ECFD&assignmentId=f837b5b4-5428-47da-a62b-2a7da0a2f785&projectId=bea99957-1862-4ad8-9558-57b91e42ce64","","null","<div style=""display: flex; justify-content: center; align-items: center;"">
                    <img src=""images/semantic/semantic_series_5/semantic_series_5_b.jpg"" style=""width: 300px; height: 300px;"" />
                  </div>","null","",""
"","","","","","html-keyboard-response","36","111367","0.0-27.0-2.0","1B0A3B436BDB444C985971D16F65ECFD","1B0A3B436BDB444C985971D16F65ECFD","f837b5b4-5428-47da-a62b-2a7da0a2f785","bea99957-1862-4ad8-9558-57b91e42ce64","{""participantId"":""1B0A3B436BDB444C985971D16F65ECFD"",""assignmentId"":""f837b5b4-5428-47da-a62b-2a7da0a2f785"",""projectId"":""bea99957-1862-4ad8-9558-57b91e42ce64""}","https://test12345.live/?participantId=1B0A3B436BDB444C985971D16F65ECFD&assignmentId=f837b5b4-5428-47da-a62b-2a7da0a2f785&projectId=bea99957-1862-4ad8-9558-57b91e42ce64","","null","<div style=""display: flex; justify-content: center; align-items: center;"">
                    <img src=""images/semantic/semantic_series_5/semantic_series_5_c.jpg"" style=""width: 300px; height: 300px;"" />
                  </div>","null","",""
"","","","","","html-keyboard-response","37","114376","0.0-27.0-3.0","1B0A3B436BDB444C985971D16F65ECFD","1B0A3B436BDB444C985971D16F65ECFD","f837b5b4-5428-47da-a62b-2a7da0a2f785","bea99957-1862-4ad8-9558-57b91e42ce64","{""participantId"":""1B0A3B436BDB444C985971D16F65ECFD"",""assignmentId"":""f837b5b4-5428-47da-a62b-2a7da0a2f785"",""projectId"":""bea99957-1862-4ad8-9558-57b91e42ce64""}","https://test12345.live/?participantId=1B0A3B436BDB444C985971D16F65ECFD&assignmentId=f837b5b4-5428-47da-a62b-2a7da0a2f785&projectId=bea99957-1862-4ad8-9558-57b91e42ce64","","null","<div style=""display: flex; justify-content: center; align-items: center;"">
                    <img src=""images/semantic/semantic_series_5/semantic_series_5_d.jpg"" style=""width: 300px; height: 300px;"" />
                  </div>","null","",""
"","","","","","html-button-response","38","115873","0.0-28.0","1B0A3B436BDB444C985971D16F65ECFD","1B0A3B436BDB444C985971D16F65ECFD","f837b5b4-5428-47da-a62b-2a7da0a2f785","bea99957-1862-4ad8-9558-57b91e42ce64","{""participantId"":""1B0A3B436BDB444C985971D16F65ECFD"",""assignmentId"":""f837b5b4-5428-47da-a62b-2a7da0a2f785"",""projectId"":""bea99957-1862-4ad8-9558-57b91e42ce64""}","https://test12345.live/?participantId=1B0A3B436BDB444C985971D16F65ECFD&assignmentId=f837b5b4-5428-47da-a62b-2a7da0a2f785&projectId=bea99957-1862-4ad8-9558-57b91e42ce64","","1496","Was there a person in the picture?","0","",""
"","","","","","survey-likert","39","117817","0.0-29.0","1B0A3B436BDB444C985971D16F65ECFD","1B0A3B436BDB444C985971D16F65ECFD","f837b5b4-5428-47da-a62b-2a7da0a2f785","bea99957-1862-4ad8-9558-57b91e42ce64","{""participantId"":""1B0A3B436BDB444C985971D16F65ECFD"",""assignmentId"":""f837b5b4-5428-47da-a62b-2a7da0a2f785"",""projectId"":""bea99957-1862-4ad8-9558-57b91e42ce64""}","https://test12345.live/?participantId=1B0A3B436BDB444C985971D16F65ECFD&assignmentId=f837b5b4-5428-47da-a62b-2a7da0a2f785&projectId=bea99957-1862-4ad8-9558-57b91e42ce64","","1944","","{""Q0"":3}","","[0]"
"","","","","","html-button-response","40","118912","0.0-30.0","1B0A3B436BDB444C985971D16F65ECFD","1B0A3B436BDB444C985971D16F65ECFD","f837b5b4-5428-47da-a62b-2a7da0a2f785","bea99957-1862-4ad8-9558-57b91e42ce64","{""participantId"":""1B0A3B436BDB444C985971D16F65ECFD"",""assignmentId"":""f837b5b4-5428-47da-a62b-2a7da0a2f785"",""projectId"":""bea99957-1862-4ad8-9558-57b91e42ce64""}","https://test12345.live/?participantId=1B0A3B436BDB444C985971D16F65ECFD&assignmentId=f837b5b4-5428-47da-a62b-2a7da0a2f785&projectId=bea99957-1862-4ad8-9558-57b91e42ce64","","1095","
    <div style=""display: flex; justify-content: center; align-items: center;"">
      <img src=""images/red_deck_2.png"" style=""width: 300px; height: 300px; margin-right: 10px;"" />
      <img src=""images/blue_deck_1.png"" style=""width: 300px; height: 300px;"" />
    </div>","1","1",""
"","","","","","html-keyboard-response","41","121914","0.0-31.0-0.0","1B0A3B436BDB444C985971D16F65ECFD","1B0A3B436BDB444C985971D16F65ECFD","f837b5b4-5428-47da-a62b-2a7da0a2f785","bea99957-1862-4ad8-9558-57b91e42ce64","{""participantId"":""1B0A3B436BDB444C985971D16F65ECFD"",""assignmentId"":""f837b5b4-5428-47da-a62b-2a7da0a2f785"",""projectId"":""bea99957-1862-4ad8-9558-57b91e42ce64""}","https://test12345.live/?participantId=1B0A3B436BDB444C985971D16F65ECFD&assignmentId=f837b5b4-5428-47da-a62b-2a7da0a2f785&projectId=bea99957-1862-4ad8-9558-57b91e42ce64","","null","<div style=""display: flex; justify-content: center; align-items: center;"">
                    <img src=""images/causal/causal_series_11/causal_series_11_a.jpg"" style=""width: 300px; height: 300px;"" />
                  </div>","null","",""
"","","","","","html-keyboard-response","42","124925","0.0-31.0-1.0","1B0A3B436BDB444C985971D16F65ECFD","1B0A3B436BDB444C985971D16F65ECFD","f837b5b4-5428-47da-a62b-2a7da0a2f785","bea99957-1862-4ad8-9558-57b91e42ce64","{""participantId"":""1B0A3B436BDB444C985971D16F65ECFD"",""assignmentId"":""f837b5b4-5428-47da-a62b-2a7da0a2f785"",""projectId"":""bea99957-1862-4ad8-9558-57b91e42ce64""}","https://test12345.live/?participantId=1B0A3B436BDB444C985971D16F65ECFD&assignmentId=f837b5b4-5428-47da-a62b-2a7da0a2f785&projectId=bea99957-1862-4ad8-9558-57b91e42ce64","","null","<div style=""display: flex; justify-content: center; align-items: center;"">
                    <img src=""images/causal/causal_series_11/causal_series_11_b.jpg"" style=""width: 300px; height: 300px;"" />
                  </div>","null","",""
"","","","","","html-keyboard-response","43","127930","0.0-31.0-2.0","1B0A3B436BDB444C985971D16F65ECFD","1B0A3B436BDB444C985971D16F65ECFD","f837b5b4-5428-47da-a62b-2a7da0a2f785","bea99957-1862-4ad8-9558-57b91e42ce64","{""participantId"":""1B0A3B436BDB444C985971D16F65ECFD"",""assignmentId"":""f837b5b4-5428-47da-a62b-2a7da0a2f785"",""projectId"":""bea99957-1862-4ad8-9558-57b91e42ce64""}","https://test12345.live/?participantId=1B0A3B436BDB444C985971D16F65ECFD&assignmentId=f837b5b4-5428-47da-a62b-2a7da0a2f785&projectId=bea99957-1862-4ad8-9558-57b91e42ce64","","null","<div style=""display: flex; justify-content: center; align-items: center;"">
                    <img src=""images/causal/causal_series_11/causal_series_11_c.jpg"" style=""width: 300px; height: 300px;"" />
                  </div>","null","",""
"","","","","","html-keyboard-response","44","130938","0.0-31.0-3.0","1B0A3B436BDB444C985971D16F65ECFD","1B0A3B436BDB444C985971D16F65ECFD","f837b5b4-5428-47da-a62b-2a7da0a2f785","bea99957-1862-4ad8-9558-57b91e42ce64","{""participantId"":""1B0A3B436BDB444C985971D16F65ECFD"",""assignmentId"":""f837b5b4-5428-47da-a62b-2a7da0a2f785"",""projectId"":""bea99957-1862-4ad8-9558-57b91e42ce64""}","https://test12345.live/?participantId=1B0A3B436BDB444C985971D16F65ECFD&assignmentId=f837b5b4-5428-47da-a62b-2a7da0a2f785&projectId=bea99957-1862-4ad8-9558-57b91e42ce64","","null","<div style=""display: flex; justify-content: center; align-items: center;"">
                    <img src=""images/causal/causal_series_11/causal_series_11_d.jpg"" style=""width: 300px; height: 300px;"" />
                  </div>","null","",""
"","","","","","html-button-response","45","132065","0.0-33.0","1B0A3B436BDB444C985971D16F65ECFD","1B0A3B436BDB444C985971D16F65ECFD","f837b5b4-5428-47da-a62b-2a7da0a2f785","bea99957-1862-4ad8-9558-57b91e42ce64","{""participantId"":""1B0A3B436BDB444C985971D16F65ECFD"",""assignmentId"":""f837b5b4-5428-47da-a62b-2a7da0a2f785"",""projectId"":""bea99957-1862-4ad8-9558-57b91e42ce64""}","https://test12345.live/?participantId=1B0A3B436BDB444C985971D16F65ECFD&assignmentId=f837b5b4-5428-47da-a62b-2a7da0a2f785&projectId=bea99957-1862-4ad8-9558-57b91e42ce64","","1126","Was there a person in the picture?","0","",""
"","","","","","survey-likert","46","134505","0.0-34.0","1B0A3B436BDB444C985971D16F65ECFD","1B0A3B436BDB444C985971D16F65ECFD","f837b5b4-5428-47da-a62b-2a7da0a2f785","bea99957-1862-4ad8-9558-57b91e42ce64","{""participantId"":""1B0A3B436BDB444C985971D16F65ECFD"",""assignmentId"":""f837b5b4-5428-47da-a62b-2a7da0a2f785"",""projectId"":""bea99957-1862-4ad8-9558-57b91e42ce64""}","https://test12345.live/?participantId=1B0A3B436BDB444C985971D16F65ECFD&assignmentId=f837b5b4-5428-47da-a62b-2a7da0a2f785&projectId=bea99957-1862-4ad8-9558-57b91e42ce64","","2439","","{""Q0"":3}","","[0]"
"","","","","","html-button-response","47","135441","0.0-35.0","1B0A3B436BDB444C985971D16F65ECFD","1B0A3B436BDB444C985971D16F65ECFD","f837b5b4-5428-47da-a62b-2a7da0a2f785","bea99957-1862-4ad8-9558-57b91e42ce64","{""participantId"":""1B0A3B436BDB444C985971D16F65ECFD"",""assignmentId"":""f837b5b4-5428-47da-a62b-2a7da0a2f785"",""projectId"":""bea99957-1862-4ad8-9558-57b91e42ce64""}","https://test12345.live/?participantId=1B0A3B436BDB444C985971D16F65ECFD&assignmentId=f837b5b4-5428-47da-a62b-2a7da0a2f785&projectId=bea99957-1862-4ad8-9558-57b91e42ce64","","935","
    <div style=""display: flex; justify-content: center; align-items: center;"">
      <img src=""images/red_deck_2.png"" style=""width: 300px; height: 300px; margin-right: 10px;"" />
      <img src=""images/blue_deck_1.png"" style=""width: 300px; height: 300px;"" />
    </div>","0","0",""
"","","","","","html-keyboard-response","48","138457","0.0-37.0-0.0","1B0A3B436BDB444C985971D16F65ECFD","1B0A3B436BDB444C985971D16F65ECFD","f837b5b4-5428-47da-a62b-2a7da0a2f785","bea99957-1862-4ad8-9558-57b91e42ce64","{""participantId"":""1B0A3B436BDB444C985971D16F65ECFD"",""assignmentId"":""f837b5b4-5428-47da-a62b-2a7da0a2f785"",""projectId"":""bea99957-1862-4ad8-9558-57b91e42ce64""}","https://test12345.live/?participantId=1B0A3B436BDB444C985971D16F65ECFD&assignmentId=f837b5b4-5428-47da-a62b-2a7da0a2f785&projectId=bea99957-1862-4ad8-9558-57b91e42ce64","","null","<div style=""display: flex; justify-content: center; align-items: center;"">
                    <img src=""images/semantic/semantic_series_4/semantic_series_4_a.jpg"" style=""width: 300px; height: 300px;"" />
                  </div>","null","",""
"","","","","","html-keyboard-response","49","141462","0.0-37.0-1.0","1B0A3B436BDB444C985971D16F65ECFD","1B0A3B436BDB444C985971D16F65ECFD","f837b5b4-5428-47da-a62b-2a7da0a2f785","bea99957-1862-4ad8-9558-57b91e42ce64","{""participantId"":""1B0A3B436BDB444C985971D16F65ECFD"",""assignmentId"":""f837b5b4-5428-47da-a62b-2a7da0a2f785"",""projectId"":""bea99957-1862-4ad8-9558-57b91e42ce64""}","https://test12345.live/?participantId=1B0A3B436BDB444C985971D16F65ECFD&assignmentId=f837b5b4-5428-47da-a62b-2a7da0a2f785&projectId=bea99957-1862-4ad8-9558-57b91e42ce64","","null","<div style=""display: flex; justify-content: center; align-items: center;"">
                    <img src=""images/semantic/semantic_series_4/semantic_series_4_b.jpg"" style=""width: 300px; height: 300px;"" />
                  </div>","null","",""
"","","","","","html-keyboard-response","50","144465","0.0-37.0-2.0","1B0A3B436BDB444C985971D16F65ECFD","1B0A3B436BDB444C985971D16F65ECFD","f837b5b4-5428-47da-a62b-2a7da0a2f785","bea99957-1862-4ad8-9558-57b91e42ce64","{""participantId"":""1B0A3B436BDB444C985971D16F65ECFD"",""assignmentId"":""f837b5b4-5428-47da-a62b-2a7da0a2f785"",""projectId"":""bea99957-1862-4ad8-9558-57b91e42ce64""}","https://test12345.live/?participantId=1B0A3B436BDB444C985971D16F65ECFD&assignmentId=f837b5b4-5428-47da-a62b-2a7da0a2f785&projectId=bea99957-1862-4ad8-9558-57b91e42ce64","","null","<div style=""display: flex; justify-content: center; align-items: center;"">
                    <img src=""images/semantic/semantic_series_4/semantic_series_4_c.jpg"" style=""width: 300px; height: 300px;"" />
                  </div>","null","",""
"","","","","","html-keyboard-response","51","147474","0.0-37.0-3.0","1B0A3B436BDB444C985971D16F65ECFD","1B0A3B436BDB444C985971D16F65ECFD","f837b5b4-5428-47da-a62b-2a7da0a2f785","bea99957-1862-4ad8-9558-57b91e42ce64","{""participantId"":""1B0A3B436BDB444C985971D16F65ECFD"",""assignmentId"":""f837b5b4-5428-47da-a62b-2a7da0a2f785"",""projectId"":""bea99957-1862-4ad8-9558-57b91e42ce64""}","https://test12345.live/?participantId=1B0A3B436BDB444C985971D16F65ECFD&assignmentId=f837b5b4-5428-47da-a62b-2a7da0a2f785&projectId=bea99957-1862-4ad8-9558-57b91e42ce64","","null","<div style=""display: flex; justify-content: center; align-items: center;"">
                    <img src=""images/semantic/semantic_series_4/semantic_series_4_d.jpg"" style=""width: 300px; height: 300px;"" />
                  </div>","null","",""
"","","","","","html-button-response","52","148545","0.0-38.0","1B0A3B436BDB444C985971D16F65ECFD","1B0A3B436BDB444C985971D16F65ECFD","f837b5b4-5428-47da-a62b-2a7da0a2f785","bea99957-1862-4ad8-9558-57b91e42ce64","{""participantId"":""1B0A3B436BDB444C985971D16F65ECFD"",""assignmentId"":""f837b5b4-5428-47da-a62b-2a7da0a2f785"",""projectId"":""bea99957-1862-4ad8-9558-57b91e42ce64""}","https://test12345.live/?participantId=1B0A3B436BDB444C985971D16F65ECFD&assignmentId=f837b5b4-5428-47da-a62b-2a7da0a2f785&projectId=bea99957-1862-4ad8-9558-57b91e42ce64","","1070","Was there a person in the picture?","1","",""
"","","","","","survey-likert","53","151768","0.0-39.0","1B0A3B436BDB444C985971D16F65ECFD","1B0A3B436BDB444C985971D16F65ECFD","f837b5b4-5428-47da-a62b-2a7da0a2f785","bea99957-1862-4ad8-9558-57b91e42ce64","{""participantId"":""1B0A3B436BDB444C985971D16F65ECFD"",""assignmentId"":""f837b5b4-5428-47da-a62b-2a7da0a2f785"",""projectId"":""bea99957-1862-4ad8-9558-57b91e42ce64""}","https://test12345.live/?participantId=1B0A3B436BDB444C985971D16F65ECFD&assignmentId=f837b5b4-5428-47da-a62b-2a7da0a2f785&projectId=bea99957-1862-4ad8-9558-57b91e42ce64","","3224","","{""Q0"":3}","","[0]"
"","","","","","html-button-response","54","152664","0.0-40.0","1B0A3B436BDB444C985971D16F65ECFD","1B0A3B436BDB444C985971D16F65ECFD","f837b5b4-5428-47da-a62b-2a7da0a2f785","bea99957-1862-4ad8-9558-57b91e42ce64","{""participantId"":""1B0A3B436BDB444C985971D16F65ECFD"",""assignmentId"":""f837b5b4-5428-47da-a62b-2a7da0a2f785"",""projectId"":""bea99957-1862-4ad8-9558-57b91e42ce64""}","https://test12345.live/?participantId=1B0A3B436BDB444C985971D16F65ECFD&assignmentId=f837b5b4-5428-47da-a62b-2a7da0a2f785&projectId=bea99957-1862-4ad8-9558-57b91e42ce64","","895","
    <div style=""display: flex; justify-content: center; align-items: center;"">
      <img src=""images/red_deck_2.png"" style=""width: 300px; height: 300px; margin-right: 10px;"" />
      <img src=""images/blue_deck_1.png"" style=""width: 300px; height: 300px;"" />
    </div>","1","1",""
"","","","","","html-keyboard-response","55","155672","0.0-41.0-0.0","1B0A3B436BDB444C985971D16F65ECFD","1B0A3B436BDB444C985971D16F65ECFD","f837b5b4-5428-47da-a62b-2a7da0a2f785","bea99957-1862-4ad8-9558-57b91e42ce64","{""participantId"":""1B0A3B436BDB444C985971D16F65ECFD"",""assignmentId"":""f837b5b4-5428-47da-a62b-2a7da0a2f785"",""projectId"":""bea99957-1862-4ad8-9558-57b91e42ce64""}","https://test12345.live/?participantId=1B0A3B436BDB444C985971D16F65ECFD&assignmentId=f837b5b4-5428-47da-a62b-2a7da0a2f785&projectId=bea99957-1862-4ad8-9558-57b91e42ce64","","null","<div style=""display: flex; justify-content: center; align-items: center;"">
                    <img src=""images/causal/causal_series_10/causal_series_10_a.jpg"" style=""width: 300px; height: 300px;"" />
                  </div>","null","",""
"","","","","","html-keyboard-response","56","158682","0.0-41.0-1.0","1B0A3B436BDB444C985971D16F65ECFD","1B0A3B436BDB444C985971D16F65ECFD","f837b5b4-5428-47da-a62b-2a7da0a2f785","bea99957-1862-4ad8-9558-57b91e42ce64","{""participantId"":""1B0A3B436BDB444C985971D16F65ECFD"",""assignmentId"":""f837b5b4-5428-47da-a62b-2a7da0a2f785"",""projectId"":""bea99957-1862-4ad8-9558-57b91e42ce64""}","https://test12345.live/?participantId=1B0A3B436BDB444C985971D16F65ECFD&assignmentId=f837b5b4-5428-47da-a62b-2a7da0a2f785&projectId=bea99957-1862-4ad8-9558-57b91e42ce64","","null","<div style=""display: flex; justify-content: center; align-items: center;"">
                    <img src=""images/causal/causal_series_10/causal_series_10_b.jpg"" style=""width: 300px; height: 300px;"" />
                  </div>","null","",""
"","","","","","html-keyboard-response","57","161738","0.0-41.0-2.0","1B0A3B436BDB444C985971D16F65ECFD","1B0A3B436BDB444C985971D16F65ECFD","f837b5b4-5428-47da-a62b-2a7da0a2f785","bea99957-1862-4ad8-9558-57b91e42ce64","{""participantId"":""1B0A3B436BDB444C985971D16F65ECFD"",""assignmentId"":""f837b5b4-5428-47da-a62b-2a7da0a2f785"",""projectId"":""bea99957-1862-4ad8-9558-57b91e42ce64""}","https://test12345.live/?participantId=1B0A3B436BDB444C985971D16F65ECFD&assignmentId=f837b5b4-5428-47da-a62b-2a7da0a2f785&projectId=bea99957-1862-4ad8-9558-57b91e42ce64","","null","<div style=""display: flex; justify-content: center; align-items: center;"">
                    <img src=""images/causal/causal_series_10/causal_series_10_c.jpg"" style=""width: 300px; height: 300px;"" />
                  </div>","null","",""
"","","","","","html-keyboard-response","58","164757","0.0-41.0-3.0","1B0A3B436BDB444C985971D16F65ECFD","1B0A3B436BDB444C985971D16F65ECFD","f837b5b4-5428-47da-a62b-2a7da0a2f785","bea99957-1862-4ad8-9558-57b91e42ce64","{""participantId"":""1B0A3B436BDB444C985971D16F65ECFD"",""assignmentId"":""f837b5b4-5428-47da-a62b-2a7da0a2f785"",""projectId"":""bea99957-1862-4ad8-9558-57b91e42ce64""}","https://test12345.live/?participantId=1B0A3B436BDB444C985971D16F65ECFD&assignmentId=f837b5b4-5428-47da-a62b-2a7da0a2f785&projectId=bea99957-1862-4ad8-9558-57b91e42ce64","","null","<div style=""display: flex; justify-content: center; align-items: center;"">
                    <img src=""images/causal/causal_series_10/causal_series_10_d.jpg"" style=""width: 300px; height: 300px;"" />
                  </div>","null","",""
"","","","","","html-button-response","59","165601","0.0-43.0","1B0A3B436BDB444C985971D16F65ECFD","1B0A3B436BDB444C985971D16F65ECFD","f837b5b4-5428-47da-a62b-2a7da0a2f785","bea99957-1862-4ad8-9558-57b91e42ce64","{""participantId"":""1B0A3B436BDB444C985971D16F65ECFD"",""assignmentId"":""f837b5b4-5428-47da-a62b-2a7da0a2f785"",""projectId"":""bea99957-1862-4ad8-9558-57b91e42ce64""}","https://test12345.live/?participantId=1B0A3B436BDB444C985971D16F65ECFD&assignmentId=f837b5b4-5428-47da-a62b-2a7da0a2f785&projectId=bea99957-1862-4ad8-9558-57b91e42ce64","","842","Was there a person in the picture?","1","",""
"","","","","","survey-likert","60","167201","0.0-44.0","1B0A3B436BDB444C985971D16F65ECFD","1B0A3B436BDB444C985971D16F65ECFD","f837b5b4-5428-47da-a62b-2a7da0a2f785","bea99957-1862-4ad8-9558-57b91e42ce64","{""participantId"":""1B0A3B436BDB444C985971D16F65ECFD"",""assignmentId"":""f837b5b4-5428-47da-a62b-2a7da0a2f785"",""projectId"":""bea99957-1862-4ad8-9558-57b91e42ce64""}","https://test12345.live/?participantId=1B0A3B436BDB444C985971D16F65ECFD&assignmentId=f837b5b4-5428-47da-a62b-2a7da0a2f785&projectId=bea99957-1862-4ad8-9558-57b91e42ce64","","1599","","{""Q0"":4}","","[0]"
"","","","","","html-button-response","61","168216","0.0-45.0","1B0A3B436BDB444C985971D16F65ECFD","1B0A3B436BDB444C985971D16F65ECFD","f837b5b4-5428-47da-a62b-2a7da0a2f785","bea99957-1862-4ad8-9558-57b91e42ce64","{""participantId"":""1B0A3B436BDB444C985971D16F65ECFD"",""assignmentId"":""f837b5b4-5428-47da-a62b-2a7da0a2f785"",""projectId"":""bea99957-1862-4ad8-9558-57b91e42ce64""}","https://test12345.live/?participantId=1B0A3B436BDB444C985971D16F65ECFD&assignmentId=f837b5b4-5428-47da-a62b-2a7da0a2f785&projectId=bea99957-1862-4ad8-9558-57b91e42ce64","","1016","
    <div style=""display: flex; justify-content: center; align-items: center;"">
      <img src=""images/red_deck_2.png"" style=""width: 300px; height: 300px; margin-right: 10px;"" />
      <img src=""images/blue_deck_1.png"" style=""width: 300px; height: 300px;"" />
    </div>","1","1",""
"","","","","","html-keyboard-response","62","171222","0.0-46.0-0.0","1B0A3B436BDB444C985971D16F65ECFD","1B0A3B436BDB444C985971D16F65ECFD","f837b5b4-5428-47da-a62b-2a7da0a2f785","bea99957-1862-4ad8-9558-57b91e42ce64","{""participantId"":""1B0A3B436BDB444C985971D16F65ECFD"",""assignmentId"":""f837b5b4-5428-47da-a62b-2a7da0a2f785"",""projectId"":""bea99957-1862-4ad8-9558-57b91e42ce64""}","https://test12345.live/?participantId=1B0A3B436BDB444C985971D16F65ECFD&assignmentId=f837b5b4-5428-47da-a62b-2a7da0a2f785&projectId=bea99957-1862-4ad8-9558-57b91e42ce64","","null","<div style=""display: flex; justify-content: center; align-items: center;"">
                    <img src=""images/causal/causal_series_3/causal_series_3_a.jpg"" style=""width: 300px; height: 300px;"" />
                  </div>","null","",""
"","","","","","html-keyboard-response","63","174251","0.0-46.0-1.0","1B0A3B436BDB444C985971D16F65ECFD","1B0A3B436BDB444C985971D16F65ECFD","f837b5b4-5428-47da-a62b-2a7da0a2f785","bea99957-1862-4ad8-9558-57b91e42ce64","{""participantId"":""1B0A3B436BDB444C985971D16F65ECFD"",""assignmentId"":""f837b5b4-5428-47da-a62b-2a7da0a2f785"",""projectId"":""bea99957-1862-4ad8-9558-57b91e42ce64""}","https://test12345.live/?participantId=1B0A3B436BDB444C985971D16F65ECFD&assignmentId=f837b5b4-5428-47da-a62b-2a7da0a2f785&projectId=bea99957-1862-4ad8-9558-57b91e42ce64","","null","<div style=""display: flex; justify-content: center; align-items: center;"">
                    <img src=""images/causal/causal_series_3/causal_series_3_b.jpg"" style=""width: 300px; height: 300px;"" />
                  </div>","null","",""
"","","","","","html-keyboard-response","64","177267","0.0-46.0-2.0","1B0A3B436BDB444C985971D16F65ECFD","1B0A3B436BDB444C985971D16F65ECFD","f837b5b4-5428-47da-a62b-2a7da0a2f785","bea99957-1862-4ad8-9558-57b91e42ce64","{""participantId"":""1B0A3B436BDB444C985971D16F65ECFD"",""assignmentId"":""f837b5b4-5428-47da-a62b-2a7da0a2f785"",""projectId"":""bea99957-1862-4ad8-9558-57b91e42ce64""}","https://test12345.live/?participantId=1B0A3B436BDB444C985971D16F65ECFD&assignmentId=f837b5b4-5428-47da-a62b-2a7da0a2f785&projectId=bea99957-1862-4ad8-9558-57b91e42ce64","","null","<div style=""display: flex; justify-content: center; align-items: center;"">
                    <img src=""images/causal/causal_series_3/causal_series_3_c.jpg"" style=""width: 300px; height: 300px;"" />
                  </div>","null","",""
"","","","","","html-keyboard-response","65","180315","0.0-46.0-3.0","1B0A3B436BDB444C985971D16F65ECFD","1B0A3B436BDB444C985971D16F65ECFD","f837b5b4-5428-47da-a62b-2a7da0a2f785","bea99957-1862-4ad8-9558-57b91e42ce64","{""participantId"":""1B0A3B436BDB444C985971D16F65ECFD"",""assignmentId"":""f837b5b4-5428-47da-a62b-2a7da0a2f785"",""projectId"":""bea99957-1862-4ad8-9558-57b91e42ce64""}","https://test12345.live/?participantId=1B0A3B436BDB444C985971D16F65ECFD&assignmentId=f837b5b4-5428-47da-a62b-2a7da0a2f785&projectId=bea99957-1862-4ad8-9558-57b91e42ce64","","null","<div style=""display: flex; justify-content: center; align-items: center;"">
                    <img src=""images/causal/causal_series_3/causal_series_3_d.jpg"" style=""width: 300px; height: 300px;"" />
                  </div>","null","",""
"","","","","","html-button-response","66","181465","0.0-48.0","1B0A3B436BDB444C985971D16F65ECFD","1B0A3B436BDB444C985971D16F65ECFD","f837b5b4-5428-47da-a62b-2a7da0a2f785","bea99957-1862-4ad8-9558-57b91e42ce64","{""participantId"":""1B0A3B436BDB444C985971D16F65ECFD"",""assignmentId"":""f837b5b4-5428-47da-a62b-2a7da0a2f785"",""projectId"":""bea99957-1862-4ad8-9558-57b91e42ce64""}","https://test12345.live/?participantId=1B0A3B436BDB444C985971D16F65ECFD&assignmentId=f837b5b4-5428-47da-a62b-2a7da0a2f785&projectId=bea99957-1862-4ad8-9558-57b91e42ce64","","1148","Was there a person in the picture?","0","",""
"","","","","","survey-likert","67","182937","0.0-49.0","1B0A3B436BDB444C985971D16F65ECFD","1B0A3B436BDB444C985971D16F65ECFD","f837b5b4-5428-47da-a62b-2a7da0a2f785","bea99957-1862-4ad8-9558-57b91e42ce64","{""participantId"":""1B0A3B436BDB444C985971D16F65ECFD"",""assignmentId"":""f837b5b4-5428-47da-a62b-2a7da0a2f785"",""projectId"":""bea99957-1862-4ad8-9558-57b91e42ce64""}","https://test12345.live/?participantId=1B0A3B436BDB444C985971D16F65ECFD&assignmentId=f837b5b4-5428-47da-a62b-2a7da0a2f785&projectId=bea99957-1862-4ad8-9558-57b91e42ce64","","1472","","{""Q0"":1}","","[0]"
"","","","","","html-button-response","68","183721","0.0-50.0","1B0A3B436BDB444C985971D16F65ECFD","1B0A3B436BDB444C985971D16F65ECFD","f837b5b4-5428-47da-a62b-2a7da0a2f785","bea99957-1862-4ad8-9558-57b91e42ce64","{""participantId"":""1B0A3B436BDB444C985971D16F65ECFD"",""assignmentId"":""f837b5b4-5428-47da-a62b-2a7da0a2f785"",""projectId"":""bea99957-1862-4ad8-9558-57b91e42ce64""}","https://test12345.live/?participantId=1B0A3B436BDB444C985971D16F65ECFD&assignmentId=f837b5b4-5428-47da-a62b-2a7da0a2f785&projectId=bea99957-1862-4ad8-9558-57b91e42ce64","","781","
    <div style=""display: flex; justify-content: center; align-items: center;"">
      <img src=""images/red_deck_2.png"" style=""width: 300px; height: 300px; margin-right: 10px;"" />
      <img src=""images/blue_deck_1.png"" style=""width: 300px; height: 300px;"" />
    </div>","0","0",""
"","","","","","html-keyboard-response","69","186733","0.0-52.0-0.0","1B0A3B436BDB444C985971D16F65ECFD","1B0A3B436BDB444C985971D16F65ECFD","f837b5b4-5428-47da-a62b-2a7da0a2f785","bea99957-1862-4ad8-9558-57b91e42ce64","{""participantId"":""1B0A3B436BDB444C985971D16F65ECFD"",""assignmentId"":""f837b5b4-5428-47da-a62b-2a7da0a2f785"",""projectId"":""bea99957-1862-4ad8-9558-57b91e42ce64""}","https://test12345.live/?participantId=1B0A3B436BDB444C985971D16F65ECFD&assignmentId=f837b5b4-5428-47da-a62b-2a7da0a2f785&projectId=bea99957-1862-4ad8-9558-57b91e42ce64","","null","<div style=""display: flex; justify-content: center; align-items: center;"">
                    <img src=""images/semantic/semantic_series_7/semantic_series_7_a.jpg"" style=""width: 300px; height: 300px;"" />
                  </div>","null","",""
"","","","","","html-keyboard-response","70","189741","0.0-52.0-1.0","1B0A3B436BDB444C985971D16F65ECFD","1B0A3B436BDB444C985971D16F65ECFD","f837b5b4-5428-47da-a62b-2a7da0a2f785","bea99957-1862-4ad8-9558-57b91e42ce64","{""participantId"":""1B0A3B436BDB444C985971D16F65ECFD"",""assignmentId"":""f837b5b4-5428-47da-a62b-2a7da0a2f785"",""projectId"":""bea99957-1862-4ad8-9558-57b91e42ce64""}","https://test12345.live/?participantId=1B0A3B436BDB444C985971D16F65ECFD&assignmentId=f837b5b4-5428-47da-a62b-2a7da0a2f785&projectId=bea99957-1862-4ad8-9558-57b91e42ce64","","null","<div style=""display: flex; justify-content: center; align-items: center;"">
                    <img src=""images/semantic/semantic_series_7/semantic_series_7_b.jpg"" style=""width: 300px; height: 300px;"" />
                  </div>","null","",""
"","","","","","html-keyboard-response","71","192745","0.0-52.0-2.0","1B0A3B436BDB444C985971D16F65ECFD","1B0A3B436BDB444C985971D16F65ECFD","f837b5b4-5428-47da-a62b-2a7da0a2f785","bea99957-1862-4ad8-9558-57b91e42ce64","{""participantId"":""1B0A3B436BDB444C985971D16F65ECFD"",""assignmentId"":""f837b5b4-5428-47da-a62b-2a7da0a2f785"",""projectId"":""bea99957-1862-4ad8-9558-57b91e42ce64""}","https://test12345.live/?participantId=1B0A3B436BDB444C985971D16F65ECFD&assignmentId=f837b5b4-5428-47da-a62b-2a7da0a2f785&projectId=bea99957-1862-4ad8-9558-57b91e42ce64","","null","<div style=""display: flex; justify-content: center; align-items: center;"">
                    <img src=""images/semantic/semantic_series_7/semantic_series_7_c.jpg"" style=""width: 300px; height: 300px;"" />
                  </div>","null","",""
"","","","","","html-keyboard-response","72","195750","0.0-52.0-3.0","1B0A3B436BDB444C985971D16F65ECFD","1B0A3B436BDB444C985971D16F65ECFD","f837b5b4-5428-47da-a62b-2a7da0a2f785","bea99957-1862-4ad8-9558-57b91e42ce64","{""participantId"":""1B0A3B436BDB444C985971D16F65ECFD"",""assignmentId"":""f837b5b4-5428-47da-a62b-2a7da0a2f785"",""projectId"":""bea99957-1862-4ad8-9558-57b91e42ce64""}","https://test12345.live/?participantId=1B0A3B436BDB444C985971D16F65ECFD&assignmentId=f837b5b4-5428-47da-a62b-2a7da0a2f785&projectId=bea99957-1862-4ad8-9558-57b91e42ce64","","null","<div style=""display: flex; justify-content: center; align-items: center;"">
                    <img src=""images/semantic/semantic_series_7/semantic_series_7_d.jpg"" style=""width: 300px; height: 300px;"" />
                  </div>","null","",""
"","","","","","html-button-response","73","196632","0.0-53.0","1B0A3B436BDB444C985971D16F65ECFD","1B0A3B436BDB444C985971D16F65ECFD","f837b5b4-5428-47da-a62b-2a7da0a2f785","bea99957-1862-4ad8-9558-57b91e42ce64","{""participantId"":""1B0A3B436BDB444C985971D16F65ECFD"",""assignmentId"":""f837b5b4-5428-47da-a62b-2a7da0a2f785"",""projectId"":""bea99957-1862-4ad8-9558-57b91e42ce64""}","https://test12345.live/?participantId=1B0A3B436BDB444C985971D16F65ECFD&assignmentId=f837b5b4-5428-47da-a62b-2a7da0a2f785&projectId=bea99957-1862-4ad8-9558-57b91e42ce64","","882","Was there a person in the picture?","1","",""
"","","","","","survey-likert","74","198424","0.0-54.0","1B0A3B436BDB444C985971D16F65ECFD","1B0A3B436BDB444C985971D16F65ECFD","f837b5b4-5428-47da-a62b-2a7da0a2f785","bea99957-1862-4ad8-9558-57b91e42ce64","{""participantId"":""1B0A3B436BDB444C985971D16F65ECFD"",""assignmentId"":""f837b5b4-5428-47da-a62b-2a7da0a2f785"",""projectId"":""bea99957-1862-4ad8-9558-57b91e42ce64""}","https://test12345.live/?participantId=1B0A3B436BDB444C985971D16F65ECFD&assignmentId=f837b5b4-5428-47da-a62b-2a7da0a2f785&projectId=bea99957-1862-4ad8-9558-57b91e42ce64","","1791","","{""Q0"":1}","","[0]"
"","","","","","html-button-response","75","199360","0.0-55.0","1B0A3B436BDB444C985971D16F65ECFD","1B0A3B436BDB444C985971D16F65ECFD","f837b5b4-5428-47da-a62b-2a7da0a2f785","bea99957-1862-4ad8-9558-57b91e42ce64","{""participantId"":""1B0A3B436BDB444C985971D16F65ECFD"",""assignmentId"":""f837b5b4-5428-47da-a62b-2a7da0a2f785"",""projectId"":""bea99957-1862-4ad8-9558-57b91e42ce64""}","https://test12345.live/?participantId=1B0A3B436BDB444C985971D16F65ECFD&assignmentId=f837b5b4-5428-47da-a62b-2a7da0a2f785&projectId=bea99957-1862-4ad8-9558-57b91e42ce64","","935","
    <div style=""display: flex; justify-content: center; align-items: center;"">
      <img src=""images/red_deck_2.png"" style=""width: 300px; height: 300px; margin-right: 10px;"" />
      <img src=""images/blue_deck_1.png"" style=""width: 300px; height: 300px;"" />
    </div>","0","0",""
"","","","","","html-keyboard-response","76","202368","0.0-57.0-0.0","1B0A3B436BDB444C985971D16F65ECFD","1B0A3B436BDB444C985971D16F65ECFD","f837b5b4-5428-47da-a62b-2a7da0a2f785","bea99957-1862-4ad8-9558-57b91e42ce64","{""participantId"":""1B0A3B436BDB444C985971D16F65ECFD"",""assignmentId"":""f837b5b4-5428-47da-a62b-2a7da0a2f785"",""projectId"":""bea99957-1862-4ad8-9558-57b91e42ce64""}","https://test12345.live/?participantId=1B0A3B436BDB444C985971D16F65ECFD&assignmentId=f837b5b4-5428-47da-a62b-2a7da0a2f785&projectId=bea99957-1862-4ad8-9558-57b91e42ce64","","null","<div style=""display: flex; justify-content: center; align-items: center;"">
                    <img src=""images/semantic/semantic_series_16/semantic_series_16_a.jpg"" style=""width: 300px; height: 300px;"" />
                  </div>","null","",""
"","","","","","html-keyboard-response","77","205384","0.0-57.0-1.0","1B0A3B436BDB444C985971D16F65ECFD","1B0A3B436BDB444C985971D16F65ECFD","f837b5b4-5428-47da-a62b-2a7da0a2f785","bea99957-1862-4ad8-9558-57b91e42ce64","{""participantId"":""1B0A3B436BDB444C985971D16F65ECFD"",""assignmentId"":""f837b5b4-5428-47da-a62b-2a7da0a2f785"",""projectId"":""bea99957-1862-4ad8-9558-57b91e42ce64""}","https://test12345.live/?participantId=1B0A3B436BDB444C985971D16F65ECFD&assignmentId=f837b5b4-5428-47da-a62b-2a7da0a2f785&projectId=bea99957-1862-4ad8-9558-57b91e42ce64","","null","<div style=""display: flex; justify-content: center; align-items: center;"">
                    <img src=""images/semantic/semantic_series_16/semantic_series_16_b.jpg"" style=""width: 300px; height: 300px;"" />
                  </div>","null","",""
"","","","","","html-keyboard-response","78","208400","0.0-57.0-2.0","1B0A3B436BDB444C985971D16F65ECFD","1B0A3B436BDB444C985971D16F65ECFD","f837b5b4-5428-47da-a62b-2a7da0a2f785","bea99957-1862-4ad8-9558-57b91e42ce64","{""participantId"":""1B0A3B436BDB444C985971D16F65ECFD"",""assignmentId"":""f837b5b4-5428-47da-a62b-2a7da0a2f785"",""projectId"":""bea99957-1862-4ad8-9558-57b91e42ce64""}","https://test12345.live/?participantId=1B0A3B436BDB444C985971D16F65ECFD&assignmentId=f837b5b4-5428-47da-a62b-2a7da0a2f785&projectId=bea99957-1862-4ad8-9558-57b91e42ce64","","null","<div style=""display: flex; justify-content: center; align-items: center;"">
                    <img src=""images/semantic/semantic_series_16/semantic_series_16_c.jpg"" style=""width: 300px; height: 300px;"" />
                  </div>","null","",""
"","","","","","html-keyboard-response","79","211414","0.0-57.0-3.0","1B0A3B436BDB444C985971D16F65ECFD","1B0A3B436BDB444C985971D16F65ECFD","f837b5b4-5428-47da-a62b-2a7da0a2f785","bea99957-1862-4ad8-9558-57b91e42ce64","{""participantId"":""1B0A3B436BDB444C985971D16F65ECFD"",""assignmentId"":""f837b5b4-5428-47da-a62b-2a7da0a2f785"",""projectId"":""bea99957-1862-4ad8-9558-57b91e42ce64""}","https://test12345.live/?participantId=1B0A3B436BDB444C985971D16F65ECFD&assignmentId=f837b5b4-5428-47da-a62b-2a7da0a2f785&projectId=bea99957-1862-4ad8-9558-57b91e42ce64","","null","<div style=""display: flex; justify-content: center; align-items: center;"">
                    <img src=""images/semantic/semantic_series_16/semantic_series_16_d.jpg"" style=""width: 300px; height: 300px;"" />
                  </div>","null","",""
"","","","","","html-button-response","80","212504","0.0-58.0","1B0A3B436BDB444C985971D16F65ECFD","1B0A3B436BDB444C985971D16F65ECFD","f837b5b4-5428-47da-a62b-2a7da0a2f785","bea99957-1862-4ad8-9558-57b91e42ce64","{""participantId"":""1B0A3B436BDB444C985971D16F65ECFD"",""assignmentId"":""f837b5b4-5428-47da-a62b-2a7da0a2f785"",""projectId"":""bea99957-1862-4ad8-9558-57b91e42ce64""}","https://test12345.live/?participantId=1B0A3B436BDB444C985971D16F65ECFD&assignmentId=f837b5b4-5428-47da-a62b-2a7da0a2f785&projectId=bea99957-1862-4ad8-9558-57b91e42ce64","","1090","Was there a person in the picture?","0","",""
"","","","","","survey-likert","81","214697","0.0-59.0","1B0A3B436BDB444C985971D16F65ECFD","1B0A3B436BDB444C985971D16F65ECFD","f837b5b4-5428-47da-a62b-2a7da0a2f785","bea99957-1862-4ad8-9558-57b91e42ce64","{""participantId"":""1B0A3B436BDB444C985971D16F65ECFD"",""assignmentId"":""f837b5b4-5428-47da-a62b-2a7da0a2f785"",""projectId"":""bea99957-1862-4ad8-9558-57b91e42ce64""}","https://test12345.live/?participantId=1B0A3B436BDB444C985971D16F65ECFD&assignmentId=f837b5b4-5428-47da-a62b-2a7da0a2f785&projectId=bea99957-1862-4ad8-9558-57b91e42ce64","","2191","","{""Q0"":0}","","[0]"
"","","","","","html-button-response","82","215553","0.0-60.0","1B0A3B436BDB444C985971D16F65ECFD","1B0A3B436BDB444C985971D16F65ECFD","f837b5b4-5428-47da-a62b-2a7da0a2f785","bea99957-1862-4ad8-9558-57b91e42ce64","{""participantId"":""1B0A3B436BDB444C985971D16F65ECFD"",""assignmentId"":""f837b5b4-5428-47da-a62b-2a7da0a2f785"",""projectId"":""bea99957-1862-4ad8-9558-57b91e42ce64""}","https://test12345.live/?participantId=1B0A3B436BDB444C985971D16F65ECFD&assignmentId=f837b5b4-5428-47da-a62b-2a7da0a2f785&projectId=bea99957-1862-4ad8-9558-57b91e42ce64","","855","
    <div style=""display: flex; justify-content: center; align-items: center;"">
      <img src=""images/red_deck_2.png"" style=""width: 300px; height: 300px; margin-right: 10px;"" />
      <img src=""images/blue_deck_1.png"" style=""width: 300px; height: 300px;"" />
    </div>","1","1",""
"","","","","","html-keyboard-response","83","218560","0.0-61.0-0.0","1B0A3B436BDB444C985971D16F65ECFD","1B0A3B436BDB444C985971D16F65ECFD","f837b5b4-5428-47da-a62b-2a7da0a2f785","bea99957-1862-4ad8-9558-57b91e42ce64","{""participantId"":""1B0A3B436BDB444C985971D16F65ECFD"",""assignmentId"":""f837b5b4-5428-47da-a62b-2a7da0a2f785"",""projectId"":""bea99957-1862-4ad8-9558-57b91e42ce64""}","https://test12345.live/?participantId=1B0A3B436BDB444C985971D16F65ECFD&assignmentId=f837b5b4-5428-47da-a62b-2a7da0a2f785&projectId=bea99957-1862-4ad8-9558-57b91e42ce64","","null","<div style=""display: flex; justify-content: center; align-items: center;"">
                    <img src=""images/causal/causal_series_8/causal_series_8_a.jpg"" style=""width: 300px; height: 300px;"" />
                  </div>","null","",""
"","","","","","html-keyboard-response","84","221563","0.0-61.0-1.0","1B0A3B436BDB444C985971D16F65ECFD","1B0A3B436BDB444C985971D16F65ECFD","f837b5b4-5428-47da-a62b-2a7da0a2f785","bea99957-1862-4ad8-9558-57b91e42ce64","{""participantId"":""1B0A3B436BDB444C985971D16F65ECFD"",""assignmentId"":""f837b5b4-5428-47da-a62b-2a7da0a2f785"",""projectId"":""bea99957-1862-4ad8-9558-57b91e42ce64""}","https://test12345.live/?participantId=1B0A3B436BDB444C985971D16F65ECFD&assignmentId=f837b5b4-5428-47da-a62b-2a7da0a2f785&projectId=bea99957-1862-4ad8-9558-57b91e42ce64","","null","<div style=""display: flex; justify-content: center; align-items: center;"">
                    <img src=""images/causal/causal_series_8/causal_series_8_b.jpg"" style=""width: 300px; height: 300px;"" />
                  </div>","null","",""
"","","","","","html-keyboard-response","85","224564","0.0-61.0-2.0","1B0A3B436BDB444C985971D16F65ECFD","1B0A3B436BDB444C985971D16F65ECFD","f837b5b4-5428-47da-a62b-2a7da0a2f785","bea99957-1862-4ad8-9558-57b91e42ce64","{""participantId"":""1B0A3B436BDB444C985971D16F65ECFD"",""assignmentId"":""f837b5b4-5428-47da-a62b-2a7da0a2f785"",""projectId"":""bea99957-1862-4ad8-9558-57b91e42ce64""}","https://test12345.live/?participantId=1B0A3B436BDB444C985971D16F65ECFD&assignmentId=f837b5b4-5428-47da-a62b-2a7da0a2f785&projectId=bea99957-1862-4ad8-9558-57b91e42ce64","","null","<div style=""display: flex; justify-content: center; align-items: center;"">
                    <img src=""images/causal/causal_series_8/causal_series_8_c.jpg"" style=""width: 300px; height: 300px;"" />
                  </div>","null","",""
"","","","","","html-keyboard-response","86","227571","0.0-61.0-3.0","1B0A3B436BDB444C985971D16F65ECFD","1B0A3B436BDB444C985971D16F65ECFD","f837b5b4-5428-47da-a62b-2a7da0a2f785","bea99957-1862-4ad8-9558-57b91e42ce64","{""participantId"":""1B0A3B436BDB444C985971D16F65ECFD"",""assignmentId"":""f837b5b4-5428-47da-a62b-2a7da0a2f785"",""projectId"":""bea99957-1862-4ad8-9558-57b91e42ce64""}","https://test12345.live/?participantId=1B0A3B436BDB444C985971D16F65ECFD&assignmentId=f837b5b4-5428-47da-a62b-2a7da0a2f785&projectId=bea99957-1862-4ad8-9558-57b91e42ce64","","null","<div style=""display: flex; justify-content: center; align-items: center;"">
                    <img src=""images/causal/causal_series_8/causal_series_8_d.jpg"" style=""width: 300px; height: 300px;"" />
                  </div>","null","",""
"","","","","","html-button-response","87","228712","0.0-63.0","1B0A3B436BDB444C985971D16F65ECFD","1B0A3B436BDB444C985971D16F65ECFD","f837b5b4-5428-47da-a62b-2a7da0a2f785","bea99957-1862-4ad8-9558-57b91e42ce64","{""participantId"":""1B0A3B436BDB444C985971D16F65ECFD"",""assignmentId"":""f837b5b4-5428-47da-a62b-2a7da0a2f785"",""projectId"":""bea99957-1862-4ad8-9558-57b91e42ce64""}","https://test12345.live/?participantId=1B0A3B436BDB444C985971D16F65ECFD&assignmentId=f837b5b4-5428-47da-a62b-2a7da0a2f785&projectId=bea99957-1862-4ad8-9558-57b91e42ce64","","1140","Was there a person in the picture?","1","",""
"","","","","","survey-likert","88","230369","0.0-64.0","1B0A3B436BDB444C985971D16F65ECFD","1B0A3B436BDB444C985971D16F65ECFD","f837b5b4-5428-47da-a62b-2a7da0a2f785","bea99957-1862-4ad8-9558-57b91e42ce64","{""participantId"":""1B0A3B436BDB444C985971D16F65ECFD"",""assignmentId"":""f837b5b4-5428-47da-a62b-2a7da0a2f785"",""projectId"":""bea99957-1862-4ad8-9558-57b91e42ce64""}","https://test12345.live/?participantId=1B0A3B436BDB444C985971D16F65ECFD&assignmentId=f837b5b4-5428-47da-a62b-2a7da0a2f785&projectId=bea99957-1862-4ad8-9558-57b91e42ce64","","1655","","{""Q0"":2}","","[0]"
"","","","","","html-button-response","89","231457","0.0-65.0","1B0A3B436BDB444C985971D16F65ECFD","1B0A3B436BDB444C985971D16F65ECFD","f837b5b4-5428-47da-a62b-2a7da0a2f785","bea99957-1862-4ad8-9558-57b91e42ce64","{""participantId"":""1B0A3B436BDB444C985971D16F65ECFD"",""assignmentId"":""f837b5b4-5428-47da-a62b-2a7da0a2f785"",""projectId"":""bea99957-1862-4ad8-9558-57b91e42ce64""}","https://test12345.live/?participantId=1B0A3B436BDB444C985971D16F65ECFD&assignmentId=f837b5b4-5428-47da-a62b-2a7da0a2f785&projectId=bea99957-1862-4ad8-9558-57b91e42ce64","","1087","
    <div style=""display: flex; justify-content: center; align-items: center;"">
      <img src=""images/red_deck_2.png"" style=""width: 300px; height: 300px; margin-right: 10px;"" />
      <img src=""images/blue_deck_1.png"" style=""width: 300px; height: 300px;"" />
    </div>","1","1",""
"","","","","","html-keyboard-response","90","234465","0.0-66.0-0.0","1B0A3B436BDB444C985971D16F65ECFD","1B0A3B436BDB444C985971D16F65ECFD","f837b5b4-5428-47da-a62b-2a7da0a2f785","bea99957-1862-4ad8-9558-57b91e42ce64","{""participantId"":""1B0A3B436BDB444C985971D16F65ECFD"",""assignmentId"":""f837b5b4-5428-47da-a62b-2a7da0a2f785"",""projectId"":""bea99957-1862-4ad8-9558-57b91e42ce64""}","https://test12345.live/?participantId=1B0A3B436BDB444C985971D16F65ECFD&assignmentId=f837b5b4-5428-47da-a62b-2a7da0a2f785&projectId=bea99957-1862-4ad8-9558-57b91e42ce64","","null","<div style=""display: flex; justify-content: center; align-items: center;"">
                    <img src=""images/causal/causal_series_13/causal_series_13_a.jpg"" style=""width: 300px; height: 300px;"" />
                  </div>","null","",""
"","","","","","html-keyboard-response","91","237490","0.0-66.0-1.0","1B0A3B436BDB444C985971D16F65ECFD","1B0A3B436BDB444C985971D16F65ECFD","f837b5b4-5428-47da-a62b-2a7da0a2f785","bea99957-1862-4ad8-9558-57b91e42ce64","{""participantId"":""1B0A3B436BDB444C985971D16F65ECFD"",""assignmentId"":""f837b5b4-5428-47da-a62b-2a7da0a2f785"",""projectId"":""bea99957-1862-4ad8-9558-57b91e42ce64""}","https://test12345.live/?participantId=1B0A3B436BDB444C985971D16F65ECFD&assignmentId=f837b5b4-5428-47da-a62b-2a7da0a2f785&projectId=bea99957-1862-4ad8-9558-57b91e42ce64","","null","<div style=""display: flex; justify-content: center; align-items: center;"">
                    <img src=""images/causal/causal_series_13/causal_series_13_b.jpg"" style=""width: 300px; height: 300px;"" />
                  </div>","null","",""
"","","","","","html-keyboard-response","92","240506","0.0-66.0-2.0","1B0A3B436BDB444C985971D16F65ECFD","1B0A3B436BDB444C985971D16F65ECFD","f837b5b4-5428-47da-a62b-2a7da0a2f785","bea99957-1862-4ad8-9558-57b91e42ce64","{""participantId"":""1B0A3B436BDB444C985971D16F65ECFD"",""assignmentId"":""f837b5b4-5428-47da-a62b-2a7da0a2f785"",""projectId"":""bea99957-1862-4ad8-9558-57b91e42ce64""}","https://test12345.live/?participantId=1B0A3B436BDB444C985971D16F65ECFD&assignmentId=f837b5b4-5428-47da-a62b-2a7da0a2f785&projectId=bea99957-1862-4ad8-9558-57b91e42ce64","","null","<div style=""display: flex; justify-content: center; align-items: center;"">
                    <img src=""images/causal/causal_series_13/causal_series_13_c.jpg"" style=""width: 300px; height: 300px;"" />
                  </div>","null","",""
"","","","","","html-keyboard-response","93","243521","0.0-66.0-3.0","1B0A3B436BDB444C985971D16F65ECFD","1B0A3B436BDB444C985971D16F65ECFD","f837b5b4-5428-47da-a62b-2a7da0a2f785","bea99957-1862-4ad8-9558-57b91e42ce64","{""participantId"":""1B0A3B436BDB444C985971D16F65ECFD"",""assignmentId"":""f837b5b4-5428-47da-a62b-2a7da0a2f785"",""projectId"":""bea99957-1862-4ad8-9558-57b91e42ce64""}","https://test12345.live/?participantId=1B0A3B436BDB444C985971D16F65ECFD&assignmentId=f837b5b4-5428-47da-a62b-2a7da0a2f785&projectId=bea99957-1862-4ad8-9558-57b91e42ce64","","null","<div style=""display: flex; justify-content: center; align-items: center;"">
                    <img src=""images/causal/causal_series_13/causal_series_13_d.jpg"" style=""width: 300px; height: 300px;"" />
                  </div>","null","",""
"","","","","","html-button-response","94","244641","0.0-68.0","1B0A3B436BDB444C985971D16F65ECFD","1B0A3B436BDB444C985971D16F65ECFD","f837b5b4-5428-47da-a62b-2a7da0a2f785","bea99957-1862-4ad8-9558-57b91e42ce64","{""participantId"":""1B0A3B436BDB444C985971D16F65ECFD"",""assignmentId"":""f837b5b4-5428-47da-a62b-2a7da0a2f785"",""projectId"":""bea99957-1862-4ad8-9558-57b91e42ce64""}","https://test12345.live/?participantId=1B0A3B436BDB444C985971D16F65ECFD&assignmentId=f837b5b4-5428-47da-a62b-2a7da0a2f785&projectId=bea99957-1862-4ad8-9558-57b91e42ce64","","1119","Was there a person in the picture?","0","",""
"","","","","","survey-likert","95","246592","0.0-69.0","1B0A3B436BDB444C985971D16F65ECFD","1B0A3B436BDB444C985971D16F65ECFD","f837b5b4-5428-47da-a62b-2a7da0a2f785","bea99957-1862-4ad8-9558-57b91e42ce64","{""participantId"":""1B0A3B436BDB444C985971D16F65ECFD"",""assignmentId"":""f837b5b4-5428-47da-a62b-2a7da0a2f785"",""projectId"":""bea99957-1862-4ad8-9558-57b91e42ce64""}","https://test12345.live/?participantId=1B0A3B436BDB444C985971D16F65ECFD&assignmentId=f837b5b4-5428-47da-a62b-2a7da0a2f785&projectId=bea99957-1862-4ad8-9558-57b91e42ce64","","1951","","{""Q0"":2}","","[0]"
"","","","","","html-button-response","96","247377","0.0-70.0","1B0A3B436BDB444C985971D16F65ECFD","1B0A3B436BDB444C985971D16F65ECFD","f837b5b4-5428-47da-a62b-2a7da0a2f785","bea99957-1862-4ad8-9558-57b91e42ce64","{""participantId"":""1B0A3B436BDB444C985971D16F65ECFD"",""assignmentId"":""f837b5b4-5428-47da-a62b-2a7da0a2f785"",""projectId"":""bea99957-1862-4ad8-9558-57b91e42ce64""}","https://test12345.live/?participantId=1B0A3B436BDB444C985971D16F65ECFD&assignmentId=f837b5b4-5428-47da-a62b-2a7da0a2f785&projectId=bea99957-1862-4ad8-9558-57b91e42ce64","","783","
    <div style=""display: flex; justify-content: center; align-items: center;"">
      <img src=""images/red_deck_2.png"" style=""width: 300px; height: 300px; margin-right: 10px;"" />
      <img src=""images/blue_deck_1.png"" style=""width: 300px; height: 300px;"" />
    </div>","0","0",""
"","","","","","html-keyboard-response","97","250389","0.0-72.0-0.0","1B0A3B436BDB444C985971D16F65ECFD","1B0A3B436BDB444C985971D16F65ECFD","f837b5b4-5428-47da-a62b-2a7da0a2f785","bea99957-1862-4ad8-9558-57b91e42ce64","{""participantId"":""1B0A3B436BDB444C985971D16F65ECFD"",""assignmentId"":""f837b5b4-5428-47da-a62b-2a7da0a2f785"",""projectId"":""bea99957-1862-4ad8-9558-57b91e42ce64""}","https://test12345.live/?participantId=1B0A3B436BDB444C985971D16F65ECFD&assignmentId=f837b5b4-5428-47da-a62b-2a7da0a2f785&projectId=bea99957-1862-4ad8-9558-57b91e42ce64","","null","<div style=""display: flex; justify-content: center; align-items: center;"">
                    <img src=""images/semantic/semantic_series_3/semantic_series_3_a.jpg"" style=""width: 300px; height: 300px;"" />
                  </div>","null","",""
"","","","","","html-keyboard-response","98","253391","0.0-72.0-1.0","1B0A3B436BDB444C985971D16F65ECFD","1B0A3B436BDB444C985971D16F65ECFD","f837b5b4-5428-47da-a62b-2a7da0a2f785","bea99957-1862-4ad8-9558-57b91e42ce64","{""participantId"":""1B0A3B436BDB444C985971D16F65ECFD"",""assignmentId"":""f837b5b4-5428-47da-a62b-2a7da0a2f785"",""projectId"":""bea99957-1862-4ad8-9558-57b91e42ce64""}","https://test12345.live/?participantId=1B0A3B436BDB444C985971D16F65ECFD&assignmentId=f837b5b4-5428-47da-a62b-2a7da0a2f785&projectId=bea99957-1862-4ad8-9558-57b91e42ce64","","null","<div style=""display: flex; justify-content: center; align-items: center;"">
                    <img src=""images/semantic/semantic_series_3/semantic_series_3_b.jpg"" style=""width: 300px; height: 300px;"" />
                  </div>","null","",""
"","","","","","html-keyboard-response","99","256397","0.0-72.0-2.0","1B0A3B436BDB444C985971D16F65ECFD","1B0A3B436BDB444C985971D16F65ECFD","f837b5b4-5428-47da-a62b-2a7da0a2f785","bea99957-1862-4ad8-9558-57b91e42ce64","{""participantId"":""1B0A3B436BDB444C985971D16F65ECFD"",""assignmentId"":""f837b5b4-5428-47da-a62b-2a7da0a2f785"",""projectId"":""bea99957-1862-4ad8-9558-57b91e42ce64""}","https://test12345.live/?participantId=1B0A3B436BDB444C985971D16F65ECFD&assignmentId=f837b5b4-5428-47da-a62b-2a7da0a2f785&projectId=bea99957-1862-4ad8-9558-57b91e42ce64","","null","<div style=""display: flex; justify-content: center; align-items: center;"">
                    <img src=""images/semantic/semantic_series_3/semantic_series_3_c.jpg"" style=""width: 300px; height: 300px;"" />
                  </div>","null","",""
"","","","","","html-keyboard-response","100","259405","0.0-72.0-3.0","1B0A3B436BDB444C985971D16F65ECFD","1B0A3B436BDB444C985971D16F65ECFD","f837b5b4-5428-47da-a62b-2a7da0a2f785","bea99957-1862-4ad8-9558-57b91e42ce64","{""participantId"":""1B0A3B436BDB444C985971D16F65ECFD"",""assignmentId"":""f837b5b4-5428-47da-a62b-2a7da0a2f785"",""projectId"":""bea99957-1862-4ad8-9558-57b91e42ce64""}","https://test12345.live/?participantId=1B0A3B436BDB444C985971D16F65ECFD&assignmentId=f837b5b4-5428-47da-a62b-2a7da0a2f785&projectId=bea99957-1862-4ad8-9558-57b91e42ce64","","null","<div style=""display: flex; justify-content: center; align-items: center;"">
                    <img src=""images/semantic/semantic_series_3/semantic_series_3_d.jpg"" style=""width: 300px; height: 300px;"" />
                  </div>","null","",""
"","","","","","html-button-response","101","260233","0.0-73.0","1B0A3B436BDB444C985971D16F65ECFD","1B0A3B436BDB444C985971D16F65ECFD","f837b5b4-5428-47da-a62b-2a7da0a2f785","bea99957-1862-4ad8-9558-57b91e42ce64","{""participantId"":""1B0A3B436BDB444C985971D16F65ECFD"",""assignmentId"":""f837b5b4-5428-47da-a62b-2a7da0a2f785"",""projectId"":""bea99957-1862-4ad8-9558-57b91e42ce64""}","https://test12345.live/?participantId=1B0A3B436BDB444C985971D16F65ECFD&assignmentId=f837b5b4-5428-47da-a62b-2a7da0a2f785&projectId=bea99957-1862-4ad8-9558-57b91e42ce64","","827","Was there a person in the picture?","0","",""
"","","","","","survey-likert","102","261688","0.0-74.0","1B0A3B436BDB444C985971D16F65ECFD","1B0A3B436BDB444C985971D16F65ECFD","f837b5b4-5428-47da-a62b-2a7da0a2f785","bea99957-1862-4ad8-9558-57b91e42ce64","{""participantId"":""1B0A3B436BDB444C985971D16F65ECFD"",""assignmentId"":""f837b5b4-5428-47da-a62b-2a7da0a2f785"",""projectId"":""bea99957-1862-4ad8-9558-57b91e42ce64""}","https://test12345.live/?participantId=1B0A3B436BDB444C985971D16F65ECFD&assignmentId=f837b5b4-5428-47da-a62b-2a7da0a2f785&projectId=bea99957-1862-4ad8-9558-57b91e42ce64","","1456","","{""Q0"":1}","","[0]"
"","","","","","html-button-response","103","262905","0.0-75.0","1B0A3B436BDB444C985971D16F65ECFD","1B0A3B436BDB444C985971D16F65ECFD","f837b5b4-5428-47da-a62b-2a7da0a2f785","bea99957-1862-4ad8-9558-57b91e42ce64","{""participantId"":""1B0A3B436BDB444C985971D16F65ECFD"",""assignmentId"":""f837b5b4-5428-47da-a62b-2a7da0a2f785"",""projectId"":""bea99957-1862-4ad8-9558-57b91e42ce64""}","https://test12345.live/?participantId=1B0A3B436BDB444C985971D16F65ECFD&assignmentId=f837b5b4-5428-47da-a62b-2a7da0a2f785&projectId=bea99957-1862-4ad8-9558-57b91e42ce64","","1215","
    <div style=""display: flex; justify-content: center; align-items: center;"">
      <img src=""images/red_deck_2.png"" style=""width: 300px; height: 300px; margin-right: 10px;"" />
      <img src=""images/blue_deck_1.png"" style=""width: 300px; height: 300px;"" />
    </div>","1","1",""
"","","","","","html-keyboard-response","104","265907","0.0-76.0-0.0","1B0A3B436BDB444C985971D16F65ECFD","1B0A3B436BDB444C985971D16F65ECFD","f837b5b4-5428-47da-a62b-2a7da0a2f785","bea99957-1862-4ad8-9558-57b91e42ce64","{""participantId"":""1B0A3B436BDB444C985971D16F65ECFD"",""assignmentId"":""f837b5b4-5428-47da-a62b-2a7da0a2f785"",""projectId"":""bea99957-1862-4ad8-9558-57b91e42ce64""}","https://test12345.live/?participantId=1B0A3B436BDB444C985971D16F65ECFD&assignmentId=f837b5b4-5428-47da-a62b-2a7da0a2f785&projectId=bea99957-1862-4ad8-9558-57b91e42ce64","","null","<div style=""display: flex; justify-content: center; align-items: center;"">
                    <img src=""images/causal/causal_series_12/causal_series_12_a.jpg"" style=""width: 300px; height: 300px;"" />
                  </div>","null","",""
"","","","","","html-keyboard-response","105","268956","0.0-76.0-1.0","1B0A3B436BDB444C985971D16F65ECFD","1B0A3B436BDB444C985971D16F65ECFD","f837b5b4-5428-47da-a62b-2a7da0a2f785","bea99957-1862-4ad8-9558-57b91e42ce64","{""participantId"":""1B0A3B436BDB444C985971D16F65ECFD"",""assignmentId"":""f837b5b4-5428-47da-a62b-2a7da0a2f785"",""projectId"":""bea99957-1862-4ad8-9558-57b91e42ce64""}","https://test12345.live/?participantId=1B0A3B436BDB444C985971D16F65ECFD&assignmentId=f837b5b4-5428-47da-a62b-2a7da0a2f785&projectId=bea99957-1862-4ad8-9558-57b91e42ce64","","null","<div style=""display: flex; justify-content: center; align-items: center;"">
                    <img src=""images/causal/causal_series_12/causal_series_12_b.jpg"" style=""width: 300px; height: 300px;"" />
                  </div>","null","",""
"","","","","","html-keyboard-response","106","271963","0.0-76.0-2.0","1B0A3B436BDB444C985971D16F65ECFD","1B0A3B436BDB444C985971D16F65ECFD","f837b5b4-5428-47da-a62b-2a7da0a2f785","bea99957-1862-4ad8-9558-57b91e42ce64","{""participantId"":""1B0A3B436BDB444C985971D16F65ECFD"",""assignmentId"":""f837b5b4-5428-47da-a62b-2a7da0a2f785"",""projectId"":""bea99957-1862-4ad8-9558-57b91e42ce64""}","https://test12345.live/?participantId=1B0A3B436BDB444C985971D16F65ECFD&assignmentId=f837b5b4-5428-47da-a62b-2a7da0a2f785&projectId=bea99957-1862-4ad8-9558-57b91e42ce64","","null","<div style=""display: flex; justify-content: center; align-items: center;"">
                    <img src=""images/causal/causal_series_12/causal_series_12_c.jpg"" style=""width: 300px; height: 300px;"" />
                  </div>","null","",""
"","","","","","html-keyboard-response","107","274965","0.0-76.0-3.0","1B0A3B436BDB444C985971D16F65ECFD","1B0A3B436BDB444C985971D16F65ECFD","f837b5b4-5428-47da-a62b-2a7da0a2f785","bea99957-1862-4ad8-9558-57b91e42ce64","{""participantId"":""1B0A3B436BDB444C985971D16F65ECFD"",""assignmentId"":""f837b5b4-5428-47da-a62b-2a7da0a2f785"",""projectId"":""bea99957-1862-4ad8-9558-57b91e42ce64""}","https://test12345.live/?participantId=1B0A3B436BDB444C985971D16F65ECFD&assignmentId=f837b5b4-5428-47da-a62b-2a7da0a2f785&projectId=bea99957-1862-4ad8-9558-57b91e42ce64","","null","<div style=""display: flex; justify-content: center; align-items: center;"">
                    <img src=""images/causal/causal_series_12/causal_series_12_d.jpg"" style=""width: 300px; height: 300px;"" />
                  </div>","null","",""
"","","","","","html-button-response","108","275833","0.0-78.0","1B0A3B436BDB444C985971D16F65ECFD","1B0A3B436BDB444C985971D16F65ECFD","f837b5b4-5428-47da-a62b-2a7da0a2f785","bea99957-1862-4ad8-9558-57b91e42ce64","{""participantId"":""1B0A3B436BDB444C985971D16F65ECFD"",""assignmentId"":""f837b5b4-5428-47da-a62b-2a7da0a2f785"",""projectId"":""bea99957-1862-4ad8-9558-57b91e42ce64""}","https://test12345.live/?participantId=1B0A3B436BDB444C985971D16F65ECFD&assignmentId=f837b5b4-5428-47da-a62b-2a7da0a2f785&projectId=bea99957-1862-4ad8-9558-57b91e42ce64","","866","Was there a person in the picture?","1","",""
"","","","","","survey-likert","109","276857","0.0-79.0","1B0A3B436BDB444C985971D16F65ECFD","1B0A3B436BDB444C985971D16F65ECFD","f837b5b4-5428-47da-a62b-2a7da0a2f785","bea99957-1862-4ad8-9558-57b91e42ce64","{""participantId"":""1B0A3B436BDB444C985971D16F65ECFD"",""assignmentId"":""f837b5b4-5428-47da-a62b-2a7da0a2f785"",""projectId"":""bea99957-1862-4ad8-9558-57b91e42ce64""}","https://test12345.live/?participantId=1B0A3B436BDB444C985971D16F65ECFD&assignmentId=f837b5b4-5428-47da-a62b-2a7da0a2f785&projectId=bea99957-1862-4ad8-9558-57b91e42ce64","","1023","","{""Q0"":3}","","[0]"
"","","","","","html-button-response","110","277601","0.0-80.0","1B0A3B436BDB444C985971D16F65ECFD","1B0A3B436BDB444C985971D16F65ECFD","f837b5b4-5428-47da-a62b-2a7da0a2f785","bea99957-1862-4ad8-9558-57b91e42ce64","{""participantId"":""1B0A3B436BDB444C985971D16F65ECFD"",""assignmentId"":""f837b5b4-5428-47da-a62b-2a7da0a2f785"",""projectId"":""bea99957-1862-4ad8-9558-57b91e42ce64""}","https://test12345.live/?participantId=1B0A3B436BDB444C985971D16F65ECFD&assignmentId=f837b5b4-5428-47da-a62b-2a7da0a2f785&projectId=bea99957-1862-4ad8-9558-57b91e42ce64","","744","
    <div style=""display: flex; justify-content: center; align-items: center;"">
      <img src=""images/red_deck_2.png"" style=""width: 300px; height: 300px; margin-right: 10px;"" />
      <img src=""images/blue_deck_1.png"" style=""width: 300px; height: 300px;"" />
    </div>","0","0",""
"","","","","","html-keyboard-response","111","280606","0.0-82.0-0.0","1B0A3B436BDB444C985971D16F65ECFD","1B0A3B436BDB444C985971D16F65ECFD","f837b5b4-5428-47da-a62b-2a7da0a2f785","bea99957-1862-4ad8-9558-57b91e42ce64","{""participantId"":""1B0A3B436BDB444C985971D16F65ECFD"",""assignmentId"":""f837b5b4-5428-47da-a62b-2a7da0a2f785"",""projectId"":""bea99957-1862-4ad8-9558-57b91e42ce64""}","https://test12345.live/?participantId=1B0A3B436BDB444C985971D16F65ECFD&assignmentId=f837b5b4-5428-47da-a62b-2a7da0a2f785&projectId=bea99957-1862-4ad8-9558-57b91e42ce64","","null","<div style=""display: flex; justify-content: center; align-items: center;"">
                    <img src=""images/semantic/semantic_series_14/semantic_series_14_a.jpg"" style=""width: 300px; height: 300px;"" />
                  </div>","null","",""
"","","","","","html-keyboard-response","112","283614","0.0-82.0-1.0","1B0A3B436BDB444C985971D16F65ECFD","1B0A3B436BDB444C985971D16F65ECFD","f837b5b4-5428-47da-a62b-2a7da0a2f785","bea99957-1862-4ad8-9558-57b91e42ce64","{""participantId"":""1B0A3B436BDB444C985971D16F65ECFD"",""assignmentId"":""f837b5b4-5428-47da-a62b-2a7da0a2f785"",""projectId"":""bea99957-1862-4ad8-9558-57b91e42ce64""}","https://test12345.live/?participantId=1B0A3B436BDB444C985971D16F65ECFD&assignmentId=f837b5b4-5428-47da-a62b-2a7da0a2f785&projectId=bea99957-1862-4ad8-9558-57b91e42ce64","","null","<div style=""display: flex; justify-content: center; align-items: center;"">
                    <img src=""images/semantic/semantic_series_14/semantic_series_14_b.jpg"" style=""width: 300px; height: 300px;"" />
                  </div>","null","",""
"","","","","","html-keyboard-response","113","286622","0.0-82.0-2.0","1B0A3B436BDB444C985971D16F65ECFD","1B0A3B436BDB444C985971D16F65ECFD","f837b5b4-5428-47da-a62b-2a7da0a2f785","bea99957-1862-4ad8-9558-57b91e42ce64","{""participantId"":""1B0A3B436BDB444C985971D16F65ECFD"",""assignmentId"":""f837b5b4-5428-47da-a62b-2a7da0a2f785"",""projectId"":""bea99957-1862-4ad8-9558-57b91e42ce64""}","https://test12345.live/?participantId=1B0A3B436BDB444C985971D16F65ECFD&assignmentId=f837b5b4-5428-47da-a62b-2a7da0a2f785&projectId=bea99957-1862-4ad8-9558-57b91e42ce64","","null","<div style=""display: flex; justify-content: center; align-items: center;"">
                    <img src=""images/semantic/semantic_series_14/semantic_series_14_c.jpg"" style=""width: 300px; height: 300px;"" />
                  </div>","null","",""
"","","","","","html-keyboard-response","114","289636","0.0-82.0-3.0","1B0A3B436BDB444C985971D16F65ECFD","1B0A3B436BDB444C985971D16F65ECFD","f837b5b4-5428-47da-a62b-2a7da0a2f785","bea99957-1862-4ad8-9558-57b91e42ce64","{""participantId"":""1B0A3B436BDB444C985971D16F65ECFD"",""assignmentId"":""f837b5b4-5428-47da-a62b-2a7da0a2f785"",""projectId"":""bea99957-1862-4ad8-9558-57b91e42ce64""}","https://test12345.live/?participantId=1B0A3B436BDB444C985971D16F65ECFD&assignmentId=f837b5b4-5428-47da-a62b-2a7da0a2f785&projectId=bea99957-1862-4ad8-9558-57b91e42ce64","","null","<div style=""display: flex; justify-content: center; align-items: center;"">
                    <img src=""images/semantic/semantic_series_14/semantic_series_14_d.jpg"" style=""width: 300px; height: 300px;"" />
                  </div>","null","",""
"","","","","","html-button-response","115","290888","0.0-83.0","1B0A3B436BDB444C985971D16F65ECFD","1B0A3B436BDB444C985971D16F65ECFD","f837b5b4-5428-47da-a62b-2a7da0a2f785","bea99957-1862-4ad8-9558-57b91e42ce64","{""participantId"":""1B0A3B436BDB444C985971D16F65ECFD"",""assignmentId"":""f837b5b4-5428-47da-a62b-2a7da0a2f785"",""projectId"":""bea99957-1862-4ad8-9558-57b91e42ce64""}","https://test12345.live/?participantId=1B0A3B436BDB444C985971D16F65ECFD&assignmentId=f837b5b4-5428-47da-a62b-2a7da0a2f785&projectId=bea99957-1862-4ad8-9558-57b91e42ce64","","1251","Was there a person in the picture?","0","",""
"","","","","","survey-likert","116","293873","0.0-84.0","1B0A3B436BDB444C985971D16F65ECFD","1B0A3B436BDB444C985971D16F65ECFD","f837b5b4-5428-47da-a62b-2a7da0a2f785","bea99957-1862-4ad8-9558-57b91e42ce64","{""participantId"":""1B0A3B436BDB444C985971D16F65ECFD"",""assignmentId"":""f837b5b4-5428-47da-a62b-2a7da0a2f785"",""projectId"":""bea99957-1862-4ad8-9558-57b91e42ce64""}","https://test12345.live/?participantId=1B0A3B436BDB444C985971D16F65ECFD&assignmentId=f837b5b4-5428-47da-a62b-2a7da0a2f785&projectId=bea99957-1862-4ad8-9558-57b91e42ce64","","2983","","{""Q0"":1}","","[0]"
"","","","","","html-button-response","117","294624","0.0-85.0","1B0A3B436BDB444C985971D16F65ECFD","1B0A3B436BDB444C985971D16F65ECFD","f837b5b4-5428-47da-a62b-2a7da0a2f785","bea99957-1862-4ad8-9558-57b91e42ce64","{""participantId"":""1B0A3B436BDB444C985971D16F65ECFD"",""assignmentId"":""f837b5b4-5428-47da-a62b-2a7da0a2f785"",""projectId"":""bea99957-1862-4ad8-9558-57b91e42ce64""}","https://test12345.live/?participantId=1B0A3B436BDB444C985971D16F65ECFD&assignmentId=f837b5b4-5428-47da-a62b-2a7da0a2f785&projectId=bea99957-1862-4ad8-9558-57b91e42ce64","","752","
    <div style=""display: flex; justify-content: center; align-items: center;"">
      <img src=""images/red_deck_2.png"" style=""width: 300px; height: 300px; margin-right: 10px;"" />
      <img src=""images/blue_deck_1.png"" style=""width: 300px; height: 300px;"" />
    </div>","0","0",""
"","","","","","html-keyboard-response","118","297637","0.0-87.0-0.0","1B0A3B436BDB444C985971D16F65ECFD","1B0A3B436BDB444C985971D16F65ECFD","f837b5b4-5428-47da-a62b-2a7da0a2f785","bea99957-1862-4ad8-9558-57b91e42ce64","{""participantId"":""1B0A3B436BDB444C985971D16F65ECFD"",""assignmentId"":""f837b5b4-5428-47da-a62b-2a7da0a2f785"",""projectId"":""bea99957-1862-4ad8-9558-57b91e42ce64""}","https://test12345.live/?participantId=1B0A3B436BDB444C985971D16F65ECFD&assignmentId=f837b5b4-5428-47da-a62b-2a7da0a2f785&projectId=bea99957-1862-4ad8-9558-57b91e42ce64","","null","<div style=""display: flex; justify-content: center; align-items: center;"">
                    <img src=""images/semantic/semantic_series_17/semantic_series_17_a.jpg"" style=""width: 300px; height: 300px;"" />
                  </div>","null","",""
"","","","","","html-keyboard-response","119","300647","0.0-87.0-1.0","1B0A3B436BDB444C985971D16F65ECFD","1B0A3B436BDB444C985971D16F65ECFD","f837b5b4-5428-47da-a62b-2a7da0a2f785","bea99957-1862-4ad8-9558-57b91e42ce64","{""participantId"":""1B0A3B436BDB444C985971D16F65ECFD"",""assignmentId"":""f837b5b4-5428-47da-a62b-2a7da0a2f785"",""projectId"":""bea99957-1862-4ad8-9558-57b91e42ce64""}","https://test12345.live/?participantId=1B0A3B436BDB444C985971D16F65ECFD&assignmentId=f837b5b4-5428-47da-a62b-2a7da0a2f785&projectId=bea99957-1862-4ad8-9558-57b91e42ce64","","null","<div style=""display: flex; justify-content: center; align-items: center;"">
                    <img src=""images/semantic/semantic_series_17/semantic_series_17_b.jpg"" style=""width: 300px; height: 300px;"" />
                  </div>","null","",""
"","","","","","html-keyboard-response","120","303649","0.0-87.0-2.0","1B0A3B436BDB444C985971D16F65ECFD","1B0A3B436BDB444C985971D16F65ECFD","f837b5b4-5428-47da-a62b-2a7da0a2f785","bea99957-1862-4ad8-9558-57b91e42ce64","{""participantId"":""1B0A3B436BDB444C985971D16F65ECFD"",""assignmentId"":""f837b5b4-5428-47da-a62b-2a7da0a2f785"",""projectId"":""bea99957-1862-4ad8-9558-57b91e42ce64""}","https://test12345.live/?participantId=1B0A3B436BDB444C985971D16F65ECFD&assignmentId=f837b5b4-5428-47da-a62b-2a7da0a2f785&projectId=bea99957-1862-4ad8-9558-57b91e42ce64","","null","<div style=""display: flex; justify-content: center; align-items: center;"">
                    <img src=""images/semantic/semantic_series_17/semantic_series_17_c.jpg"" style=""width: 300px; height: 300px;"" />
                  </div>","null","",""
"","","","","","html-keyboard-response","121","306654","0.0-87.0-3.0","1B0A3B436BDB444C985971D16F65ECFD","1B0A3B436BDB444C985971D16F65ECFD","f837b5b4-5428-47da-a62b-2a7da0a2f785","bea99957-1862-4ad8-9558-57b91e42ce64","{""participantId"":""1B0A3B436BDB444C985971D16F65ECFD"",""assignmentId"":""f837b5b4-5428-47da-a62b-2a7da0a2f785"",""projectId"":""bea99957-1862-4ad8-9558-57b91e42ce64""}","https://test12345.live/?participantId=1B0A3B436BDB444C985971D16F65ECFD&assignmentId=f837b5b4-5428-47da-a62b-2a7da0a2f785&projectId=bea99957-1862-4ad8-9558-57b91e42ce64","","null","<div style=""display: flex; justify-content: center; align-items: center;"">
                    <img src=""images/semantic/semantic_series_17/semantic_series_17_d.jpg"" style=""width: 300px; height: 300px;"" />
                  </div>","null","",""
"","","","","","html-button-response","122","308080","0.0-88.0","1B0A3B436BDB444C985971D16F65ECFD","1B0A3B436BDB444C985971D16F65ECFD","f837b5b4-5428-47da-a62b-2a7da0a2f785","bea99957-1862-4ad8-9558-57b91e42ce64","{""participantId"":""1B0A3B436BDB444C985971D16F65ECFD"",""assignmentId"":""f837b5b4-5428-47da-a62b-2a7da0a2f785"",""projectId"":""bea99957-1862-4ad8-9558-57b91e42ce64""}","https://test12345.live/?participantId=1B0A3B436BDB444C985971D16F65ECFD&assignmentId=f837b5b4-5428-47da-a62b-2a7da0a2f785&projectId=bea99957-1862-4ad8-9558-57b91e42ce64","","1425","Was there a person in the picture?","0","",""
"","","","","","survey-likert","123","310041","0.0-89.0","1B0A3B436BDB444C985971D16F65ECFD","1B0A3B436BDB444C985971D16F65ECFD","f837b5b4-5428-47da-a62b-2a7da0a2f785","bea99957-1862-4ad8-9558-57b91e42ce64","{""participantId"":""1B0A3B436BDB444C985971D16F65ECFD"",""assignmentId"":""f837b5b4-5428-47da-a62b-2a7da0a2f785"",""projectId"":""bea99957-1862-4ad8-9558-57b91e42ce64""}","https://test12345.live/?participantId=1B0A3B436BDB444C985971D16F65ECFD&assignmentId=f837b5b4-5428-47da-a62b-2a7da0a2f785&projectId=bea99957-1862-4ad8-9558-57b91e42ce64","","1960","","{""Q0"":1}","","[0]"
"","","","","","html-button-response","124","310944","0.0-90.0","1B0A3B436BDB444C985971D16F65ECFD","1B0A3B436BDB444C985971D16F65ECFD","f837b5b4-5428-47da-a62b-2a7da0a2f785","bea99957-1862-4ad8-9558-57b91e42ce64","{""participantId"":""1B0A3B436BDB444C985971D16F65ECFD"",""assignmentId"":""f837b5b4-5428-47da-a62b-2a7da0a2f785"",""projectId"":""bea99957-1862-4ad8-9558-57b91e42ce64""}","https://test12345.live/?participantId=1B0A3B436BDB444C985971D16F65ECFD&assignmentId=f837b5b4-5428-47da-a62b-2a7da0a2f785&projectId=bea99957-1862-4ad8-9558-57b91e42ce64","","903","
    <div style=""display: flex; justify-content: center; align-items: center;"">
      <img src=""images/red_deck_2.png"" style=""width: 300px; height: 300px; margin-right: 10px;"" />
      <img src=""images/blue_deck_1.png"" style=""width: 300px; height: 300px;"" />
    </div>","0","0",""
"","","","","","html-keyboard-response","125","313954","0.0-92.0-0.0","1B0A3B436BDB444C985971D16F65ECFD","1B0A3B436BDB444C985971D16F65ECFD","f837b5b4-5428-47da-a62b-2a7da0a2f785","bea99957-1862-4ad8-9558-57b91e42ce64","{""participantId"":""1B0A3B436BDB444C985971D16F65ECFD"",""assignmentId"":""f837b5b4-5428-47da-a62b-2a7da0a2f785"",""projectId"":""bea99957-1862-4ad8-9558-57b91e42ce64""}","https://test12345.live/?participantId=1B0A3B436BDB444C985971D16F65ECFD&assignmentId=f837b5b4-5428-47da-a62b-2a7da0a2f785&projectId=bea99957-1862-4ad8-9558-57b91e42ce64","","null","<div style=""display: flex; justify-content: center; align-items: center;"">
                    <img src=""images/semantic/semantic_series_13/semantic_series_13_a.jpg"" style=""width: 300px; height: 300px;"" />
                  </div>","null","",""
"","","","","","html-keyboard-response","126","316970","0.0-92.0-1.0","1B0A3B436BDB444C985971D16F65ECFD","1B0A3B436BDB444C985971D16F65ECFD","f837b5b4-5428-47da-a62b-2a7da0a2f785","bea99957-1862-4ad8-9558-57b91e42ce64","{""participantId"":""1B0A3B436BDB444C985971D16F65ECFD"",""assignmentId"":""f837b5b4-5428-47da-a62b-2a7da0a2f785"",""projectId"":""bea99957-1862-4ad8-9558-57b91e42ce64""}","https://test12345.live/?participantId=1B0A3B436BDB444C985971D16F65ECFD&assignmentId=f837b5b4-5428-47da-a62b-2a7da0a2f785&projectId=bea99957-1862-4ad8-9558-57b91e42ce64","","null","<div style=""display: flex; justify-content: center; align-items: center;"">
                    <img src=""images/semantic/semantic_series_13/semantic_series_13_b.jpg"" style=""width: 300px; height: 300px;"" />
                  </div>","null","",""
"","","","","","html-keyboard-response","127","319983","0.0-92.0-2.0","1B0A3B436BDB444C985971D16F65ECFD","1B0A3B436BDB444C985971D16F65ECFD","f837b5b4-5428-47da-a62b-2a7da0a2f785","bea99957-1862-4ad8-9558-57b91e42ce64","{""participantId"":""1B0A3B436BDB444C985971D16F65ECFD"",""assignmentId"":""f837b5b4-5428-47da-a62b-2a7da0a2f785"",""projectId"":""bea99957-1862-4ad8-9558-57b91e42ce64""}","https://test12345.live/?participantId=1B0A3B436BDB444C985971D16F65ECFD&assignmentId=f837b5b4-5428-47da-a62b-2a7da0a2f785&projectId=bea99957-1862-4ad8-9558-57b91e42ce64","","null","<div style=""display: flex; justify-content: center; align-items: center;"">
                    <img src=""images/semantic/semantic_series_13/semantic_series_13_c.jpg"" style=""width: 300px; height: 300px;"" />
                  </div>","null","",""
"","","","","","html-keyboard-response","128","322996","0.0-92.0-3.0","1B0A3B436BDB444C985971D16F65ECFD","1B0A3B436BDB444C985971D16F65ECFD","f837b5b4-5428-47da-a62b-2a7da0a2f785","bea99957-1862-4ad8-9558-57b91e42ce64","{""participantId"":""1B0A3B436BDB444C985971D16F65ECFD"",""assignmentId"":""f837b5b4-5428-47da-a62b-2a7da0a2f785"",""projectId"":""bea99957-1862-4ad8-9558-57b91e42ce64""}","https://test12345.live/?participantId=1B0A3B436BDB444C985971D16F65ECFD&assignmentId=f837b5b4-5428-47da-a62b-2a7da0a2f785&projectId=bea99957-1862-4ad8-9558-57b91e42ce64","","null","<div style=""display: flex; justify-content: center; align-items: center;"">
                    <img src=""images/semantic/semantic_series_13/semantic_series_13_d.jpg"" style=""width: 300px; height: 300px;"" />
                  </div>","null","",""
"","","","","","html-button-response","129","324144","0.0-93.0","1B0A3B436BDB444C985971D16F65ECFD","1B0A3B436BDB444C985971D16F65ECFD","f837b5b4-5428-47da-a62b-2a7da0a2f785","bea99957-1862-4ad8-9558-57b91e42ce64","{""participantId"":""1B0A3B436BDB444C985971D16F65ECFD"",""assignmentId"":""f837b5b4-5428-47da-a62b-2a7da0a2f785"",""projectId"":""bea99957-1862-4ad8-9558-57b91e42ce64""}","https://test12345.live/?participantId=1B0A3B436BDB444C985971D16F65ECFD&assignmentId=f837b5b4-5428-47da-a62b-2a7da0a2f785&projectId=bea99957-1862-4ad8-9558-57b91e42ce64","","1148","Was there a person in the picture?","0","",""
"","","","","","survey-likert","130","325817","0.0-94.0","1B0A3B436BDB444C985971D16F65ECFD","1B0A3B436BDB444C985971D16F65ECFD","f837b5b4-5428-47da-a62b-2a7da0a2f785","bea99957-1862-4ad8-9558-57b91e42ce64","{""participantId"":""1B0A3B436BDB444C985971D16F65ECFD"",""assignmentId"":""f837b5b4-5428-47da-a62b-2a7da0a2f785"",""projectId"":""bea99957-1862-4ad8-9558-57b91e42ce64""}","https://test12345.live/?participantId=1B0A3B436BDB444C985971D16F65ECFD&assignmentId=f837b5b4-5428-47da-a62b-2a7da0a2f785&projectId=bea99957-1862-4ad8-9558-57b91e42ce64","","1671","","{""Q0"":1}","","[0]"
"","","","","","survey-text","131","342153","0.0-95.0","1B0A3B436BDB444C985971D16F65ECFD","1B0A3B436BDB444C985971D16F65ECFD","f837b5b4-5428-47da-a62b-2a7da0a2f785","bea99957-1862-4ad8-9558-57b91e42ce64","{""participantId"":""1B0A3B436BDB444C985971D16F65ECFD"",""assignmentId"":""f837b5b4-5428-47da-a62b-2a7da0a2f785"",""projectId"":""bea99957-1862-4ad8-9558-57b91e42ce64""}","https://test12345.live/?participantId=1B0A3B436BDB444C985971D16F65ECFD&assignmentId=f837b5b4-5428-47da-a62b-2a7da0a2f785&projectId=bea99957-1862-4ad8-9558-57b91e42ce64","","16301","","{""Q0"":""one was red and one was blue""}","",""
