"success","timeout","failed_images","failed_audio","failed_video","trial_type","trial_index","time_elapsed","internal_node_id","subject","audio_id","rt","device_id","view_history","stimulus","response","estimated_stimulus_onset"
"true","false","[]","[]","[]","preload","0","4536","0.0-0.0","872nlgzzpbggpgr","872nlgzzpbggpgr-2024-04-14-14-51-58","","","","","",""
"true","","","","","fullscreen","1","11016","0.0-1.0","872nlgzzpbggpgr","872nlgzzpbggpgr-2024-04-14-14-51-58","5473","","","","",""
"","","","","","initialize-microphone","2","20373","0.0-2.0","872nlgzzpbggpgr","872nlgzzpbggpgr-2024-04-14-14-51-58","","0048aed569a2a42be984c5b383ffe0beaf6f4138bb26be177a7f92e57576778c","","","",""
"","","","","","instructions","3","160233","0.0-3.0","872nlgzzpbggpgr","872nlgzzpbggpgr-2024-04-14-14-51-58","139857","","[{""page_index"":0,""viewing_time"":7264},{""page_index"":1,""viewing_time"":132591}]","","",""
"","","","","","image-button-response","4","164739","0.0-4.0-0.0","872nlgzzpbggpgr","872nlgzzpbggpgr-2024-04-14-14-51-58","null","","","images/instructions/movie_1.png","null",""
"","","","","","image-button-response","5","167443","0.0-4.0-1.0","872nlgzzpbggpgr","872nlgzzpbggpgr-2024-04-14-14-51-58","null","","","images/instructions/movie_1.png","null",""
"","","","","","image-button-response","6","169247","0.0-4.0-2.0","872nlgzzpbggpgr","872nlgzzpbggpgr-2024-04-14-14-51-58","null","","","[]","null",""
"","","","","","image-button-response","7","173754","0.0-4.0-0.1","872nlgzzpbggpgr","872nlgzzpbggpgr-2024-04-14-14-51-58","null","","","images/instructions/movie_2.png","null",""
"","","","","","image-button-response","8","175232","0.0-4.0-1.1","872nlgzzpbggpgr","872nlgzzpbggpgr-2024-04-14-14-51-58","1473","","","images/instructions/movie_2.png","0",""
"","","","","","image-button-response","9","177037","0.0-4.0-2.1","872nlgzzpbggpgr","872nlgzzpbggpgr-2024-04-14-14-51-58","null","","","[]","null",""
"","","","","","image-button-response","10","181541","0.0-4.0-0.2","872nlgzzpbggpgr","872nlgzzpbggpgr-2024-04-14-14-51-58","null","","","images/instructions/movie_3.png","null",""
"","","","","","image-button-response","11","182729","0.0-4.0-1.2","872nlgzzpbggpgr","872nlgzzpbggpgr-2024-04-14-14-51-58","1184","","","images/instructions/movie_3.png","0",""
"","","","","","image-button-response","12","184536","0.0-4.0-2.2","872nlgzzpbggpgr","872nlgzzpbggpgr-2024-04-14-14-51-58","null","","","[]","null",""
"","","","","","image-button-response","13","189040","0.0-4.0-0.3","872nlgzzpbggpgr","872nlgzzpbggpgr-2024-04-14-14-51-58","null","","","images/instructions/movie_4.png","null",""
"","","","","","image-button-response","14","189564","0.0-4.0-1.3","872nlgzzpbggpgr","872nlgzzpbggpgr-2024-04-14-14-51-58","520","","","images/instructions/movie_4.png","0",""
"","","","","","image-button-response","15","191367","0.0-4.0-2.3","872nlgzzpbggpgr","872nlgzzpbggpgr-2024-04-14-14-51-58","null","","","[]","null",""
"","","","","","instructions","16","206799","0.0-5.0","872nlgzzpbggpgr","872nlgzzpbggpgr-2024-04-14-14-51-58","15430","","[{""page_index"":0,""viewing_time"":13854},{""page_index"":1,""viewing_time"":1575}]","","",""
"","","","","","html-audio-response","17","276545","0.0-6.0","872nlgzzpbggpgr","872nlgzzpbggpgr-2024-04-14-14-51-58","1886","","","<span style=""color: red; font-size: 24px""> NOW RECORDING</span>
        <p>Please say out loud the list of the actions you saw. The actions can be said in any order.</p>","GkXfo59ChoEBQveBAULygQRC84EIQoKEd2VibUKHgQRChYECGFOAZwH/////////FUmpZpkq17GDD0JATYCGQ2hyb21lV0GGQ2hyb21lFlSua7+uvdeBAXPFh5U99yfjZxmDgQKGhkFfT1BVU2Oik09wdXNIZWFkAQEAAIC7AAAAAADhjbWERzuAAJ+BAWJkgSAfQ7Z1Af/////////ngQCjRCCBAACA+4P+NP8Jf7SLrCvTOE1q9Wu/OOMd3wTaA0XBPyj4mZad5uTRoCRhzkBY6BaWBy5cyy7dV6ZltfH5SsI3WmRfs23IVmVdSpnWuyrcHrNgUmcRBj8YQe/1gzS4E/RHrP641JGo2HZhreKAwYQWN2tFefVcGjQ41j/mPMTsO2KFdl93yAuxuhDkGeTdBdtNY3p3EpgitgNB43QSRcT7x3JZIGpVe1yHaRq/F1IVZi5P/76I5pQo2H/dVfGFq0daQiHCqfIm/POKv8rcIkENtY4dJRk5tS/ct92wHoAAAAAAAAAAAGpO2tEGEhT6GewgyKY0HcxchGD8z5X0k04ICIIEGlDpiN+cjLTkejNa5V64OENrmixBIRmDTHRX0r0adUqB0YVHkMALhKzSCfBcqxgUwegL83eV7iLQQFnIkn1eeVvpeAdQMo+XivB6lJdCzp4EFxWiuQS+6g9GSVCfGXCv0a580SlFk5DrIgYZg6Mp9rrcxxoSY2p0VoMqADuOUqB1chM+kkvuvtmrniuRkefXpF+fhN/wPqG0/6QcN3auve7Ln3P54U5JOAblJckgbaIwVueEslvIW5rBbpoCPro5sNVsKj+XuZPqe6G/gj2lze34UeakB23/W6TzvuqCnI+k2YzHp0gbrZJAv8SFD3hMTFzMC2Xd1YUIybwDF26xfnto8dSz5h4w8tEexDPjnRS3Tlp0DIoUp14j1yAP203AAPLw32luMuPxNKrLH4AGI5+u/DhXT2LsJ3ZPX2bn6R4VbrXK+gndnnaS7qI+dsydWtLSoflkRrznMzFuEVoU6k5XTNhTABWiVGdxwRWlleFrBfhWHAMpMOoITnnEynJWjI/G05YGTFburaQYIOJAXv106E2oHYXEA29z6MuAb2nSYJi+c4JKwN+Uv0JLHFP7AcaXNDjwXfOBCbxcNrp6WXnhrbLyxzVhmn8bsO1VHBeQaMhEvBAE11YkZMOKvSpYgUJD57Yok2wimzeoJwo7AGK86y8maCYpTdYsJUSUN3aFbPUS+vRHCL9Giz4QxicWfG78GPtUUP8Iq9yNlkRWn7NFYUoU7d1wEq/yy5QtF+negbPjzTM91mJRayHyfwDTr/MLm8obPivEZ/DieM+sqWuU+Y7DZQ5brdoPLbThxP6j01muJtMtsQmvKuX8kR+AmjVBBxoDLWIrzqghdA5j8uyXhanSRjec+FUSqCeZTGGituoK41sEc0/FcErUSlWRpUonJkgG2eV36Df3mloPj3oLgWdQpo15KfJRFfLfrtssI8h5mMHvesa7e8sEGLbem+mmWrrT+2nr39uEnQfL+Cvfb2w++SHLUYHxI7mtF13W9maVUZmpXIC6821zlbaen8eVxBqiZJF2SHTsMIRXG7pEB+A0xOfqb8SwdA+jQ7qBADyA+4P8Ff8P2xTAw+hm12kYSi8ondj5zsCC5x3C+LFyA+J8tEsZcPLpymnY/zMJulSG3NBGcSFnSyE/r73brHLif0zqCPXnqAL6Yq2fMSpPxUgy/t4yK5dPw5OU6RwsevpTkp6EDljtYi1Mk73MKIWK+amt+oPXXngzvkCfnUH3ZQrU8iMAF5eSfbjTyBYMZb8AR2hHX2zcWIrvX4DKmNvUxSB0bdAGZM/Mlx+JLT2Nmd0QW6RaI12koaLa1EQyLszwjspcOerOYZ5k4ttf5/xoYjZvG0ft1dZtKPSoi0HncIhGmzUEH7Wa9h8j/lr/YkZDUsf1Xhwn0vgdRpJjzcbNyy3ANpPaj6IOeBrCCZFpVng4RppUG8CkiGzNB7kFTfY5vVFUERlLG9D14EMCeePvKXx88SRsDvj9BUbWJ5W0LS9EaxXTkstngbUSK35W5rOGYwVz5vm+QC3GvFEO++sITL95BXWMa0PoYWNZYjjfheBU8yTp4GBkz08/ULXGhwrkRjI3Zgcq77yAKC8GC10nN+XSJQihpvRneuio86UMXFEDKOiC5bzLEm3RfV6P04xaIbSWmJ7H4AdZ6V90MJiMScp2EXbatJIeFX5t+YgRZqLC4GPN4xY6EMOAjKLCGC6D82wcfiNfVzkbQHtXBqPhYhWaBeMoBLNP8vQexwPkEoHrVI5FENNPARdkAyq47AZ6XrAhFEHdHRp24Tl41+WONNakkYp+vkS8UCFqZ9dg90UPZqshS6jcCMkjy/eWVbsHXBj5H57qTtHwZ4D/iIksuWalpFFaUqcmA72/clNvWHki1HE80l5fn9KdWsYlorMBKRshbUF3WlwBkn7XgcoXoZHiG8arBLeUbVyFJVKKW6aiXdnfgjvJKBkhKmv7ZL3V7t8Kzsq3TPbhw421BGb+B6M7e44yj4Mw7h2+652ElVapx7jGMhxMBTvWoG/az1zVaDttyXrOBlHqixGzilsm3vtMzNXtt0aLAwDKyTBAOoPaaGkRNTqgPdvlNcDwkfiIKoSI27erxNl7qU/wnKshVbP+zW2Nu/8ceSAtec1ycHdvT+gVLWKM9WjMmZWH8td+uRUyTWPIktcdWKgskYDRle2TAy70SVFC81l8SEslZwDDK2CgHyW9uPcxb5bgzer4RIWHUS8t59rUctjUiMZOBHF4ljD46MO4/GXqEwKRfLmjJUXdkKH8XnXYGxhCL9OWy3xxPrbxT5SXiaPzE0HBkJeDlcelhk/vnrcoc9Nw0blL8mIzrIWjQ9OBAHiA+4P9FP0KXdcNrgTWTU7EQuoeWapImdwygquBYmxqLhrLSoF/SnV36jCUzaaHoH9zJdespZAGH/eqQzsB5x0IT2ZWNOSiOh2AKEPOwmLbjPUJeSFNPR6xRhhrrqEWgYUjShUeA18D/H+3UHVi7UVooMOB8YYAuWVdR9Jq7rR/3f9eh567zl+meYtcquTrUg/4MVBMzLVcLyZNP0ogd5a3L/PU/omDpetzEAyYAM0FluQTWypm02niO4fXz2XkiStifBktrNNTJyFjbZttgizSpE+m1uoGsIzFF2W8KJa8OJkZ4MWujQ1pf4iBMPVyood/Y1O6S/e//AgzpXRv0jjpusQsYv1oZJI1M04bWsTml9mE5V8a1wnJbK7kO6WvbzK0DNd0k8GzsxoU9/TnVb09ckiv42VHfikpcIjBxcCqfoqMeyNPsq1pa+qwBOZTobhxA/qUUJ1pPvlZSKZU8jKoSyrNQ6s+9k/faO/s7TDTkUnN2MW0mdYZNG/tGCClulxJ4ApFZk/HXiXZAgoqlJIECSQpxCYDg++T7iRZCajuNZZJj8CgVGxWOU5YKCRGHiOH6vf+jXHc9qBrhfsXoeZUcJn6Mjrn6FvFR+9WVIAD4KuuK9XrmGo0JIb5YIKqjpSXXxHa2q8mQqvhXUYZtl2slNpO5emK1B6JEYtiSjHWxrAhbXbr2EMucMc9zFv8wHawO6xTL4KrdWe/trNT1j9adscdL/3JNbMPJFwduhIwd+7GQuA41Ja/YYYuKy68SjGw3kmvp27pOtMoY8eQqzFPJBL6dubxck/MxUEkeHF6CQ0VtHi5KOTE+4akAENw4YrvNWn9+sgBB4FbR+cPHK/daUgZYovYI9RKTCFl5Pu+qtay/opUCzBgDjM+yvQlQaxx0a+b7f0liP5hA56NmYpqVqNejcfQpftWKxEaf4t6bQgLI8kw/5PSyOuQI3rTh4s2azKSDnOhW3PTAnbaMP0MCm2kPhbvdBv6vfC3htpr0+PV9zR91Xss1Xr8nVUHt5LcGQo8hPCQy4AnKZIjN+3KKwbYMRkIZm8SPVNczJfqHu9YkJ34mHWcCOdlwfP9k0FtDiicaDVntlzJao4b92im/YO5B3OzdGmU/n7u2DGPZ1Lw9ZQHM3h/w/nKsOd4rd5uuvVGBOshyL57kDGeJroFq+ZiiJutdkLdGyLE8Fd7/MonojOeONJv0IEevHxqSg9t+mSvsHjttOrq+Q7WX24yUm9NO7MGetptI0jG4cxT0kh4DlFSbh+B8kGK4u0jmUxSunlLcJcjL5uG1qR06TCco0OPgQC0gPuD/BD+DlnLMLDNs/eRZlX6f6Tptf8iTGdt2gRPZtdTCZ6R7TFjeB3kHDsnvh1/k4i+SMXaeF4D6XIbO3xOaIAg2UUh3G5ymsYzkc/LNhqYeoXvsRXCNVgWneTLY3ZneP4ChBV6LA31YlQ9qrmtTAaq2jHnbIxBKZlFVna4RKlf68kgkSjqX8E9MrjLgSFaKWuMm0Pm+HZzV6YfUtujq30JechTIN25bLS/B5A6sjhQd/+eC1o64D6Mns5S/R6zVpE+kNTP5JEUnWhx9KXzEXH/0ykvrCEYLY4vbwzJjVuG8PWSMe01lyc+6romSoze3BVVx6pAeaZh+gKh7RGEFUxPQV7idzmNPuLuLuHESbqxWI5sGC/9z/f+g/ehO4078NmUDKcLO1/E+bddn2EvxTvw4YYdGszipU9cGXUU09kRM9pZo0V1gQ/vpUBFYf/AmOiZBiUbrOu4qlPrCe1hGVEMv04rZzFx4twJ2Y88HxsajD5l133fptXpSmV2zmyoZDr939yi77y/T6Twgi58cJ1qVz8L+laE+ITcNxDoprlFDljTYKMC+C5bw5Uje5GhUyebGNcqdqBtjCddQOggVq0PCCth3MDgH0qQSB8DtIknJPdOuoo0ovz+8mHn+qNhIgfyoJu3ArDLOgEFaF6zg7VfNtU6QFkP7JQxFFVTFDuk0stSKTD8kqZc5HQuIXx9ML6F/osgYKz+XGOXjgCmBXOYrIBVT+26O3chI3Z5hy+7zbtR0rnIQEMLlxzjIqCGaxDT++gtDOLexIgVLuQX9FBHf4RLqBjj41l7OPAoxJ3elLbLVQWPCHhDyWZEnJsduwCYHYcrHlfEWikEjOaO4fdGIO/s8XgDEEqWJv4eYimUWORFfNQ6t1xwXQpArx9gX6jzFXzDPJCXV2kSyLb0p0ZSDKUEL5U+4WVVJEjNm1b9LuNIljn5opx5auxejeR8QxqbXJOCjAb9Cj3htlKgCs3cISM7SER9V599SB1EienZtVssXo2C4W/80fP3SWMYFFam1i9n0fZewgtZV6qdULcUk0aZYhMA5saGLnJxMj+D0anhP57RWKGA+KHXDuGmb+amkqWbyuBY1mVlqsmw1f4uwCRk948FprhLx74bfVxbcm+FfcO5IRCuSLTY0fhZBat9iCKxxmmPWuAzuIJ/YMHQgQhuRD0ejaFaCbTNznrA2UpOed9F7fnFbSejQ7aBAPCA+4P8DPwRXocZJxxiXvgGNcTbFT5HN/q8oCt9LAW7pdDhKESakLmKekgsxpZHkYi8mn6jTQYlYRzY8bjYjaCU/mFF14KZ4W8hPFp4PLwDYxi6l4CZqhA0+Yv8KMMTjIp3hfxXSBqPYJbCFMSFHDKKR/gL1/JjhPQvaV0sYk+DGnm8UVutqYaTXFqinv33FBQHo9YEuJPHNLHvIZEh7/xrqwnyPDB1uqLO9/Nycp4WICzTwwz8b8QZx2nyG0n7+ERPHW+Qby14VvF+t+h6r6XQCWycnqfUn4H/pj63Ai+y6W6VP2uPRMd2nwJ25s6IDq7G9ESXHHJKoE5bwEizGw1GGPO1qp5DgLqnz2Go93WiMS95kLLgPpZ27ULn7MUVsID1eLcR9bXoGacq7tvZIr/v2tiEWiCstMytQSBZko0vH7ogXN6dH8ZSelhX6GOqYuGRkPCv5Fit6r6lP80kPk+6HHugqDB+D2HmbnPqNrclVMJkxeHKS8PTT0yS2Q5JyWVx8cCWoT6HJazkBPLG2e6GlVcoBwBX0eqmsL3E9b+v26gKjODk7JdEJfNS5PZvXCtufiOzQ5OdKsS9v1w3l1f/VliuZgTL//3xa8A/9ltHbTgBdb5AjqdMMY4rFQEIHSVgrwSjdrPgANn6L+m8b+R3hbQtP6mtjw3CgkT5bs+pd66sRBk4TlfXTdRzYWiaqnwENtZa1Qxzwxp1CZNXRVNmn21bPP+KRpMtWp6bKVIlxnWb9Vk2alBdqqjOKBWuUYrOwBG1Wqy4a06FQrn/UP6vwXbJTHxOIU3rAsE8jmrEEoFAl3KDTIEXKIbaB0F5cPaxzRBZbYGP1aRgUnbOri0sb2jeuPEyPW0YY2C1LXp2IW+6xnaO1KoNmeOF1cCrGH77LkuUMcT2plztuMLOl/i68W1qaF2qrHfHaz7YtBKTd8N5FG6ywCE97vI7+x9Qxa9ul+KutUzfziZSOGcQyykc5Gn74vH4+YAmvEwzNKbywMcpSMe0DAmzhAutytoOd2LUICLVYM/3N/W6+TfbaIrDkLqC4qRjQorx4yntNpl3bImgBWOToh4ZxcYkWt4aL4CiqEglzdDh67F/oLvhNSIQHrzMJIb3o/aCnlODPOlFNrYoIivFfUyZTOgpDun9tZOu1rh9h+vVeI5ElXIm0wa4pRG3nnOL3iCJbv8a8XzkccjuLDOUMy31vP/+/aZLZ2GhjVCWSc8jfcznLRCY8/fqTqtt5gLWoFagIajnJPLNb78K2aNDzIEBLID7g/wR/BFeFOESLwtT4Aih/Q2RwVy47aJdxdahPkuN8qrkHrL7zNBxtjB5hMwYZi3YUVAnKrCejfGnc8jPntqZfaHPSZRrL91ZBQzcDwdxgV9a1f5JKQi9wCNOSRaE9fI0Sne+pDlSvdyTcTciRRHFD/19VQP28QMkulGE095xv0KaVf/KcdCV9GnnbO2aPxIWtr6cQJhpI4D1ObKIDUJXwbjJf+kjuJ/xL6YeXhGMaJJYmPZ4u0+t9576HSU82B21FEisP3qcpi6KGlveuUAXoFUqIsO4D2/QoN2F+CC9h3Mx0xy/ypnmX/fL9QpVH+oC+dcXyNb2kG85HsA+CTLfzPdX7z/y6mgX+sccXP80zpoC1vHyKgmiKHuaAZmWnL0ugex0KPvrGsWsEIYXcYtrj5JSyEWoMonvaJL1eEXV4FiRAZZH31GprYSvVmjy2VhJLGiFt0w8ed4wXH+GbZXQTG35AQLf6R4pTQmcTW24KYA40sfgtSFC7wnve2bcdw/0QQGVchT3GQ297I1Nx/aCryVV6F16PapKAyq6RkNkWdxN5AyQUjQdpglVZWaVUYIL1E1OMfppaPk1B89J+YnTEc8HbpCVrK/isBChWj+J0Lo/pEyCqMd/k/hoPfcG2evjKJnF8y1GCYj8sISPEXsMPrj1VtkBjcgdOUhOke/VJuUlPBkWRP8EfYsj3s5XDC8PMMguXv5YH50U6UjDD55DX+A6LPP+Kx0BsDRTlbaKW2ghAYMMLPCMu1QDy+uN+gACC48tt7//uIYFxFj960h02jcREugiB91+aw/Vvd8sAFocUdhednreiWQ4x43G0KVFLaCispuyUILuXvyRNNSl1sW2RUhTXdQ1u/HLY+ekhhmAL9c2m5qy5PyvCKf0aSp5F8GNuDX4mZJlqzrp+IAmwmGmxubwmSl/CIHwQTuVgt3mZ/Tf4yN6B73OnMMvqaXeS7vRnaQL9iuJQ8egUDoc599kAoaxyltB3UYggVhxiCnQNN1HS3RP59nJTeUVGGQemTDbV9qoGhBwM8Eh/6Xg3nCCDS5rqiYc9HIhCBIbAgnIlbDc7hw5pLUTZTMxNe1FXpZWJ5601FMwX9B2LCqIuxFyILKIHZUI+y1GgvYD2kMN00qrh60+GhoGkQkHel15vd8HWPd/pDPkvu8o3whUDF77lTRlk4qUUiDACUth4M5Ae4LVI+DlPVkv9Ucti6CegF20UAVf3tW8EQqo4idAPNQkcKaoi0mfSaUkuk57+kDm4v0f2pETTWS90SHrSMoWo3hdGJP5NqNDyIEBaID7g/4Q/BFZwgMnZIUQNzEYo0ynR3raVoW7swSTwjQGjdMY7VatnXSC+ichwilQT8yLkHZBB1ZxSowtHvShP+EMBhquwotzWZfGvopGvgKmuSi0O2yi6r/41wjtcAX/uG2HvFoNzi0lAVhyGKXXvfM5ZEEQ97jzn8tCBW/zSFGG6OgVluDeGJnPmA4eoEocU7otIab1E6YWcwphqC4scZzuv5g3W+mIVCopRQHTFZhcS2F3/RxMotVeBLXrJoq0q91VGs86sA43cfGAsCuq2O2Rtc/9S2/2pYgm5dUMc8u/JqZEFtoV8ANKco1odiTGoYiLfWiR3D3zEjinCb9+umm/wwpgCOu4ULsOAVWxu5BoHubzxfKbu2GJ0h0Xz1NZkSoOJbqJt5amQx6pcyHA61cbgE1o+rk+rSrHxzKl0Kvz7Q6gscVZzN2QA25BdnRLuRnA21njjf6RjuVgbR/lhiZofLl6p24MojEWFl3rVy9jzPpsCUzovOrgEPHKh/SQi6r8bcmTE3sut/nD3dWTzNKQrhkeF0iSBvD1p1YyXfAQTc2+WLvZfjs4hCiX2dpsMzn3uwJ3GWspf0sypl2dG8QdL5ltQyE+qCS2pu0bixbAnW7iVfqmt1QsTQ5Ug1JURbkWvT5cv0ViQYzd8Ca0WgXPxS8QLeobYvDOTaHtYXl2DN1qy+mVrfJyi4UN0tmaREaWJ1AZfKCOxnjmPSbnpg1DbCzVLCTY9fR4J+lKkM2wiwmXFXaGavbHFQ2eIBpPXY2iNYClilvx+Chmpm1hSFokrt+cm/q6NMvzvuZGrmq2VLGkFm8DIakSmwps6uz7VqErmMDfu5f96jqR7UjJ5xTrPqSRnVl9epuX0IVOLELZob8q67MjVVG4DdjB3aEbTPBLpzWeSwfIB3U8mVaNCAusTF11UR8pwNhnTzwFC71fn+XCNf6ey7gFKyJpWkYWZGT4wnB2ybbRY7gQmq6Jr1bB0a6CvQH0pIA6HTSDfl+FQGHfvzh9wmC2shZ+v8MX/iYnn/keLebarIh+qR5QXPsuTI3ADDPSepIHYpVJWimQ4Bv+GCHBYBJocZuiLAG3Lm1njND218VXfBT8iF9nl6C+hcnnnoxNYhmSV8pMO+suLxEbNJBeQphjGBNw2sycrD8LMx6GOZ9LRlnSxe5XL6mqZjAlfxcPkIoeyF146uJmp6kg23k/Kv0YcKiuhO4U0rwZxmdiJvjeBxR4L++M9lXCNjQZYaM0voj90W3/z/itogW+uuajQODjKKom2NpAjkXgrKblo0PGgQGkgPsDXdmza5m5cKysEj74J5uB2R5tEHr/3xaJbP8yk98s+lwTYEHyw3b5eGh7LZaw10ioUaqzb2dB7+qAhMyE456xU8WTpATTXHyvyM5r6pHhQdPUDtkzSxu5YOpf4njyD4emoBixeji05vlb2lVmfA8mnQMWTeFc4nEYjfLWOygRQW+Hf5gIXb54gAV83scbU9G6MZ1zSBMMtXj/46fAJxWyrRS/um3xD7t6roWfyAKd3ft5wuhmhR2/Sdv1Wv8C+EYKnQNeWKdgVb+T0Q/cfOBgga0sy8Bw5I5UC+Tfq3ruC/ArgVBuf01pVRAobKvBT2PdjTQLaMHreFxo0Dc5N+zg9DfIJJ2oMg7Ap56r1XbN9TzIJS/ETd5eEi93KoiYAiDITwqv8++w+X30a1QBTOcJefyqmfdwVoPEwQD8PwLDrfdd9kcI7fwQiZ8UBXSgVFXGRjBOwD7Iyw0wbi9QezspR697yyEhIK9Gm9LvfBOZbRNle9Id7+WHtJ3d/1vzA+mJUWDCjrrF+qm7M/FXIGj/+GxPz2gKoOVq/CoUjtjeC4jS5AbJsWZtEz+DcHC+AlCSR0DbhEZ9Vp2qBhECPbcrS3boOpA/Y3oacgFE1wdpmaEu7YCFP6ep2F/2bfSzi7ereCQt1iIIseGC1FuHozYFGEogHBRZdWMlcwZWTHoidwfLcc2PuWJ3URex2CjZ+ZgN6VMVPFBJCxwP2bxtqT+s08iEc9cSQcdLgbBPV4is0G++1LhpyWQ+zq5zxzs5X5gjz2B7JmQKkp1Jb2c22H93CUZtaBTlUrFqUxkIvC810BHoNIb6kY4UTaGVurxJ6FF3XwZqTeCdaZTjKEpMAj5Bp1O2Gba1LFJ63ru/PzBtGANBlZ0XLywKDD9Bwbsjo2+faFxfjh3A59cIO/98rzcY3tR0+mn8mt5n1tZ3XZMwPep4eNjPxzDRmTiFWkt+m7QqBpiYkiZZ5GzFFP+fuLpWfZLFn9PjStwRyYA2yWBepdqHa8lPF93237NZcsHBfsKs0SDLN6APjYS9oqMGA0nXnonmB13AF1EvYyREOjxe5sK96fW9jFksbGtum2K89lm5yF67/t/zh4r/69E7LGSSNIqNTUttcPKV0qzPj9j3xBDUEDRHBRxe9AFdtCG7r13KFGdxh6cthSMy/JfLFjpGz0mInPYl4N+501YznSFgs5DkF0q9ts+4p/mMn90gcCdrc5m2pics3CPNd1DnPmNx4KtTCkxkXQnRwrbT+SQMUH8M/si5Jt8y/Bl5ROxT1/2ao0PKgQHggPuD/BT/Dlmqhk5WWTKtBZB87cmF6bpRCxL+/g4iL2qKtGtBHYA+oAOMjWcBiHMR2NbwJYAcn/gfRerxvW3CAZi+FWASOnzczI38RDCHahEQyuAWWTMPG/mk6WPgBmrLIDkkI2R5zg3jj3lu/T6OejP0OBljfybVRnQsU8bgRN/CicVrXxCL0XlTDMIUlAnQEJe8Wms1mVsSkOTNYYyM0pz6it7o6lWJO+bLdtnp+GDJ/WU6lEWk9v/19gEBTbe6o3+BQhTXQvoj3u4IARFADQTqH+v57ZmWggJkZ0nhKKWQ0sNA0mZeNyIwHD5rIDP9prJzHve/u10ZXiAVUznJZbpViaYIHe6oqwM1GiqzJBTch02g/37Li2nMwi9PH6yXpx5pwbkUQpWX64W7KQdAjo3UEzpN0P5OYReaaekBibxP1uR6en19WihQVsUBCk5wMgX6WVGFlvvnNQn2bttS23aVQDYVOgvdfo98Sz3Z1Uos1MZWQKs/HwiO4dnChLzUMKJJM13VeKAdgWMvlwD0NpPt9fJ3/zZngK1zGr6lafneLvZDCzZv0XMtIMTeVmRDyOF27Cm4EnnvTLP3B3bDOugC8PJ230Cv7Bc19xF7P8j1hCltvcrA9p2XIAWyzJL2F6209LxI8VA+aZywpiFOva5m+otU1CxHTNKS/EVydAieqGCAqU02XdVm5PykpjiqwWSw3M+harfnSPSDLbToNu8FG6lN3Hd1+9R5chedhC9GLaE0v8gdTtOTBgtnDizj6ak/nN4YdfGR5/1TL2njTY/RbBKzCd9fo1uPbMKWKHU2TDbgCR492IC+9MMc1E/9F7wu7C2og/pTbuXid1H4m7zpegy8wFjhlldZtyK511WM19WWHCD37RACu1OxSCXEweQJN1VjZyDXWjYRq/FPnj4omvCMcuWxzTUOako/FAzqdO6tTtviZCJaTdH6fav5kHe4300O0wCPY8DDBIM0Q8lo/CHu4R/zB1xosqR/89U760Ueyn5XBeoLkkZ5QUqZZhSt9QMMqqIevI2mot3WpK2QtNb8MWfifuK1T/IMyo3y29FiO0UVYuMAnCiaXnJ0lQ6pt6CvzKvLst0pBwclnOYYNWs3Jz/8WSM/IkKrvrftmeovim/h/bF2pLBYsQeI+WrjuCmk6s45E8Wp8DaGhhgAwtZ6xZtcvSgkfI/FnxyRThzHjO8tK2wgpinljAVRcq5yw/qwc3s2lZyMBxTwClzdtUwrNibIaU81Mt3DDf5S6vl9Ae1H0+doaVXGLaSBcnk5fyz/wKND6oECHID7g/wR/BNZsTaoTKtuoKHit/ylEFbq+Uicd5nvGccfKt8JeB/LZHhGht7SlELKfXoym58+E/m1T7atcyTHZs5Bpp/BwQ75Ord39JXwIt6NhxkWEAvayxZ1vgEW/gyqexlkTih3KObnslRC8NZRL/Eh/ZMF6htisfy1gfLdbYRNyqn1suj0S8pmogZ2xgMU0NVwtnXXGdDEt5bX6YA5N6Fr50cgwPgtVSy8p6D6HnW+0xMikvzRIZ9cSsX8au0fUWemJZ9pFIKa8XHJ1nQYIYBi3+AjTVciOvzB1EVSSBzBRN3QPDhu7/q+sHPOfTipDj+6L29sKATrqCM0yVe5T68RPa0s3MqYK9VjvBQJdg++dTaBbLkbZkrNYXS8DzA3dZD66v0+NXZGkNVsb/Z2DP5F1MMSJ8noJU8G/5krmaO4M9m8gQ25nEPbfvLr1/S9f3pPsFEXn1EZ+Z+ZHOI8fNWrAkAlPnrDoYTlZ/6UHmHoBgoKggapgnPAM5CwohGkeMGgtZ3lVrj+sOGmn2tt1a0+bzPxToT1f8YCTGO+fHK/WEAv6FW9BHQQwvkP2tZzu6WELBZE5Pg3ml24vFzuDSopGvTMl015naULdm19r6HfWxA0D7bpAxhi+Bgx7u04Nvob8xili82rpZpMpRTv1eaLD6CFk7IAIoN2cQ6kGuS3O1bjXqY53Vdk4eSy9snCN1MqlyIu4Yl5jYKFE+6tBq7S05Higj4rorW2w60fIo+61rtFa3f64KBup9krGNnNfFFUk1BRo2k/xXI+C8Lygpe0hAB+nTALL0tcbFUTuU6j7bjZRtWeKcZcJPZj5mj1wyNEmY/ov3AS2R+LJ+ssB7CXxfiMtZMfw7tvOiMF2Wta4MMmsCkWgm2Z+MaOK/IuYNsMMQtC/15Bl8H382iXOVQu0sKtY0iPnKjTpsWsdXaKGyUVasAVIK2AdbGev2lPShluTW+NZUajibfdN+PGD54G3798YRJ3l8/4qq8EK05l30An80XXNFRKErfwjvzGxAueVnFS853vTQBvW9Tzbl+F88wGW5OgfTsGElovxvDEhTdOmEzjFTdCb9cmb9bMK67hkZkFY2JdQ8N8nq5JscsHKyCtXyqh7GvuQYixt5nk5KzAGMdgjwwW95y+w9HeZZjTgO6us9Qn6BD9iNmplhcBWlTs3dTCKn9Zl5beOwZA0FeNUTOpUPMoZ6AiA0ram/7qJ/uG/DpkO7eHPjFqkYyVkQVfdFyOmq3gKsQ6vhrG/cXs3nWF7bcHfLPsHCltEzO+tlX2vskbt8F78/TwcnQswtQG+/JhrwXEMaOqWi40fy+6Fc6JlaNDxYECWID7g/8M/Q1a9a1YU7YgN350zpr2qAuHfi4/hRCfXGlMfssJz4piyUJQ/zxfyYgplAmp/raW67PYnaaE/3mU6AAfNmLq+tuOKyhrSKnvyC8CY0mekaPJzGNiAZsCM3Ta0WjhW2rH5I9li5KJ7qh49RxxYpDPDAxuWqvdk3FnZyW64Nv1y+2BP/8d1g353yeWW3duIAkcdKM7Upmp2U7mBKGckpYIB7/oRoU0uTplMMjo/53Iz4ZDBXm5uAFJAR2tbqtJ4HVafGK0OwxAYUSySl8SyaoZ51b6+JJxUrG+rtXWjrUWvK/1unQ83kKGAvWgxDc9euFPlhPOo6unbJpOZl0dWGDmUu4/gBEYV3f1f64lqXC2hiji5qT7O275ffaKKcPBK6q2loEwJVZkmlsBSK7vv9IYdYVSHPWueYe97lH0edv6O+ES4M4C7nOtIfhbrtuxmOSPTihTwImrHFjV10JQ2Omf/pRevln2yaEqMEiRQNttySuCcWNjPp2RrXuywvjTx6D+zP65SrzDyeTvvcQzSHkOw9XSXYegIV/YWDtXd8SRy/mLK20bie7gF5wFzlNWR9T3iU7/zsQnwreo8qT2tS/5neZlKQ+bQuiGOF+PS6PLV0fWYjy94nwqC9ZBOuOxTTAdTcaMcdQTrYHLf4PGb92vDSz8H/8R5qUJFRMld2nSBnCr63avlb9LYlc0KaQcUJzzwXjSABenVl1ClyxM/VHatDxh43DTf+Ngg7wRr/d+GIyG/tqS1fjAZXvu9x/h8hg1geiiGlz322II57Nxq3eFzlGmZewAmMCxyuaT942h0akwyVlYOLcJeFv8BIM7hQsXVkqf65KL3YhviXoieJ+LioiZVnnQ0+hCk9ycQlzPu71nOr8QMlETKCAN47XiEMa6epED+dCSRUYQsyjIHxa8gvQFvludnem2E1uPRQ+Sxs6sn1DgQ4JwHLtP98a3e4REwi2fxm+M1ezMtp9hLwHEOMgbAdUG1ZZbnumb9oAWYr/TPSN3wSieQkknr/jB82Bw1P4QO/MkdcbOsu0cTQgG1a10BSj7pFWrxCZBOd902gccb2lPNPo6rIlvD/w6HOqViTk/dZpUzAU/UINUuYZ9BrTaS9CID5JSTjXDUsFlH5mvfOu0xgTsBnRMkSQcx6SXIY9dpdkXn6JsZikwhOEsfNtOnLP+FbHuiipdt1xlvE43+ENV47tqGdBgjyOrADxWY7pWiRddeYgRtpPMZX7+TfBWSKu4n1DV9Nspo6wY6Mau3nScTkOedI5w/rbDo0RGgQKUgPuD/RT9DFlOXNS6nuhUi95F7m+xA+UVulwjVsmFlDEpi2joET5R14JeP7/1jwwIVFfSxrC4roREL0xA8fPUXESf6ed/JJV4EqMTdoXZibadmtHmkcOaj9+2WfFmKu0rXjLuT2jXwgS4BYaY5IAUoGxqRfnc7RwlCrAAonQF4QoZYdVCJFFDIR2bJtljFLRBDgZBj3EstfjE9DBzNxYYFCroNfPBYO8F1weBesPzBYk8VrOIAiTJb5eB4wcellhmW56w5IYR2znCSMwxnJDrdscMmhUe/UGBy7HzVPy4ZG3zsChZuU4TLkmkQf2Q6qCll6x3B2ZfqTNqWooq0P1CFuKTx+SY6qC0680Bdnr8PywwNfdeuPXNWRKWIRzZrsoDaiBSR80GchukHM9a0kXUZQHygoyft17g1L8aTK+6MLT/rjcC/ps2RFQAgYwvSfjwH/1fE1pJoqM9BajBZORI9tHN1BB47IUa8cwQN08cr9v6kw6tdko5JrWIxgy8/hZkOhGBXsVvy2JNHp9T/U94QXW5tkLvtq38MSR77pzG1vkXD68j8fkZr3lpWeRsCiYw6lGFPb6ppOJtssadBf4rG1gTfRmA2vU6E+91sCr4UDwCxOgAd9Z+fP28iqxVYfrr7wd5DUIJTQDQrtSUneU3bNtARZyZglVOnJ0I+PPFUnkcErtLYXS/pmjPxVpDwn46+vTxNtgP8YJN7+LIvHY/hF2JnGbtRTWr6BZyWN8oiF0khPMF0Zy/oib6Z6rMwiTh85UnG0M9Ir1WWTEO1eiqUKYRlVwJHt0awcR7EQWZYsTo2Tro8ZtsG67j8SdA2P2PV+JHmtpw3KjdK1AfLF37Tnx06RDD63+mbyijrTo9LT6/j7V2GzVfgpurAvKQFL/l+CXUuPN8Rt/9IiTZBYM29vFs5Pnqg/R6ccZ0GAAPVamysS7un6Eop/73rE3xlPgdqPCqIPJjw2mrLoZMlQjBkq34qOIK5p8XbNqPOJefq4f0imhN416iSz0OpbFW9BRgo2RFZwa+clDT0wTFULiB19Pzl70K/qFTYjJDgDIiGgHfZsjv2qzXi+/X+ETkfq3+pVTqpEG/TCIkgBw52gmP8xvfBTj92t+2yDsiprsc7lsJaACxiy57R1pbtlkfnjJ6e2wiAApY1at9VJu/UfyOTerzsKM7Ek68ZPFG0XtKKJpuS0beUMKjuXivZR/nfx8fMcvbrp4p8beAlyebIdfvN4ePASglR0xB9KBFwu3YvGGIprQpYseqXfynJ7ZJD6lQmGGdVwxtZYd2Utx9dF6ox2yp/14kAk7+Iyi5gZhCvBc3u3q+aKN0XzaY+XuKfp/dNumsfAltdYRTwMrqq8Rz0I0J0gZHJmykpCyN45SOiBgWP7PGLQHkB/nzSe2f1gUVlDrAF8bqGRgLWvxr9GinEKkZbWzB4oNHdk20LapA7cbKXNKjRFeBAtCA+4P9O/wNfuC5vlYs6svfp2zbxxb/0fdSB2mwB/tH7qdTbKePcMTV+1Ih/UBTrUWJYmOLmhA6eIDFCHphATlrjMIST0d0ITpZ5vUvpw801NcJlNe6xrFRbjVY7kP12UDBZHVQey2TaQTgVoqsH5Pxnasa0z68hkdzQuL8xz1iQGbgkBeI1oBhzZA8CFVSSbi+9a/03+FfL/DnfAfGDXt5EInHavD41R0v6A+ukY+V8pY3vfu6mUK1QVmklM+a8FJ99K4Z79K2J0gNgCsye0FvD28rKhlqUz56rX5cUCXViFDdfjZm+O61yid0gs+pjV0z2Ep3PHBnZSWdmI+yIZw9URXoSBdHEpdmylsYlxY44KxMlc+3frzleh0eoImgjYWzYpwS+qwXUdxxvgOh9JfyGejD7Ae8JH5/mXYgeMBljOstbDOsZm9w3iyyJCfUVcMxa05gc1gLqCP4Z1hxdyYieiG73Vksy5Y4a3aPcm0g9vSKydJJtorYTa1EIdjNFSgnYBkILt+fx2DM9y9wRSBsFcaIf9xTlA/6/xz6aQmpXAexCk8q/L/uLoFVi/QNiCc+GXXn1w2YnvYWhgG2aVKL37ZKMjK96xVLrdpFphD8JPi7yLbM4ahFyKL0SBd2xWbviqZVvYgvbmjpJok01miMTrteWZwmsqZoAJIMULLkHCCeCqJNziBvBThxJ2SNMjTuvGu6PxT0uEwV9ieny7022BSpBtiqPLvTx/JoLfYbFSMt3w0ODJuoAF/CHRcvLOIGUkBrUhqct66LmC5WmEXZaswxwfsF0y11847gRf9zhNCAagbsEbKiHl++iRiEgg0v5BotIHXXPA9MCTz0jhwHmwDvRnOOjkDkXlt5pbHJohZt28s9ZHZo0yWm3F1YeU3bgOroDGNPJeOQjM+Wrfdx9yFBHI5J0cyGoabCF0AE73f+WIsPgKljStf0KaYxjfC0ozr/q/mp37dkkoCix0IC8kruqTjj/2EfoMVA1ahlafYvhX5R2YtTmebiCUEfkBcwFpnyvwh8tUjR8YKBMfWbPDojKjrqs7rvsghDPJIALdkeXmJUY4uiGH2szH3BeViyUcaFCKiH53zkvHh4JUvnACmVFt+j+dQSWnIce+VELh65swE3I29ugVbmapTBixOUF8Zu9HQWnzYVq6Tbe9Rz87qHSXGRy+cfJ3jcITwX/YITrYCDhK7sPkk1zyNyfv+cQUXuaf1WX0GEbIcSHWnvf3nOrQ3oDQerPfO1sjlppQFEhvEjcRzfw1JqbqIRCeVeaNMXPZXy/EAEpHpjtE/A7M+IV4VKHtqpwku3xBMfAYD2wFHEfoOo1RJ3ZqAOEj8YA1TIcAYf4rAGrWDywxFehj3KhDP6EOmd7HMOY8WIU2DP+/L6oCPeaslerkX8QiSa3Pd0hNrOobWnx1GhfwkHJHPW//WBwe5lke18a7Y53MxEVeRv9xLHgh8rlp4QNYWkBRsLo0O+gQMMgPuD/BD/D9ZgNaQ+ZwQ+BIMSLm+qMbheLK5kHaQPpM8DOdYk+NrVXh9dYYHytOJcfYpe2IJy93tG26+jYVRbU8o4rVCk8uvxjlmgBcx/eQgEbDWgl4psZ9a4zZy3xLU5QHxuJhUhxHK2WjCPYzJymlOqpKHfNpK3Lre1mDCfGvw6Vl7yRnPInwEMKDYCxFAXj1fGavLDEh0fC5ide6ubI6U5qVW8EshEDCm9n5gv9FCe4pEO++L5BDnM5aogK856F1B3EEHm3v2FtJEX0uYxSMl1b+/X5h/p4Y/+VebtOqd1dF1gqyeILITCc7UE0vkExp3niXjhtvlriWhHc28A53wOqB2y7HQk+LPjXkRvAk3QJjFtuU1Ei5DbHv0HxXVbVNArn8eR9LEI5vA9lK2BKEyqsKDgwD0ZbxIirqAG6dxS7gHvM0QTAjkf5fBqYIgO5Bat4o8EIkgD5chl53yy6LupKfS80bAm1zMs/dYMhBo69y8PQjrv0FmDuSfXVTyWVbMYFMACMEo8C+UN8BuuVO9CjkcC8MiHGSKTQL1gmjfVF8cDAFg6iMkos1mI2Q08yiQY6rOTzDEhOE7mEbi6blcpEN36DfVw7YjKiexa2QFfQ5QJJ8IgQ6Kqdjw/ss9DxvZj+AzKSjTtdkSSzWi956pUnVyCwhftL+YVNJOtkYNmrZpKQlJXYqoYlFbBycMjOsHLfAmjdUqRW6DUuyuINoeyUY6nGTnmebwKu09xSXaLcBsZCzYgaNay2d1sEQMYvf8Hm7uFIfTmfoD5CYS74J9qIRT+I+f13UbfxCII0zKDvcp5YR4bK2sLE2cHgYH5KhHk4It/PW8NOWTkphk2H43LX1xWC66JfautlCMv/N5ot4SNOTVbAI+/goSEcgZuMnTojaL//JlLz/nG7fAuj4mwyKALzMDV/Bsiuw3l1xLaPrExHrCC7E0fqcod3dUaXRkG17A0hQoy3hZKswXigCREBNVFksLvAuggiXCdmilmAPopkF2+CTC+GpFlXo3khAmofC2EyKjE1njVvn+15JCO/2rSr+M2c0S1vZDxmKGfzdFm4ADUVU9IM+f6SjoQEAcJXRlvDoOrjMDc2XCaPSMsoiMh6+mHOkiKje+v8fBvRHv8QsgFaphAepNMAHlqHQg0EDc2kZ1xKa6JrAyc+zN4e9MqcXwn2R9kV9eMeUwAW1X3UTctQoMnkYVcKeU9bVMbcz7wZBEXqAHjAuwobiN1JJ03JMkIkTDo/HqkeKRQhUBsc6tOCCXwIaNDuoEDSID7g/0O/w0MiIoLNR5X6T5JRRk/hA85WcnZa+FUFV92/CV50GlaXUeV7PQjeG/EAXSJlnyX+QeT5e5viAfiI2a7TB/ICh2eJQw/2Gf2Ivv5iNV6blTuRUFf3wfTvmSzmUpewirI2EsNjh0gdOrTJ2gSdANyG6Ge0OULGqLSkkWqDafUCKsGGnpz+mNYvGtENmuuPNn+++Pa39UW6q51kB5oxo+n7nnFqHnIRYsnpNieR4ahZj6q3ZxIIzG5qyItzEmzhL1xrOCTDIcZ6sn+UOF9DVU6YsiHmoKECDW2ONuLWq7MeG+ySzA99yx/RnrCkQw6kTfrBqthLVwiaC5Wm8t7C0AyZD4RIcm5E83UnvH74T/gHkytvEvxhMNJ1Et4hW4CxQk7VKi06hpW5DVFTpQ9GGaZ5QZbUNBFHLsswf6CoICGzmX82O7HNhiIDzEIDVE3/eLhWAP70Izv6lnJ5PGLcua5VwQZPNXEv51DU/2oUgA/Med1CSsbEInOtZ0i0BC21r0DlQiMZDvu5VicM54BjPHvSU1cTxpbh/578VwEg6aKteTHK7Be1d8nz1pP6iPjYY41VyPBm77VE4AbFPN0bpNGoHTqtzfZFzqWr3nCJYxvBZGpTtkj8C5B2lPL9j/4DPn/6lPzF+FBdIlDL1Ucb6F8qI1yFrbbjMBKwo3h1XvrqoSv4LDzsEC84xb8Td+qumlNaTcXDNFkvFLeeHqNvzUcUpUtdqEV2ZbieUiSU9YK01X/E5XvM2dot3+8PUb1kqyYUENZWEiQjraNfvCYk7q0WuxH/ZpNvDMKTb04HKUBBd9BzcoogtnKvjrCCwVeqtBr4j3QyJ7KSqUWgzqZXzF/1d0ja9s4MtNBO8VdnCG4J6S/F8TpWQmD00CU67q0ZzDQ/cccb57d6vpWRM3aTwblM+D1TBRUto+Qqe/Fum/TDwlGpGkM4hAU/FbyzLFhYy+5zD0LMEgMVncoUIXcFHRLdlskbgzzxdoTGII8LRz/+7DVLs8L2NEx+ilHfje0JlxP3bHnn7tH/8SL/pMxLylH21E2IRlGg1Q9W4PLMRWNN1VRDx3tlKQSl7QzUxwPh8zXkuOzHqwj3rzxFe+TodrnfpYCGVZEcZPn26DPnvtO2NTpkEC6v8ejrySYa5Gks0oR+udSveww38XzEBMilxs3t60avM9mlvz68ZZGwXiTpyn41ReD/p8I1lGC83cYg0U8idDYzZMq/iuqa0zAnESHTjpUrYf7oMeeUktzZ6ofsLk7NaNDz4EDhID7g/4N/g7WKAnnhK1mqsQQ2crbtLo6HR3QvFVGSuKLajYrY6P3YQX3x2Q/bTk9mSNPH12ZIotjUnhmrz/rGBaw2qgdC+g16c64vaXM7pKpMYpctOunukOxIRdA1kGYRFnnyxrT9/ezNWPig67LI0CiyARRti21mKsL8dQwqzt7zP81uvjG3Pj8rPEr/jBxPm0BZgzF9Exa0NGbixUulXasSVmuls2hVdlwCbfMX5I7So+NT4Ti1JUFIfKPQZGsEp3UxhgZCWScTHhXLTEsNk5J/wh974Xw92ajzQdQF8GPYP/edLi9xT0FyUmwI61/q0GLQCnZcRWP0MtcmOyT0p17/0QV2K7dFZU3dT+PJkXYMumve11U1V4HqCshqt746leGRyVKNPHZnzgJqFdq1pT3HvvghrMCNInVxW6MM+5VidV7V2/5FXaposqqDewMxwpX7NbyXKOp+zMXZZiIg1y9rgwum1GNc4X3//wdc2CcUJSMATLTFBCekyS634mrPEUVtc7loZyGNpFUR6wGS+WPVxGT1qr69xZtWQLy+M0lQSP6k7SXT1q7g1V6az31+/U274emVkapieaykOdWRawW6Mhj3ybrZQvhQLS+D3rXQOId7bgZ6+R1Fa+X7oMY0wRrKWS8VXbJcASmnjMHtUMVkaJsdnXaUJISQuQcJrVtBQEpTs9B+PnESoJaqU6eA/txIzZTyK89sIY7pjiRQx7A8B7XFPe5CnNKtwaP9V+gNpVmcXJp6KpdxmT7xsHY/4HETLwTHrqLjLE5X28dNH7KR2PocwS126Elns98iTxdivTyTAKtZs2rG1fzNY2E1kYYZTn1cCyabxvArCQR/8iGJnrH2x+mhor34YAXQEgqUVW+IU7FktMfExJw7kylIbH1g1ZdTeOgjJ4U+pXkqfw3cjFnviDT0KA8ccOfy47WKTOl2xfPJdeNKHO6B9R1NdiET/12NYgbXVGzGnEcdkJhg/xpdEPiGRvCb+sOhRGeVY34MKxt7TNaU03WHj5ZmtE59ybycOAYC9lFlC1P51EYu3/4Ysf5M+EwpMrcxXzO0b5Jtn80SP9uLjKsGuMSW2GVSc4AJLb+UFU5lNEaRWV6gTlLDm+matDW9+eexd7VALvyblO5ACHvY9kpNG5lpm1+NrFw4fTg5so9fkcQphhdq+U/LZnilRDCsUJaDiohJMJ6fMDv4+yBRJStHJY/MjzTv2FVg0C5aBlrsTRLsDW99Yo3KuqdQ88kgMxMwzpvPsEGGFS2YHTBhzojXLpsW3FaakO2avU62qHqg6ND/YEDwID7g/8M/RTWT76NICC5r64PDkGL+N0HqtQ9InZaV8iWrZueyLcmlUWilEymZLugJvlbeVkF7DI9+Y6utMuEPYTveGJA8MMLJTcXhtCixfFkhgzsDuSbJ3mRT8GkqiuvUSIy0pAJi182RRoWcgdZgs4+1KYHaeswGhD1Sj/tcRC4VMjPedKFcfjoxDV7qfek9pYPEFbAmB4hdJkMAszMRAYTnXFiihFghfRe9I8qc8sIS3xb2+LPwJ64nZ5oMCc/FUCZ8/P/rTFdrCIlq6b+ReMPse3A+19EClSfwoTH67VTSSeBYswj/luLryr2lxAwHXXYpoDccRCT70pDwLLg6dYnMQJVLnDyiCv2glw4C3Fl03qNnVheGLkZflmgUDFCCkwKE0g8UgS7twcBNyvxJ4HWcfeClKHWEbzlkEmAa0kHn4qWpJ5jq7yjihxfAZZKwAbh1GR9fJG6X7q4XWK8sEjhrurgoyynxXx04XUoR2M9/+59iY7gz7HTKc6YOsLllG0W5f66G7tlLhzXRXVf4hbnaNEhPiAR/S+EOHqK1L7AsfWjyi5W8bhc/Ngxd9ll/6guv8SaiwcgXuk6546yB8nTzC10thlja4MBxttMHzANmnqUjBZwaFCKpXscUblMbLyC6jW4en/rAO/W7hQbWFY7V5QxJP/WJMUJWKD+bSFNOss7WHleDQ2k284g08tjwj/tlaL0dBZY17ivxYSx1jYSV3O0Q9QY/e8M790wmgNbKNZcM9jsIzL9UVzjADEQ8LXPQi5hYRSnMzX4BtYa1lesLlidmtkC8A+MA2Xd/Mn8GL8geB5FX6/rf3bCrDp2gqQcSYdXhdwHqCGMVCjkHDeDYrN3IWcbleTWgFz6bNzgDM9EXef66vIS6vrChdxPnRKtAVd+0ZuPs4HOoXTrVyY/iN45Lo2BBS7J3tQjqxcVI07PlBh9IIZyaJRNyAcHAUl24hG1rdscZt2oJH5kqJJViEzjmaf8XvnR4uZkWD/dfd5LWfpBjdriaW0sPHFf5DaGoiiSQ8mrUl571obIvSlM/WvseRDDVc6c6gQuXf5HzOaEZzbWdWHKMEf3EJk4ZkpP8Ui272080m5p+cxScagi3jKlCFpBCpKKEBesq44Nvr3nV2b5pesx67AEGIayRo1yvvomi26uC7XJ848HEGUJH/mJJ0LoD9IYzkF9FaB0AX04H17myFMrb5Keo7DFNAOCTOPOd1Z0S0iHZvGx5/x6We5EOp7QxEQ590bZXSWCxEDC1gzPtcnscrvYwqsM97dJWDoR11TBvNcUOUnMbldB2ZaqgXk1WFIr09y6KxrkLhWBJhuFHkno1CqBLZd4I+//YRHqk8FrRzKjQ4uBA/yA+4P9C/wMUv8i3R7vxG6sW/qv1KHzzfpJS3GQbQo9+MOdrmALfYuSO9o4mbT4S1YtY9LXfcUNRftGQ3Z+hkryHUYRyF6bskkhhnbVxz0KeDlm/YoHLPncWmpwnRr223c2x1biDMtD03BvkMNwTCyX20xdXViMOnkPpiC2cdqTSwSf3qOWghjv8nxYSSBZMeFCYL8rvt4GnKJMdd8PZUEaT1tx4+uEBFhMa0QfH+yGi9zC4tl3G6GY2hEfDO1In0QtkpkV2nYtTw6NzhLqpIEWqphSqtV+uJVj5ipb4SUC3ZN/7305GG+qJ+sSIcxcRmDyWRf+ms/2RHpj6jgGx6Tp5v8fkedk0oQly6MM3t2WCHESN+zlmAFj5cac4bsd64ZQrWlAyAjpYkYRj7GrWU8CTIy+IoLGt64FroYxLKhOv1o4rqC/eUUhYXo7PklMOvuUvSx5L0ssaZ5LrZ2B9ZctncKKrMnF2u0Sa928TGbj1uJcP9s8GLhKrtgHNB33jjkdHXG5A89wjEQDHlVwu22dKB8UX70rk2xCzUoxUj+fQTveudhOLzgL9XEpelU7Z2SnyElc0904+UoBK2+WiKMf/KlDuQ7xtKHZxuIPSgofVKdG8s0Wvrgq5s4ak1i0QCjzf0cOEHOVqbtxtczG4jxXLEdV3ssuehEorA7T8mnfIyoXA4a4pv9gaZ8rQs9qCviS6s2L9D2l1BJENoYyefxqNIIH/dN5rR/ktlgqa6mgVyILKIZuiUBQAfxp7Wfr45MfksPbh0Hc5GD8hK9AubiyJW0ml1dr9ppdamUv1oqhNF1+SGMM2rWLdkevSuau1BpVeQFKyF2o8WGF52XiFHocZwv+18AuUqNYXEtTaQtjwJGwVRQYTi8RWbDfHI+KqJhQGjmf/9J5sY/1B6bTQ42FPK1gij5AoTes+2zbv7MPr3ZaguKIpaYvKtEU129IKVFgeq6XgNeFm7sMECTjDJVxegwg6LTKmUY2vXpDJADfjfDXp175eat03rIKX5WtDH4mPa0SIcR4VBAhuW6HRCYvGiva3wUPkS1N4ivlGUJWMHu1tDgFscpaLPYCOwLGIXHcy+37he0s60D8bdukjajwT1DVHfRM368Lw/Q7rIbIGBwldqPO+JUAHgUaAYyl1fT8MRG/S8swSEOPAS7wc82XWbQW/b0H4EF+oe39+vjM4ht+y8Hrgvw1o0PggQQ4gPuD/RH9E9hLswolak4k7lgtwjn+JaoeDYFLimfVEuGt5wXrXp9W4EnvodxtZuzpXR8Q6hc+bv9HYKWTFYUo84IiwiDQr1Uddljh6Q4824gvadw6rOxoXUpfO2yiznAABkjIl/eHDmuNUn5UCGVhSeRhrv2oGUinISVSAJoFPdgxlswc+5JiGqLWmiqLut8aJlxblTlykrVb7DewKak+XwAKuaGIe1CpJVAsHaQX37Gzwj0+OjsQrDkUVzXUW1ZLYthTeCKHapEmo2qRe9TsWUukt51m6GpLmWpJ9NuHkL2/fUkSWUW4KUBRIb9JbL03pJkhSU5h8gvbMkrzdEHA7CYm/HEccKXtrnpNRULJ3jXgitaZ+Fj5uqnRwkqNL9CoR5TOFY4ZspKmlKVQ7Te3wInf49Ci9FNMccxp0k3FPUm24eRcnne1NdZi/hW3yBgMbhiFVP0DCWCLszmrSUM0KVVwhAUvYsn0K0rkubucts5YIFedjflxLg6s2fWYsIbHAUWidkJMRgSP0+n43TLEr9ATHXJIxP8K3s5uibeCqaCN7GBQ4fml0aOKB1VrfeblFZdg5nc2186JE4dXbJfRfwVhHAooKu8j8xJXQSpuAe+5DaQLp6tPkEXF+4Sdj2WBypAYBw4bdmDJRB63vgglIC14go4LX+bi/AXF8RmcUEnMjHQgNWv+mc+jBTGTaGYlgt7dKGYbJm5+rb1mZtg6iDYcUsO2FxI/KrNm5wAf9I4/eZGSGkou0N+zZAL847JAeHaKxg5jKCOzO5dPYGtfjwet8UzzXnYZCY3D0T59dxbKQrph5XmIEffKeQzz20J9h0pQ5g4QZ7gjtOrnqj8MkWiZVeKP5jzGcpS4VKB8CtU32F4L27S6ybOr9tpvD5eLdNcwzdx81Qjb08Rf6kOyDOXh5KsvCzjPHt2S8UgwIj6cOVaHt1fWuWhdn/mVasjFjLDytpHVTAxXYlSNK4I2sWPN3Kds2exwQvB1q6zgNDvz2v2zjH6bPKe5Aum+xrbesfaECgkJ42AWmpTrIPGymVoqtn2Xxsl42S1DAYLP1yJAG7yve7jjx1/OfBZ8G6FAqOwDJXGseeHpqDcn62VKjKE0C9DAer+oxx2d2lJJ/XdsGRLX33n4ZkH+VwOVRxZIOy1yl59seT6QkH6HpL1FTw0ey/n+6RgB2cr98d3QIqk52irpkq3DVuJUU1VdstwPWb1ha0HC2mpjTRoA5eZZMoGsziVCdIwHK2nPNXHL7pNEPu0VcCVq50SlExpxpVXaO6R9LgR/zprqBYUxpWaypajNmYbeZ0fUuzYNTTejQ7uBBHSA+4P8D/8N1jAglnTP/ZWa/YH+NqZUOiUuRIEAw9nwKlpj5oaluZxLbZN1H+ttfK2SRk89lI2S3myIXkkZNa4m8yvTM2VyqreHmKLTdxGf85Ez90NTY6MLaUmuaJc6i8uN+jXoB/bWuQxCw7e5A6UcctoUn/Sk0WBTN1vDJ5UtXousbSdfiGThLGfzJ88H0899Xo5tuESEZfMdOJ2cuohwIHi/QWyfFjt2OxHQsO+8KJh55iroH5Pw53dYN1mktOUsvzckHZIdG6qo2kqxuQdLYbMH73JZ8NLuKxR85C1abn5o7gp3Z2NMN4V/5q4oyoc23VRjAV2imr52en+4xqdfBH/1W8swXAE2Z8FR+1ErKCBmyFlfZgIMTcmD7dQm6a9tMOSGxPFFxmv7cmeme4YC5UPwo2NkQrmZsow+cYQ31kasC0GMVNVrFshNE6PIhS41hWg2obj/SngtVuH6b8UhyD7R78G9QtRGNaV1xDVh+E02yDBUTYaK7g9TZt+J22C3FZeY8wzDlGb9LypGXCXco7sQX/QFbNbDWlQNPTuQ2cvDgriF+y43ylQG2wEHfjaCUyr1xmURJdt2JIo4JrUVqCYBcjfturBA6SO/EicnLXreEsDyXGgenHH1owa6F0eOgHFF0840mK5/C0vknPv2isKfggCE90enqDKVUY073YQu5QFpnx/XyWdd6PEZpXKWiDZ+athQLP5/BQFgpSVPUeQt+gm+0qP10uJOOgtglW5mXzGxDEf/genTNEVZsWpe/dBDy1jHpNkzQxAxyXBeO7cdlKh5TWiTMkOTwHsxlTGBFWluoIQ7OqFuGgPRngBUNtZG0aQfI4SqTV2+WUZ2xBE7FDcjWovi3W/LMSR9DwLRvhLICSdZSdOY4SWFFXoKMc4JzFEgAPa1cp9tKv4jjLTKC8G2NTbLQjrPJRBRVz/+mF5vCGG5rel/+86pprR3qInJrI+l8HsbJA4XiWIcBVA5mCvgZN4XoaCKfReRIxuEy56djNU2t5mmuai6vl0+XhgnXoWFoYq0NqHdWtcaVhw79pDYZ17Tp98MI+hcJRCCeekJjQLcMoemXhrlLnObS4gaHxdenrT8SEBzfz/r7QXMo+LomrGjziXpEyIBMles7QwjBrufFFzped8XqvQgpw7e9l46aRBss7LzuG46/tJTJTmZTy1qY4cQTEWeR/ieegUaXu0z8u5lBbZuB3Rl3tVQ6RR06fK3rf4+fePu2goV0AYmZ59eRETaCb4HuECE/Xi9EIwvo0OqgQSwgPuD/A3/DdY+77XJgCBxW28BiMiN1WyKttl8wye4LejXLZx4SyFnUnbFETKhNiJpA2fuvLJyPlP8KUIz4aNiQV0rzQzXnhHkBsWftv8MQGlJQsPEMFT59r+MpzsITVw6lCA9BfKKHq5ZXsXUYIR3olPR6jO8ThEclzbr98rlqzcP+LUWJzEC7UvGK41B2GFcpHzXBgD7S8EzuEafcNkBceXZUZrka7Xo6iHAYj2BosNIGuY0XXclQGOWGVR//lYSBXN7mKxvYmaLH7Cv7CP8XfxEodTsQROEi3dFPPuMlT2k83TjP/t01RDSIgeBqlL9p56Y5RjD6t+omwawKsEexkPs0ckWPE12nOPp1xy0OyDx6DdSn0lWGR4U+8uxS/h4A8Kf9yySWB5bHPLFZPXF0BsMdEi4LiTWP4vXY5++J7FIuYOg+tmuJptykg8jlDLF8mSvnS0s2v/ohHFFwBZZQ6H2lNlcVZ+SW9BIflbwHJ9h2KRinf6RcrcyJEYYjjpsy3qYpAo3T3xZm9VrQv0doJb3su7hTNr2YaDn4Ht6wro8edD2xS3M69bR6PVDXL8EhrMAtwIVqbqwwPHQLhoJvvyUg9utln4QGdtxOFjjmj0VmVXx8DQJrIfyDZb51M026SK9QY6kxnVqBf+n5JZHfBM35y6nSxcCQr3lg3laK8In8sVVIKxzSNRxplIYYwwBIKfV84OHo/VE+VrV+5s/hY7yHZ6ZgTEVobkP7knWVeAC0yxrlYN1rEWGp+57Q7b3gXqZhDEvtKRPD5teiJ0J863XJLlTv8NdwCb0WzZ/Qf4Q42AzH73qvfYh1jE44vnUA8kuegrlQR8bBJgsBh0GDW1vs9Zs+uTUers6J+mV6CdYXAbEzVicQ4PWvvInVHnm65wTmaKsoxMtnLZ2jZBC/emEKGmjfK1efTQtj5i3FhRTH9Uguwrc1CQ4JxU7buN9EBGwQSWSI1L64KaHyDFLuICkfkHqVey9Zu3CyPeQGnzS9a9InO0uV0UKLo7MA4V+xTlKNctSRHVdDTOB+QTp3ccIPnI/MEI+15RjSsgNNVVFeOJ02heVjENKD3aIaJKmnOy5ldvenb8ipTaYQdEkH4O740bFOlc6dBUZhJnJMMtpDi2314J13ug3SSROy/YP+vTIyBuNjOg+D6FKkdBDrTTpNC4oempuTVsYNxtQYmb8arnvJG+0ucLaRzoisITKV7qfuF9je789npBesvUuLo/hTDXENh2jQ72BBOyA+4P9EP8P1jJK19NNErBHmBV+Y8opWbVFDUgq4TrtGDLZJSLFDptcX9Y0ANrB2Guoa3GFrS/0/gyUlzbVRIETWd81qapzUe3ymURMlMNLbelpDDGDKbIwO5I1/ngYUPviVTEoeir+N2z0X+6fCvPTHzM3zjiAhE/q3YV1cx4QUSSt+40iUWF3hhpaW6cilI1VXpZgrHvu7860AbEpF99h2Jh6ustmE03OcYLmQ1DhDgmH58O0p0hysPZtdxoQn8RiAE9m/eLU+KsHCmVZ0y/pg3KlU9IEB9CCm+g815+plaVCaQnIiJkAoiZbYQKHbaE/fIF5DxCLFWrJP2xqLmSTftfSTSy/2fizzKmLc+QUewstXeyy1WbKU3bjExVQhccjXkBHIw/ffsGO92bm/O1EReQKkA11hITQVomN+9NQsjyHjhzWXk1/Mq1jV8+Dd45Xkbemekj82/+blNNUUBGDDyJtC+V7ji1UruT5UmC3WnKddkEP7UGYx61k9KbAVKSTLTasiYXL8c7sjYwJqN5kBsB3iUBc9p9fp90utMaFTFTufvW2pXqslZt6AFRhW3TQnkoBWViM9f9HJbhQJIATfxAyytdZW7qAH6NUCzheQL9N5NN1IvEJ6sQCovmwxg9POyWL3RB5sjLSmB7mVzSAo4tnJr88l1D8h4rksRtKuLpyfE/R3XykRgl3B1ss3KttmSybfv4vxyhNJ3WZqOy2dP6WC++V5RctBLlKAPtkP45AeXmSCU6Z9i75WxJIF8MvQwm09aDYEKcQU2VDAoVcbq3i4mt25YfyVOD60dOypGQi+j9rHyaQ0JAd4ImERSVi0rrS1Vsm3BD1yOmN3R7YSK2pskggkcySzNUyKIUUPxyjJClq8Fs2vDQM23pUy/4mwy2HZRI5ZMxpNKTD4aRz/dXOiQderoQ/lLUV9Io0gWb71ndpv/k7yxQ6QmaAinW+6xLs5/X4XuURtMO5yc2xWGVxsv4y5UAmaClZlBjgUH6rn1DAiTfpc/eqWhTqMKKAp//cfbQQU4NC5d/7kQREbSZZQo8qrg3PopM1vMm1cSmp5e9cdefvULrYfsb+05VHbzk/e8vs0o6eTaqXga59ETjPbZOqG8YcGvPaHQWNdJpS/pY8C9oNP9EWNty9YDnQcPCo3ze6KLaTZdzLeQTYSHPtO+1SG4CqvIwt3laBfSfOS+wisBZ5L7MMM4lWb41MyV0jw+uuFsJiM1ScyVNwIm3wg2jjZlW6cK0Yrh4Fiy9DChQKpn1SdSujQ/+BBSiA+4P+Df8Z1icxQ+BrBA85v6g0KI/WeFz2nC32NuZcQpaAzVpa609juk0uF00o4t0zNgwvxj0texP/51zF1BagIdQQmuT116imD7tujNAjcQ12Cp/KIsKSYvt4/4ElzVolCJ6LAixblbCCRd7/WtgiD6P7fNk84q1rmxHF/NRC+bNFqd1mYH0C3zJMkt5zBaMySphroIVTEqJbARDGtf5wYdlPPQi0Qfrr7azDZxJYtNHPlyqjb2khwoEP0ze/1ZNAh+v93GpU8UdUlAeySv80X4ZUGLY6j4vyksUzSBEufDwmcv5fsb1eedd1+MVoMOkrhEIGSpjsGXpeiM+bCCoivHjk3CuhduwAzXqtYxFQCTAYBcAzQjynoYHflo3oeSRGxLViyO1hFlticGW4uCsUvCyBcM5Lfho/1jYbdxL66ku8eB7ULkbN7aCwS3MV5a/nrsedQBApF3afIDVZQmPOO8bjcLjiB29LCXX5FdHAE/BgAJi/MCnRn0NaC7hDUYa6qEbcW91df5LQGdbCTW3TP76q+vV3QqYoZeCPQCB5ZdqLZCX0gcMaNPnsEwLuEz8BHuy3/uItEejUdoaybQyewBEtPOp4igi/KXoPB6hKjvvvhpM89sCIraaczoRhj+XzIOXvLIuxqCwlFItmbXNgzr7OkG3l5CkN8zMCHGIm+COpAjWF8sFi2Se/qNSAi7vphOe43S2RAkWJqu9WMWl7jJAuThFHHdOOpjkJqd5+IagLr2tXl4hVI1ZSW6EDvGt/bp7wqZkM73CuUS2752fbQ10A7ngxdPpV3eK+hUZlxKOK78StdGpVC2zVG7brP7Ym8e7rCZH5YUHLosLJihMrY09N5M8Jj6CpatqoGp+8/KXL1skLnm9gwXpiWdaLrKoa1VWf/h8J837PABwmRS1rKbrhO9XDG83u8NQKKq5s9LqS4m2N/8wHk/Ss3zo3VgoZFfGVEsR/mC/fSyTWF3j7KZL1tfeDnULzz9XdeFW9RMnEqYtSk2q3aVNJNGUJoyOpaGMZeVkaJZ5E0gt5icxaFc2COlCPM0vLRo2+HJaQbrOanQZM05GG0sMbAA4+/HLBCI2lJwCgcEDXnozthRCRK8OSLbIRZK2SWQ4jrExDq7QWtTFp5cbAyKM+//QfdkH/zCzpP+iivjXLesMFzQNgrTn7L34rj++6Fpv/5J9oSRmhqlLk9fQlPBK0kzjNmY7mNNiJmoz5TRKbqUJsCrTmEvgjnVlTRoBjYWspSOQ3C4y13W960NIbJMtJwPjL9itJNVyvN5TBmz01UrR8wRttFovVa28qLpWQwpu9o1Rv6e8XRAOWaftmjLoiXMzNt2RE7dXFlSso1UGB+mejQ6iBBWSA+4P8D/0O1pHQTjxxYHnJtcwfRc+/puBiG0q8nTOfuKop5yZCcM9r21rmZ/uA/XRIbg3iMuEzkLNHlmMiAVoPKPC02waNAL1Kq8kV6SSWN7STJrLGdl8b9zBWE4+CbUua05LzZJtxTeu75a9ev20Zfl32ldMBYWsxAiS8sXREoyRJyzuOLuoOMeLw4/XDtxpGv6DXJ3VHywQ5hO92m4skJGhC45HUdnvaqdOVk2BVSEr/NUdNQpKeo0yRi1pJN9sLUBfj7vDp7OMbGsb10K6eCjAZMv5LqkAlvRUQKencW0jlw7cM12OaW7d4JTuyGtBoO2Qb1oqpV4MmVCRqHf/WBQ2JRZMj8KdS1zpRPjvutJsowt6M2TrAUytp/WuM00JglBSDO7O0jYu4s2uFST/S1ZGB1jY8inQaZPXb5mKK1jfa+AH2A3wqXu0wT9fCUmFnlrqxHb6lJbT/Pz5OrVBFsZgjEGjI9m1/C+ZkAkqutLpAet2RLUuJZSD+E89DZiW9jvfhv0WTSCjU9l0/SIsse0jFTBLfvXHkIUxAZCy7PaIC6blxGDbklmuMOlk/82tIp2HlcWUw5VxE50ODkIas0nEFbCcoyx823joQ40R27kJEFey44l109s8QLf7hTLME6woUrz60iP+hOR5KnqfGpcLsAAuWO9lT1G/Vo6ed/OANr5dWiO8DxXYE52te4glUYB0ZaY0/eFAEpcXhH4UvgvvGJtjKpp6onWEZVKb4M9AYj46SdwjihgO9ic81bY/cML4pOvh4izgf3U3AhUwD8FOt8PT/uT3y0e4B5YXDWIj1XNbemppVB7nYWNQCMAxOWVqpCnOThssVEmG9kUwwVMLMSkeL9dIRBCiLUGBbg3Ckx/50O9EEUA24k6qRphjNiKLwWX55KkjgrUh0U98yzYWsfk9CZ5xN7jaHruiWQ1fQKfLrJUohVtHqFT5wPQ70g8yCDyPTHZjX0gtcmcSxVLIrJsLecAbnf7Gi4EqqmYQVLfLNLuaqpJ/JdOw4OjHotzbqRFye/Xv48mDl6Vt+tNwwqys2p78NYIj3ARYUw6DSaYSYeS9yDFReocD7fh+Vr0BBSWYbvWXwKpuZXPSr55RSXjIwHQExPAqqv3nU151vzYqiL4c5z8cuhV1f79OgR6PMJaJGY/o8aiauBjRFbJV88Fv6sCiTl9t84fq/f4T7HwL+hLJ1tygxupgZCtXbPDVtPpQJL8Tv6GAxr0jS99l5G7ajQ6SBBaCA+4P+Df8NLNJsfURwyR/wXzNf5TyG3pXgzcgYyxeymGJCEC6pqeu12kovtRDgspWuY+hBNz5zRV19LYA/N6RiLFDAWbRREPsYORFstlBKlf9Wa8I4j2IYoboLJotJyIvB5maj8y3krdghOTZxLLEV/BWq0BXVJyRtoH10b5Q6cL9bwgNSMkp/ZTj/hiBkFCT/N6xEN84VAh1cryOYpjoo4RMSqp4I6xghWeTX44LJdrPo03wsm/7H89faSLAlMIKjYonxnvyFSp1IxLwOC9gfS2FWCN6Nfpr3yUSsTkpttDWLsWZnANUQzR6BD7JTcK0cGxQC+q0/jMYzJM4yOVy5213Qbt6jPhCl3dTZxJONgXOu3bAuRpv4miP6Q4byzlF6Sl/VRGPP7SqqllvXOj0e/E3usnsepMKT1aN0o8F96uWHJOgnJcTyHoGUzSM8GSEtLpjQ3qp1NuyLNUst3fMUIJdtN53mhsEj17KL4/O4Ez5+FqeJFpm6B2NP1l64qtMrG01+TD6aJmb8WoJGum3IdUci7nnsisNjKYQ32l+h1z3WHpH9LmMkiewFTpTggQGO/SeC8l0oi6im171SePcJV1rsMJc6r+gbmje+GY6imaA7YWyv91HA+zLTlFszI5ukukFMG1oxZ9R/QBxYmF3pxKgQZwYcIwHC8L+Nkl/psb63NEN9f7lXzfM2E0txLMWuO/04+bmz5cTWu/3Kn/YvXV1JT7qVlZx4Si+1wU1UArSpxsByK37jTUAdSPxDCUG0KKUB1z6Gc025bTORZ/NG4DA9hmtv9Rrat4UcMtiZ9Gewl0N2ZNJuUbWL/e7h1rgaFV51NYetj9qIPyBEy4CFcB1EVay//us3B+h7FEpt2TL81+RtWB/n6/wbHdU4ggAFmpILdr/Iu9IVTbDCPkvB+JNiyJ0Bn1GgWXVeamg25fWcG2Z/M0+epd9wlATL8lqecSVmkRQjOwoo4kWRjftCL/xCMcXNwJkAHadcZvAvDn1yWyUvsQddxQ4wt0kAryrwvvCP6V35p7Jg+csy/Yc+69nRjSCr6MqLNVs72o1+IBLXTRGckXpgxMjwsCpZGAJ7JxyEDcHsSFI9z3I3WltSWzosV0JqqgjES9QEP3uTjuYKDsIxbSVkAXFW/PrAmxrhl+ubOoyaoqc9zajugt3zm+LMKOtgNB5wJsD2FEl/sFIgBwjjZlydcWwxRGmRFxEHOmWvpJcWqtcM7qXfng4SI6NDuYEF3ID7g/8M/xAea9vAcNqC6kx+xK0DjpoCAwrccJ7ulMqY+6ytTRN69LWdutsfgOO9fZtxlMtSxNmt/8F6ei60CiZ/Fnvcw3dvGzmfIxp4kEnb4tlYYb3e8cuUopTVOrrk5fd753vStubJHF2XC34zJGsVPp6h23Yq8f+It+F/FOf5za1cvARtVlrA1qaZGOAJokGRaXRD+eeR8i2LiWX8tCdhatkhIDllqkw6gqaA4Hozjgrxs6Yxf0BQ/upmxzoFj/dwC1CvFPSJrFBy5RdO9Roj6qHGjnYRNc1KgTJkXBnJfpXX9+e+cyt1X/38369JaYuqCsaAOYxldpYUulSHQc9aQHZm/Coj9AyPO30/YUKuPwHT8IKrLmulNtD5wNAbwy+lvj7lWACAjUu26K5XcSeHfzbwqi07pTqHLHDvJ3tRdzlAETaYa9nbplCdjJah/b6/HI5ENootODjZjILJTHxvgFMlvkYgLnwOx4mCsWb9hDprUtdvb3DvT0Pof4BrsrMfMoubagNFNziDkmXfzZHzMRqBvyv6D6YwIXlX4NO9KMHZLu3eR8GoXCmLqtqf+C+78fWH+bxQ/LB7JLIJENWxBw4ofjntNqk7+3BGjsyMvvNJ/SIfm97iJIelVTr2Na86mK3nLRyG8Ca5e3w0koqofI9jTfdcH7RXb0h9CZVj0v84MtHoCpn29ifdSWyoRDRj5A1IxhpaLQ2DURfODZ3tc/1ooqLsIybbxgQJPXEiv38OUXXXn0e6VRzxu0WZRqSBwo2SRFTiZ6aKJLSffqp+fu1jOyMrRQzXaPBk3bYAEftYXr5iQfMDLierP4TUWZ55CZzoQpUYtY6HxTisBbbAveifmx8QNheYLVjk5AP0EMV7KjJD8pwLFDEi1itFJc3QyyA9s5krmKJSrs1SVFK0n2OMsSwDdTzSFvNrzUCQcKFSMcE+VWSpd8ZsKnNYrHU36i/pTqO7efRY3qFftt7q/fCoY8jaLlKsxdMnuIHbecmFfuf1rqTeHHwBvrROG4hOlMF4XP2rnrjQoFl0UmCYpEIwOHB3TC+1a3DTsCQFRKULp57yR3yEVI733hU7S/n7Ny1DYnvcO5/3JTOVOzhFSnBz7X0yc+subwfXiqE4sqvDx6UBMujTjwUKdn0X14J1IiTKnWHCFFJSiNjAkdPOcG0xkjEZW8Qa5B+pMQbqziVedwkiS0dC3PQMyW5JXFHS7j0PcO9uC/TPdR+4Ir0NMZChD1kxjzej8NwOBUpGcDoKuk2No0OHgQYYgPuD/wj+EFtgudwFYw+Aec7iua5zM4mB7xVea0Z932Pgr87gMy4HSX7A56i0eTc2jQGWheNUhsXav+gsam3wHWrIuSTqvP5lWeXF8Tfo9hecCaSgdOmFfvMttBDCabrituSCFW7LSywoKX89jjVBh0zYNpvVXjIXYPOdtoxUtrxU5EEzU5zaozDbW0+2T4TdNm7LtN6gvtFaq75XQHUtOaGiYHRhvoMRnqeJgVU6j3r69VJVEyhfuXNmK/GlaMDT8Ivhj6b6Oa/KmswZKuevOrCZ1ZdZEsqDX/Tk6nq2Lb2BczCGSvQZCK5ZYhyA6gmRHNFRj6au6L09eMT7EAvO1ppzpYk3JaNmmsQGmsJrtaEyNP46y2ERM24sIS2NcEHg7Ver+hdVPLTiSWNOqnIPjZqjzNEGWBajwpAe+uKgx5W/hWACADjxhmJc1GGp+vKZ2a31WV85yA0g2ororsgc7NjIvHLgqqLYbH0MXxoy15yWKhn2bxPU3dqbUXWIoKEtAhEmTb3ZSpTkjCGonpyyb6BXhMK/aVNLrORxXm+O2Jr29B1L3hl+5ZXX3kmGYULxarVmhkyRPszFebsNtpppb3R7EjWQ6SCinH+Xn+1dgM1rLVWNnw0uSf7Cp9bcyF3Al2yg38wv/vSXjhQmA6TQ0VGpL059/Bw6ZfWOn83QR7ZfjubsDFjf8El+a+a9n5ZnBpanRLtb5gqbBv81bO29oyIvjptWNurcJUdA6fHq+RlgVKLEjsQFIMbhxSVCFnAKDt3nNebu2FVRDnWl3x4db2omcLZKQN+MaLdj3iX8DdbRMbKNUFfXVIJIyT+70yimk0vKwhU9w7QTMoUQap0LRnmDavoVmdFEwbYgY4wTw5BltpvFAAf3plSkccM01enHicBPZCRi5453d/ip8WYpuB/Z8jn3oWHLDjccPu1qivkERAqtvr5I+rDMvvzMaFxoDYN5sVnk/qw/F8WdLb1twJg2XLnjQX7RJCyPNPvL3BMjfE1eukYckbczXHLUN9uxuASVKkEgFbKARLqKkTi81MZFWY+mjT8BvSzpEtPuUAfneaRR9j4RtoXKI/Hp+aF8DLg502ttB5X4gu5jL05Gwvb8q9pp1MK3GruPTpa3pRIwl26j8U4t8SyWT2/UyUMxA3YjCITUmLnxMApvMQlIBctHqKaKqYmNa7EZZOT6T6IRfHB1o0ORgQZUgPuD/wn8D17OxSiS8hQ7fTdLOdk6BV+BQsEpcx7ykWILtz3QO5tQ45JDbeKgb3nY6KotiXj5ha/jZs8TYKVM0xeTGBrEDaBL1Ce0EmtIUy5/c+e86nheReIOx7VgdBFjrVN2yV21UNufsyTo9PPc8XkSKzl+Otta2+KodB5DfaEs/6KRFArV0f3jOxmU6+l2XJrnyQJMbv6xuCIAZ5kXNv43CvSNVnlXqCV/dGRSWxoZ2gPivBihkaytln63Y2WRXtZHh4DeAs5lp8L7D4IcGbOia9xBAAvDRxPp8WM64qjISFhrNVAQ9KKSy/71Vim5MwWyfHUQ0ZtmW7muTckmvPPdxb71MtEloCaxpdAnXEUshSx39+qcgXwoVQCwfNVmrwMsMK4FE/b4Cj1sPoYcyyXo864kvNYor+sSERuAqyk8GsWl9Ai8+E1Pul3diSv3T6+0utIoONg1WyBu7wEwTvItyV2Z+c0ctEapvUdNjQq6SzFAd0xOdFCGyi8X6Oa2p1vXtTdy3/bE2Fmq2/vXsqzSe0Z+t4RdG8zwcwshObEWXkFUfEVLZ/hMLH5rvN5Hmq4K/W3Al0rPyCzpRURKXYc2OWNpewPJfpel3mXXMs1k45/u2iWwoN99l4kspA/4otnez9vnuX3aXkyH89d9bZkTlp2qBF89KmLDBwCkhVHeAbvjNRr9+l6laZvMVaPe5f0SkjQnhermt8sSloCNrM5oU23fdo3UqwbzkLU7orTpwt7LqGZAXdANkuxe1LkgAowM4fj56Pdv+pSYfu90v5oHj2mepKPaSm6J5dGH2A4GwksvMU9805KcLX5kVCjMR4tctIu67iKKYjaMOpG/4MxMBUAWojUGwp/DGi+vMLUn3DyjS1491pZElExu38UAFhoYCIK+iK8yXVZ8HmJpsmV86v6hrZOWxXVM6oBMqoEUS7tNfupGbKtSZzYXeIEEE7Nu0y7baBNNP5RHpAbU0XclI4bblgPtzH14/9jHcmiBtZ6retrhZbbLcKGfB1+qOuv5+hTRS5XLlqD05vsSU7p7iVpWvOSQeVqdes8W+oanQ3Gol29gcxVtPAWQB8sXQ0dFIkT/Tofz67mqXkcaldAzn+frBRhHkD9IW9wTRxwBCPrGeFbF3Q6KJ8oUBb5iC8MP4kY0bdhUqfTz3YMDI9zO37SjUSICSg3DIN4408Hjn9To8JrkmumxXpC42aND64EGkID7g/wj/wtxDZB9waxgRvUUEM+gfHi8Ztm/EDVgH6zlS/c65rdJFpqb9217Yx5QWgmUDzkOX92XJpoZlDRVm4X8aqbmHIjBIb/UNI+dlPIImXFXYgLqxWDoOYsE6lWNWwVzKArIuxravCFqyHFI9Yz+zIoiNnKlTrtD8/07hczJ545/CEQ1rXEeu9jd6M2avrsdXsKrgFIzx0kY5E9+JH3r5EA7gze++JTMs/rn0ZmWTAHwdYmtrv5TD/P9mw5m4kWSytHJi+fNNCMjUnFwK2MSWiVmVjp7CaNWNgQQJ/OKNua0DoI4jdyUTPr7CioN0eQ+xgPbrc1/GAk8yHPOqZfhQQwnurVcO3LhaQzqFGROrTeWQj6jbvt2X8S4dSxF5yjpKhORnb9X5tMO4T6bxK3szhKdoHCVDpryd8cSLdi5/vabDVHoYdnUJVFQ1Ma//+Tc/dwAtIsbLXJ5dh/LkIdfzSV0Rle9yp0rTZXJ+Z2JUKn4U0pdEfOtOkFBXL6yAwEZE1YUOkCAG3p3H2D+iFsaPdJu08HMZ1eHaU6tlEh2ig3Bbj/3RvLw56nmGlVd9kXnLxd6LvsQawig4rVQUlafP7lEB+azmqskmIzjxrmWnnVyGthDewcQs3iTnN8DJy88tYkomaa7h9ItcW6vWCwToBHV3U1yqQ3mWgN+owrvgYw2mHkl2PmxAKFq6yKfyOy0PUGmcYmlo5YmxAGOAv4WjoFNQ4J1ZtsctUi4NioXOiUMCAbNAiPig4BaKuQ3hOZVbGufWUkDUP9jJLkK57BT/GXlnd4yB4m9Vg9Zg2a9xyZ1f1FqJuo6gW3VSZNXh80outs57CGWmH0mPfOoHyCEyva4q1YgyAkF2opua6H0l3mwm7IYK4OHjFXcZWFI4kiPTXUOmclFw6pKj+koX0hOMzbBq0CQxuwfRN4SZre7+VsRXMCC4v3fpriQD4JX71hc0uNloI+tMq1uV2MN6VI0eyr9qiI/o4Aeu2+3HtrRkl92PqBydm5M2yENrxV6UtLRn6upnf8Txws4beENPbr4sxcgqjSuKa8vm1d1B68PRkWeRCl1dEN5HUiAtaiRUhvrI+WPZps+smzbb901D/w9NmVoLx6F81Bcw3x9vGtC0aY+vpXWo3EkkrpV1I0VbAsorKeyndJmthE8fh7XG8ulWSQ2rTYyNU6Bxbn0co1iPfeMQoDg/KjkPi1wpxbZCbWCYMvgiZ19fCd0ppfMSEy/WIbCnp6HxHTdX0PsbPo9x8ipTDyO26yj7K7DDAD59QPBzf1OZfr/U5HUFJuSuhqq61j2aapwJQRTaaaA0qaIozoJ1eRDTlejQ4uBBsyA+4P/C/4MPKOfGCBtASNJHHPj9o5wn1wdSh43bHp93+uX7lSDQyE1FB7qVfcs7gKFKWFFoFL80BzVgewsrN2gpIVpX6T+EZHOXEDRtiiXnUjW2sL4p7/j1BkkqMMLMLt0YXwmMJCnyTDhG8yJc8OKFWrqaKCfmjanyACp+2M+OFzUhu2jErG9as/quMzUTposUoDipL1VeXlQkpVJkwuQH4goROjjz2uQKdGoNvJw0vk4ywdHxv/VFCX4CMDxGKjgiE6fUbJ0GQ+6h39uxbsyaYeMGDl2o0ImErI5skYO6mpj5h57bSDJ6LyyPyas8+nM++dQat30nCSRVwGbED4ESUt2jIEw29KegHQ+Sl6dgfjU0xkHjv5ct0OJi9kK/mKbqz5zklgClsY6nUPkOtGrAiRDPFB/fW16In31z3iNwgfbygYK42T4LM4iZ5YogD/XPYtcCAeoWrgMg8pxibzWlOmAWVAzBPXu9ASF3hDU4UF2Xitb5iSOJQ7SICkDXrGo567r/JoiFa7Uf08Eo4IsYmuQbGpwCJZlLmdtoYYqn1KHBrAz9IhmLt3vdv02B9654SI1JGk9ITMofMey7QPwHcZFAQKi6b2oW3e+9Y1DcIXQIStrSdk/luqjykSJazC6JpmYF2budDt+pKkTlZmNsowi0iACoet8u4tIcXr7bU1H+cUZcx9gNTD9VWrHzKvlgsu75rL1P/o2FJmqtO5igoeII4q14hj0TG4miD/H/Qg8pkWzvN9Z7GrK0MmYkgVhRnx5DuXkDjIxV/y591BI6UF7xu0WvGf2ZK3a4ZUhMgBXGP4Q9uMpWXNV4MAMbT/oRRa54LIkZ+gRY6mu7oVbunIUplA2bNL6hZqjsm0INPSlqRcsYKe2LwPZKWnZWHBlhgcG4H1x4PlZp0MZGtmtvii/xO3TPyIHE9PEeWwhUJNEAht3q8s3An5QhO/qlV7dItqD89C5yV0yIKsa7Tjt2DI78veuzepbeGpS6G2dmNENAo9VsrwCbQKDWFePbQ+HI498nJkdyRcXNA/0DAKf7KCHBaDo3u5H2XkOqYzw2rqFr4vCJHxEMwX1SgXWWUm0LklgsmiGBkOvQ7+IERHsDoxqc46f0kI66R3P0dKOXin/sXqFkz+5r0D4tCn9yfg10aQiT2g2CLMWOTG+035TyGxDRf1uggIBuzW665Zp3IdbCv9aiwoGo0OtgQcIgPuD/Qv+D0FzdJmlfsaxYoqe8q8ipbiXCYjWrZ/0mXZ3gJVuV6e9qWiMN4IW2uHKca+VfX6QY2N5Uqhx7w8dVRxhAoZUI9d1HkRaUe9lz1fUj34PcIN1Kgkgnn8Y/R5bTtKNWs8vYLNcW1h6/SLkY1ri78v2byffZrNTyGty5JhlMhOCwM99sIC6ugSuybiIeOwtCQWnDjhXrTNpoioWd61f+G/Gc1ZTHf/7ppjIlHk7NabhRTe6ceUpthX+m3+JvFmbh7MlqHA/ow3jIKwPHKfl3VJbedFQ1CFxDHwNnFY2y0mMemw1vDdEMMtosrTuJ5l6Z6hdhbgjz+65Twsze2vOGycORPWnAWjjCNzGvYtoOBmu/X0z4CS3WX2l6WyxcTD0awWVC0mXjGvO49Yvxz6Au2sQ20j4ekcvlxniwpTofePJmQ7G1Kw9R6QK6nK3+S8ffPepj+TNO28x81lmJXTGbKo2i479iuaxUfjmbTUND8H10EV7L2RFmfwjH9ZNid5IQBXgWGDozDNz0q1CqPxCyLECC5QILyAaamTYBg64fQwDozx7YlvRSNqLru9vUFEhMvMHwA8RjJ4fA2CenB0xsK+vyqFmJKnO1g/trCqzvFPsCXhPLLkwqxFsb8xPt6HCCQiNMiEN4e3IqWRe33WbqM/gnUf1ck379gNPU7pVdxnlSx9qz1va0QIox0lwocIAjRUAT5Xjv304nxTzIReoRlYAKtrzN8qajLJMqxzQ0zW5P8QYKLUlYA0alP8a3gKh4mrpOJq1DGh2NHzkAZOHy8M4fxr+//58DXuWYalEyc6IL8auIfvSIK/xa0v6QFuw0iZRaOh1E57IxsD8rvVEApk2aB+fT7ixRxO9sxZOdEFMCYuYvZIZoA33loJob93xuM9Ji6NRkqNpbdoi+tMZOR4ts7TmentQeBMIMm0tSFkdmdocDDXeKdiwPbeH+47I8CxJp4RQzNmFCJQ6rJZcupP9Zo4iBcuOwAXlXigsxGt6P7NUTx6ZLJfCxKhz5k1y4rbv8O+FP6VtmiUKaWnWAJomU1zm1tZgIDXEdYkwvRbp1pa3xfCi+U9cWo8FtBrlLMAAHTPEO8iYopSwfkJcx7iKT4ft7idC+I/llljez0tnLDV9FXUzqZfRu4pGtHw2XiTo68skh4tjPK0qcE0T18Lvt+3q+ddwPN87zsVAhawxVdV6LtrQ3jR0V8csIZ3hekCxMH5zYXRsb19P+LVcweowH649UnqjQ8aBB0SA+wMtOI6IC6qj4XiZ7Vss89gOzofJY3Hr4JRbcsR0RUPwczngu0PX9I2IaZHI4a/EKWm+piCfLMdWrAImxbh/grC809mfVsTE0yhYf/zdSHBG1CoyNoAJhYWXsKyvRWrUo/XSl6ugdTKmD7sOOJh6sI4YyXEUv5RvHj5T+6Wcj8oLvTdWLxGa9HYcnB4ipbsMW4+R1M2ciz2CxkP4I0qPz1ncNek1Siiq5MMgAD7Die8tR8OEEB47nb1z03jQAT34siNabCtKGe1A7vbkq4gixQDpj0GP/JQuZl5CgEemQ3WCAB5xZy7K9Wxc9ppmN9HeJLEq/PPOyKD1ZYSnKXGxgRvq8pRvFeOMF7LP7nNUPyeEYsHOeunAHGcAMOcKEZClIvQDflyWUtu9602G8to9sFdQ4zWbsQUdsfGFMtFSBvMr+SMXKWMVMaqxcf7IYXQBUFX10WZcw8lwF2aFLShmGv109mrT5dF+WexM7vSg7XenQJaUuJSe0/toXONb6WW/W5VY8VkxZEdDqeLnAhZ4YmnjoHw3ybtD5cA0FHjfc4ijZ/11KLwA+bQ8Jej/q1xkm87lUXPD+3UZZoRTpklRDZuQX+i+GbllQMQ6/2RWa5cEov+s+oSZmUTOsxB+Z2te4LGIr5rCQXLs+zeEuTmJG2fxctK9FSky4p0bxU1eRrz/F578IunXMzom++YL5aZivVIJdk1T6FGe5NxQROWawz+onVYJKN/M81i3m3vAtVLUZ8jy6GEOsrZaisb0s23Auq/IHIukZ17psMAhuohCEqgyMbJ7bRv+G74IJSRwR70a6T6wbwFl/IA7WC9imxYg7PHkv8oc1Zwuvps62Pl+S/dRUM4uZ6nwUJKpCU7T6Xj6putycaEAcS/oE24obyqlkWoG3V0UBExJdb+BIsUSbVO0/30iMEI3PlYybh5rs8nbO+IRl3fUUQ9TfUceNwsiOaPq4UDQpFdZRnHmXxnLvmudUh3VbwrhasKuu6FzqecFGzAXZ29jAcUsgAOi/wz/sHHmHo/cW+QtqjCxo08oAbnB3LY2jBGgtp8c95FUAy1PNIUPf5tpZKRDhVDeFwCvdkHez70vyVX8USRMCXtuYvtb7PXK6KCHc5brMREJhlNqBTe3mtkyMMNFcR+uNQ6EFDuELTJOPTmo84GjXgolQtGAa5GmdE+GZ9TGcHGqhSzRyh6kMi3S/xpMIdqP105IuXRjsO1sOSEBZmKwpXYaxgFbRdO5n3Sfwzhk/I1nwZ9scdnoX4+AnBRg6cksacjO0cw=","8"
"","","","","","instructions","18","279284","0.0-7.0","872nlgzzpbggpgr","872nlgzzpbggpgr-2024-04-14-14-51-58","2731","","[{""page_index"":0,""viewing_time"":2730}]","","",""
"","","","","","image-button-response","19","283787","0.0-8.0-0.0","872nlgzzpbggpgr","872nlgzzpbggpgr-2024-04-14-14-51-58","null","","","images/stories/market_story/market_story_3.png","null",""
"","","","","","image-button-response","20","285303","0.0-8.0-1.0","872nlgzzpbggpgr","872nlgzzpbggpgr-2024-04-14-14-51-58","1511","","","images/stories/market_story/market_story_3.png","0",""
"","","","","","image-button-response","21","287106","0.0-8.0-2.0","872nlgzzpbggpgr","872nlgzzpbggpgr-2024-04-14-14-51-58","null","","","[]","null",""
"","","","","","image-button-response","22","291611","0.0-8.0-0.1","872nlgzzpbggpgr","872nlgzzpbggpgr-2024-04-14-14-51-58","null","","","images/stories/market_story/market_story_5.png","null",""
"","","","","","image-button-response","23","293113","0.0-8.0-1.1","872nlgzzpbggpgr","872nlgzzpbggpgr-2024-04-14-14-51-58","1498","","","images/stories/market_story/market_story_5.png","0",""
"","","","","","image-button-response","24","294917","0.0-8.0-2.1","872nlgzzpbggpgr","872nlgzzpbggpgr-2024-04-14-14-51-58","null","","","[]","null",""
"","","","","","image-button-response","25","299419","0.0-8.0-0.2","872nlgzzpbggpgr","872nlgzzpbggpgr-2024-04-14-14-51-58","null","","","images/stories/market_story/market_story_8.png","null",""
"","","","","","image-button-response","26","300394","0.0-8.0-1.2","872nlgzzpbggpgr","872nlgzzpbggpgr-2024-04-14-14-51-58","971","","","images/stories/market_story/market_story_8.png","1",""
"","","","","","image-button-response","27","302200","0.0-8.0-2.2","872nlgzzpbggpgr","872nlgzzpbggpgr-2024-04-14-14-51-58","null","","","[]","null",""
"","","","","","image-button-response","28","306703","0.0-8.0-0.3","872nlgzzpbggpgr","872nlgzzpbggpgr-2024-04-14-14-51-58","null","","","images/stories/market_story/market_story_7.png","null",""
"","","","","","image-button-response","29","307978","0.0-8.0-1.3","872nlgzzpbggpgr","872nlgzzpbggpgr-2024-04-14-14-51-58","1271","","","images/stories/market_story/market_story_7.png","1",""
"","","","","","image-button-response","30","309784","0.0-8.0-2.3","872nlgzzpbggpgr","872nlgzzpbggpgr-2024-04-14-14-51-58","null","","","[]","null",""
"","","","","","image-button-response","31","314286","0.0-8.0-0.4","872nlgzzpbggpgr","872nlgzzpbggpgr-2024-04-14-14-51-58","null","","","images/stories/market_story/market_story_1.png","null",""
"","","","","","image-button-response","32","315324","0.0-8.0-1.4","872nlgzzpbggpgr","872nlgzzpbggpgr-2024-04-14-14-51-58","1034","","","images/stories/market_story/market_story_1.png","0",""
"","","","","","image-button-response","33","317127","0.0-8.0-2.4","872nlgzzpbggpgr","872nlgzzpbggpgr-2024-04-14-14-51-58","null","","","[]","null",""
"","","","","","image-button-response","34","321630","0.0-8.0-0.5","872nlgzzpbggpgr","872nlgzzpbggpgr-2024-04-14-14-51-58","null","","","images/stories/market_story/market_story_4.png","null",""
"","","","","","image-button-response","35","322865","0.0-8.0-1.5","872nlgzzpbggpgr","872nlgzzpbggpgr-2024-04-14-14-51-58","1231","","","images/stories/market_story/market_story_4.png","1",""
"","","","","","image-button-response","36","324671","0.0-8.0-2.5","872nlgzzpbggpgr","872nlgzzpbggpgr-2024-04-14-14-51-58","null","","","[]","null",""
"","","","","","image-button-response","37","329173","0.0-8.0-0.6","872nlgzzpbggpgr","872nlgzzpbggpgr-2024-04-14-14-51-58","null","","","images/stories/market_story/market_story_6.png","null",""
"","","","","","image-button-response","38","330275","0.0-8.0-1.6","872nlgzzpbggpgr","872nlgzzpbggpgr-2024-04-14-14-51-58","1098","","","images/stories/market_story/market_story_6.png","0",""
"","","","","","image-button-response","39","332080","0.0-8.0-2.6","872nlgzzpbggpgr","872nlgzzpbggpgr-2024-04-14-14-51-58","null","","","[]","null",""
"","","","","","image-button-response","40","336583","0.0-8.0-0.7","872nlgzzpbggpgr","872nlgzzpbggpgr-2024-04-14-14-51-58","null","","","images/stories/market_story/market_story_9.png","null",""
"","","","","","image-button-response","41","338119","0.0-8.0-1.7","872nlgzzpbggpgr","872nlgzzpbggpgr-2024-04-14-14-51-58","1532","","","images/stories/market_story/market_story_9.png","1",""
"","","","","","image-button-response","42","339924","0.0-8.0-2.7","872nlgzzpbggpgr","872nlgzzpbggpgr-2024-04-14-14-51-58","null","","","[]","null",""
"","","","","","image-button-response","43","344426","0.0-8.0-0.8","872nlgzzpbggpgr","872nlgzzpbggpgr-2024-04-14-14-51-58","null","","","images/stories/market_story/market_story_2.png","null",""
"","","","","","image-button-response","44","345437","0.0-8.0-1.8","872nlgzzpbggpgr","872nlgzzpbggpgr-2024-04-14-14-51-58","1007","","","images/stories/market_story/market_story_2.png","1",""
"","","","","","image-button-response","45","347242","0.0-8.0-2.8","872nlgzzpbggpgr","872nlgzzpbggpgr-2024-04-14-14-51-58","null","","","[]","null",""
"","","","","","image-button-response","46","351745","0.0-8.0-0.9","872nlgzzpbggpgr","872nlgzzpbggpgr-2024-04-14-14-51-58","null","","","images/stories/market_story/market_story_10.png","null",""
"","","","","","image-button-response","47","352406","0.0-8.0-1.9","872nlgzzpbggpgr","872nlgzzpbggpgr-2024-04-14-14-51-58","656","","","images/stories/market_story/market_story_10.png","1",""
"","","","","","image-button-response","48","354211","0.0-8.0-2.9","872nlgzzpbggpgr","872nlgzzpbggpgr-2024-04-14-14-51-58","null","","","[]","null",""
"","","","","","html-audio-response","49","380667","0.0-9.0","872nlgzzpbggpgr","872nlgzzpbggpgr-2024-04-14-14-51-58","13774","","","<span style=""color: red; font-size: 24px""> NOW RECORDING</span>
