"success","timeout","failed_images","failed_audio","failed_video","trial_type","trial_index","time_elapsed","internal_node_id","subject_id","study_id","session_id","view_history","rt","stimulus","response","choice"
"true","false","[]","[]","[]","preload","0","13382","0.0-0.0","79ECC524004A420F86F42034903D5811","d0b8eef4-b037-4d4e-bdce-79a10684b344","69eaecea-d702-4a95-85ee-7e48a56e64ce","","","","",""
"","","","","","instructions","1","318703","0.0-1.0","79ECC524004A420F86F42034903D5811","d0b8eef4-b037-4d4e-bdce-79a10684b344","69eaecea-d702-4a95-85ee-7e48a56e64ce","[{""page_index"":0,""viewing_time"":305319}]","305321","","",""
"","","","","","instructions","2","322689","0.0-2.0","79ECC524004A420F86F42034903D5811","d0b8eef4-b037-4d4e-bdce-79a10684b344","69eaecea-d702-4a95-85ee-7e48a56e64ce","[{""page_index"":0,""viewing_time"":3985}]","3986","","",""
"true","","","","","fullscreen","3","325783","0.0-3.0","79ECC524004A420F86F42034903D5811","d0b8eef4-b037-4d4e-bdce-79a10684b344","69eaecea-d702-4a95-85ee-7e48a56e64ce","","2082","","",""
"","","","","","instructions","4","345348","0.0-4.0","79ECC524004A420F86F42034903D5811","d0b8eef4-b037-4d4e-bdce-79a10684b344","69eaecea-d702-4a95-85ee-7e48a56e64ce","[{""page_index"":0,""viewing_time"":19564}]","19565","","",""
"","","","","","html-keyboard-response","5","348357","0.0-5.0","79ECC524004A420F86F42034903D5811","d0b8eef4-b037-4d4e-bdce-79a10684b344","69eaecea-d702-4a95-85ee-7e48a56e64ce","","null","<div style=""display: flex; justify-content: center; align-items: center;"">
                <img src=""images/causal/causal_series_3/causal_series_3_a.jpg"" style=""width: 300px; height: 300px;"" />
              </div>","null",""
"","","","","","html-keyboard-response","6","351359","0.0-6.0","79ECC524004A420F86F42034903D5811","d0b8eef4-b037-4d4e-bdce-79a10684b344","69eaecea-d702-4a95-85ee-7e48a56e64ce","","null","<div style=""display: flex; justify-content: center; align-items: center;"">
                <img src=""images/causal/causal_series_3/causal_series_3_b.jpg"" style=""width: 300px; height: 300px;"" />
              </div>","null",""
"","","","","","html-keyboard-response","7","354369","0.0-7.0","79ECC524004A420F86F42034903D5811","d0b8eef4-b037-4d4e-bdce-79a10684b344","69eaecea-d702-4a95-85ee-7e48a56e64ce","","null","<div style=""display: flex; justify-content: center; align-items: center;"">
                <img src=""images/causal/causal_series_3/causal_series_3_c.jpg"" style=""width: 300px; height: 300px;"" />
              </div>","null",""
"","","","","","html-button-response","8","357593","0.0-8.0","79ECC524004A420F86F42034903D5811","d0b8eef4-b037-4d4e-bdce-79a10684b344","69eaecea-d702-4a95-85ee-7e48a56e64ce","","3220","
    <div style=""display: flex; justify-content: center; align-items: center;"">
      <img src=""images/red_deck_2.png"" style=""width: 300px; height: 300px; margin-right: 10px;"" />
      <img src=""images/blue_deck_1.png"" style=""width: 300px; height: 300px;"" />
    </div>","1","1"
"","","","","","html-keyboard-response","9","360605","0.0-9.0-1.0-0.0","79ECC524004A420F86F42034903D5811","d0b8eef4-b037-4d4e-bdce-79a10684b344","69eaecea-d702-4a95-85ee-7e48a56e64ce","","null","<div style=""display: flex; justify-content: center; align-items: center;"">
                <img src=""images/semantic/semantic_series_2/semantic_series_2_d.jpg"" style=""width: 300px; height: 300px;"" />
              </div>","null",""
"","","","","","html-keyboard-response","10","363619","0.0-10.0","79ECC524004A420F86F42034903D5811","d0b8eef4-b037-4d4e-bdce-79a10684b344","69eaecea-d702-4a95-85ee-7e48a56e64ce","","null","<div style=""display: flex; justify-content: center; align-items: center;"">
                <img src=""images/other/blank.jpg"" style=""width: 300px; height: 300px;"" />
              </div>","null",""
"","","","","","html-keyboard-response","11","366626","0.0-11.0","79ECC524004A420F86F42034903D5811","d0b8eef4-b037-4d4e-bdce-79a10684b344","69eaecea-d702-4a95-85ee-7e48a56e64ce","","null","<div style=""display: flex; justify-content: center; align-items: center;"">
                <img src=""images/causal/causal_series_13/causal_series_13_a.jpg"" style=""width: 300px; height: 300px;"" />
              </div>","null",""
"","","","","","html-keyboard-response","12","369634","0.0-12.0","79ECC524004A420F86F42034903D5811","d0b8eef4-b037-4d4e-bdce-79a10684b344","69eaecea-d702-4a95-85ee-7e48a56e64ce","","null","<div style=""display: flex; justify-content: center; align-items: center;"">
                <img src=""images/causal/causal_series_13/causal_series_13_b.jpg"" style=""width: 300px; height: 300px;"" />
              </div>","null",""
"","","","","","html-keyboard-response","13","372642","0.0-13.0","79ECC524004A420F86F42034903D5811","d0b8eef4-b037-4d4e-bdce-79a10684b344","69eaecea-d702-4a95-85ee-7e48a56e64ce","","null","<div style=""display: flex; justify-content: center; align-items: center;"">
                <img src=""images/causal/causal_series_13/causal_series_13_c.jpg"" style=""width: 300px; height: 300px;"" />
              </div>","null",""
"","","","","","html-button-response","14","374297","0.0-14.0","79ECC524004A420F86F42034903D5811","d0b8eef4-b037-4d4e-bdce-79a10684b344","69eaecea-d702-4a95-85ee-7e48a56e64ce","","1654","
    <div style=""display: flex; justify-content: center; align-items: center;"">
      <img src=""images/red_deck_2.png"" style=""width: 300px; height: 300px; margin-right: 10px;"" />
      <img src=""images/blue_deck_1.png"" style=""width: 300px; height: 300px;"" />
    </div>","0","0"
"","","","","","html-keyboard-response","15","377303","0.0-15.0-0.0-0.0","79ECC524004A420F86F42034903D5811","d0b8eef4-b037-4d4e-bdce-79a10684b344","69eaecea-d702-4a95-85ee-7e48a56e64ce","","null","<div style=""display: flex; justify-content: center; align-items: center;"">
                <img src=""images/causal/causal_series_13/causal_series_13_d.jpg"" style=""width: 300px; height: 300px;"" />
              </div>","null",""
"","","","","","html-keyboard-response","16","380304","0.0-16.0","79ECC524004A420F86F42034903D5811","d0b8eef4-b037-4d4e-bdce-79a10684b344","69eaecea-d702-4a95-85ee-7e48a56e64ce","","null","<div style=""display: flex; justify-content: center; align-items: center;"">
                <img src=""images/other/blank.jpg"" style=""width: 300px; height: 300px;"" />
              </div>","null",""
"","","","","","html-keyboard-response","17","383308","0.0-17.0","79ECC524004A420F86F42034903D5811","d0b8eef4-b037-4d4e-bdce-79a10684b344","69eaecea-d702-4a95-85ee-7e48a56e64ce","","null","<div style=""display: flex; justify-content: center; align-items: center;"">
                <img src=""images/causal/causal_series_7/causal_series_7_a.jpg"" style=""width: 300px; height: 300px;"" />
              </div>","null",""
"","","","","","html-keyboard-response","18","386319","0.0-18.0","79ECC524004A420F86F42034903D5811","d0b8eef4-b037-4d4e-bdce-79a10684b344","69eaecea-d702-4a95-85ee-7e48a56e64ce","","null","<div style=""display: flex; justify-content: center; align-items: center;"">
                <img src=""images/causal/causal_series_7/causal_series_7_b.jpg"" style=""width: 300px; height: 300px;"" />
              </div>","null",""
"","","","","","html-keyboard-response","19","389321","0.0-19.0","79ECC524004A420F86F42034903D5811","d0b8eef4-b037-4d4e-bdce-79a10684b344","69eaecea-d702-4a95-85ee-7e48a56e64ce","","null","<div style=""display: flex; justify-content: center; align-items: center;"">
                <img src=""images/causal/causal_series_7/causal_series_7_c.jpg"" style=""width: 300px; height: 300px;"" />
              </div>","null",""
"","","","","","html-button-response","20","390677","0.0-20.0","79ECC524004A420F86F42034903D5811","d0b8eef4-b037-4d4e-bdce-79a10684b344","69eaecea-d702-4a95-85ee-7e48a56e64ce","","1355","
    <div style=""display: flex; justify-content: center; align-items: center;"">
      <img src=""images/red_deck_2.png"" style=""width: 300px; height: 300px; margin-right: 10px;"" />
      <img src=""images/blue_deck_1.png"" style=""width: 300px; height: 300px;"" />
    </div>","0","0"
"","","","","","html-keyboard-response","21","393680","0.0-21.0-0.0-0.0","79ECC524004A420F86F42034903D5811","d0b8eef4-b037-4d4e-bdce-79a10684b344","69eaecea-d702-4a95-85ee-7e48a56e64ce","","null","<div style=""display: flex; justify-content: center; align-items: center;"">
                <img src=""images/causal/causal_series_7/causal_series_7_d.jpg"" style=""width: 300px; height: 300px;"" />
              </div>","null",""
"","","","","","html-keyboard-response","22","396681","0.0-22.0","79ECC524004A420F86F42034903D5811","d0b8eef4-b037-4d4e-bdce-79a10684b344","69eaecea-d702-4a95-85ee-7e48a56e64ce","","null","<div style=""display: flex; justify-content: center; align-items: center;"">
                <img src=""images/other/blank.jpg"" style=""width: 300px; height: 300px;"" />
              </div>","null",""
"","","","","","html-keyboard-response","23","399682","0.0-23.0","79ECC524004A420F86F42034903D5811","d0b8eef4-b037-4d4e-bdce-79a10684b344","69eaecea-d702-4a95-85ee-7e48a56e64ce","","null","<div style=""display: flex; justify-content: center; align-items: center;"">
                <img src=""images/causal/causal_series_4/causal_series_4_a.jpg"" style=""width: 300px; height: 300px;"" />
              </div>","null",""
"","","","","","html-keyboard-response","24","402697","0.0-24.0","79ECC524004A420F86F42034903D5811","d0b8eef4-b037-4d4e-bdce-79a10684b344","69eaecea-d702-4a95-85ee-7e48a56e64ce","","null","<div style=""display: flex; justify-content: center; align-items: center;"">
                <img src=""images/causal/causal_series_4/causal_series_4_b.jpg"" style=""width: 300px; height: 300px;"" />
              </div>","null",""
"","","","","","html-keyboard-response","25","405713","0.0-25.0","79ECC524004A420F86F42034903D5811","d0b8eef4-b037-4d4e-bdce-79a10684b344","69eaecea-d702-4a95-85ee-7e48a56e64ce","","null","<div style=""display: flex; justify-content: center; align-items: center;"">
                <img src=""images/causal/causal_series_4/causal_series_4_c.jpg"" style=""width: 300px; height: 300px;"" />
              </div>","null",""
"","","","","","html-button-response","26","407051","0.0-26.0","79ECC524004A420F86F42034903D5811","d0b8eef4-b037-4d4e-bdce-79a10684b344","69eaecea-d702-4a95-85ee-7e48a56e64ce","","1336","
    <div style=""display: flex; justify-content: center; align-items: center;"">
      <img src=""images/red_deck_2.png"" style=""width: 300px; height: 300px; margin-right: 10px;"" />
      <img src=""images/blue_deck_1.png"" style=""width: 300px; height: 300px;"" />
    </div>","0","0"
"","","","","","html-keyboard-response","27","410055","0.0-27.0-0.0-0.0","79ECC524004A420F86F42034903D5811","d0b8eef4-b037-4d4e-bdce-79a10684b344","69eaecea-d702-4a95-85ee-7e48a56e64ce","","null","<div style=""display: flex; justify-content: center; align-items: center;"">
                <img src=""images/causal/causal_series_4/causal_series_4_d.jpg"" style=""width: 300px; height: 300px;"" />
              </div>","null",""
"","","","","","html-keyboard-response","28","413055","0.0-28.0","79ECC524004A420F86F42034903D5811","d0b8eef4-b037-4d4e-bdce-79a10684b344","69eaecea-d702-4a95-85ee-7e48a56e64ce","","null","<div style=""display: flex; justify-content: center; align-items: center;"">
                <img src=""images/other/blank.jpg"" style=""width: 300px; height: 300px;"" />
              </div>","null",""
"","","","","","html-keyboard-response","29","416069","0.0-29.0","79ECC524004A420F86F42034903D5811","d0b8eef4-b037-4d4e-bdce-79a10684b344","69eaecea-d702-4a95-85ee-7e48a56e64ce","","null","<div style=""display: flex; justify-content: center; align-items: center;"">
                <img src=""images/causal/causal_series_16/causal_series_16_a.jpg"" style=""width: 300px; height: 300px;"" />
              </div>","null",""
"","","","","","html-keyboard-response","30","419079","0.0-30.0","79ECC524004A420F86F42034903D5811","d0b8eef4-b037-4d4e-bdce-79a10684b344","69eaecea-d702-4a95-85ee-7e48a56e64ce","","null","<div style=""display: flex; justify-content: center; align-items: center;"">
                <img src=""images/causal/causal_series_16/causal_series_16_b.jpg"" style=""width: 300px; height: 300px;"" />
              </div>","null",""
"","","","","","html-keyboard-response","31","422089","0.0-31.0","79ECC524004A420F86F42034903D5811","d0b8eef4-b037-4d4e-bdce-79a10684b344","69eaecea-d702-4a95-85ee-7e48a56e64ce","","null","<div style=""display: flex; justify-content: center; align-items: center;"">
                <img src=""images/causal/causal_series_16/causal_series_16_c.jpg"" style=""width: 300px; height: 300px;"" />
              </div>","null",""
"","","","","","html-button-response","32","423317","0.0-32.0","79ECC524004A420F86F42034903D5811","d0b8eef4-b037-4d4e-bdce-79a10684b344","69eaecea-d702-4a95-85ee-7e48a56e64ce","","1225","
    <div style=""display: flex; justify-content: center; align-items: center;"">
      <img src=""images/red_deck_2.png"" style=""width: 300px; height: 300px; margin-right: 10px;"" />
      <img src=""images/blue_deck_1.png"" style=""width: 300px; height: 300px;"" />
    </div>","0","0"
"","","","","","html-keyboard-response","33","426335","0.0-33.0-0.0-0.0","79ECC524004A420F86F42034903D5811","d0b8eef4-b037-4d4e-bdce-79a10684b344","69eaecea-d702-4a95-85ee-7e48a56e64ce","","null","<div style=""display: flex; justify-content: center; align-items: center;"">
                <img src=""images/causal/causal_series_16/causal_series_16_d.jpg"" style=""width: 300px; height: 300px;"" />
              </div>","null",""
"","","","","","html-keyboard-response","34","429336","0.0-34.0","79ECC524004A420F86F42034903D5811","d0b8eef4-b037-4d4e-bdce-79a10684b344","69eaecea-d702-4a95-85ee-7e48a56e64ce","","null","<div style=""display: flex; justify-content: center; align-items: center;"">
                <img src=""images/other/blank.jpg"" style=""width: 300px; height: 300px;"" />
              </div>","null",""
"","","","","","html-keyboard-response","35","432352","0.0-35.0","79ECC524004A420F86F42034903D5811","d0b8eef4-b037-4d4e-bdce-79a10684b344","69eaecea-d702-4a95-85ee-7e48a56e64ce","","null","<div style=""display: flex; justify-content: center; align-items: center;"">
                <img src=""images/causal/causal_series_15/causal_series_15_a.jpg"" style=""width: 300px; height: 300px;"" />
              </div>","null",""
"","","","","","html-keyboard-response","36","435368","0.0-36.0","79ECC524004A420F86F42034903D5811","d0b8eef4-b037-4d4e-bdce-79a10684b344","69eaecea-d702-4a95-85ee-7e48a56e64ce","","null","<div style=""display: flex; justify-content: center; align-items: center;"">
                <img src=""images/causal/causal_series_15/causal_series_15_b.jpg"" style=""width: 300px; height: 300px;"" />
              </div>","null",""
"","","","","","html-keyboard-response","37","438384","0.0-37.0","79ECC524004A420F86F42034903D5811","d0b8eef4-b037-4d4e-bdce-79a10684b344","69eaecea-d702-4a95-85ee-7e48a56e64ce","","null","<div style=""display: flex; justify-content: center; align-items: center;"">
                <img src=""images/causal/causal_series_15/causal_series_15_c.jpg"" style=""width: 300px; height: 300px;"" />
              </div>","null",""
"","","","","","html-button-response","38","439678","0.0-38.0","79ECC524004A420F86F42034903D5811","d0b8eef4-b037-4d4e-bdce-79a10684b344","69eaecea-d702-4a95-85ee-7e48a56e64ce","","1293","
    <div style=""display: flex; justify-content: center; align-items: center;"">
      <img src=""images/red_deck_2.png"" style=""width: 300px; height: 300px; margin-right: 10px;"" />
      <img src=""images/blue_deck_1.png"" style=""width: 300px; height: 300px;"" />
    </div>","0","0"
"","","","","","html-keyboard-response","39","442697","0.0-39.0-0.0-0.0","79ECC524004A420F86F42034903D5811","d0b8eef4-b037-4d4e-bdce-79a10684b344","69eaecea-d702-4a95-85ee-7e48a56e64ce","","null","<div style=""display: flex; justify-content: center; align-items: center;"">
                <img src=""images/causal/causal_series_15/causal_series_15_d.jpg"" style=""width: 300px; height: 300px;"" />
              </div>","null",""
"","","","","","html-keyboard-response","40","445710","0.0-40.0","79ECC524004A420F86F42034903D5811","d0b8eef4-b037-4d4e-bdce-79a10684b344","69eaecea-d702-4a95-85ee-7e48a56e64ce","","null","<div style=""display: flex; justify-content: center; align-items: center;"">
                <img src=""images/other/blank.jpg"" style=""width: 300px; height: 300px;"" />
              </div>","null",""
"","","","","","html-keyboard-response","41","448720","0.0-41.0","79ECC524004A420F86F42034903D5811","d0b8eef4-b037-4d4e-bdce-79a10684b344","69eaecea-d702-4a95-85ee-7e48a56e64ce","","null","<div style=""display: flex; justify-content: center; align-items: center;"">
                <img src=""images/causal/causal_series_5/causal_series_5_a.jpg"" style=""width: 300px; height: 300px;"" />
              </div>","null",""
"","","","","","html-keyboard-response","42","451727","0.0-42.0","79ECC524004A420F86F42034903D5811","d0b8eef4-b037-4d4e-bdce-79a10684b344","69eaecea-d702-4a95-85ee-7e48a56e64ce","","null","<div style=""display: flex; justify-content: center; align-items: center;"">
                <img src=""images/causal/causal_series_5/causal_series_5_b.jpg"" style=""width: 300px; height: 300px;"" />
              </div>","null",""
"","","","","","html-keyboard-response","43","454742","0.0-43.0","79ECC524004A420F86F42034903D5811","d0b8eef4-b037-4d4e-bdce-79a10684b344","69eaecea-d702-4a95-85ee-7e48a56e64ce","","null","<div style=""display: flex; justify-content: center; align-items: center;"">
                <img src=""images/causal/causal_series_5/causal_series_5_c.jpg"" style=""width: 300px; height: 300px;"" />
              </div>","null",""
"","","","","","html-button-response","44","455979","0.0-44.0","79ECC524004A420F86F42034903D5811","d0b8eef4-b037-4d4e-bdce-79a10684b344","69eaecea-d702-4a95-85ee-7e48a56e64ce","","1235","
    <div style=""display: flex; justify-content: center; align-items: center;"">
      <img src=""images/red_deck_2.png"" style=""width: 300px; height: 300px; margin-right: 10px;"" />
      <img src=""images/blue_deck_1.png"" style=""width: 300px; height: 300px;"" />
    </div>","0","0"
"","","","","","html-keyboard-response","45","458993","0.0-45.0-0.0-0.0","79ECC524004A420F86F42034903D5811","d0b8eef4-b037-4d4e-bdce-79a10684b344","69eaecea-d702-4a95-85ee-7e48a56e64ce","","null","<div style=""display: flex; justify-content: center; align-items: center;"">
                <img src=""images/causal/causal_series_5/causal_series_5_d.jpg"" style=""width: 300px; height: 300px;"" />
              </div>","null",""
"","","","","","html-keyboard-response","46","461996","0.0-46.0","79ECC524004A420F86F42034903D5811","d0b8eef4-b037-4d4e-bdce-79a10684b344","69eaecea-d702-4a95-85ee-7e48a56e64ce","","null","<div style=""display: flex; justify-content: center; align-items: center;"">
                <img src=""images/other/blank.jpg"" style=""width: 300px; height: 300px;"" />
              </div>","null",""
"","","","","","html-keyboard-response","47","465010","0.0-47.0","79ECC524004A420F86F42034903D5811","d0b8eef4-b037-4d4e-bdce-79a10684b344","69eaecea-d702-4a95-85ee-7e48a56e64ce","","null","<div style=""display: flex; justify-content: center; align-items: center;"">
                <img src=""images/causal/causal_series_10/causal_series_10_a.jpg"" style=""width: 300px; height: 300px;"" />
              </div>","null",""
"","","","","","html-keyboard-response","48","468015","0.0-48.0","79ECC524004A420F86F42034903D5811","d0b8eef4-b037-4d4e-bdce-79a10684b344","69eaecea-d702-4a95-85ee-7e48a56e64ce","","null","<div style=""display: flex; justify-content: center; align-items: center;"">
                <img src=""images/causal/causal_series_10/causal_series_10_b.jpg"" style=""width: 300px; height: 300px;"" />
              </div>","null",""
"","","","","","html-keyboard-response","49","471018","0.0-49.0","79ECC524004A420F86F42034903D5811","d0b8eef4-b037-4d4e-bdce-79a10684b344","69eaecea-d702-4a95-85ee-7e48a56e64ce","","null","<div style=""display: flex; justify-content: center; align-items: center;"">
                <img src=""images/causal/causal_series_10/causal_series_10_c.jpg"" style=""width: 300px; height: 300px;"" />
              </div>","null",""
"","","","","","html-button-response","50","472075","0.0-50.0","79ECC524004A420F86F42034903D5811","d0b8eef4-b037-4d4e-bdce-79a10684b344","69eaecea-d702-4a95-85ee-7e48a56e64ce","","1056","
    <div style=""display: flex; justify-content: center; align-items: center;"">
      <img src=""images/red_deck_2.png"" style=""width: 300px; height: 300px; margin-right: 10px;"" />
      <img src=""images/blue_deck_1.png"" style=""width: 300px; height: 300px;"" />
    </div>","0","0"
"","","","","","html-keyboard-response","51","475089","0.0-51.0-0.0-0.0","79ECC524004A420F86F42034903D5811","d0b8eef4-b037-4d4e-bdce-79a10684b344","69eaecea-d702-4a95-85ee-7e48a56e64ce","","null","<div style=""display: flex; justify-content: center; align-items: center;"">
                <img src=""images/causal/causal_series_10/causal_series_10_d.jpg"" style=""width: 300px; height: 300px;"" />
              </div>","null",""
"","","","","","html-keyboard-response","52","478095","0.0-52.0","79ECC524004A420F86F42034903D5811","d0b8eef4-b037-4d4e-bdce-79a10684b344","69eaecea-d702-4a95-85ee-7e48a56e64ce","","null","<div style=""display: flex; justify-content: center; align-items: center;"">
                <img src=""images/other/blank.jpg"" style=""width: 300px; height: 300px;"" />
              </div>","null",""
"","","","","","html-keyboard-response","53","481097","0.0-53.0","79ECC524004A420F86F42034903D5811","d0b8eef4-b037-4d4e-bdce-79a10684b344","69eaecea-d702-4a95-85ee-7e48a56e64ce","","null","<div style=""display: flex; justify-content: center; align-items: center;"">
                <img src=""images/causal/causal_series_6/causal_series_6_a.jpg"" style=""width: 300px; height: 300px;"" />
              </div>","null",""
"","","","","","html-keyboard-response","54","484099","0.0-54.0","79ECC524004A420F86F42034903D5811","d0b8eef4-b037-4d4e-bdce-79a10684b344","69eaecea-d702-4a95-85ee-7e48a56e64ce","","null","<div style=""display: flex; justify-content: center; align-items: center;"">
                <img src=""images/causal/causal_series_6/causal_series_6_b.jpg"" style=""width: 300px; height: 300px;"" />
              </div>","null",""
"","","","","","html-keyboard-response","55","487115","0.0-55.0","79ECC524004A420F86F42034903D5811","d0b8eef4-b037-4d4e-bdce-79a10684b344","69eaecea-d702-4a95-85ee-7e48a56e64ce","","null","<div style=""display: flex; justify-content: center; align-items: center;"">
                <img src=""images/causal/causal_series_6/causal_series_6_c.jpg"" style=""width: 300px; height: 300px;"" />
              </div>","null",""
"","","","","","html-button-response","56","488191","0.0-56.0","79ECC524004A420F86F42034903D5811","d0b8eef4-b037-4d4e-bdce-79a10684b344","69eaecea-d702-4a95-85ee-7e48a56e64ce","","1073","
    <div style=""display: flex; justify-content: center; align-items: center;"">
      <img src=""images/red_deck_2.png"" style=""width: 300px; height: 300px; margin-right: 10px;"" />
      <img src=""images/blue_deck_1.png"" style=""width: 300px; height: 300px;"" />
    </div>","0","0"
"","","","","","html-keyboard-response","57","491201","0.0-57.0-0.0-0.0","79ECC524004A420F86F42034903D5811","d0b8eef4-b037-4d4e-bdce-79a10684b344","69eaecea-d702-4a95-85ee-7e48a56e64ce","","null","<div style=""display: flex; justify-content: center; align-items: center;"">
                <img src=""images/causal/causal_series_6/causal_series_6_d.jpg"" style=""width: 300px; height: 300px;"" />
              </div>","null",""
"","","","","","html-keyboard-response","58","494209","0.0-58.0","79ECC524004A420F86F42034903D5811","d0b8eef4-b037-4d4e-bdce-79a10684b344","69eaecea-d702-4a95-85ee-7e48a56e64ce","","null","<div style=""display: flex; justify-content: center; align-items: center;"">
                <img src=""images/other/blank.jpg"" style=""width: 300px; height: 300px;"" />
              </div>","null",""
"","","","","","html-keyboard-response","59","497224","0.0-59.0","79ECC524004A420F86F42034903D5811","d0b8eef4-b037-4d4e-bdce-79a10684b344","69eaecea-d702-4a95-85ee-7e48a56e64ce","","null","<div style=""display: flex; justify-content: center; align-items: center;"">
                <img src=""images/causal/causal_series_18/causal_series_18_a.jpg"" style=""width: 300px; height: 300px;"" />
              </div>","null",""
"","","","","","html-keyboard-response","60","500232","0.0-60.0","79ECC524004A420F86F42034903D5811","d0b8eef4-b037-4d4e-bdce-79a10684b344","69eaecea-d702-4a95-85ee-7e48a56e64ce","","null","<div style=""display: flex; justify-content: center; align-items: center;"">
                <img src=""images/causal/causal_series_18/causal_series_18_b.jpg"" style=""width: 300px; height: 300px;"" />
              </div>","null",""
"","","","","","html-keyboard-response","61","503232","0.0-61.0","79ECC524004A420F86F42034903D5811","d0b8eef4-b037-4d4e-bdce-79a10684b344","69eaecea-d702-4a95-85ee-7e48a56e64ce","","null","<div style=""display: flex; justify-content: center; align-items: center;"">
                <img src=""images/causal/causal_series_18/causal_series_18_c.jpg"" style=""width: 300px; height: 300px;"" />
              </div>","null",""
"","","","","","html-button-response","62","504692","0.0-62.0","79ECC524004A420F86F42034903D5811","d0b8eef4-b037-4d4e-bdce-79a10684b344","69eaecea-d702-4a95-85ee-7e48a56e64ce","","1457","
    <div style=""display: flex; justify-content: center; align-items: center;"">
      <img src=""images/red_deck_2.png"" style=""width: 300px; height: 300px; margin-right: 10px;"" />
      <img src=""images/blue_deck_1.png"" style=""width: 300px; height: 300px;"" />
    </div>","0","0"
"","","","","","html-keyboard-response","63","507703","0.0-63.0-0.0-0.0","79ECC524004A420F86F42034903D5811","d0b8eef4-b037-4d4e-bdce-79a10684b344","69eaecea-d702-4a95-85ee-7e48a56e64ce","","null","<div style=""display: flex; justify-content: center; align-items: center;"">
                <img src=""images/causal/causal_series_18/causal_series_18_d.jpg"" style=""width: 300px; height: 300px;"" />
              </div>","null",""
"","","","","","html-keyboard-response","64","510709","0.0-64.0","79ECC524004A420F86F42034903D5811","d0b8eef4-b037-4d4e-bdce-79a10684b344","69eaecea-d702-4a95-85ee-7e48a56e64ce","","null","<div style=""display: flex; justify-content: center; align-items: center;"">
                <img src=""images/other/blank.jpg"" style=""width: 300px; height: 300px;"" />
              </div>","null",""
"","","","","","html-keyboard-response","65","513725","0.0-65.0","79ECC524004A420F86F42034903D5811","d0b8eef4-b037-4d4e-bdce-79a10684b344","69eaecea-d702-4a95-85ee-7e48a56e64ce","","null","<div style=""display: flex; justify-content: center; align-items: center;"">
                <img src=""images/causal/causal_series_14/causal_series_14_a.jpg"" style=""width: 300px; height: 300px;"" />
              </div>","null",""
"","","","","","html-keyboard-response","66","516771","0.0-66.0","79ECC524004A420F86F42034903D5811","d0b8eef4-b037-4d4e-bdce-79a10684b344","69eaecea-d702-4a95-85ee-7e48a56e64ce","","null","<div style=""display: flex; justify-content: center; align-items: center;"">
                <img src=""images/causal/causal_series_14/causal_series_14_b.jpg"" style=""width: 300px; height: 300px;"" />
              </div>","null",""
"","","","","","html-keyboard-response","67","519772","0.0-67.0","79ECC524004A420F86F42034903D5811","d0b8eef4-b037-4d4e-bdce-79a10684b344","69eaecea-d702-4a95-85ee-7e48a56e64ce","","null","<div style=""display: flex; justify-content: center; align-items: center;"">
                <img src=""images/causal/causal_series_14/causal_series_14_c.jpg"" style=""width: 300px; height: 300px;"" />
              </div>","null",""
"","","","","","html-button-response","68","520658","0.0-68.0","79ECC524004A420F86F42034903D5811","d0b8eef4-b037-4d4e-bdce-79a10684b344","69eaecea-d702-4a95-85ee-7e48a56e64ce","","884","
    <div style=""display: flex; justify-content: center; align-items: center;"">
      <img src=""images/red_deck_2.png"" style=""width: 300px; height: 300px; margin-right: 10px;"" />
      <img src=""images/blue_deck_1.png"" style=""width: 300px; height: 300px;"" />
    </div>","0","0"
"","","","","","html-keyboard-response","69","523676","0.0-69.0-0.0-0.0","79ECC524004A420F86F42034903D5811","d0b8eef4-b037-4d4e-bdce-79a10684b344","69eaecea-d702-4a95-85ee-7e48a56e64ce","","null","<div style=""display: flex; justify-content: center; align-items: center;"">
                <img src=""images/causal/causal_series_14/causal_series_14_d.jpg"" style=""width: 300px; height: 300px;"" />
              </div>","null",""
"","","","","","html-keyboard-response","70","526677","0.0-70.0","79ECC524004A420F86F42034903D5811","d0b8eef4-b037-4d4e-bdce-79a10684b344","69eaecea-d702-4a95-85ee-7e48a56e64ce","","null","<div style=""display: flex; justify-content: center; align-items: center;"">
                <img src=""images/other/blank.jpg"" style=""width: 300px; height: 300px;"" />
              </div>","null",""
"","","","","","html-keyboard-response","71","529678","0.0-71.0","79ECC524004A420F86F42034903D5811","d0b8eef4-b037-4d4e-bdce-79a10684b344","69eaecea-d702-4a95-85ee-7e48a56e64ce","","null","<div style=""display: flex; justify-content: center; align-items: center;"">
                <img src=""images/causal/causal_series_2/causal_series_2_a.jpg"" style=""width: 300px; height: 300px;"" />
              </div>","null",""
"","","","","","html-keyboard-response","72","532707","0.0-72.0","79ECC524004A420F86F42034903D5811","d0b8eef4-b037-4d4e-bdce-79a10684b344","69eaecea-d702-4a95-85ee-7e48a56e64ce","","null","<div style=""display: flex; justify-content: center; align-items: center;"">
                <img src=""images/causal/causal_series_2/causal_series_2_b.jpg"" style=""width: 300px; height: 300px;"" />
              </div>","null",""
"","","","","","html-keyboard-response","73","535720","0.0-73.0","79ECC524004A420F86F42034903D5811","d0b8eef4-b037-4d4e-bdce-79a10684b344","69eaecea-d702-4a95-85ee-7e48a56e64ce","","null","<div style=""display: flex; justify-content: center; align-items: center;"">
                <img src=""images/causal/causal_series_2/causal_series_2_c.jpg"" style=""width: 300px; height: 300px;"" />
              </div>","null",""
"","","","","","html-button-response","74","536607","0.0-74.0","79ECC524004A420F86F42034903D5811","d0b8eef4-b037-4d4e-bdce-79a10684b344","69eaecea-d702-4a95-85ee-7e48a56e64ce","","885","
    <div style=""display: flex; justify-content: center; align-items: center;"">
      <img src=""images/red_deck_2.png"" style=""width: 300px; height: 300px; margin-right: 10px;"" />
      <img src=""images/blue_deck_1.png"" style=""width: 300px; height: 300px;"" />
    </div>","0","0"
"","","","","","html-keyboard-response","75","539613","0.0-75.0-0.0-0.0","79ECC524004A420F86F42034903D5811","d0b8eef4-b037-4d4e-bdce-79a10684b344","69eaecea-d702-4a95-85ee-7e48a56e64ce","","null","<div style=""display: flex; justify-content: center; align-items: center;"">
                <img src=""images/causal/causal_series_2/causal_series_2_d.jpg"" style=""width: 300px; height: 300px;"" />
              </div>","null",""
"","","","","","html-keyboard-response","76","542626","0.0-76.0","79ECC524004A420F86F42034903D5811","d0b8eef4-b037-4d4e-bdce-79a10684b344","69eaecea-d702-4a95-85ee-7e48a56e64ce","","null","<div style=""display: flex; justify-content: center; align-items: center;"">
                <img src=""images/other/blank.jpg"" style=""width: 300px; height: 300px;"" />
              </div>","null",""
"","","","","","html-keyboard-response","77","545639","0.0-77.0","79ECC524004A420F86F42034903D5811","d0b8eef4-b037-4d4e-bdce-79a10684b344","69eaecea-d702-4a95-85ee-7e48a56e64ce","","null","<div style=""display: flex; justify-content: center; align-items: center;"">
                <img src=""images/causal/causal_series_9/causal_series_9_a.jpg"" style=""width: 300px; height: 300px;"" />
              </div>","null",""
"","","","","","html-keyboard-response","78","548645","0.0-78.0","79ECC524004A420F86F42034903D5811","d0b8eef4-b037-4d4e-bdce-79a10684b344","69eaecea-d702-4a95-85ee-7e48a56e64ce","","null","<div style=""display: flex; justify-content: center; align-items: center;"">
                <img src=""images/causal/causal_series_9/causal_series_9_b.jpg"" style=""width: 300px; height: 300px;"" />
              </div>","null",""
"","","","","","html-keyboard-response","79","551656","0.0-79.0","79ECC524004A420F86F42034903D5811","d0b8eef4-b037-4d4e-bdce-79a10684b344","69eaecea-d702-4a95-85ee-7e48a56e64ce","","null","<div style=""display: flex; justify-content: center; align-items: center;"">
                <img src=""images/causal/causal_series_9/causal_series_9_c.jpg"" style=""width: 300px; height: 300px;"" />
              </div>","null",""
"","","","","","html-button-response","80","552560","0.0-80.0","79ECC524004A420F86F42034903D5811","d0b8eef4-b037-4d4e-bdce-79a10684b344","69eaecea-d702-4a95-85ee-7e48a56e64ce","","901","
    <div style=""display: flex; justify-content: center; align-items: center;"">
      <img src=""images/red_deck_2.png"" style=""width: 300px; height: 300px; margin-right: 10px;"" />
      <img src=""images/blue_deck_1.png"" style=""width: 300px; height: 300px;"" />
    </div>","0","0"
"","","","","","html-keyboard-response","81","555566","0.0-81.0-0.0-0.0","79ECC524004A420F86F42034903D5811","d0b8eef4-b037-4d4e-bdce-79a10684b344","69eaecea-d702-4a95-85ee-7e48a56e64ce","","null","<div style=""display: flex; justify-content: center; align-items: center;"">
                <img src=""images/causal/causal_series_9/causal_series_9_d.jpg"" style=""width: 300px; height: 300px;"" />
              </div>","null",""
"","","","","","html-keyboard-response","82","558568","0.0-82.0","79ECC524004A420F86F42034903D5811","d0b8eef4-b037-4d4e-bdce-79a10684b344","69eaecea-d702-4a95-85ee-7e48a56e64ce","","null","<div style=""display: flex; justify-content: center; align-items: center;"">
                <img src=""images/other/blank.jpg"" style=""width: 300px; height: 300px;"" />
              </div>","null",""
"","","","","","html-keyboard-response","83","561580","0.0-83.0","79ECC524004A420F86F42034903D5811","d0b8eef4-b037-4d4e-bdce-79a10684b344","69eaecea-d702-4a95-85ee-7e48a56e64ce","","null","<div style=""display: flex; justify-content: center; align-items: center;"">
                <img src=""images/causal/causal_series_17/causal_series_17_a.jpg"" style=""width: 300px; height: 300px;"" />
              </div>","null",""
"","","","","","html-keyboard-response","84","564583","0.0-84.0","79ECC524004A420F86F42034903D5811","d0b8eef4-b037-4d4e-bdce-79a10684b344","69eaecea-d702-4a95-85ee-7e48a56e64ce","","null","<div style=""display: flex; justify-content: center; align-items: center;"">
                <img src=""images/causal/causal_series_17/causal_series_17_b.jpg"" style=""width: 300px; height: 300px;"" />
              </div>","null",""
"","","","","","html-keyboard-response","85","567586","0.0-85.0","79ECC524004A420F86F42034903D5811","d0b8eef4-b037-4d4e-bdce-79a10684b344","69eaecea-d702-4a95-85ee-7e48a56e64ce","","null","<div style=""display: flex; justify-content: center; align-items: center;"">
                <img src=""images/causal/causal_series_17/causal_series_17_c.jpg"" style=""width: 300px; height: 300px;"" />
              </div>","null",""
"","","","","","html-button-response","86","568903","0.0-86.0","79ECC524004A420F86F42034903D5811","d0b8eef4-b037-4d4e-bdce-79a10684b344","69eaecea-d702-4a95-85ee-7e48a56e64ce","","1315","
    <div style=""display: flex; justify-content: center; align-items: center;"">
      <img src=""images/red_deck_2.png"" style=""width: 300px; height: 300px; margin-right: 10px;"" />
      <img src=""images/blue_deck_1.png"" style=""width: 300px; height: 300px;"" />
    </div>","0","0"
"","","","","","html-keyboard-response","87","571914","0.0-87.0-0.0-0.0","79ECC524004A420F86F42034903D5811","d0b8eef4-b037-4d4e-bdce-79a10684b344","69eaecea-d702-4a95-85ee-7e48a56e64ce","","null","<div style=""display: flex; justify-content: center; align-items: center;"">
                <img src=""images/causal/causal_series_17/causal_series_17_d.jpg"" style=""width: 300px; height: 300px;"" />
              </div>","null",""
"","","","","","html-keyboard-response","88","574922","0.0-88.0","79ECC524004A420F86F42034903D5811","d0b8eef4-b037-4d4e-bdce-79a10684b344","69eaecea-d702-4a95-85ee-7e48a56e64ce","","null","<div style=""display: flex; justify-content: center; align-items: center;"">
                <img src=""images/other/blank.jpg"" style=""width: 300px; height: 300px;"" />
              </div>","null",""
"","","","","","html-keyboard-response","89","577934","0.0-89.0","79ECC524004A420F86F42034903D5811","d0b8eef4-b037-4d4e-bdce-79a10684b344","69eaecea-d702-4a95-85ee-7e48a56e64ce","","null","<div style=""display: flex; justify-content: center; align-items: center;"">
                <img src=""images/causal/causal_series_12/causal_series_12_a.jpg"" style=""width: 300px; height: 300px;"" />
              </div>","null",""
"","","","","","html-keyboard-response","90","580936","0.0-90.0","79ECC524004A420F86F42034903D5811","d0b8eef4-b037-4d4e-bdce-79a10684b344","69eaecea-d702-4a95-85ee-7e48a56e64ce","","null","<div style=""display: flex; justify-content: center; align-items: center;"">
                <img src=""images/causal/causal_series_12/causal_series_12_b.jpg"" style=""width: 300px; height: 300px;"" />
              </div>","null",""
"","","","","","html-keyboard-response","91","583938","0.0-91.0","79ECC524004A420F86F42034903D5811","d0b8eef4-b037-4d4e-bdce-79a10684b344","69eaecea-d702-4a95-85ee-7e48a56e64ce","","null","<div style=""display: flex; justify-content: center; align-items: center;"">
                <img src=""images/causal/causal_series_12/causal_series_12_c.jpg"" style=""width: 300px; height: 300px;"" />
              </div>","null",""
"","","","","","html-button-response","92","585198","0.0-92.0","79ECC524004A420F86F42034903D5811","d0b8eef4-b037-4d4e-bdce-79a10684b344","69eaecea-d702-4a95-85ee-7e48a56e64ce","","1258","
    <div style=""display: flex; justify-content: center; align-items: center;"">
      <img src=""images/red_deck_2.png"" style=""width: 300px; height: 300px; margin-right: 10px;"" />
      <img src=""images/blue_deck_1.png"" style=""width: 300px; height: 300px;"" />
    </div>","0","0"
"","","","","","html-keyboard-response","93","588206","0.0-93.0-0.0-0.0","79ECC524004A420F86F42034903D5811","d0b8eef4-b037-4d4e-bdce-79a10684b344","69eaecea-d702-4a95-85ee-7e48a56e64ce","","null","<div style=""display: flex; justify-content: center; align-items: center;"">
                <img src=""images/causal/causal_series_12/causal_series_12_d.jpg"" style=""width: 300px; height: 300px;"" />
              </div>","null",""
"","","","","","html-keyboard-response","94","591216","0.0-94.0","79ECC524004A420F86F42034903D5811","d0b8eef4-b037-4d4e-bdce-79a10684b344","69eaecea-d702-4a95-85ee-7e48a56e64ce","","null","<div style=""display: flex; justify-content: center; align-items: center;"">
                <img src=""images/other/blank.jpg"" style=""width: 300px; height: 300px;"" />
              </div>","null",""
"","","","","","html-keyboard-response","95","594217","0.0-95.0","79ECC524004A420F86F42034903D5811","d0b8eef4-b037-4d4e-bdce-79a10684b344","69eaecea-d702-4a95-85ee-7e48a56e64ce","","null","<div style=""display: flex; justify-content: center; align-items: center;"">
                <img src=""images/causal/causal_series_11/causal_series_11_a.jpg"" style=""width: 300px; height: 300px;"" />
              </div>","null",""
"","","","","","html-keyboard-response","96","597234","0.0-96.0","79ECC524004A420F86F42034903D5811","d0b8eef4-b037-4d4e-bdce-79a10684b344","69eaecea-d702-4a95-85ee-7e48a56e64ce","","null","<div style=""display: flex; justify-content: center; align-items: center;"">
                <img src=""images/causal/causal_series_11/causal_series_11_b.jpg"" style=""width: 300px; height: 300px;"" />
              </div>","null",""
"","","","","","html-keyboard-response","97","600237","0.0-97.0","79ECC524004A420F86F42034903D5811","d0b8eef4-b037-4d4e-bdce-79a10684b344","69eaecea-d702-4a95-85ee-7e48a56e64ce","","null","<div style=""display: flex; justify-content: center; align-items: center;"">
                <img src=""images/causal/causal_series_11/causal_series_11_c.jpg"" style=""width: 300px; height: 300px;"" />
              </div>","null",""
"","","","","","html-button-response","98","601138","0.0-98.0","79ECC524004A420F86F42034903D5811","d0b8eef4-b037-4d4e-bdce-79a10684b344","69eaecea-d702-4a95-85ee-7e48a56e64ce","","899","
    <div style=""display: flex; justify-content: center; align-items: center;"">
      <img src=""images/red_deck_2.png"" style=""width: 300px; height: 300px; margin-right: 10px;"" />
      <img src=""images/blue_deck_1.png"" style=""width: 300px; height: 300px;"" />
    </div>","0","0"
"","","","","","html-keyboard-response","99","604155","0.0-99.0-0.0-0.0","79ECC524004A420F86F42034903D5811","d0b8eef4-b037-4d4e-bdce-79a10684b344","69eaecea-d702-4a95-85ee-7e48a56e64ce","","null","<div style=""display: flex; justify-content: center; align-items: center;"">
                <img src=""images/causal/causal_series_11/causal_series_11_d.jpg"" style=""width: 300px; height: 300px;"" />
              </div>","null",""
"","","","","","html-keyboard-response","100","607172","0.0-100.0","79ECC524004A420F86F42034903D5811","d0b8eef4-b037-4d4e-bdce-79a10684b344","69eaecea-d702-4a95-85ee-7e48a56e64ce","","null","<div style=""display: flex; justify-content: center; align-items: center;"">
                <img src=""images/other/blank.jpg"" style=""width: 300px; height: 300px;"" />
              </div>","null",""
"","","","","","html-keyboard-response","101","610176","0.0-101.0","79ECC524004A420F86F42034903D5811","d0b8eef4-b037-4d4e-bdce-79a10684b344","69eaecea-d702-4a95-85ee-7e48a56e64ce","","null","<div style=""display: flex; justify-content: center; align-items: center;"">
                <img src=""images/causal/causal_series_1/causal_series_1_a.jpg"" style=""width: 300px; height: 300px;"" />
              </div>","null",""
"","","","","","html-keyboard-response","102","613184","0.0-102.0","79ECC524004A420F86F42034903D5811","d0b8eef4-b037-4d4e-bdce-79a10684b344","69eaecea-d702-4a95-85ee-7e48a56e64ce","","null","<div style=""display: flex; justify-content: center; align-items: center;"">
                <img src=""images/causal/causal_series_1/causal_series_1_b.jpg"" style=""width: 300px; height: 300px;"" />
              </div>","null",""
"","","","","","html-keyboard-response","103","616187","0.0-103.0","79ECC524004A420F86F42034903D5811","d0b8eef4-b037-4d4e-bdce-79a10684b344","69eaecea-d702-4a95-85ee-7e48a56e64ce","","null","<div style=""display: flex; justify-content: center; align-items: center;"">
                <img src=""images/causal/causal_series_1/causal_series_1_c.jpg"" style=""width: 300px; height: 300px;"" />
              </div>","null",""
"","","","","","html-button-response","104","617302","0.0-104.0","79ECC524004A420F86F42034903D5811","d0b8eef4-b037-4d4e-bdce-79a10684b344","69eaecea-d702-4a95-85ee-7e48a56e64ce","","1112","
    <div style=""display: flex; justify-content: center; align-items: center;"">
      <img src=""images/red_deck_2.png"" style=""width: 300px; height: 300px; margin-right: 10px;"" />
      <img src=""images/blue_deck_1.png"" style=""width: 300px; height: 300px;"" />
    </div>","0","0"
"","","","","","html-keyboard-response","105","620314","0.0-105.0-0.0-0.0","79ECC524004A420F86F42034903D5811","d0b8eef4-b037-4d4e-bdce-79a10684b344","69eaecea-d702-4a95-85ee-7e48a56e64ce","","null","<div style=""display: flex; justify-content: center; align-items: center;"">
                <img src=""images/causal/causal_series_1/causal_series_1_d.jpg"" style=""width: 300px; height: 300px;"" />
              </div>","null",""
"","","","","","html-keyboard-response","106","623316","0.0-106.0","79ECC524004A420F86F42034903D5811","d0b8eef4-b037-4d4e-bdce-79a10684b344","69eaecea-d702-4a95-85ee-7e48a56e64ce","","null","<div style=""display: flex; justify-content: center; align-items: center;"">
                <img src=""images/other/blank.jpg"" style=""width: 300px; height: 300px;"" />
              </div>","null",""
"","","","","","html-keyboard-response","107","626322","0.0-107.0","79ECC524004A420F86F42034903D5811","d0b8eef4-b037-4d4e-bdce-79a10684b344","69eaecea-d702-4a95-85ee-7e48a56e64ce","","null","<div style=""display: flex; justify-content: center; align-items: center;"">
                <img src=""images/causal/causal_series_8/causal_series_8_a.jpg"" style=""width: 300px; height: 300px;"" />
              </div>","null",""
"","","","","","html-keyboard-response","108","629327","0.0-108.0","79ECC524004A420F86F42034903D5811","d0b8eef4-b037-4d4e-bdce-79a10684b344","69eaecea-d702-4a95-85ee-7e48a56e64ce","","null","<div style=""display: flex; justify-content: center; align-items: center;"">
                <img src=""images/causal/causal_series_8/causal_series_8_b.jpg"" style=""width: 300px; height: 300px;"" />
              </div>","null",""
"","","","","","html-keyboard-response","109","632338","0.0-109.0","79ECC524004A420F86F42034903D5811","d0b8eef4-b037-4d4e-bdce-79a10684b344","69eaecea-d702-4a95-85ee-7e48a56e64ce","","null","<div style=""display: flex; justify-content: center; align-items: center;"">
                <img src=""images/causal/causal_series_8/causal_series_8_c.jpg"" style=""width: 300px; height: 300px;"" />
              </div>","null",""
"","","","","","html-button-response","110","633377","0.0-110.0","79ECC524004A420F86F42034903D5811","d0b8eef4-b037-4d4e-bdce-79a10684b344","69eaecea-d702-4a95-85ee-7e48a56e64ce","","1037","
    <div style=""display: flex; justify-content: center; align-items: center;"">
      <img src=""images/red_deck_2.png"" style=""width: 300px; height: 300px; margin-right: 10px;"" />
      <img src=""images/blue_deck_1.png"" style=""width: 300px; height: 300px;"" />
    </div>","0","0"
"","","","","","html-keyboard-response","111","636390","0.0-111.0-0.0-0.0","79ECC524004A420F86F42034903D5811","d0b8eef4-b037-4d4e-bdce-79a10684b344","69eaecea-d702-4a95-85ee-7e48a56e64ce","","null","<div style=""display: flex; justify-content: center; align-items: center;"">
                <img src=""images/causal/causal_series_8/causal_series_8_d.jpg"" style=""width: 300px; height: 300px;"" />
              </div>","null",""
"","","","","","html-keyboard-response","112","639392","0.0-112.0","79ECC524004A420F86F42034903D5811","d0b8eef4-b037-4d4e-bdce-79a10684b344","69eaecea-d702-4a95-85ee-7e48a56e64ce","","null","<div style=""display: flex; justify-content: center; align-items: center;"">
                <img src=""images/other/blank.jpg"" style=""width: 300px; height: 300px;"" />
              </div>","null",""
"","","","","","survey-text","113","749634","0.0-113.0","79ECC524004A420F86F42034903D5811","d0b8eef4-b037-4d4e-bdce-79a10684b344","69eaecea-d702-4a95-85ee-7e48a56e64ce","","110229","","{""Q0"":""One card encapsulates the concluding section of the story, while another card presents a randomly selected segment from elsewhere in the narrative.""}",""
"","","","","","survey-text","114","845532","0.0-114.0","79ECC524004A420F86F42034903D5811","d0b8eef4-b037-4d4e-bdce-79a10684b344","69eaecea-d702-4a95-85ee-7e48a56e64ce","","95884","","{""Q0"":""A bear and two rat-like creatures are taking selfies with a selfie stick—this is more entertaining than any other stories.""}",""
"","","","","","html-button-response","115","851245","0.0-115.0","79ECC524004A420F86F42034903D5811","d0b8eef4-b037-4d4e-bdce-79a10684b344","69eaecea-d702-4a95-85ee-7e48a56e64ce","","5708","Which color deck does the fourth image continue the story from the series?","1",""
"","","","","","html-button-response","116","856114","0.0-116.0","79ECC524004A420F86F42034903D5811","d0b8eef4-b037-4d4e-bdce-79a10684b344","69eaecea-d702-4a95-85ee-7e48a56e64ce","","4866","Which color deck does the fourth image not follow the story from the series?","0",""
"","","","","","survey-text","117","868200","0.0-117.0","79ECC524004A420F86F42034903D5811","d0b8eef4-b037-4d4e-bdce-79a10684b344","69eaecea-d702-4a95-85ee-7e48a56e64ce","","12064","","{""Q0"":""Female"",""Q1"":""31""}",""
"","","","","","instructions","118","889637","0.0-118.0","79ECC524004A420F86F42034903D5811","d0b8eef4-b037-4d4e-bdce-79a10684b344","69eaecea-d702-4a95-85ee-7e48a56e64ce","[{""page_index"":0,""viewing_time"":21434}]","21435","","",""
