"success","timeout","failed_images","failed_audio","failed_video","trial_type","trial_index","time_elapsed","internal_node_id","view_history","rt","stimulus","response","choice","trial_name"
"true","false","[]","[]","[]","preload","0","1828","0.0-0.0","","","","","",""
"","","","","","instructions","1","9470","0.0-1.0","[{""page_index"":0,""viewing_time"":7641}]","7641","","","",""
"","","","","","instructions","2","16838","0.0-2.0","[{""page_index"":0,""viewing_time"":7366}]","7367","","","",""
"true","","","","","fullscreen","3","20860","0.0-3.0","","3017","","","",""
"","","","","","instructions","4","37012","0.0-4.0","[{""page_index"":0,""viewing_time"":16151}]","16151","","","",""
"","","","","","html-button-response","5","41853","0.0-5.0","","4838","
    <div style=""display: flex; justify-content: center; align-items: center; flex-direction: column;"">
      <div style=""display: flex; justify-content: center; align-items: center;"">
        <img src=""images/instructions_2/1.png"" style=""width: 300px; height: 300px; margin-right: 10px;"" />
        <img src=""images/instructions_2/2.png"" style=""width: 300px; height: 300px;"" />
      </div>
      <p>Does event 1 take place before event 2?</p>
    </div>","0","0",""
"","","","","","html-button-response","6","44359","0.0-6.0","","2504","
    <div style=""display: flex; justify-content: center; align-items: center; flex-direction: column;"">
      <div style=""display: flex; justify-content: center; align-items: center;"">
        <img src=""images/instructions_2/3.png"" style=""width: 300px; height: 300px; margin-right: 10px;"" />
        <img src=""images/instructions_2/4.png"" style=""width: 300px; height: 300px;"" />
      </div>
      <p>YES, event 1 does take place before event 2.</p>
    </div>","0","0",""
"","","","","","html-button-response","7","48567","0.0-7.0","","4206","
    <div style=""display: flex; justify-content: center; align-items: center; flex-direction: column;"">
      <div style=""display: flex; justify-content: center; align-items: center;"">
        <img src=""images/instructions_2/5.png"" style=""width: 300px; height: 300px; margin-right: 10px;"" />
        <img src=""images/instructions_2/6.png"" style=""width: 300px; height: 300px;"" />
      </div>
      <p>Does event 1 take place before event 2?</p>
    </div>","1","1",""
"","","","","","html-button-response","8","52644","0.0-8.0","","4074","
    <div style=""display: flex; justify-content: center; align-items: center; flex-direction: column;"">
      <div style=""display: flex; justify-content: center; align-items: center;"">
        <img src=""images/instructions_2/7.png"" style=""width: 300px; height: 300px; margin-right: 10px;"" />
        <img src=""images/instructions_2/8.png"" style=""width: 300px; height: 300px;"" />
      </div>
      <p>NO, event 1 does not take place before event 2.</p>
    </div>","0","0",""
"","","","","","instructions","9","54364","0.0-9.0","[{""page_index"":0,""viewing_time"":1719}]","1719","","","",""
"","","","","","html-button-response","10","60000","0.0-10.0","","5635","
    <div style=""display: flex; justify-content: center; align-items: center; flex-direction: column;"">
      <div style=""display: flex; justify-content: center; align-items: center;"">
        <img src=""images/semantic/semantic_5/1.png"" style=""width: 300px; height: 300px; margin-right: 10px;"" />
        <img src=""images/semantic/semantic_5/2.png"" style=""width: 300px; height: 300px;"" />
      </div>
      <p>Does event 1 take place before event 2?</p>
    </div>","0","0","semantic_5"
"","","","","","html-button-response","11","64358","0.0-11.0","","4356","
    <div style=""display: flex; justify-content: center; align-items: center; flex-direction: column;"">
      <div style=""display: flex; justify-content: center; align-items: center;"">
        <img src=""images/schematic/schematic_8/1.png"" style=""width: 300px; height: 300px; margin-right: 10px;"" />
        <img src=""images/schematic/schematic_8/2.png"" style=""width: 300px; height: 300px;"" />
      </div>
      <p>Does event 1 take place before event 2?</p>
    </div>","0","0","schematic_8"
"","","","","","html-button-response","12","69301","0.0-12.0","","4941","
    <div style=""display: flex; justify-content: center; align-items: center; flex-direction: column;"">
      <div style=""display: flex; justify-content: center; align-items: center;"">
        <img src=""images/causal/causal_8/1.png"" style=""width: 300px; height: 300px; margin-right: 10px;"" />
        <img src=""images/causal/causal_8/2.png"" style=""width: 300px; height: 300px;"" />
      </div>
      <p>Does event 1 take place before event 2?</p>
    </div>","0","0","causal_8"
"","","","","","html-button-response","13","72875","0.0-13.0","","3572","
    <div style=""display: flex; justify-content: center; align-items: center; flex-direction: column;"">
      <div style=""display: flex; justify-content: center; align-items: center;"">
        <img src=""images/schematic/schematic_5/1.png"" style=""width: 300px; height: 300px; margin-right: 10px;"" />
        <img src=""images/schematic/schematic_5/2.png"" style=""width: 300px; height: 300px;"" />
      </div>
      <p>Does event 1 take place before event 2?</p>
    </div>","0","0","schematic_5"
"","","","","","html-button-response","14","77254","0.0-14.0","","4377","
    <div style=""display: flex; justify-content: center; align-items: center; flex-direction: column;"">
      <div style=""display: flex; justify-content: center; align-items: center;"">
        <img src=""images/schematic/schematic_6/1.png"" style=""width: 300px; height: 300px; margin-right: 10px;"" />
        <img src=""images/schematic/schematic_6/2.png"" style=""width: 300px; height: 300px;"" />
      </div>
      <p>Does event 1 take place before event 2?</p>
    </div>","0","0","schematic_6"
"","","","","","html-button-response","15","81914","0.0-15.0","","4659","
    <div style=""display: flex; justify-content: center; align-items: center; flex-direction: column;"">
      <div style=""display: flex; justify-content: center; align-items: center;"">
        <img src=""images/causal/causal_1/1.png"" style=""width: 300px; height: 300px; margin-right: 10px;"" />
        <img src=""images/causal/causal_1/2.png"" style=""width: 300px; height: 300px;"" />
      </div>
      <p>Does event 1 take place before event 2?</p>
    </div>","0","0","causal_1"
"","","","","","html-button-response","16","86193","0.0-16.0","","4277","
    <div style=""display: flex; justify-content: center; align-items: center; flex-direction: column;"">
      <div style=""display: flex; justify-content: center; align-items: center;"">
        <img src=""images/semantic/semantic_6/1.png"" style=""width: 300px; height: 300px; margin-right: 10px;"" />
        <img src=""images/semantic/semantic_6/2.png"" style=""width: 300px; height: 300px;"" />
      </div>
      <p>Does event 1 take place before event 2?</p>
    </div>","1","1","semantic_6"
"","","","","","html-button-response","17","90129","0.0-17.0","","3934","
    <div style=""display: flex; justify-content: center; align-items: center; flex-direction: column;"">
      <div style=""display: flex; justify-content: center; align-items: center;"">
        <img src=""images/schematic/schematic_3/1.png"" style=""width: 300px; height: 300px; margin-right: 10px;"" />
        <img src=""images/schematic/schematic_3/2.png"" style=""width: 300px; height: 300px;"" />
      </div>
      <p>Does event 1 take place before event 2?</p>
    </div>","0","0","schematic_3"
"","","","","","html-button-response","18","94900","0.0-18.0","","4770","
    <div style=""display: flex; justify-content: center; align-items: center; flex-direction: column;"">
      <div style=""display: flex; justify-content: center; align-items: center;"">
        <img src=""images/semantic/semantic_4/1.png"" style=""width: 300px; height: 300px; margin-right: 10px;"" />
        <img src=""images/semantic/semantic_4/2.png"" style=""width: 300px; height: 300px;"" />
      </div>
      <p>Does event 1 take place before event 2?</p>
    </div>","1","1","semantic_4"
"","","","","","html-button-response","19","99509","0.0-19.0","","4608","
    <div style=""display: flex; justify-content: center; align-items: center; flex-direction: column;"">
      <div style=""display: flex; justify-content: center; align-items: center;"">
        <img src=""images/schematic/schematic_4/1.png"" style=""width: 300px; height: 300px; margin-right: 10px;"" />
        <img src=""images/schematic/schematic_4/2.png"" style=""width: 300px; height: 300px;"" />
      </div>
      <p>Does event 1 take place before event 2?</p>
    </div>","0","0","schematic_4"
"","","","","","html-button-response","20","105890","0.0-20.0","","6379","
    <div style=""display: flex; justify-content: center; align-items: center; flex-direction: column;"">
      <div style=""display: flex; justify-content: center; align-items: center;"">
        <img src=""images/causal/causal_4/1.png"" style=""width: 300px; height: 300px; margin-right: 10px;"" />
        <img src=""images/causal/causal_4/2.png"" style=""width: 300px; height: 300px;"" />
      </div>
      <p>Does event 1 take place before event 2?</p>
    </div>","0","0","causal_4"
"","","","","","html-button-response","21","113380","0.0-21.0","","7488","
    <div style=""display: flex; justify-content: center; align-items: center; flex-direction: column;"">
      <div style=""display: flex; justify-content: center; align-items: center;"">
        <img src=""images/schematic/schematic_1/1.png"" style=""width: 300px; height: 300px; margin-right: 10px;"" />
        <img src=""images/schematic/schematic_1/2.png"" style=""width: 300px; height: 300px;"" />
      </div>
      <p>Does event 1 take place before event 2?</p>
    </div>","0","0","schematic_1"
"","","","","","html-button-response","22","117971","0.0-22.0","","4589","
    <div style=""display: flex; justify-content: center; align-items: center; flex-direction: column;"">
      <div style=""display: flex; justify-content: center; align-items: center;"">
        <img src=""images/causal/causal_5/1.png"" style=""width: 300px; height: 300px; margin-right: 10px;"" />
        <img src=""images/causal/causal_5/2.png"" style=""width: 300px; height: 300px;"" />
      </div>
      <p>Does event 1 take place before event 2?</p>
    </div>","0","0","causal_5"
"","","","","","html-button-response","23","120568","0.0-23.0","","2596","
    <div style=""display: flex; justify-content: center; align-items: center; flex-direction: column;"">
      <div style=""display: flex; justify-content: center; align-items: center;"">
        <img src=""images/causal/causal_2/1.png"" style=""width: 300px; height: 300px; margin-right: 10px;"" />
        <img src=""images/causal/causal_2/2.png"" style=""width: 300px; height: 300px;"" />
      </div>
      <p>Does event 1 take place before event 2?</p>
    </div>","0","0","causal_2"
"","","","","","html-button-response","24","124486","0.0-24.0","","3916","
    <div style=""display: flex; justify-content: center; align-items: center; flex-direction: column;"">
      <div style=""display: flex; justify-content: center; align-items: center;"">
        <img src=""images/semantic/semantic_3/1.png"" style=""width: 300px; height: 300px; margin-right: 10px;"" />
        <img src=""images/semantic/semantic_3/2.png"" style=""width: 300px; height: 300px;"" />
      </div>
      <p>Does event 1 take place before event 2?</p>
    </div>","0","0","semantic_3"
"","","","","","html-button-response","25","127767","0.0-25.0","","3279","
    <div style=""display: flex; justify-content: center; align-items: center; flex-direction: column;"">
      <div style=""display: flex; justify-content: center; align-items: center;"">
        <img src=""images/causal/causal_6/1.png"" style=""width: 300px; height: 300px; margin-right: 10px;"" />
        <img src=""images/causal/causal_6/2.png"" style=""width: 300px; height: 300px;"" />
      </div>
      <p>Does event 1 take place before event 2?</p>
    </div>","0","0","causal_6"
"","","","","","html-button-response","26","135168","0.0-26.0","","7399","
    <div style=""display: flex; justify-content: center; align-items: center; flex-direction: column;"">
      <div style=""display: flex; justify-content: center; align-items: center;"">
        <img src=""images/schematic/schematic_2/1.png"" style=""width: 300px; height: 300px; margin-right: 10px;"" />
        <img src=""images/schematic/schematic_2/2.png"" style=""width: 300px; height: 300px;"" />
      </div>
      <p>Does event 1 take place before event 2?</p>
    </div>","1","1","schematic_2"
"","","","","","html-button-response","27","139185","0.0-27.0","","4016","
    <div style=""display: flex; justify-content: center; align-items: center; flex-direction: column;"">
      <div style=""display: flex; justify-content: center; align-items: center;"">
        <img src=""images/semantic/semantic_7/1.png"" style=""width: 300px; height: 300px; margin-right: 10px;"" />
        <img src=""images/semantic/semantic_7/2.png"" style=""width: 300px; height: 300px;"" />
      </div>
      <p>Does event 1 take place before event 2?</p>
    </div>","0","0","semantic_7"
"","","","","","html-button-response","28","144730","0.0-28.0","","5542","
    <div style=""display: flex; justify-content: center; align-items: center; flex-direction: column;"">
      <div style=""display: flex; justify-content: center; align-items: center;"">
        <img src=""images/semantic/semantic_1/1.png"" style=""width: 300px; height: 300px; margin-right: 10px;"" />
        <img src=""images/semantic/semantic_1/2.png"" style=""width: 300px; height: 300px;"" />
      </div>
      <p>Does event 1 take place before event 2?</p>
    </div>","0","0","semantic_1"
"","","","","","html-button-response","29","149229","0.0-29.0","","4497","
    <div style=""display: flex; justify-content: center; align-items: center; flex-direction: column;"">
      <div style=""display: flex; justify-content: center; align-items: center;"">
        <img src=""images/semantic/semantic_2/1.png"" style=""width: 300px; height: 300px; margin-right: 10px;"" />
        <img src=""images/semantic/semantic_2/2.png"" style=""width: 300px; height: 300px;"" />
      </div>
      <p>Does event 1 take place before event 2?</p>
    </div>","0","0","semantic_2"
"","","","","","html-button-response","30","152459","0.0-30.0","","3229","
    <div style=""display: flex; justify-content: center; align-items: center; flex-direction: column;"">
      <div style=""display: flex; justify-content: center; align-items: center;"">
        <img src=""images/schematic/schematic_7/1.png"" style=""width: 300px; height: 300px; margin-right: 10px;"" />
        <img src=""images/schematic/schematic_7/2.png"" style=""width: 300px; height: 300px;"" />
      </div>
      <p>Does event 1 take place before event 2?</p>
    </div>","0","0","schematic_7"
"","","","","","html-button-response","31","156012","0.0-31.0","","3551","
    <div style=""display: flex; justify-content: center; align-items: center; flex-direction: column;"">
      <div style=""display: flex; justify-content: center; align-items: center;"">
        <img src=""images/causal/causal_3/1.png"" style=""width: 300px; height: 300px; margin-right: 10px;"" />
        <img src=""images/causal/causal_3/2.png"" style=""width: 300px; height: 300px;"" />
      </div>
      <p>Does event 1 take place before event 2?</p>
    </div>","0","0","causal_3"
"","","","","","html-button-response","32","160108","0.0-32.0","","4095","
    <div style=""display: flex; justify-content: center; align-items: center; flex-direction: column;"">
      <div style=""display: flex; justify-content: center; align-items: center;"">
        <img src=""images/semantic/semantic_8/1.png"" style=""width: 300px; height: 300px; margin-right: 10px;"" />
        <img src=""images/semantic/semantic_8/2.png"" style=""width: 300px; height: 300px;"" />
      </div>
      <p>Does event 1 take place before event 2?</p>
    </div>","0","0","semantic_8"
"","","","","","html-button-response","33","168944","0.0-33.0","","8834","
    <div style=""display: flex; justify-content: center; align-items: center; flex-direction: column;"">
      <div style=""display: flex; justify-content: center; align-items: center;"">
        <img src=""images/causal/causal_7/1.png"" style=""width: 300px; height: 300px; margin-right: 10px;"" />
        <img src=""images/causal/causal_7/2.png"" style=""width: 300px; height: 300px;"" />
      </div>
      <p>Does event 1 take place before event 2?</p>
    </div>","0","0","causal_7"
"","","","","","survey-text","34","176645","0.0-34.0","","7696","","{""Q0"":""Female"",""Q1"":""33""}","",""
"","","","","","instructions","35","198313","0.0-35.0","[{""page_index"":0,""viewing_time"":21667}]","21668","","","",""
"","","","","","survey-text","36","202048","0.0-36.0","","3732","","{""Q0"":""AJFHBG898""}","",""
