"success","timeout","failed_images","failed_audio","failed_video","trial_type","trial_index","time_elapsed","internal_node_id","subject","audio_id","rt","device_id","view_history","stimulus","response","estimated_stimulus_onset"
"true","false","[]","[]","[]","preload","0","256","0.0-0.0","wk6bdmjcc4ft5q3","wk6bdmjcc4ft5q3-2024-04-14-06-29-50","","","","","",""
"true","","","","","fullscreen","1","2384","0.0-1.0","wk6bdmjcc4ft5q3","wk6bdmjcc4ft5q3-2024-04-14-06-29-50","1118","","","","",""
"","","","","","initialize-microphone","2","4172","0.0-2.0","wk6bdmjcc4ft5q3","wk6bdmjcc4ft5q3-2024-04-14-06-29-50","","a245aeecc0339b94ca3b74e02bb1150e9e1aee21df4e57afe28caa91d36d71b3","","","",""
"","","","","","instructions","3","5863","0.0-3.0","wk6bdmjcc4ft5q3","wk6bdmjcc4ft5q3-2024-04-14-06-29-50","1690","","[{""page_index"":0,""viewing_time"":714},{""page_index"":1,""viewing_time"":976}]","","",""
"","","","","","image-button-response","4","10384","0.0-4.0-0.0","wk6bdmjcc4ft5q3","wk6bdmjcc4ft5q3-2024-04-14-06-29-50","null","","","images/instructions/movie_1.png","null",""
"","","","","","image-button-response","5","13095","0.0-4.0-1.0","wk6bdmjcc4ft5q3","wk6bdmjcc4ft5q3-2024-04-14-06-29-50","null","","","images/instructions/movie_1.png","null",""
"","","","","","image-button-response","6","14903","0.0-4.0-2.0","wk6bdmjcc4ft5q3","wk6bdmjcc4ft5q3-2024-04-14-06-29-50","null","","","[]","null",""
"","","","","","image-button-response","7","19414","0.0-4.0-0.1","wk6bdmjcc4ft5q3","wk6bdmjcc4ft5q3-2024-04-14-06-29-50","null","","","images/instructions/movie_2.png","null",""
"","","","","","image-button-response","8","20595","0.0-4.0-1.1","wk6bdmjcc4ft5q3","wk6bdmjcc4ft5q3-2024-04-14-06-29-50","1178","","","images/instructions/movie_2.png","1",""
"","","","","","image-button-response","9","22399","0.0-4.0-2.1","wk6bdmjcc4ft5q3","wk6bdmjcc4ft5q3-2024-04-14-06-29-50","null","","","[]","null",""
"","","","","","image-button-response","10","26910","0.0-4.0-0.2","wk6bdmjcc4ft5q3","wk6bdmjcc4ft5q3-2024-04-14-06-29-50","null","","","images/instructions/movie_3.png","null",""
"","","","","","image-button-response","11","28086","0.0-4.0-1.2","wk6bdmjcc4ft5q3","wk6bdmjcc4ft5q3-2024-04-14-06-29-50","1174","","","images/instructions/movie_3.png","1",""
"","","","","","image-button-response","12","29894","0.0-4.0-2.2","wk6bdmjcc4ft5q3","wk6bdmjcc4ft5q3-2024-04-14-06-29-50","null","","","[]","null",""
"","","","","","image-button-response","13","34395","0.0-4.0-0.3","wk6bdmjcc4ft5q3","wk6bdmjcc4ft5q3-2024-04-14-06-29-50","null","","","images/instructions/movie_4.png","null",""
"","","","","","image-button-response","14","35547","0.0-4.0-1.3","wk6bdmjcc4ft5q3","wk6bdmjcc4ft5q3-2024-04-14-06-29-50","1150","","","images/instructions/movie_4.png","1",""
"","","","","","image-button-response","15","37350","0.0-4.0-2.3","wk6bdmjcc4ft5q3","wk6bdmjcc4ft5q3-2024-04-14-06-29-50","null","","","[]","null",""
"","","","","","instructions","16","41598","0.0-5.0","wk6bdmjcc4ft5q3","wk6bdmjcc4ft5q3-2024-04-14-06-29-50","4247","","[{""page_index"":0,""viewing_time"":3311},{""page_index"":1,""viewing_time"":936}]","","",""
"","","","","","html-audio-response","17","44456","0.0-6.0","wk6bdmjcc4ft5q3","wk6bdmjcc4ft5q3-2024-04-14-06-29-50","1309","","","<span style=""color: red; font-size: 24px""> NOW RECORDING</span>
        <p>Please say out loud the list of the actions you saw. The actions can be said in any order.</p>","GkXfo59ChoEBQveBAULygQRC84EIQoKEd2VibUKHgQRChYECGFOAZwH/////////FUmpZpkq17GDD0JATYCGQ2hyb21lV0GGQ2hyb21lFlSua7+uvdeBAXPFh6GDZ9QpnwGDgQKGhkFfT1BVU2Oik09wdXNIZWFkAQEAAIC7AAAAAADhjbWERzuAAJ+BAWJkgSAfQ7Z1Af/////////ngQCjRBiBAACA+4P/Mf4Kf/LWmwzkmkVVlasjWKCl5QIp4S7ddmwmHfajvp9jJsM6RArTRLtnCyRyvKavTFCQLsc/mYilZXr1gUyfyzE3b5/Gn2PcTKXzQoltoHZPQP9dhLTUPuDbCXtQ3jBaKZbttv7vdvJd5gwp5KzA7MF3DqpmdSaqPkuhp5g/pdXUwJ6IRMeoFDmu+V9yLad36boZFjnn+azS9BYnL35OazYL0qa0TnJ+NSGZua36azL8mO8plJOIiCXcPyRjAifLyDPLzB6Bepoy+RFMAAAAAAAAAAAAACnVBgIpjdwqpLPUWbkKSRCuWXFx3JciLl7PLKZKfK8za0e3os+io8RFd4bKq4kDcrqFzubVXXCOQU+vKb4yFGeGnyBZ0+5g/jwCwmK4jqgNTdfbfU77y8sZ2hZuVnoyi/NNkL3RMjTUBYm6slG0ttnnBfyhhY2TV+7gQ3NClakTeeO9QSZ5Mq/ZsVE2WI/Tu43OeuYf8n7cwnHktfQplc7CS72ZBEh8h2SxoW9Mg5G5Nm87CKwdQDBcpQjyospiQiRzZtdRf2/+5xmeBO7TsO/HDKATV0WUrh1ziNtUFSo/IugrmtRcNvj+py1ZD46TxGGFKtXFv5nx59CDB5uhSoPi2+CXMJ6DOlk4++zI+SlNIS6Fvo+mVhEBGQvV2i95e+b/HRaFvWf3W1BOwOYTbnIoubqOVffwfn24pjt+djPvqIoMj/XdY7SwTWIzAE4HA+De1RhPTiXFU9qnfPpr6YYfuk9SkCtTkv0Q8p7N2j8CTYFOJkS8l+3HzRyrrSQSZRnzdiDugSeoYHk+4+YvJk3JuAninFxPcUbYwXEMU7EycvoB/Q22FEJSE8LnNbqyGgVojbCWL5KzF1V5YxCJXtfA3EB3O3OZcqnkITeZBmN0a9qEEvOqA9kIF3JFjYMx8hRvSEhnpBjC5ZOnq+cHa7TF7BWwHdHI+Ivwle5IwCKstX8XESavIzCU7Zs1vS17VxN9JHLKtmGHRomrZKuy4knXj6KP0bdPm+kZVDpoO1OsiDbSn3dne+lcEe+/1dwFjz5dpLJmCk+wQQOtswaPsAT3hAhXkY3dnbvy/7HW+yHOg+GNBNKOF6ntdK1KiHfkHWmHN/DgNoSt7vlDC2TpXpDoDbtBhpq6O8NW+cmJ67jlZCGGuA8gg00+j2qj6jvtRUWxPEZ6n5/n7TAl/rxslQcxaqlzChvjwzJnVFBaAuXfKRygo+nJKPhnRMZm7DYgL2dx/nY0c4W0EH89irdSYQh3UARedli05Deb509uf7j8zPjtJEqcJrMLh7Yx6M/A6LyPex2Kdhh2rvLnFqv0deKNRQideYwVJLWZAINMYuIcQnX2ujxgX49qjomdYR3iDuH+xTE1a1YnZlhno0OBgQA7gPuD/Av/CmGTn2gOw0z4FSEQi0UTqx2Ud2x8upDeGdqqDs6eRwac/HdyJhbfAnhK4RdMknpOcPrLeOXw9VPVgXxYtLkGNT4kFRYsgNJre4PduJTkICbWUghV3Pu5wLIeq8gpR2Ei2Qlkh23vpKjhhIGL6vrIX+FyKhocQepvGL5TZOlbbg3EezbZaqtlIihqK5mxxMmzH58BkHolNdQToA5NVZ3itkOhcH4vvboAOzTt9mOGSU0H8EPeqRmFkIfPHSd0k9tYIBWBQfJTh5AOfwUhVMfuDTCT0a8heVZUxOZQ6zvyf9wza9lZZBT62tlbHJKSg+3TOJO3awOHBnIXFDrcA7/g88g6J9ZKOuCh1iOm3SJUK6z1inYhxYm1DaEBlcFl3d54EXXGl+ANYQrKYTUk5XR3yllS3wfJpVzDN5IS2trqZTN0Yy3jJV4mn+lGe3CGpnhUtndkOxrhHfkgqYLq9T2AZ82XKcXVeJS0QyUZYoI3Wr83WSEJMdzzSeJ2MG0C3WBg+Biw0ztoorI4dh2lWTWjhkRMprqO2oGoTNXe4uJDdb02t4/lJbaK2JuGU5XWH2pKQ8MzEW1aCvNVoISd4G7heaKm2FZJc7TrIHwJXwk2rzt2L27ObyJgh7REAXpTfHQ0/egF9bQCXx7fSUOOnvsMeI6aOtQQ/sVIVauHvhQt8gKxxB7Dy9bbJYFJGu39pyWMsyemzGW9znklMkXar3ZMtAFTQhhj1LXA1mEHGaR5A4zYBU6Kl/BLB4P1Jy/TR8QUgnAQSURHLTnwfGjBvJVHmGE6UBRyUxdeQCN0s9uWuI3W5WUrsCBGozOocXTpsnIwiABLsfki8hpEo0CcfX3LFsQoVrErWeb/XajDWvh1l92X9UwTNgGmpU9424Focv73jXGEbH8u5SAFYrlgW7rEfADYATca6P0BU8fmocG/nsl4HJwQGV49ul7cvknA/YPnI2MFAahWhcZsJi9Abi1YQWOl40F69KHqEfZBhSKRNwC3FKpMsYQKAlmvPakHKSRqC/4aADCAlJjOr1Er9P1yiKxxBocKMGUZGah0gvobjkN+EGI/UI5MbZmjurzHqPeVR3HM4xjMoCMIB4ctuvXf7Jv//gCw1B7JEKYJSN1j2ocxsObDIxK76Obzr56DYaijtaP6WHRJMThHcdVpVvh6HbS1jCnrN0yxo0PFgQB3gPuD/w/8EWGIchPShp4IPDfvWUvvFsci8MJAdu9e8nVNQXLFT0NHUXOzZzY+DF6NJsRYqiCmwebeCpovDwPryPbhQrBjZDSdpukyulZT5Hka+zCcGx6mS8CBMUjiJCBV4qwFi2Cn4vRp1m90DgbS+AXr6Q5OYsn7TNInHyGJAdxO/SG5Uz7bYuCJFhO0AwuGk3AJlHZ6ygInRv9Jv/iPkh0Ww8/SbHPxtHliY2uCWwPsmEQ63m9DdD+yaR2LdQflFiexpLkXMJz20CF8drtsD/DC47JYcAS8mObrSAz8mMp7Y8VY7kaIYMeM/kzIKOm0slTz+cURrwEQummK3uOLtcdA27LZLtyZQm5TaBtBUl+oEcDKfxD2fMevSuSWJq6u5O6Tu0TThQMCcv3GqpRSANeFgHuc3QyVLWdHZx3HpYUZfmGJUIr/D/c9Q6P/s3eQRZ5r8U5JZ1jefa2F1BV/ycHQsxslZnKd3uMxUreKQPdS00rVw1Y5FD8jocLwhqjupgaaVipt/9+Sx+YXTzIthFnWuh30m+Ebr6sVU8bDb6Dvq2qqLhlPB+9mr6I9PNY+eO9LqgYTy/ss4Pgnb0RBPhP89b65kNynEp+mzUgYVu8LDOaytWWHP5d/YrgR0JRL94u+pper1gLkERrgK8PzykQg8chwgl8WqDP5VX/ebVE9RKLrDEFIR5il317T2Msc0nWZFi+GPOR4NtDGSxvsh/Cip05SKylOLfitp5O/7W1Dzw3y5Dl5pDltrzrK4RJXoypjVcgXzBMEgJ/6KLKFjub9IokG/dmHVpM+Pj5fiPBdX/aAkGQp7iskQSzR6J1rBR/aXttfGq9kG2/oX0tKSBARYYX15U9ky30DIKwzk/UW88gJ8Rc/sQjo/hbrYO/QaO/zRyN2luum4+gKF1KflUn+SGJTC+tFSUYF93vpLIoI8kp+MTI4mVpJMEeKigktyQ+ehi4NLNoIdZIrzz+6oTYE03xMYiJZS8Qb3y/Ps2WrlDUkxyVuOnEskZIBWW0SdJHgN0AhvBhRPilc4NiQV7JC6v8ZrCOQDidOLUNiqMSrjHruqxV8k7wQ85bsQVzyn2wOokG128lGtqOLNBe54jsG9EOmvrDHhg4QcZ+do5FVQUdl/Tdrtm28av96Zz5ECzEnkvmF/j4HRylivLNybHugYeIL52hjoZxk5Y1KjHZFn61vSBesU5AWhrZ8APV/nZtyxdLnoRZLhUYIMppk4pmb5NoND8vS8UGllPCWnfWCy2qR2kCTGVY+HIZlcUgTk1mjQ8aBALOA+wNhhTKehfMQBvc2iZm6c+XXKsuB/P+9i9BZPXnaMYKnGYIpqvGMTOk/KLPaHgxt7IwRN5RvFSgIGhRHK/v5TdWqOosFcPahURaHFhQVbkobtpntbiB00BNEi3W3zFRKeKR3FL1ot7WrHrQnvgj5u0wk9PzvZv9Wi9zKZIHyiKt+xsipMvYD91JMryoPzA7creXby4B6VnRW4kmZ8KcowvNaU/OrB+pVzKRwDOcN8MnHagd3tfPiUEBGa+mH8yR8JOAbvJ7Ns3WFDnPy85ZoCzcW1mcTHPBA3PIfkwDIxuvgwls8tKBBeC/EwWH6k3Dp+MBuwF6BzPLDGH+mrWXQVyefbvZ0tCBDq0RykM9By9+fuSGMHHp13aI7VcNS1oUCgLqe4/PgQd9l23I3eKNXROpV6cQeP5etNiw/robQYcJmyWGS7dgK4HcAOGh1cZQZKAyry/5lgf+5ZZGrhp1JPLY3lhTURsPchQhcYDwD8hPZEoDoHg60BcxPWTopzpk3t42b/47UDzzZCdTh+hrrVcKKxKsIw4noFvZQZek6PvLDYgbMoZ3+mdoRrTpqu76sjduwZOaVIeQS31TUPDWNOvOkaTYbi+YWfPWW9iSP79J74vC8wxvUenwPWx/uWROMeq8LR5atYBv3qcEquILNDIzPC1cctbKDQmPZtIAFc2GEkTq2qlqSVLrGQWDB1lQYY+2lGmRLhmI0+O1fSlaojh/Ao52LRK8JxcTD5PP2IMM6X9yEVv4joMz2Gi3JLtDQIUYoTF1cN/KclX/jhobGgK7S5I/geQXhiGRR16ZwesAYPhugFxuT4tFWYsoT9YASTZw2Kev7Uhghri1UrT0baCe6YYUlDeV8kmcjIsyze1zZraPjcz5DphEBwaG8X1N3FtKX0yqCyfKdFHz4uE60MTh/kdyXsVvoCUlB0Ftex1EbWQNH+PTZOK3zqqgObVURXKuaf/IZdky+ItZuRi/y1p8hIEFVLJa5lIHtgnZ6vOuiLoVx+j4BI/3CPon4cGfhMe/mxJb2kyN9q3lMP/i4XK7C3E77dIx8b1VYbhovcjSAzZVTR3idK9CXY7M3AMJsn9jPa9pXCkHXMYnL3IC6KRi9JreOk+eXnWuCYbjDIUn7z5k9nDUgUERowLRPRwohtt7qxUFGsqybiP7DQMZPQFjl5wGqFFpNZVMzJq/Smfy1pD0XjSzR2+RqG3b5Xug6qfvxvgFLPIoIsfIOvyspF6zApsPtO4JV5vUti6bywW+JjvmQADeXckMrYQiniFWbaUKjQ8aBAO+A+wNhNSOKl7yFDGuLTiTKjxmTm59JYV8hvcf1w99bwcrJ7S6qF8xqxmjgHpD00lC/NVNIioxKQxNRSW8dx90y41lpRxc3a0Bhgo0oKV6A/+pCS8paryWu+i7gdZHB7v4lgLdLqg7xDKYPJA7zi0oZ+AjWFhbvA/byqTctkBeetuISVr1HCzTFAxGwduYF0Jg71v9cOd71+uBCbgJegkrOMs9t2R8Tfann4OED+7/d8r7ekBTCPpfsyyXgIg7sGnqGRnzVHZmJNVtVB7XFTwCjXFHS4HINlOWL1CrNB3WedB7cpTyNCwM8lU9m8VLwMNuSAITzNMQm51b8nw0FhmyeGh5tKYXETWnuxwhALd4zW+TdwjLbzJSogVhc2fuL3DzyDamdwT8qj6KwZ+b2ODgYOnTaoKPlL/hACHyfZ7KhF7W64GG04wBfP2KGe08DRUUdWy3HO9Xe+GudoqqtlgIcav35lb4oSPSJzhcZB0fqhCB4rlctIIl8sD8Xm36/tAH22ZPYUO3RdiN9k+4bKzk3dmAdoAwxrubDjKG6QuTIhDjVO2aszJWEe644A6fgCJx/6Dof7eaXLQmn38dGRzJDMdihWerodB3rwx8fnQ8L+izWVsbMFOTXFO600U9CawQSd8U/C8UkjehOkDkg9jvkDNnWo5li7+3Rxt35zfzsAjCDHMCrlIikwDpDUrqJb3OXLKoYKS4Z0E1C67CTBB2aYVV0OWzI67aV2bQ8YYFWpGs+bcpxOECpA0CZ21JTni4I/a8/47LBR8kcihwlUIa3mx1LuIAgw+gL6s2YJ4glsrwwKO91XJ4pLpuGvxacTXoerxEK5DobdRMuLT56PEL7SYjCYZOWsK6qdY/LjeAUV+ymPRE83B77K3uLkcfPuQfqBQj51oWTlDcGrTAXTVAxpvrYhsvQrlfLRw5FB/PnIQKD39i6JI0GT/9VwMTdSBu/Yrv/PRUxMxlquRVks3xkuB6FK3I1NbMh8sv0YKH/BJaXhYDrvjuA4FsNexS6UxM34TZKmklXiCuGwYId5Q68PLydPo655TNtVnareFA6Mi8s9UtTfEzlDAbvLABs/Fi9D4+1gyTxxFiiJSRx1JSSD5HSni0R1zENxvx0s1SdkJhHUoNFvv3PKGgtvV4TPt1NzzYa7TGRbz944qN2FLaHKIZ9XZt/ZmJE8TmFEFTdav30BU/XLfkRfcJuGclLHCmGWPMwaoNNzY7yGVz8BilwWXLyqjZhDnDH7R4WgWQjGhmEid0LTG0Ps/6bbJlKIdDa3DyjQ8aBASuA+wNhk56JGv7uDgMD6bpk8eyh8z1W6NlGAZJQwPGwwljue0I8mZntuNimdyjCSaqgx5f7B+puAzgJrr+Vj7qPKH5rreSVxDtBIJUsLO03+h/NVlO4fO2HBltsmoI9k7g74B9xo/DAomIvSvB7RDKKj54nECqiH6W6iYShssfFCsc3Lxo/Ans6JXD3yH0t8R0ueM7UPRJnb85dFchOqmnC6u73S5d0H2V1ybxMi9Gq1KiKVwpp+pk5/NJzR58MQiYdkYMA4Ws5Ipa4i7/WAMezTUwk2nUZVBQ6/PFQwxPm6j3SkuHd4RSNv8eJOGmszG4HJfHqikULUXjh4qxRQp9hPbPJoyUSPWjonbFBI1DQt6K6qkwUg3gXSD1oAjA+795OrQBcxsrMUOV3ZY+26iyaRTImVdCOV9r/nC49uMPqUqRpcGGFJZNwZAp0RrS5kU2zE6TqYT8YcJt+SY/hd3NIbRmryllmJTej8bYJuXhCXz1GdwoN9JIDA7n+7+EevTlV0cSVqlhwRSmeq1mODv9cWsf8VxEow+BaAzX9dpAbzgxK52kwq1stEj7aPS6Ore5eeoWbbaN0lPJpGx848QHVjMjYJ984eYGAH16jm3z57oh+8njI80U/pw0vM+H+Zah2fawfmOH2seJHDf6fK2k1M7F1idYjhNJdbvFYlLjLhzsp578PXhnONgAGIBt0VMRcTJd6kCB4YoL9C/hGpWf8KFq3lAb4Ll3d8c7Tv9gbMEvG0FHRdMB7zPht9maSmyBkBXrM/Ja3oqgZimVqIN0B5mHfPF2BnxZkiIsY8AhZwBKxbp+zBUIKvpgmNQ3EJLUH/QMGOaZm1qJbLz+ZG8kV5/7JYbSNRQMQ/X/ZpBkTWMO/lVkCr9HuBFn947GYkG5qC/6giFROtTQFQHN4jkr9AbcZkNf/IBnVOzrF6R3bx3Gfm7mhJayCHsA6/zPReGBx8vfIWdxBQ/mKMqOGOt2mQ3B2N+qDeiH1eyUh2WNV7TDCs6ZpzUDQ2wWbQCB4wclTV0vGuxS23m/bPKc1gCZbugRoBqngMS1W60UvKkqHAXKFBwTupuNvKBhvU5tgxOd4k+FqG42O3aQYxOKH6BUeTUwN94w0U13BAkTFixwE64RKrYLvctxBsoisWPaHGR0S94H8jJQ3n+zzOv3ACWXTKyeqzduV+wepXrKDdFw+qDDeRJyCXL92rh2122UNnX4ZmzJQOP5wQlaRazbftRwG42hSxzmpHnXd9qXuCOYblpzzPJ35mlGwsX6n/Ipgyo800s6jQ8aBAWeA+wNhhtttBXy9cgQn09jLxUMMNA9ofUPbXJ6QBcepJtTSmZmiRWaWuYpHcZVzv86cOjUtFFRQF0hrGQAhFJhVbzpVYX1o9TAj6cMQwv97Z3i66U2ecBSct92u7y2BlsIetuhuDPUO1jIpO+rReEhVVnfuxB/hAWC6c1Eu0fdSc+KSSAcc4B0aswNmuIbD0inZ3ecJ9L/ZBGdZDwZ1g6MN38ZEAyhlqgkUC39fdtb4ukaxKFl74x2rfsD/r+YFEDEvsMLCivOxnPSDgseqzu8jfT6/4PlKe2NH2mYnpvn6jl1U8AQZ36wYukqo5AjWQLeITAKv28wVZqcclXsWeWVmZaLWJ8PuXsKM4kl+c84kL2aNBnPAlgDZEQuL5TGr43+HX1v8OP7IYF80EZ9oDu7CNfRVbww33EaIAi1rez2jy9YlSmGTn1bBEkDp18tabmA/ThdK78m4OaPFnMSzxQm+zIAt6/nLusyHOEhTFCXst8w4zVSKcx/UKhA6YmAEwPTHVSUhqSoOnZjkAMxa8f3DRy4S4tJfzFo7Lnj9u2zCns8MAB8E4W47KycRrUY7b3kRT8jmwD2mq6g4AqhoP/JvpeW9onP4y27pBe9B4U2PikwsumF3+SK9EunNH7sHom0DuWzAltwkDmZjKwx5esyeEKn1JNAf3waWagG4ZnrHSdM+fgF99inPpVTR7yN40sHisFpNL0etXPfdwPqwIevP7B21K+g2qHmqAkHZx+E35vuG7G/p6p5pOdZj5LpBM751nxrVew6ifYDy3jKdqEvSc4wLj3RzWRHgvvrJBPg0RiNMPsxpk6SnIJIuqWBcMuY0Xq0VPgxz5T+7nUHGgnLTNP40YZMexpNdYcHjEHsTHj1OnyyHVT6Ceu4zWJ52TvsCbTJEC7l/yOKYuLIrxKV3Ueqx7nV16sJESbToRJlRnBGbGUnlacj/q+WsJYuoyAoe7tjpDRs0L1plSKz225fUPtPCU3VbJclKOXeTSRUYDfS/mbD8TJlVpRoO6cARKB0Wbi8xe9MHJLVIEcYJTxtL6LC9f8A5dB5s8d8pjUMsNQAKu7QmZ7ZXUIu8lFdrlWYsJmcidAZ96yOw6XzL5HVjQc89K/aN5/pscGcmHD0T+rxOMq+3l0QiLyAN4v+g6bNhIN/6QpuPhaAAD70aEHJClKRZHHyDBqrOxW4s3y7U+cBdvNXdMYlY7LydaRN/m4UwytNjohRX3c/wSN6BcKl0qaLWsYFp/RERr6SaxvrGWtUm2K0zPvMjBIUvS8tbBdHUJzmjQ8aBAaOA+wNhhcjtExN/DVwMxFNRRA4+EyJa07gaQsNqSeM5WLQcLJG0udMECfzopvMedZRInKjf4BdHyvDUevxCGDpedJt0r7vi9W0xz7LtPVaeHKWk2dOSogmBgglmlGDngqXmoK1eWGGqvm1LFqBtp/JZ1drEThr8ofIvwkPzIVxlo6HJ71Sapy7W5EwM+eyzt8d5Dl8ecLQ4YDS2FXAjMpj9gmmumrhBzjUozmduoxI2TFuBH+eq9Cw6MGoKQgSd9E9oD5OtPjvjYxoL23hhYerQ95u2kRs6K14le0sFYEjzbTwyJvx6t8uOPIziv2EPrYVv4/gtZQrnN3a2vwn14aJPqS2EF/g6yGrfSuPrdf5TjqEb2GZUBTFW0fYTByx9CSqyp45vzeV5FfOb+Nh8cajDd2GBu48mISqQ8rseRoD619UaQWGFWCy60C9ohCRAVe9S7Rq+MBlnLA6ZoePqkUEMfxviOSmBcoegSxpKQxPoXxJOgLZU1+jKGlW0N2yib3fMEJaAsowGglDi3ZQLdY1aw+UxyV4Mcqocllx0EDli5cycIua4FCuU2CoSjoNwSDTbj3IxQFUsA72MszvXpiJWKsx6SmJcAqCAw8kc6kyeBvQTjT1YRRpgmx0iVfdqOI4dFvNol8Fv0Av2fxHnIYzxPXomhSnllP45MlkVB7VBz+8I4yzWD0gMOKuIr6rWSdjwkd4MtRJBNi6U2RQ90sRxAM2DJPeQTZ7ynPJKYbC8OLEo8MryoK109NA2X0dWT56VQjopkigPuukyDjIj9KjIGFRL/whiNMOuHFw3hzjk3EP0aj6F+8npA2ux1q8Pq+u+ssejy/YiqjSUrAzwOUw+9eYEYYh1nJnWkJqidIVkHShU6c8KSQVFsLGvLwnXwkDBGWNcJFCAY8YG5ok+mgRJr9RbIpsBii98FcutV+hhB30TH/W/nQMoTTYTkzzpmzohYAcoIAwO/tjuB7ReyoPEq/dK88i4sejT2D9S8LwOKoe9LVJjX/+g8FSirrUcjJdyHg9vOcRhO90wFBPXHlXh/KVji0Bs/m3OhfgxbxKy/c/55rZQGnnjuiN9KvDNOYaIwwd9/wTJJ0fYDjV5bHtjiOkWjcPq08dmvQ7+xvYp5B2dTKSah3n/O8cwtxdt4/tAXtqVXrihQwdfW8w480imPKw2SeNvnJiPl6t1b/pgMSzwMQ1IzWUkpGX7tk1VTXsCsawlUcGr2saFqLI0WsTt67g7ejwI/fCWp4/JA9Nukvo+CWfny6slhN8qgLpi8D6Hi1SjQ8aBAd+A+wNhtGKrb3Y6ZNctPbgQNk+0Mcuc8N7WAZtfhHmvdpj6Auta1ETYOqpHDWRbct7JXaCVZO64mnXWMVEMmmweldmWUM5edXqSOYW1J8nECBeM2twsEtZUrscQ0cCnljxGnCb1lsT4Q6F3uehAJQWeoSgm1D02sZjzLfTGi0Yhdrc9dMXtdbyDjDsJri4FURFEkOKWtrdwcAqes4NvsPovpWCc77BP0QjouVh6U7aM+NZ8cy5uDBSNA+3nwagHbdJui1WZfnvdJd2lUaGuXRbho9A0bxr3233OA+OfCJIRprC7iUD1VNNq3UVl9I8S5vbP56nbR6WrmhzE07IW1SW59iPkdUXF/dXra9ame64FVMo+vKOuNzmP3KlCgDjjRFFLamwiUIQMwU74Xra42CPYOd3gG3w8Vqz3nz8cmFsqzIdqU2GTHtczMNP1Y1azJAjUcpH6Gu/iH44div0ngXU5Z/BP76bMyte99lnDVKbWzG/1L2jkZe+Xs0qNhxh03WKxgVxpN2stpWTcXGKCZJDopgqaBC2aWSQKSuP9uc5zOy6NmBnY5Wqpuui808Dm273c6pgQNQyQQYXX/0XGFwpxVZa7CdPl4N32IR68kixlKBxiRhui8VIlc0HeffdkNycqwmYUf+EhnR+f1EPu00z2141lwFLcVhqbUutWD82SxK0j2kabtyHMfVTNcS89fYDLkpJkTr6GZ+JwFTnJjTOuwZa6nUn3Q7gW+wOfLx4VbrQmx/1isOYGk4jiskajul9z30rL26pATt6JZgrDqxaiQ2JcE0zxbtCPc8nPQjI5qYaQYfaYMVHY7bMKurUuLsw2uJ0WzNka+TupLC63HQC6LnHJYbpo+3zxnmlP0oXQbiWHM6ghQmIBFymKV43eRoYdIfHYEELgFp/2oQPAZAK7rY9jabS5ts3K3qXdajhLZDFQtCoANR4Z+G2xCTpvq8d5O7VraTK1iLZjZeP7xwvO1ScSQ0N92Wm38NoSQ9Fs5f71R3VI0s6m4H3w+xi7UWJtfedi3sFO1uHEPUbZqqCRnQ1MdvVeVshIau+4dJxw3KP9y6afM3kYuYVLGG3DaVe6W36ozg2Lkva3V8EH4RIInaFEk4jg5kSLYlCH2chgBBFVj6R8hm/jaR8/ylNkK5iAhId2NXh3wL1ywyKYiPxXjeyVdBmHkI09NcLqQsX1EquD1LSFVhABXXztVneKHMSpX0ntr3R3W80OOrqtK5W/tQkbfuG/PWiMJVci8FvSWYTN00+PCPL4FHifO51ljTWwzbyjQ8aBAhuA+wNhMv6jYvRrJyarhluYYDqqdUxukBWkKMIjrB3fAH7rs+Xhr0oyp/Lm36NQeFCuqDnL3A+WNU76hRGZmB/3MvX63+Ug6w4I2uF+xliwVZSKDXkzEnPZOQsLvL+FMHaEbL6ykOCmGvJBxiS0Tdvslezp27iOatPLZFVUmFMRDp7UXdHOc8w3UtnWewA577LocDU00w5uhVoBtQXoKUnpTPJ22ujjGyG0qW2AkVgm66WhwVeLByPifm6SELakaVe/Bhm6Ayap45A/J167s9w1pzRZJEHAUH4CFqtJ2lCcehStivSuXGT8lQ68R5b1whEJQn8B1H+SXvM8lD6aHpBMHLMdpO4JyC7HvDgJCQ2rdqeqm0FgD6Klz3viv7uh75Hv5k6h83rAh6YHj8plKUZPdgWYuZIJCm/QTStzheXm7CdzSmE1Eqpy21kGquhNeTSC3a8QjfyVR1KQqj5OMhdKxeHJfZCou1yHvCrQqOCaSfvTujnb/hOO52ehLSuubNducpk6gcRgV9sLzbGAR+vQGhtI3r13nVTIyV5O0p5OgfUCrXBbUZcXLbiyCozCyXT1qNVTYL8sCGjYS+HldOXOmy4rkDM6rTik/Tq7z9wbZzpbTkIeTwRJVkvjPpoNkVE+GuRSoknQ/YxBK7pG/nEwmPLX+j0fJkCywkqLARcrikWvISW7ruPP4GY4E6AK4RtR053aYv9JjAi8L1ytT+x/kO5Gm9ltPUQRIbZIBAS8QfiiAp8rlUqVJtjS/p0AR8vWLoCv0dfb7cl6xMB1QUtLRzo1yHsCsgKqxsI6BN3pRqrq8ZIWMutHHS9QqSa+93m4JKKMJ8L1m/HUrkmjW3nVMPlZYZOWHqBDYuCnao2YkksRMzVMwdYL3JV47DQURfIHeKHMz9VFXv0u/7idsXdm5OMEhEYHQesj962iEhFSpdOda1tGUEl7lRDU28EhLax+9JxPBdOD5fPRytl+tFX+9miERmxOcgUHvkKUvM5N+pIXOyPGW/KD2iR8JSMnYCIJxWTYzxCwrUJl0VYSo06UMiWyPkyGckk4wAIGLsp788qVEhjLCHM2eMnP6rw1dN04xvW1wMQt/HO9izCrbZ1JokOF9hL1fma1pQWW+a6A0ly/4evkP5bZJtLw4ptvEpHBCqtA350o10N9l2bgJ357KhUw6zQlVmVC7dBaVT8XrQeuOdhG6VOKPWJs2tw1vcQy11qdE/zXCKWKs9TOIxrYIWtB3msZtifGg1Y2pWiofeBYJIJIQ9hTGXQqcIyjz21NcrKjQ8aBAleA+wNhkwcIA6mhZ/WRArU3e45V1+/aR+Wx6SFi3grjgRoMobCNbLLmXLc3VMdNEpHk/tzir4cgPyJo8zZCJa59thif5S6oO//UPhS8COOcaecmrownGmLeJgvWG85SA5TOJIWvmBBBC7aWveISyKd2n7AoXXyc+RJ9olH6AHrUhgZaA3ehDlNdEU/aMTSC8edTbREmwCNI+UjYaXhzurwHbA2/FVJSmtTJroLEUOquAlpbBoIAyswfc1Qaf03OID4i+j+OV4ZvHOnZepLCNjRiD3PZrvAxLx036AqO6lNAapBfjjnamBHiyQyTHWZqfpQkaCJhknlp6c/WrMBaLgsYUbnO7iMCxWxxziojr41u4f+xgEPekhljpY/D7+HJremlBJ8AGfDC3n2ibFCM6WEj/RGJIPgfzXmkJC4byPq0q4ULM2GTn1w8Q3djauM/e2iVq/ng9OtHtQ1q6sH71acPCGKm5nIwR2AlAkS7G0opqYrprJ0N7i6IMX3KAtYSAORMZZxbaP9o+qflEN4aCCK0wczT4rYWWO8P1s7DPdV2FGkiik7rsjhwzr6NKn+V8L4Tvnkdwyeg3UClJfbCJigiGBzZuO1n6z/Kybldnp2iiRaUTffehQYBwX8Yw3pCHbZBDlnfhSfrZR3YFs6mLq30A8RYoaAurRleSAzpDQhmg1nlL5eKUxZ6/jJhMyLzR3mL3XiDY1lqRwTyF+ZC6gl8N8UNNrSMbIxUq4evWwreJelS8zajJgWUP2ywJd8ZhSUkhKzbrbL5v9k0ZRTqOTtfhIDUTVogm4FFUGYPNHtP1voAIcgWg0gz19n6asunC8KcK9aAnuJ8nks3LHKBN0e0MaAwYYkDxKjdTe3FFOw9Rsdf+pDQzf7tHeQgdKrpnnKuw1N1eZ2XUclvg/BdZsBvcEEudKCAXMtazy+iL3UVfyx1/yeDUfjhmv2bW5u2hEGMucFD4BTxugwAow7/KZ2MW6UCYJPyDX2058gEQqwqROXqZbGn9ZKrtpRpuTxghq5r+eaaUiKHqEXF3GuhCIS9deRh+uF6VyA4l71fVIR5F0BLEMl45UP6EAqcNMc3k90tGXfMdpg+nApoQ2s+ZZFVnVV2ObvEkU4TFKXwJKuo+42ruejdUBRBChdiAk+NmAGfspWwQ7mTmuQkOPgcxI3UvDrjnWCcYxz95Nrcsi6Njok0NJTQGLO/GLHhTJCtvLUpkegBoI99kM9I8R5RqNyB/Y7QtmOsVAudjZELZmktZcx67L0E7z9M+/AsG7kE0O0+aoajQ8aBApOA+wNhiR4zIfKL6Vh55+k8MGZlnzHEl75f0vULK6giFAkKqgP9lelc9GwxNbcocSf+yjhrzV25LEBSNnsgpQIJjsWeocq52sJV5K4VLoZWuUbcmSoD7meP9IxozFru+gj5AyK+38j/h3QweKLXB+6GvALKidzbIyA0BAjtda75ZzbOghHuv9Ol1F+sHDgP0JSrnnd+hQbpu3Tfe58SXO7o1bq9yokSw7tGxmEbQm6jOQJQ313zJBnEXpfpoenAfpUIHncf65NFo4rOBYj5AgWxmzU3Kz6Bnephp3DO1rLEGEVMQWqW5r7jVX50Jihd2sbOJ6UM8TKEqdGURWpAh4QXP5jFEPBvRkoXs1/buw0tJxa2cVHs+SU1Dbri2Sy4B7yB50R1v6tIXfVFPpcCDH0WbAV8UDXAtuBKoiw4l/7Q3arVnGEzGrrW+GmpHCMzU9AEdh6bmXnk2seecBhmT1KNYJignxp+LA19w0MVnXpQfyaqn16XNWuwgDW1nZ2pBhBZ9gc0jjdltIpINa/6ix+eDXIDgqBQiEKgenVvjcbkSCB1e+bBDGlq6WBfn3mrlaDS1jj9UXBfHjciEXjb+vsvW78MulQJk1ZMnMEYyxFQijKzUWW4lQe6Umn1I7Q7xEnee5VNS60D48KSXPGnIJIt69NcgHYBN3fLHLq34o4uoIJY/MZ6z3s+hxMVdLzmCnrj6NxokZvX3KGpuGqFPt0JWKTyHEBYk1A3k7SWo3DJNxSnP9YsNn9dF+karsX6Jns4ibbwOytMg+ddoQqqXn/f40vJqjn6F1/7fPTjm4AZC4ejLV78uEPT9lu6mc4SgzKsVhlB0Suvt2kLrGJ6dT0yeFpoYYVtYXuFsh3D70PyQIQQ6+IRaOKAXDhtBvLfBc5mrSv+XFLUsjLxEDVa01G5cftGBgQr8AnTeUnA+mCSeV4fgrn0xAxDDLDrFe+PX3ZAXXIDbf7W3PKkJOce+oynzVSV+WTGW7yMjiyP3T53uqsKljDC+bZCvnUPpXQByP6qqCHPayge4HliOMlIo3Q1bbT9rubT49xYA4vbXRzu9uQZdahXuIImoYe+2T/ZTLRPy+VrYTpvXrzZmsuzUwlQEoUwRTIv+qZd4FQbNHYg41HU+Fpt7LqUciLpWil7g/7F7qJ910Oo/DUuOA6R+/U5vIxxRoJpX37D4uXoYa0eqDBn4WUh9cdr7X61t60M7jnew5SLohFX94Misk3kEXpMMurjP2oI2QpNmbIXqKCrpKQFRf3hdCNIayS8PNp+4wgmbIajQ8aBAs+A+wNhkwXnF4MYcEaSP/O0cotzmcFbSR96dES6RM74tZc4Q6y+KZ+9tmSYH3+Erx5m52tICS+RVffDuRTL+8olkuUgUgpDjuFAOw0Oj9at0BrP/oeEgj9neobTh2O51AsEmT9vDT+pflX0zb7antf+lSf5T/H5BOsTzCHWOKl+ZaMagIkxJ0xK2tUHer/wpgpjnCJXGAI2T2LH2HWqOojglwitnxK9dNA5Lv5GCeaW6bw9XNueQGFsJCyutTsPpGA3ZHQ0wMSiUclx6VbpHjN/fYTKuEY/Y4GEwQSLiCbBa+1pWop194j7XgDdpI01OcUv1ffwGhJ0GtG5qf5zALtWXGo76qxzwuZ6TSd5UomB0zlqmPy/NxiefSpnoXzcOd3gkoClR5xbtLDrOuwgQgzbSvs4gspCcmxts55QzYTGopOFXWG54JurjfBgrIEKPVR91HpE9t4pknYyJgsAx7skgrB48jNR5/qfzP+oKi/mKfvZlLGWkhM0ZdYOTNfJfAAiMYnBPcZ3fb/MwSVffTuFGNTiKMoQBjm7YTAXDQyvymh1lcItAGL7BDHmicLvB7Mi/iNlKiug0Zbw0Lw6cGWnYX5dJ/kXd3blA21ziWHQdFDFyOVcFzx+5qo0Jzum0dEEr8s3HsYMI9eln1Et5sM5qF4HW7ViCgjoDwGfzoPixPys4hOLOA/XLdTlBDwJAyXk8GrdhWLANu6mj8aa+xRYVddwB587O9DMz+RH+EtcYqj8x/r5KvLDUnH3bLuZH4UU0ZS73Piu07WiVFt18ZTTahrm4mMVKPl0zGN3YXqyLuODGUTDVFuhGtxEzIsLC8bRHTXgwxy4UP4yLl7oXw+2GEuzYTUJ4wkck+ZLhmbm72slFMScLdqfWbm3JeuwNkxQ55eD/2OtL7Jc2oWS2JiJVHzlsq4tnfx20LHm9pgOVVasayaUgaYm/sV4rceJYj5Lu/i9795RX64k7sgLJ5uI4X05Wt7mZXbmd/1xW4oZ40SROozu7EVSnFldixYj7j7dYnETgZ6uSjJh1mRgHiGBRPZSRPxcjlEMBDA5kZg23gXkNKIbbxqlA0buj9XfkIpUHz04WYNwSDKX8ych5QRPy8NHUvYBzT2EFZ6IZ0nmY6Xw1KcJW6tAhUOL3fjTN23UmichmA4SJXjx0yJWrOdxF/bvXlGUFegWGZ1Y3mjMYZmYCGdCAFOcc/yAIqN+37Q1O5esfvRwWsMM+ZZfB218nsB/PbSehhcDx64jSrfBB11Ytd2rg6PcvsIbHxhbKo8JnYijQ8aBAwyA+wNhhWpRpn8yvok2IHDVUWKuF89sNsIpWpaxlW3Bv98S6odgDs+9n35Qz+8DZLHBgq4uYiiycGI74DbkfjVpnWH6TQv+iRqBUxlgLjuH7vXY68pMnf6qhU2b2kI7Y6ODns+DSgHxUP6BPiKEWR+Js+35LSMGHL0sDifZEq1ZJPtqIYHw2S4XmWxZNgzJ4kR+4TClfsQWeJjjFtY+0G8F+t3MdsntfhFMFw7ZNYG9smF5P87kAxjiveIL3HmeZrSowgKr7dR91nwDFM18HfxtUKtTYdRbNGwjrINh8wzHQQLWCm+wBs3Qgp1AKJE/FAu2i+rCLuwzSnPKV/OQJnzXmKZP+P2soDuZ8jNf9ozIeIpotxKA7IiqxLg03EXbeorhMsBuIOBjToRaZU/YU7Nz5abDs9gBCac7MztKyqNqvMx4ymGTn1a7ebd7p+VNwv/4rF2MV36SeRW61DqsjM2xZWfSdzA9RzSDcdyXFdMdhkwuN6p2y8ODubY59mqNLaWoQ2HkFh4tHU4M60CyIfnZlxrpHukc1QxIgxsbVTytdfulytWk3ZHhNUocdX1IRMbBTQH6zdQEHb2EPQqFGLKI8+D36eQiHRelkCSy07BKX3NwVPKquP2dsd2EQ2Wi/98aDLoOosLqxWigPjXsxVfRVGd2BC7TKjSpPBZ1h4C/Cfm1LTCqgCMPfkzmMZlaZO5xuiQm9oXfNfd3JKPfkZg6Qu1SOU4piRY4LaUZLXZ7Mp+Z71o91imOI4mJKWt/ZDDG7JPz1wKVP/wbp1Qp4kFXhN0R+3IxGVZsH1zKl6WJh1v8lBS0x9pnLByoDpHfgJQpigVX/SO41OojrU98gPtILOZ8YbqMgozvRz8uvZWA0qsP1ou9hOEhqo6v7N4ExU4DxG1LYwf4ByBab+JFUisbej4bSVPk7S2tDRcDUpXCLXDu/SuA6J0SdGRFmTTjDNR5b3/2pPGaJeBryoeB0gVkhnp7V8G0L8mdK4sCP17J8wy4BNtdbe4PeT0fTqDOWKyPa/qWO7SxvAaMTISJqmXuT7FX7hEWzR9EmgQf2x7mMI85D/NxRjKVUM8SaVa3lxPVkr4ftq3JbBJqWs4oVwEh25szqG58JM1ZeA5IUdAGF1U6W6iC1/P5KBV9thJXwD/FRUsUX3UC/j+9BdTAjPjpQCn+2M640ChOeFR97SR4JfOPzAgEMmgChtCr94TeNNNMFFNTzf/f1QypkuE5H/oreFyhlpPFq/BHVs/aUrfmutnkLe2B38Ada0YcPHbFsJH6B1yjQ8aBA0eA+wNhhcu3rW+KaqEfZba0JvM/TYc/pVoXRT2i0xV7wj08IVDvqM9sctiIQ8gquzpuTLSFXVEkvNaCffEdvzxOs7aXSx35fjdw6F2vrDuNNPKiDLIRVPFJZjB6hQReagU9C6Vm4SqgssDZ/6kiEgyLUFS+whpD1f+n/rYJyONkbUaEM4we+hxsu82MI0Mor/NyQ9auFeLd6Z8PBtOfwMIL5LhaO0jdhD4H/kPgWjSwn23HvG0SRWB4J4a5HiQKazEwKDtFSjuNJB4yh/JQAYLs+dSK+SiKZqSmp+U5sdpEDh2DmoleGRCKYeG9+HDMqXVsB7sLfWeqWoDlGk2d9ykgYb+ck84gWrWE3/grtGzVP1/iSu3fvCWM3r6swUEJwFzzTycNYmkn0MzPOMcbwH6WQ3VkArdQFo77sa1QycWeYrCQRWG3WmsS3zueBjngdmCjk92YeCAT3rFxc+5xN8Wyj1LWFRv1MreEQ7KWWAdOLWRY6QfMJU0HUrNcAVi/c9ektg8lRQhwSbKPhU2Onwx0b/xUGKjp7RYTRzidPSJLe3iJB6nFZmunjIWLWF9fr6VdX6SR4P7CJkqWwNW1FwYeMciFnGsj8Mh1yXBJBXuN8G18+d0G9gHxJSINj5KnlmxXNOfkyxhiDlAliaIBk56qVaepu/nFtpj6y41NNu3OwQO+uHrrndKvHyYNZHtl1NQFMU6ReXR6ogw11uOrHLSuKidv/xCXfZpepJMfRtCnzV+O/NvvE0kWXw6PLQYCY9+bfsbweNwjT4mw+1QgHnDBzZRj+bnqvQG+9Ley6ck6Y6YsfI4OL6g1myD90GbLpQMUe511LorXR28Vq2tYa6v/fELFYTMo20f96F0j7Jtn97bcOw//QRPrixD0Sceb/1vlJ6/bs4cSprz3Lh2BUlW2S13b7YOcX7h60oJx3WEQ/Jyj1b6m9srdgVEuDwc+EpwthF44OMJUXzOZ7YGiQSxcxbdAW3aWZxQtn9baTYRImfD4sBm4OK+DoLGq5FHM4bzXL4fSU0QRH8cCnrPwnVad5Usfg1KJThTbzEpeaDTpIkqwSkLz0qc2wj2OaMnm5+GqVdN3Y54KjfvCOHduLr0V0rsN8OZsc3Jd9xNs3arnzvRNZyq2fXhcvs0H3HB5CheWPId8QrBxSdb2DHj+EWg/LRj4cCGNHFTVYYtKu0kJJ5g3GDCoAf12I4DG/sJGLzI/m/GnGtlCgi6fyFDH8/bK4jtLhoANUYb/SOvjbkvOoUjfCu9yadKpjp8tInlJg7tsatijQ8aBA4OA+wNhNULZb3sCE8hmeLEk9eRMAxQW9oDpNyfCBN3xxZrl4Uddt6e4mkG7wHul/PJyPi1IB++RFDlOMUsLKBQFD2Y+aK+oAwHumxSeSQULpHe92+PCl4QaLLlkzP8cFJIvxtLjLxT0UyxUGmptmEEsR4tTnc2FCmIvzoSi4Hcii8ZeYoX3pxaEGObqKG1yni1yZN28ESoTA7TRFluE7FlnYQJx64eYAbQ5OXogOhz3jURi8zWoXqyi0LUA6bCofeUA2RfHNwBR4PI9FHAXeGfvoZjEHOQoVUhvp81LRDI8OsWFVE7b5zbEumhHokmjgbqZ6nOxlBsQSeo/bv+pXi70BRZLYcPheF2QDxDljPwbFX6uDaFMjPDVDxX1tQPWezO4yMowQhxk9SRFSjbPH2cw4by0ptW8sCdshD051nDms0l1g2GTn4YE+JiHxAbX/ituF5Tnr/5ObGXsZCANXBV1JX3CuszBrtk/lz0desAMFdFUtl5yFLWVQqFoGo22fGAoG8PC0PNW3XIs3boe4asBDESrTku7yPOTRZvEwl6I9fTDlZeAntRjOLlRLyiGhsRRmRCa6CweUJblXsPOn/oWm7OPm0UZePtI5yLNgHBhMBwLuM7SjYkhWqBy96ZSuUIUcuTxwUg2PYv5JDzmQRLKK05EoxjB3ZZZcTSz3esxwNnYhB2RTfoTTUF8pobr76n0fnaGnE47+c86eJpIZfscHDlEXo2LfpO68iuUjiHby6yllRpCFd9ZHt7QNk4R8U7PokJHYiw1BOtkDpvJnGii8QWmFWqs+NkDLGG6BZjvuZwmIGtLEUYLKi8e9QHQCLD/GUi9GKt2lSImrmBZxrYLL667YYbzGFnxU1XLBihAOUY8zaHokm2WfU77rSynUuLNahCDSStzPCNrUtMPZwTMNUNBZrtICd7dMbdiMWxfA3SX4D5jsFyFIifFAinbjRyEHlkTk+yAVh84IsrERuQDZuwv8Ezu5PRy4HmtVlK5FcVfnSyDzYgyT5JmU7RLQAYvIyIIv2u3Jd1FqZUrzFfM+4BjtlJ0v7CpA9Omq9Lbmnr/WBETFzzePiaHQzSha6Jtp/5sulbRKM6Vip2EmRiB5VKdwHC2MLWhWzaWMMxER4IptwydCXpYy5sShJb1elnVJwZiKMrgNbuwJEIe4HNXTQOasDkdH/Vans9umt6S8ul0lljhK8YXuSz98TN9QguWTQZxYjTexMsowzfb9zHHCVWugoG9W0FsK8YqKSOiUu6fxCaDxwfmA8erW7pCIsQkwIGjQ8aBA7+A+wNhue4r4lEk6vjrH3Ep+MmpVRfdeuQ2GRlIfVzYe22mndApXs235NQEeqwL1A1JdwBO8ORPrMuJd9RtKZNray2cIAq4jxU3PwN3gzbjxclxoxPB3yNMwQCqrPJyAWbkt10d61KUb9wfxow7bymeg64uZflkh7PfsZ7i94+f7hanMyPXigoi8khtd0UtRIU0uNZbbHTnjiccdRx4uHm55FABmoILPlnoyq3x+KSIkf9fJcTizLUizQTGkmXqPhM2mDdS1m9a6vTb+ymam0xPbnj6Z5KBH0mYMCsGE7W10Jx+ymrDFTHqmRekkC7N93Ia1oGzTT7SlaXUSwSoZbbyqPWrbibVLSUf16A6ad58sjScXNAUZsRN0cdqK24VtJnFj1LOcgtKzW7Ke8rkdjXv8Nd8oTCU7j5syCwv1egHwnwbtmGF3nKPxMBwLhG0vTF/A4pPzvC6P6qM7tLEw9Hld38TL95DDx/dN6yyefltCUGTm+h+YNFossKQGO53ZIwvU3V8AG2pWqKWDkRdT9uwe8Z5Ui7GZREZ1OeN/EOGM6u25Lt7n48jSn2RwGUMTqeuIjRYrt8WN2lP2XYVCG2wL7V9kUwNNOxqROG9A+3VnYAih4qtikTaYoGmRfYpme6oyAPtNM29Bcl0Rk2YkH8GfEiepjjSw4tGbdM69zz5YFJWFg296fwdjOUBsaSLg9aRouu28m04i2aH1R6YvHAL9XUZrOx9Ig/nkK4hqlg1VMuTlErdfELhF7iG9BQzOMkARNGfqaeWxIVO4wS8PCMJSCqlvIDzgu1paaXsGGMfxxgrzw5+PpOH8mNWW44ccWTI79Rc5dlpdI9MTXPtpJR7NwyiYTQkTKx+JE4L9KVvczLimQigt3p50bqsaBIlfvfBRLtt7ezZUk8l52GuIbT2P60yCw/Ft5CTagt83a9nXQqC1h+db7dSD1y4UdSiTD/WQUvotqc4Rmr+0AKsz4NXf5QyyxQQlRSEPORsUjCIKx5KidMB3zoW0j9GnM5ZqCksPxDLqtXo3i+Nc10CeDCsl4CQg3/hogEbfxRHyupxnY1gR3V6zlkgES5OeILCoj/7WBzS7+0mEocp7zBaUfPaTzOK0DRU1dqZep+wc/VPbUX4VWF2SJWHgn6WqiS1pBhPkg/Bqukvkq+EWCvJCjUs4S4MNgNFs0zS+4EMZJBs2w5XZl5fhf9NNnF+oXsatdhF2RGM+RLI2sarmkRCvzBSMtmEI3jQgmmx5FphtWvGvqF88W9IvfdI3YUPSop70DFk8dCjQ8aBA/uA+wNhhd4buI/IoO3vy+QT5CUUvoKAmJKxJRVD9KGHSexIG1DlFPpVuCJPKP6ZJCXWRZikny7Rla/KfZlJOChtPUweogjUYndyQm7VhBkS9AdOyW4vBv07UWAmglI2L2HPlQUvpDW0/chx7m8q5uG783AYxo0UPAphsWQz40c+JoCX7XAEPivVt6AagetjkMqPThUAF06djLxoJrKBL4H5uNusZn2ZB2a+4xwaAvM5t51WCQ2txILlrl86ZKbfMYwGWW2jks7j4Gix+cciMMZFvb6svGwVbFtcn6Gl/6TuPGoS98NnVvSS5pDJjbIvqdiFZDWcwLMMLiW2P+fjaAIUonF7o5OxE9bwr3FAkplMlVzWWld5hhHhdHAsc7+7nq3iB9CUTurXAr1ipPDoUfowIGZEaf2hZ6BWP6wvNxTWV2EJBmGJAUVStBPrnqLmn3/PwEAFGq7qm7x1rXSSIjvMnD+WSizrmxL9SyssZ2JuMfTtexi+iHoAXki0hOZ6DOqWDKFIHfzg5jObRSFWz3oHb0UDCfTS6Wb7dOVFQQpu2KX2NSw8++FfiD+NOG2MxnzBjdjo2WpIHaAm3IGLNVBEjMEgNuXkOyx2/vW2aLHdT/21VU8RObWca9wgZGEjkcnPy0UINZnGpzfSbzet63vDacZ8Q3lTOiWNvQfKbGiNjFMa7vQRNU2kY7C8+N1hzF+77V+P2PpIxHuGJVLhl5BDwBGi6tMhaWz1WwUiOTaVZyQUV7jzmk7e1Bwm+E5ghorTPKNI43czedqKGHno3WbC/+GYCJ8XETndVrgla12N7WhpClnsPN43hwObmu7LDQYLiv2EibDV3ARRm3raY70hMnvdYbdUNYmN21P4EMrdvAxusksvrquY4xCAvxW3TcQyJ1FKoM3f71uhjfDYDbXPCkvEUecRqVRTt2SiXV8MxpXMxvpf3V2ej36BbZ7OF64CymjcD5dLIFCbw0KxxrU2c6YR4Au3wsmnq0ocMDrBk6rmX/T8G8t8PD9b43YFFkZuYCKRZHDrANL8vsOpUazx3ZONxzfu7Lz5JuyYsOXoKFPPwAIICfO5choAF/QQEbUSPLkbcXl0LSo7MWHdAbCydu6eoEAWekC14ygpb+zbX6yOlSq9RE09t7nA85fYZo0Z9xSy5SSWBLyilz1BehyWPgLJaqWNezJQDNMcDmUSUnVVxoZ6avPOZxrVyXCqVcvjTNnqOApOpmxn8xvHVcmRocy4wYUYoDu4zMES47eSplUoLhZZRWx/VjusHIZhUsN9ZRajQ8aBBDeA+wNhumjm2Ykc9LS8atZ72vSGHXbq5v7djJyk2HC3Rc/LjRvUTCLwbBtF74UZ+EAFfGsAnVePARS09NJjkDzpY+XlNsU5LIEJb0NAgca+foWelDk981zSEBtPW5XvGTgmMvQkr0SIwHJKasT2iXOjeURE8nJmQ7PJhLg6EhETkVV0tAfo0lI0Ika0BV7rXAfC+WguWfcWwE8gw37oyC9GmKTvknanBr7ko8UM2rbw1CWMrBXzGDUlI9rom/7Rwgz9O0ADKrWY0H/o0uIhiWO5lz3RjlnFwdcDCe1uqsSabPcsz8NlGjMk3kXBZ2UpOBKwMwTXc+ITJT5VQnefthbGCzwI357jSStk5RDm1wcn2nDWV6Vppwk7PScxU60wyj9LqAwN9t9ksqru3b8xkdT1NtG7hhW91fHfWi5Pq8EJKIFZvmGF0ZDcnI+luTtjPJFIhafJkWCcua/hNPSd9bBJem8PcW/WsuGPiYqsudSalKmToBMBkTGdf1hCD97yT1KC5KhAgkfKRDomHV0ymUF0pqLxpoTjmFlMQ63z/uqnMQNW/+qIlIGqA8DHu+kQtI7Ff/GPiLfNpVCvF87hUNMJ4VbAtVrcjX9ffUT3fAr+3JzAhCjImX1tfNcogHjqOPBwRRj78nlVBoCuUZWHrKH6fYD5Szbf4IECZkBlr3t8Lo7e00hHyS9MqeUlSviYuZsK976UJxdIg9JpzPc1VlefCK9AuC8uXs0Lb0yX1V7nlLH0JfxpsrCNrrOVhyRnGHH52elGfxsVxq1xrzm2/pLzQQD/xMGTI3dCUiIKK09DdOqnyp+GAj6ytZy3kOdwXE7StpM50mX5aZ+vuzCHf2rxjTZRYZMJFuuOH89VCQpdUCmMHbYbh5tGh2ohELCZ4dZaPHwTus0jcFZgh6ZnDdR1RHdsze63thHmhCvmAV+7mrXIs7iburlY43iSQ8sP/fw4iu0Y7TlwxodrOggRpYGEpEd8BhAn91VPIFuM2fxVv/i/WQrfqS1RpYP0zEKMXZ++7SY3CG5k0v4rWWnTwAINUZE0QrNCgWq6f8kQiIIhpstanQXfzMw0HNGgvHsDdXFIE/3KDyl1HbekDXtciotdmHdmIi/cugHFzD4BlUdQaX8IHDibWA58lj/Gl5OWcqlD/lZCqR6d4M7VbaoHVptaPYFGKNI7PhvLmBDarcO2GEfCmZ5rNeiJJGE3Xtgb/rRs0Vpq+dl1BTQMh6SfthDFfqGT45j4/tXGYsd9NhgmsiE3+BjUmmjWKc8tbe5B6O/nieGjQ8aBBHOA+wNhuoNsYIEvBb0PpGG9c15eLioryvVe9L6RrrxQTvPSRwUZjh9EuMYdQ8x+rkWIxlK4MmsEGHFQeopRMzVehW2GBE1HL7ZVRgg4JSTuyFapFSM0qao55FJqS72bXbEjz+f7UUWeed+PraNQlHEMLnqLXz2nV7vEM9Z5On9FVYBiEBfxf2iGujzL86vR0n0lZaNpYTcU7IoGQ+FkNUWwvvF5AjDAEDt9f4ybiQKwNhysZyy0qTkxUP5wEsqLUp+kcjT3cbdJn2LzKU57vdSr8Sc3mKPVomQu1bHwZ+zqjI6JG7jRc4+q9hOlgTqtMwGRdlYQNE5ZljDWGljLn3Q78NhN/BY00PlFDSts5zXr/OBSAiwp+mat8n0QHBKeERY7jFNHoz4yRlDqc3rXaIWbUQDdYH5AuW9yKD8vyXtUYTE2/mGG95BtPS5rwgLVBr6HYk+nVEbqDDs4wQ/TyKOdakiVaRRwcy2E7uDi6EMVKsllejV1e9iNd4gBgsz/lY1Ueq5xrnzSVSQbOMRz5LgEGnEm29E9KjqnXgZXXfxpL4fwpokIaezJKtGreV9Cjor9uIrhj1VcmslMklYsXFfRuBdm1KSkUWF+XC4aCt4ZgP9HK18b2yfmc6ysAbGnBzQWUl6GvT0yg2iNzerBZ1CqGNp4PrVZiaYzhnvOTpHgLLPQXnM3qdDDjNXU9aNPZX2KEyaN66AlcMkNJRjwPdtJFgc8y3CpzECPV4SeFugp6qTekRUG6Gh2EFQtaKhEQkoe8UIGhxwtYrkx5CeM+Bpg81p5jdBJ0xpD4UGMU698GHg80BKIA7bCpvZ4GOqEpQ5iWq76yiFa73n4LT3VqRzcyoSTYYkiRHHzMojymwwcP0cqV/UqYt2OA0THj3pm03OfhzChun3gNHxAp3yIdL8RuMxInf2xABt5jqI9Bay+hX+f4qDzq4ASEclCBD2rI8yPcUnjKEOwV5+ncTWriE4CemZjlMegpGKqX+usanGjVZYwfD1ObKMFIs9JjLD6qQunkaJRDi6cp5a+xO41OuTiFniCjJA0bmhbUmZUxYLyS/C0x6klkORJuzQkg//MW7IlWoYAJpvSLYS42wsYXkwL4Nx8PPvtOSwnaMNG07yLBY42el2mePEBSGmxOKqApDVjZknN21FbK1CqIG0L6CEP0Bl7R0O3o95rRbnTGSy1jyP5fRI54MEJC1ejFmf9ro7ipgRSjQujXAkYTszsweLa5ZFnyfLhfnpxEdPo3g20S34RSb47E6/kbJ67P2Z85EO3BwWjQ8aBBK+A+wNhheAyiBxzvsyrXueDXKmF6Tsd90pDqpiYEYG9Y4SULrFgJDh42nZgZPACSsuXDZSNYl7C8I/5lp8KqM6u7M+1XZjKf/GYIF/bNDRaKQyv/Z4/r3vLf27W4TQz4xmrorOI3MsHNYqQqEoE2HaYNxhj5vFhmYroS2otcx9GkDXXaOgAyMEPmQzRt1Lvvk93F6Z+vjYVUaTgUDYudpMY6h0C6ES02KC/2NapfxN0MhYtcMoo3YHfnsAfNH8wqr3w6EIwaTnZRubpGeHDZOFpUkGfvt5DONm9tyoRvYLfoMFSRMQQJ52omWRjTLIMvTizwlxHMbGLtMAzkofZREVzZysHoxzX7t+uDmmoVe4UQkujH+G2ZCg7af8FotPOxTByHqXHx9i6dzV0Kg8Y/4rBClwmVSbiQGliRg0u2Ef8Ty202WGGsvbi3iyAlQaTMaFppoX1CQzaGeOyoC3uHO2687at72tO+LrzAPy5Tv24PhX6+5NeH63WmlBxjBQe5FWNsVmFRs/LS1t69y/0itsCnjD56cUx+XP7ReyHZQxHvlte6a5Rnbi3EaF62Y4YlCylUGlfsfo5EMgMASqIIwE0ngqVQre9a1zdGoKd++1EHOH9UKuo0ohVOtNSIOoD2GOhbMglY/J6EYk5rLmSmCkrrOyL+Znh33RDLGRsbo/4v7etjdeis3CFExglzD0WLI+20K0KabuyETAlvIEgPTjdm/bX08Cgmt1dGrjVKhi53FI0cqIkoVcWSe0nb8JWGkwYRJbaHDksQbK0qmrQBxQnmnpfhF6XjUZe37nvoGsaqdeYIUuUG6MVg32Dq8gdIX76IkmPMT+uxkjdK4+NQS5OQVtwYbvDiQzThSJMX/iqfFp92f99aAH9g9fKDWj/eiMTYXZDjn6ik9M7ZZixdar6NKTnVt7JGEdgfGDsfFG6GBsOewmefhdPM7OAYNE8s+SNImEn9eYFP+aiiBxKuJsyx+hGBNK3ivIh/jIpa+tA41sfuH/KINCPqwMFB7W06sEu/PmcZR5LHy4HsKw1snW9plmUr1CO+e7OqJQF2n9KmbtYakLGdWw4YVoIDu1W8rir1mDMGFZ9TMVRppaFyKhaeGPD9BTiPHbxrC4fAb1nrOXVCVUMA7aFNkcRjJg+cC+aJ8Vxq9njDuQpySdGUD0Igl2EK4e2xUvddkUoUyD+OjDAoa3CMnjXjGVmXh+qwnTC/ajW2LutsZvTNgOjZbD5JwmBWQfU0GQSGW+UClwXRoP8WnQcEiLshS4Z3+FjBS7nlrSjQ8aBBOuA+wNhueCvtIPym5HKFNsIm1OqiTjWklVvuGQVLi4gCL8j06CYc2HRdZcn9AZ54sDcYtANfNHXd6m1Y06WSdetnufZ18p4xaybw07u7bDhPusa5NoQz3c2NeLhJqrkLRysYchD0WEEowKpJO4DvWWsFPxLj6c9f/19fyaGhepQCyTdfGHhDwd/UB4vr4BcBEz5v6lDThSrlfBOz53pcYrdcVROnWn1EPM4iuRaGXfVJtAE3jjBAS3srAnu8wOFaYv/iH2/6ZVLNf7werN2lZgHh2ZtoQuQHyS3Eu1+2bI3ly4IECn1U0RiQFyyiRisKQqE71fJhY0RWg3HgBTZo2JLPuTjJxQqhyIWzEICKuas5E9PCKcDLLCy2GiTfOK5GQkGPl21jRUCuvHRPzz9buorkab3hNZclGr1az2Qq4FlUZv/52GHSVwtQu56I+7qv7uWy6cO8Z+mGUyU57x+m0Gp1KsYdJ/ONoG4UVpv2yMzXlCExF8M7cqpat4hCnrdz1sZxuMj7cO3A4BVor6aijrHFNz7DmZH96CzTRZIMHowQU+9/KdIBoWZcibL7vYUix7Co2yi6C2IF8rn8CjgraUqoEC92xh1OeHP6MjQMoSGarBqbUb9pO4XbyWbu3JVW9TtRk7rOMibUiVWa5tchqgCmdGd3BQxg85UxI9+pnRSk6Ua3u5y8HAvJ9O9UvFmMfFkuH7KuqNSEPJqsgXsdRxKAo2hR66OCVzitAR0RcyG9N2xP53FZWbZ+9yN63AE/lT/FS46vznOLJPrY2zOGxszWPBjC1q+1fihWhhegXbcz2vtC9YrsgaD/8OxadI7jqB5bL2VQ/EdZix/rT1qNZ1GgkMFYZO1GpzCNLpJvhN5veW/89MUBEGTJXztMUWAq+W2Rm72LzRqFtSfAsu0TOfUkOiFps5X9udO4no1rj+yitq1AB4FfQ5bGaDCFtn2fxlEohelxL6vMgSgfaGHYEiFw1M60gII6mJ7JmOD0KQjORox1qamMFUua0X53zlo+yAfKqe8inFtYkPvSmZwlE65c9SI5Gsr14jOFRWeBcyabJmHKYQcjjjMEkj1U08+OC2IXta1IFpfLCI8BxBjvchcXY1RyDM96UTuKQU5PZJpAmPfm/nL+B1zI7oQG0VI8+/xgXNo+IzsW7/llXOatKthpUi2qCduXC+nU5QpSNgyKftT22WxzBesaZ2mxAB0uchpQEk0ANwugoPkbv/qJ2T5kKHBi24p2fkXdcPJD1Vv9DZoerkY67o6+dytHMtJIrO6GFo=","6"
"","","","","","instructions","18","71720","0.0-7.0","wk6bdmjcc4ft5q3","wk6bdmjcc4ft5q3-2024-04-14-06-29-50","27260","","[{""page_index"":0,""viewing_time"":27260}]","","",""
"","","","","","image-button-response","19","76224","0.0-8.0-0.0","wk6bdmjcc4ft5q3","wk6bdmjcc4ft5q3-2024-04-14-06-29-50","null","","","images/celebs/timeline_2/1_Muhammad_Ali.png","null",""
"","","","","","image-button-response","20","78928","0.0-8.0-1.0","wk6bdmjcc4ft5q3","wk6bdmjcc4ft5q3-2024-04-14-06-29-50","null","","","images/celebs/timeline_2/1_Muhammad_Ali.png","null",""
"","","","","","image-button-response","21","80729","0.0-8.0-2.0","wk6bdmjcc4ft5q3","wk6bdmjcc4ft5q3-2024-04-14-06-29-50","null","","","[]","null",""
"","","","","","image-button-response","22","85231","0.0-8.0-0.1","wk6bdmjcc4ft5q3","wk6bdmjcc4ft5q3-2024-04-14-06-29-50","null","","","images/celebs/timeline_2/2_Paul_Simon.png","null",""
"","","","","","image-button-response","23","87684","0.0-8.0-1.1","wk6bdmjcc4ft5q3","wk6bdmjcc4ft5q3-2024-04-14-06-29-50","2450","","","images/celebs/timeline_2/2_Paul_Simon.png","1",""
"","","","","","image-button-response","24","89485","0.0-8.0-2.1","wk6bdmjcc4ft5q3","wk6bdmjcc4ft5q3-2024-04-14-06-29-50","null","","","[]","null",""
"","","","","","image-button-response","25","93988","0.0-8.0-0.2","wk6bdmjcc4ft5q3","wk6bdmjcc4ft5q3-2024-04-14-06-29-50","null","","","images/celebs/timeline_2/3_Dolly_Parton.png","null",""
"","","","","","image-button-response","26","95515","0.0-8.0-1.2","wk6bdmjcc4ft5q3","wk6bdmjcc4ft5q3-2024-04-14-06-29-50","1524","","","images/celebs/timeline_2/3_Dolly_Parton.png","1",""
"","","","","","image-button-response","27","97316","0.0-8.0-2.2","wk6bdmjcc4ft5q3","wk6bdmjcc4ft5q3-2024-04-14-06-29-50","null","","","[]","null",""
"","","","","","image-button-response","28","101818","0.0-8.0-0.3","wk6bdmjcc4ft5q3","wk6bdmjcc4ft5q3-2024-04-14-06-29-50","null","","","images/celebs/timeline_2/4_Robin_Williams.png","null",""
"","","","","","image-button-response","29","104521","0.0-8.0-1.3","wk6bdmjcc4ft5q3","wk6bdmjcc4ft5q3-2024-04-14-06-29-50","null","","","images/celebs/timeline_2/4_Robin_Williams.png","null",""
"","","","","","image-button-response","30","106323","0.0-8.0-2.3","wk6bdmjcc4ft5q3","wk6bdmjcc4ft5q3-2024-04-14-06-29-50","null","","","[]","null",""
"","","","","","image-button-response","31","110832","0.0-8.0-0.4","wk6bdmjcc4ft5q3","wk6bdmjcc4ft5q3-2024-04-14-06-29-50","null","","","images/celebs/timeline_2/5_Eddie_Murphy.png","null",""
"","","","","","image-button-response","32","111894","0.0-8.0-1.4","wk6bdmjcc4ft5q3","wk6bdmjcc4ft5q3-2024-04-14-06-29-50","1060","","","images/celebs/timeline_2/5_Eddie_Murphy.png","1",""
"","","","","","image-button-response","33","113695","0.0-8.0-2.4","wk6bdmjcc4ft5q3","wk6bdmjcc4ft5q3-2024-04-14-06-29-50","null","","","[]","null",""
"","","","","","image-button-response","34","118197","0.0-8.0-0.5","wk6bdmjcc4ft5q3","wk6bdmjcc4ft5q3-2024-04-14-06-29-50","null","","","images/celebs/timeline_2/6_Halle_Berry.png","null",""
"","","","","","image-button-response","35","119270","0.0-8.0-1.5","wk6bdmjcc4ft5q3","wk6bdmjcc4ft5q3-2024-04-14-06-29-50","1071","","","images/celebs/timeline_2/6_Halle_Berry.png","1",""
"","","","","","image-button-response","36","121072","0.0-8.0-2.5","wk6bdmjcc4ft5q3","wk6bdmjcc4ft5q3-2024-04-14-06-29-50","null","","","[]","null",""
"","","","","","image-button-response","37","125574","0.0-8.0-0.6","wk6bdmjcc4ft5q3","wk6bdmjcc4ft5q3-2024-04-14-06-29-50","null","","","images/celebs/timeline_2/7_Amy_Poehler.png","null",""
"","","","","","image-button-response","38","128278","0.0-8.0-1.6","wk6bdmjcc4ft5q3","wk6bdmjcc4ft5q3-2024-04-14-06-29-50","null","","","images/celebs/timeline_2/7_Amy_Poehler.png","null",""
"","","","","","image-button-response","39","130081","0.0-8.0-2.6","wk6bdmjcc4ft5q3","wk6bdmjcc4ft5q3-2024-04-14-06-29-50","null","","","[]","null",""
"","","","","","image-button-response","40","134583","0.0-8.0-0.7","wk6bdmjcc4ft5q3","wk6bdmjcc4ft5q3-2024-04-14-06-29-50","null","","","images/celebs/timeline_2/8_Cillian_Murphy.png","null",""
"","","","","","image-button-response","41","136889","0.0-8.0-1.7","wk6bdmjcc4ft5q3","wk6bdmjcc4ft5q3-2024-04-14-06-29-50","2303","","","images/celebs/timeline_2/8_Cillian_Murphy.png","1",""
"","","","","","image-button-response","42","138691","0.0-8.0-2.7","wk6bdmjcc4ft5q3","wk6bdmjcc4ft5q3-2024-04-14-06-29-50","null","","","[]","null",""
"","","","","","image-button-response","43","143193","0.0-8.0-0.8","wk6bdmjcc4ft5q3","wk6bdmjcc4ft5q3-2024-04-14-06-29-50","null","","","images/celebs/timeline_2/9_Jessica_Alba.png","null",""
"","","","","","image-button-response","44","144112","0.0-8.0-1.8","wk6bdmjcc4ft5q3","wk6bdmjcc4ft5q3-2024-04-14-06-29-50","916","","","images/celebs/timeline_2/9_Jessica_Alba.png","1",""
"","","","","","image-button-response","45","146767","0.0-8.0-2.8","wk6bdmjcc4ft5q3","wk6bdmjcc4ft5q3-2024-04-14-06-29-50","null","","","[]","null",""
"","","","","","image-button-response","46","151767","0.0-8.0-0.9","wk6bdmjcc4ft5q3","wk6bdmjcc4ft5q3-2024-04-14-06-29-50","null","","","images/celebs/timeline_2/10_Robert_Pattinson.png","null",""
"","","","","","image-button-response","47","154767","0.0-8.0-1.9","wk6bdmjcc4ft5q3","wk6bdmjcc4ft5q3-2024-04-14-06-29-50","null","","","images/celebs/timeline_2/10_Robert_Pattinson.png","null",""
"","","","","","image-button-response","48","156766","0.0-8.0-2.9","wk6bdmjcc4ft5q3","wk6bdmjcc4ft5q3-2024-04-14-06-29-50","null","","","[]","null",""
"","","","","","image-button-response","49","161766","0.0-8.0-0.10","wk6bdmjcc4ft5q3","wk6bdmjcc4ft5q3-2024-04-14-06-29-50","null","","","images/celebs/timeline_2/11_Emma_Robert.png","null",""
"","","","","","image-button-response","50","164766","0.0-8.0-1.10","wk6bdmjcc4ft5q3","wk6bdmjcc4ft5q3-2024-04-14-06-29-50","null","","","images/celebs/timeline_2/11_Emma_Robert.png","null",""
"","","","","","image-button-response","51","166767","0.0-8.0-2.10","wk6bdmjcc4ft5q3","wk6bdmjcc4ft5q3-2024-04-14-06-29-50","null","","","[]","null",""
"","","","","","image-button-response","52","171766","0.0-8.0-0.11","wk6bdmjcc4ft5q3","wk6bdmjcc4ft5q3-2024-04-14-06-29-50","null","","","images/celebs/timeline_2/12_Billie_Eilish.png","null",""
"","","","","","image-button-response","53","174767","0.0-8.0-1.11","wk6bdmjcc4ft5q3","wk6bdmjcc4ft5q3-2024-04-14-06-29-50","null","","","images/celebs/timeline_2/12_Billie_Eilish.png","null",""
"","","","","","image-button-response","54","176767","0.0-8.0-2.11","wk6bdmjcc4ft5q3","wk6bdmjcc4ft5q3-2024-04-14-06-29-50","null","","","[]","null",""
"","","","","","html-audio-response","55","183111","0.0-9.0","wk6bdmjcc4ft5q3","wk6bdmjcc4ft5q3-2024-04-14-06-29-50","3501","","","<span style=""color: red; font-size: 24px""> NOW RECORDING</span>
        <p>Please say out loud the list of the actions you saw. The actions can be said in any order.</p>","GkXfo59ChoEBQveBAULygQRC84EIQoKEd2VibUKHgQRChYECGFOAZwH/////////FUmpZpkq17GDD0JATYCGQ2hyb21lV0GGQ2hyb21lFlSua7+uvdeBAXPFh73FMO8eC5eDgQKGhkFfT1BVU2Oik09wdXNIZWFkAQEAAIC7AAAAAADhjbWERzuAAJ+BAWJkgSAfQ7Z1Af/////////ngQCjRBaBAACA+4P+Mf0Kf/XPyXEMP139JTSBJmUWOKoR5r9JN4cN0edxv9TpZOUwZaPaYqAi1de7xTekJ4NsakZBFxQv+mpxac3XMLnx20vn/3JIJRnF7WPZQ3H7ATlozQq2FGq3sNP0tWeVCXVPtDcwDScI9Hu/mr36gCkpR8EYvWsLwnOob5XWOdk1mxw9CTKV7ehh0B8Y3UTqy1YnrglOydjV8x8JUjaGVjcsgTPVfIymkRWqQSx1P8VRVSOKAkLOZFXwguI6F9mstc+yWbAknHApr6AAAAAAAAAAAACGdbyYb9AIrPOfTwhc+tPUWHaDHq2DcDw0I8xOJsA9yOs9G1r+pgtNWRm1hPcItVPVP6UoXMNzoktpAloElowB40L7fr9fwX+OFrS7ZQBKqJ46ZtL1NDrq5D24BCEwr55fWSTkhHzuCS/q/rsOgxlDwwxk2K3SXDB+pfV+TixfuvV74xwvFafdnzhbZkLCp5s53XCvZqtTgv5vq8cy6TBkx22T2WUF4DnBptr33jNr14B2ZMb5f1Vl2eLU+kRiFyPzxcvmKzvJlGhGuDG0UYTK8lKjOsSY9IlLKvgyWV57q+B0yL+mu35PZHo5wXCr9T9Hb8TJKJA3kkyZaAOEC2IkNXoLZM+cTnjZtDYpb+7DYUTlpzT+zb1egdDHNsNJ49tmaswc4Ulm3qIousc5R7ANbOqJGTtFOtLiLBq/EJWgLYoGjBURA4FvfaqlzZCJlWHq5zGCJ5ECa2e48xEWhzZI/Q/AMh6udRUIv4o0WAqxtdvLaNezGuVAalz3b5UMiHaBeYWzjbUqSBtaJxQDMpeOG1+09/LAgkXmud792a7CxnnbxK/NarO4S5Yz+O+l0vLtiiB4eJdIR8Q0Ex1j9Wi5fFPk7D9G10dRY67GmYD0RzIuJHxEEHya9vdggEJayM3tMfSK58O5Z/8gXYzPRQ1CFpdStTXVBA7ha11wRE/vX1u1LAyjAYiJ559GEUyzalFV3xKG7dlhhVfLNhJziU9xbYtE0Q/XrF64dsTq1Tc3lLOm4LNpOl254uC9MsE9hlC5QupcTLgcijzE0Jv2Myqu1jbBoS0+NNF3SCgAcIV560rI6pkzRTuqVknnxqphr2QSyehkzkd3w4X8E7grlWRqczoAo332SKCfVrpIY91iCsrlcRq8SJP6b4E8bAtmXt4X0q2r8WGk/rQMs86E6HowGSrLZJ1zlRyXHC30U5IXnQRokYnGQzq21gT50Bnjsr8vIUvG6AZb4SX2vhLx8Rinuarr0sl/WsqjmKqoFH2BFxqWHLYESWe9WT46ZGXrM8WkaXQYF+Ig63dpu7Qf4FCS5LWQafptuwk57I7dYo5PuVlRnNje3pcf7mT3jykKRXUgrSUwvWqdm//RNqNDg4EAPID7g/wL/wphk7HiqvVk81vaMNxmwvFQ923MJD3XdjwY//JcWXOX+M5WPTE9ojQjETawABT2NDsd30ygJhgyVgyAKbIWc794j7D+48yvHfCVYHkDmOdheWEiQzuBetOWsFxMWmFzK+B2RxKpJYB0wQ9HPPHNUMAYEcO8GShgdfhJsVcuJkK32JSBl+6N2Gz0ss+j6ocGE47kN3SyyPXfdw13jfqYpbHZh7tUoXp2XhSuqIxxCn3pPaTvVVlwMtPrGJLcaGRyMdfeWern1dUO3XG1KQAUnj0FzjmlYMl25qhhyHcFT0yZ97xLLfb5RRXY256H0jAi7d30G1yTcUKMIaKE9RWaKtK2YHWmw1OZM2Ck0Q1dMuKtE9RzyUpIkAWVLHzmt+IfFTkyzuosJESI8mGJIi6TFZrgWJCjvkLwMKc1GjNYSX6HK/RUzf6vNBQuTiNKe9+/XYXPMxu1pq650+bO4X1V/lmIl5iTy5mqTLcywjYCxi9dkgIfJw0SQTBDqjwZdMqRe+f5zyht3dkNw6gd5fZKL/uXd3rICFSzIjV1dR/nmrMrLgAHLh//NXW0Oq8/hq4uamyjVf7EXwIcUivkoiJ2HuRXzVRVcEl3daOK1iHxpEzPiyJ3DzDdwCM0rnQ6XqSYAlKnsxeFJGzsKFc7dHRRflujbSbG65XeP/aQ2hijn0u6aKV/Xo4YcFKRYmzGeKJ3/QddGDZvYypXIU2kmN/23lZUc3DmoYkmA1vD5w3hWeeJnN1WbNsSROlOAhR3OwYzV2HL5YwQmFOo56yQ0MuTx9JhhgI0dVB14xVXCqNfUH6OKDlmzQE0Ex7NGJ7YHgK6bIPJwJ3E+AR+Drt/UZR5ArYCbDMlH9OW7uwfTTXfEkJ01WsZEPu+ccrvYlFmdizznlCIVzTgUNuF0rl5oL+MjAl8AbAF4W5X7ootb8XO5ppAfcDqfMUhjgLjs3hDLWZs0q5rDcc26+Dh50cZCwIOhz07uvnY3AmLKiSbiL2whyw1Qwigcez44AfL8E67B1viKfYlQhprNSF3YcmC/22wE+wfqW5pcZrX3thlXdCUYNA7nk5gd8lFtYtJLUCrlcFvQk/FM32oUMh5X6E1X7z0QYFo9M2313ErKF7EftDv99zC2b2adhpxYXUWSzvNCNzkny1/uXD0LhUlRZvZ2XGbaFxHRXVzQNXzHIiRo0PFgQB4gPuD/w/8EWG7mkrOsnSdFh83B20HyUeVj4HfsPHG/bVZeXvsG7B9JY76NvE+Gj7MXAp71GxYyEF0xMPBgzuHAY/U37J1TSugffFsiw5yoQQpG6sitdHNYvDt7O+y9Bw133Xv4dxV24MbCCnG5gTZC8viOFx3Q5vIcAtrXrSgTKBX8aZPwzjS+MgL9VHAK2FtZw40a+UkIe+63uqm6LJ/3z6zROzy6GIDz/Adh7xTh4RE7U6rsqvnLjuxAhgisE8QtgtakHSnvrSpV0Gu3THfbCTgxTDkseiZ3ZFqc/pQALKTg8OR7vPhXCU24cQMKpENpHrkX5NYaRygr866oYCKptrilxlvJ8KKKZTk0v3MPzFFpu5ufgGcD7BRsn/iQyzqRxvwVIToj0hYZlHSQjJFZVfafwm828Ve56rYcWU0MCnq7mGTn0pm4yV/brURPR5yJT8Ne5EZhc0Fg90S4lMShXxGEX2EDEvNc8PZimc7MZGkvMyHSdzs6StkyMnrG7eOOWyFbIdOIWWhBLAU4R9RPtKJC44rLszfLKAZ1RjsKcnfH9Mgel+D4PLOHP20C+sCMLpLfKIvEkWUVAkXsAcqQncvIp937NDPibgMba+lLMI1FCj2ZBuhV231v4peXa9Yjeqs0nkLdFTqGZ0XHA+hMpfQbPoq8mN2gT+JcimEUkX2sc9jgkz2MYMcDwWaCIVRveBdc8CCMYHeLiweO6JixpeT6LYs/T2h6eT4JcEg2Y7rzebvkx6Ycn81Y3F3XojSJek+X0rNhBpSuusOks4bRNRfm1bsQtTuQPpn20cK/SdbQ/amXP63cqurFZ2YsdIQEQFx0A4PAPysr1ib+7IB2EY9YYj+GsroHzzeSkydrfVU7ReIRmaoMdJkighxgTUlwpikDXipdRGH+U2n8to/2oGlpQp90qibL/2xDRhmfclHgx60sUkwsQ6aWV6Ny11+EuMyMM57LwS3t8lAfCWDEJG8V4WW9hKOgjQ6BY+r68+m9J2eMgpQQW2E4oZlYjCw58eduyaLM98Y4f6WwdJlnVoU0XifGLBW/luPbtGa3wglLqERgQoQH9qEyzSCrc4exOcTz4c3UYuxEo8KUw8kcabgMp8iK7R9MRZLptHathzvg9FWiauSiesvVuGfmZSU58dK2Q0kCzEHQ7iWUWg9gv1KBFHaY0Ex8IjGOb8ew4u5tDcxoCNgcqcCulGwhqYAYNOdtErilkx915ZrMG2IFzRYABwEQiprIzxf8J0KljfCSCN70W8SufC8YrmHYDwVRJmjQ8aBALSA+wNhhSUNdgqP8KRJMWdA6M6sOjk1jQHCJUpZZejqR4+T7a4JXmQEM7o6FYOZzEMKzTVWZtWMYtHea6s7W72Tc1EgVOLWG41BeWZWIVONRKdqoq4wXUD/RD8L9UHh0qmDpUo5UWHnITIFeJ6ke0Gt6P/xPEdHK/d9hujgvwDlxfdVgDGkv8bOZZDiwkAnE1m2MM81zDItyXnzHegsdQZl+EZyPUr434Y9SAJINfXe3hTZDKPDj3Dj/Wyg+urGLLOpGUXqWOVpvmAB7BS5QvEjuRVFY0wuxoPrcpYKVyMFc1o6aSLwip+r/nLfoMF0Xi3K+G2ScKegRNu0GJorkB9MtqvoQvUo/lpoceP8qm9nKJsKj7EKzk+XT2mCvppYxJcCeirg/fm97yb2A81+nEiqJdJQKKmdqXfzwh8si4esMXvW32Eza0kA5K2vgWfn8/Kh7aZlaHk3IYGa5qizmLA+LP6c1Q/u5IYVD51XpmEU64MeDeG9yrSDQ2EQw/89yOpXwzxSnRFWhlFUxkVYnS5mrNb3WS4m8G768iOLebbUqWqBPoe3/9+HUcR8vsQerzyd9y8IheA/B70Mcj/Znl2JHCPBIm+H9IBhLGqEuGt2Or0JE4dGtFemxDyHdRS8zEmVRymGWfIi76sa7MyMmN1MYUdvuop6ZVkYVB+KUWdkef+FyLvexVXh6GdAFfjxcAd3cJJtEEIL30NcKuySK0Tnsgp3VicM5q8bgpOFIQ1vu65WFJFObV5FGo5ttBWJIXqTKCHUdES6E2CD9HiP67Msj1R3fOJvQlYmr3dp93cv6YFZ9Tb+97XvhJJzz2dMOoV/TyvllXmhsI+tGjx5QWix9j5BYYb4MW0YVfqBbQyJZHiGc950puZbaxHIWqOuE9twMOxSyNVXDZHyPl08r4taWpETYvdPR45+wNHMgLiDpgdzk4lMSMAefr0HXXF3oDYUsnmiUWHesOId8BKjKHsNCgfbuz0wsyDVVlp+ybMyUatBgdNGPMQzQ8r+9fXZ6e/4/j+MAtK9tNAJ9tY6Q98sHoAoI9HBsp+UJLY+Hyn1tCQcvMLNLmmQPm4+vbYPHb2rJuRVEaDhPBThoXhL1ZlOcEVf1WFw/77pu+QRInJ1DtuZ4KfyNZ9y5MPkOtl/SbcEbfwCCzakVPMx0cFsu5H5Vvr/WsFGECg9/F34cEM+9acXgMY+NL2RMrOVeIjy0QU2wSfzy9YfrxEp+/NPgpXNVCsF4EXQDG4r0ylvGiyxrUT6PaNaim5xs36tcakfC2LhAQyjQ8aBAO+A+wNhNMXBajYCFAi+WiVdtGA0gUJJktUHAWhLHCYVUoaethfYY16HrQA2frxSDC9UqkVvI+gpYicDB49VS60W1dW9QdQbyvUafpqZSzq/Gc3lEhwGG6YM/TMTifLFZRjp++jJ3CXe57ruMSnqKqDv3BcMrRBr77o2oNBHEzUZnMVybv2bd19IKZcWDxDt28646YBnMfUFXYuOuDUZv4jSxyrbgjHeL3l7pfkh9AGq/VsP6mrtQzGiBrvZVXIOnzF2PiBr8egF59FGQegP1fmdbHjvzO4KdXsJMT64B1nAaStWtbRpWY3QJPAvDAXfC5UY6W+oW565UEJEWrU2LV6WvSfebOcVW25RE/17QIGAobZe+UWXLrnRN3SoCxUVxh90Xnte07MvmRhEtcpfVkEIpKJ7G7R9pqwXmTnchEGpf2UugGGFYUtbZLptzOuNLj6orBp/aBRdoIPy6QQ2Sjk4nZ0RGLoAz7IGKStSGilFXHSZCjfpnyXewGZS7LW0IiJFHtGAeUvtE2U/qxntHO1FY6mAsxCwiFOpbq3oB505Gn/e/dY8HJCZhuWndNFuIH9t3T+ih8DdgswXDDCt+6Dx/xL4eOekNNveWBSor2qIL/tj+HaIYWbqdhJq+BDftdCcl+jDE2Hdku3jxyAxZb5A6yFBN2GECFb6WprDRhvIYFSnnC0gC4QIBOD2apNIjWbWueUj6p73qXuJzLbmxhWoPbIZjg3RXM8YJT/CTIIPtWb1LnvIh+rbS/CYyFvcnf4Utb01CIWXrsqkF/TLRmYO7CbF4zMR6Lz6BpKWbB67a/FcmuRTuQ1OeZ8GJsdWt1Nhec3GW4qXjZDlq3p7XssnOS5ZYZMGySNwnlszKzrnvZwWv6bnpmouGK55Cnmwx72U70lTaAvrZOklhzFWsUYxn86GgzVS/brWsCiqYl2swVF24RzO6E7UDVpo22C+SZoGymqj/Gk5CE5XFxf2ZHHp6L3TZknkGKXJh6f0krRassgqEiafwk1NEjzNLwoDxWoW9za1Y99brjf76jW50LPRaTqRPlIELDyoAUBTsA5isnnyhWqR5DWoy4vUq5F9zFIYJ0Meu/6rc0v86Lo8bV1Od/3wtusJ7dnfjhLFxmNlmyvluG6gF3fsegBxGuVNPTWgy9aUPPERnjztmuH1+5Gqezf1TTtIYLqk40NQhgRYhpqeGKo9ERYkdV45y707uvhdeY2vrS6KhBJ5yI1v6yCbVI5Wn/khoZsgTH8I98DfGyRcp+iZ5daDqxOcDbtjhHsYEUyjQ8aBASyA+wNhk5+pI6nrbeEE310OpvtD6gw627bySjKCmLM1H93wtUNdeZ5aYwudJYUIMinGpjdBsHlprB+izVUY/KS9yw3qxvU+0+LW2+dVh75mBZCdG0qdNTwQNl0jCxsQqe0ALK1Dj72Gqmbq3ZXpNU6z/XRqmu1BDzXM6IwtYd8xJ65eWok/cD8RUdEInA92uIoTdr6Bgg4tSQGzO5S1kgI47Z/3vZHgswiv0NbfbLDpXQU8T61wnF3hY+jXEB9m4HbRjJHiYaFoaXLuab7bo9/iQEUu1nWG5krSSU29xptGdxChy+vIHtVe7kOfGRmDlD+QgqaF5MGceqStoJllN5CGuaO6mZv3qSLQDvl5FE/jQ1s+4E9gSsvkIW5BD9XIMfptI6KnKtpI6GRAFGiP/ulDFdBo+Etw7oSI6T4fup3MGhp6PmGFIh7LioCM8qjj9ff+SRLg7mGVBU6klqCrTtfSv+AgH0pDsGYMYCQesgcnV4I6vI6b0+IhIWiUho4+jKb3cm8gjgKxJ3tzyg1AGCcLLudS20FGTTjbGlNYhteOQZ0d21wLpFiqfE7QwE39KnqGlBaQMTl066hgWor6CUaN0pUJKEzPoSN5ZQkycWt6GWC1wjHE6xrNhzdgYqco3AlzBNMBZZq+9pTMu9XmF35OubKH0cjHWiaYIWJBbpjXsSWeDPHEZk40bNK0C5hyYYxjXehfQF85eC0cq6Ff8f6FYy4Aayl4qWQCykrv9XCrtkApOLA+hhqwXJ3yT08vO/M8gKlc45fe+PTjfTnjLMV0tgtTIT1fRG5T9tbUI7Zz2KS7/KmUXplQCkPPsYcMbPbsFDE204CMJb0HLGzXIbK868rQYZMGvG3HAA7ugKxoEMVo1DHjppakIq7z4+uyhNczdPMBWP7ZuYff1aw2Cqf6/ZnyD8tRX51PVgvDy5jkyTGd0c8p53+vZwFtSvZCKTSZkVHML3X1gz0K9B8kCCxOIR2ui4wEg3RCF8KRkuG9mM7f9oPWRDHiMILAhKraoqduwATXVcwlJZB8KfAAIp34C1DZuyaucKIMtFmZJzT0L+7xV9ySrlbghpDvq8H0r18Zk8WWNO3juPTEWETPMMkQYS1pYjxAbA4pKDninCL2Gk2zDOcRDIsY4MamS5y11gD9fhSS26FhI0bEBwv8c0g+5Y/E1mSoJMVL7SHnmS+k8bameWznqU39vPs97BFoGab7dSmuTkdo6YElpzMrMKzrlIhtErPaJ1els+yycX2twiiidj/uZzquSniuLGh/Muyuzd6jQ8aBAWiA+wNhkqaGP8oh/p3SVTSthcDCxXsSxvnn3rzCtcSPAf3LIX5FYn51+TAvWCzXsN/KU1mnnHHgw1aC9ROcdQPQjWDscITFpPEkpReZRkMiIFTEgamsJfqVObWLlOXKYyteFEohk/ppC9+w2D6iOPnQ9CajvHDaQU7e2RfWBS+P4JWz1gsvAzA1ggyMvfcuCm7ayGLOhVbUlTCZ8CrJH3nJ/+vzhpgByjY+Nj6s3iY/wJU2cguvuYBD7vBXsEFVuPdH36LHr4/GAI1FBifWGrn6FeX2RmYWyy2TEVux1FSpsjOGCSafLqvGTRGj7QX6WJ2jQS9jTn5POApEcjvXEc3k5j6XNf7xWONnBhAGkGRCHrA3TQaRngpeMwjhTdVrTRjv3cECG8QXCwI8QtOYzFco6gD71zwfAVnLKToupURn+AvX5WG3bhjbwjg9w6pAx/8CxnIs0fdx3tZUZNIqdzy0fGO9RhcFTmcZ1BmbDZtnpC/VLytlgVDVF2k/N/DsVnGwZ9+o8B93cCyJw+ykIuRpgxkwngIrBuOSoELbbKEWAEDhKGZzkTDvYSa8MMwsp/e5HVQtOUrDQIx3fqcw6MDr4luASN7KQ8PksS3LA5bYn4O3sWYjhCqVdT0KOolDdPWei18pttv+5mIoSQYhx5XHGzhrP4cRAyTtnURattOCeLENF8Mo7PGDLXThd/QGpTqr0Rna2j9KlYU4jStbfhMWWEXTbMwTyD1TfhS33glnNNr4F68pTK5IwHlLzdpvWpkkWz27/f3rhtMwWmvjUR9+mV8miSAnawPyfkLWdHUq05i7PcVAquCZG+1VSys+W7K+07+ZtmFAseQ1DXOYXVBF3BcuYZL6k9OSV/ANPA8b8vNUisYaUtSOcw/b/1ogpaF68Ru8rxtaFAobzoR+/f1Db/juD1h2O74w0n3LdQc3+aaxd4MenA+yB9GQr31w3IuGQ1Ut6Aivz3q+VuyhHIGIwshhyIJnhyRii6M0VRH/9YMrlA/E00HuTvmI7BZfAB1U48QcH4JQplDcYqTaoCdKc90qhktc2vqnZYtqhSOfpw04I2SdDPBb0f+gmHkJ2qiXP5FQm/64aLyfyXdnLRAJ0Hlt4aZDtB5pWR8EGpLOMTRykmfzcoyxlpcc84XZoPQVobzmNCGG0CeC3c4E3pkz3UuQ20n+yag55hS4eq6RAnTWoZX1i+7Jet9DBkHOS2ZwNW1eTihUekX2UD69NdaXIfV9V9/wgNeUQ0Xz8UVYAWJ+S0DkbeYNBn2sap1gCxHQZXWjQ8aBAaSA+wNht1LlAmc8jvQCHceoV0PxIb6VvbgFtR4bZWrrguLt7BnG8ampzfA9z9u34sILHMyxSVN/2XdDD69Q2lnoVf5cmKoj5N5wuk20oDApGYW5YdTlGpa+gfvRut8zIeIycXk164A1xiYb9jYNURl2LAkjiDCQfSrmmL4JDfN22+augi+N5vJ/niG6IUmlpQesfSameZga6TMEnDZyJNN4iOT3rQD/U2KlwZs9CueYTXTf93I5H5rhdgbZZBKlPfo8W9q6Ex9q9XQHTRAeF7ta/qn87bx3jT3S467soEQUOTLksiSl5YQy8WUlOhrVxmhjBNMUCFsaOHkDXjGdZxzbGzP/xdwckfKtaSubvu4pX0c311O/adkRb3ANKmgM3zowrGJ7hzVcaHVml1ndqXcrvukWjUeuVkE/Ajs7aoVqs7XknWGGvSbcF/0gv53AAhHnN2tAAbf8wqp03uEGdsuxRdullBzPHRMMa/n3PGIoO8PKIH5o6nZNrCggDg0p358hZ3uOKCt8dTIPj8u1wxRmdDX7MchG4i5JCqJNNFUcUPWda+GS4dLDF3WditpZz0okOX6AioIv9MH2ySa+QydSPsi3VoEHCP7X7h0iF72sTdPA7ttvH5NlB3UDlWiMgOSW0GxVf5F3nmZU4N5NetPPf4k1JJO7P85ZEfoPKjG3QL/oHZoAhLpi2mC/myfAleK0JNYA9TrrGOWgjL0jzb+5Sz/FXBMQiUOQruaOrdDvvIvHhKcyGICL+ZX0/OJjgrLb99v0GPazmnqGqd8m2IPhugrpIIfW70Tg3BjEYsQmDVPVrfIkt2D+w6Rs2dNgpVB92p2v1xj5+WjHvV/MREkq1S7CYYVgAcIRcj31HM4hY0+b1fHZwdQT/j0remYud/i5mU2z/cbpYnxUBErRr4lOPXAo92jYg46a0B+dfXhQi8cf+JlKmYdnkKRj6gyBI1aDW+rl7S+hAg1RHRxy/9XBlTxXk0YOw5U20B807VlEBw4sUmvymaTfrEc+Fr7IZcpf2QB8zL3TgRg7yzTXT59+kBZdKVL1X0OfNvtMVBM/FjtbOZ3urqgC310plH+L4r8gZAcgN3Gb28cRS8SpwdbG62WJOOxmbGjK2m/0Ef74Y5UNCeeWCybSMqd9O8M6GzkfhvnWfVFV7LAihQ9jmlUzDZ3UXb2NkcE+PhGHANwp7PuQsIEe+TjMO9BJtnUfgVv/pToowoxtqhYZ4c5/kfHWOoY8lk3p2I4vYLtL2S3VstcuaK37b1JvvGOrH6dHCeQwVZujQ8aBAeCA+wNhk5LuwTFFQ/twiIutSa+o1mszm2RW0p9+GY19VnSOhfVtd3Rm4gzKe67LkFDpZtdZMDtGXlXe3n4gNIaxwc23kJFbpU4J2XSmoFflg5oHLteCfiTeNDOxNfnvjH/UV6bdSVO4U4qaSLXj7bE/46NWvQIu3T2nKZ1J6Os3ne64NI9r9sFQ96PNNVKDV/XHX0orbaSFNONGbHh5EsFXbtPNXp1q9f9JUrFOG38vI/7QOSv0ST8nO2pvAswt/Z608K2fdjSUG3U5ZHQIRm2lIVF2wCgcZW6iT4b8k/15HTba8B/Hs4WtqfbymtWrD6H67Ycgrp9jiSRW93641kOddUxYCwXljhkkYX29BzT4ul5s0S/Ps5dskW1hLhRXtqWoRmiEGLtrisz6trS9r+KknA/ff1kG9Sg3Sp9ruV47WM4i2mG6WY8Bq0/Xvb5slMdxFiFno9TxrPSMl6LI5Yq5SNa+oX5JKCEaxFfPurJduzU/EGFcBJ5tPELdd1AYATH9wAJS1aB4lLZDfAb86DcZrOwcbY7PPdJmPVOnoij8ne76RqFpvG78qUKwK7Xk6UHzm33otvB46JeDj86i10+T/WbKJnaEpisIwutlcqzpNekCiFRXURhKftPy9NREkiqcnHp7FkN1C00NIGXYG3ci7hhX9fAiB9Hs94zGp6TGPPe8yc1LRkme9HDBXcVJNxD1yLcx6TsmehUGMk0tIVejTXlqOyJxt2MXdwcXqHQQMgRXcSzm14uw7FSZC/lSUe1wIEjQYfJbwpSIZNJnxCLPG1ErIIpmXckYVFI49q25wtPG30sPr9Ueaw+nwqvlM2ddma63rlDLD5hWrAtpIcLLR/1UYZOYjbW6wDzTwQHg7jhSansUhhlh7LHhuzNfRkCuT7W/zTWbNDI2WFFECNQ7xO8IYl5EUpY64NqOW9k3E/Dtsi9fWnArye42brO86Du1MUQcQ58JY6OrcmqDg97eCkUhT9ogdUDZgNtxRoLoaxheBQxliFasxrXyrHnQe1+tMxxIXTM8OSpt29ks8WBg72ghUTx7s7pvBo0yPMPXWF8sqX/9JO34gbhxIBAbZ/CLRcCeUn/bNF2N4mZZHwc7VtNY2hCfXDgyEw/oCgBZoWWQa1sckWiuaAdHH/9u7qBMzsocf6jXbm5MOmaaAFNtHoS6DHmVPFteuvGKL75MwTtrPyyOQ8d3A9slygQEfpl23JF37wPxmA9JRBqEDq+YCeTR4vZZKJ8Eg3OLM6Yq0RqAwGStulo00MAvXoodJAkn3pOjQ8aBAhyA+wNhvAl0b1d3WWgz5+KTJIXz9VjejyKYdSi+83NNJ0OkemdFNWuzwgZz6ypR3jvGzEjw2xqvgbbZ8mzm4tt30dtJuQH6bSN79imkDJfvz9l6Sbzokh+Ykj2/r1e3XnCW0NTPDDnTw3dHOD+XMyfNs76iEP4QYqPLMDWX1FMVlYrm/BHSZVdL4wJ6ewjJBi7szdxsUUUxIU8yGDnrs6P6MUfJ3OVQjePgkxGq0htPnaT+zriQrVFVDtcr17mEWAmUO6dT0ZcPrRK9iOxf56TjqjZdFdOim8e/P5lvVdkqes2waN6wLo+7KO9Psjr+ctAB2eKrKVIJye6A0o8XXqDqkbTHhr+6b6bzwVPozoBn8xb5U8TrjHazVyXIpK4jjyhvARnnXL75W5qG/zZ/QMBZ3c0BQbAQn8yOo6wsu1uRP8mQL2GIF5JCZ/3SH6/YKsqnPgV+sd6ZhcykLu+Y57+CBk0rpFQj4ygd4cIXGpAsbxaQQsR52Og8TfzkuKcWpeBgTRYzYN8AV/JFMxAA4hhGOYLBZL/vouaZYGaa6iZ7NCuA3kQ8Ts8AWvH5eEuhaNXH8uNM6GcmGBwya/tAsgtSmcB75wW/zBxftUJtZ0uR0riZsQNRG+3s6pQ4A3hs6Z+ubOjtPqDItvaLon6I8qmbbgOrXuzTZZmb4WIiREm9JUNMSKE5gjf0v9W2+73/FoDpCOc4F2uN2VJzBDoh7ppDrFIPzMVFPYTuBk3nXW/9HqEwYtLwHEouZFpCQBp6iKk0yyto4OG6V2GPp4gtaRZz3Ymt7D8UTxaZLiysM2yAL33m/IiuA5N4oBgM45JkZNZ+6lWnUg1MlCFprmHqPY/z7PvkYYavXBNWwhbn48BZHRHQE48c8edsfyLIy+bB4BxSCyWgcTShOq7IHRjrhnHKZP/RnbCdCkhYpUUy4cYaeS2x3hbBFWg8tbK2Frw4Ovasw+qab8bNpoeyDRsGjbh06ss2DZgLjD8x0qb5N+AOP9QLWS7vxBalkuS4iLTwCgFoNHGp+1buK8hVtotAX3R7AeFO45xZ4LIPXZqMtaEesmrrNqDTOz/xUU3dxqYIr9JWpIzfZeJbNv7YuOUFnt13Ot2Lk++NI1q2MVWzsRYwW8NOthM7rOO79OtMRd2UcFPikN9wFPmp4acZu+H8m6+CPJ6sOF/YumnuSt9bZBiELPMqJrb54vg2QJg5hIEPnu8sjUQThlkZOUSLDiQ4BwuxI6DmgqYeAObFbcz6kO1jaLedzXRdGSMMev6pCRQ/eJUPrK+jQ8aBAleA+wNhu5mHWZVKyWK5aDpYt8h2ici/1r57YCsajAjmcpSP2xXZAjXXvx8UEfwLntvN27VpZG+v5Qx6gN/p0jcJ3Bgjluoind6mVgUteIU+QhsywNc6is7cxFIbEVn4VreL2Ui/n+FgKtKjFDo49VUdHWufZZQpOfS/JtSfjVmy8LO67EnM4qGfxpspyFqZ6kK+HveK0UePywU5XVK2j/zZw3ludoiELqMC55TD748R3VWUVYbqVjv50XpqSFQdgIqHw4mPpY6J9rV10oljW5atge0nJ2nfw6y+VzQVeGMIP2yJV1n3zAMoznBsADTn0cwYEpxu3OqUYwqqmedC95HWFIpg2W3kcwN414vFK98MjsNhM2+VRc1DvromjmQnMyYDMZ6xUm+vpUF5MNuS0H4fjw19g0uKJj68KS097J9Lv+26HGGI/saW6oLdE/gwx7eO91HHpSAergaVgnOSR2FcqL8d6gWpPWuEzpL107mgNPyDFtkQne1YMkXCSZQ/GLnXXRQZYzUqlPZAodOGawDI0IHaHDM0sM2kC340Bce5KWf/hd0vqRhfdVFfsRLoGJDR6XJSe/bxst0OUlF5NJ0V0aaqB0dbwNbgeRczSLHY1ZmOEhvikjl8IvW3pKyNzzzwfVraXXwYyPzPPka5I5fSuZnyV3f2NBDMA0SUTNXkXB+ve2RNVosCd5958jglR3CsvMzWYdHUjfy3VtCJQNhNOzAFjjld8qFn+D74xMJVnZvCuApa/CLucYi9kafhhVHUpR0/TTTH6f7Ah7T49xmcHsp3GzHV0JAj1MP+VrXV0IdA0yp3DWz5DeMxQkUMFsOKsi9/493JT/KqLoGFHtnJzT3UYYkn73Ar6+S+Ld9GzMZrMfXEWNw0jvMgJmJDQ6L0wl9RRlZmPnWp9ljd31BPUZYcHfLMm+/PfeJOVha1gR0OiztEGa+yv7rO8/gelINHsj95uJGJqETjPeSpHgF+6yoHFM6R1Il1pfD7ez3rFRSU01iSmM/5aUd1QLVPraXv1GL2xKRus2vdTIFBaKcAIBW+1fG+fGfKk7mOO0HFsUaXAbkbMzRcSQnfNao0FVwbUeQbuZwF15ZQMqjqUej/2YLt4kmn3pDIzs3UJxw7riqG5PfjOWy+Uo00rUzTfXC9+HPCo4uq/I7VctNp/9Rp7bXLFzq4TN+PTPq2F8I0IorA74da71YaqP6JFP3L7IdRZoynkS5WernVYk6JUS0vAHS18Mq+i4dLENuFvvNRTi+HWdZVJ8rU4Vw9Xw1dqqSBA9CjQ8aBApSA+wNhu56m/5mBasCYjW7jGHbx02Pai00XtQmQ4dAx93blGiM5OHmGRztIvjRql5y6b5tNfEbaiPHOmA8v3xEcrbPPuiLhLhB7qstpU2LpwPMq9Mx4gfMoU+YAL+SgCNxrY6Jj/JI8iAK0UWAxKfY6QSvURAgIXlJvRZStypdLKVuOAZ09xhdsv0Gw9fc1/SIcBpiKFPf//xj2I7y5El8SkLUY7zKJlDuDXZhd1q7B2niO0FuG0SbW8R1SffOXjCJkLgCLFt8sKwT1WooDrMvCSL37K97Yn3LsT20HpkN620ctAbCU5b9y+NEkUa7s8Uhzui362tlzs9VEm9keqEAgvRyowrKuq02QrJc//CSsXoO6/jd4TxaE4NNt3FrzRfxR0azqJ1x+C61CY9OKlawbZOhLXFkCDNb2gatOfI1SZXgzbWGG3mzofI+5ed7k2odAKfAE0zsYarM+isz98MxjyhTYlm2gcC1i6/Idxh7peDB2ykX1vtrmrHLVC50X7cSdCDASZDMFKQoqFZ06Py7L+NDPbqAwT7bzCBenEZoejI/7e48X9ckQk7LSO75oV7zzafAcSnJrxD2B4Ty8FVqfxhdOG2iRFwDzkRwnp+P/cHGAT5nQgpgMOicGdmWjIV5qOs2AKDz6A2Bb44gUBr88cOAUbN+invmHx4p6Uq5c8Qp/OfwCkq+EN703cdpaKD24xLGhU4f9tjg9qT2FF0QY+FjOtmlob41/nQZxPjlY2En7M9Lk0wK9F3UgfExK3eADZpOYLxR2c8jexbJMeZHN3qpiHymNz86O/ccV1PIZlPqpnRt4khoN8CcayGVaufTyA8tZ+FLeZnk7LR2WISeRXRKkYYkn70Ui+8Rg3PdgP7LnDNuaWq/6vK4ci6kNpUlf95xG34ZtXyPlhuueOt0PPgTvHjoIdf2ePXGHPo9sSc0yqFf2Y2DV30PcyiKkRVu64NFVE8qZ0ZF9ZQXJzatwvIZ9q0w8GYbgGjt1R8/tARfynkOuOiaI/jDIJAKjkUVMwz5leSNnmj2OAhydiXn9M2U4psEvHZ8R8mAQ8GWaIDoX7PyWocP0N5X72RDjq/vgRz5gEEWykocU7yPy7V3C3fGKHY8qUlo0w0D9sODsGqUSpKiOwcfvlesCFzXsp5HF/7n8tmHsYLUfVWqzlIF8o/+UfUeJ/xqNwZSVE5toaw9IHa1SiCGFVSF+gPiIiWGhOCk1JGvQfnwm/jiSnn0irlS3eABMKOO2Y1RuV2sMQox4W6zfMSeY28qdTdk9FnQHS3mjQ8aBAtCA+wNhkxttcSP87ekVhYLF34JJqdT+01ZgOp8iuml3q6Z4f0uNPL5JysgCSM1kGLYptgoXg4JP8J+jEk3ZfUejhXhZtW0LJJXlkvoTriPszTyaS43FSrxi37xN5mv4pLFARfNQBBRGp7cNO5HTzfDmL93nDjrtJkOJoSVi+tz0yYBZ+IJqRAG/NL1ll9tk4SxCAp7ZiyTFrmIAZKlK9Ja/Y1gLvPmLYD805QpuZf2oKRQZCuVwbZILOf7UEvxdCpJLV7ZB58ek342waTSZldccYbSEDKefQ4igYK8Sl2VYkWMu8eqVucRL3jOYKEaHk5KzmD5i461agvWTsrYDd0fdevj4ALpaUtUNbXzMj5vn/917KIgy/GPUnD4KjaRV9FiNFX19LAbk7dFhBk8FbAUV6e5F9EKZSX74Ja0giV1mtvrj+mGTBgdAqdsmTgly8jq7h0SS+rEojcqtW31JZoqOWKIBSEa11cCizQJWHznaqNYivt7q6g4nzoieCOJnHfNcmojGrAf42AF5YEna33dU1v+UoHW2bq5ktPQfy4nH8qg9ruwKTjpfKNqNf7hxKzPatenhyj+b/9bnvoam4QfTyzNJMn3ciwjhk2kq8Z0OODOGgn4MGCjbRnHYfP7rLa8huDCXLjbL4UL03ngRtIKbhCK5tlLnRjAY0xdUl1lqL7exArPTCBq7u6/JLU2na2hr0wWRNMWZblJaavd8DFnedaEUCNNjE2q00vCE/tZ5F0eqqX9NacPVcq7e2NLYcXXXJxqtFZ06kMSEhq1pmjvbhQP9CXwxDMBHzwMQuYCLWjhkVMQIKfEKFb4SQJjBnkKeu2ix6pTZLkH8K2k8nhiItCkkYYkkAwKTZjnS3TaU/5Qwn0R/u82bqjSYDHtn/EceWJBssChcK16PNJ1JpPF8EFLs6gNQ1oB3dQPfHhv9DLz5wQMym0YgMgzmHKBKVWl80Bz754fAR0R82iHzqADpYTtcSnrhnDOv84ntSbHJhplOEka0fy5uAyxGdcJ2bx/hEKDWyJcq/qvBU+CPYB44gnJyE1apsJOpqFc+y8O7bbvHxCJIPQ/3ApLnoP/vRwS9jxIhozhyXV70ockwp6KYIEnUDkXlnpoPOA3wxvHsXYiLJibYTcYzzqMyLhrNLjaAxXWt48fxPqfcb7Hm20YCgjyYJU3EPk3fFSzNICddyMvIlnyC429WqXOBEE+yeDuSDa46EqlzS0elheHkqaeI8IOdat8rc1THI0bPlSehYq1FrKpQrkrXgQQeL5le58oSk4yjQ8aBAwyA+wNhku7858wMGa9BWgU1+hWUDYMx9hty9zv/NMk9dCjhEd3C7nEFeij24MkobdBhY3gGFud6Ej8Bn6dv1Xds9uteTIE4DbzTDvDYkpKg3wqglMrxO1Hi3E4aBmOIso1oX0TZAWQ7HdLWDyFMGamnXtJX9o2WmsrIjraHo+tY57UzYxNmZxyREnXctfWpiO+xYbnsmNRF5l17UxrrZezulGPHxEYpST4ACxv/aXv3yufNoLcRE6gdDveXWUXkd7wKkVVRYw7ZdBIpshD1QeMd2xDvD/LEWjSxvsRyFZfbk62DzwtV0zs9WYBOp0PgKt16GwQ5soH+2Gkf0jVLThNCDfmNOF+q0YDHLOWKoIGS0RHYu4JfGpCf6YOeG8vs62i1PHwZLYAjimZK49pxS7tMgbSHYruM+gWTa75M66jTRlt9ymG08C0weygs17wncygwz/wxPG1XAweG2OdeYQkM/ybjnfncX/+G2wRd7PpfpATL89SUtxWtyqRy2qFjfpueOmhihNSdSBXbXf84gdN1Ky9WZANIstH1Tz1AKk/HQNXF5zotpYPlhu6+7KQPJ0aF+FOlUKkiiXi06TaXFwfAuxFjiE5z8VNiNIjJXyw8M4JsSY1HFUp1Q57Lb2tPiteHUeVG+74DY3Rq0AVvGvHUWf5VGqL1S2YBkK6dUAtSXV9mPChT3gJ/ZbkCS66dUlSrRTaxqZiDeWZkYYNNtGeUsLTFpiLWS5rCbBBRbEOibsBb80dcCOVQvAHYoDQfuh8v6YHhdz/3ithDNqOR8s33+ttakdvvZYkETT4Zmvq1LSlp31eZvXIaMUfJZh0RBGn3QA2wFdu2gwWOsB2H17A05BzdYYjtWsGdbucBDvggAt+BNHv1SD2EznQMhtY75V40gQ7MTQm1CXESFuQqSS9BcY/EMBllckmnNNSHZFS7vG0BdrS78b7GYXi3dh105AJoHUh8NqPVppZEaeu9qSW+FrsTF3S3SeInk6IqQRoU+m8doF6E+SYR1+jhCPT70Atia7N15W7LWXItFRPsfD0fiUWw7ccUlxcqvKcMvQJsqjeWVsEPYRFmUOJ4DIpsf6QQPGvrsyt9xGPKwuJpXANErfsP3o7VPThrO5O3EJR6oNNjfdgsxfOFl1JbD2CRW+Rr74JsIZpvebxdeHB7Nl01LN2wDasltehWOAKVWwrZFgZXuhdcflnC8g3Z6D5kcVjDbmnfiTAR3B8jLptjS74VdfuLfsG+tNY+pOt5mB1OTWgIjGpLqbDH6GErgHeH7dpuUfOjQ8aBA0iA+wNhhVp80ZrxW7pSLi9aAVN4U0Pik3I2OTSZ1EtAAywnk+uaKuXz/fzWiPIBE9Jw/nlRP8XjiDR11zkjwG04PzjgF23slPRmxNSgAhLs9m4vpF4AEdxauZLTX1j7SEqONKFPRmPgRRS+qzUMeFSv3U4lv4VN9oyinGg7SWafx6CgTm5qBobQ/GbHKJzQ9vDhT/ZPj5BGiJPfN9/yfTikzS61aEyqaL5DcQPKesXMwjcY5o//EbDdewZujKI2o7vAsbfmMhgBGbf1+Cvcs2uJA4Bk2qcf1w3NkGDKV2sLCRy4IRx1cDwaB68lSh0AlYLEqcUu2RKZXmTaEQBauGKyrNJHcrqAO0f6AAte59jemEnua2/edAZCXMCRDrxglY2AkjRZTVM1P9KhFcC3+g+ghiuLA2m2J6lFJasdlz+FcdFhFmGFW1fqtXK0mPbUZuJdpPJS2qmvPHBS1EE7iuSlUV7nIeNwruURGIvSgIpakDxflwmIna/iWOGOveDl+rZRqqPZ5C1A8KMoxM8FcRQ1cw/bNE16y/209SmH4lLQaJ2t20aFnGSHFReh5eXpcHYLSNC3Gdz7KDhzbrYFoE8FBQ09xR8AvradWA7gDWKdUAy3MBRxVS1pwLO2fJtw6QJZL8VKFKQetdsUdyz7JTtSYCO37iXr8SrzaCSsPvViBVDTNvilP4ng1Mvt2j+NwadVJZQ/11sG7h9vePAhWWNTixw76PueMz3K6RksOzTmi+jsCG5fEP8ttIv5GwXpMHW0KfvX3KcCjWT1N1HvxY1CxHQqiLpvfvDQqBfaCS/R2IuftGFPDfnyIfPOFxyX193amqNAXI2dr9HML1t45hGTX10JYbSHY/k6Z7SicBk3Tx97RFXll4XsPU7tx8zNxmpfBYaHzElE9oUc75unB63ZcU6xMtq5iM9uoSdIYb/OAKNgkTwUOZrhDq7CAuwR0+7m75ovCsgBYypWdQPfog5SJOL9EyMiXPbNPK+K5XGz9iR2RH2hAL0Vi6AFZE6rV012JF/+fjIPxF+V1+zj5Jl0cLjiw5tsUdr4SvXX4/ZfME1NWgkeQl8RPBrfr9cXTpUJqE9x96NpNzgjLwogmnEzXOVWSEdfk+iI97nBaggDt4lHQi0egVhY9ly052/zga8+4M3tiO8FPn9tXvbKTk0lmo3Ze/6LK2HDWf6xUd4s/rK7C3lz2+echAc2+0SzCSbWQPGTfC8MnO+QbEegcwjjN6JYPB2Nc9WROq1XNmPPStsL/bWvXNvGTRCtP8wbImNseF+jQ8aBA4SA+wNhu41a5Q86F8ghlzWgvC6S4nVqBbGiLmo02v4Wb7mfacDFpgluCZSjmphQeLnhBzhJL882oenOb4K3T/mh1An+wxKOWBRyj2mHoGUQ4Y/JJeirCndrOHMF0hlTR2RiWV9ms2lPmCg7rxoWVuVy+tEZMN86CIGFh+5XO/g/TgwcGGLDFIIzNvOQT4zOTpSa8aZOGsTdZfL4WjDQKWlreqBDm0Mr77a70PhA493+FUsF1B63GDBt+9zlanTpUo2trM3lOtEzLJgdg3TtUm0QKASVFQtTrH/5Wxzt2K5aQGdFqgqz8OLqc3aX7fjrFdxWA0IiNSmih5G4SuXSedsT5n2trpxuzcJIHcMy6ftzzcZv2dS7dpznYhExInrDnr76NTGymSPxVSct3djL7Tsl/poPka0aBFhJmBwvjBhmQzO8RmGS+FVw+xm929XXIy21fhVnMEktG56d/Vnx3WsG1rk8u7EHZn3ILP6nGEhuAU7p7KbinhsWkc+G7ptXLZ6ZSuLOtwwf/RsCYPJsQqHCPmmj47t3gYI4LCZCjH5Q434aJh9nCeTAVbW5sAhuLW1LZuyjvbhmxkbsE3NqN5ZNh6yRmSea5sM7QkxUmltAFht7xcxyNz4p2yQIF6m6PNqe1QrNyQwfp7Cw0fgfNGl2j++wUNbZZaqOOXywOtfGcoH9Se5P6GQpmX8Td3iWc6KzpEbBSNfcp12vrEyTOTCb7OLvPhv/pclXVucFEeh7Yt6B+E4jeH2BTGgrUdOecLcnn26vqquluPjKLki7gB7CUH6P3r37bdmfIqqEE33lmWjWfXmliMWX9Py641JUQ6bXnYiv6zXnAb7QrAp1qaES4XkcYYVsmaAURiFa6XJu/hqTuxc48yuHOvDAJAdgwE+gWNtlK7ZYJYuKDd3v7p6/WcWQj1ESBzRnGcLuIOyPAlVJthf/INr+K4TlN/5yvq1vz2LqTgIUX4FVGVX54ItT1rkMddoCB0/KHsY20KKu2FtbpTGDBClhzuFm11NnkcyzrixHz8VOFdjydfVz7Ghb0cj9mAuYG4kRHocsrK42sBdBRQk6bWMvkdnPkPWbcPHuiJYWboD1UzbxnOP8JdkYftM68fWNREJHIpZ9TcqoDDXszyyk4YBNGnPG+CDYc9z9LLuRp72594hK0KUATPnbRSljn5doKeYV7ift2NJUGxZVXHW1gtaOh2qbaIiHjSOHd1FR3XU9ekaNZCpfwN1pg7mHGOaQWdgu8IGWspwAqunBmXcpqUtgUAMrPptFDLiRWlKjQ8aBA7+A+wNhhVgv35zzVE55VNBpMRApCrkr+j/58XovLS0xYwfohqRKodQeabj7TH++IPuHmOr+3D24HWnQGQnsqaqu1J2m7IVGEDdqABo1vrNJVtmalvRWzF6YsrXxEk9kBTdJ/cCJqME9MaLXBaI8qjWdutvvDt2OpM5BXXTzE0qJdlAgHlXy6QlMySGivHrZ4z682U5Sauqt+r06xHEvkGWfIwmPlLifXE6yEEbjfUeycBC+lb6i+ICi6xxDcQq4W7jaTpcVM4coZbPrr4TtF7dDxGKoEjx8rn7M2iQuZu4tgmJIa3V7eTwOAyYx0QokypJ+w4LUPmqt2reTvDfUpDRGeIz9WggrW9JAsIdg3F08A5m5W4beKxdfOU6Z/553eNCcrdXaJcamA+uJd6TSnwLRL3xfjeIVX9c2la0/x2XpLy32iGG3VxsYQ8SswbbFv+RMRi8hnW3ewAakUrGoeaFj2xdXwqW0f6X9I+ZvSAxmcGXdWgVI34HAqgJqNd7p4mp1AgtfIHWUiPztDUVCNGiWnIW5advb/CRw+8/2TZEvgKaAvlBfjA9A20hn4NZgX6gr9iU3saS1OLxyq3MWB9rGanfSiModJOoVr3HnOchIqntevU3TuGzrR3R3JEc5lUq8m4uxQ72Dqw/NOS3yl8gHayfMfneyFAIxF/BW4XajvyU5PXm+zTU/S05jhieToXOfyl9du5DJqBvBXOwdT4jPVw9BjEMRsBSRcTZ/7bc5J87vmvkMvXXyf3aDeIGzJi+XlhxbyEvJ07Nrgui48uwWh9QwatJvH1ahsMdAptf7pqypxZGXcIKGi/aBnajzk0F1bi5wgVNCZpKUnXJmIzrIMojBYZL1cI3/Z75DaS+iJaVF3Sy6J61EciszDSpUyNoPHd+gXko3Rs19rbCATT1JNqlVZmMiZje2UW6jRy1KdmsBYN7/Htl9ZS0RM8HdRmBLf7jZ8F1VZuc0Q+noZarHncFcysLOyG+CU87W0wCj1BBTThwZfiYPQmce9ugLY6rnHh4gurMhRdnZtqB4dSKYhmavzBRjeJQ+w+fs6I1kXrrBe5vN+He7tpHN9fhg2+16ogljFgjy50Voumol4g70pfDxUIKBHeG6AoJydcAqbKDOz7KHojcdNQyOKSNmD4JQaMMlXyKOn3Mx6Yy/R8BsmEMD9qdqiLiRwm4HlCibnJy+37aPgiiGcIlxvRehtbnExbpF2l+U7SA9PwFK+EuVaMu2WSQ1tl/LZNkoBhgRB1PyLJTdksa+0HSuO82gtJucNq6jQ8aBA/yA+wNhhdGQ3JyN0wln5zWaeSbO5kavEkCu6P3JkRejdenyawfMoSV+1WCG1JPDwJgVDjR9nOcPWKdoYT+QQOLIucWxjdt6v0NY5J8wYJdvDt89mD+mDYx5/xPJttQxK4UqH6dcZUtoenP3eidJLuNO0heVyDB2eI2uO2xeolvrAfIUx9/4haQUm/fZwGf0fX9xIZ37LWKp+F+rjzCkilLe/VONES9S9ougp0FSBiD5gCzehza6USkzmNU/1Q6IYZ1UH/eox9EnrtgAaXd6E4P/uDl1+RIkj1tLSvgUqZ1Ki+N6YPEFJ/b8n1yTs8A9CeKADFgI7q/CY1Lg6lZ83NtKSctGnTlpdIAfwP4hhps1C8RybhsZi1nG7qzF67S1J3hkqDbGt9fUaj+FBISwz+viNf9iSkcvZt1A8K0ypD7H6BYYJWGF9Ip+lp9E4hQ6bzyPPwZFS6hhLIY8o3i2ijyusPhsCzvFa1l1RkRoJCSM9RMGgm8L2Ls4vyLf1DL5PpD3q8cQ7piBDy21hIWni2il3YLv5qtGXDkVBHUk6vqhq4rFjMHZy06fqxtasDoAKbUp0Rpd5Mne3VLtkLS7KmGd+O1fObxfN2C8Np6JUUQcoaVYVslpraREjKJbYOxCUxGt0sWHi2a0XZjUHZes6tqCfGLz/rT5X0Hxp5EdorkAjzt63c5qJ5v3qyEO/fp8F1PdaaieiEFaK7A2yWlrbKM9ZvX37HOndidafLnsjBs/IhsL29+N8NZYFcSQCyLDOMNJaFFPnuW3sAQUO23tyhmxJRuNDzYPhPhRUcROXCYvSftKBY+lI5RsZWZefSwU2rO1W70SsnQMPfRWHVxaJdDRFYIlYYVXyzdngQAqMnY/l8IabihzSxtL/3Sf+H0SLOXzj5pqqAU+Ic9cJR4t1BXRJNMUvhz/JR/+uZA+sZ42DteVw4sXfu663cdwTPxMqBV6EvOBbHqQ0VJzNkub+/b/Hz0ML6eG9AHn3J+NZ3rMr9e8JZRJ68659tsnOXE+RFm4kHa5al/PnhaT3Frpw1XrI33JuYyt5cLpXRElCyQKxFUir+hgBJ85++dfWAoXlWkGCpQo5M4Wc8Hx5i46K2ZdkhRSEAb2rFr26Mo2SpQYMvOZBSz9dItXzMNh1GqBpLbJfQp3QVnGE/avN7BnCYk7WUlxMZ7qWjoBdC8/TpHWDepp0sAI0oHABV/rZnwFX3oCWp3Mnxhx5zzgHrp1wVieREOK9cPlN8LZ4h2ABpG5SCpMYU/lZadfuZSpPu6Qms00ahKjQ8aBBDiA+wNvxHCFJePilFdsKnOITz2l6eELvpW9XwhktjjMTlQGbXx1vl/d8Qnv1xkwv3IFiK+ZXhhbOtQzNafTJymc6IYkHPQvxw8SJaHZxdXPwDVMoHeUZLqKJPIDqBI3YSVKP8XEpLpXTqCShEjtz0qcNEPsah5T0UPVePugve8cW03GoPOLo6K9CWyeWNz7kchxjFNhaJXHbkPKdXfpmgiC7VV/jX5dOEOPIuIsJ1FtLfwpNan+V+TPj4EINLxWjz8+yNvTmb4bXdp0tTXipmLqaunL3DNqNWLN9GzacCktp40l5RQIxXHFlSdPImLA4FZEc/okXG9wGWUAv0YB4QzF/PW7KWQ3cuJsbyL5lQdwtjtuXoxn4/qULmZaWrzGelrVBgKmt37DSgxpwbAT7sNKUVi+L7KqR2BMddaRY2OTZgfcyWGFbJmhRtuxkLi6VUQtJdPHvjpqbOgYn2pADHmAJvBtpJZHNu6S6PhlMW1NScxjZGtVTaOwceInjawwbo/tnsewD+ODridoFWZYKAzKh1SKVOp/GqzMDqbNc/uBIR2msP2WHchpj0xKYvIXGk7ojD14nxrMl0VxtnIvY8Ws5HCAFPa04ecADq2ugS3VEe8jlYnh7LRPLN/833DSjnQ4TeZHTXDFHyXNS7yqbvvyuYTQGx2hrNbfaf/Ovy3QuA3SFu9B8AEPXlAepcjf7EOBYD0iuDtlQLY97cEcLL3Pb0VRK9NKeZYQKrFHKCbvEdabWgZXMmSuwntVQyOYLk/Qc2tpS99mjBV67yF9jBD+8U4HwEmrJOCakk9Q1oRKiqXnevzr1huRkrm7OMIzVPXajZHu57vgbGE6HitFgfXUJLfCYZOeiIWBPBcTvwEfQFgOfKgRIb7FiN4OhJJa4YH2P8PDkH12sPN0RU9iHfViqwrF3NVkbdy2Mz8BBPilq3xt8QudAiZIEGzISngGyoJuBx//P7c0WwUwlJsUwa4IyOuB6PZrxwEMdY6SWs0Pk/xo7wASwWUP4MN1dRmpf+/jS4l0RLmt+lbRa26lGtNRi54G6dw6t4684sygludFKyuRqVw7xu58J8AjuCZaUyvqMsNqw8betwUNi3B5t4rwF4raYU3CSQTef7SlpB0oYhMukiUEndaGcnQZTZ4rUMPgzMcjNeF444wT2Zr7MdiyuyYRlT8a2n2qfboc1nyS5IVtPmpCTMAN1+HkKvSYXmYFgfwZQ9EU/2u4F6xilm6kGIyVoAfC7w8Vzw95TqTuHQV/PK+1RmYGb9DLOt5ZE5LE8HmjQ8aBBHSA+wNhk9B4i0oZf0kEtBNySoZGmyN16x09FW5zKVknN2OAdoGZMsSntT0PvZbdkZ922sG8bZM7oRXZ4Jsl+EzS3n1SuFTZXI3zZN0B1VQB/wTHpuPSjPj7cC1dXIp+c1bfv1WAr/3DasZGLzYgAkwJ/n+YESUXoOx+JG1NP1sC7tAy/kdLRgPVRAUVJbRdJuA27neBhnxO+9pCgYX9PFPcJRSBLQASjDhSjVSvfhwoxjkDZKo1tZV2pvxO2IUHcpVMSpof8Od0ni7EX0vJC5wrf5fJnieFZOBcc8NJxB32QhEtDey6tWwKY6fbW0SAvRCVNE65ahtnh4IdP0PywDKi1snUYVRFg9/Hvis6PKoqItrYykhrAVJX7pLPj/afLDnrjLN6axIvqyWbzflRN/ZoL/Ep99N02h3jQY1Txh6/huG84WG0/dXwoXD78iYHIGERtY4e6b46PCdJLqaKudL1oxXDsun9ZuIbRF46BrYNKtGXaQjdztfzbGGohG4U8dMgZoHI6fDUQYul6i2EpeVpfS52Ostlf7YhAb/K5ZQSPRiS/ELTgLij93tjphuN46IkfOGsOcfuUiTGkLUfVIfWyhubWeojdurvlzb22rvrMxeFE49UZDVUK+Xx4/JSe86QGzE+F51DTnsn91BnQK0kODrSg7u8ms58XhVk+NA1MeBgb0jgtdRLBMqfuYvK/h8R4tLJZ6k6FXp9LvFk1LGhTbB75n7H/cAc1VftnJaLdeLDUGttpIsD1+1+tbPvMGfe8/M1ey8Wf+i+dHjbfbDoM9S1aP7k0fnhgdLDOYT6tM15qdP56G5Wp1xj+SUALcLJs0YwkDpZMsTcPYnLhS8gT6yQYZMap0wyxg4uKjKDb9acyOPscmADXnSuKNaqttmaXTGCcmrZHTxUzv5CK1wmL3e6FvjN/tKP0wMkkJKdE2f9EjZ956d57DQUoE0hj7SqP/mDlouj+Z/1lGLtsxHBWa97BHIpNmZ6L93fv1lwGuFE/o9nUmrjx7sTxBJbdnWmzsYGE+5q/oJobLwjr2r1/pLLAutZKuoPOi6xeRmeQGaHEtE0c4foD+NfoU4CoB2CsO4yTGgrGd4uYRH1piHWRNZKLrTP1peGp2CenGM8vcKAxpoZ1iw+JtnbsnwYos6XfRsrTFVyNMkzijbk0Q+Am6bLYvogoH3H10PgEwUBAzrrQOHjGFHW1gapraEAf+RLkoIj/poibgzEhaR8BqXrLzpE81lQzawGZ+NoNF5R4bX/ReKD2KrG2HosHyfVhtDaAPujQ8aBBK+A+wNhhSrslRz2FN9GEQC/6j4ONNnXYImM3wgyUN9FiX3YiOTi5SftFAEYZ3bRKCANOTtDvaM4BXEpN9wfNYsGOPTA1YwlFamnYvvadIqHS0eVm+1tC5ZNtMOdKv53BWp4hMfKtj2GIjP/G7YfCLRBbAYGJrRJQAWSk5vfj1hBYMu8AaA5FVUO68aG6kAsmAjUmT4PGCkesGkgM+xXePM/NfLJ493mlUHFQ2HuDmlLyOf7Ss4lSUmxeT0FQSMAUzO+35XKeKydRM6iZfx6PkXKmXpv3LwhDY3E4ZYkKbBwknPEewzUqxGfGVqWPrFpegguM7Cr7BjntVeQlT/PPYqLHV1s6ohaiEKCyyrHISQqUs3gexWRX9I2R1W1EWNG7HjyGE8IIKPijlVnkS+wagRvM9+WuQO7XqpxRBs+x6OABhe4C2G2x6IQ2E4rhH8JBvLLZJJ6cQeCb06+kSipb6QIZOpKb/cszsrbvRmFkifGAB+Mj1B2ZIWUQLLids9ATcpjVJkNWqYuhmHF8tu6NlLAuEcjxI79J9rUa8qBAAczlM+vpXA7OCxGKB/CPJOj3mQlCY6Ln9H+S9uM6PLHJgokWoTY2h0BjZ5Vsmzc1/+qQ0U0+IHH4q1XQHJXY6bDoi56VLbQUUohz3sqCkCCRxtOUni4uRcHbADJj2tmw467RaQXBCEUbKVxT9/U8TNpN3OvX2hEkL4o6AomP9gA2tl8oAf5C5iW4QQQ7fdZVHFo2tIiETWd3HXlw5/Yz8ZcElxSin7CUE7i5GK/aPMNNjYfuuuiCyjCysAkaxjzQhjSUVQJeNPz7QXD3xNCF9wpL4/O+aQiRrlFcWcHTS6YY2KI+a+WYYkiIWF00lK/0gt+unFa8XOw7C5f8j2guyooVeFolau9Kw+QOS9l3BXT9yNVuo2EGsjzZ3uwhq4hpkFzee/gf7sAHnaqzxAPvlDIr+mIY362UYxarLAWJYQEC526ZbRrA4wmzZR6zj1hLoVsiK65w2+YeGvxs6iQA579bCnC0w7onNgT5sFJfmAWlJJmvyHCmwrTYT9gVziqERCuljIhq0rGAQBKKPJcGpdnHoKWkUyf/Q+c1ywFf/fU3kkwIAdh7pb10ZLh9fqlW1TZ9cD7GoM4Gv8Whg7yAYHgoSw2otMilcw9s/DkbABrltBKN5Zr0H5tSVkmD4rex45jrdpeyMgCBX/+bR4Y1/bhggSSis8IUdsIueBIdC2liVz2EJ21tBBF/nPb2ddYE2oLGTUoU8kl7KfLOgSeXNZaelDrL7yjQ8aBBOyA+wNhhTHdi17euwJXEGQWcCdq5t5ZYxkL/zDJgvZC5ACuxWzoLDCue6wEW249gGxvcXl1Y6D6rpFXu5rProC3412qRCUGRvcEibGN307iOiwxou7zFuMdlqIFpUJs616StkFsy+uFAyF+PLCWTrBy0FnBdW67xsG5IJq3r5sBsEpVUX56GUSvAnqi2oOYdo/zDkAGK2NK9ZHsWyPDQiwFvZsMO8dDolVBip5U15JvakmH3KLAj1M4STK95HN5cPpXainmf/5Kg4bpBWyR1m7Xlflu8uHReSnZ8ePZXAOwWsxyFvqXhJ9cITjrmyLq2VKl19BTWoGrKWId19NgJcpfi890oSpMw63F2AHCAx9CRqxOJbOgRq1pw5+fquKH2pyPoHQ9pjRJUBxckoyXITnNSLojKZyR1HTGUrwdmh+h2WZm6WGS708X6/i1oVxefPIgvCjiDIqVEQErI2dGbaNY/iNft9QgQ6PMKbEPqqNHxjTrPR3Bo5EYIGXm2l5/2k5woSQduiJ2oyUj2gyikHYsuCNtITjMKgq7NrT+P+JA2TbpY9pmNFpn1KdKgRW0BHnGE5JoLsNMwlmih+ZjIEJ6NuT5uhWmDAdZhvKdCMrjLWPc6iU8LHTS8LUZ5mrV8pvg7xQH16VT/72osHMZN/6JsEfmA+Ne7bik8l03Uy2psUALIJd027YwwTGGb9kvrF85wrdM5JbSZ6n+Jdn2YfpZffDESkdyPFBTnoI/hK4cIx6rvjEUtyr12xT69cVTgG5fVt2cwn+KNtL6EYkRvEXdRB71T7XViHMQRFSa5tQA6hZk1OemV/AVsc07t08LmWZN2IklpDqZHR6qnWCI/uiOPttMYYVYK+83a25NOUSbrPdKz5jjRcgfMY68/QIjBBy/s88L+7NCtWFjfmFsVdl8hhprevm6JFcP0TSS/Hoay2Vbc0XAA0vYczRmGgnQGnR+L2N9d1L+NiAG1xVn/9CVG/PDHFBU08aQct/vsdJhHwFt2tUZu/pbEj3RIPzKgEb3g38A1511RiXBmI4N2UoA9lRQUFn9XeN3RmrXMVlXb+USxYtsiJ234qZsYDkkiBmdUwglDEONK8Br8qemOSAA671XUESLvwnz27t2DYBRVnlzmRHUThVRyX8m4EKfC6ZcBcNXzaIU21kuHURzIaNZ6a9xJN4DnrkzWNlmnQYJDJ2wrWVMxGCX2gIzt3hya6cI0tKyNrb40QQVAULSjFPTs37xgkc07LyPAS8hPYfjZAMJXzGDB+7q9GotcZtfsJy8vomjQ8aBBSiA+wNhhzejzwiqoldrG1VHn92hMQnmZisaFKcx7nAGhNMPgXPsw8CSSCBGojz+Gktn3m0bTce+MwuQU7H49slx4uEz3DPPoChCM7zRv/aA2WpEeuO4fpf3wXZnDg0mgClorexnHLTFw+oq9AMnluLSz3zUf5/yyRsJwFyP4ulP1WqsqwK99uHj8CQwn9EoW/aWZdXEaOfL1FRHPzO4v+kJ4kG0kHJ7+K9R915wJ3xB/yLIx1+cdZieWug/j8X76NUNv3nUAmPPnpiw3emYg9pXe1F/4ogN+HsPTNbLpBsCHMqSVKURWgw2gg98sZer3mkJZ0iIWHBpgz6M2QFPlx4uLGhLwv8NpxrRJFMZkqcaKHaKAlw9/QBRfX11Jmxkgav0eifc+J71VJQNd9vZ0LzOa1FNCm6lAU/1WS0aqWGQR5eCTmGFJMpkJI014dCOrmTB2asRFtdZ0ImS1EctjHOn9/Znj0Qh98ewPqYYbM2q5K+JZQRjwpH4AD25WQIEAbLn5loeRpoFRXl4n2KW7DLAL3x5nBwQEVJ4RS1AlrC1uevqFrWMipavIggYUSIS2QO73RD87cKsEEDut7frRMsL5XKK2LXrKierLH+puv3ryVj/lue9c16TFG2BF3CZjtXgRgWrhDatNjxHxD5nbtJNQggeBpOW0q9PPnSUPUmLic3ptyoBmw0LmWc2Gl5ywLTBIZy+nKUeYnPxYJFJmoOxCcuBz1ofvYWOFwXJNnBXzfLx7QW8NkdZ1PNGecClBOfiogFualoD/HDnJXyBD789SYzdURdY518nAu6AGnPjU63xdmt/uBYgDdX0J0zqJavjbw0KRIVlvQKyrjt1QjJCe8eRYYpft87ESmWcMlr2hxncLfTAvm36xzGGjClP1h3cVsR3DPr/hjyCe4sOogBMGr7iveSoRwodgS7y6ZsM81PTDfxZ00Q+DIZytd0TKpNFBZdeJ9vJE38qgebJEEnk/8gxZ7gfLL+fdSJCRPoQ/l6rK9cLCBFqGSfNfg7hvHT+Dr0rd3qxi+vKL+VMAP+1/tSLAtFQklmeHqMlgnmfpBB1VfLx9iP293WmKc4uE5HeL9WEnszWQVF8at5NtwmCy8OLcmJIl54IkHnJEMpgwI7OQCurQOI987QdIBO5w/nqzb14R2yBbTByFB3EFSpZdO13sTQVwRBMMyENnB2R2urJH7W6J+jh8MzCdC4mVcLgxnCdeLOEZVaayh6ZDr7fYTxNtBtzoKJTtpaxbOPMShb5j4KQ34/+kQCsYvdfoXtlBjijQ8aBBWSA+wNhhWB9mg5o22iHdIZCuJBIPfX3CTYLoa1QOFMvNPcKe4Kxv/oVwnl27FgNYtvs0It4t9lmzG4iSXEij06yNYUcs3x1bUbRScoKDYR1X+nYIV8Re1/xC9fopjqdm7Y881Tdo3eoEuZgYMHo9OtqLrx06NmckJk6jZDyE3bwfzLWsFtdGDXvJGLd6FEWw32gBkoYsXH74MOCR6KdmzrmsN9WnD8HeWqM7V4/5sanwugqW4GkWmO0R2hRW7cbn+8eW8Wi8glji/Jc9tzy1d7zn0OrygP9/n1u9d8L/N5di5QEGLs2OUOdoBvrv9kkuDMhupXU+wRtwKnGteW/k11nJQdogVFMAoggFPnl7gpmWbpzcvjc96ljb2k06UuSS6TKYXrIGXJr/YGqBrbAw8n876NaqIfsIR6HHL5tq8mMuFnccWG0XDARGtHmEwtGUkC6lI8TSFx67NYeos058EoAE53c4syoyfLXqFQm4zljyo5VPvDpXMIs/u9QoiLsSp5LFLFsaoFM+T6ogXfKNdRO/up+X5asJZlFFfTERl2ehNeSI52tE95ZhW+WncgUtOf9q+pKeXOc9B7relGCBKJmxVA1k4tQFUfotEBIYKdpjtyeBY2dXdFW72WumyfTxNJO3iNJxrZQEIbhY0icA6jsd8kYGbPkamzOobc8Rn5hxi6RwKLwSaeUURh5OlKcgtw2odQaZY95ZuGWsJCEMM4FFvpojrLap9AMlMpawytyNNNQM/ImlARn0A4rHDcdjnNdctddAhnhwXap6RpkuxhMa+DkEU6elM7Qz8YtjG+T3ReLKo30RbQa8orcGZJw0Kxu1j+Hjo2VA9V3qy+1UWfOz7pGYZOutjtLwuDpMY4+NQJpcIQkyTElbCUKwLXjdUQOdPa8o3NJ2V2RHQYE+EofnGWWUSWXf6q/k/83Ddhe/peRcHqwSa5SwxxwoyfkWQl1x4IYeIbhnyMfBYFeXBvy6TrsNAsPLZtvA3GITGgU4YNHmASpHyuPi33llbFgBaqCXyfRFy/oDEld8HnzmpkbUrzGmnTtEpPJaHbYtKmNYwio66WAOVdOoxyIBX1Ctz0nLnEIenee+UC1y4NX49RbB+CUEiLTcJQ+kphK+NUG7hMqhWjWMmfwXvo61a7Tv8mJxpOj3YVZ0RARNxnPV6tebL2RlxmP8uR3YGrYB3pOUkENrh/2AAOv1QbDXnLI2CLcyiYrzgSH5cLpu0FH0BXsiAth1fIu7R1kQTaiGdfJRWrEZHcWO8BroXQdL3o6v2g5KRKjQ8aBBZ+A+wNhM1htsfxonwpkqAVmW1cypEuWhYWIK8d0MrBxOftWgtkDrFGZWnOHKUgMUTFFV6sWik1Ny3MHpEm9ZHvcmEAPWMBBV8ty6a3c88+gD71HNcRH0rj0UxqdU1wAl1zcqeB5AibEqJIN6VuaBLJ/Gp/Te/xeake4+FPG4/QLGux0cuTgQh08S7tNVLNpWGxSi2AhTIdW0MgVdVk2B9eTe7iK+kKEJDOOZyutYlCAfdDZFKmKQiqS4/tQcfruM2gNnPjxoIF8xG4bsULCt2f3y7YwgNJ01Oj03WZryZeUG0Hq3Bhsg43T92AWsT/psuSnp7L9P9Gev0iCx2jzKp3cB1MlX9VAyxBOzqZKlDRLDYQJvamyLP8pm4Ss3aJb09cNstUTQbjw2iNpAFwItGrtFZNjJcOrPEAffC1duCbkojJaOWGFy/1TamCNTdQNJZ+KsVjasQhUMSAQPUHfebdFF0/e7gxu0Q3H31mWFLG1ptUA63e4e3V+KG3aXuGLFhiLQJGKhzkbQqkqh1EgbxTRXk47PenywTZ9zEQbDugqYczX2tMzKDjnXVGhvzaojuxpx6iU2FHic+3B8OK+NBCT4ja9w9lrspa1GYQKIG6LKdyrNPPP6T93MWR33lDhTwZzwolGjItxwNpib/yZ2/WW29qFKKd9SgiPQenS3JwzkvW7Mx8+IgAxNbUqF6uCSib0Jnr6z2T7i5X5qNYKZetgV2d3MSarawd1r7aF6K59WlVABJpqDpqAzWDWdu9PzB+xqiF11GvWJ1ahnRMWhWS6RlfiOC8ksljsmIzYWwMHVkoSc2JcqbnPCpFPd4nS8xPnV9UFqsp56Cd3viuddWkgN5biYZLvAl/C8xdeY+20Kodldgt+wCWBXIA78bwAtGLTEPVgoamNP3o8nAzs6QOJfW3y1fXCqJ/Cv8+0Gtin5EIDSS98MreRdQ3n/bdn5ito+D5Iwm0+AjGmECXnlpEOq91sdxZC+xdJ84VnO7wjZ4WwiAnIaIRpkWpipbCpCSNIrCYa89IsyIA1t2PDYuijYXGyCcfZf5MApSMnQ02JF1KkVnOUsxp43OsIRQJ+36lX7ep1480HoTJiu6kUU45/TVLXpSIZPR9SeQzCg2KDCs2tD45WsHx+0UhhFRlehUNOnFJbKLv9NVunBLIN6HwmuVKXA2STMLZ0n35BfsK+EMtr57asoK84lrKmoumqqim2sp7cD1l3PveoC4xjCB7nOiftwqACGBcveEg+XfpeBA3vNmuM3WTRlMosT5s9aeM7Q/OjQ8aBBdyA+wNhkvhUN0Awvefxg6vwxjCJtgT3XRwYbMStmBzYZkktXDVx5uAiDXMqiORz3qTtyIXxKgPJj7/sH2V2te5DSnwRKnMdW2z5Tml7Mk9x/oiiY+oZLuCyjgN0hBMVGbZr6NosqKjDstKMnRHxjnSbLZ2qBL6ZLNteY6uLluVD6w/WvzhaW032gwiMMolK7zLfbH5iLUUs7NGFDuANTgB/yd3rlIVpsX9/wbB6vfaNgCKAXxHBE2kC2jMwv/MOGQf9racbF1pgj0BKjCK42FRUaSzysm2SLEPIRRScj6GIn79el/gNbWJq7q9fAOA9N0dZHNRxwYttCMtPxpNlfvjLTvFyd4yw2IEjhPcoMDoup6p/llsXJAYbxwYBdq6mnU8X6z96tu40VcLzIwqp1HlMSuvHgGzdk7EjNx08mIRK5Ac/6mEzUvtzmTqn+pyMLhc/u6BuyHX/uCOay886T7LJgbS31qQhP/T0wvczMRmHdVdGSyQ6zw4mElQgcuxx+Vo5lEkeQAa7tY6G3dnnDLioHcfHpVz/pO46lu/xUR3W29KbNdG+oeUwiPYpsdLZjFcffuId6u9haAj1THavyagcGfRYHMEAHh91WKELYia6SgskcyhU/on+bTk1k2v8dJlZHWHw2IjvRJnr0smZkIiyI1KGlqBeDxyhKDIKp43lN6UxN14Y6QC1qeNHJHFHnSlNXA1RF5t98E3ldzKowQWEUizbCY1M/ttGPtFhV2h1IoX4L6pyegX4zp86DBkpZLi0Sddhlvwl0rahecALrNrdf43AAg5FzE6yDWvN8ezJ0OqKNqFtEHuOt2nylY/QwICtOo8mTo0ZNWmMr4HWvJDu8Q8BYZLt2gp1kvvqdQahCsUFrG4Zg7qkstZxfTcMC1ZYL2i9d0BZapMTHxbuI+28EhFDB4k0/bA04nRbSWJ2fc78BJLe4cCLSlxRgdRhY9sNJM1EAhb2AzPWi9UBAfckg1XYAHFyXoygG0T7cxwXb4ptaoluGxFwXc0xsNhgqj7IvEAx8djJAy1hND1ygUsPatb5cKfQcJTpCN8u0C8UrZzsTaXVHqe+OpaVKSY2QOO6fC020+Vm4tWTEir30F15dBZPD2/mV8n3zth5YSdYZGTuzLfQapucAnck0PxF2nvl3teM9SzncjxN4ts+9aCEl1E9fm0odV+fYqObt8zVSZPHN80gvHBsGGUdnE1xCNyoM+eQGccZ41J8asZWcCmdVBD4BYulthNHx5Wu5u8QOlWmw5rKz5s0i76dTNhCJGuHXzmjQ8aBBhiA+wNhk9C4XL//wk67iXlJgJ2njbVRNw9VaTY2C0PSov4ZP10zoAlulG0MPPyBQMf55GgeVyjSN8bADoN2n5PFcldzUN0YMi/tlXxLCn3fNjr7AEBp3Da8/x/iuukEJSH2LHZqgIfQe9hIYIt+/21IjOrUYk/VYk0qQsE8yuW5HHO4idEgAKS5TcqL6sZ5oOYr7zhNB2+JZpxWXsGVMc5O8oH7mcqUVK6J6nmB3Y5JeQhrUNyyEJ6EGFhYgod4b9KdiFzSiFeFhoK8dCLdz5gGQtCOIFxxMwXOFUM0spZ5CdayDmaXm9RRoghEtzlHZVN4YgViUd02CFWHMqrRJXWC1QIIswIBTZ2DL4YkajpEyIU88GuxBEnyo3UqVSfHvVCl3+1bzhNln7sgk2HcvuMnEcYcqTW6/DoNtsxhZabM3Tc8cGG7dEcCXvE9MsznUzRXnruxIXp4y//r+xQTRKbCB7KL7Cxsn4oCz7BSsl2Y80cxBrLj3rf7Q9cKlNGq3quPGYl0QXnr6NqVxK/nRWfD+MLJa/hD24209RC1bg8itwYC5h2rtzJdP9aW28qQN9N2hX/5FWWvgdJUE3U+8Yo0tg2RpCPqCLejqi/p++pZPv+4eota0P108Ox1Lr8q/lN3rPg8NqCncFac/O0MMtwW84rSKAZVGEC08NzFzprDQa8urT7kNUyVToQu+BjMgcNVcB0R48g0hIAFZ7MdMbZV1cdltRNDTmxABV8Icd3JzHT7QRpVFj1ajmqljfOadO+SyKsAO0ZPb2TcZ664pTQx25EvF65Ukvls9bd9KVPzLCWY9iddxfgtiMt4WQLmjDuWRWa6iPfQJmpWKkqd+Ote/6TuYbnukJVwCGBsSwfcJgDDTlZAjQrpzMISR4RFa812ijQ7KYCYto2dVMqLtcVO2VEP7WmyfSb6dfxNjo518j7D3yDyQYwVMwTfzhl6TfpgB7cm26IMfjxDNDD+nuX26ea0jDtMWNRN98NeRrJGmQk8G+v7DK3TGGpNOl4iDIIdTDTIOLTLrEkxiYwsvbOx9mnEV32xV/NqyugHNioFbMgg3K27fLjXgphTbsAUVAiYfQljhtXVyJZL51iC6PaGjA0jqdrtp9BCUFUlYg+NlIwDtnkCHzKIs66vDANpbDWcOIhQ3o3NUaqg+2m5gUROJ8PjwagZSDMGIzz3MuXlz71Xl1L/omwe1TvK11V0zqgPEhYJVDs0Cb91E+462UN/A0ZZ7T3h3Mv0XY/wwQ0zgVc1DGuIs7PeEYs+TrcbjzIPL7ejQ8aBBlSA+wNhlBHMg1QIg20wfdj3O48SQdWc20pKQwoYcq2j01BwDOYcpsuRPGEh62R48thJkxx3MVbwNf8M9Z9p5jt9+5BnNJJ1CVnUUaRu0dBpygcgKrg6MTLJSrYWKZCCaTtrNynqnQzinp8xTFL0+mExI0YY1W+iNTOVTO3ynGSl7suRUN5m4y50ihkGateh3qnPmEf/dqTwNm6li8C//pujynGTZKC+cyiEWspTa7nF1+1E2ePSYWOiNbA4fWhBcFgXC1MEGJZBB6ahnr26SON4LKbMKAySvS3VjX5WqPnKJ7lSOGMDXaw2HF75a2IHucX00SzSqDQ5eeHk2SuGMW6Sn+btaMF2G69xnMo/fnauCmpWTKsAuCeILIzE84Uinch8HAoSU0zGZvdm33e4jlvbclMUJtjS9QeKGJw/nKG1HkIALWGG5WI/ix9jBJhllAugmGC8CeE6skXOzg3ZP7I6QYO1qNigbFQxuI0G388QBXIk6G3QJ8tf0W0mi1sMr5v7is0ltspzq7SnSqVt6dCE2UV32MYjIcPl4rL95Hs/4RYcZqQ8qcUm/yJiGOy3L8Yx41nQwG3h784O0ObJPT3Ic0ibg9iXPGECfYBAVRlElyOqNBvoKEWcxYWSMj0sqtHX9oaLSNw1drVJ/B9fqwtAdS0FmzvM7XqCvpe2zFWDe5h9f+1718j6lgnbMX1VoP4P6a2nSu+O/A9Iwp4qT89xoQpiNviN0XPphgRhl11IedmxxXZwf0yXiWchIIwACT1sO+BmADN4PD+RiUI7kdVSVo99pXhGUP/7jKDvPlLSTmlL8tokCfwSfyF9RbY7IQRw5NXrQh30XKocvSt2RUFDr9FmYYkAsHfPLmb1NwbVY5xhHFtYGDMd75gad/2rkYtlpxzxE4eKGyeO7Z+p5BPax+x9S6FzJQsgJLLBVtDb5G9lheJegl2hmj/S/8ZYekDq3Emd/egezlJw1OoGqUCgeSp/bC+8qKAAtc9tBtlHPy1No6ONhIZVAAdo5oPoD+u4AKv+wfyaZBE6lhLG/HiErS8OHkHWqKABlFtKM1o4IsgvjLxJoK9FzsjLApkgxriaYhxr6euGeu0xg4+eSYgauhCh5V+6NEZaRvcCjU8FcS8c64spWmkcvTDO9VdlXdvPbctEGHH/ec9X1yxqf+XqgUy57TDZwiDvMJisTvUb04HmLuYAnWTlun4oK+5tIyxOXBpqdWZ0F2SKjulJXsURe+fmN89C2SKePoyMJIieji+GKGf2GX9cfLqcULtrtYpJpUOjQ8aBBpCA+wNhiQXAC3tnOL7zkQ/DKQUR50N+ctocXg2gkqwGD3XheaxfAQGDJBVOZ+H9inhgiDHhektpqr8JV2Jxf5dIqe7ATF3uufXRN8QWFadJMedUlrKq9Dj3NmGheJGU96Zykab3Ljf/rk5FDwbwHm69abKxPu6rk7fhi03JUFk5YTs7qCPhMwdJq772ql9m7o1gC142XLh4eNeBoYRGhXdLY1/Hz0DXk2MLDZkU+ZLFHzCi/xRd6sfyW4kQoFm8YQOJ232+xfEjo/x1Ozz3lgT76Gk1LS0HTCxfQIcwMdk3LR4ZVYYrYXXXjTcueG9FuTpR/nuroJxQhOwymtpnSROT1FwdCFVx54rtS9RMaeAaosB4ZyblLfvtC/bywBT6sVLji2kKgC1kGF3Q5sPDK91DZnAxvNBQG0bUIixdlhe5cKTzi2E6hsARAmQLWyc1wrUFIRUSDCuHZMjQSYZm/iKM41Y97NVNoExScXvghmJy1v5tCKMPA/L9WlI4t22SPPVryzGeP+gKqPyuUzS4i+wpEqB8T5nIknPrOnAr2t3LC8qgavACkar63DoHnYe9xs7FEUdUxGcaSbj82Vb5f1YZx5FiefGUEJ9fMNXQOe9jkRht/2B/HeLeTwjQJ8hGhzBA2Sr2bFgrsjmU/1LNbMXYTO6FvnGSrAqwziwchhhg0Tycfsh2QCjxCVVWBtmPrV7JMKwD/DeaT8YMcIkmiUe60IjznxFyrPqJc0lhsMbkdEs9dcnhYhlCj5CepORUql6KKwORT8mX9Xok54XJAZr9LXhYAYmqFw0q62AWubl37LQ7dVEi3QeJpGG/b0s8uCkOFYCIK288DjHkLy/ZnUhmg0P5YYku7bnwJT0qD6RsKbSw8nkjF+cODYpaulkbP2NyY/mOZs7YlV1S+b3YOqq4jqVb2nNTH+9wQ/ix80ajzELNe13xR1ttZU2v7JG3+Rw74b+FQuw7UZCl84NEoAhGhOcO1WR667zDZSHKpg9/43mVIsWAOhj6zXgFXBo+9qK6RHsOxMXb0XLnZMXKFrwZEn4aW3RzUw27vsAYK5kjA4iwq24cVt2TlxixEP3ER/cj8uJmyYRahd+iMsZNZzb9E7JIZah3kgIoHnT2FR/OxlKKYxN/v4PsQE/CBM8BMtnIQyJ+4rpseav9dyqn2qlfPk1VUPY30b+C5qhJYrDnQPyapmiAu46Y3E1F8YmjiWpL4m+khX5XBdxT/HfM0hsActNc5yW2Qj/VNuJu8zdIG7HZSrrjlG22ZIyvTeo7QvKatUWjQ8aBBsyA+wNhk9qYQvnJe9RWTDNKcfwc7jPmTR4PLi/XX+Hkfw8eNWvVlN6BNshw5zVtsXl+OtI06Gh017n2CXD3TYvt2mF1pwK6NjZuMYk2AlpTrsaZJG86S3jyjUOshAk5cuf/bJyGFNxSRnY0R97P1ZCJSEsjyhHTjifbT8kmQqN6/7fT3atTvorjjMkONY9M6kzt7TZgqX3KzKsUbrFsqjGgbyaEZllA5G7U2xOGSQq38JCjuX8QyrjFmswdE8mHZbGkr2P/6Z44wCw9ygDzXmTsxZrD30iJ8u/vzoqfpggrX+jw7YlzRSDYju+r79CbVV2zf8bWeY073WemcfcjuJj6ct/bVGY8n9a9aq4beikx6LIxyiunaCY+1uCBZfi0vMMmac+GQ+xLeQASo6OuNCz6lUitHRXGdqO4ZyyAeSFPpYxEO2GS7wMI/PuH0sBIPuQ712qAvJfgOVqp3O1E/Rwa/SXB7CgFOo+/KjE+HGEXte03WdXiTo0aWozUMHyfkf61JIuSTBkW6mvw6AMnCg5H0v+TtF7xPryouJME1eyAEAhPs+/5eCTwJGrDPKttwQQOKxEVwnbs+y55vS/U+Q1zoVVMoZSvGrhZ0h7MRx1QgdDforHRCDFCCur4hUKX08OwmEhM87/anYhlURrktQwW90eTcOJ4rCoEMGgKwSw00WDCOwt6ELR6bKwLhYSdR30lVxXzey6fTzZfnd0HnQXmKlIwIx1QkDrIMADhdMOoYiHydhXTRufIHfFEM2yBxAaCJmxxdW/l/TQt29eK42SznE1yvGbT9AR3EasVyd31TpcZWRJx7e4Z/I2w9HWR9fnSJl1a8Y8owNTCKh2WgcOmPvtbYZL1QEs/UDg9sTOuuJS/6ZxlDKZqPgsEDMuoXrYiszEjm3sxf0QyQAtxZFl0pZkj6f/WM1PY+n9kUQPNI/ra34HsbqeBFOghbLk+ANHvJ910SKuI5q0ZhpWbS9bFr6rC2jde/VWht/yn0PSiZyYsMOxek8Oc4bxIXOtuHapNYsZsPz6D6RJhWMpPgvgJMAwUVwc4RkLT76go41tdzbSWQKF/4Q73EPPFgRBaKkX0cjF0nf8+30isNfk3sRbwDaKu+bdNbhcTWQak5WUpcZoZwuEZbEpWg+ucOne64uFw4dOzfLEY4pNVEEkDIqFFDXNbKozBpR9W2Lm6Q+EUTfdE7F2v/AJ5+yXbSvPps0TBg0PyZLTN2ScRcI8pkdJ/lqaaOit7XF+IbsLnISQpdZH8SaZL1Zyk+KSdPEjFnu/pd+yjQ8aBBwiA+wNhkwTP/hE3kqg0y71zddsFIdj8nqyDYcRaAfnWBvbxZhuz8kJVnQz0xfwJcTC8xreK64NovKEbzv31Psk5yAtdSbQVdGeJbKQQkSlIrzQBAgmXuCPz/nUx38jdCAHI2/QxvgLr9eutk2JJubbbfnBxv+cNdjxeKIfJBV9fEeW0UOIH4bG5eW6FurnCEJ5t+wcUFHa4y7ht+p9063sXE3DDMOdhHVZQ+L4Z0GfMF/BGqchpzY8ONX3acZdySzr6oRH3XP+rBdeSOouAKzzJf0i+q0BTYr2pzHLXfKRCnSljGKRV1R2KfbUd6kpyNQlLloi3ULKxkYuIsbcu6lTawC7noYcTJNPzzvNwWBvSfEbQBXxCNC8wK9/uY1ZjMBsCog2rVIAfoDQUdY7UNkd8BcKluDAMJOkhTS6ArBkLUSZramG7xB3KNfM2DQU7oooYQZT34zEB4ks/UDgE/3kjrSkZVwfSaHOh+qAXpelqxZIYLO2fhqxADe/iJCp4iXKmsfPpbUmc8dH9VOZioqS5HXf/nxQPuon6nR1URFDjDv4yuWeTWH4dgyC6T3MYoYTMIJFBWWRcFzWbE4Rl69j2fZOkJSyQRm88f4J0YeuPvWRqd57bzjIibj2f6+HnBXhBOg2AMYihbyp4AcH3lbAAc/PUP+3fZXQUg7RGriQthkQ8/aZKV3+yu/aeS7p8VoJ2DtOyWnGIzhfzQB163Uk20AqisL1wdhMaWJ6xPl//eRuJ/lTlz5ZQBeua7b3xx/LO6sWWJOB7a8Jizx7Puq9uFQA594iOiJaJT+lgdEEp8tRdSd5HKe3HUwmW8rPqhus4dpZjqkx3VZGjLTy6Rsf1dqY/YcB4D48ycnG1urhHtsOXxviu5c4/QVSZHjyrYltx8b8mFQtrS5NZBgNOXgev15pgN+Rbxlw9p4fsfDs8J0ywWfpdVCkyNzTznIm0eeFrLrzDyLlO15xXIlymiCaS3F2l1W/nAZRw3HVZdyqQQJWS/33g2a9mxbs6dwugc/v4aSgNkGn42+yst5uiv381sbWhLK+0KEgg58t+PoMrxDhLvsTZfAk8M3RmDTvLXLiesXwJ8PEd1Bxpw1WtxpbPQYyv9KuJHjdstadMuJzidE89/e+RHGoS4HSVNwxsPhO0Ap+IXXynYacK5W2ERF6rLPueLLEcaTWaGhdSg/ZWSmkpuYMi5ZUe5co07zKMIJp/OubNwnHFUAcRdH29rdiBwXE5gGVpfQdwHpqf1unjFi5XenF6ss+2c9iscHWjCUI9OT+jQ8aBB0SA+wNhiP7SA60c0mIk9uCTTbZU7HtfyOVRK+P1nfbG/YALqRwbqFIBSTZBU8VBQ6aT9V3+J/mfbgtetrEAeMkZKKyjD75T+qyVDFytk/a1XQBMFYNKh1wzyjuNmrgwUmI0xORywcGoB2awuamt83pM3fv4ZDhvoNSoBZzOUBOp6axQCsPz5ynwb+XK5O6hE7V0VGvZKQIlOrGGVWDxH2tTn+KPyl33tvn9XUO7uxygkLSTFfHxwrTGYl/435og9fqIYzvJxGxPUlPygaPY+19uncPA2981oeHFulRKk3k1LDcLTePIjLwSXwDpS7kFS28lOTFS597XcerMdXdvxQXpxTOrQvrJeHyTbFmMUlvcKBdHiWJlITsCpxqagwSNpuOKbBr2/8010SVrG0B2iHwSYlWGMMkwSYMMNjwvyF7gBIFpimGI8mimZ4L4gm64pxXaJrjyg1XoAmrLb22edh6v6l6DhxGDEfVJlhYkR9/EPMqELiRLUWuseSTGecXMAt95lUoVsmBrEMykx69ou1WdbOwWKCKgznmyP3+87UhgAF/4ljAQYqjv2DxvWHdOnI0uFH2XxW3TOyyDlists/KNSs2ZilS6MXpBea4t9EtjG2SBxyI/PBKLAFuizN/boinhAPPKj16EDLQKNbwtoLcaRZxPqmtHrJmmGWWuXYycflTHBvoOecPNMKXfGCSNAXd5ySmdXX26OFKrf+mqdoDYx3tUG5685SOTAY0bnFc04F/HvSp0AGUvASa39cCGg9hOVNl9wZjuebc8RjPWIRZGysJejqUGbwgf08lJJFyDN2M1YTEVmXI4xV6GpNQdgO2z3cdTQg9Wh62bL09row3mo/XJYbqDNY4ZvXHZmlD/1RsQrnGvSy8wpKIBIvUneX9wLu3C8o5aDuJAmUn2nfjHJ5fAMWRqrC0dYZv+xoYPeyKebRMnpKJ9xkuO5WZO9DdCyatWBW+SYBqhEr3samVGR5pvfeejaAgHwiLpvpmM/Mgp2kprGEV6oTzML5mpcqxxFeQ53dSjMS78nWZnstRe3vr3awu1dB9XpK360ETE0Ci78ILQnrp4+usEsEKkTSZouPsjhMgYan1XxHfhUpODflhIco8jiEmbbA8MT2bVNPprISSC8U+v5pxy31FUMkESnIRNYMFYfQMsk9OcX8AtNGTuV5pVL8U7h57NANh0YU+YTQjpDiqkawNdnPp+zHLuF0KFg5t/kIt6pdgpcjuvsQ8Kcx+7oqYolK2xUq7uAd7d77T9+Gu0wXsrTX1dBBT9gjSjQ8aBB4CA+wNhulmOqjm0sziN3aRtLpN1ZDSJBdpaQPNvwPEQCMmqyHLaTgfDwrhkFfSpgE0Yza5RJ+Zau6BKIeI8c0nqGqPu0ptxlPUyO+BdjfnxLSTfg4OhEDYnmq8jmsKDSN+qgmYArSWPKHVAcRvr5o3YMlK1Qj8iIYOyqAlmV3qazDhevwJNA8LO+2NVQtd4/4qHCGUszvRsXw+WQvlJuJfSxIo+qo9iiblyuwB1KPPU4O/GzVMQyYs6Bn5Wad5N7xR0H/cNRR5C8wFg5gy8UP5wmg1xsOysd+MCKwb2u6HGlVZx0KCsmCkPIBr+bjXJ3FmgtEvwoa8NTeokFJnwoobSCVp4YsvmNKyANmlKNwzVy52lSoXkzvhUaUniLhIOHp5ErD+DC0TmJR6VHDs9StXNLQlYXLDJv2DxQy5MlTunKyMja2GS9pumIL1EJupArdMeZ/089Kw3n35njt+0QqsA8xQaXEcwycdS+yfHflKU9h7gRWgYyJDKZrlf7AuHVYx2aPayKwgcq06XaNyH+WrM1JOIitU+QYU/VLd7zbPWoEb1aYl7/FuHfffFLNX2uVnpT+rv2rRsKwktwNwfPMVG89nUzp3CMhemtjFE+yVX/R1/JxIYr9kr8MQkdNLLkrvwT0LLgEg2UVjRuYETPQV3WgVz9X85rMS3EInrSLoK5lJHbXI58XG1MowaBDPi0gXFLO9cVMV4iPJCu1Nm0xfRTg0PsszYcE0Xp2Hz+LeRg4r861Vl6FGAmW+3hr+8TezPm8iUvnHasTEUB45NHobINH0qhmeRYznmGh+1kddMCdnWjEVBy19D8acmk/HqTsOQ4lDy1d/0BH1Hq1G7A3IdaNgjYYVqYUnqgjYTzrzfot9oFt0LxyntB9UZ8IYX59VsNKoTiTK71/26Nb6ZQ/MeREnyrOUBN0k3vA3edjewD66XHZWQ1vJQs7b2YqxjHI/fUfOmGSkfzcIZJNCr/vuxHWfHDF7Ra0sMa9pdok5PpYbRbue0p9u0G5mOxygDTRl0IQfkQeCROKD9tHvgmI8Fi5C92FWFBCXKMdpcesUYnEJvStIy9i0nE9t+9tLLzNuIm9QwcEdY1y32yg9RiepmuNx0KJDyZ9T5paimH4w1YRiZ4acrrba77Wo6mWcb2KH2E0K8qdWthdJie9jiTNhkcQ6VWJRo8pPZYFv+Zi21sOEIU9g8UjvMlEiBQ+JJZdP0ejZ4hOvslEabYXJh8cYKlK1h/vmDf3Gnenzf77eqOOr8EZOVxk58F2OuPcZhFR/SOESjQ8aBB7yA+wNhhSWYbIWfLUlUJnOe45cy6Ig1E1aOqKEnFyeL3HHsNU79BYLcRVBc/GR1+lzCIpi0alyK0rv9b7nFH8gBhVPaqWzrR8oDIC+B+qidMipO5K7o5Quq7dFpJt+TVtAGn/jnGHlHIr5bdA0rbJ/ZI4HL9Ib6yFFux9UsdO7AsZ+JHilxjOjf9sPAr+4MQz15OfVhuJKsOPTxvLTsUsNvHAav/Oj/cDs9duyxPbmKLOFl3ARROJNcEj8G6C4UhoJUa5PUA6QvMvJ4/OWKin4v2uxjRdVdflEUXT+JkmclAK6h6OmPc/VhBBEQu/SHdQzdWiggIDBQ3GHMZO70K+EiojWxWo4o7pXQ8WY/1f6lLNRnew5yTMpfwMEnWm1/Zxw0hWpnP64vaAxVo30P3lFdZSHdq7dfgOe0Bz2Qy409Ir6oT2GTDB6A827tCwPQBVx+mal6Ta+R7V/mH8eFczD13P1C4+etDSb31E6jhf1VWSdzU8Pad9vUOrd2wlFAXn+oL1VYjOyaWfCrcT1pHGVrrHu4oE4yOnvrIfCHW2q1usNWC/U/dlt7I5mCtTN+tHbuPUyMCbUFv9QSRhrIb+F84mN79qIWTRupo66vl38uC5xX3F4a7g84++VtjcPQGtEEc2/wz9JnK3cyqjMdJ8+ptNg+EEwczaFy/bz1pYaCMeZkICIU+xw2MK+DOPotIL2M/fBW3Ah4Y64Is+mzeiHhp1OAS2SxGdLEZWENQgOmLDpJn8dpQZ46ipS6r7SDag207VWWUx9+79oHO2nXmXGiA3NtCR9D4I7rB89Wseps0HCzam6pbchP79/r7afU17PW/NQxwwSeTJjvrU5KgYbYJwU+YYkicCEbzvJ3b5SSptSC1Noq0mxbDgbfy4egi5J3MxBfCo4X05aVxy85XlpURha+0EoiVCcKQzgnAYrGeWTxI45R/NLkDovOxg2fFhapp/9s36/VmnAWq0gtLzVBro8Q5vWbUk7TlmUUTAONAOY3bNE7hdMx/4KIYE82BbIWiajqanK2YxEdS73OE2lrnzsE5X5C9Grv4wOaDXvIG9bn5Uk9L60bi7q5UUAFYII/dXYzveIBEalcChgsfZsbGIQmLAO7uOilatWk4hnlnDhZzLlsTHrKWbnbJYCDElV0wnZT48ebE+oWxlHd9ZXH9Im9TFWE5cBK2Ckj4925WzifqE4rgv61ZEfUOcDwMrGnZXqbFX9LHSXECrATPUZyYJ8fqwsODRXqF10ZnY9BnlIgC+v4gEg6KuorOusbWZa7A5ejQ8aBB/iA+wNhu/tCNUlyEXXg6yJXx17x0T36o4PjZ3IYS0uPW0bcigjhPNjmft1lKDBBqbd+yap+yHr6753ltu3NIX3PVUYIIugxH216+X1NLMZIVhejKyv1pOoImacbCZ5vVEfIc3bh5buUwYV5PuhyPMo0Wvc/v+9N5SW/iuFTHCzZ+pCJ0MdmyXqq0i5BWlHBdKjp7HNP+PYSM21M0Sz/0xn36CQvZVe7zMyInot+8yxLLaF+muI0+Q3pPMpTltNTj4fwGnDx3XK1P8a1+1NjPtWym8j+Oqmub5dS3Id9MCKBqier2zryQZP1hXt9dC1ghNK/11+a35V75BXqf3cMUbByGp6ds5Vc/xQj9NOl7a/GmWkaeQ80hwYfm6It3AOlG9/7U/CJzfeSaQbOirL+tb4xaAbzGRUcfzVwby0Nd6C1h0G+LWG13qjW0bRPAu4ri7buCIwVimGYwbwtQdx6VS7WR1AXGzqddbWyLooIFpFcd5LdPPwzr2DXL2+gK2V5zh+cX1cQYP1dJQg9ZdZ9AWjOBF91kf2YBl0BDpoDUtl/oo/D55LG7wNgEr8sKK7awPAmW5jyu2dBwsKtpYEnTkkN3sfa9ZTsJ24cF0+31zd/VScdLcQWBcpVezgec3btJEWVtbSU3BoMjMvOepKQ8IKkBeVIld3LWLATrEsa5+4NeeUXdHkgdoOsH4VPmQxBhWl8onUzO2FvI7OFtqu5F0IzQKZFP1+AP/oXZvQqor8vcr/Ymfh64dhpYUAFYmzc0UCL+tQOTeqVO2jze5bEWg8tP8b8SEp+Xg1fCav2R9tMK/OpUbd/sWygrjQ3zGhQAJ2TkhP86Vxbap/lPU9cQRYKHBXVYbu4tYDVtc/YvKBqs5n3Bt87Ia33GXfKytE7vIvL20CYbXlDYHYW5aAmYUhR+PNwGjIUhzRHRGG4FQQuDIrDiSRAiD9bQige4+OctU0RNSwlJ5fdLXzeAZJ5PMUBAO3nEzuYoSNAbNKonGKMwybbV3xOZ6UVgappLAc4fzqSlop/bBBBEOFN5XS8LeK36iP6O7B0ao1wCCO9Ol+TISDzMWXbL9kalor/D6fN0qU4nXwY7BhMVjz/sIGKgZLo4Y5zC3G1JpBk8EukvO93TS4rqNQNKEVtWchNf/+5VxpeqKBcPm5km6FWVV09YUkI1RjwLewZHQjh2XhqXv/HYM1z5Xu41fcmisKWzgSh+VVdkhY4KbwVe0YwXxuq1yW6UBBHEzlSpThU6z5+vhFydOeLOdTqEj2WyaQrO1VixfiVP76jQ8aBCDSA+wNhk9o2FNITmC3bEjThDytJ6HRpYi9Wl12/wxB7Vib3VaaiQOdXL2InrE4j27DsXCxFrcGhSQZ1YXSlvLSNviSE7yIzgYRpoimYW4eDTnC5svwUdaPD4EfhMwzJw7T/9yYD8fWiIBljl+jE3n754Aff63PVwpiCjhjBeAWMmiTy78FyshKsJBtMYqeiPJMwZ5xuPmDHLpUsTCS1z0Qy63pJ6TJ1L/pn/NsTyb1hH+yE2QdeuBnWejCn7im1TeXi3ORRfhb6q4oI1kAUNCzEr6jxIPaLGqruYGPbTzePyumO2WDYMBPt0vLGstdtbqpU+wcFxdJaSTMT9gFTMnKcv52jzwuRvnLR0WGZpF/+2P3qufnryGY9XLBeIth3Kq+DryiabguBEzdUNUnKB6e1+7mcYT2/ET1sUK1wtf2IF7NUqmGFy7eH8xULnYTShDL0YyM5PefbEy+BubN0wjr7jeuYf5lCOcLRX5Iva0w/iumi7xL84ngy/Ju4VRZt8ARy5xB/jrZDtJgle5s37txjjn7OjOwfmmkUchZ+TfGc5jP8QRekuRVrD/MNnBSVCej7i2cvDXQrwH6Yuu3egmgdHQUyk/4KkRUgBazIcF1nYn42/QmNLz96T/RNp5KikLPq6Gt8zvSxUTGU4icCMQ3wRgnoAwA3M0FTyyi9FKApWAi+PkBWI5UW3oqaJQy+iFUza1f+6a/Sa1ddC1YPXSMKdynbVUr7Gn0KUZETKSsXfLIsCr3qFU9BLtc1cKToaJOVO46t5H/dz8sqUugMp3iGpNwYG4TaOG+Fzx4NMJvv1c5RyU1z/ti+1Otpe/5APW8sYF7Z21a8FA5MHBt7SWeSEaRqYbSMYo1J5wUuLNpeVE67oUras4Hms3JaAPxCIng/eHbl6d00tLUVGeA2vXs2QijUn4RN0H6oiwB5BoNelrA5cXGXfU1pZbnGtHgq3eKzz+FyScMARXcJmfBje5tmOmnGTM9dlnNb+sy8Wp33LWpHPH1HygWu+y4UyBl9L1y87xt9ZR+QsXlR84BscSqxuW5YzrTKRUaOBxynskSRbvolu/e3KAcH7k3HruL3lAuaRD5Op0KHjOXqydIXfb9/jVU7PuNTQ4VLpyfaK0VDtqtR42TGxIQEp9Bq+6VYPPQpWpvvvjrfH/H0/QGEJJFgK3AVljkCODQCoSb+gjDIvvE4tqoXkKhEy2QiUUTnE8ymrXyKHaCRPbXjkVsHjwFUTgMx15BJOlr7RLkPFpeiIUjsDWyzfRr6dTXNbMSes3w03hejQ8aBCG+A+wNhk9bweqPnm2DGAjuIOpaRAeaXzeoS+jTa3qLhW/irRwUq9Gm6ViZ8xKPTMf2MSevEU5N5IrhTiCYqeUPTN9IzDYer1SpZwvymWbmgn11ohdulz37ECNNmuCItMQ6fdF4brFKBFdu+gMhwwaYXmDiqm/EVaYis0KdM+ciLAm0DertZ0u0WxNhJN4hGcpjcYYnEgrp9XyQAKmW8cxEfK8B/Ov3dhGiPJBMt0NEYyjO5QfGbsj8cnLFjQTrpLtzD1LW8CsOadIjZMqikwARFUjYiSSx5z4jq7KKKYxyusAkpSLcOA9/O14QxK2RoSnUpTffv6vErrTpXkx+2Roh0DOaAfR3CQ2QpPwoor9isqQ1MFA39mp7BwpMoi3e/rE9P6RBZ5TxyIZzUPeAalmAtVGf/8ZedYSKoKK0Omfcu2zwxNGGFbJmgFGsi9JhcqeMkTjHI3161W+n/lmhMdWTRbe1hyhd7UaFljGSl9OuknK4Cy0Le1/0tyi24WMqBZcOgrtSkdLA734XhuwiwIcfDH97jOTNsgsSmLDovlm5lSmIvmzLY0Mej+9D4a1G9sNkbKD7cwjC94EgpXwu4Y+lqtdvvDbNrNDr1ml1VOtNfE2FneueF/zZdk19QMbwFw/ddDgY0ETlWXpmKuwsVE1O8cJem6kCoYYIDfPVW1gFcbnsl2OO5H03p/Bm/ANJIK8PA6t0oLpUKdOJwzgCIHGKkZDx137p8RJ3x4pA52fUbqplcPuIGFAAkTbmXKmzTFpz3DElB3NsdJOiLCCcmBureRPGbPxT+2bjF4FLmikS/oyvxb00C1/bKMosm35fxNciar7fuNH8WU9ZxqkvJiaj6YCOBYYkkBIiciqLzPvMFipQ9eKksPhk6zcrTlo2wkT3y08laUtP7w0SzF7HV2nAD5yYIrn+S3xTIOL1TkWAXlP6FIaHR6tU9u4L7yAyqy08qr/HqGcufY4wjY9XISLDixpdKeuuBmTkhFZnzXTgpCpyWdDoYo5h5etTNm2DFhtIa7S2+r3N/DerOJK42178rdmShsx7SLam6UYlNQftHXkg30HWvuBJkB1SYYkX5lFrntVkRw8TcrpqDmOJRJfARfxQKEQVwmUIAJF7jgQQx+aL9tnQ/hvRcHaFHZQcehaWgjh/E/Tfbmg78afQ4loIj041UVB9bFYQWIUY+DI3YREk2W2wPVoZ/O9L0I5K9eawOjbjdH698dDgcdQIoHVptODY534GJskiIbW1jXZMN+Q9oJ/PjvksG6mk/IK3Fk6IPMyijQ8aBCKyA+wNhiO5qTmiv84z31+ISISyBxv5C8ZAQ8OMCWcPM4TNDXawRgvJ8zlkjDnURtoBJ32uwJWusZ9SQPIzK4J/IP3dnRhnlNHF52pMBGOOMPvHgtY7MIS7L+hOTxjyOJvjU7FUd2MInkOoWjfyM6nrLwudE6hOB0c28lAkz1YzWndbQCdM8gofa5Vj5Oh6ijJhQWSB5RdyQ/lk66e5p5Bu+rryoS04bNiGshnKgcUSInGwMoxHyxt9ZX1ctRq9JcrFrtLXgbAvk/4NorJ5b1J4lz1QkzJb8vHiUP3XyVvcn/NYzK7eKtKFteMlPxX1mPKANUPLsAxmncptnCGk4gVkUUDlgQPtWMCV0PLGDCWKPkdgFcHeBLv2Ia0oQY+twznnYejD7U+DhNWgi72X3lCIQEaLfLr+XIYAzdZ5buyvPlaNNj2GTC7w1DJSmVOpDiVK/nbHN7txxU0y0HAXT1+g+9be9GhLGoquLT7dm3tTDhqcCbHgbBpPOmlH9W3TCtp43NBlO+uV0IWqIRfN2l6ImvvMgY1QY0QSSOpsXFZj+DDG8l7nPLzoRKsxTSSVTX0o/TrGisq1jPY3mAs6nudFDHGzMwXQYdlFmyrESiHxT06QYwTbPFW2HBG3gKnJBMQqoSBnNvhAFIJ5kULDnL6Q2HRss5fJWQC0ASA1qHzxu6imjRcHUrhBDtLaK10x/GBx7mUlfLtMLUWc/8yDX5dL7PQt2WBWQhR6kTQt6/+ULsRql7RaK3XIhlWtwcxy8jbqt0m1bZ29u6VukygWmf4aORKJ3wpQ6sbnHuhDRLyDLXzyT7+41Vu8YJNMtSnxIffbUHmJbpKKKMVSXu2+ZoQiBu4WxYZL1ROaQB7OE1+4I08W/ySrfQmKBrustL5EryeVWcM6UBsSQgDO6ySQb5zBxFVBPSKLrz9j2XRMfVZnoRYgizmxsO70xttqxGzARu6vdJ7IFJY1gg1qIl4neUxnDro8roS5+fH1+sJ/fE49lxlx0JUN4W/K/u0XpGry79w34nW79lwtcfXPqF+y2UUdvf7bt9R+0vaTLyNgtukrswxmRq47d1vmw+GlCtlBAcxNyROSmyjOBV/8JqxrrKZq2SW8dnh+EOqNoePaJHJAgQ2nkEDLogTUpXe3uBEREkejqYYM7thyUWwJVNlceiqua8B5pkOSn092qY7hTbN8MfcU/10+U9IG13YQtOiCcSQ98c88CxiVKey7QFnIkwPOH2t83LGR68IqTvY9zj6bv65Omck7Gn/aCrLG8DrZHou0UAaujQ8aBCOiA+wNhku4vh158UjbHflY33074u9JzHtGlpt8ShBjYQFGT5bB9iESEQqNk4JIqkP6Q47KeQCPCIEu4JuFZjCHIlGF2kOWm6ahDENLQiAetk+b2MoHYvSPn1m1SlJpqyzRH/fJtx7DE7HSO5+8rtnssIZz602KxabrGqTH/z0crcUyzUsdcsw9wIodL13gzpaf+BEkRFyCQeW4/foQPTaSfpmcdaKaqJAqh7UTUsozY7nIEloMO8FTCSvA0PjECK7KJ7GChbG8LVgCXzr1SDdm4Bqot53X4sGnKS24A6cvbXiCU5nLxmKIqwqcCxdOUQ0XBEcgDnt/XJfDy/nbiFx2BvVpJJ6z6WoTk6Qh+LOuC7BcFEdhmvmQkKGb24IFtzuAu1XSmUbpsmLOtWHFwuJb44k5O4IjkCsosXh5Nq0evZHXpnmG7mjebew34qlCIGRPcFy8QAraYqgNq0bGbFenhR9KtLRctkDOtFUnO6a1l94pqoLyrTDjMT9TILyKGDDkpH7SKSWbcqP5Un0PGEjazIMzNR9emynJTBrLKF2xxaqmXGNlESnWfNQeWQnUJG3eOF2GzyKQcvFMPUvfOyTDbUI7OPsD1BVXpS75HoytDRad/44Re/UUjBqNiNIK/HH5mfYd+t5v0UgxH04BQkUrG/yGxgBcGi840Q47Ejw2aQ9mb1cKlGSQ56WK/HS/YT+zNkT+PYYKg75Kzeq4hbH4q7vcdKuzV6bwzfXFuSDK8qdXVsjt4B49dqzOEUxeYc69pek466IaEpgS6at6NHa+ZaBJC3bQB6DvreaBr17l3o6dYKY8SOL2hMauUeZgOetsfYweE5b+i0Uj0LD/cWqPjsTgdYbp8erzOoFjXXlUSPAR27tX2H/PV8JH/rsBzju8ezUvj+VJFajKG1MixIYfyfgPQOidtqnurV/KWyTZ8z0K/WBFMAFG49e1ecoMuBVAhXcko9CuW7pEB9ld0Iqsch3FtNv+MWYYu2DH92V1GZEo4UBg8slEKbBF+gqOzjrgPvbUY1InMqwp/PAi0Tl3Df+rtDieBkaRuLCq4RyqALuw10PKXNQf8y9ksvnZwaVEIwUUSEuzGMqh5FfnNBRJ4nVwvw2UPCFs1GTZGcV8Z5jpbBXpeKPGmDfZILg+z1UWZVKJGtYQCVaPiaCZO/3z1+1gCr8+CTHV513Xe8NmHp9we1BNBQbPXlJ1tLiY5ulZizkxKbg2AxE4oX3wRpTG73OKxWPiqF/60gITdi1T0orppDTROTcpiCdYfcN0eF8j75uyjQ8aBCSSA+wNhk6/78dx+UABmEyALLg12G19PA6PEM90L+3Hpa7QqiZcB9Om0dWrfIZpVpTOZLcXi4zY/uqFp/ikLJa7GAT33EzxTgrDqS/iTKRTzClMZ85WNQFuYVwSGaX/shHCmangdRbRX0hf9DJKTRBWnaXomQqG5Sqwyp7MS/h/Ig0MxKuqW9qd4xVjs8WW5E3/2aH1a250BiYkSlgBWiUiSBLxV8tlpYGt12krpkDgL6MmZgGGcAnvjEnXD9N3izhCro+J1c55T0Qre6bRgu7uh+HUkobjwWjwpxtSe2oRZSBFE13Buk0IquenUe27slP/6UtqSDJQ/07LNLRXDGi5zi/FFRYQjXXcYNG8iJZcHHaksz5eEwGp1GNtQ3+ZyrC/RYzjCC7wqeMzKjAA7gBq0GxI/gLYibC8Q4TpaM01pOha8HmG7umOyTsdlHOqkpsg+t4QI5aBWI1Eq9fYOh+GexWPXbb5BZ4tGmPjFzWA5fQ4p/Se4QnWpO4eiax2XITLSpHBLWmCAodMtRjK8EnsRRercxkqseJhrqi94pq76oR/gbpYrdtK30nXb+Oyb1FxWA3uKBVDtWPmA6GT4IrSgsDRyt311ik1BDqiqKN/vMiEUB1HgdJxDfgh5lm9yEmdtgZCSJBK+vZTj/8GGDGU/r6DGOH9DeyMn4XLv8kKpW0ygePVTAq61VNbQ3j+zkjNuyxu8k2JFC5zmSCPB4yMKVwzFve2z64uvbkcfdhfnQncaQrFUueQr/a0VCW02tcYHtqPDDjgGL1EvWn32L+TMtDwRQkDpjt3f08ds+ftIVgsn+CIlRh6X7Avo1TYlUiFOzMfTFjt/m7hNnzyKrBVERCykYbSEgYJ6Ma5ey+maDbYnMLjxLUl3YCx4+BVmnklwrxHmrFWHF5px4AdJ/jQYbUipf7SX1L2MZ22Nf0AqghLZyFhhcS4PIfwW5J1/T/+o7/AYgtZsKzguN05LkSCQcpcjd8Hrhj3TBgzFNBu6nk9Mr8duHEdqhjzhFebQTYnfyWXFADTKLz7k5Tds9tFU+F8I2lqyRaWo1dqr7EZQuEInaELXKcrQ5x3qz1tsRGjY2IE0sVaF2L5fNpa7fZq00so8rmxswFb8P5O28HCNtE9jIIV5nawX0R7g83ecUc6i7hfWZUuvcLHW9W0u73M7YAUlk2zSI8+aGUzaLCODMeitAPXK4eJsFgprh7a+bmLsvcG+OfQLY02VS2sQ0SOyf/3I2vARUQCIZS21E/98ovzsyxAvm82qVfG9H/pXh+r9pUSjQ8aBCWCA+wNhiSFPEqWD9Xl/PI/uwwpyVvrc2b1Ci6EOqenw8lb18JPEcoSWBS2k6wX6Kz3XTXqjekGOV3GNby9+US0mLF8OfLNC83b5pfIgHIN7MAl9weM6uHCMrBbpT9R8ZifZnh8beRyNTk28dx9uqKw0AXi9P0cM+GuHT27pJIibd1pvZnQC0OR52fQPxf3Opp2g3tcHHFtQ118JxTRvkBm+xZO+aXmyo7J89AVunWhlj8qn6RA9bo5T1KYEA5HLDpK4IWZ/Q49XN3qdarUJZtfSlD8siGxRKaqgx6la4HNqOpmUW0tEKD1gN5t+bMUxad+hHZZvpK9tgFfSNWEvtEDH7OjAqosN/ZaqkDej7KWL1lqHzCWal/T4A2yBPr5ganwpsQSzDO8VebRn36QrzmQj5dBYF0Fiqj/AxDxNZsU/LdyFsGEfA6fHAcduEvpHohmG+yPAjTmUraKdMwhukBlvcuk/cQCn2G9jd8uED0rzEK+YQDSd0iZwUhbj5x1tUhDrXNohvi1z3Oq1HZfLNPU5mEp8n8NTyvJRzqzj6cgqca3nM/7W/JrsSmfF+7p4s8/uMR8Dj/LpGXrVT+UivliSiUH4G3kAhn2AKgLkULdJlkeRCnZORNvU3B1tWGmX5YbFQjkNktamiMI2WGGsP+6MY6pUOV5iTsi2zKcBwBCtt2oaWCT6zmayW1ijngbHzVBKazZqg3AdWiRskZzMmY9B7rpkelnia6ekGBhIfzdb15n+jBl8x3One3YmB+Q/puISSXwliLNWq7C8/MjLmY73pkyJBoRC6Ds9+333CFYq1mD5of9c0W2vmX+4TYKrQpyBdUPuhlShzlK/GP5aMJUA2hMAYYX3f1A43CoKQ6VGxFb9kpoqDCHprF2bjjHFlqq1TEeAF8Bw0reos3HIYK/IZCLMSp7xgpa7eFOArw9MmHRYoZO84wkYyeZCGzPs6wsVK07ZX4PnNxgdZPX6ZMPjfyRiVaGYNH4K15ogG6znvgVaJAVg23CT0wfENd5XQBlA0FwTTeBKwH1GcT7Scab6QLfsUbFbi24wp+WLCsEL22PB7KJbgZU7ZJgzMR40OIMv0gSyBDK9y/XTP6rqVc9uBEt5Ba7AtSM2lJMHrsi64UzdU3rRBkB+ismK1F3X7Kub1nWfcwaszMWX0UzxMVxHQNzjX4gfwBGf0QzGysI9r6fpzHDU0yyj5/jgUqOGXoiLUwN/xwh/U0jF7Frm2En87NiRrn9p/YmDrHJJq5hurH0muF5K05VEr9w+R82Hc657mlSjQ8aBCZyA+wNhk5iD01oCdkTlUbKwte8947KEhLkRkDZeIi+ghOB4kjboNGyUF3pSW7VNKpZO9RPIMVqoMHslob+D19fh0tvVD4iEkMM5Lnh9dD/ahNSXxRJqwIlW0+8lGPIrN/KTm0HsahSbjY7vO3zam6Xu5ZJ5lH2Kzv8VTqAx23v7oigL3YC81y3iDx+h97EqFSHpr7ovXWrAqFTWd1N0BALTNhIPBCivjJRTXr0GScqYt6z3/lfZOek4MCC1uODOUsm0y/geP2N42yhYL2fri5QjZBYsKAh0MgDEdYvLX319MpOx7uBrkco/Xz06AO66aH8uZJZbuYCWTShk9bBFQ5S5+F9lt+U/CpmcEoRg+gHb6Q3ALqgfln6bDaWq2eRxXEh9osP5N/HK3RpbIqKDfpJbq+C0s/M24fPU6xf9d1lv8VdqbmGSr5vNTAMjkY9AdEfZ9H9KFZPLIh0PpaW3pug4EnDGpy6z4X0UKixZD5uyGDIvavWUM7ihE1tIM95zBOGIE2ICMWZWCQyfYdV9trIld3SbmAss+N8DqYq6nFS6REFLq4WxDwv4Z+HhaATagp3/x3cbPjM8NByvu89hX6OgZjdiYrPpzTW7fhaRxo0St1qFJcqhGEBHt/683RYae1O3Cr2xcjvXRoL9zI3R+hbUAqr6MxCd4fNMmclRZqOa/5QikyvngPJH3UHdsGPZ/DjStE8u9qHWy5Yd5J+gLo0QH0zlMc201ARA7GVo4c1QHVfo8S3nUeBrJc7z5FM96+RLjB00qWL5BoXNnlBhjAJs9IChc8my/Zp9W3XXju6qYfUmeqPTdeLYeqJjRwNhFF/HkpTRz49/GDvQLU+WgvxhtSs0YYX2Vt2Y/oG5XJq/30Lv3QA+QhnXyFjIyU8eIo0KbhCvfiJUznSYrNH3+HPnJrPvXp+DSTojAlWB2yopHjwqa8izqGvA8RgWz8jSx1nVhBAjf1yy0PlhzDxVsiLV2/QO8TbEGgGD5SbD5AcNH+dz3+wT5SeE2kzrdculzf92MJWs8OQqwnZVSCIWUCGfeEQl6GIJhETOV41NNAk15naEh8WgAD1gz4E5s571W4tQCZyenlfXr6oPCy7Fuzcd+l6JsZcsZhx2BBfwEO/iACmArxpLZRv2uRwgB+zZC/padbNMhLpaWCg2ad2OqjqkKQ8Y4pGy1Myj4v7szZRejcmPsyi3ixJ0zAMyarVwxxSp8WiJ/PnuW8ewjyYnJEjt310O4SDn2PEGGxsD5eLZjgQuvOnedytVwRC/PtkDqaAnBoSjQ8aBCdiA+wNhiQCaYUWc/iCHkwbvg7sGoLKukJw8TdqBjSAxaU11sXqzuxL2KqCnLGm5wXa7cOHXTunnQqfkrj6sbTHfoYZfcniSXxAzncI16NRj5VpDd/EeFnummKoQwrIPHRFnpt0WV+DAMPYSnRFPvRkcc1j+2slMucCdCeyQPMJBkQcvCmtgZhNW4gRNUbGyQNTz7r4ay1pxdQ9Yig37kM6Wuhe9y5IyuAk6ga+tMgl886q+47vM39Naf3qjtG8VBZOApa51ddwKh7MUKgY0WpO5YZ7t2V9aUzHxl/cvewKU/HfrVkk9SAYLZfEM69YczOwrXKDA0kfEB7UBRwTlixpxL1PYbAMYBSel+UT/Cu9pi6RMIGZfmuSAH/EB3njgCl9upVpg3ad7VJseONn/JmgPVzMTCdbOQC6Jm69h3nwS9tF6iWGFy7eH8xS/ottcTuOBYHWqCtaqVKp/bJhhFcdV31N3aGoQO7PyTuA/grySGe7mdhJ0HGX+xJwmYrQhWTS/32U9hX0m9W40QH9KbfFsUWyMUuTXIwGoxifx02MhJsHrhIohtcEtQ1ewrFisju5ipeQ/kS49X6i52B6aqnn73JIZg1muRqQ/W3YsChsd10TkrGPruqu10/MjYCV1q9Phs54W0QIV6+4p0/E6/01jnM3UVuCer1wvS7wJkjKhQn6w8GNrE7ICVfW9wdpKDZzM+Kq+XtGksLX3wUTHHBoFXUJPYqyv2JMSG9n4C84Llf88sJ7litE+0Y2M2Mb6HEfCn0SXI0BKPfs5mFhBfBpKQiNyR1cLW8JXiE83dSuLMEgHl7MQHP38Gnnq/CmeRzq1veXTNTXLj/osKkhJLJNkiwRJYYbzE7awsMbWOCcCz2doK/pEU3q866OBE277MdhC3Iw63IVca6zxP4hCv7LT2Fn0zrcyFd4hKIKUxO1AuMjwxDtuPSuI3o+idiC47pP5tPFqrsaXTa0GLV9aSXrn7kzbDmbqBqWspRIsLqR7l0stexCW8mv6TIu0VMx/HxA/capAUWtDqHFFBqEX684j3HzJWiKvDK6O+ABGr6YxkWtKaV/j8MXq5P+XPv7Y31hKi9Rjogw1hTtrvWNuipPSlJiIiGo1xTDtSB82Iz+oq4TpRHmMU3CNxnJNYRTYBhaO/wKyA5kmgIVLNCILnlErzZgfF7K8VgVG820gv4pYyTPYfPYigyGUsBtvqK8hWTAppWkIePIc0YiqEbifnGSUjvLhqOozSQ5VNgqNxWpeyw3rsXxjcDxXepS7cguTYjlpFo2jQ8aBChSA+wNhiQCwaS/4rXwCJGWGc6DHgLOixtOx57RnPbX9swQaIkjQyoMsUkFvnt48HKSUyXbMcb/LmC8KbifpTQewnS5mAxhqQF4A9jRHECZoydOyYRWeT1QLYRglPvFvOo83ciLOm3hxeZbQUHQ1MyzoJ24uFYaoKaDEu69r5TwRLtdArXt6ZpzVxPJZ5dktxMeXBWCRhE7ZJcJGI+egQzHdfT74wlTkYoCBoc//AWQSXQwxb4ezz2rN3C9jMvq/0zSze3NU28X2l3ylm5VcEw9pqCmAdvRZKRtF5/V3AUe1vhAbOiso61hkCtF/5lcgneX3g7O5Z3M9X1TA7US5V85ajgLZoaGdLUdtg1kdhIClJ5swa+Vc74cpPJsi3KkFkZQz1x+rDuY5uAZDZCnHm6TamDFdzZRZCYwKOCsMOScklAT7zmGTtRp5DxS9BZXoGAeVm5X1huKNYIJGXOlkkdHUOo8HL14CiFuyrcJMxczJ4zi/9RAcyFE3TNEmOdZeUQmQ137yD+BA7faQIYyfZkxd+oc2KXVzSO4DEUobnVk29+SwgEm3UYLSX4nhspRo9xEYkQknQ+uUQ18BT3NmHXCXHctuBqlVh+JQPDwWFSjTYNTfpCtVoAzU4xaAz7KtcmsStHHocPYmDD2kVhkZLnsYYkCnbUKFsJfGSkp3wXBoIjG7MDRk5A1LqlCN1/ReEU27MXMOnV1NaJaXjzo+DBw3qFi8goGXCIH2/0khvYdSyermwwFqyYKIwtvuVL9/cAhB5E8tduhxUEouIsl3OxseAYfTTzr0NVYrfq1rUtWEAbSf/A6slxLE+rlrOGTvFBoOPlea0hZa5z9OLU55OYuoy7GYYbv/AIHOpo7jbS0PnKt3pTRYIHaLLpi7Yq7sGN6aOwRqbC/QDITVphgoknQ6Mvcx1hGGaXbGqk35ZbUDhNKy0OvG4qsEpvRjlX5BkS+o2HSDyND+ES1Jr30w5iyWT/XrFMm13hmXpATw82hXAf/WaQmN8E5hj1RvNNI4XUp2054qqu3ywxdyXsiGZBDUYZIsxNE/XvKC9jnAx2LQQmT7wW6irmPI3Ku5mciHr8oonroC0JmQAtB/JppvJXZhuLGGxKsfwb6fVs7VnUApsiFEnjMsAmISpfZfMajj4oZs2miXasAPayONR9DJ7lXQTTaKAx9F5DaD+EtpUJGPwvatks4ErFJ3uC+YLuokMqSP2CH6TJEMpDlUMzyCQX0bAZXZThl54adKiL4UlfntILu6ej7cHrtcpkCuG8hsK0dqjx2jQ8aBClCA+wNhumjls4sWKmilH1NUkOs3cV9OFq9DJvDN/ZwPYipZr0xajgYIfuw5fKm6Xyhh25PBC1iGahGh0677CQht0NGSyHJO7LQiKSalJdgvIiXHG33T7svJhaBwfWXNCdOXwjPoWdt7K/ypyNIpflsKRxdpNoWLDbO22Ns7XoyM4iybbzwzREmT7Qu3gzXMkiCEl5IsqJS3h9DlQcYZxGGOOSXYUZMLwUP8VnrOiuKqGvf6qH+lRWgn/TpsF+eGQ0HrTbbJXEE6q4QEH6t+6MEFPP/tpVqV47EFMtYCh0mQHuCZjVHNn8tO98ytaXdTyJzU9ypKygbm1mZIcZvp9pMST/U7Az1xo2MxeyhDxB0aG/sul90Cy6ulENuCo/tM4bn9x2BdbUQSfrwTE7toLgS7ZhbmUTJJ64JO9y5dxxzGekbV22GJVBnXqyM2shCWTC6al2ygCYm8ezouewdvNrVsodV+RC9Gtz6tZNiTvdn4sTn3mrzDZlOIq+S0wnFKYUYJ0cNXzl3n7RPr7jJ4mywKwIrXjZ8mXnc/ZW8WVVU6ep2K/xnCx0o4vJytx6wJd9N75lb49QZpO6Llk+gohtqNn0hFAX1qRuz8A36ufTWR40pQFevX+GuUgpExiFLtwG+BprobXxkDzy8J9YUe+ZbSQSUAVp+zls8Sd/xtgs3u/D2Ciw0LmZJwTXwYsVjk6vMxbHXslL9YJjAeD2okzanFsNshem6zZalr2aLkzm4SALh2xR3HjRzGbbQ0Eq+TN8c8vySFzsJ6qg5Lr8mucRyucCoXwe2rDfaW/gCyzyqs+HeaN9xi1cvbAfpD1aMCjN9Kn+e8i8lHX6GPKVKqeYm1b7DDYYUiXL3g4h+doZuJElmLhQdstKWX3PZ2roHt77kzvLsVFBiSU1CSXyIkq3PpTDeanLoNci3I82poSVBIort2pDYg2ipc5JMLtVe4QfKzWfpwVZR+gqldC2g/jizapYTl1nIfq1rkUE0UHjS4CrE1lHhIjhcRJdAFeNE2s6/A3mIaMVNvXZGZaMHYF0cVkKkqVPnSoMQK4ep4qRIX4X8db8IOgzs97efCl0aZPq2HutCAwTBXHG9uKsMgKrCRmjstVZeXUYJgefuteT4JQlrWf+8iZtWqBdfdBcbEA6+iIiE60AjzshCOvBOn/O0iYXY5og3XONkga+FngoiG1Sdk3SYmtpWgtWV/vWL0NPlJCmHdB8YrAlTnIp2VK2RX/4UidWjFCcwwn9s3re9BuZ2XBR9jxxtzhGsxT2g7cNnX9hWjQ8aBCoyA+wNhk68fBjz/G0Oj0qWSobpXw9cV237v43dAKl5c7bqMPtBtlvDhh2u56PvcIRuIEqGahR3EtV+7baygyW7rLK6X7OcfLyvKLSyQ0IMpSL3NF4ACnA+PxCWmFenUzbtbaPaO7fvxd7XvhWYZqixfTdTHGluk8kzSr0QHjzlFelQJGDPWzphCcrKAEeRDgADCJfGF/gVgVuBi/Kr7rzhiKrNjTPMyzV3BQ+yX9xZ6jL3ygecX5jAYX6oyNSg3eHhoUSRmDzWD59NxGsEE04PF8USUOqZ4yxzD10O1kFXoF4Fa3sOykbTampJl8RyKuaMYEgwxmFxRTEmP7Vu4uxdWGvTWZfdGWRgvFLo97F3RJiK1b1QsmFhvSJEQoS4wP3U0nyRjlk24BXCDd/zI0wIMbRUKAlXYzHgYPys36FgLZ7MSKmGIUrZryxcWTQqafsmLzK0PzxLJfaFB1/gIz/TaeKmlE9MnJ9/Mg7T26SgEgtAYk2PTy408kr7w3MPHTXQIQxCxAeUEMwHcMIqsSLEVSkATargiEB7lnx3gKjStafPBAWqgKUMGUMiqGqsw1Zl86YNF3sjIKzd9eIF2kuWNW/lbyiW56eF2eiThdp2gN1GNZGVhp7G/AX0zjIZDGTwD2ZuSNoOLnCpU/CNiHirr6+JxPoZ7XuHWcXUZIWlHL7ljVCMYBgHJ3rxUvJ5oXo1Vy7b9cwJ2dkN8G6JkzUvzMJAMuW1jmLavh0Ll1w1UzOAmXSfNfkK9DAZaG0Oog2fvdp4b4ytCOd1Q3sd34MSpgCCTmT4+wZQj/D+ugNMM5BtCXsnIGpxqH3/8LcnAsAXzn2wN9jRlIbkarFA5WxT9MnHBYbppIixdnzX3vbIbE/rusCDP5CVZ2Tu8gmMo4MfDnPiIMcnRVCV+/zKHuHjq8jJN25EKVW49F06TclSiOZPPCxbaKn2kvY4Cg/46NnMgEMVWLSgYi9EYxm3Evi+K4czQqJ+Ra5uyP+d7wiyCOQrQStUeJriA0pUHEJyM35ahUqo07jMdz+Xm1q2G3vTqpFYqhrSjUXUiZRVxlBZwnrPc10blVncz9mrgWcUSXjXfswOULpyVx7Y2M19H7Cp/+/AzcZIqhT+kEeznNvOOZ7qCbH15A8SCjojPhRFvjfOSTZ+UcwgdK7hMb6qJ9+oQfAXk2eqQkBtDN0iIu4qHrApuxargEtTNHk1uXdTyCU0IjZ4I3+SHiTYbtY9yqWF4e2c4Y68TKEpQoo3zXJAtEBOCg7oomRQTKP4sOnhhngVAq3+jQ8aBCsiA+wNhiF7t9VDjomqh2OHniQYisv3vvyvJUeYqj0oqsHlo1kHJWqRHThC5lfliRImbFslu8MHMw+DYflW4HV7V9jYrGtuVdBknHQ/MTxNLzNTFVcCNdrE78WS/SafR79PqvDQ8na+/n6PYBA0U2GQH87Cg/krhZ/hoTj5WIjh5DpnKOAwi/8HlBfzh0l0+U6XWiVlMCltBt5HAP/K28i3ew9OgyBWgZgU3t6bXSbn0WE3msDPw1LKucrG0PJ+GJ1DCDZ76dxy1PIW8decKnZMLwRcUJIjI98XWWLYQOKF+eS0vhhwp4KP9aciAyLTl328chYuFgmpRGL281VkmSDZuC9s0lidnohy/WUsxjrniGNjSLsBnB4Mn4Zm7LU5eF/r7zbZ5KZO9oPlnFpYgISfH27bhq4Tn69Zf0z0/5t29D1PU4mG6ZdQVdADqQeYMjed+xmpV+E/sJCNJAfobU2ea01FPu4pHZJFcld9DUnZxaCncUicDZUJmy/+WbRqhdRaZNfrGNZ3CenDNoDrf+SudOrNSLaQidO47ByMZUcwj6r6vsOkkjPQEu3I0P9sOKuFmHp8DsVcGhpemBDKC7a1VyzjWxj0y/UQ6ATzj4pyVcQMm8htuWLKe9qfhXhAIqkqUwKyi9Pw9qtqb1eC1dQC5Opc0GzOQEHmw1jAJ2p5Az1PQWGXLQTsiKa/6ZP4Rcp4/ZpzvPd2tmlwxtI0E1vXk46/+u66t5BzeWE5t6F0X916YWXGSxcIMpUdI2f8RRbw5mh7mJTHzwBa32jsZmf7G9zK3TJPYrxo6W6SKUmetpSKxpqKFvAm1hVGZoXFFXXEQmUWCJpUOmaHZrT1dN0xjVTtOYYXecmG6jmDQ5dtnceP0TA/iZQwSF38Ip/K8dul9xmhh6RS1hXM5fZ74d342WnU+aJ4WfEx+fREhFpsI6nSzvAwWTzPOBk62mL2SwQScK60OeJW+gb7/bFAzF7bfw5BFkGlN/QiLfw/DKvWtjQ+qZKOw3DhfDLOgz7ZfGKXn/Aq+9xGIsjM2lVWonG5MqraOwpVkunP20OF97R215bO9AN7XgkRPdD/gyfpTbk2+RKk6zK7XAUeuZv8I43oQmm3mo1baHFzAymwgjZvw5iKFQxCRBd/5GkUpeccoUpZIle22MXydRH4uAjR9XB3yOj11IObxgMcEnGuDJ4eUBJffClNA2vXfolIX+T7Lw50co/QBURLRZuIXmP4OHO8wlGvgfMuPKm3w3WddME8lM+YhI7m5s5pFqticP5VHkGGig0