"success","timeout","failed_images","failed_audio","failed_video","trial_type","trial_index","time_elapsed","internal_node_id","subject_id","study_id","session_id","view_history","rt","stimulus","response","choice"
"true","false","[]","[]","[]","preload","0","14643","0.0-0.0","66C79932EC414CBA86F0BDD4898E06B8","be5c5034-192c-463e-9334-24382c967211","5479079d-2186-49b2-89e2-e3afab6abcc2","","","","",""
"","","","","","instructions","1","43749","0.0-1.0","66C79932EC414CBA86F0BDD4898E06B8","be5c5034-192c-463e-9334-24382c967211","5479079d-2186-49b2-89e2-e3afab6abcc2","[{""page_index"":0,""viewing_time"":29106}]","29106","","",""
"","","","","","instructions","2","47080","0.0-2.0","66C79932EC414CBA86F0BDD4898E06B8","be5c5034-192c-463e-9334-24382c967211","5479079d-2186-49b2-89e2-e3afab6abcc2","[{""page_index"":0,""viewing_time"":3331}]","3331","","",""
"true","","","","","fullscreen","3","50515","0.0-3.0","66C79932EC414CBA86F0BDD4898E06B8","be5c5034-192c-463e-9334-24382c967211","5479079d-2186-49b2-89e2-e3afab6abcc2","","2424","","",""
"","","","","","instructions","4","72879","0.0-4.0","66C79932EC414CBA86F0BDD4898E06B8","be5c5034-192c-463e-9334-24382c967211","5479079d-2186-49b2-89e2-e3afab6abcc2","[{""page_index"":0,""viewing_time"":22363}]","22363","","",""
"","","","","","html-keyboard-response","5","75885","0.0-5.0","66C79932EC414CBA86F0BDD4898E06B8","be5c5034-192c-463e-9334-24382c967211","5479079d-2186-49b2-89e2-e3afab6abcc2","","null","<div style=""display: flex; justify-content: center; align-items: center;"">
                <img src=""images/causal/causal_series_15/causal_series_15_a.jpg"" style=""width: 300px; height: 300px;"" />
              </div>","null",""
"","","","","","html-keyboard-response","6","78888","0.0-6.0","66C79932EC414CBA86F0BDD4898E06B8","be5c5034-192c-463e-9334-24382c967211","5479079d-2186-49b2-89e2-e3afab6abcc2","","null","<div style=""display: flex; justify-content: center; align-items: center;"">
                <img src=""images/causal/causal_series_15/causal_series_15_b.jpg"" style=""width: 300px; height: 300px;"" />
              </div>","null",""
"","","","","","html-keyboard-response","7","81900","0.0-7.0","66C79932EC414CBA86F0BDD4898E06B8","be5c5034-192c-463e-9334-24382c967211","5479079d-2186-49b2-89e2-e3afab6abcc2","","null","<div style=""display: flex; justify-content: center; align-items: center;"">
                <img src=""images/causal/causal_series_15/causal_series_15_c.jpg"" style=""width: 300px; height: 300px;"" />
              </div>","null",""
"","","","","","html-button-response","8","86123","0.0-8.0","66C79932EC414CBA86F0BDD4898E06B8","be5c5034-192c-463e-9334-24382c967211","5479079d-2186-49b2-89e2-e3afab6abcc2","","4222","
    <div style=""display: flex; justify-content: center; align-items: center;"">
      <img src=""images/blue_deck_1.png"" style=""width: 300px; height: 300px; margin-right: 10px;"" />
      <img src=""images/red_deck_2.png"" style=""width: 300px; height: 300px;"" />
    </div>","1","1"
"","","","","","html-keyboard-response","9","89137","0.0-9.0-1.0-0.0","66C79932EC414CBA86F0BDD4898E06B8","be5c5034-192c-463e-9334-24382c967211","5479079d-2186-49b2-89e2-e3afab6abcc2","","null","<div style=""display: flex; justify-content: center; align-items: center;"">
                <img src=""images/semantic/semantic_series_15/semantic_series_15_d.jpg"" style=""width: 300px; height: 300px;"" />
              </div>","null",""
"","","","","","html-keyboard-response","10","92151","0.0-10.0","66C79932EC414CBA86F0BDD4898E06B8","be5c5034-192c-463e-9334-24382c967211","5479079d-2186-49b2-89e2-e3afab6abcc2","","null","<div style=""display: flex; justify-content: center; align-items: center;"">
                <img src=""images/other/blank.jpg"" style=""width: 300px; height: 300px;"" />
              </div>","null",""
"","","","","","html-keyboard-response","11","95153","0.0-11.0","66C79932EC414CBA86F0BDD4898E06B8","be5c5034-192c-463e-9334-24382c967211","5479079d-2186-49b2-89e2-e3afab6abcc2","","null","<div style=""display: flex; justify-content: center; align-items: center;"">
                <img src=""images/causal/causal_series_12/causal_series_12_a.jpg"" style=""width: 300px; height: 300px;"" />
              </div>","null",""
"","","","","","html-keyboard-response","12","98159","0.0-12.0","66C79932EC414CBA86F0BDD4898E06B8","be5c5034-192c-463e-9334-24382c967211","5479079d-2186-49b2-89e2-e3afab6abcc2","","null","<div style=""display: flex; justify-content: center; align-items: center;"">
                <img src=""images/causal/causal_series_12/causal_series_12_b.jpg"" style=""width: 300px; height: 300px;"" />
              </div>","null",""
"","","","","","html-keyboard-response","13","101174","0.0-13.0","66C79932EC414CBA86F0BDD4898E06B8","be5c5034-192c-463e-9334-24382c967211","5479079d-2186-49b2-89e2-e3afab6abcc2","","null","<div style=""display: flex; justify-content: center; align-items: center;"">
                <img src=""images/causal/causal_series_12/causal_series_12_c.jpg"" style=""width: 300px; height: 300px;"" />
              </div>","null",""
"","","","","","html-button-response","14","105435","0.0-14.0","66C79932EC414CBA86F0BDD4898E06B8","be5c5034-192c-463e-9334-24382c967211","5479079d-2186-49b2-89e2-e3afab6abcc2","","4260","
    <div style=""display: flex; justify-content: center; align-items: center;"">
      <img src=""images/blue_deck_1.png"" style=""width: 300px; height: 300px; margin-right: 10px;"" />
      <img src=""images/red_deck_2.png"" style=""width: 300px; height: 300px;"" />
    </div>","1","1"
"","","","","","html-keyboard-response","15","108435","0.0-15.0-1.0-0.0","66C79932EC414CBA86F0BDD4898E06B8","be5c5034-192c-463e-9334-24382c967211","5479079d-2186-49b2-89e2-e3afab6abcc2","","null","<div style=""display: flex; justify-content: center; align-items: center;"">
                <img src=""images/semantic/semantic_series_12/semantic_series_12_d.jpg"" style=""width: 300px; height: 300px;"" />
              </div>","null",""
"","","","","","html-keyboard-response","16","111446","0.0-16.0","66C79932EC414CBA86F0BDD4898E06B8","be5c5034-192c-463e-9334-24382c967211","5479079d-2186-49b2-89e2-e3afab6abcc2","","null","<div style=""display: flex; justify-content: center; align-items: center;"">
                <img src=""images/other/blank.jpg"" style=""width: 300px; height: 300px;"" />
              </div>","null",""
"","","","","","html-keyboard-response","17","114461","0.0-17.0","66C79932EC414CBA86F0BDD4898E06B8","be5c5034-192c-463e-9334-24382c967211","5479079d-2186-49b2-89e2-e3afab6abcc2","","null","<div style=""display: flex; justify-content: center; align-items: center;"">
                <img src=""images/causal/causal_series_8/causal_series_8_a.jpg"" style=""width: 300px; height: 300px;"" />
              </div>","null",""
"","","","","","html-keyboard-response","18","117465","0.0-18.0","66C79932EC414CBA86F0BDD4898E06B8","be5c5034-192c-463e-9334-24382c967211","5479079d-2186-49b2-89e2-e3afab6abcc2","","null","<div style=""display: flex; justify-content: center; align-items: center;"">
                <img src=""images/causal/causal_series_8/causal_series_8_b.jpg"" style=""width: 300px; height: 300px;"" />
              </div>","null",""
"","","","","","html-keyboard-response","19","120478","0.0-19.0","66C79932EC414CBA86F0BDD4898E06B8","be5c5034-192c-463e-9334-24382c967211","5479079d-2186-49b2-89e2-e3afab6abcc2","","null","<div style=""display: flex; justify-content: center; align-items: center;"">
                <img src=""images/causal/causal_series_8/causal_series_8_c.jpg"" style=""width: 300px; height: 300px;"" />
              </div>","null",""
"","","","","","html-button-response","20","131727","0.0-20.0","66C79932EC414CBA86F0BDD4898E06B8","be5c5034-192c-463e-9334-24382c967211","5479079d-2186-49b2-89e2-e3afab6abcc2","","11249","
    <div style=""display: flex; justify-content: center; align-items: center;"">
      <img src=""images/blue_deck_1.png"" style=""width: 300px; height: 300px; margin-right: 10px;"" />
      <img src=""images/red_deck_2.png"" style=""width: 300px; height: 300px;"" />
    </div>","0","0"
"","","","","","html-keyboard-response","21","134739","0.0-21.0-0.0-0.0","66C79932EC414CBA86F0BDD4898E06B8","be5c5034-192c-463e-9334-24382c967211","5479079d-2186-49b2-89e2-e3afab6abcc2","","null","<div style=""display: flex; justify-content: center; align-items: center;"">
                <img src=""images/causal/causal_series_8/causal_series_8_d.jpg"" style=""width: 300px; height: 300px;"" />
              </div>","null",""
"","","","","","html-keyboard-response","22","137748","0.0-22.0","66C79932EC414CBA86F0BDD4898E06B8","be5c5034-192c-463e-9334-24382c967211","5479079d-2186-49b2-89e2-e3afab6abcc2","","null","<div style=""display: flex; justify-content: center; align-items: center;"">
                <img src=""images/other/blank.jpg"" style=""width: 300px; height: 300px;"" />
              </div>","null",""
"","","","","","html-keyboard-response","23","140761","0.0-23.0","66C79932EC414CBA86F0BDD4898E06B8","be5c5034-192c-463e-9334-24382c967211","5479079d-2186-49b2-89e2-e3afab6abcc2","","null","<div style=""display: flex; justify-content: center; align-items: center;"">
                <img src=""images/causal/causal_series_4/causal_series_4_a.jpg"" style=""width: 300px; height: 300px;"" />
              </div>","null",""
"","","","","","html-keyboard-response","24","143777","0.0-24.0","66C79932EC414CBA86F0BDD4898E06B8","be5c5034-192c-463e-9334-24382c967211","5479079d-2186-49b2-89e2-e3afab6abcc2","","null","<div style=""display: flex; justify-content: center; align-items: center;"">
                <img src=""images/causal/causal_series_4/causal_series_4_b.jpg"" style=""width: 300px; height: 300px;"" />
              </div>","null",""
"","","","","","html-keyboard-response","25","146783","0.0-25.0","66C79932EC414CBA86F0BDD4898E06B8","be5c5034-192c-463e-9334-24382c967211","5479079d-2186-49b2-89e2-e3afab6abcc2","","null","<div style=""display: flex; justify-content: center; align-items: center;"">
                <img src=""images/causal/causal_series_4/causal_series_4_c.jpg"" style=""width: 300px; height: 300px;"" />
              </div>","null",""
"","","","","","html-button-response","26","148273","0.0-26.0","66C79932EC414CBA86F0BDD4898E06B8","be5c5034-192c-463e-9334-24382c967211","5479079d-2186-49b2-89e2-e3afab6abcc2","","1489","
    <div style=""display: flex; justify-content: center; align-items: center;"">
      <img src=""images/blue_deck_1.png"" style=""width: 300px; height: 300px; margin-right: 10px;"" />
      <img src=""images/red_deck_2.png"" style=""width: 300px; height: 300px;"" />
    </div>","0","0"
"","","","","","html-keyboard-response","27","151277","0.0-27.0-0.0-0.0","66C79932EC414CBA86F0BDD4898E06B8","be5c5034-192c-463e-9334-24382c967211","5479079d-2186-49b2-89e2-e3afab6abcc2","","null","<div style=""display: flex; justify-content: center; align-items: center;"">
                <img src=""images/causal/causal_series_4/causal_series_4_d.jpg"" style=""width: 300px; height: 300px;"" />
              </div>","null",""
"","","","","","html-keyboard-response","28","154282","0.0-28.0","66C79932EC414CBA86F0BDD4898E06B8","be5c5034-192c-463e-9334-24382c967211","5479079d-2186-49b2-89e2-e3afab6abcc2","","null","<div style=""display: flex; justify-content: center; align-items: center;"">
                <img src=""images/other/blank.jpg"" style=""width: 300px; height: 300px;"" />
              </div>","null",""
"","","","","","html-keyboard-response","29","157299","0.0-29.0","66C79932EC414CBA86F0BDD4898E06B8","be5c5034-192c-463e-9334-24382c967211","5479079d-2186-49b2-89e2-e3afab6abcc2","","null","<div style=""display: flex; justify-content: center; align-items: center;"">
                <img src=""images/causal/causal_series_5/causal_series_5_a.jpg"" style=""width: 300px; height: 300px;"" />
              </div>","null",""
"","","","","","html-keyboard-response","30","160305","0.0-30.0","66C79932EC414CBA86F0BDD4898E06B8","be5c5034-192c-463e-9334-24382c967211","5479079d-2186-49b2-89e2-e3afab6abcc2","","null","<div style=""display: flex; justify-content: center; align-items: center;"">
                <img src=""images/causal/causal_series_5/causal_series_5_b.jpg"" style=""width: 300px; height: 300px;"" />
              </div>","null",""
"","","","","","html-keyboard-response","31","163310","0.0-31.0","66C79932EC414CBA86F0BDD4898E06B8","be5c5034-192c-463e-9334-24382c967211","5479079d-2186-49b2-89e2-e3afab6abcc2","","null","<div style=""display: flex; justify-content: center; align-items: center;"">
                <img src=""images/causal/causal_series_5/causal_series_5_c.jpg"" style=""width: 300px; height: 300px;"" />
              </div>","null",""
"","","","","","html-button-response","32","165702","0.0-32.0","66C79932EC414CBA86F0BDD4898E06B8","be5c5034-192c-463e-9334-24382c967211","5479079d-2186-49b2-89e2-e3afab6abcc2","","2391","
    <div style=""display: flex; justify-content: center; align-items: center;"">
      <img src=""images/blue_deck_1.png"" style=""width: 300px; height: 300px; margin-right: 10px;"" />
      <img src=""images/red_deck_2.png"" style=""width: 300px; height: 300px;"" />
    </div>","0","0"
"","","","","","html-keyboard-response","33","168705","0.0-33.0-0.0-0.0","66C79932EC414CBA86F0BDD4898E06B8","be5c5034-192c-463e-9334-24382c967211","5479079d-2186-49b2-89e2-e3afab6abcc2","","null","<div style=""display: flex; justify-content: center; align-items: center;"">
                <img src=""images/causal/causal_series_5/causal_series_5_d.jpg"" style=""width: 300px; height: 300px;"" />
              </div>","null",""
"","","","","","html-keyboard-response","34","171713","0.0-34.0","66C79932EC414CBA86F0BDD4898E06B8","be5c5034-192c-463e-9334-24382c967211","5479079d-2186-49b2-89e2-e3afab6abcc2","","null","<div style=""display: flex; justify-content: center; align-items: center;"">
                <img src=""images/other/blank.jpg"" style=""width: 300px; height: 300px;"" />
              </div>","null",""
"","","","","","html-keyboard-response","35","174727","0.0-35.0","66C79932EC414CBA86F0BDD4898E06B8","be5c5034-192c-463e-9334-24382c967211","5479079d-2186-49b2-89e2-e3afab6abcc2","","null","<div style=""display: flex; justify-content: center; align-items: center;"">
                <img src=""images/causal/causal_series_9/causal_series_9_a.jpg"" style=""width: 300px; height: 300px;"" />
              </div>","null",""
"","","","","","html-keyboard-response","36","177739","0.0-36.0","66C79932EC414CBA86F0BDD4898E06B8","be5c5034-192c-463e-9334-24382c967211","5479079d-2186-49b2-89e2-e3afab6abcc2","","null","<div style=""display: flex; justify-content: center; align-items: center;"">
                <img src=""images/causal/causal_series_9/causal_series_9_b.jpg"" style=""width: 300px; height: 300px;"" />
              </div>","null",""
"","","","","","html-keyboard-response","37","180751","0.0-37.0","66C79932EC414CBA86F0BDD4898E06B8","be5c5034-192c-463e-9334-24382c967211","5479079d-2186-49b2-89e2-e3afab6abcc2","","null","<div style=""display: flex; justify-content: center; align-items: center;"">
                <img src=""images/causal/causal_series_9/causal_series_9_c.jpg"" style=""width: 300px; height: 300px;"" />
              </div>","null",""
"","","","","","html-button-response","38","185839","0.0-38.0","66C79932EC414CBA86F0BDD4898E06B8","be5c5034-192c-463e-9334-24382c967211","5479079d-2186-49b2-89e2-e3afab6abcc2","","5087","
    <div style=""display: flex; justify-content: center; align-items: center;"">
      <img src=""images/blue_deck_1.png"" style=""width: 300px; height: 300px; margin-right: 10px;"" />
      <img src=""images/red_deck_2.png"" style=""width: 300px; height: 300px;"" />
    </div>","1","1"
"","","","","","html-keyboard-response","39","188848","0.0-39.0-1.0-0.0","66C79932EC414CBA86F0BDD4898E06B8","be5c5034-192c-463e-9334-24382c967211","5479079d-2186-49b2-89e2-e3afab6abcc2","","null","<div style=""display: flex; justify-content: center; align-items: center;"">
                <img src=""images/semantic/semantic_series_9/semantic_series_9_d.jpg"" style=""width: 300px; height: 300px;"" />
              </div>","null",""
"","","","","","html-keyboard-response","40","191850","0.0-40.0","66C79932EC414CBA86F0BDD4898E06B8","be5c5034-192c-463e-9334-24382c967211","5479079d-2186-49b2-89e2-e3afab6abcc2","","null","<div style=""display: flex; justify-content: center; align-items: center;"">
                <img src=""images/other/blank.jpg"" style=""width: 300px; height: 300px;"" />
              </div>","null",""
"","","","","","html-keyboard-response","41","194863","0.0-41.0","66C79932EC414CBA86F0BDD4898E06B8","be5c5034-192c-463e-9334-24382c967211","5479079d-2186-49b2-89e2-e3afab6abcc2","","null","<div style=""display: flex; justify-content: center; align-items: center;"">
                <img src=""images/causal/causal_series_13/causal_series_13_a.jpg"" style=""width: 300px; height: 300px;"" />
              </div>","null",""
"","","","","","html-keyboard-response","42","197872","0.0-42.0","66C79932EC414CBA86F0BDD4898E06B8","be5c5034-192c-463e-9334-24382c967211","5479079d-2186-49b2-89e2-e3afab6abcc2","","null","<div style=""display: flex; justify-content: center; align-items: center;"">
                <img src=""images/causal/causal_series_13/causal_series_13_b.jpg"" style=""width: 300px; height: 300px;"" />
              </div>","null",""
"","","","","","html-keyboard-response","43","200885","0.0-43.0","66C79932EC414CBA86F0BDD4898E06B8","be5c5034-192c-463e-9334-24382c967211","5479079d-2186-49b2-89e2-e3afab6abcc2","","null","<div style=""display: flex; justify-content: center; align-items: center;"">
                <img src=""images/causal/causal_series_13/causal_series_13_c.jpg"" style=""width: 300px; height: 300px;"" />
              </div>","null",""
"","","","","","html-button-response","44","229269","0.0-44.0","66C79932EC414CBA86F0BDD4898E06B8","be5c5034-192c-463e-9334-24382c967211","5479079d-2186-49b2-89e2-e3afab6abcc2","","28383","
    <div style=""display: flex; justify-content: center; align-items: center;"">
      <img src=""images/blue_deck_1.png"" style=""width: 300px; height: 300px; margin-right: 10px;"" />
      <img src=""images/red_deck_2.png"" style=""width: 300px; height: 300px;"" />
    </div>","1","1"
"","","","","","html-keyboard-response","45","232281","0.0-45.0-1.0-0.0","66C79932EC414CBA86F0BDD4898E06B8","be5c5034-192c-463e-9334-24382c967211","5479079d-2186-49b2-89e2-e3afab6abcc2","","null","<div style=""display: flex; justify-content: center; align-items: center;"">
                <img src=""images/semantic/semantic_series_13/semantic_series_13_d.jpg"" style=""width: 300px; height: 300px;"" />
              </div>","null",""
"","","","","","html-keyboard-response","46","235285","0.0-46.0","66C79932EC414CBA86F0BDD4898E06B8","be5c5034-192c-463e-9334-24382c967211","5479079d-2186-49b2-89e2-e3afab6abcc2","","null","<div style=""display: flex; justify-content: center; align-items: center;"">
                <img src=""images/other/blank.jpg"" style=""width: 300px; height: 300px;"" />
              </div>","null",""
"","","","","","html-keyboard-response","47","238299","0.0-47.0","66C79932EC414CBA86F0BDD4898E06B8","be5c5034-192c-463e-9334-24382c967211","5479079d-2186-49b2-89e2-e3afab6abcc2","","null","<div style=""display: flex; justify-content: center; align-items: center;"">
                <img src=""images/causal/causal_series_11/causal_series_11_a.jpg"" style=""width: 300px; height: 300px;"" />
              </div>","null",""
"","","","","","html-keyboard-response","48","241313","0.0-48.0","66C79932EC414CBA86F0BDD4898E06B8","be5c5034-192c-463e-9334-24382c967211","5479079d-2186-49b2-89e2-e3afab6abcc2","","null","<div style=""display: flex; justify-content: center; align-items: center;"">
                <img src=""images/causal/causal_series_11/causal_series_11_b.jpg"" style=""width: 300px; height: 300px;"" />
              </div>","null",""
"","","","","","html-keyboard-response","49","244323","0.0-49.0","66C79932EC414CBA86F0BDD4898E06B8","be5c5034-192c-463e-9334-24382c967211","5479079d-2186-49b2-89e2-e3afab6abcc2","","null","<div style=""display: flex; justify-content: center; align-items: center;"">
                <img src=""images/causal/causal_series_11/causal_series_11_c.jpg"" style=""width: 300px; height: 300px;"" />
              </div>","null",""
"","","","","","html-button-response","50","250187","0.0-50.0","66C79932EC414CBA86F0BDD4898E06B8","be5c5034-192c-463e-9334-24382c967211","5479079d-2186-49b2-89e2-e3afab6abcc2","","5863","
    <div style=""display: flex; justify-content: center; align-items: center;"">
      <img src=""images/blue_deck_1.png"" style=""width: 300px; height: 300px; margin-right: 10px;"" />
      <img src=""images/red_deck_2.png"" style=""width: 300px; height: 300px;"" />
    </div>","0","0"
"","","","","","html-keyboard-response","51","253193","0.0-51.0-0.0-0.0","66C79932EC414CBA86F0BDD4898E06B8","be5c5034-192c-463e-9334-24382c967211","5479079d-2186-49b2-89e2-e3afab6abcc2","","null","<div style=""display: flex; justify-content: center; align-items: center;"">
                <img src=""images/causal/causal_series_11/causal_series_11_d.jpg"" style=""width: 300px; height: 300px;"" />
              </div>","null",""
"","","","","","html-keyboard-response","52","256195","0.0-52.0","66C79932EC414CBA86F0BDD4898E06B8","be5c5034-192c-463e-9334-24382c967211","5479079d-2186-49b2-89e2-e3afab6abcc2","","null","<div style=""display: flex; justify-content: center; align-items: center;"">
                <img src=""images/other/blank.jpg"" style=""width: 300px; height: 300px;"" />
              </div>","null",""
"","","","","","html-keyboard-response","53","259210","0.0-53.0","66C79932EC414CBA86F0BDD4898E06B8","be5c5034-192c-463e-9334-24382c967211","5479079d-2186-49b2-89e2-e3afab6abcc2","","null","<div style=""display: flex; justify-content: center; align-items: center;"">
                <img src=""images/causal/causal_series_2/causal_series_2_a.jpg"" style=""width: 300px; height: 300px;"" />
              </div>","null",""
"","","","","","html-keyboard-response","54","262215","0.0-54.0","66C79932EC414CBA86F0BDD4898E06B8","be5c5034-192c-463e-9334-24382c967211","5479079d-2186-49b2-89e2-e3afab6abcc2","","null","<div style=""display: flex; justify-content: center; align-items: center;"">
                <img src=""images/causal/causal_series_2/causal_series_2_b.jpg"" style=""width: 300px; height: 300px;"" />
              </div>","null",""
"","","","","","html-keyboard-response","55","265222","0.0-55.0","66C79932EC414CBA86F0BDD4898E06B8","be5c5034-192c-463e-9334-24382c967211","5479079d-2186-49b2-89e2-e3afab6abcc2","","null","<div style=""display: flex; justify-content: center; align-items: center;"">
                <img src=""images/causal/causal_series_2/causal_series_2_c.jpg"" style=""width: 300px; height: 300px;"" />
              </div>","null",""
"","","","","","html-button-response","56","268292","0.0-56.0","66C79932EC414CBA86F0BDD4898E06B8","be5c5034-192c-463e-9334-24382c967211","5479079d-2186-49b2-89e2-e3afab6abcc2","","3069","
    <div style=""display: flex; justify-content: center; align-items: center;"">
      <img src=""images/blue_deck_1.png"" style=""width: 300px; height: 300px; margin-right: 10px;"" />
      <img src=""images/red_deck_2.png"" style=""width: 300px; height: 300px;"" />
    </div>","0","0"
"","","","","","html-keyboard-response","57","271294","0.0-57.0-0.0-0.0","66C79932EC414CBA86F0BDD4898E06B8","be5c5034-192c-463e-9334-24382c967211","5479079d-2186-49b2-89e2-e3afab6abcc2","","null","<div style=""display: flex; justify-content: center; align-items: center;"">
                <img src=""images/causal/causal_series_2/causal_series_2_d.jpg"" style=""width: 300px; height: 300px;"" />
              </div>","null",""
"","","","","","html-keyboard-response","58","274299","0.0-58.0","66C79932EC414CBA86F0BDD4898E06B8","be5c5034-192c-463e-9334-24382c967211","5479079d-2186-49b2-89e2-e3afab6abcc2","","null","<div style=""display: flex; justify-content: center; align-items: center;"">
                <img src=""images/other/blank.jpg"" style=""width: 300px; height: 300px;"" />
              </div>","null",""
"","","","","","html-keyboard-response","59","277303","0.0-59.0","66C79932EC414CBA86F0BDD4898E06B8","be5c5034-192c-463e-9334-24382c967211","5479079d-2186-49b2-89e2-e3afab6abcc2","","null","<div style=""display: flex; justify-content: center; align-items: center;"">
                <img src=""images/causal/causal_series_16/causal_series_16_a.jpg"" style=""width: 300px; height: 300px;"" />
              </div>","null",""
"","","","","","html-keyboard-response","60","280319","0.0-60.0","66C79932EC414CBA86F0BDD4898E06B8","be5c5034-192c-463e-9334-24382c967211","5479079d-2186-49b2-89e2-e3afab6abcc2","","null","<div style=""display: flex; justify-content: center; align-items: center;"">
                <img src=""images/causal/causal_series_16/causal_series_16_b.jpg"" style=""width: 300px; height: 300px;"" />
              </div>","null",""
"","","","","","html-keyboard-response","61","283324","0.0-61.0","66C79932EC414CBA86F0BDD4898E06B8","be5c5034-192c-463e-9334-24382c967211","5479079d-2186-49b2-89e2-e3afab6abcc2","","null","<div style=""display: flex; justify-content: center; align-items: center;"">
                <img src=""images/causal/causal_series_16/causal_series_16_c.jpg"" style=""width: 300px; height: 300px;"" />
              </div>","null",""
"","","","","","html-button-response","62","285227","0.0-62.0","66C79932EC414CBA86F0BDD4898E06B8","be5c5034-192c-463e-9334-24382c967211","5479079d-2186-49b2-89e2-e3afab6abcc2","","1903","
    <div style=""display: flex; justify-content: center; align-items: center;"">
      <img src=""images/blue_deck_1.png"" style=""width: 300px; height: 300px; margin-right: 10px;"" />
      <img src=""images/red_deck_2.png"" style=""width: 300px; height: 300px;"" />
    </div>","1","1"
"","","","","","html-keyboard-response","63","288239","0.0-63.0-1.0-0.0","66C79932EC414CBA86F0BDD4898E06B8","be5c5034-192c-463e-9334-24382c967211","5479079d-2186-49b2-89e2-e3afab6abcc2","","null","<div style=""display: flex; justify-content: center; align-items: center;"">
                <img src=""images/semantic/semantic_series_16/semantic_series_16_d.jpg"" style=""width: 300px; height: 300px;"" />
              </div>","null",""
"","","","","","html-keyboard-response","64","291242","0.0-64.0","66C79932EC414CBA86F0BDD4898E06B8","be5c5034-192c-463e-9334-24382c967211","5479079d-2186-49b2-89e2-e3afab6abcc2","","null","<div style=""display: flex; justify-content: center; align-items: center;"">
                <img src=""images/other/blank.jpg"" style=""width: 300px; height: 300px;"" />
              </div>","null",""
"","","","","","html-keyboard-response","65","294258","0.0-65.0","66C79932EC414CBA86F0BDD4898E06B8","be5c5034-192c-463e-9334-24382c967211","5479079d-2186-49b2-89e2-e3afab6abcc2","","null","<div style=""display: flex; justify-content: center; align-items: center;"">
                <img src=""images/causal/causal_series_7/causal_series_7_a.jpg"" style=""width: 300px; height: 300px;"" />
              </div>","null",""
"","","","","","html-keyboard-response","66","297270","0.0-66.0","66C79932EC414CBA86F0BDD4898E06B8","be5c5034-192c-463e-9334-24382c967211","5479079d-2186-49b2-89e2-e3afab6abcc2","","null","<div style=""display: flex; justify-content: center; align-items: center;"">
                <img src=""images/causal/causal_series_7/causal_series_7_b.jpg"" style=""width: 300px; height: 300px;"" />
              </div>","null",""
"","","","","","html-keyboard-response","67","300284","0.0-67.0","66C79932EC414CBA86F0BDD4898E06B8","be5c5034-192c-463e-9334-24382c967211","5479079d-2186-49b2-89e2-e3afab6abcc2","","null","<div style=""display: flex; justify-content: center; align-items: center;"">
                <img src=""images/causal/causal_series_7/causal_series_7_c.jpg"" style=""width: 300px; height: 300px;"" />
              </div>","null",""
"","","","","","html-button-response","68","323519","0.0-68.0","66C79932EC414CBA86F0BDD4898E06B8","be5c5034-192c-463e-9334-24382c967211","5479079d-2186-49b2-89e2-e3afab6abcc2","","23234","
    <div style=""display: flex; justify-content: center; align-items: center;"">
      <img src=""images/blue_deck_1.png"" style=""width: 300px; height: 300px; margin-right: 10px;"" />
      <img src=""images/red_deck_2.png"" style=""width: 300px; height: 300px;"" />
    </div>","1","1"
"","","","","","html-keyboard-response","69","326520","0.0-69.0-1.0-0.0","66C79932EC414CBA86F0BDD4898E06B8","be5c5034-192c-463e-9334-24382c967211","5479079d-2186-49b2-89e2-e3afab6abcc2","","null","<div style=""display: flex; justify-content: center; align-items: center;"">
                <img src=""images/semantic/semantic_series_7/semantic_series_7_d.jpg"" style=""width: 300px; height: 300px;"" />
              </div>","null",""
"","","","","","html-keyboard-response","70","329532","0.0-70.0","66C79932EC414CBA86F0BDD4898E06B8","be5c5034-192c-463e-9334-24382c967211","5479079d-2186-49b2-89e2-e3afab6abcc2","","null","<div style=""display: flex; justify-content: center; align-items: center;"">
                <img src=""images/other/blank.jpg"" style=""width: 300px; height: 300px;"" />
              </div>","null",""
"","","","","","html-keyboard-response","71","332535","0.0-71.0","66C79932EC414CBA86F0BDD4898E06B8","be5c5034-192c-463e-9334-24382c967211","5479079d-2186-49b2-89e2-e3afab6abcc2","","null","<div style=""display: flex; justify-content: center; align-items: center;"">
                <img src=""images/causal/causal_series_1/causal_series_1_a.jpg"" style=""width: 300px; height: 300px;"" />
              </div>","null",""
"","","","","","html-keyboard-response","72","335536","0.0-72.0","66C79932EC414CBA86F0BDD4898E06B8","be5c5034-192c-463e-9334-24382c967211","5479079d-2186-49b2-89e2-e3afab6abcc2","","null","<div style=""display: flex; justify-content: center; align-items: center;"">
                <img src=""images/causal/causal_series_1/causal_series_1_b.jpg"" style=""width: 300px; height: 300px;"" />
              </div>","null",""
"","","","","","html-keyboard-response","73","338539","0.0-73.0","66C79932EC414CBA86F0BDD4898E06B8","be5c5034-192c-463e-9334-24382c967211","5479079d-2186-49b2-89e2-e3afab6abcc2","","null","<div style=""display: flex; justify-content: center; align-items: center;"">
                <img src=""images/causal/causal_series_1/causal_series_1_c.jpg"" style=""width: 300px; height: 300px;"" />
              </div>","null",""
"","","","","","html-button-response","74","340287","0.0-74.0","66C79932EC414CBA86F0BDD4898E06B8","be5c5034-192c-463e-9334-24382c967211","5479079d-2186-49b2-89e2-e3afab6abcc2","","1747","
    <div style=""display: flex; justify-content: center; align-items: center;"">
      <img src=""images/blue_deck_1.png"" style=""width: 300px; height: 300px; margin-right: 10px;"" />
      <img src=""images/red_deck_2.png"" style=""width: 300px; height: 300px;"" />
    </div>","1","1"
"","","","","","html-keyboard-response","75","343302","0.0-75.0-1.0-0.0","66C79932EC414CBA86F0BDD4898E06B8","be5c5034-192c-463e-9334-24382c967211","5479079d-2186-49b2-89e2-e3afab6abcc2","","null","<div style=""display: flex; justify-content: center; align-items: center;"">
                <img src=""images/semantic/semantic_series_1/semantic_series_1_d.jpg"" style=""width: 300px; height: 300px;"" />
              </div>","null",""
"","","","","","html-keyboard-response","76","346305","0.0-76.0","66C79932EC414CBA86F0BDD4898E06B8","be5c5034-192c-463e-9334-24382c967211","5479079d-2186-49b2-89e2-e3afab6abcc2","","null","<div style=""display: flex; justify-content: center; align-items: center;"">
                <img src=""images/other/blank.jpg"" style=""width: 300px; height: 300px;"" />
              </div>","null",""
"","","","","","html-keyboard-response","77","349319","0.0-77.0","66C79932EC414CBA86F0BDD4898E06B8","be5c5034-192c-463e-9334-24382c967211","5479079d-2186-49b2-89e2-e3afab6abcc2","","null","<div style=""display: flex; justify-content: center; align-items: center;"">
                <img src=""images/causal/causal_series_6/causal_series_6_a.jpg"" style=""width: 300px; height: 300px;"" />
              </div>","null",""
"","","","","","html-keyboard-response","78","352324","0.0-78.0","66C79932EC414CBA86F0BDD4898E06B8","be5c5034-192c-463e-9334-24382c967211","5479079d-2186-49b2-89e2-e3afab6abcc2","","null","<div style=""display: flex; justify-content: center; align-items: center;"">
                <img src=""images/causal/causal_series_6/causal_series_6_b.jpg"" style=""width: 300px; height: 300px;"" />
              </div>","null",""
"","","","","","html-keyboard-response","79","355339","0.0-79.0","66C79932EC414CBA86F0BDD4898E06B8","be5c5034-192c-463e-9334-24382c967211","5479079d-2186-49b2-89e2-e3afab6abcc2","","null","<div style=""display: flex; justify-content: center; align-items: center;"">
                <img src=""images/causal/causal_series_6/causal_series_6_c.jpg"" style=""width: 300px; height: 300px;"" />
              </div>","null",""
"","","","","","html-button-response","80","357155","0.0-80.0","66C79932EC414CBA86F0BDD4898E06B8","be5c5034-192c-463e-9334-24382c967211","5479079d-2186-49b2-89e2-e3afab6abcc2","","1815","
    <div style=""display: flex; justify-content: center; align-items: center;"">
      <img src=""images/blue_deck_1.png"" style=""width: 300px; height: 300px; margin-right: 10px;"" />
      <img src=""images/red_deck_2.png"" style=""width: 300px; height: 300px;"" />
    </div>","1","1"
"","","","","","html-keyboard-response","81","360159","0.0-81.0-1.0-0.0","66C79932EC414CBA86F0BDD4898E06B8","be5c5034-192c-463e-9334-24382c967211","5479079d-2186-49b2-89e2-e3afab6abcc2","","null","<div style=""display: flex; justify-content: center; align-items: center;"">
                <img src=""images/semantic/semantic_series_6/semantic_series_6_d.jpg"" style=""width: 300px; height: 300px;"" />
              </div>","null",""
"","","","","","html-keyboard-response","82","363176","0.0-82.0","66C79932EC414CBA86F0BDD4898E06B8","be5c5034-192c-463e-9334-24382c967211","5479079d-2186-49b2-89e2-e3afab6abcc2","","null","<div style=""display: flex; justify-content: center; align-items: center;"">
                <img src=""images/other/blank.jpg"" style=""width: 300px; height: 300px;"" />
              </div>","null",""
"","","","","","html-keyboard-response","83","366181","0.0-83.0","66C79932EC414CBA86F0BDD4898E06B8","be5c5034-192c-463e-9334-24382c967211","5479079d-2186-49b2-89e2-e3afab6abcc2","","null","<div style=""display: flex; justify-content: center; align-items: center;"">
                <img src=""images/causal/causal_series_14/causal_series_14_a.jpg"" style=""width: 300px; height: 300px;"" />
              </div>","null",""
"","","","","","html-keyboard-response","84","369193","0.0-84.0","66C79932EC414CBA86F0BDD4898E06B8","be5c5034-192c-463e-9334-24382c967211","5479079d-2186-49b2-89e2-e3afab6abcc2","","null","<div style=""display: flex; justify-content: center; align-items: center;"">
                <img src=""images/causal/causal_series_14/causal_series_14_b.jpg"" style=""width: 300px; height: 300px;"" />
              </div>","null",""
"","","","","","html-keyboard-response","85","372209","0.0-85.0","66C79932EC414CBA86F0BDD4898E06B8","be5c5034-192c-463e-9334-24382c967211","5479079d-2186-49b2-89e2-e3afab6abcc2","","null","<div style=""display: flex; justify-content: center; align-items: center;"">
                <img src=""images/causal/causal_series_14/causal_series_14_c.jpg"" style=""width: 300px; height: 300px;"" />
              </div>","null",""
"","","","","","html-button-response","86","374941","0.0-86.0","66C79932EC414CBA86F0BDD4898E06B8","be5c5034-192c-463e-9334-24382c967211","5479079d-2186-49b2-89e2-e3afab6abcc2","","2731","
    <div style=""display: flex; justify-content: center; align-items: center;"">
      <img src=""images/blue_deck_1.png"" style=""width: 300px; height: 300px; margin-right: 10px;"" />
      <img src=""images/red_deck_2.png"" style=""width: 300px; height: 300px;"" />
    </div>","1","1"
"","","","","","html-keyboard-response","87","377948","0.0-87.0-1.0-0.0","66C79932EC414CBA86F0BDD4898E06B8","be5c5034-192c-463e-9334-24382c967211","5479079d-2186-49b2-89e2-e3afab6abcc2","","null","<div style=""display: flex; justify-content: center; align-items: center;"">
                <img src=""images/semantic/semantic_series_14/semantic_series_14_d.jpg"" style=""width: 300px; height: 300px;"" />
              </div>","null",""
"","","","","","html-keyboard-response","88","380960","0.0-88.0","66C79932EC414CBA86F0BDD4898E06B8","be5c5034-192c-463e-9334-24382c967211","5479079d-2186-49b2-89e2-e3afab6abcc2","","null","<div style=""display: flex; justify-content: center; align-items: center;"">
                <img src=""images/other/blank.jpg"" style=""width: 300px; height: 300px;"" />
              </div>","null",""
"","","","","","html-keyboard-response","89","383961","0.0-89.0","66C79932EC414CBA86F0BDD4898E06B8","be5c5034-192c-463e-9334-24382c967211","5479079d-2186-49b2-89e2-e3afab6abcc2","","null","<div style=""display: flex; justify-content: center; align-items: center;"">
                <img src=""images/causal/causal_series_10/causal_series_10_a.jpg"" style=""width: 300px; height: 300px;"" />
              </div>","null",""
"","","","","","html-keyboard-response","90","386962","0.0-90.0","66C79932EC414CBA86F0BDD4898E06B8","be5c5034-192c-463e-9334-24382c967211","5479079d-2186-49b2-89e2-e3afab6abcc2","","null","<div style=""display: flex; justify-content: center; align-items: center;"">
                <img src=""images/causal/causal_series_10/causal_series_10_b.jpg"" style=""width: 300px; height: 300px;"" />
              </div>","null",""
"","","","","","html-keyboard-response","91","389963","0.0-91.0","66C79932EC414CBA86F0BDD4898E06B8","be5c5034-192c-463e-9334-24382c967211","5479079d-2186-49b2-89e2-e3afab6abcc2","","null","<div style=""display: flex; justify-content: center; align-items: center;"">
                <img src=""images/causal/causal_series_10/causal_series_10_c.jpg"" style=""width: 300px; height: 300px;"" />
              </div>","null",""
"","","","","","html-button-response","92","410683","0.0-92.0","66C79932EC414CBA86F0BDD4898E06B8","be5c5034-192c-463e-9334-24382c967211","5479079d-2186-49b2-89e2-e3afab6abcc2","","20719","
    <div style=""display: flex; justify-content: center; align-items: center;"">
      <img src=""images/blue_deck_1.png"" style=""width: 300px; height: 300px; margin-right: 10px;"" />
      <img src=""images/red_deck_2.png"" style=""width: 300px; height: 300px;"" />
    </div>","0","0"
"","","","","","html-keyboard-response","93","413686","0.0-93.0-0.0-0.0","66C79932EC414CBA86F0BDD4898E06B8","be5c5034-192c-463e-9334-24382c967211","5479079d-2186-49b2-89e2-e3afab6abcc2","","null","<div style=""display: flex; justify-content: center; align-items: center;"">
                <img src=""images/causal/causal_series_10/causal_series_10_d.jpg"" style=""width: 300px; height: 300px;"" />
              </div>","null",""
"","","","","","html-keyboard-response","94","416697","0.0-94.0","66C79932EC414CBA86F0BDD4898E06B8","be5c5034-192c-463e-9334-24382c967211","5479079d-2186-49b2-89e2-e3afab6abcc2","","null","<div style=""display: flex; justify-content: center; align-items: center;"">
                <img src=""images/other/blank.jpg"" style=""width: 300px; height: 300px;"" />
              </div>","null",""
"","","","","","html-keyboard-response","95","419708","0.0-95.0","66C79932EC414CBA86F0BDD4898E06B8","be5c5034-192c-463e-9334-24382c967211","5479079d-2186-49b2-89e2-e3afab6abcc2","","null","<div style=""display: flex; justify-content: center; align-items: center;"">
                <img src=""images/causal/causal_series_3/causal_series_3_a.jpg"" style=""width: 300px; height: 300px;"" />
              </div>","null",""
"","","","","","html-keyboard-response","96","422721","0.0-96.0","66C79932EC414CBA86F0BDD4898E06B8","be5c5034-192c-463e-9334-24382c967211","5479079d-2186-49b2-89e2-e3afab6abcc2","","null","<div style=""display: flex; justify-content: center; align-items: center;"">
                <img src=""images/causal/causal_series_3/causal_series_3_b.jpg"" style=""width: 300px; height: 300px;"" />
              </div>","null",""
"","","","","","html-keyboard-response","97","425732","0.0-97.0","66C79932EC414CBA86F0BDD4898E06B8","be5c5034-192c-463e-9334-24382c967211","5479079d-2186-49b2-89e2-e3afab6abcc2","","null","<div style=""display: flex; justify-content: center; align-items: center;"">
                <img src=""images/causal/causal_series_3/causal_series_3_c.jpg"" style=""width: 300px; height: 300px;"" />
              </div>","null",""
"","","","","","html-button-response","98","426633","0.0-98.0","66C79932EC414CBA86F0BDD4898E06B8","be5c5034-192c-463e-9334-24382c967211","5479079d-2186-49b2-89e2-e3afab6abcc2","","900","
    <div style=""display: flex; justify-content: center; align-items: center;"">
      <img src=""images/blue_deck_1.png"" style=""width: 300px; height: 300px; margin-right: 10px;"" />
      <img src=""images/red_deck_2.png"" style=""width: 300px; height: 300px;"" />
    </div>","0","0"
"","","","","","html-keyboard-response","99","429647","0.0-99.0-0.0-0.0","66C79932EC414CBA86F0BDD4898E06B8","be5c5034-192c-463e-9334-24382c967211","5479079d-2186-49b2-89e2-e3afab6abcc2","","null","<div style=""display: flex; justify-content: center; align-items: center;"">
                <img src=""images/causal/causal_series_3/causal_series_3_d.jpg"" style=""width: 300px; height: 300px;"" />
              </div>","null",""
"","","","","","html-keyboard-response","100","432659","0.0-100.0","66C79932EC414CBA86F0BDD4898E06B8","be5c5034-192c-463e-9334-24382c967211","5479079d-2186-49b2-89e2-e3afab6abcc2","","null","<div style=""display: flex; justify-content: center; align-items: center;"">
                <img src=""images/other/blank.jpg"" style=""width: 300px; height: 300px;"" />
              </div>","null",""
"","","","","","html-keyboard-response","101","435663","0.0-101.0","66C79932EC414CBA86F0BDD4898E06B8","be5c5034-192c-463e-9334-24382c967211","5479079d-2186-49b2-89e2-e3afab6abcc2","","null","<div style=""display: flex; justify-content: center; align-items: center;"">
                <img src=""images/causal/causal_series_18/causal_series_18_a.jpg"" style=""width: 300px; height: 300px;"" />
              </div>","null",""
"","","","","","html-keyboard-response","102","438666","0.0-102.0","66C79932EC414CBA86F0BDD4898E06B8","be5c5034-192c-463e-9334-24382c967211","5479079d-2186-49b2-89e2-e3afab6abcc2","","null","<div style=""display: flex; justify-content: center; align-items: center;"">
                <img src=""images/causal/causal_series_18/causal_series_18_b.jpg"" style=""width: 300px; height: 300px;"" />
              </div>","null",""
"","","","","","html-keyboard-response","103","441679","0.0-103.0","66C79932EC414CBA86F0BDD4898E06B8","be5c5034-192c-463e-9334-24382c967211","5479079d-2186-49b2-89e2-e3afab6abcc2","","null","<div style=""display: flex; justify-content: center; align-items: center;"">
                <img src=""images/causal/causal_series_18/causal_series_18_c.jpg"" style=""width: 300px; height: 300px;"" />
              </div>","null",""
"","","","","","html-button-response","104","446280","0.0-104.0","66C79932EC414CBA86F0BDD4898E06B8","be5c5034-192c-463e-9334-24382c967211","5479079d-2186-49b2-89e2-e3afab6abcc2","","4600","
    <div style=""display: flex; justify-content: center; align-items: center;"">
      <img src=""images/blue_deck_1.png"" style=""width: 300px; height: 300px; margin-right: 10px;"" />
      <img src=""images/red_deck_2.png"" style=""width: 300px; height: 300px;"" />
    </div>","1","1"
"","","","","","html-keyboard-response","105","449289","0.0-105.0-1.0-0.0","66C79932EC414CBA86F0BDD4898E06B8","be5c5034-192c-463e-9334-24382c967211","5479079d-2186-49b2-89e2-e3afab6abcc2","","null","<div style=""display: flex; justify-content: center; align-items: center;"">
                <img src=""images/semantic/semantic_series_18/semantic_series_18_d.jpg"" style=""width: 300px; height: 300px;"" />
              </div>","null",""
"","","","","","html-keyboard-response","106","452300","0.0-106.0","66C79932EC414CBA86F0BDD4898E06B8","be5c5034-192c-463e-9334-24382c967211","5479079d-2186-49b2-89e2-e3afab6abcc2","","null","<div style=""display: flex; justify-content: center; align-items: center;"">
                <img src=""images/other/blank.jpg"" style=""width: 300px; height: 300px;"" />
              </div>","null",""
"","","","","","html-keyboard-response","107","455316","0.0-107.0","66C79932EC414CBA86F0BDD4898E06B8","be5c5034-192c-463e-9334-24382c967211","5479079d-2186-49b2-89e2-e3afab6abcc2","","null","<div style=""display: flex; justify-content: center; align-items: center;"">
                <img src=""images/causal/causal_series_17/causal_series_17_a.jpg"" style=""width: 300px; height: 300px;"" />
              </div>","null",""
"","","","","","html-keyboard-response","108","458328","0.0-108.0","66C79932EC414CBA86F0BDD4898E06B8","be5c5034-192c-463e-9334-24382c967211","5479079d-2186-49b2-89e2-e3afab6abcc2","","null","<div style=""display: flex; justify-content: center; align-items: center;"">
                <img src=""images/causal/causal_series_17/causal_series_17_b.jpg"" style=""width: 300px; height: 300px;"" />
              </div>","null",""
"","","","","","html-keyboard-response","109","461330","0.0-109.0","66C79932EC414CBA86F0BDD4898E06B8","be5c5034-192c-463e-9334-24382c967211","5479079d-2186-49b2-89e2-e3afab6abcc2","","null","<div style=""display: flex; justify-content: center; align-items: center;"">
                <img src=""images/causal/causal_series_17/causal_series_17_c.jpg"" style=""width: 300px; height: 300px;"" />
              </div>","null",""
"","","","","","html-button-response","110","483351","0.0-110.0","66C79932EC414CBA86F0BDD4898E06B8","be5c5034-192c-463e-9334-24382c967211","5479079d-2186-49b2-89e2-e3afab6abcc2","","22020","
    <div style=""display: flex; justify-content: center; align-items: center;"">
      <img src=""images/blue_deck_1.png"" style=""width: 300px; height: 300px; margin-right: 10px;"" />
      <img src=""images/red_deck_2.png"" style=""width: 300px; height: 300px;"" />
    </div>","0","0"
"","","","","","html-keyboard-response","111","486359","0.0-111.0-0.0-0.0","66C79932EC414CBA86F0BDD4898E06B8","be5c5034-192c-463e-9334-24382c967211","5479079d-2186-49b2-89e2-e3afab6abcc2","","null","<div style=""display: flex; justify-content: center; align-items: center;"">
                <img src=""images/causal/causal_series_17/causal_series_17_d.jpg"" style=""width: 300px; height: 300px;"" />
              </div>","null",""
"","","","","","html-keyboard-response","112","489373","0.0-112.0","66C79932EC414CBA86F0BDD4898E06B8","be5c5034-192c-463e-9334-24382c967211","5479079d-2186-49b2-89e2-e3afab6abcc2","","null","<div style=""display: flex; justify-content: center; align-items: center;"">
                <img src=""images/other/blank.jpg"" style=""width: 300px; height: 300px;"" />
              </div>","null",""
"","","","","","survey-text","113","498535","0.0-113.0","66C79932EC414CBA86F0BDD4898E06B8","be5c5034-192c-463e-9334-24382c967211","5479079d-2186-49b2-89e2-e3afab6abcc2","","9158","","{""Q0"":""no""}",""
"","","","","","survey-text","114","521842","0.0-114.0","66C79932EC414CBA86F0BDD4898E06B8","be5c5034-192c-463e-9334-24382c967211","5479079d-2186-49b2-89e2-e3afab6abcc2","","23303","","{""Q0"":""the right deck""}",""
"","","","","","html-button-response","115","528749","0.0-115.0","66C79932EC414CBA86F0BDD4898E06B8","be5c5034-192c-463e-9334-24382c967211","5479079d-2186-49b2-89e2-e3afab6abcc2","","6906","Which color deck does the fourth image continue the story from the series?","1",""
"","","","","","html-button-response","116","532921","0.0-116.0","66C79932EC414CBA86F0BDD4898E06B8","be5c5034-192c-463e-9334-24382c967211","5479079d-2186-49b2-89e2-e3afab6abcc2","","4172","Which color deck does the fourth image not follow the story from the series?","0",""
"","","","","","survey-text","117","538947","0.0-117.0","66C79932EC414CBA86F0BDD4898E06B8","be5c5034-192c-463e-9334-24382c967211","5479079d-2186-49b2-89e2-e3afab6abcc2","","6024","","{""Q0"":""female"",""Q1"":""31""}",""
"","","","","","instructions","118","547757","0.0-118.0","66C79932EC414CBA86F0BDD4898E06B8","be5c5034-192c-463e-9334-24382c967211","5479079d-2186-49b2-89e2-e3afab6abcc2","[{""page_index"":0,""viewing_time"":8809}]","8809","","",""
