"success","timeout","failed_images","failed_audio","failed_video","trial_type","trial_index","time_elapsed","internal_node_id","subject_id","study_id","session_id","view_history","rt","stimulus","response","choice"
"true","false","[]","[]","[]","preload","0","6590","0.0-0.0","F7DAD0BED9064B0BB4B49B3BCF58609E","bb168513-cbd9-4df5-958e-232292be85cb","5479079d-2186-49b2-89e2-e3afab6abcc2","","","","",""
"","","","","","instructions","1","273768","0.0-1.0","F7DAD0BED9064B0BB4B49B3BCF58609E","bb168513-cbd9-4df5-958e-232292be85cb","5479079d-2186-49b2-89e2-e3afab6abcc2","[{""page_index"":0,""viewing_time"":267178}]","267178","","",""
"","","","","","instructions","2","276214","0.0-2.0","F7DAD0BED9064B0BB4B49B3BCF58609E","bb168513-cbd9-4df5-958e-232292be85cb","5479079d-2186-49b2-89e2-e3afab6abcc2","[{""page_index"":0,""viewing_time"":2446}]","2446","","",""
"true","","","","","fullscreen","3","278578","0.0-3.0","F7DAD0BED9064B0BB4B49B3BCF58609E","bb168513-cbd9-4df5-958e-232292be85cb","5479079d-2186-49b2-89e2-e3afab6abcc2","","1354","","",""
"","","","","","instructions","4","291651","0.0-4.0","F7DAD0BED9064B0BB4B49B3BCF58609E","bb168513-cbd9-4df5-958e-232292be85cb","5479079d-2186-49b2-89e2-e3afab6abcc2","[{""page_index"":0,""viewing_time"":13072}]","13072","","",""
"","","","","","html-keyboard-response","5","294662","0.0-5.0","F7DAD0BED9064B0BB4B49B3BCF58609E","bb168513-cbd9-4df5-958e-232292be85cb","5479079d-2186-49b2-89e2-e3afab6abcc2","","null","<div style=""display: flex; justify-content: center; align-items: center;"">
                <img src=""images/causal/causal_series_13/causal_series_13_a.jpg"" style=""width: 300px; height: 300px;"" />
              </div>","null",""
"","","","","","html-keyboard-response","6","297671","0.0-6.0","F7DAD0BED9064B0BB4B49B3BCF58609E","bb168513-cbd9-4df5-958e-232292be85cb","5479079d-2186-49b2-89e2-e3afab6abcc2","","null","<div style=""display: flex; justify-content: center; align-items: center;"">
                <img src=""images/causal/causal_series_13/causal_series_13_b.jpg"" style=""width: 300px; height: 300px;"" />
              </div>","null",""
"","","","","","html-keyboard-response","7","300678","0.0-7.0","F7DAD0BED9064B0BB4B49B3BCF58609E","bb168513-cbd9-4df5-958e-232292be85cb","5479079d-2186-49b2-89e2-e3afab6abcc2","","null","<div style=""display: flex; justify-content: center; align-items: center;"">
                <img src=""images/causal/causal_series_13/causal_series_13_c.jpg"" style=""width: 300px; height: 300px;"" />
              </div>","null",""
"","","","","","html-button-response","8","303001","0.0-8.0","F7DAD0BED9064B0BB4B49B3BCF58609E","bb168513-cbd9-4df5-958e-232292be85cb","5479079d-2186-49b2-89e2-e3afab6abcc2","","2323","
    <div style=""display: flex; justify-content: center; align-items: center;"">
      <img src=""images/blue_deck_1.png"" style=""width: 300px; height: 300px; margin-right: 10px;"" />
      <img src=""images/red_deck_2.png"" style=""width: 300px; height: 300px;"" />
    </div>","0","0"
"","","","","","html-keyboard-response","9","306002","0.0-9.0-0.0-0.0","F7DAD0BED9064B0BB4B49B3BCF58609E","bb168513-cbd9-4df5-958e-232292be85cb","5479079d-2186-49b2-89e2-e3afab6abcc2","","null","<div style=""display: flex; justify-content: center; align-items: center;"">
                <img src=""images/causal/causal_series_13/causal_series_13_d.jpg"" style=""width: 300px; height: 300px;"" />
              </div>","null",""
"","","","","","html-keyboard-response","10","309004","0.0-10.0","F7DAD0BED9064B0BB4B49B3BCF58609E","bb168513-cbd9-4df5-958e-232292be85cb","5479079d-2186-49b2-89e2-e3afab6abcc2","","null","<div style=""display: flex; justify-content: center; align-items: center;"">
                <img src=""images/other/blank.jpg"" style=""width: 300px; height: 300px;"" />
              </div>","null",""
"","","","","","html-keyboard-response","11","312020","0.0-11.0","F7DAD0BED9064B0BB4B49B3BCF58609E","bb168513-cbd9-4df5-958e-232292be85cb","5479079d-2186-49b2-89e2-e3afab6abcc2","","null","<div style=""display: flex; justify-content: center; align-items: center;"">
                <img src=""images/causal/causal_series_12/causal_series_12_a.jpg"" style=""width: 300px; height: 300px;"" />
              </div>","null",""
"","","","","","html-keyboard-response","12","315021","0.0-12.0","F7DAD0BED9064B0BB4B49B3BCF58609E","bb168513-cbd9-4df5-958e-232292be85cb","5479079d-2186-49b2-89e2-e3afab6abcc2","","null","<div style=""display: flex; justify-content: center; align-items: center;"">
                <img src=""images/causal/causal_series_12/causal_series_12_b.jpg"" style=""width: 300px; height: 300px;"" />
              </div>","null",""
"","","","","","html-keyboard-response","13","318030","0.0-13.0","F7DAD0BED9064B0BB4B49B3BCF58609E","bb168513-cbd9-4df5-958e-232292be85cb","5479079d-2186-49b2-89e2-e3afab6abcc2","","null","<div style=""display: flex; justify-content: center; align-items: center;"">
                <img src=""images/causal/causal_series_12/causal_series_12_c.jpg"" style=""width: 300px; height: 300px;"" />
              </div>","null",""
"","","","","","html-button-response","14","318817","0.0-14.0","F7DAD0BED9064B0BB4B49B3BCF58609E","bb168513-cbd9-4df5-958e-232292be85cb","5479079d-2186-49b2-89e2-e3afab6abcc2","","786","
    <div style=""display: flex; justify-content: center; align-items: center;"">
      <img src=""images/blue_deck_1.png"" style=""width: 300px; height: 300px; margin-right: 10px;"" />
      <img src=""images/red_deck_2.png"" style=""width: 300px; height: 300px;"" />
    </div>","0","0"
"","","","","","html-keyboard-response","15","321824","0.0-15.0-0.0-0.0","F7DAD0BED9064B0BB4B49B3BCF58609E","bb168513-cbd9-4df5-958e-232292be85cb","5479079d-2186-49b2-89e2-e3afab6abcc2","","null","<div style=""display: flex; justify-content: center; align-items: center;"">
                <img src=""images/causal/causal_series_12/causal_series_12_d.jpg"" style=""width: 300px; height: 300px;"" />
              </div>","null",""
"","","","","","html-keyboard-response","16","324831","0.0-16.0","F7DAD0BED9064B0BB4B49B3BCF58609E","bb168513-cbd9-4df5-958e-232292be85cb","5479079d-2186-49b2-89e2-e3afab6abcc2","","null","<div style=""display: flex; justify-content: center; align-items: center;"">
                <img src=""images/other/blank.jpg"" style=""width: 300px; height: 300px;"" />
              </div>","null",""
"","","","","","html-keyboard-response","17","327837","0.0-17.0","F7DAD0BED9064B0BB4B49B3BCF58609E","bb168513-cbd9-4df5-958e-232292be85cb","5479079d-2186-49b2-89e2-e3afab6abcc2","","null","<div style=""display: flex; justify-content: center; align-items: center;"">
                <img src=""images/causal/causal_series_1/causal_series_1_a.jpg"" style=""width: 300px; height: 300px;"" />
              </div>","null",""
"","","","","","html-keyboard-response","18","330846","0.0-18.0","F7DAD0BED9064B0BB4B49B3BCF58609E","bb168513-cbd9-4df5-958e-232292be85cb","5479079d-2186-49b2-89e2-e3afab6abcc2","","null","<div style=""display: flex; justify-content: center; align-items: center;"">
                <img src=""images/causal/causal_series_1/causal_series_1_b.jpg"" style=""width: 300px; height: 300px;"" />
              </div>","null",""
"","","","","","html-keyboard-response","19","333855","0.0-19.0","F7DAD0BED9064B0BB4B49B3BCF58609E","bb168513-cbd9-4df5-958e-232292be85cb","5479079d-2186-49b2-89e2-e3afab6abcc2","","null","<div style=""display: flex; justify-content: center; align-items: center;"">
                <img src=""images/causal/causal_series_1/causal_series_1_c.jpg"" style=""width: 300px; height: 300px;"" />
              </div>","null",""
"","","","","","html-button-response","20","334822","0.0-20.0","F7DAD0BED9064B0BB4B49B3BCF58609E","bb168513-cbd9-4df5-958e-232292be85cb","5479079d-2186-49b2-89e2-e3afab6abcc2","","967","
    <div style=""display: flex; justify-content: center; align-items: center;"">
      <img src=""images/blue_deck_1.png"" style=""width: 300px; height: 300px; margin-right: 10px;"" />
      <img src=""images/red_deck_2.png"" style=""width: 300px; height: 300px;"" />
    </div>","1","1"
"","","","","","html-keyboard-response","21","337823","0.0-21.0-1.0-0.0","F7DAD0BED9064B0BB4B49B3BCF58609E","bb168513-cbd9-4df5-958e-232292be85cb","5479079d-2186-49b2-89e2-e3afab6abcc2","","null","<div style=""display: flex; justify-content: center; align-items: center;"">
                <img src=""images/semantic/semantic_series_1/semantic_series_1_d.jpg"" style=""width: 300px; height: 300px;"" />
              </div>","null",""
"","","","","","html-keyboard-response","22","340828","0.0-22.0","F7DAD0BED9064B0BB4B49B3BCF58609E","bb168513-cbd9-4df5-958e-232292be85cb","5479079d-2186-49b2-89e2-e3afab6abcc2","","null","<div style=""display: flex; justify-content: center; align-items: center;"">
                <img src=""images/other/blank.jpg"" style=""width: 300px; height: 300px;"" />
              </div>","null",""
"","","","","","html-keyboard-response","23","343829","0.0-23.0","F7DAD0BED9064B0BB4B49B3BCF58609E","bb168513-cbd9-4df5-958e-232292be85cb","5479079d-2186-49b2-89e2-e3afab6abcc2","","null","<div style=""display: flex; justify-content: center; align-items: center;"">
                <img src=""images/causal/causal_series_10/causal_series_10_a.jpg"" style=""width: 300px; height: 300px;"" />
              </div>","null",""
"","","","","","html-keyboard-response","24","346830","0.0-24.0","F7DAD0BED9064B0BB4B49B3BCF58609E","bb168513-cbd9-4df5-958e-232292be85cb","5479079d-2186-49b2-89e2-e3afab6abcc2","","null","<div style=""display: flex; justify-content: center; align-items: center;"">
                <img src=""images/causal/causal_series_10/causal_series_10_b.jpg"" style=""width: 300px; height: 300px;"" />
              </div>","null",""
"","","","","","html-keyboard-response","25","349835","0.0-25.0","F7DAD0BED9064B0BB4B49B3BCF58609E","bb168513-cbd9-4df5-958e-232292be85cb","5479079d-2186-49b2-89e2-e3afab6abcc2","","null","<div style=""display: flex; justify-content: center; align-items: center;"">
                <img src=""images/causal/causal_series_10/causal_series_10_c.jpg"" style=""width: 300px; height: 300px;"" />
              </div>","null",""
"","","","","","html-button-response","26","350522","0.0-26.0","F7DAD0BED9064B0BB4B49B3BCF58609E","bb168513-cbd9-4df5-958e-232292be85cb","5479079d-2186-49b2-89e2-e3afab6abcc2","","687","
    <div style=""display: flex; justify-content: center; align-items: center;"">
      <img src=""images/blue_deck_1.png"" style=""width: 300px; height: 300px; margin-right: 10px;"" />
      <img src=""images/red_deck_2.png"" style=""width: 300px; height: 300px;"" />
    </div>","0","0"
"","","","","","html-keyboard-response","27","353531","0.0-27.0-0.0-0.0","F7DAD0BED9064B0BB4B49B3BCF58609E","bb168513-cbd9-4df5-958e-232292be85cb","5479079d-2186-49b2-89e2-e3afab6abcc2","","null","<div style=""display: flex; justify-content: center; align-items: center;"">
                <img src=""images/causal/causal_series_10/causal_series_10_d.jpg"" style=""width: 300px; height: 300px;"" />
              </div>","null",""
"","","","","","html-keyboard-response","28","356542","0.0-28.0","F7DAD0BED9064B0BB4B49B3BCF58609E","bb168513-cbd9-4df5-958e-232292be85cb","5479079d-2186-49b2-89e2-e3afab6abcc2","","null","<div style=""display: flex; justify-content: center; align-items: center;"">
                <img src=""images/other/blank.jpg"" style=""width: 300px; height: 300px;"" />
              </div>","null",""
"","","","","","html-keyboard-response","29","359549","0.0-29.0","F7DAD0BED9064B0BB4B49B3BCF58609E","bb168513-cbd9-4df5-958e-232292be85cb","5479079d-2186-49b2-89e2-e3afab6abcc2","","null","<div style=""display: flex; justify-content: center; align-items: center;"">
                <img src=""images/causal/causal_series_11/causal_series_11_a.jpg"" style=""width: 300px; height: 300px;"" />
              </div>","null",""
"","","","","","html-keyboard-response","30","362557","0.0-30.0","F7DAD0BED9064B0BB4B49B3BCF58609E","bb168513-cbd9-4df5-958e-232292be85cb","5479079d-2186-49b2-89e2-e3afab6abcc2","","null","<div style=""display: flex; justify-content: center; align-items: center;"">
                <img src=""images/causal/causal_series_11/causal_series_11_b.jpg"" style=""width: 300px; height: 300px;"" />
              </div>","null",""
"","","","","","html-keyboard-response","31","365558","0.0-31.0","F7DAD0BED9064B0BB4B49B3BCF58609E","bb168513-cbd9-4df5-958e-232292be85cb","5479079d-2186-49b2-89e2-e3afab6abcc2","","null","<div style=""display: flex; justify-content: center; align-items: center;"">
                <img src=""images/causal/causal_series_11/causal_series_11_c.jpg"" style=""width: 300px; height: 300px;"" />
              </div>","null",""
"","","","","","html-button-response","32","366230","0.0-32.0","F7DAD0BED9064B0BB4B49B3BCF58609E","bb168513-cbd9-4df5-958e-232292be85cb","5479079d-2186-49b2-89e2-e3afab6abcc2","","671","
    <div style=""display: flex; justify-content: center; align-items: center;"">
      <img src=""images/blue_deck_1.png"" style=""width: 300px; height: 300px; margin-right: 10px;"" />
      <img src=""images/red_deck_2.png"" style=""width: 300px; height: 300px;"" />
    </div>","0","0"
"","","","","","html-keyboard-response","33","369245","0.0-33.0-0.0-0.0","F7DAD0BED9064B0BB4B49B3BCF58609E","bb168513-cbd9-4df5-958e-232292be85cb","5479079d-2186-49b2-89e2-e3afab6abcc2","","null","<div style=""display: flex; justify-content: center; align-items: center;"">
                <img src=""images/causal/causal_series_11/causal_series_11_d.jpg"" style=""width: 300px; height: 300px;"" />
              </div>","null",""
"","","","","","html-keyboard-response","34","372251","0.0-34.0","F7DAD0BED9064B0BB4B49B3BCF58609E","bb168513-cbd9-4df5-958e-232292be85cb","5479079d-2186-49b2-89e2-e3afab6abcc2","","null","<div style=""display: flex; justify-content: center; align-items: center;"">
                <img src=""images/other/blank.jpg"" style=""width: 300px; height: 300px;"" />
              </div>","null",""
"","","","","","html-keyboard-response","35","375262","0.0-35.0","F7DAD0BED9064B0BB4B49B3BCF58609E","bb168513-cbd9-4df5-958e-232292be85cb","5479079d-2186-49b2-89e2-e3afab6abcc2","","null","<div style=""display: flex; justify-content: center; align-items: center;"">
                <img src=""images/causal/causal_series_14/causal_series_14_a.jpg"" style=""width: 300px; height: 300px;"" />
              </div>","null",""
"","","","","","html-keyboard-response","36","378271","0.0-36.0","F7DAD0BED9064B0BB4B49B3BCF58609E","bb168513-cbd9-4df5-958e-232292be85cb","5479079d-2186-49b2-89e2-e3afab6abcc2","","null","<div style=""display: flex; justify-content: center; align-items: center;"">
                <img src=""images/causal/causal_series_14/causal_series_14_b.jpg"" style=""width: 300px; height: 300px;"" />
              </div>","null",""
"","","","","","html-keyboard-response","37","381277","0.0-37.0","F7DAD0BED9064B0BB4B49B3BCF58609E","bb168513-cbd9-4df5-958e-232292be85cb","5479079d-2186-49b2-89e2-e3afab6abcc2","","null","<div style=""display: flex; justify-content: center; align-items: center;"">
                <img src=""images/causal/causal_series_14/causal_series_14_c.jpg"" style=""width: 300px; height: 300px;"" />
              </div>","null",""
"","","","","","html-button-response","38","382462","0.0-38.0","F7DAD0BED9064B0BB4B49B3BCF58609E","bb168513-cbd9-4df5-958e-232292be85cb","5479079d-2186-49b2-89e2-e3afab6abcc2","","1184","
    <div style=""display: flex; justify-content: center; align-items: center;"">
      <img src=""images/blue_deck_1.png"" style=""width: 300px; height: 300px; margin-right: 10px;"" />
      <img src=""images/red_deck_2.png"" style=""width: 300px; height: 300px;"" />
    </div>","0","0"
"","","","","","html-keyboard-response","39","385468","0.0-39.0-0.0-0.0","F7DAD0BED9064B0BB4B49B3BCF58609E","bb168513-cbd9-4df5-958e-232292be85cb","5479079d-2186-49b2-89e2-e3afab6abcc2","","null","<div style=""display: flex; justify-content: center; align-items: center;"">
                <img src=""images/causal/causal_series_14/causal_series_14_d.jpg"" style=""width: 300px; height: 300px;"" />
              </div>","null",""
"","","","","","html-keyboard-response","40","388471","0.0-40.0","F7DAD0BED9064B0BB4B49B3BCF58609E","bb168513-cbd9-4df5-958e-232292be85cb","5479079d-2186-49b2-89e2-e3afab6abcc2","","null","<div style=""display: flex; justify-content: center; align-items: center;"">
                <img src=""images/other/blank.jpg"" style=""width: 300px; height: 300px;"" />
              </div>","null",""
"","","","","","html-keyboard-response","41","391478","0.0-41.0","F7DAD0BED9064B0BB4B49B3BCF58609E","bb168513-cbd9-4df5-958e-232292be85cb","5479079d-2186-49b2-89e2-e3afab6abcc2","","null","<div style=""display: flex; justify-content: center; align-items: center;"">
                <img src=""images/causal/causal_series_15/causal_series_15_a.jpg"" style=""width: 300px; height: 300px;"" />
              </div>","null",""
"","","","","","html-keyboard-response","42","394487","0.0-42.0","F7DAD0BED9064B0BB4B49B3BCF58609E","bb168513-cbd9-4df5-958e-232292be85cb","5479079d-2186-49b2-89e2-e3afab6abcc2","","null","<div style=""display: flex; justify-content: center; align-items: center;"">
                <img src=""images/causal/causal_series_15/causal_series_15_b.jpg"" style=""width: 300px; height: 300px;"" />
              </div>","null",""
"","","","","","html-keyboard-response","43","397493","0.0-43.0","F7DAD0BED9064B0BB4B49B3BCF58609E","bb168513-cbd9-4df5-958e-232292be85cb","5479079d-2186-49b2-89e2-e3afab6abcc2","","null","<div style=""display: flex; justify-content: center; align-items: center;"">
                <img src=""images/causal/causal_series_15/causal_series_15_c.jpg"" style=""width: 300px; height: 300px;"" />
              </div>","null",""
"","","","","","html-button-response","44","398715","0.0-44.0","F7DAD0BED9064B0BB4B49B3BCF58609E","bb168513-cbd9-4df5-958e-232292be85cb","5479079d-2186-49b2-89e2-e3afab6abcc2","","1221","
    <div style=""display: flex; justify-content: center; align-items: center;"">
      <img src=""images/blue_deck_1.png"" style=""width: 300px; height: 300px; margin-right: 10px;"" />
      <img src=""images/red_deck_2.png"" style=""width: 300px; height: 300px;"" />
    </div>","0","0"
"","","","","","html-keyboard-response","45","401716","0.0-45.0-0.0-0.0","F7DAD0BED9064B0BB4B49B3BCF58609E","bb168513-cbd9-4df5-958e-232292be85cb","5479079d-2186-49b2-89e2-e3afab6abcc2","","null","<div style=""display: flex; justify-content: center; align-items: center;"">
                <img src=""images/causal/causal_series_15/causal_series_15_d.jpg"" style=""width: 300px; height: 300px;"" />
              </div>","null",""
"","","","","","html-keyboard-response","46","404727","0.0-46.0","F7DAD0BED9064B0BB4B49B3BCF58609E","bb168513-cbd9-4df5-958e-232292be85cb","5479079d-2186-49b2-89e2-e3afab6abcc2","","null","<div style=""display: flex; justify-content: center; align-items: center;"">
                <img src=""images/other/blank.jpg"" style=""width: 300px; height: 300px;"" />
              </div>","null",""
"","","","","","html-keyboard-response","47","407732","0.0-47.0","F7DAD0BED9064B0BB4B49B3BCF58609E","bb168513-cbd9-4df5-958e-232292be85cb","5479079d-2186-49b2-89e2-e3afab6abcc2","","null","<div style=""display: flex; justify-content: center; align-items: center;"">
                <img src=""images/causal/causal_series_2/causal_series_2_a.jpg"" style=""width: 300px; height: 300px;"" />
              </div>","null",""
"","","","","","html-keyboard-response","48","410740","0.0-48.0","F7DAD0BED9064B0BB4B49B3BCF58609E","bb168513-cbd9-4df5-958e-232292be85cb","5479079d-2186-49b2-89e2-e3afab6abcc2","","null","<div style=""display: flex; justify-content: center; align-items: center;"">
                <img src=""images/causal/causal_series_2/causal_series_2_b.jpg"" style=""width: 300px; height: 300px;"" />
              </div>","null",""
"","","","","","html-keyboard-response","49","413749","0.0-49.0","F7DAD0BED9064B0BB4B49B3BCF58609E","bb168513-cbd9-4df5-958e-232292be85cb","5479079d-2186-49b2-89e2-e3afab6abcc2","","null","<div style=""display: flex; justify-content: center; align-items: center;"">
                <img src=""images/causal/causal_series_2/causal_series_2_c.jpg"" style=""width: 300px; height: 300px;"" />
              </div>","null",""
"","","","","","html-button-response","50","414479","0.0-50.0","F7DAD0BED9064B0BB4B49B3BCF58609E","bb168513-cbd9-4df5-958e-232292be85cb","5479079d-2186-49b2-89e2-e3afab6abcc2","","730","
    <div style=""display: flex; justify-content: center; align-items: center;"">
      <img src=""images/blue_deck_1.png"" style=""width: 300px; height: 300px; margin-right: 10px;"" />
      <img src=""images/red_deck_2.png"" style=""width: 300px; height: 300px;"" />
    </div>","1","1"
"","","","","","html-keyboard-response","51","417486","0.0-51.0-1.0-0.0","F7DAD0BED9064B0BB4B49B3BCF58609E","bb168513-cbd9-4df5-958e-232292be85cb","5479079d-2186-49b2-89e2-e3afab6abcc2","","null","<div style=""display: flex; justify-content: center; align-items: center;"">
                <img src=""images/semantic/semantic_series_2/semantic_series_2_d.jpg"" style=""width: 300px; height: 300px;"" />
              </div>","null",""
"","","","","","html-keyboard-response","52","420495","0.0-52.0","F7DAD0BED9064B0BB4B49B3BCF58609E","bb168513-cbd9-4df5-958e-232292be85cb","5479079d-2186-49b2-89e2-e3afab6abcc2","","null","<div style=""display: flex; justify-content: center; align-items: center;"">
                <img src=""images/other/blank.jpg"" style=""width: 300px; height: 300px;"" />
              </div>","null",""
"","","","","","html-keyboard-response","53","423500","0.0-53.0","F7DAD0BED9064B0BB4B49B3BCF58609E","bb168513-cbd9-4df5-958e-232292be85cb","5479079d-2186-49b2-89e2-e3afab6abcc2","","null","<div style=""display: flex; justify-content: center; align-items: center;"">
                <img src=""images/causal/causal_series_18/causal_series_18_a.jpg"" style=""width: 300px; height: 300px;"" />
              </div>","null",""
"","","","","","html-keyboard-response","54","426507","0.0-54.0","F7DAD0BED9064B0BB4B49B3BCF58609E","bb168513-cbd9-4df5-958e-232292be85cb","5479079d-2186-49b2-89e2-e3afab6abcc2","","null","<div style=""display: flex; justify-content: center; align-items: center;"">
                <img src=""images/causal/causal_series_18/causal_series_18_b.jpg"" style=""width: 300px; height: 300px;"" />
              </div>","null",""
"","","","","","html-keyboard-response","55","429512","0.0-55.0","F7DAD0BED9064B0BB4B49B3BCF58609E","bb168513-cbd9-4df5-958e-232292be85cb","5479079d-2186-49b2-89e2-e3afab6abcc2","","null","<div style=""display: flex; justify-content: center; align-items: center;"">
                <img src=""images/causal/causal_series_18/causal_series_18_c.jpg"" style=""width: 300px; height: 300px;"" />
              </div>","null",""
"","","","","","html-button-response","56","430746","0.0-56.0","F7DAD0BED9064B0BB4B49B3BCF58609E","bb168513-cbd9-4df5-958e-232292be85cb","5479079d-2186-49b2-89e2-e3afab6abcc2","","1233","
    <div style=""display: flex; justify-content: center; align-items: center;"">
      <img src=""images/blue_deck_1.png"" style=""width: 300px; height: 300px; margin-right: 10px;"" />
      <img src=""images/red_deck_2.png"" style=""width: 300px; height: 300px;"" />
    </div>","0","0"
"","","","","","html-keyboard-response","57","433750","0.0-57.0-0.0-0.0","F7DAD0BED9064B0BB4B49B3BCF58609E","bb168513-cbd9-4df5-958e-232292be85cb","5479079d-2186-49b2-89e2-e3afab6abcc2","","null","<div style=""display: flex; justify-content: center; align-items: center;"">
                <img src=""images/causal/causal_series_18/causal_series_18_d.jpg"" style=""width: 300px; height: 300px;"" />
              </div>","null",""
"","","","","","html-keyboard-response","58","436755","0.0-58.0","F7DAD0BED9064B0BB4B49B3BCF58609E","bb168513-cbd9-4df5-958e-232292be85cb","5479079d-2186-49b2-89e2-e3afab6abcc2","","null","<div style=""display: flex; justify-content: center; align-items: center;"">
                <img src=""images/other/blank.jpg"" style=""width: 300px; height: 300px;"" />
              </div>","null",""
"","","","","","html-keyboard-response","59","439760","0.0-59.0","F7DAD0BED9064B0BB4B49B3BCF58609E","bb168513-cbd9-4df5-958e-232292be85cb","5479079d-2186-49b2-89e2-e3afab6abcc2","","null","<div style=""display: flex; justify-content: center; align-items: center;"">
                <img src=""images/causal/causal_series_8/causal_series_8_a.jpg"" style=""width: 300px; height: 300px;"" />
              </div>","null",""
"","","","","","html-keyboard-response","60","442769","0.0-60.0","F7DAD0BED9064B0BB4B49B3BCF58609E","bb168513-cbd9-4df5-958e-232292be85cb","5479079d-2186-49b2-89e2-e3afab6abcc2","","null","<div style=""display: flex; justify-content: center; align-items: center;"">
                <img src=""images/causal/causal_series_8/causal_series_8_b.jpg"" style=""width: 300px; height: 300px;"" />
              </div>","null",""
"","","","","","html-keyboard-response","61","445773","0.0-61.0","F7DAD0BED9064B0BB4B49B3BCF58609E","bb168513-cbd9-4df5-958e-232292be85cb","5479079d-2186-49b2-89e2-e3afab6abcc2","","null","<div style=""display: flex; justify-content: center; align-items: center;"">
                <img src=""images/causal/causal_series_8/causal_series_8_c.jpg"" style=""width: 300px; height: 300px;"" />
              </div>","null",""
"","","","","","html-button-response","62","446387","0.0-62.0","F7DAD0BED9064B0BB4B49B3BCF58609E","bb168513-cbd9-4df5-958e-232292be85cb","5479079d-2186-49b2-89e2-e3afab6abcc2","","613","
    <div style=""display: flex; justify-content: center; align-items: center;"">
      <img src=""images/blue_deck_1.png"" style=""width: 300px; height: 300px; margin-right: 10px;"" />
      <img src=""images/red_deck_2.png"" style=""width: 300px; height: 300px;"" />
    </div>","0","0"
"","","","","","html-keyboard-response","63","449400","0.0-63.0-0.0-0.0","F7DAD0BED9064B0BB4B49B3BCF58609E","bb168513-cbd9-4df5-958e-232292be85cb","5479079d-2186-49b2-89e2-e3afab6abcc2","","null","<div style=""display: flex; justify-content: center; align-items: center;"">
                <img src=""images/causal/causal_series_8/causal_series_8_d.jpg"" style=""width: 300px; height: 300px;"" />
              </div>","null",""
"","","","","","html-keyboard-response","64","452404","0.0-64.0","F7DAD0BED9064B0BB4B49B3BCF58609E","bb168513-cbd9-4df5-958e-232292be85cb","5479079d-2186-49b2-89e2-e3afab6abcc2","","null","<div style=""display: flex; justify-content: center; align-items: center;"">
                <img src=""images/other/blank.jpg"" style=""width: 300px; height: 300px;"" />
              </div>","null",""
"","","","","","html-keyboard-response","65","455412","0.0-65.0","F7DAD0BED9064B0BB4B49B3BCF58609E","bb168513-cbd9-4df5-958e-232292be85cb","5479079d-2186-49b2-89e2-e3afab6abcc2","","null","<div style=""display: flex; justify-content: center; align-items: center;"">
                <img src=""images/causal/causal_series_17/causal_series_17_a.jpg"" style=""width: 300px; height: 300px;"" />
              </div>","null",""
"","","","","","html-keyboard-response","66","458421","0.0-66.0","F7DAD0BED9064B0BB4B49B3BCF58609E","bb168513-cbd9-4df5-958e-232292be85cb","5479079d-2186-49b2-89e2-e3afab6abcc2","","null","<div style=""display: flex; justify-content: center; align-items: center;"">
                <img src=""images/causal/causal_series_17/causal_series_17_b.jpg"" style=""width: 300px; height: 300px;"" />
              </div>","null",""
"","","","","","html-keyboard-response","67","461430","0.0-67.0","F7DAD0BED9064B0BB4B49B3BCF58609E","bb168513-cbd9-4df5-958e-232292be85cb","5479079d-2186-49b2-89e2-e3afab6abcc2","","null","<div style=""display: flex; justify-content: center; align-items: center;"">
                <img src=""images/causal/causal_series_17/causal_series_17_c.jpg"" style=""width: 300px; height: 300px;"" />
              </div>","null",""
"","","","","","html-button-response","68","462130","0.0-68.0","F7DAD0BED9064B0BB4B49B3BCF58609E","bb168513-cbd9-4df5-958e-232292be85cb","5479079d-2186-49b2-89e2-e3afab6abcc2","","700","
    <div style=""display: flex; justify-content: center; align-items: center;"">
      <img src=""images/blue_deck_1.png"" style=""width: 300px; height: 300px; margin-right: 10px;"" />
      <img src=""images/red_deck_2.png"" style=""width: 300px; height: 300px;"" />
    </div>","0","0"
"","","","","","html-keyboard-response","69","465141","0.0-69.0-0.0-0.0","F7DAD0BED9064B0BB4B49B3BCF58609E","bb168513-cbd9-4df5-958e-232292be85cb","5479079d-2186-49b2-89e2-e3afab6abcc2","","null","<div style=""display: flex; justify-content: center; align-items: center;"">
                <img src=""images/causal/causal_series_17/causal_series_17_d.jpg"" style=""width: 300px; height: 300px;"" />
              </div>","null",""
"","","","","","html-keyboard-response","70","468141","0.0-70.0","F7DAD0BED9064B0BB4B49B3BCF58609E","bb168513-cbd9-4df5-958e-232292be85cb","5479079d-2186-49b2-89e2-e3afab6abcc2","","null","<div style=""display: flex; justify-content: center; align-items: center;"">
                <img src=""images/other/blank.jpg"" style=""width: 300px; height: 300px;"" />
              </div>","null",""
"","","","","","html-keyboard-response","71","471154","0.0-71.0","F7DAD0BED9064B0BB4B49B3BCF58609E","bb168513-cbd9-4df5-958e-232292be85cb","5479079d-2186-49b2-89e2-e3afab6abcc2","","null","<div style=""display: flex; justify-content: center; align-items: center;"">
                <img src=""images/causal/causal_series_3/causal_series_3_a.jpg"" style=""width: 300px; height: 300px;"" />
              </div>","null",""
"","","","","","html-keyboard-response","72","474161","0.0-72.0","F7DAD0BED9064B0BB4B49B3BCF58609E","bb168513-cbd9-4df5-958e-232292be85cb","5479079d-2186-49b2-89e2-e3afab6abcc2","","null","<div style=""display: flex; justify-content: center; align-items: center;"">
                <img src=""images/causal/causal_series_3/causal_series_3_b.jpg"" style=""width: 300px; height: 300px;"" />
              </div>","null",""
"","","","","","html-keyboard-response","73","477167","0.0-73.0","F7DAD0BED9064B0BB4B49B3BCF58609E","bb168513-cbd9-4df5-958e-232292be85cb","5479079d-2186-49b2-89e2-e3afab6abcc2","","null","<div style=""display: flex; justify-content: center; align-items: center;"">
                <img src=""images/causal/causal_series_3/causal_series_3_c.jpg"" style=""width: 300px; height: 300px;"" />
              </div>","null",""
"","","","","","html-button-response","74","478383","0.0-74.0","F7DAD0BED9064B0BB4B49B3BCF58609E","bb168513-cbd9-4df5-958e-232292be85cb","5479079d-2186-49b2-89e2-e3afab6abcc2","","1215","
    <div style=""display: flex; justify-content: center; align-items: center;"">
      <img src=""images/blue_deck_1.png"" style=""width: 300px; height: 300px; margin-right: 10px;"" />
      <img src=""images/red_deck_2.png"" style=""width: 300px; height: 300px;"" />
    </div>","1","1"
"","","","","","html-keyboard-response","75","481384","0.0-75.0-1.0-0.0","F7DAD0BED9064B0BB4B49B3BCF58609E","bb168513-cbd9-4df5-958e-232292be85cb","5479079d-2186-49b2-89e2-e3afab6abcc2","","null","<div style=""display: flex; justify-content: center; align-items: center;"">
                <img src=""images/semantic/semantic_series_3/semantic_series_3_d.jpg"" style=""width: 300px; height: 300px;"" />
              </div>","null",""
"","","","","","html-keyboard-response","76","484386","0.0-76.0","F7DAD0BED9064B0BB4B49B3BCF58609E","bb168513-cbd9-4df5-958e-232292be85cb","5479079d-2186-49b2-89e2-e3afab6abcc2","","null","<div style=""display: flex; justify-content: center; align-items: center;"">
                <img src=""images/other/blank.jpg"" style=""width: 300px; height: 300px;"" />
              </div>","null",""
"","","","","","html-keyboard-response","77","487387","0.0-77.0","F7DAD0BED9064B0BB4B49B3BCF58609E","bb168513-cbd9-4df5-958e-232292be85cb","5479079d-2186-49b2-89e2-e3afab6abcc2","","null","<div style=""display: flex; justify-content: center; align-items: center;"">
                <img src=""images/causal/causal_series_6/causal_series_6_a.jpg"" style=""width: 300px; height: 300px;"" />
              </div>","null",""
"","","","","","html-keyboard-response","78","490398","0.0-78.0","F7DAD0BED9064B0BB4B49B3BCF58609E","bb168513-cbd9-4df5-958e-232292be85cb","5479079d-2186-49b2-89e2-e3afab6abcc2","","null","<div style=""display: flex; justify-content: center; align-items: center;"">
                <img src=""images/causal/causal_series_6/causal_series_6_b.jpg"" style=""width: 300px; height: 300px;"" />
              </div>","null",""
"","","","","","html-keyboard-response","79","493399","0.0-79.0","F7DAD0BED9064B0BB4B49B3BCF58609E","bb168513-cbd9-4df5-958e-232292be85cb","5479079d-2186-49b2-89e2-e3afab6abcc2","","null","<div style=""display: flex; justify-content: center; align-items: center;"">
                <img src=""images/causal/causal_series_6/causal_series_6_c.jpg"" style=""width: 300px; height: 300px;"" />
              </div>","null",""
"","","","","","html-button-response","80","494681","0.0-80.0","F7DAD0BED9064B0BB4B49B3BCF58609E","bb168513-cbd9-4df5-958e-232292be85cb","5479079d-2186-49b2-89e2-e3afab6abcc2","","1281","
    <div style=""display: flex; justify-content: center; align-items: center;"">
      <img src=""images/blue_deck_1.png"" style=""width: 300px; height: 300px; margin-right: 10px;"" />
      <img src=""images/red_deck_2.png"" style=""width: 300px; height: 300px;"" />
    </div>","0","0"
"","","","","","html-keyboard-response","81","497692","0.0-81.0-0.0-0.0","F7DAD0BED9064B0BB4B49B3BCF58609E","bb168513-cbd9-4df5-958e-232292be85cb","5479079d-2186-49b2-89e2-e3afab6abcc2","","null","<div style=""display: flex; justify-content: center; align-items: center;"">
                <img src=""images/causal/causal_series_6/causal_series_6_d.jpg"" style=""width: 300px; height: 300px;"" />
              </div>","null",""
"","","","","","html-keyboard-response","82","500698","0.0-82.0","F7DAD0BED9064B0BB4B49B3BCF58609E","bb168513-cbd9-4df5-958e-232292be85cb","5479079d-2186-49b2-89e2-e3afab6abcc2","","null","<div style=""display: flex; justify-content: center; align-items: center;"">
                <img src=""images/other/blank.jpg"" style=""width: 300px; height: 300px;"" />
              </div>","null",""
"","","","","","html-keyboard-response","83","503700","0.0-83.0","F7DAD0BED9064B0BB4B49B3BCF58609E","bb168513-cbd9-4df5-958e-232292be85cb","5479079d-2186-49b2-89e2-e3afab6abcc2","","null","<div style=""display: flex; justify-content: center; align-items: center;"">
                <img src=""images/causal/causal_series_4/causal_series_4_a.jpg"" style=""width: 300px; height: 300px;"" />
              </div>","null",""
"","","","","","html-keyboard-response","84","506701","0.0-84.0","F7DAD0BED9064B0BB4B49B3BCF58609E","bb168513-cbd9-4df5-958e-232292be85cb","5479079d-2186-49b2-89e2-e3afab6abcc2","","null","<div style=""display: flex; justify-content: center; align-items: center;"">
                <img src=""images/causal/causal_series_4/causal_series_4_b.jpg"" style=""width: 300px; height: 300px;"" />
              </div>","null",""
"","","","","","html-keyboard-response","85","509702","0.0-85.0","F7DAD0BED9064B0BB4B49B3BCF58609E","bb168513-cbd9-4df5-958e-232292be85cb","5479079d-2186-49b2-89e2-e3afab6abcc2","","null","<div style=""display: flex; justify-content: center; align-items: center;"">
                <img src=""images/causal/causal_series_4/causal_series_4_c.jpg"" style=""width: 300px; height: 300px;"" />
              </div>","null",""
"","","","","","html-button-response","86","510693","0.0-86.0","F7DAD0BED9064B0BB4B49B3BCF58609E","bb168513-cbd9-4df5-958e-232292be85cb","5479079d-2186-49b2-89e2-e3afab6abcc2","","990","
    <div style=""display: flex; justify-content: center; align-items: center;"">
      <img src=""images/blue_deck_1.png"" style=""width: 300px; height: 300px; margin-right: 10px;"" />
      <img src=""images/red_deck_2.png"" style=""width: 300px; height: 300px;"" />
    </div>","0","0"
"","","","","","html-keyboard-response","87","513701","0.0-87.0-0.0-0.0","F7DAD0BED9064B0BB4B49B3BCF58609E","bb168513-cbd9-4df5-958e-232292be85cb","5479079d-2186-49b2-89e2-e3afab6abcc2","","null","<div style=""display: flex; justify-content: center; align-items: center;"">
                <img src=""images/causal/causal_series_4/causal_series_4_d.jpg"" style=""width: 300px; height: 300px;"" />
              </div>","null",""
"","","","","","html-keyboard-response","88","516708","0.0-88.0","F7DAD0BED9064B0BB4B49B3BCF58609E","bb168513-cbd9-4df5-958e-232292be85cb","5479079d-2186-49b2-89e2-e3afab6abcc2","","null","<div style=""display: flex; justify-content: center; align-items: center;"">
                <img src=""images/other/blank.jpg"" style=""width: 300px; height: 300px;"" />
              </div>","null",""
"","","","","","html-keyboard-response","89","519717","0.0-89.0","F7DAD0BED9064B0BB4B49B3BCF58609E","bb168513-cbd9-4df5-958e-232292be85cb","5479079d-2186-49b2-89e2-e3afab6abcc2","","null","<div style=""display: flex; justify-content: center; align-items: center;"">
                <img src=""images/causal/causal_series_5/causal_series_5_a.jpg"" style=""width: 300px; height: 300px;"" />
              </div>","null",""
"","","","","","html-keyboard-response","90","522725","0.0-90.0","F7DAD0BED9064B0BB4B49B3BCF58609E","bb168513-cbd9-4df5-958e-232292be85cb","5479079d-2186-49b2-89e2-e3afab6abcc2","","null","<div style=""display: flex; justify-content: center; align-items: center;"">
                <img src=""images/causal/causal_series_5/causal_series_5_b.jpg"" style=""width: 300px; height: 300px;"" />
              </div>","null",""
"","","","","","html-keyboard-response","91","525734","0.0-91.0","F7DAD0BED9064B0BB4B49B3BCF58609E","bb168513-cbd9-4df5-958e-232292be85cb","5479079d-2186-49b2-89e2-e3afab6abcc2","","null","<div style=""display: flex; justify-content: center; align-items: center;"">
                <img src=""images/causal/causal_series_5/causal_series_5_c.jpg"" style=""width: 300px; height: 300px;"" />
              </div>","null",""
"","","","","","html-button-response","92","526735","0.0-92.0","F7DAD0BED9064B0BB4B49B3BCF58609E","bb168513-cbd9-4df5-958e-232292be85cb","5479079d-2186-49b2-89e2-e3afab6abcc2","","1001","
    <div style=""display: flex; justify-content: center; align-items: center;"">
      <img src=""images/blue_deck_1.png"" style=""width: 300px; height: 300px; margin-right: 10px;"" />
      <img src=""images/red_deck_2.png"" style=""width: 300px; height: 300px;"" />
    </div>","0","0"
"","","","","","html-keyboard-response","93","529743","0.0-93.0-0.0-0.0","F7DAD0BED9064B0BB4B49B3BCF58609E","bb168513-cbd9-4df5-958e-232292be85cb","5479079d-2186-49b2-89e2-e3afab6abcc2","","null","<div style=""display: flex; justify-content: center; align-items: center;"">
                <img src=""images/causal/causal_series_5/causal_series_5_d.jpg"" style=""width: 300px; height: 300px;"" />
              </div>","null",""
"","","","","","html-keyboard-response","94","532755","0.0-94.0","F7DAD0BED9064B0BB4B49B3BCF58609E","bb168513-cbd9-4df5-958e-232292be85cb","5479079d-2186-49b2-89e2-e3afab6abcc2","","null","<div style=""display: flex; justify-content: center; align-items: center;"">
                <img src=""images/other/blank.jpg"" style=""width: 300px; height: 300px;"" />
              </div>","null",""
"","","","","","html-keyboard-response","95","535764","0.0-95.0","F7DAD0BED9064B0BB4B49B3BCF58609E","bb168513-cbd9-4df5-958e-232292be85cb","5479079d-2186-49b2-89e2-e3afab6abcc2","","null","<div style=""display: flex; justify-content: center; align-items: center;"">
                <img src=""images/causal/causal_series_9/causal_series_9_a.jpg"" style=""width: 300px; height: 300px;"" />
              </div>","null",""
"","","","","","html-keyboard-response","96","538772","0.0-96.0","F7DAD0BED9064B0BB4B49B3BCF58609E","bb168513-cbd9-4df5-958e-232292be85cb","5479079d-2186-49b2-89e2-e3afab6abcc2","","null","<div style=""display: flex; justify-content: center; align-items: center;"">
                <img src=""images/causal/causal_series_9/causal_series_9_b.jpg"" style=""width: 300px; height: 300px;"" />
              </div>","null",""
"","","","","","html-keyboard-response","97","541781","0.0-97.0","F7DAD0BED9064B0BB4B49B3BCF58609E","bb168513-cbd9-4df5-958e-232292be85cb","5479079d-2186-49b2-89e2-e3afab6abcc2","","null","<div style=""display: flex; justify-content: center; align-items: center;"">
                <img src=""images/causal/causal_series_9/causal_series_9_c.jpg"" style=""width: 300px; height: 300px;"" />
              </div>","null",""
"","","","","","html-button-response","98","543054","0.0-98.0","F7DAD0BED9064B0BB4B49B3BCF58609E","bb168513-cbd9-4df5-958e-232292be85cb","5479079d-2186-49b2-89e2-e3afab6abcc2","","1272","
    <div style=""display: flex; justify-content: center; align-items: center;"">
      <img src=""images/blue_deck_1.png"" style=""width: 300px; height: 300px; margin-right: 10px;"" />
      <img src=""images/red_deck_2.png"" style=""width: 300px; height: 300px;"" />
    </div>","0","0"
"","","","","","html-keyboard-response","99","546066","0.0-99.0-0.0-0.0","F7DAD0BED9064B0BB4B49B3BCF58609E","bb168513-cbd9-4df5-958e-232292be85cb","5479079d-2186-49b2-89e2-e3afab6abcc2","","null","<div style=""display: flex; justify-content: center; align-items: center;"">
                <img src=""images/causal/causal_series_9/causal_series_9_d.jpg"" style=""width: 300px; height: 300px;"" />
              </div>","null",""
"","","","","","html-keyboard-response","100","549069","0.0-100.0","F7DAD0BED9064B0BB4B49B3BCF58609E","bb168513-cbd9-4df5-958e-232292be85cb","5479079d-2186-49b2-89e2-e3afab6abcc2","","null","<div style=""display: flex; justify-content: center; align-items: center;"">
                <img src=""images/other/blank.jpg"" style=""width: 300px; height: 300px;"" />
              </div>","null",""
"","","","","","html-keyboard-response","101","552070","0.0-101.0","F7DAD0BED9064B0BB4B49B3BCF58609E","bb168513-cbd9-4df5-958e-232292be85cb","5479079d-2186-49b2-89e2-e3afab6abcc2","","null","<div style=""display: flex; justify-content: center; align-items: center;"">
                <img src=""images/causal/causal_series_7/causal_series_7_a.jpg"" style=""width: 300px; height: 300px;"" />
              </div>","null",""
"","","","","","html-keyboard-response","102","555076","0.0-102.0","F7DAD0BED9064B0BB4B49B3BCF58609E","bb168513-cbd9-4df5-958e-232292be85cb","5479079d-2186-49b2-89e2-e3afab6abcc2","","null","<div style=""display: flex; justify-content: center; align-items: center;"">
                <img src=""images/causal/causal_series_7/causal_series_7_b.jpg"" style=""width: 300px; height: 300px;"" />
              </div>","null",""
"","","","","","html-keyboard-response","103","558085","0.0-103.0","F7DAD0BED9064B0BB4B49B3BCF58609E","bb168513-cbd9-4df5-958e-232292be85cb","5479079d-2186-49b2-89e2-e3afab6abcc2","","null","<div style=""display: flex; justify-content: center; align-items: center;"">
                <img src=""images/causal/causal_series_7/causal_series_7_c.jpg"" style=""width: 300px; height: 300px;"" />
              </div>","null",""
"","","","","","html-button-response","104","558772","0.0-104.0","F7DAD0BED9064B0BB4B49B3BCF58609E","bb168513-cbd9-4df5-958e-232292be85cb","5479079d-2186-49b2-89e2-e3afab6abcc2","","687","
    <div style=""display: flex; justify-content: center; align-items: center;"">
      <img src=""images/blue_deck_1.png"" style=""width: 300px; height: 300px; margin-right: 10px;"" />
      <img src=""images/red_deck_2.png"" style=""width: 300px; height: 300px;"" />
    </div>","0","0"
"","","","","","html-keyboard-response","105","561780","0.0-105.0-0.0-0.0","F7DAD0BED9064B0BB4B49B3BCF58609E","bb168513-cbd9-4df5-958e-232292be85cb","5479079d-2186-49b2-89e2-e3afab6abcc2","","null","<div style=""display: flex; justify-content: center; align-items: center;"">
                <img src=""images/causal/causal_series_7/causal_series_7_d.jpg"" style=""width: 300px; height: 300px;"" />
              </div>","null",""
"","","","","","html-keyboard-response","106","564786","0.0-106.0","F7DAD0BED9064B0BB4B49B3BCF58609E","bb168513-cbd9-4df5-958e-232292be85cb","5479079d-2186-49b2-89e2-e3afab6abcc2","","null","<div style=""display: flex; justify-content: center; align-items: center;"">
                <img src=""images/other/blank.jpg"" style=""width: 300px; height: 300px;"" />
              </div>","null",""
"","","","","","html-keyboard-response","107","567795","0.0-107.0","F7DAD0BED9064B0BB4B49B3BCF58609E","bb168513-cbd9-4df5-958e-232292be85cb","5479079d-2186-49b2-89e2-e3afab6abcc2","","null","<div style=""display: flex; justify-content: center; align-items: center;"">
                <img src=""images/causal/causal_series_16/causal_series_16_a.jpg"" style=""width: 300px; height: 300px;"" />
              </div>","null",""
"","","","","","html-keyboard-response","108","570796","0.0-108.0","F7DAD0BED9064B0BB4B49B3BCF58609E","bb168513-cbd9-4df5-958e-232292be85cb","5479079d-2186-49b2-89e2-e3afab6abcc2","","null","<div style=""display: flex; justify-content: center; align-items: center;"">
                <img src=""images/causal/causal_series_16/causal_series_16_b.jpg"" style=""width: 300px; height: 300px;"" />
              </div>","null",""
"","","","","","html-keyboard-response","109","573796","0.0-109.0","F7DAD0BED9064B0BB4B49B3BCF58609E","bb168513-cbd9-4df5-958e-232292be85cb","5479079d-2186-49b2-89e2-e3afab6abcc2","","null","<div style=""display: flex; justify-content: center; align-items: center;"">
                <img src=""images/causal/causal_series_16/causal_series_16_c.jpg"" style=""width: 300px; height: 300px;"" />
              </div>","null",""
"","","","","","html-button-response","110","574541","0.0-110.0","F7DAD0BED9064B0BB4B49B3BCF58609E","bb168513-cbd9-4df5-958e-232292be85cb","5479079d-2186-49b2-89e2-e3afab6abcc2","","744","
    <div style=""display: flex; justify-content: center; align-items: center;"">
      <img src=""images/blue_deck_1.png"" style=""width: 300px; height: 300px; margin-right: 10px;"" />
      <img src=""images/red_deck_2.png"" style=""width: 300px; height: 300px;"" />
    </div>","0","0"
"","","","","","html-keyboard-response","111","577558","0.0-111.0-0.0-0.0","F7DAD0BED9064B0BB4B49B3BCF58609E","bb168513-cbd9-4df5-958e-232292be85cb","5479079d-2186-49b2-89e2-e3afab6abcc2","","null","<div style=""display: flex; justify-content: center; align-items: center;"">
                <img src=""images/causal/causal_series_16/causal_series_16_d.jpg"" style=""width: 300px; height: 300px;"" />
              </div>","null",""
"","","","","","html-keyboard-response","112","580567","0.0-112.0","F7DAD0BED9064B0BB4B49B3BCF58609E","bb168513-cbd9-4df5-958e-232292be85cb","5479079d-2186-49b2-89e2-e3afab6abcc2","","null","<div style=""display: flex; justify-content: center; align-items: center;"">
                <img src=""images/other/blank.jpg"" style=""width: 300px; height: 300px;"" />
              </div>","null",""
"","","","","","survey-text","113","591096","0.0-113.0","F7DAD0BED9064B0BB4B49B3BCF58609E","bb168513-cbd9-4df5-958e-232292be85cb","5479079d-2186-49b2-89e2-e3afab6abcc2","","10527","","{""Q0"":""one continues the story, one is a random image""}",""
"","","","","","survey-text","114","596864","0.0-114.0","F7DAD0BED9064B0BB4B49B3BCF58609E","bb168513-cbd9-4df5-958e-232292be85cb","5479079d-2186-49b2-89e2-e3afab6abcc2","","5766","","{""Q0"":""the blue deck""}",""
"","","","","","html-button-response","115","603013","0.0-115.0","F7DAD0BED9064B0BB4B49B3BCF58609E","bb168513-cbd9-4df5-958e-232292be85cb","5479079d-2186-49b2-89e2-e3afab6abcc2","","6149","Which color deck does the fourth image continue the story from the series?","0",""
"","","","","","html-button-response","116","604842","0.0-116.0","F7DAD0BED9064B0BB4B49B3BCF58609E","bb168513-cbd9-4df5-958e-232292be85cb","5479079d-2186-49b2-89e2-e3afab6abcc2","","1828","Which color deck does the fourth image not follow the story from the series?","1",""
"","","","","","survey-text","117","609736","0.0-117.0","F7DAD0BED9064B0BB4B49B3BCF58609E","bb168513-cbd9-4df5-958e-232292be85cb","5479079d-2186-49b2-89e2-e3afab6abcc2","","4892","","{""Q0"":""female"",""Q1"":""27""}",""
"","","","","","instructions","118","619769","0.0-118.0","F7DAD0BED9064B0BB4B49B3BCF58609E","bb168513-cbd9-4df5-958e-232292be85cb","5479079d-2186-49b2-89e2-e3afab6abcc2","[{""page_index"":0,""viewing_time"":10032}]","10032","","",""
