"success","timeout","failed_images","failed_audio","failed_video","trial_type","trial_index","time_elapsed","internal_node_id","subject_id","study_id","session_id","view_history","rt","stimulus","response","choice"
"true","false","[]","[]","[]","preload","0","6293","0.0-0.0","03A735991860471385278713ADB0DAEB","826d5357-3c7a-4f09-8e38-fc00a2b14d6d","58046770-4c03-4bc2-b4bc-e7359011db5d","","","","",""
"","","","","","instructions","1","11475","0.0-1.0","03A735991860471385278713ADB0DAEB","826d5357-3c7a-4f09-8e38-fc00a2b14d6d","58046770-4c03-4bc2-b4bc-e7359011db5d","[{""page_index"":0,""viewing_time"":5182}]","5182","","",""
"","","","","","instructions","2","14723","0.0-2.0","03A735991860471385278713ADB0DAEB","826d5357-3c7a-4f09-8e38-fc00a2b14d6d","58046770-4c03-4bc2-b4bc-e7359011db5d","[{""page_index"":0,""viewing_time"":3247}]","3247","","",""
"true","","","","","fullscreen","3","18233","0.0-3.0","03A735991860471385278713ADB0DAEB","826d5357-3c7a-4f09-8e38-fc00a2b14d6d","58046770-4c03-4bc2-b4bc-e7359011db5d","","2496","","",""
"","","","","","instructions","4","26440","0.0-4.0","03A735991860471385278713ADB0DAEB","826d5357-3c7a-4f09-8e38-fc00a2b14d6d","58046770-4c03-4bc2-b4bc-e7359011db5d","[{""page_index"":0,""viewing_time"":8207}]","8207","","",""
"","","","","","html-keyboard-response","5","29442","0.0-5.0","03A735991860471385278713ADB0DAEB","826d5357-3c7a-4f09-8e38-fc00a2b14d6d","58046770-4c03-4bc2-b4bc-e7359011db5d","","null","<div style=""display: flex; justify-content: center; align-items: center;"">
                <img src=""images/causal/causal_series_18/causal_series_18_a.jpg"" style=""width: 300px; height: 300px;"" />
              </div>","null",""
"","","","","","html-keyboard-response","6","32459","0.0-6.0","03A735991860471385278713ADB0DAEB","826d5357-3c7a-4f09-8e38-fc00a2b14d6d","58046770-4c03-4bc2-b4bc-e7359011db5d","","null","<div style=""display: flex; justify-content: center; align-items: center;"">
                <img src=""images/causal/causal_series_18/causal_series_18_b.jpg"" style=""width: 300px; height: 300px;"" />
              </div>","null",""
"","","","","","html-keyboard-response","7","35463","0.0-7.0","03A735991860471385278713ADB0DAEB","826d5357-3c7a-4f09-8e38-fc00a2b14d6d","58046770-4c03-4bc2-b4bc-e7359011db5d","","null","<div style=""display: flex; justify-content: center; align-items: center;"">
                <img src=""images/causal/causal_series_18/causal_series_18_c.jpg"" style=""width: 300px; height: 300px;"" />
              </div>","null",""
"","","","","","html-button-response","8","38301","0.0-8.0","03A735991860471385278713ADB0DAEB","826d5357-3c7a-4f09-8e38-fc00a2b14d6d","58046770-4c03-4bc2-b4bc-e7359011db5d","","2837","
    <div style=""display: flex; justify-content: center; align-items: center;"">
      <img src=""images/red_deck_2.png"" style=""width: 300px; height: 300px; margin-right: 10px;"" />
      <img src=""images/blue_deck_1.png"" style=""width: 300px; height: 300px;"" />
    </div>","1","1"
"","","","","","html-keyboard-response","9","41311","0.0-9.0-1.0-0.0","03A735991860471385278713ADB0DAEB","826d5357-3c7a-4f09-8e38-fc00a2b14d6d","58046770-4c03-4bc2-b4bc-e7359011db5d","","null","<div style=""display: flex; justify-content: center; align-items: center;"">
                <img src=""images/semantic/semantic_series_17/semantic_series_17_d.jpg"" style=""width: 300px; height: 300px;"" />
              </div>","null",""
"","","","","","html-keyboard-response","10","44325","0.0-10.0","03A735991860471385278713ADB0DAEB","826d5357-3c7a-4f09-8e38-fc00a2b14d6d","58046770-4c03-4bc2-b4bc-e7359011db5d","","null","<div style=""display: flex; justify-content: center; align-items: center;"">
                <img src=""images/other/blank.jpg"" style=""width: 300px; height: 300px;"" />
              </div>","null",""
"","","","","","html-keyboard-response","11","47327","0.0-11.0","03A735991860471385278713ADB0DAEB","826d5357-3c7a-4f09-8e38-fc00a2b14d6d","58046770-4c03-4bc2-b4bc-e7359011db5d","","null","<div style=""display: flex; justify-content: center; align-items: center;"">
                <img src=""images/causal/causal_series_12/causal_series_12_a.jpg"" style=""width: 300px; height: 300px;"" />
              </div>","null",""
"","","","","","html-keyboard-response","12","50329","0.0-12.0","03A735991860471385278713ADB0DAEB","826d5357-3c7a-4f09-8e38-fc00a2b14d6d","58046770-4c03-4bc2-b4bc-e7359011db5d","","null","<div style=""display: flex; justify-content: center; align-items: center;"">
                <img src=""images/causal/causal_series_12/causal_series_12_b.jpg"" style=""width: 300px; height: 300px;"" />
              </div>","null",""
"","","","","","html-keyboard-response","13","53332","0.0-13.0","03A735991860471385278713ADB0DAEB","826d5357-3c7a-4f09-8e38-fc00a2b14d6d","58046770-4c03-4bc2-b4bc-e7359011db5d","","null","<div style=""display: flex; justify-content: center; align-items: center;"">
                <img src=""images/causal/causal_series_12/causal_series_12_c.jpg"" style=""width: 300px; height: 300px;"" />
              </div>","null",""
"","","","","","html-button-response","14","54350","0.0-14.0","03A735991860471385278713ADB0DAEB","826d5357-3c7a-4f09-8e38-fc00a2b14d6d","58046770-4c03-4bc2-b4bc-e7359011db5d","","1018","
    <div style=""display: flex; justify-content: center; align-items: center;"">
      <img src=""images/red_deck_2.png"" style=""width: 300px; height: 300px; margin-right: 10px;"" />
      <img src=""images/blue_deck_1.png"" style=""width: 300px; height: 300px;"" />
    </div>","0","0"
"","","","","","html-keyboard-response","15","57355","0.0-15.0-0.0-0.0","03A735991860471385278713ADB0DAEB","826d5357-3c7a-4f09-8e38-fc00a2b14d6d","58046770-4c03-4bc2-b4bc-e7359011db5d","","null","<div style=""display: flex; justify-content: center; align-items: center;"">
                <img src=""images/causal/causal_series_12/causal_series_12_d.jpg"" style=""width: 300px; height: 300px;"" />
              </div>","null",""
"","","","","","html-keyboard-response","16","60359","0.0-16.0","03A735991860471385278713ADB0DAEB","826d5357-3c7a-4f09-8e38-fc00a2b14d6d","58046770-4c03-4bc2-b4bc-e7359011db5d","","null","<div style=""display: flex; justify-content: center; align-items: center;"">
                <img src=""images/other/blank.jpg"" style=""width: 300px; height: 300px;"" />
              </div>","null",""
"","","","","","html-keyboard-response","17","63366","0.0-17.0","03A735991860471385278713ADB0DAEB","826d5357-3c7a-4f09-8e38-fc00a2b14d6d","58046770-4c03-4bc2-b4bc-e7359011db5d","","null","<div style=""display: flex; justify-content: center; align-items: center;"">
                <img src=""images/causal/causal_series_15/causal_series_15_a.jpg"" style=""width: 300px; height: 300px;"" />
              </div>","null",""
"","","","","","html-keyboard-response","18","66374","0.0-18.0","03A735991860471385278713ADB0DAEB","826d5357-3c7a-4f09-8e38-fc00a2b14d6d","58046770-4c03-4bc2-b4bc-e7359011db5d","","null","<div style=""display: flex; justify-content: center; align-items: center;"">
                <img src=""images/causal/causal_series_15/causal_series_15_b.jpg"" style=""width: 300px; height: 300px;"" />
              </div>","null",""
"","","","","","html-keyboard-response","19","69376","0.0-19.0","03A735991860471385278713ADB0DAEB","826d5357-3c7a-4f09-8e38-fc00a2b14d6d","58046770-4c03-4bc2-b4bc-e7359011db5d","","null","<div style=""display: flex; justify-content: center; align-items: center;"">
                <img src=""images/causal/causal_series_15/causal_series_15_c.jpg"" style=""width: 300px; height: 300px;"" />
              </div>","null",""
"","","","","","html-button-response","20","70022","0.0-20.0","03A735991860471385278713ADB0DAEB","826d5357-3c7a-4f09-8e38-fc00a2b14d6d","58046770-4c03-4bc2-b4bc-e7359011db5d","","645","
    <div style=""display: flex; justify-content: center; align-items: center;"">
      <img src=""images/red_deck_2.png"" style=""width: 300px; height: 300px; margin-right: 10px;"" />
      <img src=""images/blue_deck_1.png"" style=""width: 300px; height: 300px;"" />
    </div>","1","1"
"","","","","","html-keyboard-response","21","73032","0.0-21.0-1.0-0.0","03A735991860471385278713ADB0DAEB","826d5357-3c7a-4f09-8e38-fc00a2b14d6d","58046770-4c03-4bc2-b4bc-e7359011db5d","","null","<div style=""display: flex; justify-content: center; align-items: center;"">
                <img src=""images/semantic/semantic_series_14/semantic_series_14_d.jpg"" style=""width: 300px; height: 300px;"" />
              </div>","null",""
"","","","","","html-keyboard-response","22","76034","0.0-22.0","03A735991860471385278713ADB0DAEB","826d5357-3c7a-4f09-8e38-fc00a2b14d6d","58046770-4c03-4bc2-b4bc-e7359011db5d","","null","<div style=""display: flex; justify-content: center; align-items: center;"">
                <img src=""images/other/blank.jpg"" style=""width: 300px; height: 300px;"" />
              </div>","null",""
"","","","","","html-keyboard-response","23","79036","0.0-23.0","03A735991860471385278713ADB0DAEB","826d5357-3c7a-4f09-8e38-fc00a2b14d6d","58046770-4c03-4bc2-b4bc-e7359011db5d","","null","<div style=""display: flex; justify-content: center; align-items: center;"">
                <img src=""images/causal/causal_series_4/causal_series_4_a.jpg"" style=""width: 300px; height: 300px;"" />
              </div>","null",""
"","","","","","html-keyboard-response","24","82041","0.0-24.0","03A735991860471385278713ADB0DAEB","826d5357-3c7a-4f09-8e38-fc00a2b14d6d","58046770-4c03-4bc2-b4bc-e7359011db5d","","null","<div style=""display: flex; justify-content: center; align-items: center;"">
                <img src=""images/causal/causal_series_4/causal_series_4_b.jpg"" style=""width: 300px; height: 300px;"" />
              </div>","null",""
"","","","","","html-keyboard-response","25","85047","0.0-25.0","03A735991860471385278713ADB0DAEB","826d5357-3c7a-4f09-8e38-fc00a2b14d6d","58046770-4c03-4bc2-b4bc-e7359011db5d","","null","<div style=""display: flex; justify-content: center; align-items: center;"">
                <img src=""images/causal/causal_series_4/causal_series_4_c.jpg"" style=""width: 300px; height: 300px;"" />
              </div>","null",""
"","","","","","html-button-response","26","85722","0.0-26.0","03A735991860471385278713ADB0DAEB","826d5357-3c7a-4f09-8e38-fc00a2b14d6d","58046770-4c03-4bc2-b4bc-e7359011db5d","","675","
    <div style=""display: flex; justify-content: center; align-items: center;"">
      <img src=""images/red_deck_2.png"" style=""width: 300px; height: 300px; margin-right: 10px;"" />
      <img src=""images/blue_deck_1.png"" style=""width: 300px; height: 300px;"" />
    </div>","1","1"
"","","","","","html-keyboard-response","27","88731","0.0-27.0-1.0-0.0","03A735991860471385278713ADB0DAEB","826d5357-3c7a-4f09-8e38-fc00a2b14d6d","58046770-4c03-4bc2-b4bc-e7359011db5d","","null","<div style=""display: flex; justify-content: center; align-items: center;"">
                <img src=""images/semantic/semantic_series_3/semantic_series_3_d.jpg"" style=""width: 300px; height: 300px;"" />
              </div>","null",""
"","","","","","html-keyboard-response","28","91737","0.0-28.0","03A735991860471385278713ADB0DAEB","826d5357-3c7a-4f09-8e38-fc00a2b14d6d","58046770-4c03-4bc2-b4bc-e7359011db5d","","null","<div style=""display: flex; justify-content: center; align-items: center;"">
                <img src=""images/other/blank.jpg"" style=""width: 300px; height: 300px;"" />
              </div>","null",""
"","","","","","html-keyboard-response","29","94738","0.0-29.0","03A735991860471385278713ADB0DAEB","826d5357-3c7a-4f09-8e38-fc00a2b14d6d","58046770-4c03-4bc2-b4bc-e7359011db5d","","null","<div style=""display: flex; justify-content: center; align-items: center;"">
                <img src=""images/causal/causal_series_17/causal_series_17_a.jpg"" style=""width: 300px; height: 300px;"" />
              </div>","null",""
"","","","","","html-keyboard-response","30","97739","0.0-30.0","03A735991860471385278713ADB0DAEB","826d5357-3c7a-4f09-8e38-fc00a2b14d6d","58046770-4c03-4bc2-b4bc-e7359011db5d","","null","<div style=""display: flex; justify-content: center; align-items: center;"">
                <img src=""images/causal/causal_series_17/causal_series_17_b.jpg"" style=""width: 300px; height: 300px;"" />
              </div>","null",""
"","","","","","html-keyboard-response","31","100740","0.0-31.0","03A735991860471385278713ADB0DAEB","826d5357-3c7a-4f09-8e38-fc00a2b14d6d","58046770-4c03-4bc2-b4bc-e7359011db5d","","null","<div style=""display: flex; justify-content: center; align-items: center;"">
                <img src=""images/causal/causal_series_17/causal_series_17_c.jpg"" style=""width: 300px; height: 300px;"" />
              </div>","null",""
"","","","","","html-button-response","32","101495","0.0-32.0","03A735991860471385278713ADB0DAEB","826d5357-3c7a-4f09-8e38-fc00a2b14d6d","58046770-4c03-4bc2-b4bc-e7359011db5d","","754","
    <div style=""display: flex; justify-content: center; align-items: center;"">
      <img src=""images/red_deck_2.png"" style=""width: 300px; height: 300px; margin-right: 10px;"" />
      <img src=""images/blue_deck_1.png"" style=""width: 300px; height: 300px;"" />
    </div>","1","1"
"","","","","","html-keyboard-response","33","104504","0.0-33.0-1.0-0.0","03A735991860471385278713ADB0DAEB","826d5357-3c7a-4f09-8e38-fc00a2b14d6d","58046770-4c03-4bc2-b4bc-e7359011db5d","","null","<div style=""display: flex; justify-content: center; align-items: center;"">
                <img src=""images/semantic/semantic_series_16/semantic_series_16_d.jpg"" style=""width: 300px; height: 300px;"" />
              </div>","null",""
"","","","","","html-keyboard-response","34","107520","0.0-34.0","03A735991860471385278713ADB0DAEB","826d5357-3c7a-4f09-8e38-fc00a2b14d6d","58046770-4c03-4bc2-b4bc-e7359011db5d","","null","<div style=""display: flex; justify-content: center; align-items: center;"">
                <img src=""images/other/blank.jpg"" style=""width: 300px; height: 300px;"" />
              </div>","null",""
"","","","","","html-keyboard-response","35","110523","0.0-35.0","03A735991860471385278713ADB0DAEB","826d5357-3c7a-4f09-8e38-fc00a2b14d6d","58046770-4c03-4bc2-b4bc-e7359011db5d","","null","<div style=""display: flex; justify-content: center; align-items: center;"">
                <img src=""images/causal/causal_series_3/causal_series_3_a.jpg"" style=""width: 300px; height: 300px;"" />
              </div>","null",""
"","","","","","html-keyboard-response","36","113528","0.0-36.0","03A735991860471385278713ADB0DAEB","826d5357-3c7a-4f09-8e38-fc00a2b14d6d","58046770-4c03-4bc2-b4bc-e7359011db5d","","null","<div style=""display: flex; justify-content: center; align-items: center;"">
                <img src=""images/causal/causal_series_3/causal_series_3_b.jpg"" style=""width: 300px; height: 300px;"" />
              </div>","null",""
"","","","","","html-keyboard-response","37","116542","0.0-37.0","03A735991860471385278713ADB0DAEB","826d5357-3c7a-4f09-8e38-fc00a2b14d6d","58046770-4c03-4bc2-b4bc-e7359011db5d","","null","<div style=""display: flex; justify-content: center; align-items: center;"">
                <img src=""images/causal/causal_series_3/causal_series_3_c.jpg"" style=""width: 300px; height: 300px;"" />
              </div>","null",""
"","","","","","html-button-response","38","118940","0.0-38.0","03A735991860471385278713ADB0DAEB","826d5357-3c7a-4f09-8e38-fc00a2b14d6d","58046770-4c03-4bc2-b4bc-e7359011db5d","","2397","
    <div style=""display: flex; justify-content: center; align-items: center;"">
      <img src=""images/red_deck_2.png"" style=""width: 300px; height: 300px; margin-right: 10px;"" />
      <img src=""images/blue_deck_1.png"" style=""width: 300px; height: 300px;"" />
    </div>","0","0"
"","","","","","html-keyboard-response","39","121945","0.0-39.0-0.0-0.0","03A735991860471385278713ADB0DAEB","826d5357-3c7a-4f09-8e38-fc00a2b14d6d","58046770-4c03-4bc2-b4bc-e7359011db5d","","null","<div style=""display: flex; justify-content: center; align-items: center;"">
                <img src=""images/causal/causal_series_3/causal_series_3_d.jpg"" style=""width: 300px; height: 300px;"" />
              </div>","null",""
"","","","","","html-keyboard-response","40","124958","0.0-40.0","03A735991860471385278713ADB0DAEB","826d5357-3c7a-4f09-8e38-fc00a2b14d6d","58046770-4c03-4bc2-b4bc-e7359011db5d","","null","<div style=""display: flex; justify-content: center; align-items: center;"">
                <img src=""images/other/blank.jpg"" style=""width: 300px; height: 300px;"" />
              </div>","null",""
"","","","","","html-keyboard-response","41","127960","0.0-41.0","03A735991860471385278713ADB0DAEB","826d5357-3c7a-4f09-8e38-fc00a2b14d6d","58046770-4c03-4bc2-b4bc-e7359011db5d","","null","<div style=""display: flex; justify-content: center; align-items: center;"">
                <img src=""images/causal/causal_series_5/causal_series_5_a.jpg"" style=""width: 300px; height: 300px;"" />
              </div>","null",""
"","","","","","html-keyboard-response","42","130964","0.0-42.0","03A735991860471385278713ADB0DAEB","826d5357-3c7a-4f09-8e38-fc00a2b14d6d","58046770-4c03-4bc2-b4bc-e7359011db5d","","null","<div style=""display: flex; justify-content: center; align-items: center;"">
                <img src=""images/causal/causal_series_5/causal_series_5_b.jpg"" style=""width: 300px; height: 300px;"" />
              </div>","null",""
"","","","","","html-keyboard-response","43","133965","0.0-43.0","03A735991860471385278713ADB0DAEB","826d5357-3c7a-4f09-8e38-fc00a2b14d6d","58046770-4c03-4bc2-b4bc-e7359011db5d","","null","<div style=""display: flex; justify-content: center; align-items: center;"">
                <img src=""images/causal/causal_series_5/causal_series_5_c.jpg"" style=""width: 300px; height: 300px;"" />
              </div>","null",""
"","","","","","html-button-response","44","134546","0.0-44.0","03A735991860471385278713ADB0DAEB","826d5357-3c7a-4f09-8e38-fc00a2b14d6d","58046770-4c03-4bc2-b4bc-e7359011db5d","","580","
    <div style=""display: flex; justify-content: center; align-items: center;"">
      <img src=""images/red_deck_2.png"" style=""width: 300px; height: 300px; margin-right: 10px;"" />
      <img src=""images/blue_deck_1.png"" style=""width: 300px; height: 300px;"" />
    </div>","0","0"
"","","","","","html-keyboard-response","45","137554","0.0-45.0-0.0-0.0","03A735991860471385278713ADB0DAEB","826d5357-3c7a-4f09-8e38-fc00a2b14d6d","58046770-4c03-4bc2-b4bc-e7359011db5d","","null","<div style=""display: flex; justify-content: center; align-items: center;"">
                <img src=""images/causal/causal_series_5/causal_series_5_d.jpg"" style=""width: 300px; height: 300px;"" />
              </div>","null",""
"","","","","","html-keyboard-response","46","140568","0.0-46.0","03A735991860471385278713ADB0DAEB","826d5357-3c7a-4f09-8e38-fc00a2b14d6d","58046770-4c03-4bc2-b4bc-e7359011db5d","","null","<div style=""display: flex; justify-content: center; align-items: center;"">
                <img src=""images/other/blank.jpg"" style=""width: 300px; height: 300px;"" />
              </div>","null",""
"","","","","","html-keyboard-response","47","143571","0.0-47.0","03A735991860471385278713ADB0DAEB","826d5357-3c7a-4f09-8e38-fc00a2b14d6d","58046770-4c03-4bc2-b4bc-e7359011db5d","","null","<div style=""display: flex; justify-content: center; align-items: center;"">
                <img src=""images/causal/causal_series_6/causal_series_6_a.jpg"" style=""width: 300px; height: 300px;"" />
              </div>","null",""
"","","","","","html-keyboard-response","48","146588","0.0-48.0","03A735991860471385278713ADB0DAEB","826d5357-3c7a-4f09-8e38-fc00a2b14d6d","58046770-4c03-4bc2-b4bc-e7359011db5d","","null","<div style=""display: flex; justify-content: center; align-items: center;"">
                <img src=""images/causal/causal_series_6/causal_series_6_b.jpg"" style=""width: 300px; height: 300px;"" />
              </div>","null",""
"","","","","","html-keyboard-response","49","149590","0.0-49.0","03A735991860471385278713ADB0DAEB","826d5357-3c7a-4f09-8e38-fc00a2b14d6d","58046770-4c03-4bc2-b4bc-e7359011db5d","","null","<div style=""display: flex; justify-content: center; align-items: center;"">
                <img src=""images/causal/causal_series_6/causal_series_6_c.jpg"" style=""width: 300px; height: 300px;"" />
              </div>","null",""
"","","","","","html-button-response","50","150746","0.0-50.0","03A735991860471385278713ADB0DAEB","826d5357-3c7a-4f09-8e38-fc00a2b14d6d","58046770-4c03-4bc2-b4bc-e7359011db5d","","1155","
    <div style=""display: flex; justify-content: center; align-items: center;"">
      <img src=""images/red_deck_2.png"" style=""width: 300px; height: 300px; margin-right: 10px;"" />
      <img src=""images/blue_deck_1.png"" style=""width: 300px; height: 300px;"" />
    </div>","0","0"
"","","","","","html-keyboard-response","51","153753","0.0-51.0-0.0-0.0","03A735991860471385278713ADB0DAEB","826d5357-3c7a-4f09-8e38-fc00a2b14d6d","58046770-4c03-4bc2-b4bc-e7359011db5d","","null","<div style=""display: flex; justify-content: center; align-items: center;"">
                <img src=""images/causal/causal_series_6/causal_series_6_d.jpg"" style=""width: 300px; height: 300px;"" />
              </div>","null",""
"","","","","","html-keyboard-response","52","156757","0.0-52.0","03A735991860471385278713ADB0DAEB","826d5357-3c7a-4f09-8e38-fc00a2b14d6d","58046770-4c03-4bc2-b4bc-e7359011db5d","","null","<div style=""display: flex; justify-content: center; align-items: center;"">
                <img src=""images/other/blank.jpg"" style=""width: 300px; height: 300px;"" />
              </div>","null",""
"","","","","","html-keyboard-response","53","159765","0.0-53.0","03A735991860471385278713ADB0DAEB","826d5357-3c7a-4f09-8e38-fc00a2b14d6d","58046770-4c03-4bc2-b4bc-e7359011db5d","","null","<div style=""display: flex; justify-content: center; align-items: center;"">
                <img src=""images/causal/causal_series_10/causal_series_10_a.jpg"" style=""width: 300px; height: 300px;"" />
              </div>","null",""
"","","","","","html-keyboard-response","54","162766","0.0-54.0","03A735991860471385278713ADB0DAEB","826d5357-3c7a-4f09-8e38-fc00a2b14d6d","58046770-4c03-4bc2-b4bc-e7359011db5d","","null","<div style=""display: flex; justify-content: center; align-items: center;"">
                <img src=""images/causal/causal_series_10/causal_series_10_b.jpg"" style=""width: 300px; height: 300px;"" />
              </div>","null",""
"","","","","","html-keyboard-response","55","165781","0.0-55.0","03A735991860471385278713ADB0DAEB","826d5357-3c7a-4f09-8e38-fc00a2b14d6d","58046770-4c03-4bc2-b4bc-e7359011db5d","","null","<div style=""display: flex; justify-content: center; align-items: center;"">
                <img src=""images/causal/causal_series_10/causal_series_10_c.jpg"" style=""width: 300px; height: 300px;"" />
              </div>","null",""
"","","","","","html-button-response","56","167250","0.0-56.0","03A735991860471385278713ADB0DAEB","826d5357-3c7a-4f09-8e38-fc00a2b14d6d","58046770-4c03-4bc2-b4bc-e7359011db5d","","1468","
    <div style=""display: flex; justify-content: center; align-items: center;"">
      <img src=""images/red_deck_2.png"" style=""width: 300px; height: 300px; margin-right: 10px;"" />
      <img src=""images/blue_deck_1.png"" style=""width: 300px; height: 300px;"" />
    </div>","1","1"
"","","","","","html-keyboard-response","57","170255","0.0-57.0-1.0-0.0","03A735991860471385278713ADB0DAEB","826d5357-3c7a-4f09-8e38-fc00a2b14d6d","58046770-4c03-4bc2-b4bc-e7359011db5d","","null","<div style=""display: flex; justify-content: center; align-items: center;"">
                <img src=""images/semantic/semantic_series_9/semantic_series_9_d.jpg"" style=""width: 300px; height: 300px;"" />
              </div>","null",""
"","","","","","html-keyboard-response","58","173257","0.0-58.0","03A735991860471385278713ADB0DAEB","826d5357-3c7a-4f09-8e38-fc00a2b14d6d","58046770-4c03-4bc2-b4bc-e7359011db5d","","null","<div style=""display: flex; justify-content: center; align-items: center;"">
                <img src=""images/other/blank.jpg"" style=""width: 300px; height: 300px;"" />
              </div>","null",""
"","","","","","html-keyboard-response","59","176274","0.0-59.0","03A735991860471385278713ADB0DAEB","826d5357-3c7a-4f09-8e38-fc00a2b14d6d","58046770-4c03-4bc2-b4bc-e7359011db5d","","null","<div style=""display: flex; justify-content: center; align-items: center;"">
                <img src=""images/causal/causal_series_1/causal_series_1_a.jpg"" style=""width: 300px; height: 300px;"" />
              </div>","null",""
"","","","","","html-keyboard-response","60","179278","0.0-60.0","03A735991860471385278713ADB0DAEB","826d5357-3c7a-4f09-8e38-fc00a2b14d6d","58046770-4c03-4bc2-b4bc-e7359011db5d","","null","<div style=""display: flex; justify-content: center; align-items: center;"">
                <img src=""images/causal/causal_series_1/causal_series_1_b.jpg"" style=""width: 300px; height: 300px;"" />
              </div>","null",""
"","","","","","html-keyboard-response","61","182279","0.0-61.0","03A735991860471385278713ADB0DAEB","826d5357-3c7a-4f09-8e38-fc00a2b14d6d","58046770-4c03-4bc2-b4bc-e7359011db5d","","null","<div style=""display: flex; justify-content: center; align-items: center;"">
                <img src=""images/causal/causal_series_1/causal_series_1_c.jpg"" style=""width: 300px; height: 300px;"" />
              </div>","null",""
"","","","","","html-button-response","62","182887","0.0-62.0","03A735991860471385278713ADB0DAEB","826d5357-3c7a-4f09-8e38-fc00a2b14d6d","58046770-4c03-4bc2-b4bc-e7359011db5d","","607","
    <div style=""display: flex; justify-content: center; align-items: center;"">
      <img src=""images/red_deck_2.png"" style=""width: 300px; height: 300px; margin-right: 10px;"" />
      <img src=""images/blue_deck_1.png"" style=""width: 300px; height: 300px;"" />
    </div>","1","1"
"","","","","","html-keyboard-response","63","185901","0.0-63.0-1.0-0.0","03A735991860471385278713ADB0DAEB","826d5357-3c7a-4f09-8e38-fc00a2b14d6d","58046770-4c03-4bc2-b4bc-e7359011db5d","","null","<div style=""display: flex; justify-content: center; align-items: center;"">
                <img src=""images/semantic/semantic_series_18/semantic_series_18_d.jpg"" style=""width: 300px; height: 300px;"" />
              </div>","null",""
"","","","","","html-keyboard-response","64","188902","0.0-64.0","03A735991860471385278713ADB0DAEB","826d5357-3c7a-4f09-8e38-fc00a2b14d6d","58046770-4c03-4bc2-b4bc-e7359011db5d","","null","<div style=""display: flex; justify-content: center; align-items: center;"">
                <img src=""images/other/blank.jpg"" style=""width: 300px; height: 300px;"" />
              </div>","null",""
"","","","","","html-keyboard-response","65","191906","0.0-65.0","03A735991860471385278713ADB0DAEB","826d5357-3c7a-4f09-8e38-fc00a2b14d6d","58046770-4c03-4bc2-b4bc-e7359011db5d","","null","<div style=""display: flex; justify-content: center; align-items: center;"">
                <img src=""images/causal/causal_series_13/causal_series_13_a.jpg"" style=""width: 300px; height: 300px;"" />
              </div>","null",""
"","","","","","html-keyboard-response","66","194908","0.0-66.0","03A735991860471385278713ADB0DAEB","826d5357-3c7a-4f09-8e38-fc00a2b14d6d","58046770-4c03-4bc2-b4bc-e7359011db5d","","null","<div style=""display: flex; justify-content: center; align-items: center;"">
                <img src=""images/causal/causal_series_13/causal_series_13_b.jpg"" style=""width: 300px; height: 300px;"" />
              </div>","null",""
"","","","","","html-keyboard-response","67","197924","0.0-67.0","03A735991860471385278713ADB0DAEB","826d5357-3c7a-4f09-8e38-fc00a2b14d6d","58046770-4c03-4bc2-b4bc-e7359011db5d","","null","<div style=""display: flex; justify-content: center; align-items: center;"">
                <img src=""images/causal/causal_series_13/causal_series_13_c.jpg"" style=""width: 300px; height: 300px;"" />
              </div>","null",""
"","","","","","html-button-response","68","198578","0.0-68.0","03A735991860471385278713ADB0DAEB","826d5357-3c7a-4f09-8e38-fc00a2b14d6d","58046770-4c03-4bc2-b4bc-e7359011db5d","","654","
    <div style=""display: flex; justify-content: center; align-items: center;"">
      <img src=""images/red_deck_2.png"" style=""width: 300px; height: 300px; margin-right: 10px;"" />
      <img src=""images/blue_deck_1.png"" style=""width: 300px; height: 300px;"" />
    </div>","1","1"
"","","","","","html-keyboard-response","69","201590","0.0-69.0-1.0-0.0","03A735991860471385278713ADB0DAEB","826d5357-3c7a-4f09-8e38-fc00a2b14d6d","58046770-4c03-4bc2-b4bc-e7359011db5d","","null","<div style=""display: flex; justify-content: center; align-items: center;"">
                <img src=""images/semantic/semantic_series_12/semantic_series_12_d.jpg"" style=""width: 300px; height: 300px;"" />
              </div>","null",""
"","","","","","html-keyboard-response","70","204605","0.0-70.0","03A735991860471385278713ADB0DAEB","826d5357-3c7a-4f09-8e38-fc00a2b14d6d","58046770-4c03-4bc2-b4bc-e7359011db5d","","null","<div style=""display: flex; justify-content: center; align-items: center;"">
                <img src=""images/other/blank.jpg"" style=""width: 300px; height: 300px;"" />
              </div>","null",""
"","","","","","html-keyboard-response","71","207608","0.0-71.0","03A735991860471385278713ADB0DAEB","826d5357-3c7a-4f09-8e38-fc00a2b14d6d","58046770-4c03-4bc2-b4bc-e7359011db5d","","null","<div style=""display: flex; justify-content: center; align-items: center;"">
                <img src=""images/causal/causal_series_11/causal_series_11_a.jpg"" style=""width: 300px; height: 300px;"" />
              </div>","null",""
"","","","","","html-keyboard-response","72","210610","0.0-72.0","03A735991860471385278713ADB0DAEB","826d5357-3c7a-4f09-8e38-fc00a2b14d6d","58046770-4c03-4bc2-b4bc-e7359011db5d","","null","<div style=""display: flex; justify-content: center; align-items: center;"">
                <img src=""images/causal/causal_series_11/causal_series_11_b.jpg"" style=""width: 300px; height: 300px;"" />
              </div>","null",""
"","","","","","html-keyboard-response","73","213613","0.0-73.0","03A735991860471385278713ADB0DAEB","826d5357-3c7a-4f09-8e38-fc00a2b14d6d","58046770-4c03-4bc2-b4bc-e7359011db5d","","null","<div style=""display: flex; justify-content: center; align-items: center;"">
                <img src=""images/causal/causal_series_11/causal_series_11_c.jpg"" style=""width: 300px; height: 300px;"" />
              </div>","null",""
"","","","","","html-button-response","74","214454","0.0-74.0","03A735991860471385278713ADB0DAEB","826d5357-3c7a-4f09-8e38-fc00a2b14d6d","58046770-4c03-4bc2-b4bc-e7359011db5d","","841","
    <div style=""display: flex; justify-content: center; align-items: center;"">
      <img src=""images/red_deck_2.png"" style=""width: 300px; height: 300px; margin-right: 10px;"" />
      <img src=""images/blue_deck_1.png"" style=""width: 300px; height: 300px;"" />
    </div>","0","0"
"","","","","","html-keyboard-response","75","217466","0.0-75.0-0.0-0.0","03A735991860471385278713ADB0DAEB","826d5357-3c7a-4f09-8e38-fc00a2b14d6d","58046770-4c03-4bc2-b4bc-e7359011db5d","","null","<div style=""display: flex; justify-content: center; align-items: center;"">
                <img src=""images/causal/causal_series_11/causal_series_11_d.jpg"" style=""width: 300px; height: 300px;"" />
              </div>","null",""
"","","","","","html-keyboard-response","76","220478","0.0-76.0","03A735991860471385278713ADB0DAEB","826d5357-3c7a-4f09-8e38-fc00a2b14d6d","58046770-4c03-4bc2-b4bc-e7359011db5d","","null","<div style=""display: flex; justify-content: center; align-items: center;"">
                <img src=""images/other/blank.jpg"" style=""width: 300px; height: 300px;"" />
              </div>","null",""
"","","","","","html-keyboard-response","77","223482","0.0-77.0","03A735991860471385278713ADB0DAEB","826d5357-3c7a-4f09-8e38-fc00a2b14d6d","58046770-4c03-4bc2-b4bc-e7359011db5d","","null","<div style=""display: flex; justify-content: center; align-items: center;"">
                <img src=""images/causal/causal_series_2/causal_series_2_a.jpg"" style=""width: 300px; height: 300px;"" />
              </div>","null",""
"","","","","","html-keyboard-response","78","226486","0.0-78.0","03A735991860471385278713ADB0DAEB","826d5357-3c7a-4f09-8e38-fc00a2b14d6d","58046770-4c03-4bc2-b4bc-e7359011db5d","","null","<div style=""display: flex; justify-content: center; align-items: center;"">
                <img src=""images/causal/causal_series_2/causal_series_2_b.jpg"" style=""width: 300px; height: 300px;"" />
              </div>","null",""
"","","","","","html-keyboard-response","79","229490","0.0-79.0","03A735991860471385278713ADB0DAEB","826d5357-3c7a-4f09-8e38-fc00a2b14d6d","58046770-4c03-4bc2-b4bc-e7359011db5d","","null","<div style=""display: flex; justify-content: center; align-items: center;"">
                <img src=""images/causal/causal_series_2/causal_series_2_c.jpg"" style=""width: 300px; height: 300px;"" />
              </div>","null",""
"","","","","","html-button-response","80","230130","0.0-80.0","03A735991860471385278713ADB0DAEB","826d5357-3c7a-4f09-8e38-fc00a2b14d6d","58046770-4c03-4bc2-b4bc-e7359011db5d","","639","
    <div style=""display: flex; justify-content: center; align-items: center;"">
      <img src=""images/red_deck_2.png"" style=""width: 300px; height: 300px; margin-right: 10px;"" />
      <img src=""images/blue_deck_1.png"" style=""width: 300px; height: 300px;"" />
    </div>","0","0"
"","","","","","html-keyboard-response","81","233144","0.0-81.0-0.0-0.0","03A735991860471385278713ADB0DAEB","826d5357-3c7a-4f09-8e38-fc00a2b14d6d","58046770-4c03-4bc2-b4bc-e7359011db5d","","null","<div style=""display: flex; justify-content: center; align-items: center;"">
                <img src=""images/causal/causal_series_2/causal_series_2_d.jpg"" style=""width: 300px; height: 300px;"" />
              </div>","null",""
"","","","","","html-keyboard-response","82","236146","0.0-82.0","03A735991860471385278713ADB0DAEB","826d5357-3c7a-4f09-8e38-fc00a2b14d6d","58046770-4c03-4bc2-b4bc-e7359011db5d","","null","<div style=""display: flex; justify-content: center; align-items: center;"">
                <img src=""images/other/blank.jpg"" style=""width: 300px; height: 300px;"" />
              </div>","null",""
"","","","","","html-keyboard-response","83","239150","0.0-83.0","03A735991860471385278713ADB0DAEB","826d5357-3c7a-4f09-8e38-fc00a2b14d6d","58046770-4c03-4bc2-b4bc-e7359011db5d","","null","<div style=""display: flex; justify-content: center; align-items: center;"">
                <img src=""images/causal/causal_series_14/causal_series_14_a.jpg"" style=""width: 300px; height: 300px;"" />
              </div>","null",""
"","","","","","html-keyboard-response","84","242153","0.0-84.0","03A735991860471385278713ADB0DAEB","826d5357-3c7a-4f09-8e38-fc00a2b14d6d","58046770-4c03-4bc2-b4bc-e7359011db5d","","null","<div style=""display: flex; justify-content: center; align-items: center;"">
                <img src=""images/causal/causal_series_14/causal_series_14_b.jpg"" style=""width: 300px; height: 300px;"" />
              </div>","null",""
"","","","","","html-keyboard-response","85","245154","0.0-85.0","03A735991860471385278713ADB0DAEB","826d5357-3c7a-4f09-8e38-fc00a2b14d6d","58046770-4c03-4bc2-b4bc-e7359011db5d","","null","<div style=""display: flex; justify-content: center; align-items: center;"">
                <img src=""images/causal/causal_series_14/causal_series_14_c.jpg"" style=""width: 300px; height: 300px;"" />
              </div>","null",""
"","","","","","html-button-response","86","245699","0.0-86.0","03A735991860471385278713ADB0DAEB","826d5357-3c7a-4f09-8e38-fc00a2b14d6d","58046770-4c03-4bc2-b4bc-e7359011db5d","","545","
    <div style=""display: flex; justify-content: center; align-items: center;"">
      <img src=""images/red_deck_2.png"" style=""width: 300px; height: 300px; margin-right: 10px;"" />
      <img src=""images/blue_deck_1.png"" style=""width: 300px; height: 300px;"" />
    </div>","0","0"
"","","","","","html-keyboard-response","87","248711","0.0-87.0-0.0-0.0","03A735991860471385278713ADB0DAEB","826d5357-3c7a-4f09-8e38-fc00a2b14d6d","58046770-4c03-4bc2-b4bc-e7359011db5d","","null","<div style=""display: flex; justify-content: center; align-items: center;"">
                <img src=""images/causal/causal_series_14/causal_series_14_d.jpg"" style=""width: 300px; height: 300px;"" />
              </div>","null",""
"","","","","","html-keyboard-response","88","251717","0.0-88.0","03A735991860471385278713ADB0DAEB","826d5357-3c7a-4f09-8e38-fc00a2b14d6d","58046770-4c03-4bc2-b4bc-e7359011db5d","","null","<div style=""display: flex; justify-content: center; align-items: center;"">
                <img src=""images/other/blank.jpg"" style=""width: 300px; height: 300px;"" />
              </div>","null",""
"","","","","","html-keyboard-response","89","254718","0.0-89.0","03A735991860471385278713ADB0DAEB","826d5357-3c7a-4f09-8e38-fc00a2b14d6d","58046770-4c03-4bc2-b4bc-e7359011db5d","","null","<div style=""display: flex; justify-content: center; align-items: center;"">
                <img src=""images/causal/causal_series_7/causal_series_7_a.jpg"" style=""width: 300px; height: 300px;"" />
              </div>","null",""
"","","","","","html-keyboard-response","90","257721","0.0-90.0","03A735991860471385278713ADB0DAEB","826d5357-3c7a-4f09-8e38-fc00a2b14d6d","58046770-4c03-4bc2-b4bc-e7359011db5d","","null","<div style=""display: flex; justify-content: center; align-items: center;"">
                <img src=""images/causal/causal_series_7/causal_series_7_b.jpg"" style=""width: 300px; height: 300px;"" />
              </div>","null",""
"","","","","","html-keyboard-response","91","260724","0.0-91.0","03A735991860471385278713ADB0DAEB","826d5357-3c7a-4f09-8e38-fc00a2b14d6d","58046770-4c03-4bc2-b4bc-e7359011db5d","","null","<div style=""display: flex; justify-content: center; align-items: center;"">
                <img src=""images/causal/causal_series_7/causal_series_7_c.jpg"" style=""width: 300px; height: 300px;"" />
              </div>","null",""
"","","","","","html-button-response","92","263188","0.0-92.0","03A735991860471385278713ADB0DAEB","826d5357-3c7a-4f09-8e38-fc00a2b14d6d","58046770-4c03-4bc2-b4bc-e7359011db5d","","2464","
    <div style=""display: flex; justify-content: center; align-items: center;"">
      <img src=""images/red_deck_2.png"" style=""width: 300px; height: 300px; margin-right: 10px;"" />
      <img src=""images/blue_deck_1.png"" style=""width: 300px; height: 300px;"" />
    </div>","0","0"
"","","","","","html-keyboard-response","93","266196","0.0-93.0-0.0-0.0","03A735991860471385278713ADB0DAEB","826d5357-3c7a-4f09-8e38-fc00a2b14d6d","58046770-4c03-4bc2-b4bc-e7359011db5d","","null","<div style=""display: flex; justify-content: center; align-items: center;"">
                <img src=""images/causal/causal_series_7/causal_series_7_d.jpg"" style=""width: 300px; height: 300px;"" />
              </div>","null",""
"","","","","","html-keyboard-response","94","269202","0.0-94.0","03A735991860471385278713ADB0DAEB","826d5357-3c7a-4f09-8e38-fc00a2b14d6d","58046770-4c03-4bc2-b4bc-e7359011db5d","","null","<div style=""display: flex; justify-content: center; align-items: center;"">
                <img src=""images/other/blank.jpg"" style=""width: 300px; height: 300px;"" />
              </div>","null",""
"","","","","","html-keyboard-response","95","272205","0.0-95.0","03A735991860471385278713ADB0DAEB","826d5357-3c7a-4f09-8e38-fc00a2b14d6d","58046770-4c03-4bc2-b4bc-e7359011db5d","","null","<div style=""display: flex; justify-content: center; align-items: center;"">
                <img src=""images/causal/causal_series_8/causal_series_8_a.jpg"" style=""width: 300px; height: 300px;"" />
              </div>","null",""
"","","","","","html-keyboard-response","96","275211","0.0-96.0","03A735991860471385278713ADB0DAEB","826d5357-3c7a-4f09-8e38-fc00a2b14d6d","58046770-4c03-4bc2-b4bc-e7359011db5d","","null","<div style=""display: flex; justify-content: center; align-items: center;"">
                <img src=""images/causal/causal_series_8/causal_series_8_b.jpg"" style=""width: 300px; height: 300px;"" />
              </div>","null",""
"","","","","","html-keyboard-response","97","278216","0.0-97.0","03A735991860471385278713ADB0DAEB","826d5357-3c7a-4f09-8e38-fc00a2b14d6d","58046770-4c03-4bc2-b4bc-e7359011db5d","","null","<div style=""display: flex; justify-content: center; align-items: center;"">
                <img src=""images/causal/causal_series_8/causal_series_8_c.jpg"" style=""width: 300px; height: 300px;"" />
              </div>","null",""
"","","","","","html-button-response","98","280771","0.0-98.0","03A735991860471385278713ADB0DAEB","826d5357-3c7a-4f09-8e38-fc00a2b14d6d","58046770-4c03-4bc2-b4bc-e7359011db5d","","2555","
    <div style=""display: flex; justify-content: center; align-items: center;"">
      <img src=""images/red_deck_2.png"" style=""width: 300px; height: 300px; margin-right: 10px;"" />
      <img src=""images/blue_deck_1.png"" style=""width: 300px; height: 300px;"" />
    </div>","0","0"
"","","","","","html-keyboard-response","99","283787","0.0-99.0-0.0-0.0","03A735991860471385278713ADB0DAEB","826d5357-3c7a-4f09-8e38-fc00a2b14d6d","58046770-4c03-4bc2-b4bc-e7359011db5d","","null","<div style=""display: flex; justify-content: center; align-items: center;"">
                <img src=""images/causal/causal_series_8/causal_series_8_d.jpg"" style=""width: 300px; height: 300px;"" />
              </div>","null",""
"","","","","","html-keyboard-response","100","286791","0.0-100.0","03A735991860471385278713ADB0DAEB","826d5357-3c7a-4f09-8e38-fc00a2b14d6d","58046770-4c03-4bc2-b4bc-e7359011db5d","","null","<div style=""display: flex; justify-content: center; align-items: center;"">
                <img src=""images/other/blank.jpg"" style=""width: 300px; height: 300px;"" />
              </div>","null",""
"","","","","","html-keyboard-response","101","289796","0.0-101.0","03A735991860471385278713ADB0DAEB","826d5357-3c7a-4f09-8e38-fc00a2b14d6d","58046770-4c03-4bc2-b4bc-e7359011db5d","","null","<div style=""display: flex; justify-content: center; align-items: center;"">
                <img src=""images/causal/causal_series_16/causal_series_16_a.jpg"" style=""width: 300px; height: 300px;"" />
              </div>","null",""
"","","","","","html-keyboard-response","102","292797","0.0-102.0","03A735991860471385278713ADB0DAEB","826d5357-3c7a-4f09-8e38-fc00a2b14d6d","58046770-4c03-4bc2-b4bc-e7359011db5d","","null","<div style=""display: flex; justify-content: center; align-items: center;"">
                <img src=""images/causal/causal_series_16/causal_series_16_b.jpg"" style=""width: 300px; height: 300px;"" />
              </div>","null",""
"","","","","","html-keyboard-response","103","295805","0.0-103.0","03A735991860471385278713ADB0DAEB","826d5357-3c7a-4f09-8e38-fc00a2b14d6d","58046770-4c03-4bc2-b4bc-e7359011db5d","","null","<div style=""display: flex; justify-content: center; align-items: center;"">
                <img src=""images/causal/causal_series_16/causal_series_16_c.jpg"" style=""width: 300px; height: 300px;"" />
              </div>","null",""
"","","","","","html-button-response","104","296546","0.0-104.0","03A735991860471385278713ADB0DAEB","826d5357-3c7a-4f09-8e38-fc00a2b14d6d","58046770-4c03-4bc2-b4bc-e7359011db5d","","741","
    <div style=""display: flex; justify-content: center; align-items: center;"">
      <img src=""images/red_deck_2.png"" style=""width: 300px; height: 300px; margin-right: 10px;"" />
      <img src=""images/blue_deck_1.png"" style=""width: 300px; height: 300px;"" />
    </div>","0","0"
"","","","","","html-keyboard-response","105","299550","0.0-105.0-0.0-0.0","03A735991860471385278713ADB0DAEB","826d5357-3c7a-4f09-8e38-fc00a2b14d6d","58046770-4c03-4bc2-b4bc-e7359011db5d","","null","<div style=""display: flex; justify-content: center; align-items: center;"">
                <img src=""images/causal/causal_series_16/causal_series_16_d.jpg"" style=""width: 300px; height: 300px;"" />
              </div>","null",""
"","","","","","html-keyboard-response","106","302555","0.0-106.0","03A735991860471385278713ADB0DAEB","826d5357-3c7a-4f09-8e38-fc00a2b14d6d","58046770-4c03-4bc2-b4bc-e7359011db5d","","null","<div style=""display: flex; justify-content: center; align-items: center;"">
                <img src=""images/other/blank.jpg"" style=""width: 300px; height: 300px;"" />
              </div>","null",""
"","","","","","html-keyboard-response","107","305560","0.0-107.0","03A735991860471385278713ADB0DAEB","826d5357-3c7a-4f09-8e38-fc00a2b14d6d","58046770-4c03-4bc2-b4bc-e7359011db5d","","null","<div style=""display: flex; justify-content: center; align-items: center;"">
                <img src=""images/causal/causal_series_9/causal_series_9_a.jpg"" style=""width: 300px; height: 300px;"" />
              </div>","null",""
"","","","","","html-keyboard-response","108","308562","0.0-108.0","03A735991860471385278713ADB0DAEB","826d5357-3c7a-4f09-8e38-fc00a2b14d6d","58046770-4c03-4bc2-b4bc-e7359011db5d","","null","<div style=""display: flex; justify-content: center; align-items: center;"">
                <img src=""images/causal/causal_series_9/causal_series_9_b.jpg"" style=""width: 300px; height: 300px;"" />
              </div>","null",""
"","","","","","html-keyboard-response","109","311566","0.0-109.0","03A735991860471385278713ADB0DAEB","826d5357-3c7a-4f09-8e38-fc00a2b14d6d","58046770-4c03-4bc2-b4bc-e7359011db5d","","null","<div style=""display: flex; justify-content: center; align-items: center;"">
                <img src=""images/causal/causal_series_9/causal_series_9_c.jpg"" style=""width: 300px; height: 300px;"" />
              </div>","null",""
"","","","","","html-button-response","110","312505","0.0-110.0","03A735991860471385278713ADB0DAEB","826d5357-3c7a-4f09-8e38-fc00a2b14d6d","58046770-4c03-4bc2-b4bc-e7359011db5d","","939","
    <div style=""display: flex; justify-content: center; align-items: center;"">
      <img src=""images/red_deck_2.png"" style=""width: 300px; height: 300px; margin-right: 10px;"" />
      <img src=""images/blue_deck_1.png"" style=""width: 300px; height: 300px;"" />
    </div>","1","1"
"","","","","","html-keyboard-response","111","315516","0.0-111.0-1.0-0.0","03A735991860471385278713ADB0DAEB","826d5357-3c7a-4f09-8e38-fc00a2b14d6d","58046770-4c03-4bc2-b4bc-e7359011db5d","","null","<div style=""display: flex; justify-content: center; align-items: center;"">
                <img src=""images/semantic/semantic_series_8/semantic_series_8_d.jpg"" style=""width: 300px; height: 300px;"" />
              </div>","null",""
"","","","","","html-keyboard-response","112","318520","0.0-112.0","03A735991860471385278713ADB0DAEB","826d5357-3c7a-4f09-8e38-fc00a2b14d6d","58046770-4c03-4bc2-b4bc-e7359011db5d","","null","<div style=""display: flex; justify-content: center; align-items: center;"">
                <img src=""images/other/blank.jpg"" style=""width: 300px; height: 300px;"" />
              </div>","null",""
"","","","","","survey-text","113","337343","0.0-113.0","03A735991860471385278713ADB0DAEB","826d5357-3c7a-4f09-8e38-fc00a2b14d6d","58046770-4c03-4bc2-b4bc-e7359011db5d","","18821","","{""Q0"":""one was red the other was blue""}",""
"","","","","","survey-text","114","360539","0.0-114.0","03A735991860471385278713ADB0DAEB","826d5357-3c7a-4f09-8e38-fc00a2b14d6d","58046770-4c03-4bc2-b4bc-e7359011db5d","","23195","","{""Q0"":""felt about the same so kinda neither""}",""
"","","","","","html-button-response","115","400059","0.0-115.0","03A735991860471385278713ADB0DAEB","826d5357-3c7a-4f09-8e38-fc00a2b14d6d","58046770-4c03-4bc2-b4bc-e7359011db5d","","39519","Which color deck does the fourth image continue the story from the series?","0",""
"","","","","","html-button-response","116","404170","0.0-116.0","03A735991860471385278713ADB0DAEB","826d5357-3c7a-4f09-8e38-fc00a2b14d6d","58046770-4c03-4bc2-b4bc-e7359011db5d","","4110","Which color deck does the fourth image not follow the story from the series?","1",""
"","","","","","survey-text","117","407668","0.0-117.0","03A735991860471385278713ADB0DAEB","826d5357-3c7a-4f09-8e38-fc00a2b14d6d","58046770-4c03-4bc2-b4bc-e7359011db5d","","3497","","{""Q0"":""male"",""Q1"":""32""}",""
"","","","","","instructions","118","411038","0.0-118.0","03A735991860471385278713ADB0DAEB","826d5357-3c7a-4f09-8e38-fc00a2b14d6d","58046770-4c03-4bc2-b4bc-e7359011db5d","[{""page_index"":0,""viewing_time"":3369}]","3369","","",""
