"success","timeout","failed_images","failed_audio","failed_video","trial_type","trial_index","time_elapsed","internal_node_id","subject_id","study_id","session_id","view_history","rt","stimulus","response","choice"
"true","false","[]","[]","[]","preload","0","7527","0.0-0.0","0019BDE11AD5410FA0001536A1D24D77","09e234d7-3f93-4a19-82f7-2196f846095e","5479079d-2186-49b2-89e2-e3afab6abcc2","","","","",""
"","","","","","instructions","1","50826","0.0-1.0","0019BDE11AD5410FA0001536A1D24D77","09e234d7-3f93-4a19-82f7-2196f846095e","5479079d-2186-49b2-89e2-e3afab6abcc2","[{""page_index"":0,""viewing_time"":43299}]","43299","","",""
"","","","","","instructions","2","59848","0.0-2.0","0019BDE11AD5410FA0001536A1D24D77","09e234d7-3f93-4a19-82f7-2196f846095e","5479079d-2186-49b2-89e2-e3afab6abcc2","[{""page_index"":0,""viewing_time"":9022}]","9022","","",""
"true","","","","","fullscreen","3","61982","0.0-3.0","0019BDE11AD5410FA0001536A1D24D77","09e234d7-3f93-4a19-82f7-2196f846095e","5479079d-2186-49b2-89e2-e3afab6abcc2","","1132","","",""
"","","","","","instructions","4","72689","0.0-4.0","0019BDE11AD5410FA0001536A1D24D77","09e234d7-3f93-4a19-82f7-2196f846095e","5479079d-2186-49b2-89e2-e3afab6abcc2","[{""page_index"":0,""viewing_time"":10706}]","10706","","",""
"","","","","","html-keyboard-response","5","75692","0.0-5.0","0019BDE11AD5410FA0001536A1D24D77","09e234d7-3f93-4a19-82f7-2196f846095e","5479079d-2186-49b2-89e2-e3afab6abcc2","","null","<div style=""display: flex; justify-content: center; align-items: center;"">
                <img src=""images/causal/causal_series_12/causal_series_12_a.jpg"" style=""width: 300px; height: 300px;"" />
              </div>","null",""
"","","","","","html-keyboard-response","6","78708","0.0-6.0","0019BDE11AD5410FA0001536A1D24D77","09e234d7-3f93-4a19-82f7-2196f846095e","5479079d-2186-49b2-89e2-e3afab6abcc2","","null","<div style=""display: flex; justify-content: center; align-items: center;"">
                <img src=""images/causal/causal_series_12/causal_series_12_b.jpg"" style=""width: 300px; height: 300px;"" />
              </div>","null",""
"","","","","","html-keyboard-response","7","81710","0.0-7.0","0019BDE11AD5410FA0001536A1D24D77","09e234d7-3f93-4a19-82f7-2196f846095e","5479079d-2186-49b2-89e2-e3afab6abcc2","","null","<div style=""display: flex; justify-content: center; align-items: center;"">
                <img src=""images/causal/causal_series_12/causal_series_12_c.jpg"" style=""width: 300px; height: 300px;"" />
              </div>","null",""
"","","","","","html-button-response","8","84629","0.0-8.0","0019BDE11AD5410FA0001536A1D24D77","09e234d7-3f93-4a19-82f7-2196f846095e","5479079d-2186-49b2-89e2-e3afab6abcc2","","2918","
    <div style=""display: flex; justify-content: center; align-items: center;"">
      <img src=""images/blue_deck_1.png"" style=""width: 300px; height: 300px; margin-right: 10px;"" />
      <img src=""images/red_deck_2.png"" style=""width: 300px; height: 300px;"" />
    </div>","0","0"
"","","","","","html-keyboard-response","9","87632","0.0-9.0-0.0-0.0","0019BDE11AD5410FA0001536A1D24D77","09e234d7-3f93-4a19-82f7-2196f846095e","5479079d-2186-49b2-89e2-e3afab6abcc2","","null","<div style=""display: flex; justify-content: center; align-items: center;"">
                <img src=""images/causal/causal_series_12/causal_series_12_d.jpg"" style=""width: 300px; height: 300px;"" />
              </div>","null",""
"","","","","","html-keyboard-response","10","90642","0.0-10.0","0019BDE11AD5410FA0001536A1D24D77","09e234d7-3f93-4a19-82f7-2196f846095e","5479079d-2186-49b2-89e2-e3afab6abcc2","","null","<div style=""display: flex; justify-content: center; align-items: center;"">
                <img src=""images/other/blank.jpg"" style=""width: 300px; height: 300px;"" />
              </div>","null",""
"","","","","","html-keyboard-response","11","93643","0.0-11.0","0019BDE11AD5410FA0001536A1D24D77","09e234d7-3f93-4a19-82f7-2196f846095e","5479079d-2186-49b2-89e2-e3afab6abcc2","","null","<div style=""display: flex; justify-content: center; align-items: center;"">
                <img src=""images/causal/causal_series_6/causal_series_6_a.jpg"" style=""width: 300px; height: 300px;"" />
              </div>","null",""
"","","","","","html-keyboard-response","12","96646","0.0-12.0","0019BDE11AD5410FA0001536A1D24D77","09e234d7-3f93-4a19-82f7-2196f846095e","5479079d-2186-49b2-89e2-e3afab6abcc2","","null","<div style=""display: flex; justify-content: center; align-items: center;"">
                <img src=""images/causal/causal_series_6/causal_series_6_b.jpg"" style=""width: 300px; height: 300px;"" />
              </div>","null",""
"","","","","","html-keyboard-response","13","99650","0.0-13.0","0019BDE11AD5410FA0001536A1D24D77","09e234d7-3f93-4a19-82f7-2196f846095e","5479079d-2186-49b2-89e2-e3afab6abcc2","","null","<div style=""display: flex; justify-content: center; align-items: center;"">
                <img src=""images/causal/causal_series_6/causal_series_6_c.jpg"" style=""width: 300px; height: 300px;"" />
              </div>","null",""
"","","","","","html-button-response","14","100619","0.0-14.0","0019BDE11AD5410FA0001536A1D24D77","09e234d7-3f93-4a19-82f7-2196f846095e","5479079d-2186-49b2-89e2-e3afab6abcc2","","968","
    <div style=""display: flex; justify-content: center; align-items: center;"">
      <img src=""images/blue_deck_1.png"" style=""width: 300px; height: 300px; margin-right: 10px;"" />
      <img src=""images/red_deck_2.png"" style=""width: 300px; height: 300px;"" />
    </div>","0","0"
"","","","","","html-keyboard-response","15","103630","0.0-15.0-0.0-0.0","0019BDE11AD5410FA0001536A1D24D77","09e234d7-3f93-4a19-82f7-2196f846095e","5479079d-2186-49b2-89e2-e3afab6abcc2","","null","<div style=""display: flex; justify-content: center; align-items: center;"">
                <img src=""images/causal/causal_series_6/causal_series_6_d.jpg"" style=""width: 300px; height: 300px;"" />
              </div>","null",""
"","","","","","html-keyboard-response","16","106642","0.0-16.0","0019BDE11AD5410FA0001536A1D24D77","09e234d7-3f93-4a19-82f7-2196f846095e","5479079d-2186-49b2-89e2-e3afab6abcc2","","null","<div style=""display: flex; justify-content: center; align-items: center;"">
                <img src=""images/other/blank.jpg"" style=""width: 300px; height: 300px;"" />
              </div>","null",""
"","","","","","html-keyboard-response","17","109657","0.0-17.0","0019BDE11AD5410FA0001536A1D24D77","09e234d7-3f93-4a19-82f7-2196f846095e","5479079d-2186-49b2-89e2-e3afab6abcc2","","null","<div style=""display: flex; justify-content: center; align-items: center;"">
                <img src=""images/causal/causal_series_14/causal_series_14_a.jpg"" style=""width: 300px; height: 300px;"" />
              </div>","null",""
"","","","","","html-keyboard-response","18","112672","0.0-18.0","0019BDE11AD5410FA0001536A1D24D77","09e234d7-3f93-4a19-82f7-2196f846095e","5479079d-2186-49b2-89e2-e3afab6abcc2","","null","<div style=""display: flex; justify-content: center; align-items: center;"">
                <img src=""images/causal/causal_series_14/causal_series_14_b.jpg"" style=""width: 300px; height: 300px;"" />
              </div>","null",""
"","","","","","html-keyboard-response","19","115680","0.0-19.0","0019BDE11AD5410FA0001536A1D24D77","09e234d7-3f93-4a19-82f7-2196f846095e","5479079d-2186-49b2-89e2-e3afab6abcc2","","null","<div style=""display: flex; justify-content: center; align-items: center;"">
                <img src=""images/causal/causal_series_14/causal_series_14_c.jpg"" style=""width: 300px; height: 300px;"" />
              </div>","null",""
"","","","","","html-button-response","20","117126","0.0-20.0","0019BDE11AD5410FA0001536A1D24D77","09e234d7-3f93-4a19-82f7-2196f846095e","5479079d-2186-49b2-89e2-e3afab6abcc2","","1446","
    <div style=""display: flex; justify-content: center; align-items: center;"">
      <img src=""images/blue_deck_1.png"" style=""width: 300px; height: 300px; margin-right: 10px;"" />
      <img src=""images/red_deck_2.png"" style=""width: 300px; height: 300px;"" />
    </div>","0","0"
"","","","","","html-keyboard-response","21","120140","0.0-21.0-0.0-0.0","0019BDE11AD5410FA0001536A1D24D77","09e234d7-3f93-4a19-82f7-2196f846095e","5479079d-2186-49b2-89e2-e3afab6abcc2","","null","<div style=""display: flex; justify-content: center; align-items: center;"">
                <img src=""images/causal/causal_series_14/causal_series_14_d.jpg"" style=""width: 300px; height: 300px;"" />
              </div>","null",""
"","","","","","html-keyboard-response","22","123145","0.0-22.0","0019BDE11AD5410FA0001536A1D24D77","09e234d7-3f93-4a19-82f7-2196f846095e","5479079d-2186-49b2-89e2-e3afab6abcc2","","null","<div style=""display: flex; justify-content: center; align-items: center;"">
                <img src=""images/other/blank.jpg"" style=""width: 300px; height: 300px;"" />
              </div>","null",""
"","","","","","html-keyboard-response","23","126157","0.0-23.0","0019BDE11AD5410FA0001536A1D24D77","09e234d7-3f93-4a19-82f7-2196f846095e","5479079d-2186-49b2-89e2-e3afab6abcc2","","null","<div style=""display: flex; justify-content: center; align-items: center;"">
                <img src=""images/causal/causal_series_8/causal_series_8_a.jpg"" style=""width: 300px; height: 300px;"" />
              </div>","null",""
"","","","","","html-keyboard-response","24","129173","0.0-24.0","0019BDE11AD5410FA0001536A1D24D77","09e234d7-3f93-4a19-82f7-2196f846095e","5479079d-2186-49b2-89e2-e3afab6abcc2","","null","<div style=""display: flex; justify-content: center; align-items: center;"">
                <img src=""images/causal/causal_series_8/causal_series_8_b.jpg"" style=""width: 300px; height: 300px;"" />
              </div>","null",""
"","","","","","html-keyboard-response","25","132187","0.0-25.0","0019BDE11AD5410FA0001536A1D24D77","09e234d7-3f93-4a19-82f7-2196f846095e","5479079d-2186-49b2-89e2-e3afab6abcc2","","null","<div style=""display: flex; justify-content: center; align-items: center;"">
                <img src=""images/causal/causal_series_8/causal_series_8_c.jpg"" style=""width: 300px; height: 300px;"" />
              </div>","null",""
"","","","","","html-button-response","26","133650","0.0-26.0","0019BDE11AD5410FA0001536A1D24D77","09e234d7-3f93-4a19-82f7-2196f846095e","5479079d-2186-49b2-89e2-e3afab6abcc2","","1462","
    <div style=""display: flex; justify-content: center; align-items: center;"">
      <img src=""images/blue_deck_1.png"" style=""width: 300px; height: 300px; margin-right: 10px;"" />
      <img src=""images/red_deck_2.png"" style=""width: 300px; height: 300px;"" />
    </div>","0","0"
"","","","","","html-keyboard-response","27","136662","0.0-27.0-0.0-0.0","0019BDE11AD5410FA0001536A1D24D77","09e234d7-3f93-4a19-82f7-2196f846095e","5479079d-2186-49b2-89e2-e3afab6abcc2","","null","<div style=""display: flex; justify-content: center; align-items: center;"">
                <img src=""images/causal/causal_series_8/causal_series_8_d.jpg"" style=""width: 300px; height: 300px;"" />
              </div>","null",""
"","","","","","html-keyboard-response","28","139663","0.0-28.0","0019BDE11AD5410FA0001536A1D24D77","09e234d7-3f93-4a19-82f7-2196f846095e","5479079d-2186-49b2-89e2-e3afab6abcc2","","null","<div style=""display: flex; justify-content: center; align-items: center;"">
                <img src=""images/other/blank.jpg"" style=""width: 300px; height: 300px;"" />
              </div>","null",""
"","","","","","html-keyboard-response","29","142664","0.0-29.0","0019BDE11AD5410FA0001536A1D24D77","09e234d7-3f93-4a19-82f7-2196f846095e","5479079d-2186-49b2-89e2-e3afab6abcc2","","null","<div style=""display: flex; justify-content: center; align-items: center;"">
                <img src=""images/causal/causal_series_18/causal_series_18_a.jpg"" style=""width: 300px; height: 300px;"" />
              </div>","null",""
"","","","","","html-keyboard-response","30","145679","0.0-30.0","0019BDE11AD5410FA0001536A1D24D77","09e234d7-3f93-4a19-82f7-2196f846095e","5479079d-2186-49b2-89e2-e3afab6abcc2","","null","<div style=""display: flex; justify-content: center; align-items: center;"">
                <img src=""images/causal/causal_series_18/causal_series_18_b.jpg"" style=""width: 300px; height: 300px;"" />
              </div>","null",""
"","","","","","html-keyboard-response","31","148680","0.0-31.0","0019BDE11AD5410FA0001536A1D24D77","09e234d7-3f93-4a19-82f7-2196f846095e","5479079d-2186-49b2-89e2-e3afab6abcc2","","null","<div style=""display: flex; justify-content: center; align-items: center;"">
                <img src=""images/causal/causal_series_18/causal_series_18_c.jpg"" style=""width: 300px; height: 300px;"" />
              </div>","null",""
"","","","","","html-button-response","32","150233","0.0-32.0","0019BDE11AD5410FA0001536A1D24D77","09e234d7-3f93-4a19-82f7-2196f846095e","5479079d-2186-49b2-89e2-e3afab6abcc2","","1552","
    <div style=""display: flex; justify-content: center; align-items: center;"">
      <img src=""images/blue_deck_1.png"" style=""width: 300px; height: 300px; margin-right: 10px;"" />
      <img src=""images/red_deck_2.png"" style=""width: 300px; height: 300px;"" />
    </div>","1","1"
"","","","","","html-keyboard-response","33","153242","0.0-33.0-1.0-0.0","0019BDE11AD5410FA0001536A1D24D77","09e234d7-3f93-4a19-82f7-2196f846095e","5479079d-2186-49b2-89e2-e3afab6abcc2","","null","<div style=""display: flex; justify-content: center; align-items: center;"">
                <img src=""images/semantic/semantic_series_18/semantic_series_18_d.jpg"" style=""width: 300px; height: 300px;"" />
              </div>","null",""
"","","","","","html-keyboard-response","34","156248","0.0-34.0","0019BDE11AD5410FA0001536A1D24D77","09e234d7-3f93-4a19-82f7-2196f846095e","5479079d-2186-49b2-89e2-e3afab6abcc2","","null","<div style=""display: flex; justify-content: center; align-items: center;"">
                <img src=""images/other/blank.jpg"" style=""width: 300px; height: 300px;"" />
              </div>","null",""
"","","","","","html-keyboard-response","35","159260","0.0-35.0","0019BDE11AD5410FA0001536A1D24D77","09e234d7-3f93-4a19-82f7-2196f846095e","5479079d-2186-49b2-89e2-e3afab6abcc2","","null","<div style=""display: flex; justify-content: center; align-items: center;"">
                <img src=""images/causal/causal_series_16/causal_series_16_a.jpg"" style=""width: 300px; height: 300px;"" />
              </div>","null",""
"","","","","","html-keyboard-response","36","162268","0.0-36.0","0019BDE11AD5410FA0001536A1D24D77","09e234d7-3f93-4a19-82f7-2196f846095e","5479079d-2186-49b2-89e2-e3afab6abcc2","","null","<div style=""display: flex; justify-content: center; align-items: center;"">
                <img src=""images/causal/causal_series_16/causal_series_16_b.jpg"" style=""width: 300px; height: 300px;"" />
              </div>","null",""
"","","","","","html-keyboard-response","37","165269","0.0-37.0","0019BDE11AD5410FA0001536A1D24D77","09e234d7-3f93-4a19-82f7-2196f846095e","5479079d-2186-49b2-89e2-e3afab6abcc2","","null","<div style=""display: flex; justify-content: center; align-items: center;"">
                <img src=""images/causal/causal_series_16/causal_series_16_c.jpg"" style=""width: 300px; height: 300px;"" />
              </div>","null",""
"","","","","","html-button-response","38","166267","0.0-38.0","0019BDE11AD5410FA0001536A1D24D77","09e234d7-3f93-4a19-82f7-2196f846095e","5479079d-2186-49b2-89e2-e3afab6abcc2","","997","
    <div style=""display: flex; justify-content: center; align-items: center;"">
      <img src=""images/blue_deck_1.png"" style=""width: 300px; height: 300px; margin-right: 10px;"" />
      <img src=""images/red_deck_2.png"" style=""width: 300px; height: 300px;"" />
    </div>","1","1"
"","","","","","html-keyboard-response","39","169279","0.0-39.0-1.0-0.0","0019BDE11AD5410FA0001536A1D24D77","09e234d7-3f93-4a19-82f7-2196f846095e","5479079d-2186-49b2-89e2-e3afab6abcc2","","null","<div style=""display: flex; justify-content: center; align-items: center;"">
                <img src=""images/semantic/semantic_series_16/semantic_series_16_d.jpg"" style=""width: 300px; height: 300px;"" />
              </div>","null",""
"","","","","","html-keyboard-response","40","172288","0.0-40.0","0019BDE11AD5410FA0001536A1D24D77","09e234d7-3f93-4a19-82f7-2196f846095e","5479079d-2186-49b2-89e2-e3afab6abcc2","","null","<div style=""display: flex; justify-content: center; align-items: center;"">
                <img src=""images/other/blank.jpg"" style=""width: 300px; height: 300px;"" />
              </div>","null",""
"","","","","","html-keyboard-response","41","175290","0.0-41.0","0019BDE11AD5410FA0001536A1D24D77","09e234d7-3f93-4a19-82f7-2196f846095e","5479079d-2186-49b2-89e2-e3afab6abcc2","","null","<div style=""display: flex; justify-content: center; align-items: center;"">
                <img src=""images/causal/causal_series_13/causal_series_13_a.jpg"" style=""width: 300px; height: 300px;"" />
              </div>","null",""
"","","","","","html-keyboard-response","42","178305","0.0-42.0","0019BDE11AD5410FA0001536A1D24D77","09e234d7-3f93-4a19-82f7-2196f846095e","5479079d-2186-49b2-89e2-e3afab6abcc2","","null","<div style=""display: flex; justify-content: center; align-items: center;"">
                <img src=""images/causal/causal_series_13/causal_series_13_b.jpg"" style=""width: 300px; height: 300px;"" />
              </div>","null",""
"","","","","","html-keyboard-response","43","181308","0.0-43.0","0019BDE11AD5410FA0001536A1D24D77","09e234d7-3f93-4a19-82f7-2196f846095e","5479079d-2186-49b2-89e2-e3afab6abcc2","","null","<div style=""display: flex; justify-content: center; align-items: center;"">
                <img src=""images/causal/causal_series_13/causal_series_13_c.jpg"" style=""width: 300px; height: 300px;"" />
              </div>","null",""
"","","","","","html-button-response","44","183127","0.0-44.0","0019BDE11AD5410FA0001536A1D24D77","09e234d7-3f93-4a19-82f7-2196f846095e","5479079d-2186-49b2-89e2-e3afab6abcc2","","1818","
    <div style=""display: flex; justify-content: center; align-items: center;"">
      <img src=""images/blue_deck_1.png"" style=""width: 300px; height: 300px; margin-right: 10px;"" />
      <img src=""images/red_deck_2.png"" style=""width: 300px; height: 300px;"" />
    </div>","0","0"
"","","","","","html-keyboard-response","45","186134","0.0-45.0-0.0-0.0","0019BDE11AD5410FA0001536A1D24D77","09e234d7-3f93-4a19-82f7-2196f846095e","5479079d-2186-49b2-89e2-e3afab6abcc2","","null","<div style=""display: flex; justify-content: center; align-items: center;"">
                <img src=""images/causal/causal_series_13/causal_series_13_d.jpg"" style=""width: 300px; height: 300px;"" />
              </div>","null",""
"","","","","","html-keyboard-response","46","189145","0.0-46.0","0019BDE11AD5410FA0001536A1D24D77","09e234d7-3f93-4a19-82f7-2196f846095e","5479079d-2186-49b2-89e2-e3afab6abcc2","","null","<div style=""display: flex; justify-content: center; align-items: center;"">
                <img src=""images/other/blank.jpg"" style=""width: 300px; height: 300px;"" />
              </div>","null",""
"","","","","","html-keyboard-response","47","192150","0.0-47.0","0019BDE11AD5410FA0001536A1D24D77","09e234d7-3f93-4a19-82f7-2196f846095e","5479079d-2186-49b2-89e2-e3afab6abcc2","","null","<div style=""display: flex; justify-content: center; align-items: center;"">
                <img src=""images/causal/causal_series_11/causal_series_11_a.jpg"" style=""width: 300px; height: 300px;"" />
              </div>","null",""
"","","","","","html-keyboard-response","48","195151","0.0-48.0","0019BDE11AD5410FA0001536A1D24D77","09e234d7-3f93-4a19-82f7-2196f846095e","5479079d-2186-49b2-89e2-e3afab6abcc2","","null","<div style=""display: flex; justify-content: center; align-items: center;"">
                <img src=""images/causal/causal_series_11/causal_series_11_b.jpg"" style=""width: 300px; height: 300px;"" />
              </div>","null",""
"","","","","","html-keyboard-response","49","198156","0.0-49.0","0019BDE11AD5410FA0001536A1D24D77","09e234d7-3f93-4a19-82f7-2196f846095e","5479079d-2186-49b2-89e2-e3afab6abcc2","","null","<div style=""display: flex; justify-content: center; align-items: center;"">
                <img src=""images/causal/causal_series_11/causal_series_11_c.jpg"" style=""width: 300px; height: 300px;"" />
              </div>","null",""
"","","","","","html-button-response","50","200663","0.0-50.0","0019BDE11AD5410FA0001536A1D24D77","09e234d7-3f93-4a19-82f7-2196f846095e","5479079d-2186-49b2-89e2-e3afab6abcc2","","2506","
    <div style=""display: flex; justify-content: center; align-items: center;"">
      <img src=""images/blue_deck_1.png"" style=""width: 300px; height: 300px; margin-right: 10px;"" />
      <img src=""images/red_deck_2.png"" style=""width: 300px; height: 300px;"" />
    </div>","0","0"
"","","","","","html-keyboard-response","51","203674","0.0-51.0-0.0-0.0","0019BDE11AD5410FA0001536A1D24D77","09e234d7-3f93-4a19-82f7-2196f846095e","5479079d-2186-49b2-89e2-e3afab6abcc2","","null","<div style=""display: flex; justify-content: center; align-items: center;"">
                <img src=""images/causal/causal_series_11/causal_series_11_d.jpg"" style=""width: 300px; height: 300px;"" />
              </div>","null",""
"","","","","","html-keyboard-response","52","206690","0.0-52.0","0019BDE11AD5410FA0001536A1D24D77","09e234d7-3f93-4a19-82f7-2196f846095e","5479079d-2186-49b2-89e2-e3afab6abcc2","","null","<div style=""display: flex; justify-content: center; align-items: center;"">
                <img src=""images/other/blank.jpg"" style=""width: 300px; height: 300px;"" />
              </div>","null",""
"","","","","","html-keyboard-response","53","209699","0.0-53.0","0019BDE11AD5410FA0001536A1D24D77","09e234d7-3f93-4a19-82f7-2196f846095e","5479079d-2186-49b2-89e2-e3afab6abcc2","","null","<div style=""display: flex; justify-content: center; align-items: center;"">
                <img src=""images/causal/causal_series_2/causal_series_2_a.jpg"" style=""width: 300px; height: 300px;"" />
              </div>","null",""
"","","","","","html-keyboard-response","54","212710","0.0-54.0","0019BDE11AD5410FA0001536A1D24D77","09e234d7-3f93-4a19-82f7-2196f846095e","5479079d-2186-49b2-89e2-e3afab6abcc2","","null","<div style=""display: flex; justify-content: center; align-items: center;"">
                <img src=""images/causal/causal_series_2/causal_series_2_b.jpg"" style=""width: 300px; height: 300px;"" />
              </div>","null",""
"","","","","","html-keyboard-response","55","215715","0.0-55.0","0019BDE11AD5410FA0001536A1D24D77","09e234d7-3f93-4a19-82f7-2196f846095e","5479079d-2186-49b2-89e2-e3afab6abcc2","","null","<div style=""display: flex; justify-content: center; align-items: center;"">
                <img src=""images/causal/causal_series_2/causal_series_2_c.jpg"" style=""width: 300px; height: 300px;"" />
              </div>","null",""
"","","","","","html-button-response","56","216818","0.0-56.0","0019BDE11AD5410FA0001536A1D24D77","09e234d7-3f93-4a19-82f7-2196f846095e","5479079d-2186-49b2-89e2-e3afab6abcc2","","1102","
    <div style=""display: flex; justify-content: center; align-items: center;"">
      <img src=""images/blue_deck_1.png"" style=""width: 300px; height: 300px; margin-right: 10px;"" />
      <img src=""images/red_deck_2.png"" style=""width: 300px; height: 300px;"" />
    </div>","0","0"
"","","","","","html-keyboard-response","57","219821","0.0-57.0-0.0-0.0","0019BDE11AD5410FA0001536A1D24D77","09e234d7-3f93-4a19-82f7-2196f846095e","5479079d-2186-49b2-89e2-e3afab6abcc2","","null","<div style=""display: flex; justify-content: center; align-items: center;"">
                <img src=""images/causal/causal_series_2/causal_series_2_d.jpg"" style=""width: 300px; height: 300px;"" />
              </div>","null",""
"","","","","","html-keyboard-response","58","222826","0.0-58.0","0019BDE11AD5410FA0001536A1D24D77","09e234d7-3f93-4a19-82f7-2196f846095e","5479079d-2186-49b2-89e2-e3afab6abcc2","","null","<div style=""display: flex; justify-content: center; align-items: center;"">
                <img src=""images/other/blank.jpg"" style=""width: 300px; height: 300px;"" />
              </div>","null",""
"","","","","","html-keyboard-response","59","225842","0.0-59.0","0019BDE11AD5410FA0001536A1D24D77","09e234d7-3f93-4a19-82f7-2196f846095e","5479079d-2186-49b2-89e2-e3afab6abcc2","","null","<div style=""display: flex; justify-content: center; align-items: center;"">
                <img src=""images/causal/causal_series_1/causal_series_1_a.jpg"" style=""width: 300px; height: 300px;"" />
              </div>","null",""
"","","","","","html-keyboard-response","60","228855","0.0-60.0","0019BDE11AD5410FA0001536A1D24D77","09e234d7-3f93-4a19-82f7-2196f846095e","5479079d-2186-49b2-89e2-e3afab6abcc2","","null","<div style=""display: flex; justify-content: center; align-items: center;"">
                <img src=""images/causal/causal_series_1/causal_series_1_b.jpg"" style=""width: 300px; height: 300px;"" />
              </div>","null",""
"","","","","","html-keyboard-response","61","231858","0.0-61.0","0019BDE11AD5410FA0001536A1D24D77","09e234d7-3f93-4a19-82f7-2196f846095e","5479079d-2186-49b2-89e2-e3afab6abcc2","","null","<div style=""display: flex; justify-content: center; align-items: center;"">
                <img src=""images/causal/causal_series_1/causal_series_1_c.jpg"" style=""width: 300px; height: 300px;"" />
              </div>","null",""
"","","","","","html-button-response","62","238312","0.0-62.0","0019BDE11AD5410FA0001536A1D24D77","09e234d7-3f93-4a19-82f7-2196f846095e","5479079d-2186-49b2-89e2-e3afab6abcc2","","6454","
    <div style=""display: flex; justify-content: center; align-items: center;"">
      <img src=""images/blue_deck_1.png"" style=""width: 300px; height: 300px; margin-right: 10px;"" />
      <img src=""images/red_deck_2.png"" style=""width: 300px; height: 300px;"" />
    </div>","1","1"
"","","","","","html-keyboard-response","63","241318","0.0-63.0-1.0-0.0","0019BDE11AD5410FA0001536A1D24D77","09e234d7-3f93-4a19-82f7-2196f846095e","5479079d-2186-49b2-89e2-e3afab6abcc2","","null","<div style=""display: flex; justify-content: center; align-items: center;"">
                <img src=""images/semantic/semantic_series_1/semantic_series_1_d.jpg"" style=""width: 300px; height: 300px;"" />
              </div>","null",""
"","","","","","html-keyboard-response","64","244322","0.0-64.0","0019BDE11AD5410FA0001536A1D24D77","09e234d7-3f93-4a19-82f7-2196f846095e","5479079d-2186-49b2-89e2-e3afab6abcc2","","null","<div style=""display: flex; justify-content: center; align-items: center;"">
                <img src=""images/other/blank.jpg"" style=""width: 300px; height: 300px;"" />
              </div>","null",""
"","","","","","html-keyboard-response","65","247328","0.0-65.0","0019BDE11AD5410FA0001536A1D24D77","09e234d7-3f93-4a19-82f7-2196f846095e","5479079d-2186-49b2-89e2-e3afab6abcc2","","null","<div style=""display: flex; justify-content: center; align-items: center;"">
                <img src=""images/causal/causal_series_5/causal_series_5_a.jpg"" style=""width: 300px; height: 300px;"" />
              </div>","null",""
"","","","","","html-keyboard-response","66","250341","0.0-66.0","0019BDE11AD5410FA0001536A1D24D77","09e234d7-3f93-4a19-82f7-2196f846095e","5479079d-2186-49b2-89e2-e3afab6abcc2","","null","<div style=""display: flex; justify-content: center; align-items: center;"">
                <img src=""images/causal/causal_series_5/causal_series_5_b.jpg"" style=""width: 300px; height: 300px;"" />
              </div>","null",""
"","","","","","html-keyboard-response","67","253342","0.0-67.0","0019BDE11AD5410FA0001536A1D24D77","09e234d7-3f93-4a19-82f7-2196f846095e","5479079d-2186-49b2-89e2-e3afab6abcc2","","null","<div style=""display: flex; justify-content: center; align-items: center;"">
                <img src=""images/causal/causal_series_5/causal_series_5_c.jpg"" style=""width: 300px; height: 300px;"" />
              </div>","null",""
"","","","","","html-button-response","68","253996","0.0-68.0","0019BDE11AD5410FA0001536A1D24D77","09e234d7-3f93-4a19-82f7-2196f846095e","5479079d-2186-49b2-89e2-e3afab6abcc2","","654","
    <div style=""display: flex; justify-content: center; align-items: center;"">
      <img src=""images/blue_deck_1.png"" style=""width: 300px; height: 300px; margin-right: 10px;"" />
      <img src=""images/red_deck_2.png"" style=""width: 300px; height: 300px;"" />
    </div>","0","0"
"","","","","","html-keyboard-response","69","257008","0.0-69.0-0.0-0.0","0019BDE11AD5410FA0001536A1D24D77","09e234d7-3f93-4a19-82f7-2196f846095e","5479079d-2186-49b2-89e2-e3afab6abcc2","","null","<div style=""display: flex; justify-content: center; align-items: center;"">
                <img src=""images/causal/causal_series_5/causal_series_5_d.jpg"" style=""width: 300px; height: 300px;"" />
              </div>","null",""
"","","","","","html-keyboard-response","70","260024","0.0-70.0","0019BDE11AD5410FA0001536A1D24D77","09e234d7-3f93-4a19-82f7-2196f846095e","5479079d-2186-49b2-89e2-e3afab6abcc2","","null","<div style=""display: flex; justify-content: center; align-items: center;"">
                <img src=""images/other/blank.jpg"" style=""width: 300px; height: 300px;"" />
              </div>","null",""
"","","","","","html-keyboard-response","71","263029","0.0-71.0","0019BDE11AD5410FA0001536A1D24D77","09e234d7-3f93-4a19-82f7-2196f846095e","5479079d-2186-49b2-89e2-e3afab6abcc2","","null","<div style=""display: flex; justify-content: center; align-items: center;"">
                <img src=""images/causal/causal_series_15/causal_series_15_a.jpg"" style=""width: 300px; height: 300px;"" />
              </div>","null",""
"","","","","","html-keyboard-response","72","266040","0.0-72.0","0019BDE11AD5410FA0001536A1D24D77","09e234d7-3f93-4a19-82f7-2196f846095e","5479079d-2186-49b2-89e2-e3afab6abcc2","","null","<div style=""display: flex; justify-content: center; align-items: center;"">
                <img src=""images/causal/causal_series_15/causal_series_15_b.jpg"" style=""width: 300px; height: 300px;"" />
              </div>","null",""
"","","","","","html-keyboard-response","73","269050","0.0-73.0","0019BDE11AD5410FA0001536A1D24D77","09e234d7-3f93-4a19-82f7-2196f846095e","5479079d-2186-49b2-89e2-e3afab6abcc2","","null","<div style=""display: flex; justify-content: center; align-items: center;"">
                <img src=""images/causal/causal_series_15/causal_series_15_c.jpg"" style=""width: 300px; height: 300px;"" />
              </div>","null",""
"","","","","","html-button-response","74","270369","0.0-74.0","0019BDE11AD5410FA0001536A1D24D77","09e234d7-3f93-4a19-82f7-2196f846095e","5479079d-2186-49b2-89e2-e3afab6abcc2","","1318","
    <div style=""display: flex; justify-content: center; align-items: center;"">
      <img src=""images/blue_deck_1.png"" style=""width: 300px; height: 300px; margin-right: 10px;"" />
      <img src=""images/red_deck_2.png"" style=""width: 300px; height: 300px;"" />
    </div>","0","0"
"","","","","","html-keyboard-response","75","273375","0.0-75.0-0.0-0.0","0019BDE11AD5410FA0001536A1D24D77","09e234d7-3f93-4a19-82f7-2196f846095e","5479079d-2186-49b2-89e2-e3afab6abcc2","","null","<div style=""display: flex; justify-content: center; align-items: center;"">
                <img src=""images/causal/causal_series_15/causal_series_15_d.jpg"" style=""width: 300px; height: 300px;"" />
              </div>","null",""
"","","","","","html-keyboard-response","76","276388","0.0-76.0","0019BDE11AD5410FA0001536A1D24D77","09e234d7-3f93-4a19-82f7-2196f846095e","5479079d-2186-49b2-89e2-e3afab6abcc2","","null","<div style=""display: flex; justify-content: center; align-items: center;"">
                <img src=""images/other/blank.jpg"" style=""width: 300px; height: 300px;"" />
              </div>","null",""
"","","","","","html-keyboard-response","77","279403","0.0-77.0","0019BDE11AD5410FA0001536A1D24D77","09e234d7-3f93-4a19-82f7-2196f846095e","5479079d-2186-49b2-89e2-e3afab6abcc2","","null","<div style=""display: flex; justify-content: center; align-items: center;"">
                <img src=""images/causal/causal_series_9/causal_series_9_a.jpg"" style=""width: 300px; height: 300px;"" />
              </div>","null",""
"","","","","","html-keyboard-response","78","282418","0.0-78.0","0019BDE11AD5410FA0001536A1D24D77","09e234d7-3f93-4a19-82f7-2196f846095e","5479079d-2186-49b2-89e2-e3afab6abcc2","","null","<div style=""display: flex; justify-content: center; align-items: center;"">
                <img src=""images/causal/causal_series_9/causal_series_9_b.jpg"" style=""width: 300px; height: 300px;"" />
              </div>","null",""
"","","","","","html-keyboard-response","79","285422","0.0-79.0","0019BDE11AD5410FA0001536A1D24D77","09e234d7-3f93-4a19-82f7-2196f846095e","5479079d-2186-49b2-89e2-e3afab6abcc2","","null","<div style=""display: flex; justify-content: center; align-items: center;"">
                <img src=""images/causal/causal_series_9/causal_series_9_c.jpg"" style=""width: 300px; height: 300px;"" />
              </div>","null",""
"","","","","","html-button-response","80","285947","0.0-80.0","0019BDE11AD5410FA0001536A1D24D77","09e234d7-3f93-4a19-82f7-2196f846095e","5479079d-2186-49b2-89e2-e3afab6abcc2","","524","
    <div style=""display: flex; justify-content: center; align-items: center;"">
      <img src=""images/blue_deck_1.png"" style=""width: 300px; height: 300px; margin-right: 10px;"" />
      <img src=""images/red_deck_2.png"" style=""width: 300px; height: 300px;"" />
    </div>","0","0"
"","","","","","html-keyboard-response","81","288956","0.0-81.0-0.0-0.0","0019BDE11AD5410FA0001536A1D24D77","09e234d7-3f93-4a19-82f7-2196f846095e","5479079d-2186-49b2-89e2-e3afab6abcc2","","null","<div style=""display: flex; justify-content: center; align-items: center;"">
                <img src=""images/causal/causal_series_9/causal_series_9_d.jpg"" style=""width: 300px; height: 300px;"" />
              </div>","null",""
"","","","","","html-keyboard-response","82","291960","0.0-82.0","0019BDE11AD5410FA0001536A1D24D77","09e234d7-3f93-4a19-82f7-2196f846095e","5479079d-2186-49b2-89e2-e3afab6abcc2","","null","<div style=""display: flex; justify-content: center; align-items: center;"">
                <img src=""images/other/blank.jpg"" style=""width: 300px; height: 300px;"" />
              </div>","null",""
"","","","","","html-keyboard-response","83","294962","0.0-83.0","0019BDE11AD5410FA0001536A1D24D77","09e234d7-3f93-4a19-82f7-2196f846095e","5479079d-2186-49b2-89e2-e3afab6abcc2","","null","<div style=""display: flex; justify-content: center; align-items: center;"">
                <img src=""images/causal/causal_series_7/causal_series_7_a.jpg"" style=""width: 300px; height: 300px;"" />
              </div>","null",""
"","","","","","html-keyboard-response","84","297969","0.0-84.0","0019BDE11AD5410FA0001536A1D24D77","09e234d7-3f93-4a19-82f7-2196f846095e","5479079d-2186-49b2-89e2-e3afab6abcc2","","null","<div style=""display: flex; justify-content: center; align-items: center;"">
                <img src=""images/causal/causal_series_7/causal_series_7_b.jpg"" style=""width: 300px; height: 300px;"" />
              </div>","null",""
"","","","","","html-keyboard-response","85","300982","0.0-85.0","0019BDE11AD5410FA0001536A1D24D77","09e234d7-3f93-4a19-82f7-2196f846095e","5479079d-2186-49b2-89e2-e3afab6abcc2","","null","<div style=""display: flex; justify-content: center; align-items: center;"">
                <img src=""images/causal/causal_series_7/causal_series_7_c.jpg"" style=""width: 300px; height: 300px;"" />
              </div>","null",""
"","","","","","html-button-response","86","301539","0.0-86.0","0019BDE11AD5410FA0001536A1D24D77","09e234d7-3f93-4a19-82f7-2196f846095e","5479079d-2186-49b2-89e2-e3afab6abcc2","","556","
    <div style=""display: flex; justify-content: center; align-items: center;"">
      <img src=""images/blue_deck_1.png"" style=""width: 300px; height: 300px; margin-right: 10px;"" />
      <img src=""images/red_deck_2.png"" style=""width: 300px; height: 300px;"" />
    </div>","0","0"
"","","","","","html-keyboard-response","87","304548","0.0-87.0-0.0-0.0","0019BDE11AD5410FA0001536A1D24D77","09e234d7-3f93-4a19-82f7-2196f846095e","5479079d-2186-49b2-89e2-e3afab6abcc2","","null","<div style=""display: flex; justify-content: center; align-items: center;"">
                <img src=""images/causal/causal_series_7/causal_series_7_d.jpg"" style=""width: 300px; height: 300px;"" />
              </div>","null",""
"","","","","","html-keyboard-response","88","307551","0.0-88.0","0019BDE11AD5410FA0001536A1D24D77","09e234d7-3f93-4a19-82f7-2196f846095e","5479079d-2186-49b2-89e2-e3afab6abcc2","","null","<div style=""display: flex; justify-content: center; align-items: center;"">
                <img src=""images/other/blank.jpg"" style=""width: 300px; height: 300px;"" />
              </div>","null",""
"","","","","","html-keyboard-response","89","310564","0.0-89.0","0019BDE11AD5410FA0001536A1D24D77","09e234d7-3f93-4a19-82f7-2196f846095e","5479079d-2186-49b2-89e2-e3afab6abcc2","","null","<div style=""display: flex; justify-content: center; align-items: center;"">
                <img src=""images/causal/causal_series_10/causal_series_10_a.jpg"" style=""width: 300px; height: 300px;"" />
              </div>","null",""
"","","","","","html-keyboard-response","90","313576","0.0-90.0","0019BDE11AD5410FA0001536A1D24D77","09e234d7-3f93-4a19-82f7-2196f846095e","5479079d-2186-49b2-89e2-e3afab6abcc2","","null","<div style=""display: flex; justify-content: center; align-items: center;"">
                <img src=""images/causal/causal_series_10/causal_series_10_b.jpg"" style=""width: 300px; height: 300px;"" />
              </div>","null",""
"","","","","","html-keyboard-response","91","316577","0.0-91.0","0019BDE11AD5410FA0001536A1D24D77","09e234d7-3f93-4a19-82f7-2196f846095e","5479079d-2186-49b2-89e2-e3afab6abcc2","","null","<div style=""display: flex; justify-content: center; align-items: center;"">
                <img src=""images/causal/causal_series_10/causal_series_10_c.jpg"" style=""width: 300px; height: 300px;"" />
              </div>","null",""
"","","","","","html-button-response","92","317057","0.0-92.0","0019BDE11AD5410FA0001536A1D24D77","09e234d7-3f93-4a19-82f7-2196f846095e","5479079d-2186-49b2-89e2-e3afab6abcc2","","480","
    <div style=""display: flex; justify-content: center; align-items: center;"">
      <img src=""images/blue_deck_1.png"" style=""width: 300px; height: 300px; margin-right: 10px;"" />
      <img src=""images/red_deck_2.png"" style=""width: 300px; height: 300px;"" />
    </div>","0","0"
"","","","","","html-keyboard-response","93","320069","0.0-93.0-0.0-0.0","0019BDE11AD5410FA0001536A1D24D77","09e234d7-3f93-4a19-82f7-2196f846095e","5479079d-2186-49b2-89e2-e3afab6abcc2","","null","<div style=""display: flex; justify-content: center; align-items: center;"">
                <img src=""images/causal/causal_series_10/causal_series_10_d.jpg"" style=""width: 300px; height: 300px;"" />
              </div>","null",""
"","","","","","html-keyboard-response","94","323085","0.0-94.0","0019BDE11AD5410FA0001536A1D24D77","09e234d7-3f93-4a19-82f7-2196f846095e","5479079d-2186-49b2-89e2-e3afab6abcc2","","null","<div style=""display: flex; justify-content: center; align-items: center;"">
                <img src=""images/other/blank.jpg"" style=""width: 300px; height: 300px;"" />
              </div>","null",""
"","","","","","html-keyboard-response","95","326100","0.0-95.0","0019BDE11AD5410FA0001536A1D24D77","09e234d7-3f93-4a19-82f7-2196f846095e","5479079d-2186-49b2-89e2-e3afab6abcc2","","null","<div style=""display: flex; justify-content: center; align-items: center;"">
                <img src=""images/causal/causal_series_3/causal_series_3_a.jpg"" style=""width: 300px; height: 300px;"" />
              </div>","null",""
"","","","","","html-keyboard-response","96","329112","0.0-96.0","0019BDE11AD5410FA0001536A1D24D77","09e234d7-3f93-4a19-82f7-2196f846095e","5479079d-2186-49b2-89e2-e3afab6abcc2","","null","<div style=""display: flex; justify-content: center; align-items: center;"">
                <img src=""images/causal/causal_series_3/causal_series_3_b.jpg"" style=""width: 300px; height: 300px;"" />
              </div>","null",""
"","","","","","html-keyboard-response","97","332124","0.0-97.0","0019BDE11AD5410FA0001536A1D24D77","09e234d7-3f93-4a19-82f7-2196f846095e","5479079d-2186-49b2-89e2-e3afab6abcc2","","null","<div style=""display: flex; justify-content: center; align-items: center;"">
                <img src=""images/causal/causal_series_3/causal_series_3_c.jpg"" style=""width: 300px; height: 300px;"" />
              </div>","null",""
"","","","","","html-button-response","98","332920","0.0-98.0","0019BDE11AD5410FA0001536A1D24D77","09e234d7-3f93-4a19-82f7-2196f846095e","5479079d-2186-49b2-89e2-e3afab6abcc2","","795","
    <div style=""display: flex; justify-content: center; align-items: center;"">
      <img src=""images/blue_deck_1.png"" style=""width: 300px; height: 300px; margin-right: 10px;"" />
      <img src=""images/red_deck_2.png"" style=""width: 300px; height: 300px;"" />
    </div>","0","0"
"","","","","","html-keyboard-response","99","335934","0.0-99.0-0.0-0.0","0019BDE11AD5410FA0001536A1D24D77","09e234d7-3f93-4a19-82f7-2196f846095e","5479079d-2186-49b2-89e2-e3afab6abcc2","","null","<div style=""display: flex; justify-content: center; align-items: center;"">
                <img src=""images/causal/causal_series_3/causal_series_3_d.jpg"" style=""width: 300px; height: 300px;"" />
              </div>","null",""
"","","","","","html-keyboard-response","100","338937","0.0-100.0","0019BDE11AD5410FA0001536A1D24D77","09e234d7-3f93-4a19-82f7-2196f846095e","5479079d-2186-49b2-89e2-e3afab6abcc2","","null","<div style=""display: flex; justify-content: center; align-items: center;"">
                <img src=""images/other/blank.jpg"" style=""width: 300px; height: 300px;"" />
              </div>","null",""
"","","","","","html-keyboard-response","101","341950","0.0-101.0","0019BDE11AD5410FA0001536A1D24D77","09e234d7-3f93-4a19-82f7-2196f846095e","5479079d-2186-49b2-89e2-e3afab6abcc2","","null","<div style=""display: flex; justify-content: center; align-items: center;"">
                <img src=""images/causal/causal_series_17/causal_series_17_a.jpg"" style=""width: 300px; height: 300px;"" />
              </div>","null",""
"","","","","","html-keyboard-response","102","344961","0.0-102.0","0019BDE11AD5410FA0001536A1D24D77","09e234d7-3f93-4a19-82f7-2196f846095e","5479079d-2186-49b2-89e2-e3afab6abcc2","","null","<div style=""display: flex; justify-content: center; align-items: center;"">
                <img src=""images/causal/causal_series_17/causal_series_17_b.jpg"" style=""width: 300px; height: 300px;"" />
              </div>","null",""
"","","","","","html-keyboard-response","103","347969","0.0-103.0","0019BDE11AD5410FA0001536A1D24D77","09e234d7-3f93-4a19-82f7-2196f846095e","5479079d-2186-49b2-89e2-e3afab6abcc2","","null","<div style=""display: flex; justify-content: center; align-items: center;"">
                <img src=""images/causal/causal_series_17/causal_series_17_c.jpg"" style=""width: 300px; height: 300px;"" />
              </div>","null",""
"","","","","","html-button-response","104","349495","0.0-104.0","0019BDE11AD5410FA0001536A1D24D77","09e234d7-3f93-4a19-82f7-2196f846095e","5479079d-2186-49b2-89e2-e3afab6abcc2","","1525","
    <div style=""display: flex; justify-content: center; align-items: center;"">
      <img src=""images/blue_deck_1.png"" style=""width: 300px; height: 300px; margin-right: 10px;"" />
      <img src=""images/red_deck_2.png"" style=""width: 300px; height: 300px;"" />
    </div>","0","0"
"","","","","","html-keyboard-response","105","352508","0.0-105.0-0.0-0.0","0019BDE11AD5410FA0001536A1D24D77","09e234d7-3f93-4a19-82f7-2196f846095e","5479079d-2186-49b2-89e2-e3afab6abcc2","","null","<div style=""display: flex; justify-content: center; align-items: center;"">
                <img src=""images/causal/causal_series_17/causal_series_17_d.jpg"" style=""width: 300px; height: 300px;"" />
              </div>","null",""
"","","","","","html-keyboard-response","106","355522","0.0-106.0","0019BDE11AD5410FA0001536A1D24D77","09e234d7-3f93-4a19-82f7-2196f846095e","5479079d-2186-49b2-89e2-e3afab6abcc2","","null","<div style=""display: flex; justify-content: center; align-items: center;"">
                <img src=""images/other/blank.jpg"" style=""width: 300px; height: 300px;"" />
              </div>","null",""
"","","","","","html-keyboard-response","107","358531","0.0-107.0","0019BDE11AD5410FA0001536A1D24D77","09e234d7-3f93-4a19-82f7-2196f846095e","5479079d-2186-49b2-89e2-e3afab6abcc2","","null","<div style=""display: flex; justify-content: center; align-items: center;"">
                <img src=""images/causal/causal_series_4/causal_series_4_a.jpg"" style=""width: 300px; height: 300px;"" />
              </div>","null",""
"","","","","","html-keyboard-response","108","361543","0.0-108.0","0019BDE11AD5410FA0001536A1D24D77","09e234d7-3f93-4a19-82f7-2196f846095e","5479079d-2186-49b2-89e2-e3afab6abcc2","","null","<div style=""display: flex; justify-content: center; align-items: center;"">
                <img src=""images/causal/causal_series_4/causal_series_4_b.jpg"" style=""width: 300px; height: 300px;"" />
              </div>","null",""
"","","","","","html-keyboard-response","109","364554","0.0-109.0","0019BDE11AD5410FA0001536A1D24D77","09e234d7-3f93-4a19-82f7-2196f846095e","5479079d-2186-49b2-89e2-e3afab6abcc2","","null","<div style=""display: flex; justify-content: center; align-items: center;"">
                <img src=""images/causal/causal_series_4/causal_series_4_c.jpg"" style=""width: 300px; height: 300px;"" />
              </div>","null",""
"","","","","","html-button-response","110","365342","0.0-110.0","0019BDE11AD5410FA0001536A1D24D77","09e234d7-3f93-4a19-82f7-2196f846095e","5479079d-2186-49b2-89e2-e3afab6abcc2","","787","
    <div style=""display: flex; justify-content: center; align-items: center;"">
      <img src=""images/blue_deck_1.png"" style=""width: 300px; height: 300px; margin-right: 10px;"" />
      <img src=""images/red_deck_2.png"" style=""width: 300px; height: 300px;"" />
    </div>","0","0"
"","","","","","html-keyboard-response","111","368354","0.0-111.0-0.0-0.0","0019BDE11AD5410FA0001536A1D24D77","09e234d7-3f93-4a19-82f7-2196f846095e","5479079d-2186-49b2-89e2-e3afab6abcc2","","null","<div style=""display: flex; justify-content: center; align-items: center;"">
                <img src=""images/causal/causal_series_4/causal_series_4_d.jpg"" style=""width: 300px; height: 300px;"" />
              </div>","null",""
"","","","","","html-keyboard-response","112","371358","0.0-112.0","0019BDE11AD5410FA0001536A1D24D77","09e234d7-3f93-4a19-82f7-2196f846095e","5479079d-2186-49b2-89e2-e3afab6abcc2","","null","<div style=""display: flex; justify-content: center; align-items: center;"">
                <img src=""images/other/blank.jpg"" style=""width: 300px; height: 300px;"" />
              </div>","null",""
"","","","","","survey-text","113","388796","0.0-113.0","0019BDE11AD5410FA0001536A1D24D77","09e234d7-3f93-4a19-82f7-2196f846095e","5479079d-2186-49b2-89e2-e3afab6abcc2","","17435","","{""Q0"":""The blue one showed yyou the ending of the story and the red showed a random image""}",""
"","","","","","survey-text","114","396625","0.0-114.0","0019BDE11AD5410FA0001536A1D24D77","09e234d7-3f93-4a19-82f7-2196f846095e","5479079d-2186-49b2-89e2-e3afab6abcc2","","7828","","{""Q0"":""Blue was more interesting""}",""
"","","","","","html-button-response","115","400728","0.0-115.0","0019BDE11AD5410FA0001536A1D24D77","09e234d7-3f93-4a19-82f7-2196f846095e","5479079d-2186-49b2-89e2-e3afab6abcc2","","4103","Which color deck does the fourth image continue the story from the series?","0",""
"","","","","","html-button-response","116","402078","0.0-116.0","0019BDE11AD5410FA0001536A1D24D77","09e234d7-3f93-4a19-82f7-2196f846095e","5479079d-2186-49b2-89e2-e3afab6abcc2","","1349","Which color deck does the fourth image not follow the story from the series?","1",""
"","","","","","survey-text","117","406541","0.0-117.0","0019BDE11AD5410FA0001536A1D24D77","09e234d7-3f93-4a19-82f7-2196f846095e","5479079d-2186-49b2-89e2-e3afab6abcc2","","4461","","{""Q0"":""Female"",""Q1"":""19""}",""
"","","","","","instructions","118","410515","0.0-118.0","0019BDE11AD5410FA0001536A1D24D77","09e234d7-3f93-4a19-82f7-2196f846095e","5479079d-2186-49b2-89e2-e3afab6abcc2","[{""page_index"":0,""viewing_time"":3973}]","3974","","",""
