"success","timeout","failed_images","failed_audio","failed_video","trial_type","trial_index","time_elapsed","internal_node_id","subject","audio_id","rt","device_id","view_history","stimulus","response","estimated_stimulus_onset"
"true","false","[]","[]","[]","preload","0","2722","0.0-0.0","3gwhe5k5v3l91vx","3gwhe5k5v3l91vx-2024-03-20-05-11-14","","","","","",""
"true","","","","","fullscreen","1","4585","0.0-1.0","3gwhe5k5v3l91vx","3gwhe5k5v3l91vx-2024-03-20-05-11-14","841","","","","",""
"","","","","","initialize-microphone","2","6160","0.0-2.0","3gwhe5k5v3l91vx","3gwhe5k5v3l91vx-2024-03-20-05-11-14","","a245aeecc0339b94ca3b74e02bb1150e9e1aee21df4e57afe28caa91d36d71b3","","","",""
"","","","","","instructions","3","7541","0.0-3.0","3gwhe5k5v3l91vx","3gwhe5k5v3l91vx-2024-03-20-05-11-14","1380","","[{""page_index"":0,""viewing_time"":740},{""page_index"":1,""viewing_time"":640}]","","",""
"","","","","","image-button-response","4","12053","0.0-4.0-0.0","3gwhe5k5v3l91vx","3gwhe5k5v3l91vx-2024-03-20-05-11-14","null","","","images/instructions/movie_1.png","null",""
"","","","","","image-button-response","5","12926","0.0-4.0-1.0","3gwhe5k5v3l91vx","3gwhe5k5v3l91vx-2024-03-20-05-11-14","871","","","images/instructions/movie_1.png","1",""
"","","","","","image-button-response","6","14736","0.0-4.0-2.0","3gwhe5k5v3l91vx","3gwhe5k5v3l91vx-2024-03-20-05-11-14","null","","","[]","null",""
"","","","","","image-button-response","7","19258","0.0-4.0-0.1","3gwhe5k5v3l91vx","3gwhe5k5v3l91vx-2024-03-20-05-11-14","null","","","images/instructions/movie_2.png","null",""
"","","","","","image-button-response","8","19757","0.0-4.0-1.1","3gwhe5k5v3l91vx","3gwhe5k5v3l91vx-2024-03-20-05-11-14","498","","","images/instructions/movie_2.png","1",""
"","","","","","image-button-response","9","21569","0.0-4.0-2.1","3gwhe5k5v3l91vx","3gwhe5k5v3l91vx-2024-03-20-05-11-14","null","","","[]","null",""
"","","","","","image-button-response","10","26083","0.0-4.0-0.2","3gwhe5k5v3l91vx","3gwhe5k5v3l91vx-2024-03-20-05-11-14","null","","","images/instructions/movie_3.png","null",""
"","","","","","image-button-response","11","28785","0.0-4.0-1.2","3gwhe5k5v3l91vx","3gwhe5k5v3l91vx-2024-03-20-05-11-14","null","","","images/instructions/movie_3.png","null",""
"","","","","","image-button-response","12","30607","0.0-4.0-2.2","3gwhe5k5v3l91vx","3gwhe5k5v3l91vx-2024-03-20-05-11-14","null","","","[]","null",""
"","","","","","image-button-response","13","35115","0.0-4.0-0.3","3gwhe5k5v3l91vx","3gwhe5k5v3l91vx-2024-03-20-05-11-14","null","","","images/instructions/movie_4.png","null",""
"","","","","","image-button-response","14","37827","0.0-4.0-1.3","3gwhe5k5v3l91vx","3gwhe5k5v3l91vx-2024-03-20-05-11-14","null","","","images/instructions/movie_4.png","null",""
"","","","","","image-button-response","15","39632","0.0-4.0-2.3","3gwhe5k5v3l91vx","3gwhe5k5v3l91vx-2024-03-20-05-11-14","null","","","[]","null",""
"","","","","","instructions","16","93748","0.0-5.0","3gwhe5k5v3l91vx","3gwhe5k5v3l91vx-2024-03-20-05-11-14","54116","","[{""page_index"":0,""viewing_time"":53564},{""page_index"":1,""viewing_time"":551}]","","",""
"","","","","","html-audio-response","17","95293","0.0-6.0","3gwhe5k5v3l91vx","3gwhe5k5v3l91vx-2024-03-20-05-11-14","743","","","<span style=""color: red; font-size: 24px""> NOW RECORDING</span>
        <p>Please say out loud the list of the actions you saw. The actions can be said in any order.</p>","GkXfo59ChoEBQveBAULygQRC84EIQoKEd2VibUKHgQRChYECGFOAZwH/////////FUmpZpkq17GDD0JATYCGQ2hyb21lV0GGQ2hyb21lFlSua7+uvdeBAXPFhx3cc/NfMuCDgQKGhkFfT1BVU2Oik09wdXNIZWFkAQEAAIC7AAAAAADhjbWERzuAAJ+BAWJkgSAfQ7Z1Af/////////ngQCjRBqBAACA+4P/MvwKf+6cJ+NWkDgK179BZkwnTpGY6/MnEJYPccVFNmzcwAXSXJXqP/7ySIOm+TwgPHilPHDanXn8TMFKFZtdRxipcVNfaFuTXNgc5OznGElBP9QR/H9NRnuTkY77S0q5259AO/Z+adpymCxhNSufeYmpBjdDMebWoRGcaOgXiUwzHGtiQkX6O27WjmvkGdBb9NpV60PSFVbE/V9Fu80K25Ww+x5/y+3fC3n/JJaMeoNADcbqzhidU0G24iJYl1gA9Bo131FGRd0e+CNMi2sMIAFf6AAAAAAAAABjOpqbZBuLFdKIf/yIG+S290F6id3uiuSTI24PJOOh+1LEHY+z85T52Qx7S+5G+qIPilWJhJnI7uebzypkFhaHBth/nzbV0eSOtZtEY0UbIn9DqF43XyGCMKYQ1Ho8VPpPx7WN4hUOZVxIapaD8f73FR+FEuS9/CJ29E0vuQOoeQ6yDuiE1DvTUOt8MXW9ggHIBEzfbFuYzyoC+dUUJiFWBB9igK8bBxHVyxkbb117926Y3go13YgiGLd/yVjR8bjaNC85amOuEB+BvZYHAFvylWdUJNgTtgvl7HYtXgsorcIvHN6akSB6SHosPvtR6vNhGp2eMD6f/9559qJNzOpiEhxGAhwa1HS89HEOMPVsOsad+P3Ma/SsHrz0TuBJ199Uk8UHybtl1N5dY0+qaYF2tqP8heOeI0NVB/ttomt5GrYi8wg4Wwav7763ipdVgxBW/5DoMejNVRJo4Q3kdoHy/+PvKAoGBYO/kYm6UlgSmetE47i4f3KP36ci4/ONURfiRiOPnxueI8y+YRaDS/o2JMGAXz0/UnjtJKXojaODFGhFZYpHW2M8DgyHzmTGijTHw82wxympiSTQUwvnNLiWo0wKT2B4Gvk2Z5YoWMAcl834vm1foaKmX07ZpwywZz0vpJJ7YJ7Ecn7bggtc21DZU61xmH8QkMaFL0XzHneauYkUI1/kb1A2ikPIUOnDi+cVvCLkYR8QMd5S9nGqw36zAZuIelFnbgGubkK+iH1EH6diWpm6k/axgR3uS4orn4lofY6QOz3rCVElPiuIQAOlNMjXVZp2I3eFWGoJkDtkOtkwG9krYCRfmDYTb+XIoncHC77nBIE4f5bxU6hANK93leRA62XQUlgLUWrR8pkYLpIWRg4L8LUk8JCysLl3ofyGuIplU4qX+fHPKyJ7Dvs9/beGnGlCeELtCEET1WmL+2yFpKUPVu4HVlVuLtM/vfTes9OuZcLBX31v8CShCNYyp3E7fJp3TyVJ1RNVfFkxJ2CGzFaMs6aw6PDhmNYBllHfT7IrkcBtpO77cle0IlEqxPEVxEvc5TetnndRWBTK0OvUMCYnIOfyQ51jV0b8b6kD1tnfFdN8VUqjQ4CBADyA+4P+Cv8KYRhKgokjK/QiKwoPiETcyI1s/S4Dh6oTFlxQ7AvWO8CWfXKP8mgyJwjAuiwQk0BwjIRSQOWtNu6FfaqSRYQhqY1Gik+ae2PQ9KkZniUT8tfFjgLb7EoBcuK92siELOJmfAtbfCYOblDV3wCfNsE6zxHFuzgPCOQhz/ExDYGY5mUdLcna4me9mUZOo29M/wBgYJ8z8xac0qCydPAZwiz2spBitlnaSd3hOuCdCEnigI7RCpdx5G//cpj3gC5xIfFnOfRMrW3hlhxd/4v6lEVY29hPWdEzfGaon4hiAXfdWaddXTQVkeex+OKxoQmqogc62xHnZ277IyXrRb8oC7Pprk9NILBEqSSZMaUn5Az617+R7e7+Pr2KthBNrmGXHFOY3qx28o3zYRr7qoRq3/0LX8PRQp+9oBjv7vTasUHssG4cGzC6CzUkhdI14clf3M13Co8UHAYy0akPb2QK3L2bamHM0+nTdOYgpjdWH52XSJ4CNUmvH2QWrXrbuoZ7qyEThKI5u0gx3apNbYhZ17vVVUy6iedltb33DMd/dSZLtijP9LxpMwaLjYT+EJiLatJ4nV66j86UD5LJN/sAMk3HDu0FQF/FVhMDvTPfQalln4D3LL1Uq50wx2dpcuhxjonvoMcQE6aUNes5wsaJXNsfiWvqv4Lnr9MY6TivstvaiIcQscPoRrVwnrLeuh0WOU8w6LnjOuGrit5M9t+VzCOqlLAjDOf/toLfsOr/gX7BWj98x9LwYrqORs1X2tqpMaF1vQBs7swa7B/JvqAiJGE18344rWWGRpdvBgatGX3r0FyCpycFuthvmhI2krwOlcTa5cp0zmol6C4ngvo7MjN4CCF5FBq6uOYgJ2OByT67CSA+cghb4/2LLKVlwzuiiDmyozLlCGQ70nqXPWhZY5pSclRq+H5qWAFV5y40QXwciwFj49zCzP7DrN5dO2nZ9kI5qzw5VWFKuKQxHHBnMzSle4TaTuJqzu0kAlE+JCfyyRKRmmltzanjNXA0cp4ESPauQmCq9dRlVsy9Zq/h2G5ywQY4jERPYfiyXbCEQOyj3XvzHw4Y+jIdrxDTaeOta8yMOM0eeFRsO/1zm+CvaBTeRLpURxBu+ANYgRuXpMIirKF8B56Gc3uN+/9lFqBklOsfFSWJtlTTvt8Ovksph/BP6QGgMQxlEaNDxIEAd4D7g/4P/BFhF4hT8j3nlFUVJR8jigx70r/YJUIItYS1P9wBM/dc5Tjs+qt/htRZVOGcdR3h7zC8Dpk6XmrjgcDLvvMnIV6MPXmQnJjpetxvjc/G8Om/vKYWV1ZViK/rl2qZg7DmLDt7m4D+mEGl+FfPsL81eUmmenzBAiUsoYaOVuOaayFpgz8sgt7y/aGt+Uc9NXWDRuuwrkHE0KdVYquAsFciO5ZFQ4VDuKK/9TzBe5Do7Uo5a+QWSZA9dTnNhDy1f4aqP9zXBK1yMzU6ZX+p/50ZP/+Oc+s7sBqKZ7WO4EscgY5uYwmG8IPCH8P+bw2qEBzRM4ZmB/X4naUdOzHWbkF8jQYxP/H07GWqkMxhwGzZOnaRqfXpoQKMVDdihPNYPKUfOcVxRS7uWEH/myfT3byoPKqLev1yFd6gQkt8yWEavVq4mfrmXYps9Rwf+8v+mTDIBvu88xOVQaOFCn9vbOb8kd9UsmeaDM+K70jp0lBUV9ya3ATstB7gEk0AuzUbbD09huxmduLeGCFUKi9IS+QN1XiY/TFpIRcyeBXhCbLNuMrQykrn3Czu2N6HmlWszpbw61eS8S3k9squxxeKOWQlabavwhJMnZ/Vw3mvJG30pD16X49UMIiRnkq+yyhKO9U5/l4DUXza90FKoVyCRhoMiXJ1900VW5ZQAj1nJscOIcfnzYRaLD6QBtgQs80f60wxmQmAiPS8uEHSn16KAfUijaJLvgN5Vy5nN3dXxYZhvhL7IeBgYobO/38DBusw2lYh2HodwUoXMHgBun7Lp+Svd/Rgd5bKrP0zOcs9DotX1M3LNx2SASEVOuL77VChahpMQH4O99kwkGO9V2cdYCzkjdFDx8Zv/T+fdcPgKPMNSRV18gEz2GWHvcXFI6LeRI64UaoksjQS2IV1/5TP/CouUGd+iZ1ByelGH1aOTa82L0cR7kfcC4SZg/uZVMjvWxq2s6nF0zbewA2tAZ6Rx028t62OyF1Gb7B2IBK711ClIJLk3Nvnt83zaMwu1TDKwLiMjmiq3gOzjNV5V3YTYjlVv1D73gCnHDWHP23i7tqblTdRDiuY6pf0Y/9xq1yoJM2GnLVzYi3y49tj++EEmhWmIvB1JWX66k2YIfTbyEXgiZu6jXBetcLQhS6QeI4TvGRJI+Sq5rQyrG5qPo+UWJVh0M1N1yqdpacjzHedr3aL5+e7VSDwbsgxiJY7Fi7pKFinqWTZfC0bFrsr0VGBD5d+6yxhUeHU48DbmpsnBpqDIcLW+fKB+CTTYlSCLAOjQ8aBALOA+wNgaNUPUzspDP/1XncErk0/syNCW8wDlsXenT7WJTSwYxhxFLgk/7rz1AxYnW9xg93SDZw8PdKOCer8U0LCDgXMZIn79L1MQ9RokRr2h4eQ6hz96P5RPNjy9xYpWt4nJ2cYVtphAqJarUjOWkFxcJBSBYwTe6Z55U9DlHSoEDOLrPt+AHsWBaMGFJKGLUAX7UZC9OZAUoTM8lHMs3wb7Jysnr1qtAEZ+M/ILAxfLEYEicss0tW7ifCX1FVqd54tu+fHxNTa41i73y/O0Dz8eSAlVEk2UXEnDFQR7aAAQFz3LDNqSsy4SCaW1SazfY61MCT+HrFRHh6Y6zsZtOhHj1NNAIz6OtmvjDxpqPBt8HwsItcpyord4ZDNZQgyRplanlKySfeSsPQOtVEdljtZmQrGPvZgEIYdgfXLHNkhMjbrKGF7kMRxMfabhjI6ceSZtYCAAYpj60ZR9s663Q0AHpU+XemOyJowjQucdKObCzhiScEzuUfkHZVjseyqlLZCP0uDizcpwr2QklBwnhVpxFcIeA/40VZHJ/Oh6Kx/hc6ahAzEtBHkCNSYLrhVYBBHctg8LtYzHQejwUzQ2kbtYWn42yqDp+J036l7xKea8W22DhJyjEfC0H0FBuiuEBq7QpRycDaDSCczo8GkzfLcRCB8PSpwIsWAwEcG9eUUVL66N7Kp3TlvSLmHIdUPBZxhDSRn10ClgVme4V9ki69grXr1cSQ8NniPXhEPLaYgMWqjCexyPFnmmFW4Ary8rlPnlWWzzmKRHdEFG2TZlUsRZF9S77Ktpje9QGBz+dt3SNih52LDjvRWD0+HBp2Yw2xDE0ZD8rnn4oN/9fle2LyE68dHYRqmDbopXt2h8iRARz7aYJK4oAb/+9ri8O5yxxFL+6mDyI6YAOA6hpo9ShSJnWEEB+O82tAecrxQPc4mWwUyiwM3CiFnwPOsF8FLa0u8DqC/KTs+Nhq1PbKwJU1icNdzmyEu9e/P/YvV2hTHdRFJC7ZSjRmqp6R4wBG6wHplRVX4N0+NHFU7/Y1v4Xfj07ux4QD1rub3+clEvUew19XLNIKE7moOaeS4xhT/sae2TZ6a7Pk9ho1OuKQON9Mgj2h2CLVU/e4ER7KxZvj5c6/Gv+nxOcDqmJYdJgzdQqfTeBNOIpI2NObyEmIBA6WCWjZoMBKyZB1evCyTWVXXQVBSfyR6tjs1nbzXKzbNPJxzjrnxuYA8B2HdF1BJym+eheF62sMNf0v67X/gT1V8g8w3LzDBSi+WxnOHDHX4l0EJuGKjQ8aBAO+A+wNhGKt1N4XCuHKsPmIx4416/l6nFlGszucQCJ37WXv/1g5elyl6/0Xdo/MhxGPoaxv2n4V7hyPqaWz8bV5kedOcw/tYhxpQkO70grlEWgIIBHAzTqT7agqbpbZZVvZzMNEzaaJ36aXdKJETQRhs4Y/ZNTXR2JuQf3A6jwXo64a0VgqyzysfBqw0kqwqPRd5l8S08Bi7hiijW/pFMtggnmh40c/J5ZQpz6rJKDfROl73FjE7AuUPRNw+UbuWZz/suSvD8ItIUHypeohMntn4OrtyGTvdwqlKwdke7wCFGmIuummu5tJQuLnNiYfaR39rj0Mzfob1sztnvFxpFy0qqk4UGglqlIi/dBH0wdTZrrPouOtjjz/4D3Zcod2BhFKsa5uPRhZl/P+yxPpC+St5hdGvtjeA1M8pOAa1L/aV55PoD2BpUEjzGw9b+Npi88QNsw7OnrB+tE0ZK7eslERnKezfHbiwFU8OBh4v/z2CDZJlVYDCFCdey7K01dKc7h3OUvyjSNJ/gTQRjwO1KuS+QO5EfQJXqLR2mmu+KstzH5LtOk9MOMeKx1EPiGLCVb0I6WxuNKAEHLYnAGXs+eulpT+OtByccJMa+S75oD1oNr06k9uc98gvZgCeOxFVIMVz4mJUW7reA6xmTNJN17DhBziCecB2BdwXWE/K3uQdpw1MKzFtTj2w/ZqsKqxmXzS8hY9mgx6dDFZCvNR9aSL+A/+kywHIBq8eJx/rG/9SpAOb73Pi1k06CXP5S7VkBWDgXZ7eNheEl+WwnxlL788/d72pm2mWOmcrDzxSLzPaEnbNIzcS9EviyGSbCnHhyJmndPTFXanSeKuN9cxUzWPzN0tIYRh22csP6AHwxJDpnnAiCkgEK41jarqpvG5rFaMU704eZ+J0r5SKeK6L55uVnkL3s++t2MImaaE14Udtmzi9xVyQS5Y5gEJdrkL1SB8d4qJKLOmMCiKVTLUAW3Vdsw/8Ik0jIeKel7DfFXf5QMr/GUQ8ytj1CGqfInDwFl/c1bC3LguFN7x982EkCjq/aRTTFVnMBwTZ9QdBrvyPXGNzBiibrgqcwqPO1e0o4ckvzTUtL2vR5aakijk02VZU98wmm1r75KjoC51U0A5U3Zya6i01DFpAs/BKTz2o4epWH2axPUr2yjIbJ/Bq6z8cZIb5aLSAraGAWLHJKf8JBPpCPn9PF/ps4zxi4a3rvzcGX/4QwfyYTNquiVdaG4S2tHKHp8/i65kJWYK9YWdAaVWTgeSB3rVcZyd3CCMsKGHkmF+jQ8aBASuA+wNgM+7G3Nn0laaoiEPQOci1xwkC17ULLxQhXJFf3K7azFnli8ygG+n+FlsOfVuyCuhZmb35jvWKDTAgVN+7lRRHox0lSn7rLet7y/Kzzg+LPrMS/03LapK9zpqEaJpf1SZh1i5figIEVbnz0U2TLcftY3v7rf4nUJSLHp4EC9TbD/w1EENjVlAnk5+09GZXaXkttYR7oIqM8YdDAwtRVdXEDgKLYdrAX7QDzIYq95ngodBiFtM4+XFGWvEgKFhjGA1yiZGfF0mjz5dhAax4q6E9JuKP9qehUfIV11IgoPk8sfSJdj2rPs7xZgs73i34pCly6N167iQ5w30d8rzeZk2DKFEqZbUpbi2AoB78XR7nmMHg+HCJ+TlvLy5Pb0U4LQG6NpZDRxB9fwp5+ZI9ozmt99A2ouq4aXbHLOT32yImiWE14gTuLfpXlm2kbgWwVVrmRwv6VRUDpv97Ua7FjOgGU8P9y9jyEmDScLkQLU578tQN2CKvlOLHeyWR9RmZ4IiLtrgWFcQlVgr9C94muD6Cw6iAK5/FUv3YYqeRG7uVRD/I4+bpuRS+CvZ37hLgartVojjtQgsalvxZxDqGf7BHx9muG2zY3xnEzhlQU0pujvkx0ur+h6YI4YdR+Kf7KuF6GX+6bwJk8i476ttbXuO5rthiL+iydLwdoPae2UwO6U8SFivWPOf+HbdHpOtjVJz/9JGKSQsrcCUt1w3tWVwX9uuZg3QT1lIGucoRCQirAiC3Dj+RGq7exVooHayyBOyf5JZzVf9+l8crDmu4Kyjtn8J5iEPGcNtFtTto4qKigMF/1pK49ukZg2jnN6owOmEwtF0qqrjR99o26/qo+8U+YR28j3Zo3OhwT42R6E65AitYA87OHjTPZAwvaGGasagH4cGDZYURMO0HQzkw6r0SSUyELl9W4ziC3CyR3c/D85Zugo3nqIXsdAkkctm/KShHkjWQmplmm1dfV7Jh8QArfxv+ex0YLN6RJshvOsogaTRYwuFfsEG0+yRNM7qQi/DqPDm0JolykhyPurFs2wtf4/Ld5F+0d7IZfdRj1QKqMfXj/x9FZ+Ps62pkOEol/vvsjIQQT5PSNS2fTe8+bhwg72RFbT7GcpFDVZrM03tcp9lhNanw/qN/hsDe1EQJqHD4KfYomc1o1hYnwtS05tylALbq1X/2Sa/WBAKkVV7A6b4HKeRx0njCZrwxOgsjnRSFNwshONgYIF82kWSNxRgJTTDD90u2ut6wmeDjMnUFaQOBg5o1m8uS+e1U3zu9vUSjQ8aBAWeA+wNhNVj8IRpK+8Kgzh0eDOpVb8MbWd/ODAj6z4iVHpXKOv3+IzM8PYjgezEvZq1jdy5kv/vTEVgzKCko0UCHsCU4OtQR8XiXgLU2AVrcEGZpdLa/k25JUDy35dFv/gHzNUNsDEo25ydVNG0S0BGjLQV2cPjwZ5/vRx7NPlPT4x5V800LnPu/YJ2ECb9ydUU94FP4rkxBWBHT8t0PbfKy+QfI9AIOk+4kS9tklahypRSItz6WzLMcs2r6ShOlbvZ5lFKNbXZ44/e9dc7tZTqPsjiTL46z/0wvzaYXFrJi78LGcgm1qWrlE4w1nY4vPJm3vxAng/ZisBLYhUMik2vj8+dN9mGf6SZSU+lpY7M6KmizxW0OGrBj2ENQNyb4GQxHaPsauBLP8ed4Xp6NrXu2vIYeCaLqVHI6KWPoI1ztTVsm+mE1b1wswiuh8ZbYFa/1EQXJHtlfxCOVRCCaKBzYbaTCwDXqdyHwSEbQbJ/FUJ86ue2N1bHCvudTzrgmcaFv0Yfa+uzJOGeI20Tqa1h2wikxnDA42iXrKapcBvlcCw/p76p/EdoxPBDCwM4giZ/Sya9DUtGXtua32PH2Q7Pvfj0K26ilVJy+SXwkhIrMoBrxJOxBDW/+CJ+H3bCbIxikLjcOBmHiKDvEnea+BTG4njr3nLXFAYthIrN3U8FXf9vJzk/pBPu8E8a3kIBR3jnvboxszMYrHHi9RkwkepdAb5yQ/gwcGrJ+LS+c7PNnW+/SGE+xv/ruEuu+cYUEXouZRogcTDnpw9k58gKH5sGK2h6WfeOsLBJ/4ZicPTIrwDKcaojzX5gr8R9UbpOcSibHxL4Y0+uVebL+hfhNppz2sM1yYYmh++S8dg37lLUPURIO9JIpBrm9K4m+hVCEfVfaDleHu9L92eQtcYfFkcppS/sGG9DLe1h+937hFUnayJiAeX79YAsxBo65URoqLvedzWTTNkFUW09pNn09YFnT0Wm10U7ZBXiN3TLS8VJcVoubKJVaGioudBuYHgJkGpT8w1tkcqs2jWkDDkbuuBFx5SAmfeG9jUoVAUmp7SmqQyy4/vILUVI8g3HsGxwY+A47QxWUmGbGjq+HR7ngoew/K8W+Cw2+Cgc47bZ08NLdvQhn2LnFCcEsXUkL26J1Vthio/koYYyO8WP3WZx7EFSPxgKPlhYB1hOWP31z7BEJ+zWiTLozJmd1Y56a22ZWm6fPGWEBTkmX5EuEMAhw0aNHX+kOEL0JnXYkeoTFLoy8Cj2MByY2PxAmr3Zkl2o0y1f6/SejQ8aBAaOA+wNhGvxsIY23uLN+UDQOVHDkLybaIE3W1gUgQQSrISJlxQFFx/MaOjCzpOGMKP9QQgDD4WnErGHqoUzEJzESoEU8D9HytsbAB3X2Z9+RCNbxaOD0vzJtcpHP6CEcWgzAH2MxM8Dh4DH7NnB7qi8SDXfl2kmEawIlVHLB72dLUmOtsUHbwRYsnB/AJoPUiLWWyq6PCrkw6FNX4kT2ryBeCsjIniW2+Cu80Vw+eFK8+e8OSuwaW2kJYmwyL0lbEMJmrc2nyMqWme+B5OOpisEDpOOkbb4zmxMXb2QYUWHcJ7QYKgH3CN5hYC/Ba4JZELuPqUTekQytiM2p/mbbXD7i633u+/MAzjhCAT7v2+xiAQayIpfOrclEI17nHul8VdgMCVqAIpJB4PJrXimC5jY/oAKNteOvqCWzzxYqVBPQZGxjUWEKLsdZTPjPEWPPPLsrHH/tPH9LibS77L2GI3rPk/NC09kJ3FqqJa74krfWoRtZBkSegl6STrcvWNHd1BDuBnCVAoIt3ofXkdFk7EL5/L0aHQTT3Ws6D7kYV2UD0RBXO2b6HnXMP55rs8pjMy5LaixctclkKwK3+l9XWSzJcYPCEi2XlX0/2PX+NPwmCK4/e6rD69zQ2n2WUt328g3H/rHpPV43/rnUcWiIoTLsRZfkZR24Z9Ny7eI2pZxG0dBN5q/SgOkxPlPk6pfu7ESKbc+t+FnmcJ3viCWwPgWa1IR69GqwGjCNL8s3LBHoimsxwsH0iscGZi3ex/8f2pcbC743/9QZ5xI2JgrtAKX5BisYKlz+05uNGOA0iH8UkH8l+2kdEohazTFngG77Pr7tDR0QDVfYiCUoA6lQcCUDIPiEYX3NkpZrAZ7VfQ7ao09TFqdrDCGl8GEFjEjHw6MFQwf8kx+jGHIv0sp4cqy89wuSgbpzQIrbnn0E4GYHwLJ4M2+fMtKCl9G21p2S3YgJSUTXFFfKQvf8OAXiyxCtBttVmQZcXZN19l3SAq/JR/aYbRBUkT47Xs/LVpqUsZ4+y/+BnvSst/gl9J2Qh8s7ffbMp43JZchOjzAvLmhrrHrJhFxAEvZ8O+oA2Y4U47Oe4UCwn659lRA8KC/h9qKXRlh5/MCKGmnKqLJdCfv2hEoHMqq+C4PVWjvQFTB5kI3eDk+JRWtFQESVCWfTkSD9oRqLTHjssXRhSM7f3EqyTrFkFE009mL8720AQ1ZkNtJRp4Gv9x8zqQ2KzXskGYoVu6YTcmUCutyqaoa6aA4aWXWJFpDpM04bLoHZJFcWzar6c06jQ8aBAd+A+wNhGHgdagFIu4eQB3IO8lCNe1aBQJsI1F5xh1JYkDHXrw+0jeD3dZRTuM5XhWX6MiGTmlXspOawA+uwlgPwBsPpo3LvakO0VgAav/7pwYoMKsmzS2DWmCMCpKSWGXPjEijDWhXr28Bj8kVW0dbwuvHvutp3JIlmpOMO4ZG/O5+rmEWCAummb4c/DCuyww+sT/Hqo41Mtfpw4FThKWdaZxUiEOfJzSInRiQtwfC9mPN9KzZC0+8AyM4jTU7+dNz17qcwBcDcct7rJML0eQidCSYB8hrGWCbE/Udtpb1iY/+URHsaiEYQ+3XcbuWtfxKVzXnVcsZ7Jv938WFqq1Pvgvt4FuFk+INbGKfweFUKc+K976joT8NY6upA9o+6L0iOM4r6aab26O5WCG0A5Sr/FebpmU/SlUekEIO8ZDi5FEADk2EYemu4ovuY1mX98p4z+gwcAjOmmt1QS6zve0JqDWwey0BhWCw1Hfb0mjzfyXgcRUUnRd7WkIgtwys0VtYVOKhgacMYLGDVBMbYcNZhEeX8IMPwth+opnMhUfxO+SosNTbCfqGMh9b3xsu4aI9VK+A66zPiQKvXW0EaFS+xaNeewBbxpKmtt8wg1BAAx8gM5qjr0arDGZGzMlNG9pCeyiUuxhJrqAiT3nDtPemVL4ORrc3ytN+I8FkeuwhdpVeDWLrCzDqXZSh/bQKCddHx2lEOPoxhgfr8Z4xKQpaVfBMHE5thMUZGB6Rc5VeeCZcZAf2++6L/mwYHSpHsXMv3dAA79fItnKBdccyt1IME6nmFVidtQJrPlkhPYB3TnEpsA63rOeeUD3tcgwWNDTswjF5L6gjfK6PZBsZj1QZ6D7x1YSBgzS3Rm42UqZgKNYYkg7yBQidfOJlW1jwKKPvj1RxKaX3B4bQuy82NsfpDKoTFWyzr/Ce9y8s2IxcGqLbWBtObaXw7koysd2HpmB56KZ6t14DGn9qdKgAh9u+XnG1i1igZLRAuL2R/UHE0viPuM4PAa4B+McWPEEruHy9kuDP0ugqGJV66f1zu4ITMXYuVnqjbNFJ4gjBKTit5asgLtKkY6MdHm4OM+cko139Sxo8Alng5nldiPSP097XEutg5GhAlhvebCtMSlLgu0rt7UlFxptPAXYW25DcxrDhaHvzkeDxzkLJwrWw5OreYDfMcBmLI3KGy7qC1ZUoBthSG+cDDgRK3+BNJ9fUVLT6/72jFW1+TzUCymzy5R6QQdD4IEm0az1p0vyIDchyGYKAOKg9kItX/4UT1DAQXRwqOuiGjQ8aBAhuA+wNhGvuxH+KqSKltib9qUBuCBMUI/Z0/qUwEYrPP5r6ib0IEKt9kJKp1rsG6lQMKwrN7Co4onTYqz2R7oiW+f1fR3h0ofX+CcPQFW23A50Ul3LIAZf/mbx0uzEmCmsp6LanqmRDB5C3u8ii+yokli6I/mIbzv65dgi6CeSC9+GGyhCxHSFdckGFwe1+N79nkBHOU872Wa8xn3v6LnEZ8MzEd+lehyWlUHvAxbDBmuxMQ8BDdGs2UCuWT715dFtKQlLZDYEQTWXsxqAC1MA5zoKiLyXa4IX29mvK2OYaYt225iDrvLC2bT8zxldbCSNg9UB/DjME6fyrtjhwrOFNJhyId+3T8ieMHSWlnQOI4+gjpN98I8vcBhg9g/FYyEAsGY1ZD0Hh6lhowQEabKjKGFfRpjMVtUIaig4gGxhIHxtURomEWwT2WX9C56rHI4tfm/CXiO4WrmGHuIWKjoPoMy37UWVJDOCugThMnnPZUm6kdgGkOgnPzu78e+VFmmImRo/aqcmrmd1cWif5TdZYHRhhguhk7aILRLhwdhvGKLkTtPGV8d7dx/+cdPwdr+TalwVqrohWqOV1hxODxGCdkhMAbgGPFITMWoZsimKNsGjdWXmfXdTlp+le4om0/biFHC0ebmNK0RMYEwc/egJHv1Qe9HAAkjjwVA2Q07nRdtREvMjZ8C0VgK937v4RzwNFTixWSpNytnLrWGlrMBorY5RpApcAaDCJ4wOsYM8oeEc4zzedVDJSP/qkNQdsoeC0IcGptPX3HiGzBXwmU07oGR5d4kjYCqlfIgVT8OtMYpaG9UZRrL4xV+jCyukjXdYMpMF4AIAS6AK7O9qe9+A4KM0qVYQorVliTyEoF9ApE0djT5WSAuxR56h+s5UnnnCPZjFWu7S35JOjKHKS2ARzP8ValGgPxMDFZYQPwOlR/12/WVDCKjVsNViPL64xx2nVKVc59Wt0RPBZIB7BPFMaQ0UMlHll/f85Dbwe6/Ms0MjhxVa48ant8G8XF06fduL2NGKLPl9eLBaq2omsH9kSqR+brVAivyg2sgms+65soUXy8IBjLffcBPB6sfFFuvkMycwU7QUBp34VSYXshnrRAoBh2kRcrDw9/boGOxEW1k68boC+nCxChEMxfHB+EMOv+/tBEh9raqTU/olHtiQ2/trtLO7faJqXIcHhdoVu/ha5n1yTUW6ut+tL1OMXeNCfXJgxKt6JVrWQGa2/O5ylpdUsCfh5rqRXxl4Q1dcYV5ZNwrWwzTP0ouqD4DIkB7Mu1LYWjQ8aBAliA+wNhH/KvWblI5JeS/4z+3s3zlKeiBoMAcgrA1FyTbd+VzftO0cIAHWTrigLZxMoDmcomOjD7T0b0TfMLvzuNPNT/Z26oUlqhmm3XrmBEkDKTI5nLK0QUi/qOD6ttW6EWEs49kDw89eT6t9JCdCjTK3VAjT7oYEUcVeTDyRNhVtcSDIYEt36FcONBzlIPijQ6HJTDUnTQ/QeTbv+843PjyNVYoVAufCo3+wmkSSHrIu8Q14NLgUT8QbQRWdL0jP0wVqs9KUC9sPDqSymtlhLRVA2AFY5C1dymqiHYRSqt3XErjB0OXo/ms6AOucKjsmxV7hEwjkgobtGWvyglQlVwnmTT8yS+pX+z8eNO59j2ef5i7NCc456szBSsAQx/sHSInaRALkBrR9K56IlKFxwZ5nWii4fBNG68K4XZQz88mZnTmWEgcyfZwVTw8oqA4//qGRbK0wewJj6xGZz0CxMqqD+9rD1O+gpvyppyyiZ/PbotFarjVd/guOCoxvi8Q7tKg7dBWd7rMZT1Mmq16gbsWE5bH7FToVE+zW4jrug+gqvxDenSzBDbJJZ+/jYgWX00MCOmifzPMsFNtua1SAVmnydk6Nqi+5xZhgLMlxVHuUfoQXKLaIDbHOLlT7L7GxL6yFZFEjgblEIfF3i5KpT17ix6CBHF2OZKpmZ6gV9Hl/Bj1rBuKSDjr4yB/R/iNQSIyJdODiVpuwPRz9Mh29BbA4FcIBeWgoBslaV1CPhHrvhET8UVEYXpeemAeG85iKipJLmIclE63yK4rzOgC75ENbRJvsdikuLUwRQlpUCXawcqDBqzgZRp4WR5Gpnu8yiuHyMii0oPV+tQgthGt0oUsjrOXlkjFezW4S5IMuz50f6fbUexKfE65QxLCJloOf4STHAFoTW7rFjRG9vxs7pKd3YT5QaUbO+JBQM8X8qY1Mh63+Up2SP1TDUcVaprA2VjdwLWuX0XFlLmDofmE2g8RUNNaOjOOFR+AsSH/9RW6GaNg2GG6cT5I8cN+3oJjUaYnrsPO4HFhuuuWmnH0pbRqinAC8oVFd96A5Nlqc1gm11zmkTnVvoZEoog8KD9HQsquWIBPpljFbpNjHksv2w6KtiItKflslX8aapr6OnVHhzDbrVbTD1McYYJKME6uE/pbGP8G+GsOdPolHapSODQLTdfHZZu0jbABCXaa/Bv3FfOD0Qm6rCPj7e4yrvqD+17UmYHfEfmP0bm6FJmneyJ7JKTtL3wJbyfKGmkuI5BNA+UrEvAm4f4M3h3yj7vDZTUBcCjQ8aBApOA+wNgbZc0atMKr15Jmi5wu+KGGuchXSAG7EXxiRCyVNNbjHlnp4WCzPrKau7eFlBARd+fKsUiPH681wMy9zYG+V1MOk1F44VJ7nbMJZ25seqaoIItuCt9a3YalVr1WGBDaI6ccZ1EQwX7452IMW7ilcLTBIMZ77IMMx1RkLXseUwKOrREevNtxpLAgMZX1S8wUSocNyU3IKvGxEf6aoOBx70nzRgRC9oK9NL8PIKqcuvlpXh+OuyEwRsdNFPm9GEduKRwAAsNyLaGPkA6QQA4ZOBDw6cvo4Q389TMXc1isom7U5HQABjrLP5E4pcehm8XcJAQ1sB1C1FA9VehBOu7+PtAcFvhE4mesuNU2Z5olrhnxpWLC/mwjPlTm9+CaKcxM+HGqlLPcCI7edTHzEgOHW34JqXGGl5PyIXYBB5kZInGYmEh8jdwRq6u0h5lequyjfqpJO4yixeRatAvNwulXI8AjpMrpxT+H9Hz/GApxvcVMqRdDn4wPBULgP0UUj6aWAQ9WaQxZoXt8PJ4c3+nnB/CVc72mjKoRaCPQnMOG1GijmXNnfY9p0A1Pnpm7Qi9vI6xi6Azv53V3TiWraN2fi2iy+mtZETcqPTpzkWzQncLMbW6DKVXKMJuTTyNwK4giVHCL93U/BKcB8N1GVOIxCzldHahYHaSTF0H1ySvtiU91motWto44vAtg15kFUZmgtuUawedb6gzgnxiGIH1MaLFTI+vMOOPM3BshZaxfmo/X75NqQ8nvCW7MtPeutYnEy8iE/u77gQQ4Cg4ukzwQlcotNkIRwdQWUqFeGgnPikf1jCGpmJ5Lh30pCAnWBiILuOyiI+Dm0+CCCpi7JHz9xxvYRdb3ju+29cQXv0SsWhT6WvEfs+j5dfzLzpMg3A8qVeWDI4MNwt6sbNmd4jBEOfPjVA0yx1+SaBsm2Cq5jkwK3BaWS1URskfxs6Q0FVe8IO2gXaYn3PV0EIKHIBwHwJFXVT8fRxFQ8xDAAlkP7a215+pTZiJXjOxxoDRw2dOmab4sVq7mADnCqFjMz4WFabcUnZNwPEOIABd5aexpcfFwy+n0Z6EFXh2XzTDs3ZK3yQTD4CJQlunw1u156Ecg379xnowpA0nRMY0V6ZM1HTBs8ZJVmGPQGizIurd8zXOkvSzWdCqGLbsvOPpBQsmUvCqg+HVkOmMyIV2f1fYw2r9L6H9CgcdXB4++2cFyfEVYxVIgWAAxtlrTOOzgqkrcF+K1EYowxlby9lp9Fk2o0iBEFS/1Tjq49UFGGJFhh667WajQ8aBAs+A+wNhGHXP+Jd8Vl7jOr8ygPzB5KFnxKdwXFwvG6gOF7UFqvz5w//Ud+T9nHwDGJ91bUOj3pRPSdTuW17iZQ265DJybu+UNMJAjekYGxABIZL1VOQgN3IJrccPcahfRb68NzCE+6hh8JE7umzgUN8fNB5sK34Opk4FIdfqgCqrrRcyLrX8jLgd+buRqZ6Rb/FfMXQwZlD+O3mMgW+wwADhGE5VCc7Prbb2KJZLvjhyxiqfS7+Zl1228OQ9W9PJOu30YbyqJTGoRDx188HzKn5pkFWckZi94OHeSVps9EEzcnH2kokJ4dY64DnVzpNEOwR1oMw78CxF+h4L9VWvUyis8jbYNwdDMRMa2N8VrAbAGRkY2BW4RNLhx0bD3RMVOuyoE7o8ObceyBg1eUeeJ6OlDmrFH+G+9CMVB2fqRcxewdMUOGBo6PcGpRlgvOk8JzB20kTADuCfGemXgcTvmdrC4r/mBIPHbXupEBWxz93oXji0Q9S2gc239ZCr0p4LgZCd7Eiw9kv6qlNp7/EqBFumqVnovdH/qCFMWcxnmGu/q2vscZWsc90iQ5242xLQWnykrGPhsh1WyrJ+g71fzYuXQYbJMHVuw5k912GL4pMdHmVVLgUIdckSLrNT/qV+yeIPz+zvh7/UHL8rteqWUX4cPiZKxbYPlvdvIWF4LgvNRkTW2BlBcJ8Dt4tlFnV5fOWLpglM1EViMIHg/USD1f00m4sOz9ia2GBCKbI1N1McRqxp0cLQjZHgOXMD//zx4Iw1W6GgbYQUMWN4ndNU36JUtlFtuICpnG7SRzcUL9BuRRQ6Cla/CB+AmICFFBh4l/b1pF6yl6JbaHr7BNU5GDccBSbwYReL7qRyGQ5hAZ79mlr8RtGZtx7l/l+oVFdbw1cWXmdkEju7yntNRy4Vi78Fqjx9npXHfn762Y2L7UhfUj/ENjNp1aXJTqOfkPw40bQlzTkP6rAPUpVlgVTXSVc4JL3StV9ya4cZG3sC8zCxDK2FEGiqLuvNknTIdFiBWsrgen9M1OvkH6/lFSWlFIOYKeKVZYEXT6pduQ/3KiuA1LcIFZIkSg1y+icbDUmyezfYyHtjtkSsLSBznOxIOSi/DWHRV8jjz3b5Pjywi1StrAOODhIZfGOKxMUCfYgOQWMqvuDDiBr8fwpjAk9Kvs0WTWiSsCSJlGutA59CuajEuxz5zz1AZb2ivFYFzSCRmO4eedhRHtnQviiG4YxktAs8BzHFGRQOaN+EOpXGXRTAwZTUUK1ZMo6h/rr4CgIjeVOGnM4=","15"
"","","","","","instructions","18","95996","0.0-7.0","3gwhe5k5v3l91vx","3gwhe5k5v3l91vx-2024-03-20-05-11-14","701","","[{""page_index"":0,""viewing_time"":700}]","","",""
"","","","","","image-button-response","19","100507","0.0-8.0-0.0","3gwhe5k5v3l91vx","3gwhe5k5v3l91vx-2024-03-20-05-11-14","null","","","images/stories/paris_story/paris_story_8.png","null",""
"","","","","","image-button-response","20","102357","0.0-8.0-1.0","3gwhe5k5v3l91vx","3gwhe5k5v3l91vx-2024-03-20-05-11-14","1849","","","images/stories/paris_story/paris_story_8.png","1",""
"","","","","","image-button-response","21","104166","0.0-8.0-2.0","3gwhe5k5v3l91vx","3gwhe5k5v3l91vx-2024-03-20-05-11-14","null","","","[]","null",""
"","","","","","image-button-response","22","108676","0.0-8.0-0.1","3gwhe5k5v3l91vx","3gwhe5k5v3l91vx-2024-03-20-05-11-14","null","","","images/stories/paris_story/paris_story_9.png","null",""
"","","","","","image-button-response","23","109941","0.0-8.0-1.1","3gwhe5k5v3l91vx","3gwhe5k5v3l91vx-2024-03-20-05-11-14","1264","","","images/stories/paris_story/paris_story_9.png","1",""
"","","","","","image-button-response","24","111747","0.0-8.0-2.1","3gwhe5k5v3l91vx","3gwhe5k5v3l91vx-2024-03-20-05-11-14","null","","","[]","null",""
"","","","","","image-button-response","25","116257","0.0-8.0-0.2","3gwhe5k5v3l91vx","3gwhe5k5v3l91vx-2024-03-20-05-11-14","null","","","images/stories/paris_story/paris_story_4.png","null",""
"","","","","","image-button-response","26","116853","0.0-8.0-1.2","3gwhe5k5v3l91vx","3gwhe5k5v3l91vx-2024-03-20-05-11-14","594","","","images/stories/paris_story/paris_story_4.png","1",""
"","","","","","image-button-response","27","118656","0.0-8.0-2.2","3gwhe5k5v3l91vx","3gwhe5k5v3l91vx-2024-03-20-05-11-14","null","","","[]","null",""
"","","","","","image-button-response","28","123167","0.0-8.0-0.3","3gwhe5k5v3l91vx","3gwhe5k5v3l91vx-2024-03-20-05-11-14","null","","","images/stories/paris_story/paris_story_6.png","null",""
"","","","","","image-button-response","29","123797","0.0-8.0-1.3","3gwhe5k5v3l91vx","3gwhe5k5v3l91vx-2024-03-20-05-11-14","629","","","images/stories/paris_story/paris_story_6.png","1",""
"","","","","","image-button-response","30","125606","0.0-8.0-2.3","3gwhe5k5v3l91vx","3gwhe5k5v3l91vx-2024-03-20-05-11-14","null","","","[]","null",""
"","","","","","image-button-response","31","130117","0.0-8.0-0.4","3gwhe5k5v3l91vx","3gwhe5k5v3l91vx-2024-03-20-05-11-14","null","","","images/stories/paris_story/paris_story_10.png","null",""
"","","","","","image-button-response","32","130749","0.0-8.0-1.4","3gwhe5k5v3l91vx","3gwhe5k5v3l91vx-2024-03-20-05-11-14","631","","","images/stories/paris_story/paris_story_10.png","1",""
"","","","","","image-button-response","33","132557","0.0-8.0-2.4","3gwhe5k5v3l91vx","3gwhe5k5v3l91vx-2024-03-20-05-11-14","null","","","[]","null",""
"","","","","","image-button-response","34","137067","0.0-8.0-0.5","3gwhe5k5v3l91vx","3gwhe5k5v3l91vx-2024-03-20-05-11-14","null","","","images/stories/paris_story/paris_story_7.png","null",""
"","","","","","image-button-response","35","137781","0.0-8.0-1.5","3gwhe5k5v3l91vx","3gwhe5k5v3l91vx-2024-03-20-05-11-14","712","","","images/stories/paris_story/paris_story_7.png","1",""
"","","","","","image-button-response","36","139582","0.0-8.0-2.5","3gwhe5k5v3l91vx","3gwhe5k5v3l91vx-2024-03-20-05-11-14","null","","","[]","null",""
"","","","","","image-button-response","37","144084","0.0-8.0-0.6","3gwhe5k5v3l91vx","3gwhe5k5v3l91vx-2024-03-20-05-11-14","null","","","images/stories/paris_story/paris_story_2.png","null",""
"","","","","","image-button-response","38","144645","0.0-8.0-1.6","3gwhe5k5v3l91vx","3gwhe5k5v3l91vx-2024-03-20-05-11-14","559","","","images/stories/paris_story/paris_story_2.png","1",""
"","","","","","image-button-response","39","146447","0.0-8.0-2.6","3gwhe5k5v3l91vx","3gwhe5k5v3l91vx-2024-03-20-05-11-14","null","","","[]","null",""
"","","","","","image-button-response","40","150956","0.0-8.0-0.7","3gwhe5k5v3l91vx","3gwhe5k5v3l91vx-2024-03-20-05-11-14","null","","","images/stories/paris_story/paris_story_3.png","null",""
"","","","","","image-button-response","41","151741","0.0-8.0-1.7","3gwhe5k5v3l91vx","3gwhe5k5v3l91vx-2024-03-20-05-11-14","783","","","images/stories/paris_story/paris_story_3.png","1",""
"","","","","","image-button-response","42","153546","0.0-8.0-2.7","3gwhe5k5v3l91vx","3gwhe5k5v3l91vx-2024-03-20-05-11-14","null","","","[]","null",""
"","","","","","image-button-response","43","158057","0.0-8.0-0.8","3gwhe5k5v3l91vx","3gwhe5k5v3l91vx-2024-03-20-05-11-14","null","","","images/stories/paris_story/paris_story_5.png","null",""
"","","","","","image-button-response","44","158676","0.0-8.0-1.8","3gwhe5k5v3l91vx","3gwhe5k5v3l91vx-2024-03-20-05-11-14","618","","","images/stories/paris_story/paris_story_5.png","1",""
"","","","","","image-button-response","45","160487","0.0-8.0-2.8","3gwhe5k5v3l91vx","3gwhe5k5v3l91vx-2024-03-20-05-11-14","null","","","[]","null",""
"","","","","","image-button-response","46","164996","0.0-8.0-0.9","3gwhe5k5v3l91vx","3gwhe5k5v3l91vx-2024-03-20-05-11-14","null","","","images/stories/paris_story/paris_story_1.png","null",""
"","","","","","image-button-response","47","165613","0.0-8.0-1.9","3gwhe5k5v3l91vx","3gwhe5k5v3l91vx-2024-03-20-05-11-14","615","","","images/stories/paris_story/paris_story_1.png","1",""
"","","","","","image-button-response","48","167416","0.0-8.0-2.9","3gwhe5k5v3l91vx","3gwhe5k5v3l91vx-2024-03-20-05-11-14","null","","","[]","null",""
"","","","","","html-audio-response","49","170085","0.0-9.0","3gwhe5k5v3l91vx","3gwhe5k5v3l91vx-2024-03-20-05-11-14","1534","","","<span style=""color: red; font-size: 24px""> NOW RECORDING</span>
        <p>Please say out loud the list of the actions you saw. The actions can be said in any order.</p>","GkXfo59ChoEBQveBAULygQRC84EIQoKEd2VibUKHgQRChYECGFOAZwH/////////FUmpZpkq17GDD0JATYCGQ2hyb21lV0GGQ2hyb21lFlSua7+uvdeBAXPFhywMMbC4IxyDgQKGhkFfT1BVU2Oik09wdXNIZWFkAQEAAIC7AAAAAADhjbWERzuAAJ+BAWJkgSAfQ7Z1Af/////////ngQCjRBmBAACA+4P/Mv8JffpzfvJ2Ix80QjqxB24yjZNSgmDLxodlP6mwrZ6Bl+JQwYC1kzpVdG6rkYMkQeE7uLXFAWmWGff6NoG/w+6EWLTRoAmrh3PT8lIZitpb+Ik56NQcz5H8wgDk3c4HBiTzNaPgKPYfrprUBPpMXGmpxIpf6MYhvvlL6vttL6YyC6G7GscufjKSK1C0G3rlL8u7soUe3Mwr20FLypbHGa2rAH0J2/CMaopdgTVHjtXiI0cFSE+LiBFJNDM1JlSCS7CBxVZek+ajU/8RFrcxt9HVUAAAAAAAAAAM8jx7TKQZOsojkoKm5/FpuRyuLNF9LK5gqGWwp3ztfuJi0iUCqYyIsLFSPC+j7cBXp/SfDVQcBC1qa0vCY0gbIYvIsFE9rvnRVVp/9oDDx4u+fBg21X5vuZUgEKgot5ZjgX6ESvxwu9C4Sp0tdkRJ3J21kGs6DOo1+k2NY9bIAorBGpBFXZoYoFvk6E4T+/uJlgEIGivcfufLxGXCOti+ZYaNPiWw7IFPhCxumg02lBla4bZHH1fYbPRFdyUPWHFxY6S4Gd3lMPsQmZZCIAO+JmNi2pnV4F8ik/9QzjhKJL/Id9mGKB8eLW/Zlz9r8/thGEl3cmTy/tKXEGAQrmNPnI3LmlM4ModuoNXnGDckAsenGuBYEuSYF7xnWyzTTz3uE+9I2zzgvfL8CDGIA9ZtlC85DwHPTOb4bR4UQQSFk3IZ4KpqyxFEvMqNQtm0SHr+NjrXIq3rj/+c6FxLEVjevLwobPZSpP8bL1FVerEDuKj0MgEXyXyGwd5XI6+ydTSmG++jwGxgQXn5m/aFZO8+eVlqxDWLOQDqP3ljmpinPV0soHWKw2cnHnlDF0m5Pf8BYExvSkqSWiGxg9xRP9isPU49w7znGgMym3L/gcv0MJlaBlfpVMx1T8UQnl1vjjoARvRNzha5DmvcozphYUGULhVNCkoeUSREhI2tTWs5KnPvNzqXwkjmV3wJIEy1k2vWvM5hIB5AWQQVRTxInSSFgAgu3tOtWkTKI1B9JoSVsNDhNYr3/zAbXuUt5EYA3VRkNQhU683a9iy4x/WWgwzRxDftmpGhCGXOKe/3oEvqDqguPdNeo9H5R/o+awMKvVMw63j0c4v3NwBopdV4JM+drnGnyPiz2poMENSFZR7QYyNlWHXfM5+zckQkwGcVpMzBpVw+YlWgLovszjH/xt/SdtDIkjuVC26bvkGkHndo36A4Kwc5geaP9iBri5UPztuiP2l4vbwwzq5itSw06GeMsLdg8dbLz4xrvNL55zD3GNI2m4MkADhUie5YAwvPcrG5CCFuR90mjeZ2byZ4zt4YoIyq4Y8v1ZFgvwSOJT9HbO5bkdnvebWiSls/XgsYWQvTl9K84qyYVqNDgIEAPID7g/4K/wphFvy+MTgV1DEvtj5/6575UIDGO7c0JAYzTPJ3scGAJyPMrQF+0OhaZhVaht4mNf2wsl1ePO041714dE0GYN+Uq5bqcjvE6aZjGtS/IXegCSaAIC2LfScHfDmeTuPQgMDalWyPkJox5CasUEmkFtasYyOhQ5O5xBByPv1tQpbOocjzr00nmkheH6aXqzU/56dXc5IAZGAQAC3vSRFXDMPf9bqeoETLm6B0cIh2l9wshNlclrhZLdEjtFTDYnUVwmIdpFwVSyp62EgzNFqVZBZFfLS2z7A8U+Y6PZP/NWHnrYHjfopfta/93Aw22be90uogarBqTk+RagZnrK+r/JAu3XO90ZIEGmZlFvlME0wH9QAn/XzM7t8wO6LXVDHUE2tika0y2XxgaNRdmIBOcHhnMRLQhumqhuAzpelHCRVkD85gZ8Bu9TcY5BjVGmBVJZge0y6+LFxeSnrgY+lRBnXVaIovb5jKAKJs2bNiLXzo7lJ2QgU5Nv359eNEK302lQGog9lQNVHx1q6yf6uN4OQx0Hme+1+0gJQ0/9fxWgEPCfYqWBYBzNgMbspsZKrr2UKwZAlovaMS92ZDCAWGw1YHJM0z1m9kwh3nNiOsW5UU7zkDkPw+ZVQSd9G8rfaGEBnuEL25EQpGbogiD9usdr4Mv6QmnmwNnEXjhtOrgXKBSiSr1zYgJfZoIrNQgnfsmxbEzskxIi26LEp4gOKA4odo6m5sm051OF3FPRdznwn8/GF0c9Da4arxe0qdTZDM59k+febj98vn8sD1Knp8YRi100/LncDjHd/Mp7y5Bk3i6Vl3ERSqCUBNejKKiEfw9M4OMwD3UnhB85pk8GuNwjGEeKkwAjMm3StYEHDdcyO/Mb9pbZiVKsMvSurkaJ+ALCq3FWN81C8uJcxsYkcWToyk2iVsYpLUvgCXgDc0gu/+OSqX8h1344q5U2JVVv97NjfSjNulwnbpeUosU6PE6C4s9KFFws8h389ZPdrgKdrw/0WzAPDODPdxZ062qWINb0nHA9D1FncCZjZytmw78xk28gkLey+8hmHjG99HWmWPjuNOQ6YCImfiVBq4bURl4x5+LSVjRtwcz391oijkj5lfR4qDyWcxKYSFHZTtLO4jbeqBvRJHthyTIkfpEfAT0bG1reM2NOmVzXf1ipJ7LGSbOmBv5A8to0PFgQB4gPuD/w/8EWEacmvZVQJS9LF/A8IB7Hl9tlzIzbv34km49fPDNFWhyO/SA1OUq8mNilhCsTtg9PEa/nf4voE13bh4RR4YrIx161q8NIAgnO7yyIvEPdVhnNAII0IcEsXw1aR0pHGm0Q7AQA7RGIPySgyYNwZPscv/Mr91kmUAeNTbsuDq+zmH6LsGnFTDKeV+TY/T3bZxt4IuuRmJu7W8iLCpw9LcRFSCtuGDUkW5Xh96FC9/tChc/ISjuOwOL16lSQusYHtgByina2mLuWMCHIb3Q5MHAk+nwfstSV7hA6N1qC5gwXvt0z2YXGyEqw5BTAAVDUqsd+gNpLzeFkA1toNDCE3gQBy8qOdbUYc8j4AI25RCA2mvU0Qbm2SmLhMOdKGKePAgI2Rtgm8RKj8lSABBIe2V8BLxYcLUg45Jso3O12AscdKKWkuAn5cvVEmlbAdhjdv/Z7Lh3fgBVgVylmKY/Uf0UOzptFpWtTyRWdJI51C7RvAqM2QPagU2D+L4IflINGQxws8HI4BOs5NlsCsTbe8fNDKtlw+GScN4YiQ/5gnzwCfwjv3BJMDvGEWrWeAUCH0CT5N3C6btiSKHiFeJHG0KtB1FyqKzKAz2GdeNKqpTDGUP24ssmEYYBPlsOUp91d6YsPbYe5n4ZeyhrtF8D+5O4fbxicDfEmyW7J/L5bnxjzTUMB1xIMGAeWGo1WXOSZ61VwF+GIWdwfyGzR43sYY/HLdvlDh2FaIo+OF9X3T/T2SoSpcdR7VbhB0qJPgFVuAM7ICJR9VXw30zp/lJOWxQCH/qtgK82+XP3CdqGiY4+NK3PxCnfoM8AYIDRKQjCoZh1ndiBuxP9SLYj6VCb6fvxC4sfAI5qsCrOXAoNDKZ0e/Y1FnWhEMyrP2Zg9+LStvCqy+Uk4JojqZEPoeyx8KtGNbJGgAEDOA914CamyD3fcKW3tZ3qzGQ7DfDXS/ZPvNONua5CJC3P38cXU4LHIg8GipI8pnh1nSrrDaE6mwHsthm3AmU+ATeZjDaF5YrCfnxZPuVNg853rRmMg2FWRm0D5NvuZfOoSgTvPdQiJuJQ/2wy8++AU+BHZyMnavE6VzVgquec16q8m7GqQCSLDpYzbHzvuLPXrzgoy2dVHrSsOWLXab6Ag0teqDiaONew+UE/leB6uYykphQxozjtpW3Cl58KhZBY3IE5UcrXabPpxbQA+UDxP/KyAlWvWJVhKLXC0ah6x0tGCH+2XBvdh0TJsjyk74eyFO2oHXYFgp9f9jTdAXpnjcNKBeCrgajQ8aBALSA+wNhGH/wACE/cXtlmF/h+uMAvPUJP/sJpQiK6us4Y+CCvCOLcWESeYJRCHMtIjdLL0R8DJNlS5JZayyiT88Di5UyqQAE/ZhQ7KXkgdMgfwi1ICk8hvGJftnMONYu0jLcYoGywMDg0wPTfKMGsHxV4ikdWQtpM5pbI6+ovpoZxTer5Y5OiD3h6HSSmTnlseLK+fxA72Sb2/8HpGRbZcSagD0HrucGvjps9OMveMkgWOlGd50r5A41yqroJ6eBPPZtUEQK8QWMAlx/arDuwulgiqRusYqnHskMbplrOljGx0cLyuZFqRA4V4qFjIhiYpymKIH2bhwqLj0KaQBjmgEIV64sbDrmiLQtmGqg2OESvWvU5gLLau6Ty6gV+Q2MXHtcrSLm+4dx9Z1AzqSJ2ag5Iu/loLEbdhCvfvXLJA7oErK/KmEYqBD0avR8JdgwtG6rK2J8NNhElzxtJJMj7GoKcjUR1XYCe+AFGLagq227WeLkOLrXUwDxF/dwVlpGNlLg/mpQT/DtmZL8/4CBKlW1Q2Y2ktkt3CqfFcUTkJNqr5TvJZYy+NeunqM1N0FHjtkMA5seS+BVtlnUmZRAKgMJAA5BN7fvLN9r+BFUPoF8M2/bRq6FON4NjizHOLBUQ9D1Id+QOCRldhL55KEz/6cZLpgitQh57npVFgw2uVIZ0MazwKRgEbetmrSSOidFQTs2xWgqVNYPqoEc7cCP9AtzSIeNRhPXvmlEpJCKiOnGCbU1d2I4VeHf8GQzuBziOp/uZBrxwwPxy8YEzWXF/edmT44T7WT4sXobgydEQLLOjnH/2bOUS6uizJU6TAznIaE+OgQ7LkBYJ2NxCieVs15ZX0tjYG2XNGAynOvptOG3v3phKBDlgWlLxrkAUmMfTT3N+ADSVykp5jyTfKu7FfqsR7Y16O2Y/lAeyRP/shIPo1AtZLj3pZ4GfAGXxQSnOdjCnGdiUJqSYAEnPbKy3S8s3/0/y33+l0ilFX2NjDeSv0+KwNpIXAuKh0FU9T5MJwXY+rqFBsHG6rBdkMZNTuIblbzx43F23fjB5p1jSJPuSjSy3sKxrl7HrB1GSYwzsjZnJZ8vSAgbrJRoaT5rIQfjQDbQ91aCv92s5daHP3SCeWBV1Yt2+s5tBg1Y40iP6WJoeV0FdTBnMoEsyC/eePfbiiRpZ9hlv0r61HFI+ZxmGu1Zg3jSCNLyM32mCZFq9ibbV4UCZ4P6NbkpZfqP5kOK8LrXRA3hM6pVvAT74htJsQNTEq9h2u9OwfRk9ghVRWJLMCmjQ8aBAPCA+wNhH7uKsOS805Ps+038gym6joSOAyds0yJVfvliBYR6RzcV30FdW8Sjio452YcpbTZ8GWSXf8xPRZX8Y1bNI4kdHGb22tUYPVk/rM4GQ6ZY2Gh3cmOhDlxuAw5l3l4wgH43lbNjs5K7KlavNBwidVhC6q72jqnIdpsEwQkA/l2vL5CS9KlLdX6PINACVMDEul+UACqNCGcjOnc5AwK8aCGai7yjWW5mtX5mnFKD25+g//MC8GCdZbscJ5ShbaxAYz52Aeh2N7d809ZQxiWzODlIn1ewO3M45oMf964DksBcThVawG4jabPoZIR7tTFf+fbYjc/XPkUW+r3zheup6doaeeir/UD01D2bs96Y3Ur0CQxWSOtHycgz0GDt8Ew5dBBH6EKZFK7wGygAjrM5SdTPbYnyHBLXPRbLwSIw6hYziWE1j2qr+CLbA3HHHr4k9lEyabE+3Uj2CQEj/p1jQzG7+oam+UeBB3aCt3olYt34F7RNr/QRG9N/4ENd30A/yUPUUTa77/f7SEug5mF8qdeworPM852jUjsTvedPKhrOPb8oviHOCbH4z6vAzS+b4ME76JQ+DuM3X6eq+Y/5I8Eh3Lq9q8qi46O6bJ4rGzBboofSksu2BgyERwUzt+MQYJnASx7/bieU7a2QjXwuaYrQuK42R09n9boWFY/TkO+69257V2QB2qq2cW/KFCRgUa4zhoWrpLCiFSWqbCBczY49WYp3gEby10iNkyQe43cigsEfU7o4xoB6pLQOzGj1G33CSwCiwKSjSLIWrzg6uS5tYT6FAMByxcGW8ExdkeZpwYTsyqhapK1cNk25AgdSdV0jTD6zz67pZOYvVmOpLrhRYRizCpeTVfdaiocloe1ViuMCb8r5IQEZgUEsbZTaJ5rKHQwcErZRhtpzngYM/k/nkOvWCCGQMpfELWEGnE3epXTCC8xvP7BsoxBrUIzPK1MEWCLUVzEj8l6On61aMPooB1yFxME6xXnXu/XKKKXqYimijLYKVgXOUETM2xtW2wICj282ZJSy4HpRIMUYosWuM2MzKZh/BZ6olQCIh56h/IDR30xiKYY9qH18OMRfKoIh6bNlj6zjudx9Z2eMA1wjkIbeb/JWwaPZMFEX7KiAQ1g0Gzd7qZlKVMmjBQad+TJCfI0jjnJWHyUkTV2v8HlfJyuBfAbgFS0vKnC3mD5PR41Kf9KJ0y7EimyJThA446/CRkZdZ3+Q4vDIaK+wc7Pfy0oJW/tHOvMqJfQU5icjtvv7JBm4Lg0G2GHCtVcOWuujQ8aBASyA+wNhe7WSqCc8jEPzvwznw1FiKxoirPpe5K2UHLdKph9kWrfPVZ8sMJ1eXmlDOUfkZYElZKZIYJg2FWXBjoV8+P4BTgS8so4W6hXDHpkjhxd0GH/pcMKbmyimnOJ9oY+IVINjYorMoXgcUQJdnS9fCAgEA9OlUOF9Qj84RzD+XYufFOCWC5v0wEumWqkPgg9azfPo4gsGHPbbrNZSBD+dulpDujsKE0KSz3wUK8ii6n82C2rYZInUSE4SG79h86uGWQjdLj+77D4OwoigbUB7afsXsJ/wDV3oy1y8fDS+VNk05llDt9VhCAE+M1k8IH/aRGqGDF0p22UiHseryqKKw/P0m8ytOmQ+dh6Tz4lnDFlDt+oh3WvprtPKRtSmEn0xj1hRNAXr6/gdbwPVqcQhiMlTSKJNZiLO0/PLEMKvHWXIh2E0XX1D7Yo/oOn6nIIS93ckaXWhMwUCncyQwaV6N3jwd414+On9Sq1Kjs6tkFJB3QwprLBBuoTJjQheFYEhZ1DQq1+6+bE7ohSozschQjAinYXEyBRJWcBe/n4DQsVcx0Adh9fjpTHfKpOsOuwnplGziDKyLThFSECjYSKeKTXdUCOkskTmB0Ae5ivYvykUIBvjJ/K8jQaXNfmwJX2TdG9CpoH33V2GbSZJlDOYsaKMXGjn64s0WeotBIxeRu6KN2e0sooBFbL66/V7TH4Fx9NZHpLNocAWPQZl3/Y0yQYDfdU8LWz9hPtiqZram7Fhr5RLLQ+NvDOfES44oDRK2iXiKjHjuwI7mGeLEWfFddn8CV3sJ+pwlez9MKf8WagsSVM+8QlyPmDWMRRT+dMzUTaEtvSV85GH9foo/QJL72HlYRirssU4afuwoqTbbhrNwVTLlJprYoPKO3ECWuTF3C/ifwbhe8spcdmiNUs31tHOU/AekPbAr5Hg08CqO6jco5otSkQPEVMfhavkOYTAOnkxiPsqEHK90PFx23bUqRym/M3qAPWgppGaR11xpTi6f4xAOzm1cuI/rcojE3PVP+hJuJOpexBxXC0X2clZUfjmrRERgpFboVkSx/dvHBGBCw5PkbJPSVCml4dQuEM1gVB3BkuWBgXZQ/HYDP5d2c84z6fZZM/Zd+ZsEtYjQtISvoBNqb7wSY/z6+2DP4YoCvfPFj4kJsLnpcmTw1ahUJImmdl+ARBynqUDbmzy7LxTdwN/ujpkRpBBWb0doICXwHsw+nABvkjMNsKD5+OG65qptkumrwl5HsW0qkJ9hvMGwap9bA0l5zMG2IUURm8GC26jQ8aBAWiA+wNgMqTtTxCEE+/7y4kYoSomHu8RDRR9mfM14Fd7/SBsflf/nmLHKhSH0GQCDb3Wq8yTycZQ0+kLh1/c1Ax+dyO9ntAGfH6F8WxNrRydttWsb13facQW1kRaYW2WfCKiMdnaBix/4KMhrkSKVIsYUeEOYWf3gLbhO6nh8fdUT8C+1SzRlKlzPgXM83tbsZa3xJjDxuCQ8tJGVh8EJgxxDHS4N7zLURAEfTjSu2sz8VnC4xkPeuoANfIJ90nQ52r2lk+ez1kErNOSdKhzkhuMvphSX+KziwEJCKl1X3SqMKZQ3Ekjx1qNoY47sm4veFv1CLQSMS6A0MELPsccTo7GCBlABwoXFyhwzHjolAOm9ai56S7cI2S8WCbCJ3u8qLEyWl2irMPj8FdhopHU0vO9DMf4pPsfpn64T/LaL+1RK1XaAGB5WgFpP+nfZT4aWM4R8dVwloF63pb97RrZH3QzgF6ARFQIVy41hN5wlKtv8wNTzLhQdFcycrOwhoL9+z7NPEzYYyq/S8yLLG1ReIuYF2MU2PPuL2/QuFZpRFQnuQUFas616HxG6KqYXrhwhECaibu5cHFe4zrWXBdFJs5qfMdGyG0xT3S+DxyzWffmIX8esuyiVs9x0RLQayCBTRWA3waHcC2F6xhzaBh4fkrQ9OytL9SMy6LDf1kzQLSI/QUL18IMr7PU7eiujyToOjoDvTwvYnyd/B1G8DnJJpiPIEOrPYu+StszfkBHS7JPRnuiCMTgtmYHQDbCyx7/5o/zjJ9gIpoR+bH37+O6pAs9bpzj9b3bVKtgLhL9hk5c4w6gZd4e7tafrzuImJsS/CfajChDfY9g2bZUBgo6/FkSVpupYXrRJau6VpBLtwK8Vb+xi/ewX8wodePU+wRdWKmk0+RKQRNGTn6f6cjOxlgL87mFBt6w9or6tHKwH+rQKTNHk/sL/XqbbidaVz2Zv3Eh6c4xgF354ocKC/iHGT/pa9tMHeT5ZDvIdGWrlyvMggbBgv3GzW3ncfUeKvHGCKifLBPWMGJOpXYxT9OhaYyJYdTpm+bM6Vq+D8KVa4+Z1weNbVzwZ3GaV9KdxW3jlBX2V0E6+S+LORxA5SwVXbPCVpLu6z/iHS/MGOIjGTx5Cj95XfPg9BjintnJ+fnlfoUrt2hZqLwQehIZh420G59r4kPg9E/tTJLLc8jIj4HcXUwfLThvES9TnsJUubiE1vxfv3/E62LO1UxlMVAkFqr6bxbRKEGgLWtQJ/bSRz6GVCb4BTYHRL4aff4JCFQaPV7U99ejQ8aBAaSA+wNhgNxA3ZD5ykq2FRL33t1QuwDDmGXWuEY/WHeAFx1SX62C/EZ0s1r+JqVSgLSJPGgCzRRG7F2g8tdkRNCUl9u80hPlPPB0UbS1NH+ACGY67/xsOzokMKjpCwaaFPgO+Yfg+hg74nbo6z1BVGdg06a+ajl3wXD0/vEQhe5ePcTCMDpVVrEff6JThhKtJnhCS2zObQ7eG5Z5Zk3mQ4B12H8hd1TERRCHKb4gJgw8mPOMvCnZnV7MsZgvxO0ditvpbbwgEDQFUigs8IrN61+R1/5/2K0JB2816dHVTwAHVeuBA/g0quMDVWvaB3FkpKcBaeWnAKUepn9JOEfpJPObR7hCx8FiiShYQ+DkKiKQeSM3U3kv1LvBzvN6Nbc/vIzwA2HWMnfULakoULuyWD/IBtcHyMbpNYXfbXXZFpF1BIU5l2EawiViYiZ6GyAMyUIAbvggCQBaGk08TMDWfWV4VAy9uBPgRKolF53yWuhFJ99sa77dnXGJjQAtyIzX9XhaTNjBN4NgeN/nQvdWmoczz6OAxRq7mdzHuQVBWcACkA6Hh0T9g4aAiAgCOYHnDXe1Ws95c67gDAa/+kXqRt7q8cybh5H0eLzjsVhJk2ye7qeHDyD3cDhYU+L+Pxf/K48Etuhk6VPzYPshVzWS3Lqp53502j7GPSJLy8X7C/2fR63PfVLdXdNCc94zc/Mr778xBn7lheJf321Sb2Ebzo7rtHeyQxXLDYAx7YYjJui7QXA1FVqUyUVtbPi34TaDl9FWkz8bVsy9TEiyWRZc6ucFFsHIBgIGIn144Brkav0gY4vOwydSxQ1WUnRbN1xBg2Z82dP41SyDfUws4+cFNqE+56EnYRhzsPM5Wfr1Qn/V7mADTTQq3KIbMIJjdWOgHqYhsRURP+2k5JxKk1QclJX3VZYzcoaTqUtSYrX3I11MHG642Nmsves6FKxdGGyJaD2UiW/O6gI8AT1TsZ01mqb8peAzicExLjILVc0FqqO0oBbqaBks39TMlN8WMmqHkcj9WPZOhhkqZ7ADQlQlotS1+8PKLOh+ky54DSVjJpno1+N1npkdR50tRoFefOILV+o240RNNIvFp86mVRkDaa+zFRXZ/lblAoj3TLpWevEKU0Qh69zg9kz3iTGn8cDg/tSxSvhaHGxujkZ+nm1JcCeAl9tXscu5xe1jED1P48W4lBHQmf11DsYG9gqoUvjDISAX/fPcO3NnvO4XDzmT0+yCcnyM2/aVTBnNJUOELDxkuYhy0FxvNXxZgFIV34LmJQV/cvSjQ8aBAd+A+wNhGqCFET+0KlMQe15g5VjLU5wgQzFBJeMfIUQ+PaD0TbPhjsveNlE2UW4Q6YhLeJ37Ipy/4fXWXbnWrYxOCqZ9VoZTBUKCHFFzDiXW4T5nxgQEpAwA6UA6br0VP+XZfiq9aERK+ORiLIDJnxEGYSC+gGqdUOZYfyLp79CrPhdpJygipEmxC53y4d3bDkyMxhf9DMrZ9yzpL2onM5wQfgE0suuLJglCDDTalt4xZ+pndfNlKX/IeRUXUahQK05jzqZjOGQLrzHm74waYXu/HSSclgVqg5kosASb/EuocI1Xe37+Glv+BGc9HPKitfnulHfBoQxA4r1DdKHEFXowbiXMdTRanmnwns/o84lcvth1vL7urIr5SlWHWOC2py8qbm7s5B15QGCaEO2zyHhTUjmvYqtnEmEKgvXpYycI267SvmENymahY8zLJDxwiP4pi7bQT6oukFveazQbS4wQu4oklUenpvWiJyynOJ0HdOP9cI35IHyG8p4j+1JTIg1Mh7ejTFlQpYDp6oE8BRuhE56O3tHPNaI0jnlHzvTeylUKw+ZwzJHM4uhoYYOy8r9qQqichYmuovKo+TFq6kdY+JFfMBOoCrkHaGp2LExwbXB9JoHdJBxJhqQrsjJP2F3cwbLPLCwFlos18Rxse0LMANRzDHh+cxRLGnCkRXcJruka8TJJycLHohpyseFHTou6kdSzJOsxBnlSnbfGmnJ0cEjoXJRUM1AMCJI+1k5WyKpC2cFwCM8gAgbzOfYvEyharEjpaLd3xLwq6YNBhKuvkgzP984XK98VI+NK4swyZyKd07YjMCbM7mPbPNzDmzIua693vPCh9xMb+QPx6//8mPNMYTXpPb6vigxd6W0+Jl8KPB/qPe/yl1QgeouTgyA4edzZ/VLZi9CozQ8BUwGG7nnvzSmI/xlugmJae49mwOpFZwAmVO8JMyTzce+zOuHGYDJNzbKoHQUVPtzaFIoAdmFBKriX6ZbPef+uOw82TvXv5u4kyyry81FQuEeWPNzam6easmUXS67gZ9/qPvNSBondhrHzjn3HpyB2hG+kohslfDOUkRS+Ji4z5nPwYRIPZ3oWZqsK8n9XFbUsrRxstMeUG41N8lnvNaPRLeHXPE4UWowAiH8H5DSVkpc18bITW9ltoyjg26dhkX+En2wCJRRBrDIe31Dvbvr2+A7KMaae30/2ZQZ+vX6g4tLAa9UwxEiu1hsTJv6d7J+zckteYNTxk9EaYB0k3vcHoUTGbveDjQgYMX4kPJUBwOLxsgElQjmjQ8aBAhuA+wNhGr5lpDUmd4r/YQdb7AA6T9TVxqhJXErBMQz+/5zV72uzf+70K+qz6IwdX81/FkDUAEayhLq1i3shHUTDNUj2FzwBsliFOwgudMqhjahuOHeYddh16IDveZcr3SH+Qi8KhDmBFQYZxx9KhsQ3eBGrMPJ9PBHDdYG/zi++XvorGGLItHHgn/5PjF/c538pYr1Lg71tVXhUx/bVqJko1OZ8cawNzjwpEKyEIyYcz4Tn6WsLFU48n0dxUkitOBA3DqTELPO7A6i/25vr+BCEakGuXgtdPaaQ7KFkl920q8aSydd/JvWlrQmgVHZ5suO9W+3QE4UB0SpOIsB2nKnYLYuN+nBS4/Bn6/FTf04q1C0O2+DohGbnZ16Hw+Na4rjioi5PeLKxKwCde5cZUKcsx/sWuIsg35T0OXXqsDCcPKq2ymEav42Ne5L0B7Bd3MMLTYtz3O5WZU0ncBLulIE89Y5M0bnnULpOBEgimkC1vMyg0xE6wHsDRrirAlM/H4zKNIGrt5a8d0uTsZHre1FaUQ2kX8u85Q4tgTwVUfnxZF7AksxtykIRsrQLWos/fhhkzaA40kTlQjLckp2ak9r/EUQImAjW9LlGOQFrkKUOFs//mqqKizLKox6raCpBZ3P0tEbNVdBCssBRXY3hDvoB901yX7Stufn0gnjl/4ZR3THXqceNGJU9KRuHDy33a3qWBvYSy5QzAfgw4DDWpAWd9iz7tVwzIQM7Tb6TWYDzdju2eXg7ks4CaAmQYtu36LV/e38NsrlXK0/Ya4ljYFwePwXE3yhwGX5XryZ2DMQ6cmVgfdZnbApErvJrkZs3POWte7j9G7gUrouyE+mFHKy42QWVYRqosDnb1t6RBR84EU4bpZNfgQHGWeHfz5MpNTJ4p4ZRRMPcH26hJ880g0XSqszVto4AewkI76j7KQM2nBJPEenoHS2TI1ScyaQnosqGd1ulEvwYuCi7ZeB89S9UKw9/Z0KPD1ofIAq9pZHHqOrdVeQ5MzrhaGLHb9o8NXADXkitEQjNZJ60yXiFxUulC8qks2t3dEDX7mazxVjxzQR9PTzwYvxl7hFSmqrAwhVOghjzXtvLzTW276BcYRIbJ11ICjX5T1R1m5Mm6RD0JXn5vyP1j/kTxiVGF7/J8hqMkAcjvG9GYhkm/GVePulremWZhFBtYrAnh60US53mrgxZ5o2MTqw+6g7L9dY9NVzKZ9LuBZYcmhfte6b2/aN0st263H97lK6Mb69dbwWZvp+BeKVPJa961314C2TXGQU6AxqjQ8aBAliA+wNhetDz7XSRZX1ooNLUuD4QMErAmJZbGHiNAeMArM6YyPEtwZfiChGf+nv7jbU+ivaKCCxceBpIoOFmeqmV2eSQrglGuOfFPrnpbxv1XYrq51CaFnOyhFx6+dURUUelQLhzFfAVI60KzB4oSPsV/lm3b2qn30I5A8RrPte8FvFv56Ay+jSRJKAoDPnyPFw05iuOBpVqiaNvNr3/XTHTW4O3LRV0nQTsFp15fQlxF8eBEFpKTKHz5nT7euxED0xqKgx1t6latEv4KjfUtpFm3GBN9dq62rPk3G7w29PmqrELx5d4WfNi4PHRqJHiGbl521/NHOOUMa+8HwRa/DEjzc5PYoujpwTXX6tkUAv4z1cDuOR0dM3Aa9n41VHMmy6F//67aJxGGNK1NApoPzpTX2Q+mPkI0gof5fTJc9ZYrFXfVWEYdigslBmmWw57ZbBKOahsL4rlhFxObZtHiD8i5b8Xr2kQ/6ku0OAYwefBxIqbkirBnP9zW56fddGSNbKWGfKYeg5pgH3Pss2adS4LbTptMopJ+75G78hhCh112fQtB6OXbrDwZ+suBad+WYDD0jYGoCo6IaTryDWV47GTbj4Arg4fpONLsjiKYyYOuDcVYDtd5GGGFhguhQ4Fy+gIThy+MWNKEa91QXFCKCrcBnn8BIabOVjbIH/tIrO0BLKeDUXyKyA4baja05cQ4Hb7+GTE/dKwuD7NCBpIWCIdN3RukgnzfFKsOB/eEDdo7y1EfbSiJvjEzYGIc7LV6W32dfpcSzWP4O3lVy2VZA2FcpAYxboyfqGY/uGTygpIlUpIJPXOsDkSDxlSkS1b2k/V8aLov1hW/fnL5d0S8qs2Kq20YQsJhM80+F5unQQirJfyFoaUg1ah2TEaXctY7+LQ4eAuBvCO5ViLvFO09pGV+4Ge5OUZO+eL5RIlVOUO9ecLgvZUd99QwEKQVRfH8oTe3T3Ax9ypAtgwow3xQEfk0T8xqMknV0QDQ4fT+7v+krmcD1kthtO7uMft5/O0FFaJyL5yq4BeisZ8tNU4qrd2y/aACjZ8FCgaT3GDtcs4/qZK7sEo6tf809BbnPiM2+fmkrqOBpsCq7neeMAuk3dEn0PBVoVckYeziuo1fAHq+moFmFAII/cY1+fAPPwSU9n6QA8wkon0aztWccAs/uylmCSi/dwfmz5kguzPwMDs5vMA/zLnNj+CUEb7lhQUmLxurvmCYFubvFRr2vWVC/QVI3hJldPmRs9SN725m7/0YGO0vUVod+6xmvR292U0njSn3VajQ8aBApSA+wNhDaXJvt+fVFpDXid0Vu8uxWuaVRAB95K+bICPEzf3p5Nh+r4Oy9FENZ7c9QawvdTpHILpzw9UnCmAMbT6FkUHg46l+Wj7WqxzN+hQY4SwGFX5CkRclVjrcQRhgoCBOoOK5pgs17nonx9nyZ8Zyfp6hc6C0WTdhO5xS+odhbwK4noFNrJPRr7YRaqyfadLxjG/rqzfpgBA9zi1Mw2rs0El3i/cA0JEW5dzYnNfGYE4EHxOqNbLOCDRsy615r6K65B1w18kQH6Ods6a8DdxwPtOdGoPnFlsNnyF5lc85Cck2pThr2NSLh6ROYDxQJPaskWeRmgGYDb/UFmrDV6Ov+J5mc1lKJfKAndkPYjqsDLJcZo35dCI/5USfHLzMrWaer1BE7I9h6vjP9wGk6lESbIq+c1wrZB1hXYU794+LLr1z2EfF/p0Te8yXb248NznupJCo54JTfqogVZsEB+rsZgkqEFLCASNTcW1H0JWgTReW4H+4mOhbF6RReuVvrlMhQH1c6/7CufzusA1UyHRnEtPiN3M9QEZMkG7Cq0/eGr3GTqGzUys4yeSCWeUGCtq5ODuYTlUIVR070q0Itv9LGnzadEp93tdvXk/C1w4ICia551K95gK9QBw4YSpqQrQ8UxJywCdgdeOviQRGwtvFLLYOwZkFY5MpVdEac+wxcS73SppZWPXLeJNGQpPFr7sicRHRaxyRtYvTLnOwpxx8APeEQNusijiELq0v97tfKXfc1gQI2lBojA2K3KMdmdfTlCt1tbu5lA4jaDj96QJzF1XF+kp9NcC0G8tslhfr4Yy78eSgaa6VKbZO98gpOd6myGa8bOrNh19hKhS7w02ahHUYRrl6tKP1DgRPH7sE6Z1KIDWPILnIGskyWj4/D/sObbODfBT+pzl/sqv0ODgWWeiTd+gfVFdfpBhao2iy4f7XQbpnqhtJnb3PbTOIFu1U6wN1Vq6/FuIQVgdFT2SMv2iVgWkON6OClD7Pbp/g3pLp4bYktPhMqPAgO2zSFJBYTc50UsIRvKHQHtEuYRl3pc+MqkM8Nf8G4kjj/sb2qEMpY8TymEim25xDBAblNeCozE+Idz6UfPfDtoAbd/0dNHI2JtzxzNyFHTwEeGi+/l+f65pjenX8ZEO5upd9fEUhiAvcBX3TK1ZuqeQGj+mgIPJi+71Ge9X++sBxodMTFnlYvVAHb5p5ZLxAz3aWrkkGfg5OPK78+q1QU975GqIsz8HjuJEOwv7RoPOzjNC+Y6M/Lif2XQCnrb4C2AdI8O9sLWjQ8aBAtCA+wNgapUsWSwpwnWwWcomXOgtEX06hICzKsCk9lE4ge/tqWpid9VZxOOTfa2ZnBTJCNfZ3z76sQ+MArUGon6Afsze18Sl1VHJIQdkD56eLbH4iPhwI0RD1pzZfZ3xfLUgcHtW+cqrI4CUtymOMnXy63JoXB7ex+vreXjB2sCX7ICtjpjavQgpuIEezlVezDMp+7tr9a7L6JFU3Kao67QwbQ1lUIlMFY7LCCspSDE2EAOImVmcgkCNVarinkcJzhUbZ8wT213uFOAw+lixzJtqMyRDGnF0lC6kIKpnts2g9b+nbw0ShKnqYbUOHdbVcNbEvITe1OTst1runjRrkUMlBBEW/x+Br+Eiw5FPceFQCAlE2swB6ohomMuhOyUwO6QtWZ2Uxa8CKIXefheSbl9zEJbX0ugrvAO+WpTZMZDiEGpS42As5I17WC2swf7n9LDNjDl4f8YPBhl0cPyXPMmWHdQ6QHD1tSGRoVpBmG0rnzDM69+9jDH3mq30lMm1N7AARrxw1JN599XshaE9SwbCgB1Mqtt8nE6poC5NkciUq5/YyndJ4VVUTuoPnYopzq9kDcSX40oiiC4DWx0hY549ZOHm8p6QfN0ZxprP986DZdWh2rS8F027SPRO1zCxw4i81RTIPCg5XvDl4nSvn5hHmh38WrUi/oQff29p/J2FKNPhmQnSxpYo1U9GASfR+79EokJbaALBQ3nM8ClHyrptpFVhq0nkS/LmgAzSBv2A/NyzHt+GLgrTZAaJBxDr1tgoM6d1fNWaQetanm+KRqAOAhhRSkbt3NjzsrSGYHcm4VscoxN7M2EbgAbcI1EOkSAML5/Q0OBmd6Ov9uxWsWu84s6AYTXxnCfmFE0oqgTyTaC66OyxIUED6+89YfjlDAcSo2dCS76zxMGO0y4JSMWD5s5QVNj3A+MiBdHGryj4GRZk5C3dVj3huNh18I/N/C2p2vVzsuCuiK/igClPJ2mhraaYnpv+AOunGnu04uw3Y+iEHP4qmHeZ7kRTUtuCe4KidlWCpKKSTSsK9D0Wfyw4KjjszsAsvNEI1sr3aIoWrrb+Yc4Q+Xz1yvM9sdbUXvwFmUjs6s6/hE6HhPYF+T3FkGs53VZk4ZEwaNK5ERZv0wz2P9LiP7Kvt59hgqD7Wg2tFPzM5dem2IaRZKJ5VaRUq7+WDT3GI1FhachKOpJ/Zy9BpvYn1xQZHyPogzsBySoKvUBhLHUshHbd9nT4VEY9quGKDCK7APE2TXm96rVJyNkoqMN01nLYdTGE6oQTK9ZNZMijQ8aBAwyA+wNhIfMASJpdCvjJxT4u/VuQkG7bGS6tYuzQlOTL9H509u/4UNg959K41DUCfEDjcSqHBmC65x2Fxs6PRGsZPw5dxwjTtySwxeAfpNr0ag9shzWc69uV6iY9fydr6QHTr8wMylZWMQi6y49ba9DIo4LKy7AP85b4XYf1PyeU/8I8vGz4L+GgygQt06Ryz41Y9FA4ajJowYbv+KysJ7zLAFJ+WiN5BBZxoaVBoc6k+pIhKsu3Qt8/0U1faau/U4dvJFKea9b5H0vaQjvGCgxQw/ZU0m68mBL6jX/Bc3ic/uG32BW8+4dB4OVGcRi3jYUIxeXiybuxuBuw2za9N7FaZzWdL6ZWy79xAzr+DKGUfAIZrK8qx7HzXEkMGYKlTjDD7/YPnihJN8hIjHPO9YqwrSPY5AmxcAaspoTkDdLrxNKOCmEbqDXPYz7j6K0yErT27XXXlPnB/t0GGa7l/qB6Q4oFUhF+dAGqQiQ7n/4IzpPb7VtS4PiMxxxDeA2F5+LXqKXKmvzJp5tJW4/uS9itotCBUxOjip6E6vvZX0twkXjgxI5QJn3fKi3WQCOQt+fRQ4k3rPOjs7YG+3jTcAACl1m5j5u/uUJNrRadn0yI0YKjl4n4IlW2xOZe2VW3tkf8Br8E/drVc8Fhv0oH62yMNyNtqhxlLXC6O+pTTC+Y2aoyJBh0eVt59fuB1eFfc+guuc1PzR+rDDOFlxSQKJ2HCAzOU/CGfOKOzReZW6I2iiYISfuw4Xo3XliL+AzaJa/Vi705xzrgLS7xEb1az77oJqvpTp6AxlBZJOnrgM+SQaB3iNrqZuTwYqyCNvByAfB8Pfet+ozXnqnMBfsx2w40a4KDYSAdIPDdNtdTIjeKX7cCLJYH39sVkG3cgtUNkAXxsWtdHAGcgYQsQ6sWKUTbX8zJnlaIfM4JBhExFUxnY5Zzjw8CCDrN+0jgQV3qAFwjY96qA5vmJU2utPmy9VlqTQv+PVymofSKuED1KffGqOAbCoViF2F28EowLEFglIe2UfwusX9n1yS/agEVo3uRUYqeQk/fl9lMa9G2wSpFukySzCufKMc8ESHpGAGjiODuBv6F0gsAGVxT/zBPW+Ln+LCRhlIaR4H+jZzOIs4m+9TXD03s39HigEdbbSclUCxiSuTvRhpES5n5zTi6WYDgIILbfuUvm1uDnV161Q/xZcJ4PwJaT9yyyeGjBlpK2IM+Yu1Op3kI8e99kadJ8FnX/nKr4evydCe4P4ZDEVYrP1S5dIk10jx6CS1nyCd8a10q9BOjQ8aBA0iA+wNhH/68UcXYJeADg1rKvfhHdctSmGLQGCJUfAZkZ4YntI27C3N9USG+L2BCc44P9h/TbCqlYyGPDmiRMCyIB0SQ8tA/mZDb7S1EMHRGXOuC7bLVJ3EKSmgLj71HlZBg/BUTRCnAcnKKfwpkPCi/zYDNMDcHmoj0+yEvWIaOBAP1HNDIBXKOV2cqfBmzy2NEslesh4aE56KlyQywvznv97tiw56rLfl6wfbWV2wYacJgJm1YzWgCk2HsA0e2TCpaSC3T+kpyyZ9E9qvKu8MJhb0uY4PbaUDaRokat8HskHu34mMOAMWRRk8AMqD21tEMWLGBAgr5+CpsDCB1ibI52guxokHk1AEuxVyLDKsnCm+RJUys0ToYWfVocaXHEyopvYSbwNwk6woVfwRp/faKnBtUsgCXsM3M4ATX/46j69chJWEXbvdy8mAuw/hVHJiRzQRutJnSUja6T5SizKki1dTzX+5o1Qya6tvc9rkq8A5lERwd0z69d+HET0kcdDOfGcJmOHdWZqUC+c03LV2TZz/wL1w9GigzuI+s6Tj+hRlE4sGfO1Jc9U6ExYzfY8d0XbTiRZiI/LQn1/XPE313/2aVAjEepJIyOFN6BnmEGAFfDQueO2ln3L0p/x2CNWQLjZchtIC8/dnkXI7+Q3hkLZk/zvSacBCe1OfLiLQY5x272qkV7ZSnsoZfxQLEunwZTuj11M1JpH8XIWrt7Qy5xqc2X4UfPmF7Km8L7cmwYaqVEy5r4QHKLumjVZKSkUGOoib3T19XkBx4Ezs5g1T+Ft3dXyX4SvcMr82wqQ0/BKwfHUX9wI0vxw6Pcpk//S9A0oWkfjO/JLHP4vtw6tGu3njKYXuJCBkqOmReWw1cz4mkFMKAzzzgDNx6SGr0LbWL32usd6H4OJGEWUyoJgz0siCqxmkKtkg/WKuOhz5wog8u2VHlZwdQIsylHzfL+qXEfNySdWFQ9185pofrjv7csRVJkfsca9awE7wmiOWt0tLTO86hqfvoqb+7guvbgowKM1XY16gYem5dBQAZ9/eLSv2GMckCIPQA8snA19AZf8wbEjsYtGTqHDRgHRNnyC+DA6aCCFIyTzMv6QtSEIH7HmniCKhdIXyHZ5/2deI+w2z4U44C8qRY1uPkEL98t7nHNOdgJJXgij3xhspJN+Ad5TqKqhm7BZT9zaW/SjLmuy1d82UqP6/BPAeBOoMnL1etLiIgFW4q2AC6o6LY6Zz8ZMFeEWAwG+T2cgmNDP6506Kb4KD7gAX3gKqG5lH0w31LP9ejQ8aBA4SA+wNhGH/wBxCulsEvNcSDwXXTb/nGFCtVWnfE6Idy7bla57URL5uGw87xcluYS/43csn4Fj49peMyGxSxZZI8PZ3+g1+OMyryuQVGRFYuoZ3n8c3+ncL3c2AHHQU+jXQO0Y8I2whweovSCRPP/Fa2SY1HX2qhCU8NzgHTaZhhzbJCZkZrUE+a73uFPUr+IZ/X6mq/4RDmj/6Kxt72cISM/6iYaZzeeqyRsuoYIUY+ZPUJlKUlyltTO4hd16GZIcWVj3FFhbrVJKhi236Vl+cZGYJMjy+f8CUJJNKBFxMRPTfhTXTpiXdv+fpelDH87eJQEffhT+GHZ42O19eE6aGLOgZ/AYdZ/keQ+Ja38/9omAzt8TAn05xUQ+D0yb5iXCM9LvFoMaD3z8Ahza8Cg75X1EsqKa+SbFgdLYTLZj6x6eZb8mBpZVs2uidZXsoz0ncyeKA8sn6pqCtc44SbSE6VPL6/3OH8Z+i2sttiVJq9qZtH4lFf2tLE9ftK3GruKi1PsgbJR7E7ld6xiZyabbF5vEpQuP1m2tVblPPJIx6PSr/RQAe62kppA55oF3xenDZvRzX6OO1axQ2oGuYv1G8j1qshMzBk9tVfzcFBtWRL4Uoex38+RGL/gS/D3Ugb8Bg0yPFyf9EBaC7QCDsqV3pmlfbS+j+xdNUxGscHGK3E7xmNGwQQjhmwzIXs8uGWrJCX5Fm3wqTVoUAez0GKbDkF8oAKejkskMweUklimE4FTJV9LCTpEVaQHBdMrvTxYQl2qOpKrYW5yvRw6g+zNbnVOkmJK0enLi0I7PZObhZkXE860xFYQVXRQeVcfcDFwBdbgM400drm6c+H5gPP1tVq54JhYGlRPUO2wjYgEt4UM/F1xveUBotMQ5Bwzh58nOnTlOyBcLKRKb9CpssNVQ6WNV5QFK9Y+/zLm02hKXMyCL7c6zTwBEV3tXWCogIcPhaFJTTEbzhbxw70uhsVG0972zbL0HVIjujK1bdb5KFlqerEgxLLIl8LHIQZPl6BJxRdgO5HWaTGWF5xPrXeyFFIcJy2RQyrtwwvqoXv6D6c8dZYYvhIJs6l0+64HIV0XxvEmcjOB9ep0ZOB3ZlmOS/PZV1ujs8chUh23hAbSwmGz7otw/cPRup1XAg/fWN7OiAo094Ufi3svKSeDUKXH2KWTk4NOlL8W2iA0xnTU+O9hqQrARp41YmwfApixUcu1pGBle2LU0CknFIOMH6BvgcO8nrzJK7fvRS+fT+K5y4jqNJJr8qYbQPBxowErB7X3ZbQvJSjQ8aBA8CA+wNhGsIKOmKk3xei6uyzX4BuTaqCZOj1tLTygr8XYYjCR0xva5ZXdDSnXBCU4/bRNpezkwIAEv5V1Sz4bauH8LH6tGfOfGNFc03EuMknr5mOhdySX1PAMNoPw4Jo1Sc6l1Mzs5tvjE36MUYnDN3f+2Z6ZZN7OeoYySX4uQulYu8LD8iMG2GjJkxX7SiJOKwfldM9GF7xV4C5Nl7EXuOPctyuskMlna3Dw33m3w8PgzhhniuFI7Unp/OQ9qtRupoGJe3KPLljF79cAoet1FPYvlWPPGwukqxV4AIIbzf5Cfp6ZLmIUTWCIYV+T7UKNGv7c21443mHV0Qs91F6yDweY5RBLHRa4G8lqmJOLqAPTIbKZnfoV6kEAb33qbknXRHs0PhAZeJHJ8BkAtzHitGEhN1TweGo+wUXB/P0JxHbr8Mg8WEh+n+IhHhnDlWv457plPcPAKJmPpA8buIcAI+hQJnkblJqpZXWjUa1Hhao4QLDDHIxJxDKZjTMJ87QhqlfiX6mkZniBZYWbwoBehLCkS2Hk9ytI3PXYjCf1Xt7HFADhXqaabALJ12+3/psGN+/I9O8pRaiq1ssgIEHoacuQBI+mq0weiZFFfOqa5Q1jKcq4UXiQNF6gU68di7Y/ZFoTBaNNeyvjTlAXc6y2ESTUf9XO8wk2ejUNNDPwe0wHq3I71TQekRxhTcBigdpYceKl5hsirhyW31xzwnRb1ZdneCNM0XHDnAclnRPS6pdUXzvDeDQYiquurqrYPu9GzvC/+Ywy/xi3+ZyhMjXRQdp72vREUHtwshsS3smCjlNrCfinH5Qyf/bBaQ4lRNIL9xNQFmXaQcaorZzigzDNyfKMzouYRq/jY17nG23LJQBp3c8GR8Tu2gV8HUC4RtbGpfd2bQILm+mbg/OVKDasB7HUysW2iwGzjO2m7SseIDYeJmbfEUk4uNK1BGMlf4udMexy/NMtTopvoVcKV6vsP2TbBSJqJ/GC0oKRWNELlqbMAIXA87zkfQ2LmPG77h8sfH9gbooXO+zFvIHqjkVJZZTKZEm/dHJ1FK2pyX14TUU/lLLfwXlFJ/D9z0L9lsXFQfCR3lJSQRKJ72+DW3cz+rpQaqcWRsTVkQ6qqamAyhzctnWCLJuOF1f6OGsnAbq4CgYq0G/4VQ+W54vPhLjcPSp9pAFaUxljQrryKqocraYUQF+6Kk6WUwTao9CWlO5VCFqEtjCQIigzzGr1uI3kMj9TXhTFwZ0LZPnJtO71DGSEEkdeGBTU8gNKXAE1TYXVj1LQWKjQ8aBA/yA+wNhfUoWGl5Uahv4i+uTPiW4RjfrXF/Cy4QemF4vx1QmJbUuLV9BwO7Gt75SVB58hUyg1sO5+awgxbZ+/KtQRby+HyTANUJ7voDcPmluu3mb4yOfqX/kFzgX9bBTeaQ41bMGWQpMV7chbg9KWc2bKdSiKimsAb5bYuzbYSvolk0U9P/2739LPQgx2f1QS/Rffv1efVbz2HkCch6g5n3Vb7HCzTlS1xBuPzKCDD/hoyzdU5OzfJOVJGhbg13Uqert9YsPVt2qhfRmg09XUgGCadl7NtTAVlk0zzd7fYlfMM6qKX6UwpqhSXdsJN9Lsr8efIGVleE9j60W2ZckyXcrL709cP04dWVefvd056c7MCMhs0ratOFzcVrN5cSgMWy5Z7qtQgY6of2gcnKm/Ldv+wkn1YAeN/3K73XtdM0kVSP1mmENVS5qcrXrG5RJkYTQ0Iiuk48MX8uVkQATT8BUvTnby8fGkaIGHmhIEnj2QAwIeZD8XCDCw1a5SowYxnNTjnSF6EB1jZCiMInwSERrQtI9vWiVOpAL9tjv56Vafbq+fmjmMLuwizzQZ/Pz25dJmxPRbrv4wP2ps+qjydxLVCCgh4KeZpQVHX+1vzq68DQ3cUPTUFfSZpUWi+fZFQG6szZ/p+LVOI8k9D+l8XZVqgi9OfgrGzD6z5IHKiKizMW/zwtQqYJAyBZUGBgmskhnkyUr9rD8AkRMki4u8MJjd6z+cX66Bu3AkahJ1a4qXXT+69dBmGKK83cwKENcL2XQCVsGdwyCQ0nwfwV94aiQX4/rjUgiVa2+kb334IQLcBXJj5l2cCuVs5uD2eplz4LwGzDPKKrExq2x9dsU0RE0N0EdYGqUvnFmWvAhDjwwN0ZRF9ptf3N9KfTdR/RSvguh9vgcUluir7f5pbVpgnmYeZAQNFnyXRXNRfzIjCKjK0uWU8WiLS5xj2qHUYmDY0lnhIqsTzD/fboP8kJuphLJXkpzu7QYaPV+Ic3bOhPSuUbYAznRdJ4Xov4XSkx5RKkiMVUw55SA6yb7ZBIhOR23vbAXQqC6m3EBQIGGCEgIOP/COyKEi4eq5NdLivxnyJT7Z52p6sI/YvvYRW0OoRvbmolQ5KCXze9z9zeZ28cAxavGz4G4b/mcN+UrzG1JSg5nBNU4XVLXpj518F2nAKp5PrbjPvDRTYH+xt7AzKnGuMEFpfY96K2Igm1BflvR5GdGGBf3BEVISx0vzX7RrvjejTYHQHGO0jYrci9ZZEx2qZlITKH43Qvek94JCU/uwtSbAemjQ8aBBDeA+wNgantgAnKxkaRE/0m+GD5+X8paRFBIZn9Ztr/MRqpxCb7DI9DSVbiw8ZJP1OaeS1fuGNsk317Thso6HVjnWkpenaAuSvo6U7bsZSSEj9zas4CpBOsSmSUdrn9mtQidFDBzlXQZyptR8FJxsYqPPMij7yc3EpD/79fk3YJ5gV8Z0pOOMs4b/GKrVa113sc8zHF7uertbAcL9mbSKTWhDYDje7GTcX+beUGIVEC3n7E+s+3BAl0iRYszU4/I7rfDbZenUmOPPatpXpIcxPfMlXXpPCi5D0wWKQYMXRAx/envTz7q1l7IiIHvqFkJNepBkU9aEvXKnR5JhwSqHtpuexq0xLrbfqF77Z5/hWMNW01z6k3lv//VR+FAA4n5+Vt2T9T7wA2ucbL7T5jZGMNo4Vc3IWrpkOk313LsDeCpyXWvEGEYdtLQ0kTrvawgFVP2WNp80uxN5cD6qpbTp22AGwev3UsQtmz3x+T28PRjB41RODXAfZAwTqeDBkJNTjzeKk5S7CC3nd6E262O3bqLnADnhM3V7roAql1Uq/zpKEgoNawHtQcwLrc/2qy6c3O/yOmt0r8UdXY7ZuREHSIQAnFe5oT9Anqgsy+9Bbr6Gx7QemPXpkHaqktSrsQzsmlVTKlR+09YpRufuptVStfVp9C8oq4Ypt51CoUyyseZNrR3gftHx2e+ZGWsVwkJmwgV1f2WQPq9DwbBTlUPYy8Rrxw8ksKK5aG38UcdTPL8LaL+B639iQeuN1OPbTcuvEhOm94R8o+/lWt6hCkiNOq5unV+m/TIvyxSQje0moYzj0uJQ7/+a5b7DQx60oTbBYKQDxkWqk6XT0mGYMcyvrVKAUt7YQDlmW17GHv4bTt4ijrjk2rr9CZ+xuNeT8W4LGQUAOhArt67XlJwFFowk9i22fnjUHPwriQOtIpU8kUzITmZMM19F8P3tbbp5w9w3cfsIw6FGZwdPtSdfq6rWxQHXZkAdshYO5UMxHM+FBh2KournV7s/FValjMsgHgkPliALrtE5EBpmuo7tSb85+F8ih44MdZyePgH1hBR3PXyjNWsnYvizXr7OC91sMWyhJtKWhRSJlzCxh5BI904dLmaNAxGmcJBST2xxCfx3Nh+7xgO6wAuVXd4x+TsF1Sg2FaBQGQpgHBJqr422CVWdfLvFASYUsoB5hEzfLJliQs96hpUjYjEbJC7ZCdOyjcG7ulGA6fyFslLgZft/X2Xd1Uf0lG378NHxFoFtW64XOr7XVlHtdyTXX07iVwG6R7VT8jkZEmjQ8aBBHSA+wNhGv3M4hcSkTV3Apsmcvl5L4tXTHXUmFBCQYMlxGOrmmWX+jgLxh/DPkN6LR8RPWKMn62NlL+VZ/ZSaq1dJyPw025Oli6VFRE4oJXE3LzPbaLmhho1xj4l5nH8jwU1sW4oNaXctEO+iN8WVOun+RzM1YuBzw0REK9X4NB7WYfAJWKOI9xwiuie9+40zogqsI7LyihJ71tvzvHwuYs/TPPjHZtSxFOpG8qxqiz/Lqv0NPrs0yQU9rReNVI3bAKLP2fPnItfCqbc/MGRkq1fGThz/I7vDHjLvIscJGL3Y2qsHvtIzj1BKrNHYFLCXsxmvZkuqi0iQDTR+sxIp1agodwKCILOVUIkMnrgSFYBY/dy6cHNlvJ3LX++hNG6OpcPkDPVMPvbBWeg4wQUUvZStl7qajnslFvT9XXkUy7pKuWQ9WEavP3Bn4PBHZcVtowjvwgjTc+PA5Yco2bioHNi1UeqM1FVDuOWwDBpwTT0h3K+OI3pI+ND3evJOidEg0MC89muldGEWC9j28JKUSTefKv9Fe0QROCU++hxFp+id8dsw8mcQZQP8zCF3CWQRyIw5Fb/03aeSbE5zVmSaKUucYnc4D/6Mo+sGF5I4fFlI2GhvpODzeMIrqNeJteWWvIjc3UxZDKGpg0LLlae4a3XL8POZzEH08vrI7z4xZVtNXafep+H5lhtxbOEakdd+UmMGBjx4KXWPaBqs0lny2+AL54DwOumxzgtKF2IeuUGFzaG/GV66ZzDiCA66SyElK5sxDMP5Iholbw55BCGAGjveFVeH0/FAFhXVtl5WkVV15Yo8ZrZi98oFrK7TMy4fG2Injn9uNg5GKnX9NtDGB71xCZVYR/KY7is2dFQqEtPAgTionp/xFXpFEhamqqev8EL5fzeRK8aZddnDOWy3yIG/G1r4oDu1JwyF0jN7fxy9vnIIy4Q3huPkvNACQP1he5TBK0EHrJEoFDAVzRP5pUYfYduVhk79OKAOIIrUOfaMHPNy4gYx/xFf3srg/kqRI3vWlWeHBz2+rWEfK6uYgbTbtjgn5YN1zIPthZzblvVeQW/cEwK7SlfGJfHGIb4JxiFOvcI/QjY80wagCFRceIEZR7ffysj+n+4UBIuUw+QsTdD9ibLAjEY7vR1aTjt8O3TmAca9twmgAfmYJP37uy+z3hCPTzLGW2XpaRpLE/Xp7UTsLZurU3kUhPBbm2pY+njolsyVi0FTP/X0oXWQbed5Jcp/UqZkDl0bsu2sKtQnE90AnJpfHUyAJWE6A2Wz5nKQcujQ8aBBLCA+wNhG2weCyDGdr2tczDovW29XGB/SM2hVvYevtUged95ykeR26a0a95mzZqGEEoV3+Myfr7ZU0lIZG7X9YSX9tjOMXv/7nwq33tL72Vq2uDW8/cCR47Uh2MEmSQlwKJBPi86XUt1HhZzmQ8c8s/nHe/7TKJGS90lIAUZnnZKLAwxJrdOoC+Vu0O8mBr4dwQQEI5UA69742w/sRdi+HJ5+t3jAlgTlX9ncmSz2fMOORA8028dCXgJNluu2RWIEwGvA3gSsDMAG2WKnznywiYVJNnvYFnXnpVnZfpQoqmx58Vd94rVrjvXcKqhCefcHPPukcEE5Qs9oAPIHrcPtAmCC5gDFFiFOAgBfQWpvOQL+zWN6fzbgESMlk8I8nxdf4qxX+OozUek35GNZ6uDrWI7nZ2QMt4s6cRTzIP4kg0QUTriJmEfeXqQMrmvMcd3xFbaVPNclc2V2RU+BW/gU9J1fimJFAVoJSIfzEtIPfFQ4AnXKZ1kJbyhUjIvS95XjjLhowAGDIGJDLJOBzfUsri9fP3uzTRIoVp4oATbu8jO29jwKZHvybrVnrCRIdOnBl0NYU8/+c1EQshAH8FLC57lfIb6cPrcfDjQIMGh1cQ7DJ6i1qeqf/aUm53v5lp6ShFuor5E6koRkSWaVP0xvRdAMdJBFp5qzmjPC7lXEcu+1qkxk0LEnAi3YD2CVJJcZqJf3Xxo6ivSWSJthgmD+n71WaPYc+0Gc5pCvwwZuXoxi1icwxwY5qgO08GEFWVpGTfoNCkQYQT1oRPI1aSPNzYR2Oe9+mhXPp/VTvc2lVBbpcLvtFL8oWX3FptQTKgp0T77fVrHssFNdXeZeQkXEUkW1FvTYYGk1VfaKpoQBf6UUAIaybmGLxEWZvS8H0Zu8+0tz0xcernH4HuoOfXBien93Vsjibfwfq4T7PO/whc+0tDQbOpzfO1nNBFyY33/z4QHNIGYvSRFbEheLhvAe69qb2Zg6AZR54YpAoZBSyamQrXDdOJlBj0zgm9LiH1yg9HfCrq+iAjA85Wsrj/sgy0cBem2oMhi53FnDpQfDXfnMZLyyIMW73Hod0Dy1K2IDW/wIX3qqJnu+/3JbLoWuG763sr5lKzEZkEw3QYw9rErP0rADe5g6hIEKAUiW/p8IjXHoLQXcgNfBHcd6siqbwvbmZPtrtOy/99gAR0GeUXuifkcNIEYDnabq+XGipNsvZsEC1v1/b9+m85BBY/xATnz33fjgVAgzILoYS7v5v6yXN7+zmsFfkUqkePmyEXyRYcoomejQ8aBBOyA+wNhAjOMrhaA4VEX1G0H62SYx2K7WMYTDciVX1ayzNSrH7kovD3GfUfsAgT5z25p9sebHVt08fMO6t6avCky2osjIHrdVBhyjcoGeUkUGtzn9yK6G2VBOlLsc4pdxTfVGZ3zaflMPLcACqKlSr2vELG1Mge4U0sb0Yei5fZh0mvpTWS2ABq+gWblgtA3IZWt45C2uyoDrtRkvxrNmA38iYkJcQWbYXnfJ3Dym7Z4Ldx0pwHTb2Sik6blbzjK3a7ZFggP1fwlp9ZW0iStd5N6LgcHiMI8tOZrUyRiL3kjGHWoIbDdajRhEFDdBmwLGUQPERNaBbNxwjifmhm/8RLafhZBCkyEwKQm+3oItlGxWR4Zv4xNqcITb1GDN+emcox6xqz6oiPQzlFgn7yNfOF3eKFnvbgFXjAA7wP4XwJEn/XVRWGJ7cAsQwtgH2/wPY/yzzbSyvzvPZNAW09P+ohKJTDLN1NxxreuAv26xnswnP3Q7l/sbtwZexOGlHizdpJc2Nh/RQ4B2jP+ilJSKyipJBxE5xLPfNM0k0cTo3i7mLaB8xYUGBhG2SKG2N8TTgR37MoVGozbISLd/Hk/tdMoNDxqKVdvcdpjCdIglxGeDrF4GOuoqdZwOxtiHZcCG2s740D2RM274k2a+4CD3KiHcThY+/4DzamW2xtWsZeoth/8zEWW7cDMMK9/JLt78eTE+SYL5ds3sJM7A1KBRO8XCf5Q+1wNqtal4vHyDbYseqdPka/u3AfxBb64uM/Mx5/mCyaIS11F95jcfMCsiETxsikVUnSNNR1ELRCHgVAJYvqw7micxyHwSKaFSyb2BlSxDK+V7SHHqhA6dfkmBnsqqpe9YSIAcI6rKbcOC2QP34Tmlh0yH6FcX5zjNQMRdsChz91GTLAqp9QRku3a4epsrVvXT5d6AFT1Yj18EkSLFKydEut/xfLaAVje4uUgZTfnWP8QJPZ+1RUamEUNZzqEdUAsMH7Gy0yotSglrIOpVNHngRCNwvgx1Mec9TWS+hf7ODGuHKwZJNEO/JffkMtlr++RMWR7+AE60D3KZ+ZYfZY6BXDN3JzR04NVo0FTUY76W9HIIoffrTblqsB7xrR1YM/l7IYrXpQ71ig0L0+1z11YCxUaEolX4mINojRPN14oEywAiJYmEcbP7z0YsTaF1Fy14qeMkwv9RklRxCZW3BexKPpE8QJ7OyxCO2cFm18TcYgI3DA4m5iTJEnGRSZWe2y6vQ1r4Ilcm7iGhpk7vfxsL1wwHNWd4T74GoK/fhplBpWjQ8aBBSeA+wNgaM6HfogMcTCPlsha/pojT93JCI62uUlWCs/TKgHy9wFSgtF/aBmQ/cvi0kM6V/Z9R68eieAzXSy9kq68At9GRMZRZVd0NDLV+vx4/EjqWFOfs+gqnveYmXM9tgmR+liKfxE1zPn0dMPPR62S72/QFU/tUZI20yAGjeIrb2aD+R8hcV1LX12JStqrekQMt7ivWBGLxh/aFFwFEHlVZ5Tm0qEIM4kl2TkEiR+zQKmWlgnh97vbbMVpr4X+g7LIKT43QV6nZpWhQYTOpnTsuk4Dl+GLRmF8KFZpdHFqN/0DbVLwXHwDLTOJIpP+YmOWXQwCP8TPeKx4b69rrINO/EQLSNiZe5KLUy0M4BqbIutHLs3h+EXfpkSwDXEIT3LgNRuOyQz83LGfoLB/Dj7xFfxSBVff0bTGuHPNJy4XXvzKqmEXhm+hB9WshTx56Cr3bug8g1jwWbnWz5UhCZ8Q0eACU0kXt8T1jbCGRlnokybmo4ynAP4SjfOEtzouISmy9/qBVCcnk7GCwmLf/b311Uv9ktAIxL2nluOukqzLsfm5VWhZTomLIfW5sSJSwp0Y2+dSGEJjLHOBD6q2nviuoTgodSjrpAORMqXwW4+DjfVGF5l/fXr443+DO/ME+y1fSsehjOcnQ0CQ2o4NiNwwdazkDI6vo0M/XXE3bvLHv+3m7WOhY85KgC+tmym2UMyAeYTS0NRvePsFut/0TzrfXV3pKK74swAeJpcyIu3HMbTSKH1emk54mizZ/xPw5nDY4WkQiERf7o094XOrqneT4Fd1e0AqNnU001mKw0SCiI4BOX+zBYmCfKaAwKInBaUiz4t0mSqJTOiRB/ca9Q5btVGKYTsYTVWQ6zsCcMLImABzNT+5o+BA2ShhEuczIABxGu7hQ5156/ffto7HGswj4BZ/0MHBkZ0trx+PtE6HRjkHmmGAf1dBmLSmtykol4lFb2EXYLQ+h6RSeC6esHGvZkZDCjUjEkr2TdJvmipvuOONy4fXo5cL2ux9vbhzyvKVNQTBL0hISXZdcOATfmaE34t4443lqoqCYCko2VK+GxgLtbpETRDC9JKhO+ubbrwtwmV0TjchVGvbo4DuSWY42o2BN9M3FJ/5AkX9Q+UvWJugnNwVXjSc2YqjYl1+aHxEZUHRl6dHt16Udt6nXn5Y8VEnFpfHTvWde9l3OUeoyud+D2Nfzw3sr97TJXmPUawICG3ns0wmlZSOMWTCj7tPDjrIL6chj2XMp1fQiqywzhk7poyrMU+cF0IJjk5PTHU88qijQ8aBBWSA+wNhiowIN+uDBK+TRvv9whPdVIPzwtJJ5aPzoBk19unR/X8esmon8EYXfWDwtURLArUegvXdWw1nBC/rzjZRnuoeRMYS4lGjPpK9caDrNHIuescnleJxTcwJBSelz9raZuBEvpdyOJvwNrZf7OnfxZOQ6w/toFJ0rQIooth8h/67F8fKTcqnPDSqsBOc60NYRHOT3t+kdKGR4krA0EQsatwE743Q/E+8XoEhesobDRz4LCLaEZiqSqHhbRziIHFYHgM24TZ0GyvNwLwpA63TnXSznztFefNWB4+luLanWk17dBjThx+ljDyY6KIughArle9FJmc5IQZjVLQPtuHj4waUD4fc9YDqDBDcKbkf3Yd38+53++6+0T9uWljJrLLxuXpdmKZ7mEk9o5v7xhT0Qs7JHWWR6US2aAcMXbraNIK1PWEYmkRkRsYL9DoUeenlxkHYYYcAapUs4ga13QESNXirrM5N2DGN0s4/gosuI1XaL02x27vn9pY3GrK2RD2riMwWLODp1Rr8x67IFh6NEFTPCU3txG42Ts0kCd24mItJ26fPynASFEmT56v4f7PizGynWBGp1kIf/2p9lZQjfRgwAFbhvO2SKtVQdzlHPfSQAv39qX53E5z44sNbbxEIVPjaBssis1rl+wSO/dti8djnIwRq1HqgmRaImlazwORLvdN9nFDyTRAWSRVsZ8tuFYrVwZ7Gu2X+IIzxfM/6RYrbQXGst6J9/qqaplu43Ziv1cxgDvVMfQKzmvpogXhRdl5uLeyFqJBbv/j0McbUzxGmEk/oPiSl5e5Yvh4W8+TgCLuYcTEaV1DuAhrahBROgW8w6QZskm0L4rXkjzfaP73pYRq8/dBCu/NSXHrnb0TpfoGZVPbfxV7V9xHhyOk2xXyHgnDxlxxJdc4ek3mOFx8OHiyKOji2SRidK/9itshJVw5cBuz0bVfR3ooE7cjUWpvmeMV/9Ygc7rr/8CVmUvJ9hYCan3EESfbZyqm5gGRielfIwNGBcfIxXHPF8AX+AAUzK+S09YI6pJUjlljQKDBg+xyxeljV4dmg7flo43cEUFQvGwIlumMSv6czmH2vv50/kouVNLn/j4wqHkHwbeRytKZvMLT8HoQjeuoenwRwjpdresWxY/OsSeu1VdbWIw9ON/xO7vQnTR6SESnWNyNEfA7fGrfzgn8EZieZ+DFvShfFRmYtSK/W+B1IijE+VJ6o88KQA+3Vdl73tWL9/KdRoXQnHQO2jv0dH2eEaZGOkMmqu5i3jRKG5DQsXptsg2GjQ8aBBaCA+wNhHxghdRyir0hjpidInCMo+Yf9IzGENJqCEorwI7yd3pv4yfX+/R+RHHaenTJB47xR49X4RlGC/M+A9DnyjFvP95HteM+HMxcjV7Tuv7RoQw/5iXG9uL0CVoy1sOwvbKFpJTb74bZKkiLcL5fs0XHRwuCXYeZlJWGY19Yrji/XmO1YpeGzyHkV6Mq1ifWDrqvKc3mQy9F9OVVvE6utFuvFF8JkPkAbIwah8U4Ximm5VMMTp9+aYa/Ln3crmULC4OxN/OWqpGcBwWUHlLS6O4B0I7cmvezlARsp074AOOdzndrkfOIkIj337qQhXQ94LRPMf45x8qDsVUVwxk0mAa8JrracuWFZ80q0BxoY0PjsNVK94nZOlEI1ROWZZ2RaTHohHkgTgV2ti2C3HdwuiFV86K8zJJt+WIkMstjPiIrbjWEayBWIKoWoEuKZWGPSzQ4B8VVparz3VTSsCQnGQFzNnDaIbpzokM10v0RQtaEvSaRG10G/6ZKvcJhiL0is+p9gep85i7VdYq878MuL4f0eQBTKYvwBOCp40R8j/DhE7RZ80C/CPZacDfMB/NA1DMHuKTdxXATMjqFIUa46mktzpVqnopwzXuP+NHxunwhYpyYRgxvUuk5Nbh+FQsMb1582d4eL9FHKmkoOjMSWTpYYu4MSqTCBliTIKAW8FTYySBo1QFVKl4VjFbqZryiHFfmvwbA1f/IatAm+OVBO8xZyhIEKJMLys64BldWfz31uccoJRkt7oC8ZIcoJwssYeFcR7ehxGmwITosWU5FVpSFCb2stn1a39ht/NXdPbCfF8q1Onbm8Ad681m5igTIbB+Pck1bD7FPVZfPxFL/7p7DOYQsQlgz3skG+pLw2Cq2I/iqjqufWJBLH08AXHQ+oU0biHX2A/uSamyrDGQjiAzWbLgcjxhXo4dQKoT7DyYmJgCTXaLdiAiv+NtmkiYjyVwJNNEjQi09YD21Wy0tdalKpnFJHRtZexm0cncBmtc2J9UNxIVtchPDgtwqi39vZiWOSqE5zGm0eIqmHXwYlBQYoCiyvRJ0aLeJCe4IYvUREbU1kb29ge9Kr5bxb+MGEfeGeCpqnk00vuxoVbu3Z6C2PRaxMmCB7pCA/khFIhs7JuSYzCIlrX52rmlEUxCzTxzmmTx7pDLmEp6/9zj5w1ADm7C8QXoyUCNK6NSk8Ilm4j846uSm92qzmfJUccH+YTQgDswJGKV/nPaZefS/5FBt+RN2o+N9MR4v+nzLtTdjiZzTGib96XjBz6l+5Q9/kL46jQ8aBBdyA+wNhF5HKeogMwkf3W0H5kjUbx/Nia7FtozQU9c82Mroj7uG1cVNxTgxYl0Z6jnrIxAQXAnCFDScrSEdnORerVVoGcWTRGJa1Imu7kZap1QL24BwGRmykfRyfjbfqOH9AD4mCmvzYIf/TekG2fWEQ+1jaQUhmxjMuqPk1f53CaU5PZcIhHMXr/Ah3U2SjTrW7V8fVb3aTnzjW1Rs2Fw4zott9xzr0E3v60N04OFpEWQJv/83+zZaJ3rII3lv+zv47Ssa5ItDondFq5UOki451buT1h2p38rXH3PtLePRiePW9d0LfKedRHFmObDqgRM3EG0L+ZToo5/7Rbegf8iodCf8QiNC6L7ZWDeMRAOgtTlMWrgZtXJnQUTpYn7FaAhwT40y3vROGFXhOgUDPrm/VfHH+M4IAw97V8RbqR3qMcAm612BpZhA22WmTl73cyhXZgf73J3tMhB80iIKz8UsBJvghvSxxmjONwDPoDlGgmEgCY3XAnlFsuQPeBNL9Vwqb3wBCFVc7nUBWOOm7gTiKu+hZ6P5jPoGcqWgc+jsN8MmPs1y81cJZhipxWKI2dUSzW4dtckY32ffzvfIGUR4BXfAnwKXpX9l6VWe3shhnUFW2EmDxp6dVyFx9FCrtAOpz1L5KUrG/PnQnnyo8km/DUdBz0osqzCMVxnme/K004bD1hUn1h1N7hRgVDmT5rFNuviwdDQQvvvAwlieVY97kNNukE5DaJS7wcAHyH4/onrH5sTqYubn9vY2B1Cpc5NjwY7ApNf48DJXWLU7D2d6Sh3ly+Jwkik6JACLn07q32A/PoT1aoWam7cjwMiGNpVjg1tvE+ClfUB+VddomkBVsQ6qyYCx6pzlnxyM4Ei5gqJ8jvzqDpyaK38J6zo6COlTIFtFHs+8X73jBDZUO7kG+bY2OGNH+wGEaXD0OQ7CYpvjNek08c0XLfT/CxAvfFpDDJEHjB/9Jr897gCLMt++3/FNnvWFLlPlF0Hn+urV8qnncxSb421T3vE5UaeXGdxHop6+MfMRLiUgx9UcYQYj9KdjLHaXPuC0qo3cJSb7IfYqQXMdOK9XtklnikTMavQGO5No00iOQhRnXNWqB56vLQ4Omv6sQYXiGhvOXi0kDk8g+X3tW+UgzHYdcKr3BOaOvRaXOcKQ1mIqCpABgODN6SotY4SYTmi915u3VB8Qa4+q6tKYWh4oeZ763LVHl5Cegq9BnafAUfcra2DHq6qthe4Y+eynC14xH1LhwdOEPTvRnZhbcNdmlKv15BlQRiQ8PkAY=","2"
"","","","","","image-button-response","50","174591","0.0-10.0-0.0","3gwhe5k5v3l91vx","3gwhe5k5v3l91vx-2024-03-20-05-11-14","null","","","images/stories/market_story/market_story_1.png","null",""
"","","","","","image-button-response","51","175717","0.0-10.0-1.0","3gwhe5k5v3l91vx","3gwhe5k5v3l91vx-2024-03-20-05-11-14","1125","","","images/stories/market_story/market_story_1.png","1",""
"","","","","","image-button-response","52","177527","0.0-10.0-2.0","3gwhe5k5v3l91vx","3gwhe5k5v3l91vx-2024-03-20-05-11-14","null","","","[]","null",""
"","","","","","image-button-response","53","182037","0.0-10.0-0.1","3gwhe5k5v3l91vx","3gwhe5k5v3l91vx-2024-03-20-05-11-14","null","","","images/stories/market_story/market_story_2.png","null",""
"","","","","","image-button-response","54","182972","0.0-10.0-1.1","3gwhe5k5v3l91vx","3gwhe5k5v3l91vx-2024-03-20-05-11-14","933","","","images/stories/market_story/market_story_2.png","1",""
"","","","","","image-button-response","55","184777","0.0-10.0-2.1","3gwhe5k5v3l91vx","3gwhe5k5v3l91vx-2024-03-20-05-11-14","null","","","[]","null",""
"","","","","","image-button-response","56","189288","0.0-10.0-0.2","3gwhe5k5v3l91vx","3gwhe5k5v3l91vx-2024-03-20-05-11-14","null","","","images/stories/market_story/market_story_3.png","null",""
"","","","","","image-button-response","57","190060","0.0-10.0-1.2","3gwhe5k5v3l91vx","3gwhe5k5v3l91vx-2024-03-20-05-11-14","771","","","images/stories/market_story/market_story_3.png","1",""
"","","","","","image-button-response","58","191867","0.0-10.0-2.2","3gwhe5k5v3l91vx","3gwhe5k5v3l91vx-2024-03-20-05-11-14","null","","","[]","null",""
"","","","","","image-button-response","59","196377","0.0-10.0-0.3","3gwhe5k5v3l91vx","3gwhe5k5v3l91vx-2024-03-20-05-11-14","null","","","images/stories/market_story/market_story_4.png","null",""
"","","","","","image-button-response","60","197253","0.0-10.0-1.3","3gwhe5k5v3l91vx","3gwhe5k5v3l91vx-2024-03-20-05-11-14","874","","","images/stories/market_story/market_story_4.png","1",""
"","","","","","image-button-response","61","199063","0.0-10.0-2.3","3gwhe5k5v3l91vx","3gwhe5k5v3l91vx-2024-03-20-05-11-14","null","","","[]","null",""
"","","","","","image-button-response","62","203567","0.0-10.0-0.4","3gwhe5k5v3l91vx","3gwhe5k5v3l91vx-2024-03-20-05-11-14","null","","","images/stories/market_story/market_story_5.png","null",""
"","","","","","image-button-response","63","204245","0.0-10.0-1.4","3gwhe5k5v3l91vx","3gwhe5k5v3l91vx-2024-03-20-05-11-14","677","","","images/stories/market_story/market_story_5.png","1",""
"","","","","","image-button-response","64","206047","0.0-10.0-2.4","3gwhe5k5v3l91vx","3gwhe5k5v3l91vx-2024-03-20-05-11-14","null","","","[]","null",""
"","","","","","image-button-response","65","210557","0.0-10.0-0.5","3gwhe5k5v3l91vx","3gwhe5k5v3l91vx-2024-03-20-05-11-14","null","","","images/stories/market_story/market_story_6.png","null",""
"","","","","","image-button-response","66","211333","0.0-10.0-1.5","3gwhe5k5v3l91vx","3gwhe5k5v3l91vx-2024-03-20-05-11-14","774","","","images/stories/market_story/market_story_6.png","1",""
"","","","","","image-button-response","67","213137","0.0-10.0-2.5","3gwhe5k5v3l91vx","3gwhe5k5v3l91vx-2024-03-20-05-11-14","null","","","[]","null",""
"","","","","","image-button-response","68","217647","0.0-10.0-0.6","3gwhe5k5v3l91vx","3gwhe5k5v3l91vx-2024-03-20-05-11-14","null","","","images/stories/market_story/market_story_7.png","null",""
"","","","","","image-button-response","69","218181","0.0-10.0-1.6","3gwhe5k5v3l91vx","3gwhe5k5v3l91vx-2024-03-20-05-11-14","532","","","images/stories/market_story/market_story_7.png","1",""
"","","","","","image-button-response","70","219985","0.0-10.0-2.6","3gwhe5k5v3l91vx","3gwhe5k5v3l91vx-2024-03-20-05-11-14","null","","","[]","null",""
"","","","","","image-button-response","71","224487","0.0-10.0-0.7","3gwhe5k5v3l91vx","3gwhe5k5v3l91vx-2024-03-20-05-11-14","null","","","images/stories/market_story/market_story_8.png","null",""
"","","","","","image-button-response","72","225021","0.0-10.0-1.7","3gwhe5k5v3l91vx","3gwhe5k5v3l91vx-2024-03-20-05-11-14","532","","","images/stories/market_story/market_story_8.png","1",""
"","","","","","image-button-response","73","226826","0.0-10.0-2.7","3gwhe5k5v3l91vx","3gwhe5k5v3l91vx-2024-03-20-05-11-14","null","","","[]","null",""
"","","","","","image-button-response","74","231335","0.0-10.0-0.8","3gwhe5k5v3l91vx","3gwhe5k5v3l91vx-2024-03-20-05-11-14","null","","","images/stories/market_story/market_story_9.png","null",""
"","","","","","image-button-response","75","232333","0.0-10.0-1.8","3gwhe5k5v3l91vx","3gwhe5k5v3l91vx-2024-03-20-05-11-14","996","","","images/stories/market_story/market_story_9.png","1",""
"","","","","","image-button-response","76","234142","0.0-10.0-2.8","3gwhe5k5v3l91vx","3gwhe5k5v3l91vx-2024-03-20-05-11-14","null","","","[]","null",""
"","","","","","image-button-response","77","238647","0.0-10.0-0.9","3gwhe5k5v3l91vx","3gwhe5k5v3l91vx-2024-03-20-05-11-14","null","","","images/stories/market_story/market_story_10.png","null",""
"","","","","","image-button-response","78","239581","0.0-10.0-1.9","3gwhe5k5v3l91vx","3gwhe5k5v3l91vx-2024-03-20-05-11-14","812","","","images/stories/market_story/market_story_10.png","1",""
"","","","","","image-button-response","79","241387","0.0-10.0-2.9","3gwhe5k5v3l91vx","3gwhe5k5v3l91vx-2024-03-20-05-11-14","null","","","[]","null",""
"","","","","","html-audio-response","80","243597","0.0-11.0","3gwhe5k5v3l91vx","3gwhe5k5v3l91vx-2024-03-20-05-11-14","1324","","","<span style=""color: red; font-size: 24px""> NOW RECORDING</span>
        <p>Please say out loud the list of the actions you saw. The actions can be said in any order.</p>","GkXfo59ChoEBQveBAULygQRC84EIQoKEd2VibUKHgQRChYECGFOAZwH/////////FUmpZpkq17GDD0JATYCGQ2hyb21lV0GGQ2hyb21lFlSua7+uvdeBAXPFhzs772wRFFeDgQKGhkFfT1BVU2Oik09wdXNIZWFkAQEAAIC7AAAAAADhjbWERzuAAJ+BAWJkgSAfQ7Z1Af/////////ngQCjRBeBAACA+4P8MvwKf+1dwyjUeXr587/qtKAg3ejv7UhguTzn7TPfn0geJSzOP4WsRE/P1WICI2svSt2fEo6ppOM3jaooSsoe6PtHT+Vr4iOwtcjqM89po0s2UMyffnQFcccc7jMYyU8G4cKc1rz8wlJIHSD7G5qdIf2pmLmGyiGIiA7RkQdYhhayTgX2QE9s0YYcW/koAIGBusIlj0BJwfWoE0ZXgmcEBxlJysp12a/bymSg+6C6sgBmBhpu0YcwU05sNdCFueUUcpeYEqeFbPiDbOnZegwAAAAAAAAAAAACjCKklmxoGospMa4pW8ZDBY0BTJxhAHUnxCb2v+/1vt99rJl9Ek7sjOa8UvBXpFzRXJ4c+jUQVOeuznLroDwh507/dx6A9j05uxSn3/pzk1PH2KnjdcsRYV8WNbuQJiCvD3lAMuKZUU+mG3Rpr2m0UCqwFoSRLXK2goEFowXaOrJTA0BNToBUi5MMwsAhBFH33zIPHBdox2c4+NrIt/b2RR0t/YENvqKkuCdLvCyVYAdCCHnGXm487H6abK4BFHCGt7+ef1KqFYOh4o5J2/2vN0gTSPs88U/NDsJyd5aDWLoFhZEYqZgxNLlwtAIEcbhhIadGUn9OkNqwPnzm7oRm202Bwjs7u4zPqq3TUM9TozlSxWDDKLQ3lcExpnYs6v6jbNFCaEzRF8nu0uZGbSI4zfyXQdxNTSZt+83RGQdJrE2S7n1Gz1ch5jshmrDmeMUbYH9SDVhjiD4Zq0fy4yAXUM4n27xRXD6LmzIy9A70DuCpDDd1+/q3/cWFTr7RN9l+W8hDmve5C232wMv5kca5MD332cREVb05WlHeVHT/l5gXoTzXoqeZmg3swqfZ4VZDXhiHBVZgoXT7wTZrmj8t/AJUS0GyVrwhFon2jZWWPRhzEb1EizUL8z7R4L/PYMimcptUAfIeJC+GJ9X9p7E0p+P1friE9V7tAJ3YdAt99f6RClsP43o+agVq7FRyXjdQi35mYXt1MtxDqAhUkzz6a1uYtQidXHPFx1wBRrpOGhF3ndHXrvjCq7ra9CllHbpXzwOMtNTEDspSUy81QbtEJYpToxKRetrLgbD4vp1zZL+yZpFvWOTO7UaVKkiukvQquMDnD6BzU+4CKjZNq7tBZDm2OlScjnnVitWkLoT1jLrIzE7SEm26nNDoR23xy1tOUBJyrLtN/XAzfW+WJdY3HJxkXB+TETsntuUPVcI9IUiwrTTXG7jdCLKR6c+TBOTh/X18bvzuJlneAcgAZmQEQBUWnkcmfKdJPB3i3BK3nfY+qB+lpclJpzeXfcsPdmA7RcYUzOoVfVoHdl6F86pJwb1bXnFUZvGjPBay23d0W4NfITiheKmn67iThSj87ePHn2LexmmYGlyjQ4GBADuA+4P8C/8KYR/+WP97UpxE0HN/Z0XBsQszvYzHF/OjU0aHOG4jx41c0rJzdl+5ZJm7pvFIkL1YhxlHV249SD0JSTMa1Rf4pttnZLvc2y/hj5qMLHnnN6HDuPxUXw1hTJ+T1v2mZg7DW9ll8y+dxrIt2jjoizD1rPU4yGTuvVBKSw3Cn6dZWwyriuaS2Q52oVug0oNeT/tsm2qM6Im3H3JbNCd2+nnwkFjfKRUt539MakL4xvK9tGFmhMOtoVI4IV0fbZdqUTrdzp4Ask7WqT3TiR8F8SAjMcByvuXGiOxRM+iA4C/K8gmO2uKkkBiPkGuTwDWQjIN2BN10kr0Nl1GOVP1I6SzvbyXBfvFpNw2Pw47Cr+2aMm6mWgVD1RjX06F9RyfumXcr0pg7quE6gOVhGEpKL317Lg2UqMnqX9McOsJLWorNxfQPt39W+xSnuRO/WSOgvfE6KXHWgVPIUnhAHqVDRC7bujeGVNQDhFe3e+JDSP8F+hLwaOlXV+o5zasB2jXD2eSFzEz1Be2qIypnANFe83yRoZg0zC5+LomeuBK3fBH+KyxmmVJ0ku09umXkk2D/a1t8VJrLAoSJOXXhEPTrH/OeL9BEf+Z8dANsbtm/J8Q8ZdVzYrUKEq1s+fA8EP2migeu2xz1DukxRtgQVVuwLkljbW0y+TeuwW1FgmCRYNA+zgyZJvyif8toKnvcU6vmUibBjMPWHNSszTvMkDPst/GK9ybzOPzdW9mcryqCKH2+F0AYlbUbYvlz3jnEPycqQRVKzIG/k5Niz4cg/aRmlIHMYQV7qc8jUQCBMaOadpEbNNXOOTKtpCh2P4lVCYP08saaExFvR/tlwzTqLDiNFFfg10DqX1pvCInIJl8/R7/G1tQiE/NmvknR+UrZKxLeRF9BBSMvrPa+QnvgntgFaFuL2uU5bEtIXWbkVu79aDOUlwOkg23MJsybn4IVvMQyEoR13xgM0mLcyQdslQdr9NOIJBroyEyqD9wzLCrquyG/jhhHGCbs7yzw5uOyQpkSminMUDimltK4waJCFSLwjkrrNeT2ibUsFDr1RFQoSWTUCEe7hrTF5WgdL9+cHv7Dt67yiCYZ+3AP1dATg3KmYElX5uCMXi/qxvATLUodmL2XKgK0tTC7ADwwPwcYH8r7eMpGVlkVsJenOXwzbQ52QQ1QU5JuPBxjyE2jQ8aBAHeA+4P8EPwRYSAfx6JfakaeY2wsYQHJNh5IMQrl6MVoaqXmxRjH3ysiYli95Mi/V66wYu/ijJobDEagt7JriwGEgPpsfihtwGW6ERmrQSxDiBgMKOWUnHDLNWbgov57GT7yDWuV/g4BWmokeoOYGXX4OsanJJIlY+48qcfDarCBBUUDxOAHToBlw+YMYadlwzIr+e3w270NqA+A1+j4e4C/db8t+h01Qtan3bc+IXbJQMpWLBnSCDQsDV73u6LP88D9059RR96vXtPoKrft9TnRnDiQ2xZ9PH9F5e5SDZstyW/cfOwFAl7x4lpz66rNALF5wGakFMRzfyKt67nWrAryYMAweoNj4m7arfAl1klNEPpuzgLD9CFYa5aZ03TytAdccg3eVH3RrkIJ3MlJt2p7uZ+GEt8aIdJXT/fsZTYtNkWmK2Edxu3lhF1tHFB+7LKc7X9/fHYUUS5SfeOmMX5qICPYYu54ZXJbeSQ4dfO2k9nYDPF8plaxNNJZthr2IgpQVy8y2vjr0JRpT8Rx737oS0CvHAmPO63OlJKKOH5YMPBcJQYvS2w57+qp1VaThzUwjuC1s7cMFSdnaVS/LsOEtEI7PCNidfsdNOmhDnROWWbJJWALWCFt8Dh1bUCETX/4SCnOEKwQ9CBIqib6VY4S46H1WUBUOvhvCFyova4P9wwC0xqtpx/bHeyxGO7/gJpOoe1Z+SxLpKMINN//sm4DNw/Y3EVBWf1Y1puxhb5iSgCgKUd3xtS7w4I5iF/HK1g67KS9FIjMfyhRVPio7v9+YkxtQhsQj8y3v5xuASofO5PZE9Bf1kAZFUyAbMQTeVXQT0JtM82/jY70Y/gh8s2PqO1uYRdhMfpdbTFJNu0knhuLwMys/NH3m3tlbwjTxQvDLFdtUiPBWPMgDlMGqDdDvDxM3XzXn8Maku+EypBZ3tN93HCFIEyXvjFaH9tbQDzPAyU/YpLO4Z+a0Sn0nCtnxA+ilLqKJLxpqvd9WuY7oUnnsOQk7m6ZujNHXhF/P6mGVL3S8Q5H0VLYtgouIEKu/mUTko+eH03vcmY6EtBFUCeEDUI/Wy1Lrdt7PA79LA4H9rMkDV64Jf18z+4LMAzmfAhJvT+cniAmQEIG/pV1SbOLtCdph89lAlErIuh3KfCKweOZe+ORCyGAlvvFFohJkOilClyC2k3D6Luz5a+bxGdS52s7jqQ7Z+uBb4XWUO1RCkfuP1rgOhaupZfG5udzZTNM9RAFrXTTDR7YQqXL8HvDebbM+mQpfqBx4+L9l5f+Wa2jQ8aBALOA+wNhGGB+wah9nG0SeNmtsO2ZWs/2C1ROD9PmkrhuA9xZdjRpf7j4dhyxi5tbzd7S91HhO9txVJG8m96oxa0k2+OE3AyY292bsoUkrS/QNyreka3rYda711XjqZXjf6FRfBDPMZg63eOuVXmvOkA3V1pLBovrMu4vKX6LF8msM0esn8+GhtOC2F70ztd1d/jDuPSHnmBfJotviaFdK3mp85FHf7YJMFo2GU2a1cVGIjNA224tT2fmEn0AGMvOIbNpwExOLmvlrk37WoeaTx6bpe3rhX0dIF1xn0MecQzKpZQcZsb9v8wcGh9SjGvaDiOsHScACu7uGA6rId/Xxlq1dhEOdVrEB29abMnz6eE+QGdyqB3ciciAAV5m7GjgI/x8EHcoY3v4N6SHs8n15PWh7vlpH4bCQPvsyAench6VgRyPbmEYtyq+94Inz9RHk/FCihtX2atwCiVsQF8pIbbAWrrxIKpQCEIPp6LV/tEq05Qy8c59F/QGVzYNfwV7Bnl4iUasnQDRsgZ7Jog0yUUgn9rg1Wd5jusVEPSuHNt5u8Fz3QtdXoKySVNTLPDOqD3a7OITKHgnL40pAF6liPDw8f7xB4hqZe4wWSsGHuH15wL3uz7KaZXqKDGhUoQSfl7wrdhyokdQAnH3dFIQ9j1Goma80ljfqUAP/DXeU/0mVE0MiujDrLawtLowwFpj61sM0XL08N4ajkwdDBgfuBL5he+qs6FrD65732rPoa9ogqS3v3l4wkUNBWxqtwH7M/Eg6Xa6IAcOo8yJMGCeG1xOOxOW2tQvheQd0NF0SUnWMKvdi2MGYhjkSW6JMuqufjKnJqNV2X2rB8vI8do0Nqh1rauOYTWUVMTPvmDqzOkW2ciXS18BEFfJ548mIjGG2txUbHquXsqw4e5yRZTnNwBrq9aOFb/7KAXFuqHLzZjmdOTVHC4cqsFMSp1jYs71fAMV2gRg5y4qpBJt698nSqbrlvbuT5Nc16kIvGLJRv/LP2DM0d8kJUnslZAHvHoxaMnv6sxyhwyPx4AvJVhb7ZKnl6cArDd7Qf9cyTVDe1lyYa4GOqZt+xF5bM0lq3CD8d5L53F91SOSkfn9qHa3XaqzL8jo1HgXRKR2yNHM2884gm4h7ERrHUYL1HF+DYYFSFbDzIpBvw10LFnyAQ+nc9PczutaLNH18mz+Rmg2uEVUAgwOIEJF09AhKyvoTmDM0xby+H/9XiREex0TIu0rNYycmRyUqLzEazCgsNQycKYDZSrBhYInMSBgxvYXBjC41yhgza+jQ8aBAO+A+wNhNZRdWsELkRiBW4FN9JTbm/Yc+48avRCOElaq8ioi67rqU4mGin4GD4UXFoEJCbiXHLL1HHVuLsbWMGIJQDaanjvpWs06dpMh7F6A3cXcNyipg8uTy3BmVpeqQYthepJL0ojkD2T1XRWb3hUWBpUeT71kcNwsRKC4CGEGc2WWsjW6dE53xeqD2B80FRSpbRDLGT5GP1iOUevz82N9OmGUasotWpMU3A5s5kf3KSK8K+4cSv0I+W2sbKjIRCRUlN6TQ/ZSntfxeh9AahYuVr9fAl/DC405RXcoGHSMZ2thk9eh4BBQJvv5IckTKwN7An7cdwdp/1xF5/59hDhAXEF7cRa1Chr86TN2oZSgGk+g9qXg8BqlzKBMGQeGuWTG2HJPBpe3YA1qYbc+WwUCdaIjNIjSwKNnBuSJgDNgQ4W3bmEg5TZlQb9DwGco2es/UHWU9fMhhTOUAVs/RM007JnS4/yKPr965d3Ldjppx9u9OvTsQHMhH55odeyXNnFHfRXODtVfa8oGo6WIJb15z6BHTGspvUxBGLbOBsCMbAGlbaFs24b/mL3GCRTmTlEQEESswZdyZ2qNIygGhNZmNVtVJ2f4UxKoQDq93Utn5rnjlqL++bRFgbwr8BTYSsu4iBAHthL6rSjWrIPyuGSAwk78/7/srCiq4GE7qWSh++QtBegI9cfm3COK+QipRxikLJX2Oiu82Ne70wPL3FN2zXulhjdzQeoCtjtMgo30wPK7rCm/lTRiTR5VBfN2H8uBBfeck4rzACsv9cgoQqqx8Iz50eo5/JzwW6p8AhEXtGYOviPUkksvSCATkzlhQrqbLMbx+rSGVu2L5ekj+p9ZpICXYReHFtaSHY0a0RbWdp5LNsdLLFhr8QBT20JM14XbaqvrnmJsmLcYg5jt2LcPqQNsmcipZYYVq15w+IDW/kOzhcl14pjI3LkdHjT0kch8qCc6YITZlj54xcAgyQOW0dJdfMEDediUKM5Bnt+qOKIMD7+oLtwLyn4/Suvai6Xc61lZOFJtz9g27EUrK7CrWtAu5NsTRXtGRJUVMsg/eRyvTxHbP7GzqMla9ecmJCF3py2OWAKnvtQ3z8AksBhs9jRzW9pVM05xB2xm9EqyiMcdVyqSv7faabVhlklNPZXtPjlnks2FkzDpsoSvehQx4fTYHCjE6DP2A/IwWYN+PwseS8BP3fsig+egu6pdrOahLj7MfFTUFWoRtxTpw+kzt83jgT3UADOrnERt5igQPb7xo0nT4ty9WaGGCaOmzGpGaeajQ8aBASuA+wNhj4/sIDzBaovchc+JtFq3fSOEGZJJNWNoRId4CONoZtSlYR5s9ldzd3gxxU7TrnmIRlJQSP5gCLOhnVOHq9axCAeq0QSXXnvv4Kl80+w+85BQAd9Z1wxNrkBFXGdcDYRHj4Mua9IDPB8YhbFKX6L5iWOOvw4LWPDUXmwd2if6I5g048wfmg5oHL7Ko2O9QJXKEBH8v94utJ7DpqrTdxdZEx48HdxSHOzDnY7Qts+3bhyv8k5fmIAVQXiJ6jCdYB5Gj9BFCni9nkhxpRshwF7GFDix1WR8MIPxwZD5GzrQg+Rywpin4e15RvrmRBtgeT+33iX/2tbknXGl5eqa7M2nZZQMjNUG5EdxAKEVfqaF63Y36I9EAwFU75GgyGsJmAN90/qoJYvuumFAiGMZj1qcTaype7BDfoW2FN1sJXTPh2EapLyqxfs5EDcoJ4aeaPmaqgZIyFHpL92qG48tzs4SlU3Lj4QS+haJNJWbPhilCrd2r8xtbgewWU62idlXXNTnbP5A26S7oIVKgnCVdYDYRYHOBssmwgQRbUyTTTydY8wxDLA6wMTh6cdIDMnfoSYuLuPGLaFv5BcaXruUF28DWosK209zUA/a5UGcv0K03Wew4Y6YyM3I6ciLiNuvgWBKmiTUrE9+cw/vzIYqZ1tk5c8QtlhSfx/29SRwDDNpxO01gG39pm0NBhOnoIJbMzk1PyBOn5upopZ1wEvnjdjaw38DTXBWJsgZnqfoWX0vYYMxjKIFcDrTQIaGU5aphtFpQEzCR2ngmpoeq+4nviaqatGciBePxp1rBi5HgmsJXsunqvEgNhF+hScNJ9Z6V7Iuh/Vfc72fcqpRFspL+osgYHmFs2Id0nI1mLlURgwirPXlIYxMKMmyUNFBEP2cI3BGV73LBsAn0yEXOi4ydI1q5ZSDsLGZPat5SByebdTIEB9E/V1ZG55VIQSYDjRQC2kPoJeRm2NQLkvqML4xMZyrQb8vfYDLnJ1dzbvVSRSE7igj553EwHL0P91odb7/PCGbN8pf66Z3R/qVBmenivQLg51BtX3v6EixhEhqzj31YBfZxY6mSOJKHTs6O+ygeZ/5zHwaOlTXMGejBH9XWa8DPmuqATjTor7NXiVn4VuE2Uga273xlvJXIvuxxemfufc932C+fsPK99SuWC9fldaYzOa+ITyLmBpWW4QoIeQz6NOQBnrWC2iaUj0XJQnmdK+BAdomzXqmg86nF65K8xVRF/HnF+26vJ6ouJQelFNDAbtUW4KcucZj50Hq7kMK4mGjQ8aBAWeA+wNgayshhyNju2bMEA0s3n+bcGbs4mXKXYTrwKUCySb75Ny25IctxHUYtrLgi71QbD7hp1X1auJan+exkIZyF2GimPs93ePGy5mdc5HMIBs/b9myth1oN0RpwaU72ZNydBkTP8wN3rPYwCK+v2JWDfDONobO9A6I9SJxRck5Ms3/SfE6TdrK72jhpKQJjag/T3h7++Oh5iqTFXwiM6Vb7+x4JKono06asOqmN+Wxwt7rWk0wXRgB6uBMZtod+lfSMK5sFVr5QG4lNMimXB+26CRYiHRdVJyUwFsCW+Y4EvG2uUt0uIhqkvufcSRYY04t94hqP67bhj/FucDZl/IbMAIclAk1kLgz9f80Zt0kk3RkNrfBA+6LInPPB33rRPK0+fHRkGHiMzcFuZUrUkqNJwP7p0AEAVgpu3TINOjlVWsNGGE0DHqSaPDZAhhJhYKo1cgD9sei4Yp7WBC7RPHlqrVJBIyIkANceH9itp6jfBnM6vtI4+tHEgc/a+L6umoJZg7BDt65gDgfF3hpAZlbEAr4B41Ob3xDIJ72wGLBB33brTlRtJ09GiDy7UO+VLf3KNtjTZEmWQNGwJRvQHl6Zxf+v96xc2I2PlfnoT5AOv9iT+zk7dxpn25bzuGnn1Ozl2Nmwfd47mNWynnEKfs7AhnzCbxl37nnZnlprCQr5MdtlpJz2LAn5mvEzserABg1Y2JojFKzY8jSgl04YUkU+SA3XqRJZaCki/+VyBrFKkKIvIjZ5yFSk76r334/gWVa0yWTpvyIRNSVLiZKyPYc8w0avwLprDg3XsFud180tEUUh0OY79qIrO3wseX8EVDWCoRIHSUI027CBjk/3NAKRn0+YGqlie1J4e2E/my/VRYiFHJC04SiExEkZM5eO6Tcr/dl26RvBjqVQn7GPBUboTTpPoXqfbmRLg9o105/1sE6OOeM8inYTi6pVdEO2kgzf8/N6+nQe/H7Gnddk31niJMxUUOQ8cYKQ1rYz5FeQfVC/dd8y+t5c8lxecunafZiyD1AaKz9+s3c3tsb7z3Ln6T0L3qh6cES/+VXBFQlMFz+aO1HPArk5KBU1Ivfs4bvCAksjx5kqPuC9fN4vhTBw628DfAJr45Vf9VR7PkwWcZcfGXb/UF3VLFV0zpWrXHEKnL72klSqhzUcjc/f4jskC3kV3Z1pttFfI40fixfFtXYJGXJEceHOFzk/GoiaRMTeNHkhZc02DcaXtOnQXfTB5iractBXYp2eJiv//55ys+wSC17mPCd6pdi9gMx3PtA4KqjQ8aBAaOA+wNhGvkw3emD+gfkW/0PuRDIJgNEpbPmKZl1kgXpFXQsDijqiOYH3c1+MUxjvlXh75a87bxjVPolVzKzN/fNbYBHld3N0zlfmQ6yusAfNlNMBZo7vFO3M8l33L4sQo+qgs2poyUMhPLxBNR33wcjZRNO2EIFnPv1ghM+6jZK6EMkwkE8lQBK4qcuVnXJHdHj8nY63Ajan/ckqM2jB4Td3Lv2VWPbq4+KTYyorXD7rDLum81VCZ2vlTTo/G+59APUWutSAXUVTN0yIFbDudk4Vt/nudvAoUb9TrcDYOkIQ+ggAup4jAvUKw2meKKNjmqojVsVYX2ji4eKYIKpHUnRBoLmtzqSbZ/BxnRuKOmsQjMIDXnXlI+aTAmYf59C6E4/e5vk85q4grI7+qOYFCZw+q9GyrZf4AxQ8PXIEe7pVS+BLGD/2hamGRLwjz3jNoaLxB3C/1fnsQFxp+NGvmcOFv9ExJ+ryCVsKv6Jijl27ZB/zSojSDiZv/1Jqb9+Kcezu1MaUivqv4CMW7gMLGu5DG+ucdXnpV8oZbYxuP14ZHcBP99tdyZE6HFoi5NCDH6AXGqTVgVHT1kFnDUJoi/7NBIan7SaYuRFt3zHLp8W/8/G/7aV1B/klvlLRuiEy3e1/RABhqEYlV+QW1MqsSqknRW2ul4epwxfTI5mXbXPUzj9CUuglLzKY7Smg+vvkPKj3NbWWuXDxF10HsqP6g3GOmtJMxdiLgNr/qkLYF8JHfnAC+bjw6jxqj3GlyyBffDkp7E8WgGRGS+vNqTzBr2WVSsxwuXmiVQGPQ3pXok4XqdquuaBN2P8XHsy4MXGdWDncdDO/iGH5FpUcthhoPwYnjYGYXt2O5Kbk4tBTIuy+mZkLEHtuhZe+G3tPnU99NZ5W5vpz8acyZPqOemyRmAuTEk2/8RpKkv45ZS29UlpOtLT64zMtfoSkMOfn36+w68DsJxsem5okMj2wNDciaHSB/kc2Uig/+i0RK2ncyjIJ0n6hPNNu4NqIA1sTQ6ZOyu1iXBnUax1Mvf+1H2oH2JfFg85xu8xzdrcYmmFzZAQq3x6I0VDc4zg1jhJxmtyQYdlnI+QdM2RoGmPsa5J8Zfco69WPGfvVJWybas+cph+9Lnb66iqyaSHNSTdk8BBQo+ydoGu+kSkYFVKutGeOH5cJqmAeygqEisByCfBcR3OVtZVZQQkI1Z3X7US7xyRfWAjzyIqk69gBt2boUnpms7YBCIH9lfTpbaQeNzuWzm7ksVrSS8qJuz1g9Xy6kQQzZ1fQQujQ8aBAd+A+wNhioKN3Z7WKeLViKvceeWAj7p57EpnXUNL+df+PyvRfa2kfoPWKd8Lajdu6NNDqG8lWQ6DvUWqjJYhn9bjusWPrpWp+B74oD1CJm8cmWuMG1motYgXQmpkKFBhiVbU6o2UDyu/K7EYYdFasBKqHevAoPMg1nuHmoXGzaOVlLdxdMsa/XcwU0+79vorYJZ2kJK2MeTrh5or1vNgx3vqLBPa/U2ws4xCne1Do6kCqwN+dX0SUeyE4ihc3Oh6Oz2hadKSdfONjxC7RD+l/TZwNSgl8fpd2kHiU4rpRZ4o+OcTJdBfXI6iE6uquGWNEPvonl8CW/3MFj/iq4DGWJkpLLk5pswpLyhmYjvc6/svSrM7Wv/eYAZfsk0cjlu12a5s9s0lDM7y/aJ+qv1lNz2PJBX+P3S8anGKVfbHHtlPLXNjz2EfVtRM9WB9CaUm9XPhtpAYgASCjdygBIt2Mt5UH2bfPBqECzl3XpT9yxltEdV9cJtsnrGpmaI3DNWCB0Kgwa+l5zgCAmsxp1vUNwsKtqiBY7dwz+eO9/sp+nRvC1IlOPnqW7gx3/ARdgVBQTVvSKI0On+Fi7cZWEZycQb4hMsXw+ZPmjSQSzInWSY+71IsiIUoY79bW1w6zqFJ4/KradeaPAlyrgdezALbpNKJhfBJqjAmH4tWLhyjn4LJYiuAUA2/DPp5pkfyQpAyXBVMaL/9nMdGACuAyTcg5XzmNkquVyYnJnyAUtHikGZWlgFHJYDWQv7FgtFlbme2Wq2TR259x12ec9WucleYRP6UXPNrYxoCtKIuRyXn6qiFj5aiVcvsTQNpQ2wKMqtWhF+RQit99kMHc/cuY/oO0uyZPYjkYRq+ZN1LqmqqOwi8/FOOYYBIx2y0uqoeewsN0yug7vMkq/s0PXPi76SRB9oVaCuUFgzDuY1+URV1B9SHLQKtltqY9fCIhCLI1o9HaO9jhqlTLl8CjgvlZlmFi01RYKHDL5Cc7/MhAmGIqXqZxodR5UTXDsHIxJfM/lFadJoJNUXdn8/9kczJqUD+Dtr5Re5PQIDb8O/itJRnIfUZweLItDjjq53qa5EJ6Uz+2/kDNiZCSDGdhNJgh9JmY+i4qDDe6b2HETenKy3J9cfV2aVwIPf9+kl+G9R3Uceo/IMHjywj7SfcBsoWyaIso1sbJGOJnFnsraswvfHsOr44CYw22tIPKI2RR9r1iyzGbVavZpaeShpM+dDwIV4FGTI2oUe6AoY1pYKLLq/pdN4UqYW1i2b5kxVyG1AE6iTsNcqN4amjQ8aBAhyA+wNhH2MwGPRr2rM/fBoUmms2o6acfW/8rT+/j3gKRxQD1VipezHdTWthXYs1w4nwsOvFgN9nY6b6z4M2LjRFCKZQeyNgyG+qsLEPkZDslxzHGBOeOiOBcG2g8vBVxmmIczoQaXhlIMeHMTVk5KWnobyEkfg1Bjrr+MckgBNiQjd9pS1+6SIm4PKxq9E5oYB8Usy5oESgsLrbjsXPnYDolvbqySgDc/u+pOHoFmbQ0wfdRACEo/pN5tpTKjo1Ebm3ONvpDOaKclqb+vE9k5CMgLxZMwer7P9MtGEGCcz4FXP6lox5jU340DnrwCklMdPvuomgJ/NpHmzhU3j3J0iERUEwg+ZtxgaTJR99QgSeA68Dei1xLzk+/y+FvYHxM3CqvYDmEgGz0zFoBXrAMC394MCWjOymPOcXt/T4XrNrhLY/h2EavP3UGjc+o05f5ehu5HtQPyYQlhhK5NMFCeISksfDNXWCCYpFIYVlCwAZkKBguqi1YOWWKVgChzAtFGe8Owh/Mg7XObmVI8y3UOPkfJSHbDawmekRBEJl4vSSSmfDiD46MhZ5UqScbV/FHo9JGYDftcmlMThm6baN8XIO/sfhzw6qEo9+Q3zIXkw/5ruc7taUp4Kwx6DXZfokw3+9CaxPc29ERl1E1Kdcc0rHawfCF5lavn6RUXikvlPxVeE6sfleRZS305BJW9U9if+KCQg7kXUjXxalI4vTBd68B21hFZG+/YheKkZa0KQW7X2lHc6wAAn+m4ro1MKjWkSx0Olma3iyuVjKLbTtbnPaxQ0dEwvrkba41V45j1X0gEVYE/hHB6BxYO3BQD+zBMfp0MAAsOC+Oh/0g5dDPP15JyMiYR+6VlsEb6z6rrG6GMSSD/XlF+CmZrn9chuKzZusRo7wVrjmqf4KsqDuGmS+W/B6hkIFEQzLdDfuwKMXnf3qnSkePqCaTKjl9iY3MwcFJIqLiWwdUgPR89wDVwGJgjHPLfSqfUnLfoWNqohrGdd1atntkjFCAciAu/URsyjPGF0HwJfQ9dG2BIn3ZtOSknKziLw54kNv4q8OlNIWkQr7/mQOWFkQYNdMVc09wHU3/nS/GIoNQy9jiO3cgV6ybLYnhGmVSGcXTsvBeLAe9r8GizhqY9VaLYQ4AC1/fbfBfFI62t38RdgilMiHsNI3elcxiee5sGmSJF6AF/zpmbTAU92xWyXG/faYoKL/YwAALObjCXbLRqv0ZQpvhBmMxY0ktF5PKdiObN+A+33tlwOdCU23vM8k+HDipRD3DmkiRtGjQ8aBAleA+wNhIfI3bK+SPsx/4sH3sBhkNyQrWj38uUIN+1HeVLBe91cOly6xp2Mc0Y7koFg0inlfvVFD3WVvy6z3P0q0E1LfgIVCJnis/9eGu85MhzwGIzhbuCUPcUFbipmku/Bv9IJFce8yxw0uC6QGF/js0ZwaCeoknizCGnhhIRAgjQFTb7vwSk6VqRo/qWTMRNOwI5+qPjj+BPRikq4WEGAthM0FoF7gMlKtPE8QgpsZJzGyuVUhLSnx4YkK+OdAehcjefQdphZStT1A5GkUxCBFDf8VwuIpDZWOjuuPcKURHNeSKMDjy9wcN/DW6u8VPDEXEiq0wK4mfMeCLtYtSRZ8e9OOsdN3YQrkxyr77+Dy6ptaDnNfLM0XVbUHV+hQQHXuWfn9XOOJUnGBz/ROV8yL669yD4D8uD7k2PcZUKrFu3/FNWEiCnFQj4M+/NmijjBQhIYtBmFYCUwEXy3Hqa6PGV8JEdWn2ZJkUTqLtHUjeafJfBIeCS5LoY7hOm9gaVY6ddCbF7AzIgBCgQtpwIVq4dsj+flw5f51Oj3LbXPaEwVsnbtrH25HuQvE5J6gllOqzPEp9GHZwReviIvX+nQKb8N5uWXbb48kM/Pibjtc6ZkJiP4m4J0PjCXB7kXiaBwckM1b+jbU3xQkgIAoDjIsgEEbt+T7KMwzXE2JUnhoGMpwmRFOhaxK4j4uJCZsEw3pBJlESuwgH6+5KpyB95aYJ3QNlCHOoxUer0shmYOkJ+bA2+xa3Q50QWiSea2fqCBoAvBNSejPQkG7CYpN84mmylrPD0rEPDqus7FRHEdwOR9KTjtUXPmzNVNxNrrzYFO52huZhlGdvA+j8qlWE//fx5w1YTWPVuDujQ8ogB5LfXgZu/NvRCOSZ0QCjFv/3mga2SrFtF5HjP0xLYlfO2VhPu7nmO3+TLqFBuM4c222X6EL5ECdNuMZjQarzkJr1qxuaJ8zfK2td5j3zjPX82NpRQNAzrKQ7xJcv5fBvGpc+E/QIR23xV00mjkjJ1VdUOv+vOpTdIv/MTsT4BRHvJLOeWSwLhO/FhC1TyUH3nrXgUOOpfWi7T4Vv9CyGFguQXOdYgUXpx3pSdvKBiyqlE6hgHIe7u9bVFa1LkbwjLuwaUJAoYE9lRpIAcBrBoMCmBN+W5dSFzAsR1OozX9ePt9OtGItYIfMtZ4tPR9ppqsQXk1eGRVC8FNkzZF1b1k5XARmyFcsEOiaTFkHIUEMouWePCs8bqRKwm7/tp2/XiLn0NnM5027ewV8lRn06BDJahK+y7WjQ8aBApOA+wNhNgFkN6zTI8aCfVeuqi6JG5yJAsKWYqrLLKXhPjvYnCB6pa2UtQxEoSZczyj4z5Fpr1m9P9kPDz3YIq/7/qz/I/qo+8hDSYzWmuwDehaAUuwtujpWpRRDWv1Pe34cwRv0IjSgqKlLL/AtLjtst1rWdtnho6JRptqsef+JcjF4AfhYYmvqCfb31JShkaKim+UCH8FYCTnHtt5Mux7m9PMTcp7bF3KmKEV1IE0iX8sTL12R6FSV7TAW+d1T3pJL+SjzEdBgxb5c1WLv91cQFrEBozHb/WyDHyf2vvZ+450UgR8JN1XOKO03TlXVQY/v12gP18jlFKGsHav5IqzU/s1p6LWO9ee8FMPK1CKAbv9ssR9n4qkFY8TanLh9Ik5EHqWUKoUSXaiWIVyPX0bhD5cm1qPS3yjFo/K2684P3v1RJGEYrmC3DbLAJPv3MKNdPc7SXp/r4p/UgKzYfPHNP2IPHjQcU3jDfgyyK5X/aAo2TM9K2emU3aMywNW7bpOYoOcWTFVFurac0lZC0fqBXbs7OlCAyB1b4CDvQdCUomKryJj4702wQG9dYBatufPHDDC0F8VKsOSu/4tIhD/zSMnsApyD3TcCmqFOV+BS7QJqEzNYpNwUCoyEvd6/uwjSQb2GWXZ9npwLn8kCvnrtrHwtH88aBq6YhdQqcLX1Vizf683F5gcHc+uWxU0UAxLgfWB4sOjsldglQeHhbs0R7FUz6y4FhCF8ksgX0ppH3IIed/OOMAaqqQcliLsDVYOFBGM6BsFRNxxsA8DL3k4nQI9xmfgjxeqWza6nTbZgtq5YjOQzyOJ1hwcXeWxLjWcU9Y+CpHF0gJohZOVBIqkudZmmYXuK3fVEoapqBejGmKArfbatpF9P1cA7B80my6rjKm9XsUcuq6eyJrFumkHZqn3SkMXDSLS8P7+3oNhBDIyPkw30QNVQLwMZl8pVNT769k7Be3mWu0nKqttZaIbj9inr2qupHSDbjH9vvnmm17Q86r3WXVxwUAr8XILbAbNoRUS35kWF+NVFR8lolsrt6PInfu3sF0tva9XMQ9BlcSw00zldPMIFiyQ1eji2giIXtaL5QVvTH6bf5dsgKRdeMYfTEriH9Wa2laVReBtlhwXvu4GkK/jqSBt066gYqJoD0b9GGmHaB3+tzTVzJtXTZ76PUQvpBoW4j3lL5m27bU6onc4svmgeE8fJxbXzFbHvvb7nhCom5Z82TbP8PIJgou409BNOfiwqrppc5zrhXcgLFLRXizVI8yjxyWLZW64QO++jQ8aBAs+A+wNhGFu8pLQr1DcFrTB7DvcoO+9xrqM0ID9vUH8Wme8s9waTqTcmJoHGz2m1dOx5Kr2K/4Tc7XksQUTFgHvw9J6e9cSsckAjfP5MSbQQwA95/73FSv+HrkCBmbxHY8ee5t1ZcHnun/zGma6PxXObygcdteTmHUd0bWmSFqMjqLIaD6HkSTQDMN+jfqFq5/Fzz6MXwj42s6HAoIyhIToFIH90UehZ2wy1UJPcR8zJMZ7lNcwifTBL57KuItPu4JhVknkdi2KD40CcRyE/Nl0uh7uhqUSkUObimXTGm8TbE/WELI67CNwhaEFljMXmkUhyXyCEhkzta2C8o/QMjToYshe4FYcCFDoKSsOq/USRjTrgXKEgJeeZoCq1GyVyw4Nu+JikqtsDiYx1OnwTSySs0RflrbX75GCYUPbccw82TBa45GEawt2891gHsXPezjgb6wBqAtitR3pOtOE1WCqCrieFS2IljG6m++fm6vz8pLx8mByFToHq/fPvWm7CvQCissvhnVYNn3kttr1M0TUiEwkWrQgyRgv93RB9Fc1p4su9j7NXKhyDhn2ux80kl19uTeUB6ZtJD1e2KuUbF9LCfnLrqU0Bw8QEI7zOINDYENVr0GJsjqhEGemWGMGcUuIKoQ7BGRLzVInyt0iW03owawU/QYZVmHhZ/EsOwdWwKoyAuCyaJ2PM2FXmtrK/vrJoqCj/mpffY+YaureYZSO/BccuIjdH/BtXPKw83D+0AmhtBH0gl3/h7p8kfZUm+10685CLKbTAm1L62gPEWlHjZk5tKy7lkwBXAhdg0mR5zb4iIF3U6gwMZZR+icSNj5wde24XvBZ/HcD7hOUe7lyAZaHNYTX0/fhpTgbYsHSUaCFAtAUdtDNSZ5bpQPU6DvoUvH06Im8qFNSqhLoVsTNonLy4jSxfTHjzyIbsl4UtX671wXw4EAedj3ZDBUSNN1fFjQtVCutiraUIMyVYW5d1k3n5feeeKocjLAimhqqRkI0r4f3+VyVgS3sZr622/pn9aVexv0uwZlDjAfoK+eChdU+0TM0qmqwpXImYap7tHeIP/LbwTae+KMMeeBEF3QeRCaGQzKaq2Ey8vCjxqiC+V+hxJEu9uTSV4qkKveN3yte1N1WN7WiubxYLQCQR/CdG9MS7rn7SixFo3lyHn0sCv8KfPYc5Jspmlyoc5I7xmtMDrhv2OPV/4Hbv9k7zZRatUphjGkYFbV6MjKoSGlGqSjtiStdy6NbTcH3/9UzIA2aGSymfCmWpyqrh4zL2p3aYMvOjQ8aBAwuA+wNhfXnnJwPaBOe0wgb2ajGUGfleN6F3Q0dPWSS4yyNbNie8JJ4jwG1bdK3jAHT5HrXRdWs30waUYE7CEAcp6o74miRdF2Jb3Nes9576GQad2Tb3ozusxkWzrEuufLeYi8QJ1v6rHlV1CGepnRRSN+Q6WxJTTLzKvUe5+mAxNyNjA8l+QkGIIEoHvENaSY3qFUrI4sjwAbmMppWzfeBNvFgE4cSxRGsixUWWhcXTqybloe6YFWsfc9pyKzLNxKrAyG6dm2iGaengck3BNGJpYjzMarZm8y4fHd7jyO+c2k72yWVwJTyptJ0z3ckE6POnwvriVAO3qyPLjylktPrDFF6LlquAVQ+ZGLMcTSUUQyOCMCYHlWQabmi6Go/ICKx1KDOdfcWh9JdGmUJUedRf/F4MsATLAQ3+9PW7C/aA9SD132E16ddXwIodAICucmrakXrBysyhkDIi9AxVcNJ/mYM0nQkNor+tWeCs89pRNFbYt5l926LJ3/9NSubbdCenXd0UcWf7FmUWg2PqTXNT4Du82e2ldvjL18kxBl+coW+HDNzBIvpUHsDXZ7IN+i2Ke9BiZKJje9PUy/YnV3rbL3uNgJ9Gat+Es1/XXBleFufbwnCv+HBJEaCf25ldU4mRdOUIQk4yEz6lhsnKPjkkdhlwcIU7VcchBcIKXswxsSfLkSXKwLM6PG+o27eUX75LUtnUrYocOVPevA6lF3g8nkRty0KA5gDj52t+DhQPAXyhFruPFk338vug6LLeUx/Bf1/yRjfI3kmsYb32kGKxo999Ep80d9gqPDFA/SxnNDLNLYwkCq+3mCj6Se/gmFdTblo4Iun9MgnAcddAOYWpq8h4YReHUIYf/uQYMcVP2nj2EuZnZcAey5JNL7AThCeIq+Ow7uAugKsMDb0mWVqDGoeUTdVrxcx0TQXEV83QlO7BJnN8TDiO8iLWd9EfM5DpM5DNYHnDL8ZFD6KW0W3yAMgwyajqNzFfupXCrz+O5Ww8sYHxMuq7eHTHX8psvUO+zDEf/4bBQba4coHYFjBY20+iJoBaZn+Y+Xo/IZWBeft2Gu1R+qeAEc3KcNYDoT2DTrqx9z8y8yYBIV6v3RTuxmrkPc389rZvMG2CfkyLbOXC5KggkG+L4/sd/nt59roCA6YqoSdCgHHZ9TLtHiEG/FpaotEQ0aOFkTev+ES84T3HdWsiqCFi6xvU1Iabhc48pQGZOu8AxnuDHeP2pQnxCCIx4dJprPWmXGinKNEf+uXDb3O4kfgn7dJ220cV/OUk4yijQ8aBA0iA+wNhNZzuVmgnOepNjnz63cO8/mXRnFFv22iWkxXv2TYEioloKcZUhrD055qqPpwhNtlnnSdFPZI9F+gV79+A556esvt4nu4VrQVlBZMpx+0+408jQvawu/015BkCua+07oPGqIB+3ggZFfThlO8xTCr8/+UHrKuLka83L4+rixIcdEvrQJ8tqEkde3BsmwSwmVr4+nJYwM6pl9CLetuo8jlq+jE7LyXU4ZmRWVBa38r/Bnbc1Pbchf0HTCnu3uxExRpdCNCuaMA+m+8bMBYTRjX7kHTfn/3lfx2DhJTUvW0hQxWU0V0JobuFg55o3R956PEUexlI5ba0uQsJVrXOJ60fVVKXPceJzYkAOJAAx/L8Nvf619X7DKBulEIum9dEM47mFf3v+yxPnXXwXmcvI8nOMyj1xob5sITJQi/Nmm1NIWBpUB/DCHMUcTGDiJGSvYRlEQhNjQeOQn4I4VnzcQ8Afbwl/EC59yBW4qWg0lYk1thcrHCJy4CeQIjKubCQWVYve3OmxrzXP11ed4WIWgxhoG/cp5o51iebKd2Pi6PmIctMgvfcfz37UtffpFTm8xI0kh1bQO8hTQXWYmamyza8bIpsJ/LaxQgZhooZZEuHjvmGJBWYfBqNQGqHFOE4UGyA0JKEQBnARTkOfQbbte9Wgwz1P+G3Bhi8i2VIgfWDV/qffA/t+naVpPswoqKMsW0A6/rNzQUmhOqQKthpnzFAyy06GzLm1fOW0lL7ykscaFBxMCH5Q6JOkKRKVhOdMJM5tar/rPlitPSA/OdjxbKsW4Ai2s3MrqBLKB5StlPdu+KSAVvJuJqIksgayWeBUkYPHxS7pT7dYOdDLJdt9hVsYTVv2ErBORQpqTV3TEqkYjaQFR4jpAdpDBJuOJRZW6IExwa37F0bExwMY5ZC8RQeDBu1OS3jHOGUbWwu7U+PlOmWXt70xT9QBT/np1jx4SKcC79Zziorv7tEbE8Hp0inmKiX0wSE+2vCQe3+HDMaz3XEKws5x8MXT00fYu9EBNnuuzdUqRpRBOJthObDbrm+mKwL/1n9VWA/1jqkPb5T/lvQnirjiRKrnNfHkl3sVOpO6GKy5JqJyD3t45AhqHigX7V7Z43bKWR5nYH8TXgJfZEAcYhplI8IsgEmk8E90JDRSW9xyjGyCzj8D0bvM+tMTWrR81/7q0D/U5Q0YJXxy02h+I0YREdCayt28IyPM8+Fewdnmz05Bb1dgu7nEkGV+PnxjWqo24b9R4k3Y5dNZKkN/RvyXZJ12B+hJdVN6jmjQ8aBA4OA+wNhe49/FLxKn6nCRD7FsgzWkTFnlLu90EO/uFiddS6CwiecS36NVwa8FvJbpkAZsIQZhmysxGx3uS2h7zybclyC+SSGOFVxCSpO+qsA5xxtZQduL0TyXgvlg3kb6XXXDswSuBnP4VFd6D6pz/PhTaUVbqt9QmDxPaQN6MlK6JXX8CjDKPV2WLaxtbPXwm/oR2GxeXdQvbk1LUYpES0AIzf7X3bvKO5L24iR4tl8TwvKGdM4LkIwXL/28Dq0hJ86vDSI5bn4sLFBiH9L8IKiUm/ENt0FVXDPNzGyojtx1RObsWz9pK3nzlYWxUeJvsmuR2MI1TgkAl4cEQdirURUh29VyT0O7J6/Ee8UTptSDj6r289bRnzpog62P/iDy2ntwFMx2lx/zIJwmbfIrm4HAnO4R0iIdF3vhPTZUPbdLIUHzGELCb0HbFfJhr95LgQHmeh/+rflXaqqtp6wzGCPoKdOHJFFDXVnecpDzm39FWdP2KvOabG1vLejwZQ34SCs+10YxJcrbM0K6hCnb9cXj2eWmYsZyIpJkgdvrk2LgKAwXG2vVMpktZSDYJyhuyJPXX0Q80It5IwVy+SeULAFxgKXR9FrqambG9zhNeLA8IzF5C3Ej9YuP1pUTCnI5hUAzsbphyBFT/ffGnGQ8kU8IcKg1Z60Qsl34Hycq/s4ovVJydjjkEqJ3iMmuELVVvfVKRRKrBfmWjnmysIBS0M8mCBkV7n3JCJhaaRn3gVReowKoA5bxMs/xyXf/nncV/cWdb4zm+AUTRJvcQ+B6dxkfVcltqyyDT/MWiHkl1v2oeRTmPdw3CNvfGXWi2VDRmCsrWhHCDVPvuQV8uhC8ByGcEODYGlWw9uET+jcxaRy4PmwCT6ofsEMn4CWYl3feWcGYoKBO2L5IzufjxTGwgyHexwlBHoXUHKegKs+T19NmA0tdVyh0Y1nBr7xmfeZvXnQ1nmdtqHbFVH1lm2WEjF4waoduD7zxB2OUsmULZNJ3XRroTjWcotZNp7YGGdzGsuZQ+VZNPPV8SKbCcfoovUA5aFZ0+WSeO0Wjw5A5C/ObATDCQYBa5hcFVeLSk/n93llJniXYDxhf+96U9rOCY6/f83VXTDJu9agG2fF89xbNPqKjsgwgTWMHc2BsNyQgpxHoy5AxBF0wQvv1zxxeL0YsB44ekxCjaVCPGNpE9fX+yWCpD5Cq1tiwcwXNBG+IHINu3tD/CJX9VJIw58KByj7cq58ugWs9vCzsRve4K3PKUv7otCCMiLDSsSDtSVn9zNbqqmjQ8aBA7+A+wNgOeKl3lJldlzau8K/rFKivGEIBRH74qt227GBBbxe/bYDZ4U524tvBkVqOAWBgxSSIeBPZyjyRzyf3ybi9CeU2XyLIHLdjwbQwPr0nL4ggP/G6MX6Znyz5aKT8Vc3BKRBnK3FykRAW9MoCkMvUY3oKusOugbkWz444ia+ynxW4aqMOFqeHsx+NXrX313jEzG2mZO5il1ijYxfIUdnC/SpYg5eCPvigqWCrd5GCCYHK1Qtz9PCBwRyVQIwK36XoMsNulAPLomnpCqrC2EsVhM0Exh81i/w7nzsimybJNLngBIa9rq5VFpTNLBMWwvTOxyh3nOJlECG4rhP8drykOQnc3dHnu7j5T9RXVzBduI2ohAKkdi1+P6O55aOUik8QOwRNaGgJ5NXYcoTCCWRX947CSToZq9hE3LmE7iynVHRT2BIQs6/1kAxOcHYHjSjQ86BQzBH5rEgC25fUTum6dz9sQjQJWJV/qWP6LsAED+rfb86lQxagX+3IcNGM3+BLPk/Ua1YWHEJiRdBKcvcepeQiqiMoyp8RFe68w/VW+CWJrC/20Z0Vq44C9E9LuNyM1nTHqn5aJDAGAA3UvtBH/48wzm2qCMLobpVYptUaOPrHntRvwRuUO+6yHIJP6faAkGHp+/CIK6UC+UxVhBUluSnUtXVBk6Y2Ad9GKsvKsZzRJthY1igYe+M6UeeVoaMAXusD2x0CUJoP/HAiwksWB9coioDoAarvJByrVuebxrya+MnBSVBLbQcmNpoqGtxwnZ/QpG8Ev8uxVmJQd9MvW2yv69ts9CxqCq2jb0PcB75vXGUBejwWh42eJpUr4exjKKrN0Y16Z5R9vpiUSiZ1leDYQs4zTnRGHB24JUJ/+b1tS8Wdw1YLPB8rcOV1sDjmQFHToU+mCDAPbasc9XRKfpRoRYOY/bWfaHAx4/5s2IhnTeOaWUWcLpaYRa8xfNxG3KAzhd1Z9OUp/SLe0jb2iQQBIDca8zGDdj7uXQla3nf+cMA60kp195dSdEO7tNXym8/How+nBwNWo+oinI/7oSaf+eOfFE6yjNAHn78ysBo2BUztHflKLJfU9VDjVoRJvvpGAq3HCzorn8B2kcWfafsdhLJtRDX+JqrN93ljtUcFcbFh7u5+NQ+Hds1KmeqUCzt0EDDABdNBqHh0HjTke5IKs3j6l9PtVdlrlpnRYOcEmWHntndZvCPq8oCxj6o0LaQJX//vBA7NjVfoCXpfdiGhn+Q7JoQpF9OR87I1dd4lgdWgy74LByE6h9yolWDuwOjQ8aBA/uA+wNhAkTRTv0trHhzozfyFCZI7ZSTaZXxVhKVyRnkI8TcedmJbkcxXCzfBajDzae4a0wVvkpxM7xaUCxauP8AG9bzvBvgtkgpDRNO+Je8uMt5jdM8Zbiaa7xcAobqVDHBvccmhGZBy9NEZXAPcBKQaGYQ50NuMXfVY2oYCMdN15wQzc2lFnyjhZxs9gOnIdu/3cEFQmf8ec3wZgs4kO23XZPUvopINjkug7DUoBy+6j6JHOrql1+bYzAdLiJucveoLk/mrHAXbkkM/nHw5Dk+bsi+2I6SVg/VNIwG4Y5OKoGL9p2WJDwlbeVTlJe+BZ4BtJU4fmK014WImkRAvrZjG8J17x4Mzv8Hauv0bFKYnM9cznFHcPlcHgk56wyzDxCQZ2+S36I0961R2OyBn0aLN+Jxz/0LQJG6UHO4Mb9snAd0iGEh8wC5MikE4BX6nKHfopqfsSvcBRxRtZwDpo5UWysw+YdIGZc6/cTLn5zeVVvhB9qEyVWxxAl3iVeAJq1YeSft7SushKhDwtsXocpIPNDmenQ+oMu50gqcKH9qifPTnFDloZ//aVvw/TUeb0Ft2JVEr2D+mvW19OT/PfBX92zGBwu+ScOggh5iirbiYpp/Qq82Vd67VNqClUf4i8EhQWpIR3X+94USMDvfLc8/c/aKvwB2B0ulf9xs3BbSj625JvSzu90RFQhpHqBqzV0/Usd6gmPRuyU0R4PRCZYHqPtFcEo/zqQU55gDy9UbC4AE4Cn+YuVlHEbG9O9yOjeXL1DuiO9nYBKQ8JpH3AkwQjmd+GkzbrY+LQjgwqXXELaQfqrjD30v0ivaxm726A6JwhqjPkJENzeGYel1GyMOGq5YYRsGK+myi+/9g0gfIDZlDZDmfZvslA/T14u3KMg9Cd+P3bSIE9l8xqHOcvlosohfIYdIG5Vk/mooweY4bJMjDrUghMAvpoiCgvqxTYfTVK8tvKAHLDpT1bEqFW5rzhxcojrse04WoXD2mARMZHyCtie1LVWelVbP1O75to0qAc8TvYf2n15dw/6G5ofH1Hzc7wv7z8eLxdyOPRu09VVmWofQud2fDDbpDuZlE1xv0TxwsFwoZFb9cy38XY3U6v6f4cEvb6eWx0l+WNgfywGNbufTpIcWMebdofWgJZJ25kgsgbWd5XOkweSDWw0Y8l7dhg8eq7LA2l6iD9CY5OkK4trBEoEgcv5IDddkquun5ewV50k83CVyIc2rVL/SAdfaKo+0NTdxCIL/LYmmMYMzrs7K72w2CtN264g2x1y0EY+jQ8aBBDeA+wNhGsitC56q0ML4Tr9LNVF8Y8ST6mUJjYNG1UP2+MtQ8/1BzlRm+pt3gSP2mifVIrKE5nDq2Zs01Pnx/76wBZwmK9y2TgPkTioZMil1ZO9/KxddE05SJ9OFBiVs18AwNddq/1UIZnIQtLl5JTh7HcklEAmHbchI31XUoEyxusqu4/hR6T1TjTD6ku0ZHNWSOPeXr2LeQGDb9L6QOYDSb21xPEi3G2rPlD7LhCqLpPIC3G4f2u5Wsc7kbBh+baUP0W8ybEAG2WMg750wePgXFB5ODumUgVV1mjJxHnQgR7uO6cTiHaayK5QZO+p7yXcu4mv7Z3zQ8+v8O+JvsXE/p/q3rxQzcRCRNwCIRTPRZNV2+sEk6M7b8RWf8AOpmvWNduPivxmZcnqLv1Wmuas7lgymayyfnidKjXLYUsPhI6PLbGEakW1r49Ye9zwSfRIUsQmJBFTVTg5IzSZ2rDX4LU1/LCjbNKPA3iudc/NwKWZiENPRtJ5EEeQcfU7JniCu7F73uIDOJQDQWCbkRYExWpIy27ujYIXjxwwM1jyuhYqzDZXLB3QS/MpfYo4fKgLoGas3Jx/owWSkF16XsgbWxD1b/7LW0h3hEUvaqe9CoTSoRgvH3Co5CFu2WyAq6/BnCZNLBYd8QhliCtrAZKEukmiMoHhvyvt47jMlNzV86fZR81D5PR/VSf3yllOIr+CWnnMlk5XA3hWzD1x0seH9dMSyrvDHgwkyu/MihQpZMSTdnLOj59HVxfV8BIClxEB6Igr7sYcBdpBGrF7+BdaleLgyYRs0W2zwUWCc926EJKMCg5opkaufBlX8t/fmYnWsH6vF6b5V0espA9be+H7JVgcvYRqifXLotEtIpDKkaRri3vo6EEwbxLbIPhwYrpT5Lg+5UmH2TAB7LpUWIykX8t7KKAFZji9Cb4NJQ2taQO9Jk/SeCZ6KXisOg4gpvhquzLc9ThsSzKpgX0LAvi/UX5YCaM2fIaMZHLxa4L62LiGFPR9wIpHkcIwzF7FTeia8BQxY638WBP/C6/qfk4Tu0JuC9O1CSRFgaobzADZc6DaRmgROTU4dE56Dq989v7R4ZQTb43HmUtRvOYWj1+uExDe5KgWSFhCrq3rVoU/48stFagl7Hq8zezmjZzu7i2Mg7e3RPCdiT5FgRWuOd/iLCz1rb5DJxvBguGKOM4aH4zObND50bDIYUAcGvW9d85ibugxHuuBwph7zFeffpTK4OOIbu45m3GMdgXfzLLDR7cnJGpUjx8gHj31j6WEdzwA3J0mjQ8aBBHOA+wNhio2AmyfTLrwgOqnuUIl5T1JD3+6OLqpTnt6ASAvoxos0HWKJjAJlubgpshbZmxNQXnvPIPRDDuINA62VtpSdHljSBKtq0oIPZ6DrNiOEkYzt8/lKvpE6JehKPTUE97f07TjiNO4GGdg0mGYZ2oSnu8UU1jPNrgY25+OVeF1NncKh/i1dVwpex5FEPfLVgg5LUHCmlUGuQ6K5PMJWbK8AeA1PNYj8kRu/I97YbwuInzVnjIGPqsN3cc7BTrSMVSgpdZf9fmUmsyoTCf0qbgOYJ3HzwNr+RJ5nXS64UbJ7qMaQhNOtTHUQpwf2R07aflFFYQZYf1upybvyokxjnR4fyEUIQ2cd81UCuPqVx23B27x9d1+5JhqfzNrgLKJTrDueVGWd7NfKHpeoz5jJ0dOrDUSFiG3MYAS7o9ClVMnrN2EaojT25RDr5Xk58imsk3TLkmS474h3+RDzGaEbmMsTUJlmh3ozIffTIi0SUtioz5m3u9mj6hriwS2hDQSS9oAWjpKGtltpLnLM5OZwZB8drIUU4hxoqVbuyspUkn/zl7BvEgUGndilH40Hn/2FPcu/PHjedniGqbOaQLZjls5Mh3ty8QzD4goAiSaYaNqoGxIrgCyuouuHtoMoAsXHYflz0jIMx8AOXqlqwOoVmEakTSFjCUP6Uf7zp1pEPAxJ+kRK/OOk4FleIcFzNE5jp5jVi4ChFNbvrHgnF8AjwvO4PtHvGrvPfP+iM5becNA9K86/fK9uBsOov5qgv85usVpK+/m2Zhb/ZuTZVM5griN/UbxfAKaXGgaL2mfOFKkVb2zGR6BGyzwvicaYtIPWhhkaeduYNMlg9ddB1lwXTnBFYRp0631vzCs2a7KHGdpzH3l+0pOlsQPop6LIE5P4SO4nvEGiRCnKCexvdw9psYdFRlI97CfxyzSWSX1Ntk9B6vUejr8cFi+L7b77bJCirjXOez7c8qW1dfTYyU5wNoBN7tybO4OyMF1YsGfrDZRfzKbxuF8OMmWvXVeJOXASZAPuAIjfMVVryD3Vph2ekfwmnuAkf7Bvnoc5nMmq5+M4NGkA5uVIHIoIC/9t7US8jITqfsYNRnh2btiXxYjqa15xt8gEOiwAmabB8cpcTQ/wOC83pDw0asO7ztXwFMIfYHwKsHKT1b6Fkn6eYf8718maYPhX2po0UEKeODbE4fiZzV/AfLhUf03pkP2EvwAdAQiMkcTQ9QC0bbRF/m2aEfgC4aDxfyrSTU2MDIgepEQaOzgLPmzHW8Vyxg8Iq9xCqsCjQ8aBBK+A+wNhGINJkTd/GfyGCvgyvxSAjrZlWxrqM8J7c44ALhg0Dwg9NdI9kLDPm5NIzrEg7v0jfuBvKr/WDgFtcPmCwtaybeghJVRT57g555AR6LOMR4HjWq8uE+rlfgvvZtY250FWSYD8HEfpsUrFsPofyoXubBcbugP+9tMU4V/gjSanq+etSY3T0r1O+Bu/f+SXqG2kRuTJAgN/AKgIL40BUDSmC3VTKE6qR2JFcELnQvL0/AeFY+Bufu8wMZ1H30fRCyZxb6TLf9D/D6Scg9KZifycmNp+QLHhSlZ+qWynmJX+g7FUByJrvdSP94bBvx2bQh8c3twbwPRsQ+OzDgVKObhqxF/3DEax1ULghzGwCWlIIajiEk3hcnMXfkDGbwnBmueeukFsc3MG5VCcrprdALmj1lPX/9pzYALcUrgmigQPo2EW/F4FOKJre1e78CNszsB/Yi5M0l9SOsgeUJD4A2iJN/o1Lc2j6vyHNKOWD6GZXJa0sYZfUbhet9x2FOs3VgxnEw/3Zq50GP9hzz6aMuCVqtItFqoYfhvUUFSpM9eKEELqQ7A/WaNRKB0GhQlg1J1gzk+YXcaPwNtMWX5CKFBZKd8AwQErYUIvW57RT96lNErA1AcndX1Jt4yZRTGfnIpJwvtvfEkfLzJif191y7VArOD71gcPDU7JUVkdkLgpG0Trz+TD8Vnz6NUtu/byvQFSjqoOPcmMCEtQCyuMOmFi6+6ban/WPlxy1y2wZtsAHWPqCHrhxk+p6SZBUdou+ed9iVb+JLffKNoSPbd/yNp3hcYP5lLbDGoRLkW55hBjhWwB0ACDraxZH5WpJfGks4IkNI/CBGUkV6YUlntpe+EuYDLLdWWTeI1FkyW1+6qOH2PVoNWk/jiLeSccTV65FoVI/xnUx2DuGyDYJOHeZnEGzNqlRC6DoZ5z3Qrfff0qeI5VFczXxHL7l3Zs0h89GHsdPOe0yTJBxa4dZFRgnyyTEByiVDamBnb7KKDgpWPCUmEbm+0BGPF4IMcB0xLl9OmxfSq2y2XVkOIDHPaOiGoTmnDfGWlkqbEaDwttDLB/LUlLl28m67QTBh2B87RYBLS9Etlkw9QE9H5TwF7PH77yruA/jCdietiJK2VVZonWGJFjagL/2B0d33OC8xzvRJFjaE8h25CCj6R2tGx9w6ezhHb2ZvBNjLxBzsbb7THE7ixKwFyHjzLJ6ZOvL4Il0q/e9MadI9ojkL5mEZ5+QxLQPbh7FnPD24PcB2mc9KYLgQRwapMlKD50ywQcoGDqGEmjQ8aBBOuA+wNhF20Wp5gVeaVMiHTI2mWc5lpz3NFN309qQE1VFey5IXS09w4UC688ggvSII6jLXEUGETGIPOG/Cyt+Ib8DNeEoBqb5nK0KULlGhyISsKaCUmZ4Z/XXg8fM3dMAE8GEsL9rR5vvgGgWXopBMdf8PnAHSZyrOkdYt/uO8AJpiCS1PIY2yYQpBe+eG3B5ViC1mczmE2LdPHRa8lTAKjY17OU47t2oh/9iprw9encfA5zwT12nQ2zxB4QuL+/q3pG0ZPpEH+NjIwnGwTIb4OWJ71KZ8d/WBcrHobBIhg805LGXXNx2d0SDmFxOmSdLsISTL9hGZoVtYyE1QBzLrwdgAPOi/Z7V5bkAd/iuxAU0kS/bpk4sT1gOepjxEb9uF9IjvLS26D4jM2x7b/IvnDAhCfBrJLdftirfHK4T0sHWDtbgmEXknfVv8kDo7IeqxIuWOdBXzff+nt5/z+B13iD4sBxNd4I6ZjAFKdni7p6Wk4pAZPYxU5ueZfQx3N1eHtyUxqY+I25b1KKtumJnv3aAMmE3wXBFHkw2+k23MZ07yhpjSwjy0Nb47ejIKKcFBDiDNjFeKyYOwC8kPLkr+YCDiQdGEV7K+UF72irV+hYbdJ/5Oz59eavGiFKiGOh9mzfDYFl2bfIUOcE/OVUyh+BRRli9iuND6mjGz+LQweNw3FQeEKHAcHQrgzYx2kI57BzLHP0u1GzQeNiH7uhQ01Lh85ro9tKknsE1nbcFuHRxzGtAt6MiV9kuMcfY9P9HWORCRG3vEyoeXJd1ysfDAfU7qCpjrDRruOu/IvpGqf35bQWPwq9/e0689g8zCROHN5hsi+7u+LHLaUbdvQy8tt/I/9eYRqSva6Kie824ZSXA+bx8tI9/zWu1KyNwmu4M5Dkg7RCUBptvrXLPy54gY+u/yuAUARkeJAVOcDzpZ/9RnmP2hp5X6L+rkIZzoWNQGsthuDACYugF49yjnilU+1jm8QFRBgpC8jJq1XS1OgAC8uJD0I5F9a5ciFJEo11ZzYMJo4EXO2fLDY10pqHjpfd41Q/pienIqHYkKVyy9dBBbtR125WZftAEsPr2pzN7x2OlRt0sPWyL0gM+wcRUuYyhi6QbZTvBJ5ibbDxESJDBX/q1jpXQAFu4O2tYCmLbwSZm4rXppv3V576LY6cKYCU1SG6vX3hE5iSENq4GqxdLFF8DcADyrNTZEnJ0O4+NJJzd4as4N6OqLZPmobzvohRaHJWTYxpVlUxVHM6wwYp03/qPlYyqwLtD96CynCand53bj+jQ8aBBSeA+wNhICk0BgYYPCXrNPDQDuZ0m5hiv1hy8kkQUEAgr9R3zTx43d+Hr2qp8POfg5k+gYZv/hr2ziRFCh2RHugbdN6RZFhiYTP5DF2cWUm16lTSar8vQVCYCpd9g8agfKEUo0ZE9cwwbK3Ir0G9u7TQAYTVosPIE3PfBSaOdAz+VpKzNRmDxOpEhHkhiAczo0hjlhZeKkM1KeT5Jhm6ThYLB7ibky3GnimX1pYEoTDMqeVCMCWzNuAF6xXvACQ+rY+33dB3GYVhXg0O0w1xCmL/9U38DVO5Saf6TK+cO05uKMq+dmYshOryzMjB9471gVyIhU3z0CmLtHtlxWpN9VQGbO4DqQlSO3RiCvvsxUjcSHCaeKZfv9V5hb18U68RgZWJlVwMpmfZmY7SWebuEKK7g0LA+F2ZNK72R/LA1luRBYKQeWEJuahiNTZqsII7koFnlCnv0UHeAxla1kGpHNCPS8Wf7xStr0tbQrsqzO4y8ntg+S1rFRs6FclytmOvYhxPnemv36YaanjJ6lvfdaQJVMxLZK3L+qFbRez7oSRO0Lsr8ZfB4gmyUka/WiF9nITiDo91chMwJpdUdgI/eVh8fxZmtNZ17bFvZJLdL6iciaG736muYEphETPSDGmIROY/GH8HBJJXq4k7WHYXMtOSDwb7/s7tbEyaVWQFW0iu7HllJ7gv/GpvAl+bP/veqVeKiwiDSKoV56iPSs3jnfnN2vewzuEpztwJEBREXg6AL1owhXFKF1aDZEDiNomIQQc3iwFr/qvlqpv2NaSK7+fhOmVGKJAYKAuq7FNv2h3m4E2uJvAaXH1fzIDvCyimt1cX1uV6qRF1T9v0dwp11ATPIl1MYXqwJI6u8+Q2P29IaSQ4vNPwA8/9so1qCYo61XDyNxufq6Nxfi353ZQ5Eyl1TXBGVmPaHPPhiOiNMBb3ZFbz26folEOg/5VbhsrYORS3mBsOzkqH5pO7GHDQCnt2yghTe9/pe8+lqJ0TqeCKWlaxoMucRluP+IY6bla5Sns/DQTcxvTED9Yogje28l2R6+u5dQuWWpPLzdcOL1TPaX2yLRw6hqQ46qDT1g2HZ9da1N4VeZbqvCyBuxd6P8ws914tlO7xFsUNOJVV/Lg5hEmxae3C3UH5UsY44TD7jOSyDrClkMIb1/4agtMlpcmiLNocp6J7ZrnwjKJxsxgtIVPG5SVm/MGjc8yEFlV700qVxvS36v0t00lJrGZy1Y1yeK8tLXwHJD/E3sb/bYpb4Bk9/9gve0vtpnf2uhM7gM73f6c=","2"
"","","","","","html-audio-response","81","245934","0.0-12.0","3gwhe5k5v3l91vx","3gwhe5k5v3l91vx-2024-03-20-05-11-14","1379","","","<span style=""color: red; font-size: 24px""> NOW RECORDING</span>
