"success","timeout","failed_images","failed_audio","failed_video","trial_type","trial_index","time_elapsed","internal_node_id","subject","subject_id","study_id","session_id","urlvar","current_url","view_history","rt","stimulus","response","choice","question_order"
"true","false","[]","[]","[]","preload","0","263","0.0-0.0","3FF27EF7C8224767B45D905E45BE4E6B","3FF27EF7C8224767B45D905E45BE4E6B","90032e6c-c31d-4bbf-aa6b-db8f298c57ad","e622c465-ee29-4445-8260-1f3431e06587","{""participantId"":""3FF27EF7C8224767B45D905E45BE4E6B"",""assignmentId"":""90032e6c-c31d-4bbf-aa6b-db8f298c57ad"",""projectId"":""e622c465-ee29-4445-8260-1f3431e06587""}","https://test12345.live/?participantId=3FF27EF7C8224767B45D905E45BE4E6B&assignmentId=90032e6c-c31d-4bbf-aa6b-db8f298c57ad&projectId=e622c465-ee29-4445-8260-1f3431e06587","","","","","",""
"","","","","","instructions","1","1504","0.0-1.0","3FF27EF7C8224767B45D905E45BE4E6B","3FF27EF7C8224767B45D905E45BE4E6B","90032e6c-c31d-4bbf-aa6b-db8f298c57ad","e622c465-ee29-4445-8260-1f3431e06587","{""participantId"":""3FF27EF7C8224767B45D905E45BE4E6B"",""assignmentId"":""90032e6c-c31d-4bbf-aa6b-db8f298c57ad"",""projectId"":""e622c465-ee29-4445-8260-1f3431e06587""}","https://test12345.live/?participantId=3FF27EF7C8224767B45D905E45BE4E6B&assignmentId=90032e6c-c31d-4bbf-aa6b-db8f298c57ad&projectId=e622c465-ee29-4445-8260-1f3431e06587","[{""page_index"":0,""viewing_time"":1241}]","1241","","","",""
"","","","","","instructions","2","4340","0.0-2.0","3FF27EF7C8224767B45D905E45BE4E6B","3FF27EF7C8224767B45D905E45BE4E6B","90032e6c-c31d-4bbf-aa6b-db8f298c57ad","e622c465-ee29-4445-8260-1f3431e06587","{""participantId"":""3FF27EF7C8224767B45D905E45BE4E6B"",""assignmentId"":""90032e6c-c31d-4bbf-aa6b-db8f298c57ad"",""projectId"":""e622c465-ee29-4445-8260-1f3431e06587""}","https://test12345.live/?participantId=3FF27EF7C8224767B45D905E45BE4E6B&assignmentId=90032e6c-c31d-4bbf-aa6b-db8f298c57ad&projectId=e622c465-ee29-4445-8260-1f3431e06587","[{""page_index"":0,""viewing_time"":2835}]","2835","","","",""
"true","","","","","fullscreen","3","6617","0.0-3.0","3FF27EF7C8224767B45D905E45BE4E6B","3FF27EF7C8224767B45D905E45BE4E6B","90032e6c-c31d-4bbf-aa6b-db8f298c57ad","e622c465-ee29-4445-8260-1f3431e06587","{""participantId"":""3FF27EF7C8224767B45D905E45BE4E6B"",""assignmentId"":""90032e6c-c31d-4bbf-aa6b-db8f298c57ad"",""projectId"":""e622c465-ee29-4445-8260-1f3431e06587""}","https://test12345.live/?participantId=3FF27EF7C8224767B45D905E45BE4E6B&assignmentId=90032e6c-c31d-4bbf-aa6b-db8f298c57ad&projectId=e622c465-ee29-4445-8260-1f3431e06587","","1258","","","",""
"","","","","","instructions","4","11133","0.0-4.0","3FF27EF7C8224767B45D905E45BE4E6B","3FF27EF7C8224767B45D905E45BE4E6B","90032e6c-c31d-4bbf-aa6b-db8f298c57ad","e622c465-ee29-4445-8260-1f3431e06587","{""participantId"":""3FF27EF7C8224767B45D905E45BE4E6B"",""assignmentId"":""90032e6c-c31d-4bbf-aa6b-db8f298c57ad"",""projectId"":""e622c465-ee29-4445-8260-1f3431e06587""}","https://test12345.live/?participantId=3FF27EF7C8224767B45D905E45BE4E6B&assignmentId=90032e6c-c31d-4bbf-aa6b-db8f298c57ad&projectId=e622c465-ee29-4445-8260-1f3431e06587","[{""page_index"":0,""viewing_time"":4515}]","4516","","","",""
"","","","","","html-button-response","5","14263","0.0-5.0","3FF27EF7C8224767B45D905E45BE4E6B","3FF27EF7C8224767B45D905E45BE4E6B","90032e6c-c31d-4bbf-aa6b-db8f298c57ad","e622c465-ee29-4445-8260-1f3431e06587","{""participantId"":""3FF27EF7C8224767B45D905E45BE4E6B"",""assignmentId"":""90032e6c-c31d-4bbf-aa6b-db8f298c57ad"",""projectId"":""e622c465-ee29-4445-8260-1f3431e06587""}","https://test12345.live/?participantId=3FF27EF7C8224767B45D905E45BE4E6B&assignmentId=90032e6c-c31d-4bbf-aa6b-db8f298c57ad&projectId=e622c465-ee29-4445-8260-1f3431e06587","","3127","
    <div style=""display: flex; justify-content: center; align-items: center;"">
      <img src=""images/blue_deck_1.png"" style=""width: 300px; height: 300px; margin-right: 10px;"" />
      <img src=""images/red_deck_2.png"" style=""width: 300px; height: 300px;"" />
    </div>","1","1",""
"","","","","","html-keyboard-response","6","17275","0.0-7.0-0.0","3FF27EF7C8224767B45D905E45BE4E6B","3FF27EF7C8224767B45D905E45BE4E6B","90032e6c-c31d-4bbf-aa6b-db8f298c57ad","e622c465-ee29-4445-8260-1f3431e06587","{""participantId"":""3FF27EF7C8224767B45D905E45BE4E6B"",""assignmentId"":""90032e6c-c31d-4bbf-aa6b-db8f298c57ad"",""projectId"":""e622c465-ee29-4445-8260-1f3431e06587""}","https://test12345.live/?participantId=3FF27EF7C8224767B45D905E45BE4E6B&assignmentId=90032e6c-c31d-4bbf-aa6b-db8f298c57ad&projectId=e622c465-ee29-4445-8260-1f3431e06587","","null","<div style=""display: flex; justify-content: center; align-items: center;"">
                    <img src=""images/semantic/semantic_series_14/semantic_series_14_a.jpg"" style=""width: 300px; height: 300px;"" />
                  </div>","null","",""
"","","","","","html-keyboard-response","7","20276","0.0-7.0-1.0","3FF27EF7C8224767B45D905E45BE4E6B","3FF27EF7C8224767B45D905E45BE4E6B","90032e6c-c31d-4bbf-aa6b-db8f298c57ad","e622c465-ee29-4445-8260-1f3431e06587","{""participantId"":""3FF27EF7C8224767B45D905E45BE4E6B"",""assignmentId"":""90032e6c-c31d-4bbf-aa6b-db8f298c57ad"",""projectId"":""e622c465-ee29-4445-8260-1f3431e06587""}","https://test12345.live/?participantId=3FF27EF7C8224767B45D905E45BE4E6B&assignmentId=90032e6c-c31d-4bbf-aa6b-db8f298c57ad&projectId=e622c465-ee29-4445-8260-1f3431e06587","","null","<div style=""display: flex; justify-content: center; align-items: center;"">
                    <img src=""images/semantic/semantic_series_14/semantic_series_14_b.jpg"" style=""width: 300px; height: 300px;"" />
                  </div>","null","",""
"","","","","","html-keyboard-response","8","23278","0.0-7.0-2.0","3FF27EF7C8224767B45D905E45BE4E6B","3FF27EF7C8224767B45D905E45BE4E6B","90032e6c-c31d-4bbf-aa6b-db8f298c57ad","e622c465-ee29-4445-8260-1f3431e06587","{""participantId"":""3FF27EF7C8224767B45D905E45BE4E6B"",""assignmentId"":""90032e6c-c31d-4bbf-aa6b-db8f298c57ad"",""projectId"":""e622c465-ee29-4445-8260-1f3431e06587""}","https://test12345.live/?participantId=3FF27EF7C8224767B45D905E45BE4E6B&assignmentId=90032e6c-c31d-4bbf-aa6b-db8f298c57ad&projectId=e622c465-ee29-4445-8260-1f3431e06587","","null","<div style=""display: flex; justify-content: center; align-items: center;"">
                    <img src=""images/semantic/semantic_series_14/semantic_series_14_c.jpg"" style=""width: 300px; height: 300px;"" />
                  </div>","null","",""
"","","","","","html-keyboard-response","9","26279","0.0-7.0-3.0","3FF27EF7C8224767B45D905E45BE4E6B","3FF27EF7C8224767B45D905E45BE4E6B","90032e6c-c31d-4bbf-aa6b-db8f298c57ad","e622c465-ee29-4445-8260-1f3431e06587","{""participantId"":""3FF27EF7C8224767B45D905E45BE4E6B"",""assignmentId"":""90032e6c-c31d-4bbf-aa6b-db8f298c57ad"",""projectId"":""e622c465-ee29-4445-8260-1f3431e06587""}","https://test12345.live/?participantId=3FF27EF7C8224767B45D905E45BE4E6B&assignmentId=90032e6c-c31d-4bbf-aa6b-db8f298c57ad&projectId=e622c465-ee29-4445-8260-1f3431e06587","","null","<div style=""display: flex; justify-content: center; align-items: center;"">
                    <img src=""images/semantic/semantic_series_14/semantic_series_14_d.jpg"" style=""width: 300px; height: 300px;"" />
                  </div>","null","",""
"","","","","","html-button-response","10","28108","0.0-8.0","3FF27EF7C8224767B45D905E45BE4E6B","3FF27EF7C8224767B45D905E45BE4E6B","90032e6c-c31d-4bbf-aa6b-db8f298c57ad","e622c465-ee29-4445-8260-1f3431e06587","{""participantId"":""3FF27EF7C8224767B45D905E45BE4E6B"",""assignmentId"":""90032e6c-c31d-4bbf-aa6b-db8f298c57ad"",""projectId"":""e622c465-ee29-4445-8260-1f3431e06587""}","https://test12345.live/?participantId=3FF27EF7C8224767B45D905E45BE4E6B&assignmentId=90032e6c-c31d-4bbf-aa6b-db8f298c57ad&projectId=e622c465-ee29-4445-8260-1f3431e06587","","1827","Was there a person in the picture?","0","",""
"","","","","","survey-likert","11","30827","0.0-9.0","3FF27EF7C8224767B45D905E45BE4E6B","3FF27EF7C8224767B45D905E45BE4E6B","90032e6c-c31d-4bbf-aa6b-db8f298c57ad","e622c465-ee29-4445-8260-1f3431e06587","{""participantId"":""3FF27EF7C8224767B45D905E45BE4E6B"",""assignmentId"":""90032e6c-c31d-4bbf-aa6b-db8f298c57ad"",""projectId"":""e622c465-ee29-4445-8260-1f3431e06587""}","https://test12345.live/?participantId=3FF27EF7C8224767B45D905E45BE4E6B&assignmentId=90032e6c-c31d-4bbf-aa6b-db8f298c57ad&projectId=e622c465-ee29-4445-8260-1f3431e06587","","2712","","{""Q0"":2}","","[0]"
"","","","","","html-button-response","12","32792","0.0-10.0","3FF27EF7C8224767B45D905E45BE4E6B","3FF27EF7C8224767B45D905E45BE4E6B","90032e6c-c31d-4bbf-aa6b-db8f298c57ad","e622c465-ee29-4445-8260-1f3431e06587","{""participantId"":""3FF27EF7C8224767B45D905E45BE4E6B"",""assignmentId"":""90032e6c-c31d-4bbf-aa6b-db8f298c57ad"",""projectId"":""e622c465-ee29-4445-8260-1f3431e06587""}","https://test12345.live/?participantId=3FF27EF7C8224767B45D905E45BE4E6B&assignmentId=90032e6c-c31d-4bbf-aa6b-db8f298c57ad&projectId=e622c465-ee29-4445-8260-1f3431e06587","","1963","
    <div style=""display: flex; justify-content: center; align-items: center;"">
      <img src=""images/blue_deck_1.png"" style=""width: 300px; height: 300px; margin-right: 10px;"" />
      <img src=""images/red_deck_2.png"" style=""width: 300px; height: 300px;"" />
    </div>","0","0",""
"","","","","","html-keyboard-response","13","35795","0.0-11.0-0.0","3FF27EF7C8224767B45D905E45BE4E6B","3FF27EF7C8224767B45D905E45BE4E6B","90032e6c-c31d-4bbf-aa6b-db8f298c57ad","e622c465-ee29-4445-8260-1f3431e06587","{""participantId"":""3FF27EF7C8224767B45D905E45BE4E6B"",""assignmentId"":""90032e6c-c31d-4bbf-aa6b-db8f298c57ad"",""projectId"":""e622c465-ee29-4445-8260-1f3431e06587""}","https://test12345.live/?participantId=3FF27EF7C8224767B45D905E45BE4E6B&assignmentId=90032e6c-c31d-4bbf-aa6b-db8f298c57ad&projectId=e622c465-ee29-4445-8260-1f3431e06587","","null","<div style=""display: flex; justify-content: center; align-items: center;"">
                    <img src=""images/causal/causal_series_5/causal_series_5_a.jpg"" style=""width: 300px; height: 300px;"" />
                  </div>","null","",""
"","","","","","html-keyboard-response","14","38798","0.0-11.0-1.0","3FF27EF7C8224767B45D905E45BE4E6B","3FF27EF7C8224767B45D905E45BE4E6B","90032e6c-c31d-4bbf-aa6b-db8f298c57ad","e622c465-ee29-4445-8260-1f3431e06587","{""participantId"":""3FF27EF7C8224767B45D905E45BE4E6B"",""assignmentId"":""90032e6c-c31d-4bbf-aa6b-db8f298c57ad"",""projectId"":""e622c465-ee29-4445-8260-1f3431e06587""}","https://test12345.live/?participantId=3FF27EF7C8224767B45D905E45BE4E6B&assignmentId=90032e6c-c31d-4bbf-aa6b-db8f298c57ad&projectId=e622c465-ee29-4445-8260-1f3431e06587","","null","<div style=""display: flex; justify-content: center; align-items: center;"">
                    <img src=""images/causal/causal_series_5/causal_series_5_b.jpg"" style=""width: 300px; height: 300px;"" />
                  </div>","null","",""
"","","","","","html-keyboard-response","15","41806","0.0-11.0-2.0","3FF27EF7C8224767B45D905E45BE4E6B","3FF27EF7C8224767B45D905E45BE4E6B","90032e6c-c31d-4bbf-aa6b-db8f298c57ad","e622c465-ee29-4445-8260-1f3431e06587","{""participantId"":""3FF27EF7C8224767B45D905E45BE4E6B"",""assignmentId"":""90032e6c-c31d-4bbf-aa6b-db8f298c57ad"",""projectId"":""e622c465-ee29-4445-8260-1f3431e06587""}","https://test12345.live/?participantId=3FF27EF7C8224767B45D905E45BE4E6B&assignmentId=90032e6c-c31d-4bbf-aa6b-db8f298c57ad&projectId=e622c465-ee29-4445-8260-1f3431e06587","","null","<div style=""display: flex; justify-content: center; align-items: center;"">
                    <img src=""images/causal/causal_series_5/causal_series_5_c.jpg"" style=""width: 300px; height: 300px;"" />
                  </div>","null","",""
"","","","","","html-keyboard-response","16","44807","0.0-11.0-3.0","3FF27EF7C8224767B45D905E45BE4E6B","3FF27EF7C8224767B45D905E45BE4E6B","90032e6c-c31d-4bbf-aa6b-db8f298c57ad","e622c465-ee29-4445-8260-1f3431e06587","{""participantId"":""3FF27EF7C8224767B45D905E45BE4E6B"",""assignmentId"":""90032e6c-c31d-4bbf-aa6b-db8f298c57ad"",""projectId"":""e622c465-ee29-4445-8260-1f3431e06587""}","https://test12345.live/?participantId=3FF27EF7C8224767B45D905E45BE4E6B&assignmentId=90032e6c-c31d-4bbf-aa6b-db8f298c57ad&projectId=e622c465-ee29-4445-8260-1f3431e06587","","null","<div style=""display: flex; justify-content: center; align-items: center;"">
                    <img src=""images/causal/causal_series_5/causal_series_5_d.jpg"" style=""width: 300px; height: 300px;"" />
                  </div>","null","",""
"","","","","","html-button-response","17","45846","0.0-13.0","3FF27EF7C8224767B45D905E45BE4E6B","3FF27EF7C8224767B45D905E45BE4E6B","90032e6c-c31d-4bbf-aa6b-db8f298c57ad","e622c465-ee29-4445-8260-1f3431e06587","{""participantId"":""3FF27EF7C8224767B45D905E45BE4E6B"",""assignmentId"":""90032e6c-c31d-4bbf-aa6b-db8f298c57ad"",""projectId"":""e622c465-ee29-4445-8260-1f3431e06587""}","https://test12345.live/?participantId=3FF27EF7C8224767B45D905E45BE4E6B&assignmentId=90032e6c-c31d-4bbf-aa6b-db8f298c57ad&projectId=e622c465-ee29-4445-8260-1f3431e06587","","1037","Was there a person in the picture?","0","",""
"","","","","","survey-likert","18","47901","0.0-14.0","3FF27EF7C8224767B45D905E45BE4E6B","3FF27EF7C8224767B45D905E45BE4E6B","90032e6c-c31d-4bbf-aa6b-db8f298c57ad","e622c465-ee29-4445-8260-1f3431e06587","{""participantId"":""3FF27EF7C8224767B45D905E45BE4E6B"",""assignmentId"":""90032e6c-c31d-4bbf-aa6b-db8f298c57ad"",""projectId"":""e622c465-ee29-4445-8260-1f3431e06587""}","https://test12345.live/?participantId=3FF27EF7C8224767B45D905E45BE4E6B&assignmentId=90032e6c-c31d-4bbf-aa6b-db8f298c57ad&projectId=e622c465-ee29-4445-8260-1f3431e06587","","2054","","{""Q0"":2}","","[0]"
"","","","","","html-button-response","19","49012","0.0-15.0","3FF27EF7C8224767B45D905E45BE4E6B","3FF27EF7C8224767B45D905E45BE4E6B","90032e6c-c31d-4bbf-aa6b-db8f298c57ad","e622c465-ee29-4445-8260-1f3431e06587","{""participantId"":""3FF27EF7C8224767B45D905E45BE4E6B"",""assignmentId"":""90032e6c-c31d-4bbf-aa6b-db8f298c57ad"",""projectId"":""e622c465-ee29-4445-8260-1f3431e06587""}","https://test12345.live/?participantId=3FF27EF7C8224767B45D905E45BE4E6B&assignmentId=90032e6c-c31d-4bbf-aa6b-db8f298c57ad&projectId=e622c465-ee29-4445-8260-1f3431e06587","","1108","
    <div style=""display: flex; justify-content: center; align-items: center;"">
      <img src=""images/blue_deck_1.png"" style=""width: 300px; height: 300px; margin-right: 10px;"" />
      <img src=""images/red_deck_2.png"" style=""width: 300px; height: 300px;"" />
    </div>","1","1",""
"","","","","","html-keyboard-response","20","52020","0.0-17.0-0.0","3FF27EF7C8224767B45D905E45BE4E6B","3FF27EF7C8224767B45D905E45BE4E6B","90032e6c-c31d-4bbf-aa6b-db8f298c57ad","e622c465-ee29-4445-8260-1f3431e06587","{""participantId"":""3FF27EF7C8224767B45D905E45BE4E6B"",""assignmentId"":""90032e6c-c31d-4bbf-aa6b-db8f298c57ad"",""projectId"":""e622c465-ee29-4445-8260-1f3431e06587""}","https://test12345.live/?participantId=3FF27EF7C8224767B45D905E45BE4E6B&assignmentId=90032e6c-c31d-4bbf-aa6b-db8f298c57ad&projectId=e622c465-ee29-4445-8260-1f3431e06587","","null","<div style=""display: flex; justify-content: center; align-items: center;"">
                    <img src=""images/semantic/semantic_series_18/semantic_series_18_a.jpg"" style=""width: 300px; height: 300px;"" />
                  </div>","null","",""
"","","","","","html-keyboard-response","21","55031","0.0-17.0-1.0","3FF27EF7C8224767B45D905E45BE4E6B","3FF27EF7C8224767B45D905E45BE4E6B","90032e6c-c31d-4bbf-aa6b-db8f298c57ad","e622c465-ee29-4445-8260-1f3431e06587","{""participantId"":""3FF27EF7C8224767B45D905E45BE4E6B"",""assignmentId"":""90032e6c-c31d-4bbf-aa6b-db8f298c57ad"",""projectId"":""e622c465-ee29-4445-8260-1f3431e06587""}","https://test12345.live/?participantId=3FF27EF7C8224767B45D905E45BE4E6B&assignmentId=90032e6c-c31d-4bbf-aa6b-db8f298c57ad&projectId=e622c465-ee29-4445-8260-1f3431e06587","","null","<div style=""display: flex; justify-content: center; align-items: center;"">
                    <img src=""images/semantic/semantic_series_18/semantic_series_18_b.jpg"" style=""width: 300px; height: 300px;"" />
                  </div>","null","",""
"","","","","","html-keyboard-response","22","58033","0.0-17.0-2.0","3FF27EF7C8224767B45D905E45BE4E6B","3FF27EF7C8224767B45D905E45BE4E6B","90032e6c-c31d-4bbf-aa6b-db8f298c57ad","e622c465-ee29-4445-8260-1f3431e06587","{""participantId"":""3FF27EF7C8224767B45D905E45BE4E6B"",""assignmentId"":""90032e6c-c31d-4bbf-aa6b-db8f298c57ad"",""projectId"":""e622c465-ee29-4445-8260-1f3431e06587""}","https://test12345.live/?participantId=3FF27EF7C8224767B45D905E45BE4E6B&assignmentId=90032e6c-c31d-4bbf-aa6b-db8f298c57ad&projectId=e622c465-ee29-4445-8260-1f3431e06587","","null","<div style=""display: flex; justify-content: center; align-items: center;"">
                    <img src=""images/semantic/semantic_series_18/semantic_series_18_c.jpg"" style=""width: 300px; height: 300px;"" />
                  </div>","null","",""
"","","","","","html-keyboard-response","23","61034","0.0-17.0-3.0","3FF27EF7C8224767B45D905E45BE4E6B","3FF27EF7C8224767B45D905E45BE4E6B","90032e6c-c31d-4bbf-aa6b-db8f298c57ad","e622c465-ee29-4445-8260-1f3431e06587","{""participantId"":""3FF27EF7C8224767B45D905E45BE4E6B"",""assignmentId"":""90032e6c-c31d-4bbf-aa6b-db8f298c57ad"",""projectId"":""e622c465-ee29-4445-8260-1f3431e06587""}","https://test12345.live/?participantId=3FF27EF7C8224767B45D905E45BE4E6B&assignmentId=90032e6c-c31d-4bbf-aa6b-db8f298c57ad&projectId=e622c465-ee29-4445-8260-1f3431e06587","","null","<div style=""display: flex; justify-content: center; align-items: center;"">
                    <img src=""images/semantic/semantic_series_18/semantic_series_18_d.jpg"" style=""width: 300px; height: 300px;"" />
                  </div>","null","",""
"","","","","","html-button-response","24","62065","0.0-18.0","3FF27EF7C8224767B45D905E45BE4E6B","3FF27EF7C8224767B45D905E45BE4E6B","90032e6c-c31d-4bbf-aa6b-db8f298c57ad","e622c465-ee29-4445-8260-1f3431e06587","{""participantId"":""3FF27EF7C8224767B45D905E45BE4E6B"",""assignmentId"":""90032e6c-c31d-4bbf-aa6b-db8f298c57ad"",""projectId"":""e622c465-ee29-4445-8260-1f3431e06587""}","https://test12345.live/?participantId=3FF27EF7C8224767B45D905E45BE4E6B&assignmentId=90032e6c-c31d-4bbf-aa6b-db8f298c57ad&projectId=e622c465-ee29-4445-8260-1f3431e06587","","1030","Was there a person in the picture?","1","",""
"","","","","","survey-likert","25","64100","0.0-19.0","3FF27EF7C8224767B45D905E45BE4E6B","3FF27EF7C8224767B45D905E45BE4E6B","90032e6c-c31d-4bbf-aa6b-db8f298c57ad","e622c465-ee29-4445-8260-1f3431e06587","{""participantId"":""3FF27EF7C8224767B45D905E45BE4E6B"",""assignmentId"":""90032e6c-c31d-4bbf-aa6b-db8f298c57ad"",""projectId"":""e622c465-ee29-4445-8260-1f3431e06587""}","https://test12345.live/?participantId=3FF27EF7C8224767B45D905E45BE4E6B&assignmentId=90032e6c-c31d-4bbf-aa6b-db8f298c57ad&projectId=e622c465-ee29-4445-8260-1f3431e06587","","2033","","{""Q0"":2}","","[0]"
"","","","","","html-button-response","26","64945","0.0-20.0","3FF27EF7C8224767B45D905E45BE4E6B","3FF27EF7C8224767B45D905E45BE4E6B","90032e6c-c31d-4bbf-aa6b-db8f298c57ad","e622c465-ee29-4445-8260-1f3431e06587","{""participantId"":""3FF27EF7C8224767B45D905E45BE4E6B"",""assignmentId"":""90032e6c-c31d-4bbf-aa6b-db8f298c57ad"",""projectId"":""e622c465-ee29-4445-8260-1f3431e06587""}","https://test12345.live/?participantId=3FF27EF7C8224767B45D905E45BE4E6B&assignmentId=90032e6c-c31d-4bbf-aa6b-db8f298c57ad&projectId=e622c465-ee29-4445-8260-1f3431e06587","","843","
    <div style=""display: flex; justify-content: center; align-items: center;"">
      <img src=""images/blue_deck_1.png"" style=""width: 300px; height: 300px; margin-right: 10px;"" />
      <img src=""images/red_deck_2.png"" style=""width: 300px; height: 300px;"" />
    </div>","1","1",""
"","","","","","html-keyboard-response","27","67961","0.0-22.0-0.0","3FF27EF7C8224767B45D905E45BE4E6B","3FF27EF7C8224767B45D905E45BE4E6B","90032e6c-c31d-4bbf-aa6b-db8f298c57ad","e622c465-ee29-4445-8260-1f3431e06587","{""participantId"":""3FF27EF7C8224767B45D905E45BE4E6B"",""assignmentId"":""90032e6c-c31d-4bbf-aa6b-db8f298c57ad"",""projectId"":""e622c465-ee29-4445-8260-1f3431e06587""}","https://test12345.live/?participantId=3FF27EF7C8224767B45D905E45BE4E6B&assignmentId=90032e6c-c31d-4bbf-aa6b-db8f298c57ad&projectId=e622c465-ee29-4445-8260-1f3431e06587","","null","<div style=""display: flex; justify-content: center; align-items: center;"">
                    <img src=""images/semantic/semantic_series_12/semantic_series_12_a.jpg"" style=""width: 300px; height: 300px;"" />
                  </div>","null","",""
"","","","","","html-keyboard-response","28","70975","0.0-22.0-1.0","3FF27EF7C8224767B45D905E45BE4E6B","3FF27EF7C8224767B45D905E45BE4E6B","90032e6c-c31d-4bbf-aa6b-db8f298c57ad","e622c465-ee29-4445-8260-1f3431e06587","{""participantId"":""3FF27EF7C8224767B45D905E45BE4E6B"",""assignmentId"":""90032e6c-c31d-4bbf-aa6b-db8f298c57ad"",""projectId"":""e622c465-ee29-4445-8260-1f3431e06587""}","https://test12345.live/?participantId=3FF27EF7C8224767B45D905E45BE4E6B&assignmentId=90032e6c-c31d-4bbf-aa6b-db8f298c57ad&projectId=e622c465-ee29-4445-8260-1f3431e06587","","null","<div style=""display: flex; justify-content: center; align-items: center;"">
                    <img src=""images/semantic/semantic_series_12/semantic_series_12_b.jpg"" style=""width: 300px; height: 300px;"" />
                  </div>","null","",""
"","","","","","html-keyboard-response","29","73981","0.0-22.0-2.0","3FF27EF7C8224767B45D905E45BE4E6B","3FF27EF7C8224767B45D905E45BE4E6B","90032e6c-c31d-4bbf-aa6b-db8f298c57ad","e622c465-ee29-4445-8260-1f3431e06587","{""participantId"":""3FF27EF7C8224767B45D905E45BE4E6B"",""assignmentId"":""90032e6c-c31d-4bbf-aa6b-db8f298c57ad"",""projectId"":""e622c465-ee29-4445-8260-1f3431e06587""}","https://test12345.live/?participantId=3FF27EF7C8224767B45D905E45BE4E6B&assignmentId=90032e6c-c31d-4bbf-aa6b-db8f298c57ad&projectId=e622c465-ee29-4445-8260-1f3431e06587","","null","<div style=""display: flex; justify-content: center; align-items: center;"">
                    <img src=""images/semantic/semantic_series_12/semantic_series_12_c.jpg"" style=""width: 300px; height: 300px;"" />
                  </div>","null","",""
"","","","","","html-keyboard-response","30","76997","0.0-22.0-3.0","3FF27EF7C8224767B45D905E45BE4E6B","3FF27EF7C8224767B45D905E45BE4E6B","90032e6c-c31d-4bbf-aa6b-db8f298c57ad","e622c465-ee29-4445-8260-1f3431e06587","{""participantId"":""3FF27EF7C8224767B45D905E45BE4E6B"",""assignmentId"":""90032e6c-c31d-4bbf-aa6b-db8f298c57ad"",""projectId"":""e622c465-ee29-4445-8260-1f3431e06587""}","https://test12345.live/?participantId=3FF27EF7C8224767B45D905E45BE4E6B&assignmentId=90032e6c-c31d-4bbf-aa6b-db8f298c57ad&projectId=e622c465-ee29-4445-8260-1f3431e06587","","null","<div style=""display: flex; justify-content: center; align-items: center;"">
                    <img src=""images/semantic/semantic_series_12/semantic_series_12_d.jpg"" style=""width: 300px; height: 300px;"" />
                  </div>","null","",""
"","","","","","html-button-response","31","78170","0.0-23.0","3FF27EF7C8224767B45D905E45BE4E6B","3FF27EF7C8224767B45D905E45BE4E6B","90032e6c-c31d-4bbf-aa6b-db8f298c57ad","e622c465-ee29-4445-8260-1f3431e06587","{""participantId"":""3FF27EF7C8224767B45D905E45BE4E6B"",""assignmentId"":""90032e6c-c31d-4bbf-aa6b-db8f298c57ad"",""projectId"":""e622c465-ee29-4445-8260-1f3431e06587""}","https://test12345.live/?participantId=3FF27EF7C8224767B45D905E45BE4E6B&assignmentId=90032e6c-c31d-4bbf-aa6b-db8f298c57ad&projectId=e622c465-ee29-4445-8260-1f3431e06587","","1173","Was there a person in the picture?","1","",""
"","","","","","survey-likert","32","79889","0.0-24.0","3FF27EF7C8224767B45D905E45BE4E6B","3FF27EF7C8224767B45D905E45BE4E6B","90032e6c-c31d-4bbf-aa6b-db8f298c57ad","e622c465-ee29-4445-8260-1f3431e06587","{""participantId"":""3FF27EF7C8224767B45D905E45BE4E6B"",""assignmentId"":""90032e6c-c31d-4bbf-aa6b-db8f298c57ad"",""projectId"":""e622c465-ee29-4445-8260-1f3431e06587""}","https://test12345.live/?participantId=3FF27EF7C8224767B45D905E45BE4E6B&assignmentId=90032e6c-c31d-4bbf-aa6b-db8f298c57ad&projectId=e622c465-ee29-4445-8260-1f3431e06587","","1718","","{""Q0"":2}","","[0]"
"","","","","","html-button-response","33","80842","0.0-25.0","3FF27EF7C8224767B45D905E45BE4E6B","3FF27EF7C8224767B45D905E45BE4E6B","90032e6c-c31d-4bbf-aa6b-db8f298c57ad","e622c465-ee29-4445-8260-1f3431e06587","{""participantId"":""3FF27EF7C8224767B45D905E45BE4E6B"",""assignmentId"":""90032e6c-c31d-4bbf-aa6b-db8f298c57ad"",""projectId"":""e622c465-ee29-4445-8260-1f3431e06587""}","https://test12345.live/?participantId=3FF27EF7C8224767B45D905E45BE4E6B&assignmentId=90032e6c-c31d-4bbf-aa6b-db8f298c57ad&projectId=e622c465-ee29-4445-8260-1f3431e06587","","951","
    <div style=""display: flex; justify-content: center; align-items: center;"">
      <img src=""images/blue_deck_1.png"" style=""width: 300px; height: 300px; margin-right: 10px;"" />
      <img src=""images/red_deck_2.png"" style=""width: 300px; height: 300px;"" />
    </div>","1","1",""
"","","","","","html-keyboard-response","34","83854","0.0-27.0-0.0","3FF27EF7C8224767B45D905E45BE4E6B","3FF27EF7C8224767B45D905E45BE4E6B","90032e6c-c31d-4bbf-aa6b-db8f298c57ad","e622c465-ee29-4445-8260-1f3431e06587","{""participantId"":""3FF27EF7C8224767B45D905E45BE4E6B"",""assignmentId"":""90032e6c-c31d-4bbf-aa6b-db8f298c57ad"",""projectId"":""e622c465-ee29-4445-8260-1f3431e06587""}","https://test12345.live/?participantId=3FF27EF7C8224767B45D905E45BE4E6B&assignmentId=90032e6c-c31d-4bbf-aa6b-db8f298c57ad&projectId=e622c465-ee29-4445-8260-1f3431e06587","","null","<div style=""display: flex; justify-content: center; align-items: center;"">
                    <img src=""images/semantic/semantic_series_8/semantic_series_8_a.jpg"" style=""width: 300px; height: 300px;"" />
                  </div>","null","",""
"","","","","","html-keyboard-response","35","86856","0.0-27.0-1.0","3FF27EF7C8224767B45D905E45BE4E6B","3FF27EF7C8224767B45D905E45BE4E6B","90032e6c-c31d-4bbf-aa6b-db8f298c57ad","e622c465-ee29-4445-8260-1f3431e06587","{""participantId"":""3FF27EF7C8224767B45D905E45BE4E6B"",""assignmentId"":""90032e6c-c31d-4bbf-aa6b-db8f298c57ad"",""projectId"":""e622c465-ee29-4445-8260-1f3431e06587""}","https://test12345.live/?participantId=3FF27EF7C8224767B45D905E45BE4E6B&assignmentId=90032e6c-c31d-4bbf-aa6b-db8f298c57ad&projectId=e622c465-ee29-4445-8260-1f3431e06587","","null","<div style=""display: flex; justify-content: center; align-items: center;"">
                    <img src=""images/semantic/semantic_series_8/semantic_series_8_b.jpg"" style=""width: 300px; height: 300px;"" />
                  </div>","null","",""
"","","","","","html-keyboard-response","36","89857","0.0-27.0-2.0","3FF27EF7C8224767B45D905E45BE4E6B","3FF27EF7C8224767B45D905E45BE4E6B","90032e6c-c31d-4bbf-aa6b-db8f298c57ad","e622c465-ee29-4445-8260-1f3431e06587","{""participantId"":""3FF27EF7C8224767B45D905E45BE4E6B"",""assignmentId"":""90032e6c-c31d-4bbf-aa6b-db8f298c57ad"",""projectId"":""e622c465-ee29-4445-8260-1f3431e06587""}","https://test12345.live/?participantId=3FF27EF7C8224767B45D905E45BE4E6B&assignmentId=90032e6c-c31d-4bbf-aa6b-db8f298c57ad&projectId=e622c465-ee29-4445-8260-1f3431e06587","","null","<div style=""display: flex; justify-content: center; align-items: center;"">
                    <img src=""images/semantic/semantic_series_8/semantic_series_8_c.jpg"" style=""width: 300px; height: 300px;"" />
                  </div>","null","",""
"","","","","","html-keyboard-response","37","92868","0.0-27.0-3.0","3FF27EF7C8224767B45D905E45BE4E6B","3FF27EF7C8224767B45D905E45BE4E6B","90032e6c-c31d-4bbf-aa6b-db8f298c57ad","e622c465-ee29-4445-8260-1f3431e06587","{""participantId"":""3FF27EF7C8224767B45D905E45BE4E6B"",""assignmentId"":""90032e6c-c31d-4bbf-aa6b-db8f298c57ad"",""projectId"":""e622c465-ee29-4445-8260-1f3431e06587""}","https://test12345.live/?participantId=3FF27EF7C8224767B45D905E45BE4E6B&assignmentId=90032e6c-c31d-4bbf-aa6b-db8f298c57ad&projectId=e622c465-ee29-4445-8260-1f3431e06587","","null","<div style=""display: flex; justify-content: center; align-items: center;"">
                    <img src=""images/semantic/semantic_series_8/semantic_series_8_d.jpg"" style=""width: 300px; height: 300px;"" />
                  </div>","null","",""
"","","","","","html-button-response","38","93865","0.0-28.0","3FF27EF7C8224767B45D905E45BE4E6B","3FF27EF7C8224767B45D905E45BE4E6B","90032e6c-c31d-4bbf-aa6b-db8f298c57ad","e622c465-ee29-4445-8260-1f3431e06587","{""participantId"":""3FF27EF7C8224767B45D905E45BE4E6B"",""assignmentId"":""90032e6c-c31d-4bbf-aa6b-db8f298c57ad"",""projectId"":""e622c465-ee29-4445-8260-1f3431e06587""}","https://test12345.live/?participantId=3FF27EF7C8224767B45D905E45BE4E6B&assignmentId=90032e6c-c31d-4bbf-aa6b-db8f298c57ad&projectId=e622c465-ee29-4445-8260-1f3431e06587","","996","Was there a person in the picture?","1","",""
"","","","","","survey-likert","39","95247","0.0-29.0","3FF27EF7C8224767B45D905E45BE4E6B","3FF27EF7C8224767B45D905E45BE4E6B","90032e6c-c31d-4bbf-aa6b-db8f298c57ad","e622c465-ee29-4445-8260-1f3431e06587","{""participantId"":""3FF27EF7C8224767B45D905E45BE4E6B"",""assignmentId"":""90032e6c-c31d-4bbf-aa6b-db8f298c57ad"",""projectId"":""e622c465-ee29-4445-8260-1f3431e06587""}","https://test12345.live/?participantId=3FF27EF7C8224767B45D905E45BE4E6B&assignmentId=90032e6c-c31d-4bbf-aa6b-db8f298c57ad&projectId=e622c465-ee29-4445-8260-1f3431e06587","","1381","","{""Q0"":2}","","[0]"
"","","","","","html-button-response","40","96085","0.0-30.0","3FF27EF7C8224767B45D905E45BE4E6B","3FF27EF7C8224767B45D905E45BE4E6B","90032e6c-c31d-4bbf-aa6b-db8f298c57ad","e622c465-ee29-4445-8260-1f3431e06587","{""participantId"":""3FF27EF7C8224767B45D905E45BE4E6B"",""assignmentId"":""90032e6c-c31d-4bbf-aa6b-db8f298c57ad"",""projectId"":""e622c465-ee29-4445-8260-1f3431e06587""}","https://test12345.live/?participantId=3FF27EF7C8224767B45D905E45BE4E6B&assignmentId=90032e6c-c31d-4bbf-aa6b-db8f298c57ad&projectId=e622c465-ee29-4445-8260-1f3431e06587","","836","
    <div style=""display: flex; justify-content: center; align-items: center;"">
      <img src=""images/blue_deck_1.png"" style=""width: 300px; height: 300px; margin-right: 10px;"" />
      <img src=""images/red_deck_2.png"" style=""width: 300px; height: 300px;"" />
    </div>","1","1",""
"","","","","","html-keyboard-response","41","99089","0.0-32.0-0.0","3FF27EF7C8224767B45D905E45BE4E6B","3FF27EF7C8224767B45D905E45BE4E6B","90032e6c-c31d-4bbf-aa6b-db8f298c57ad","e622c465-ee29-4445-8260-1f3431e06587","{""participantId"":""3FF27EF7C8224767B45D905E45BE4E6B"",""assignmentId"":""90032e6c-c31d-4bbf-aa6b-db8f298c57ad"",""projectId"":""e622c465-ee29-4445-8260-1f3431e06587""}","https://test12345.live/?participantId=3FF27EF7C8224767B45D905E45BE4E6B&assignmentId=90032e6c-c31d-4bbf-aa6b-db8f298c57ad&projectId=e622c465-ee29-4445-8260-1f3431e06587","","null","<div style=""display: flex; justify-content: center; align-items: center;"">
                    <img src=""images/semantic/semantic_series_13/semantic_series_13_a.jpg"" style=""width: 300px; height: 300px;"" />
                  </div>","null","",""
"","","","","","html-keyboard-response","42","102095","0.0-32.0-1.0","3FF27EF7C8224767B45D905E45BE4E6B","3FF27EF7C8224767B45D905E45BE4E6B","90032e6c-c31d-4bbf-aa6b-db8f298c57ad","e622c465-ee29-4445-8260-1f3431e06587","{""participantId"":""3FF27EF7C8224767B45D905E45BE4E6B"",""assignmentId"":""90032e6c-c31d-4bbf-aa6b-db8f298c57ad"",""projectId"":""e622c465-ee29-4445-8260-1f3431e06587""}","https://test12345.live/?participantId=3FF27EF7C8224767B45D905E45BE4E6B&assignmentId=90032e6c-c31d-4bbf-aa6b-db8f298c57ad&projectId=e622c465-ee29-4445-8260-1f3431e06587","","null","<div style=""display: flex; justify-content: center; align-items: center;"">
                    <img src=""images/semantic/semantic_series_13/semantic_series_13_b.jpg"" style=""width: 300px; height: 300px;"" />
                  </div>","null","",""
"","","","","","html-keyboard-response","43","105105","0.0-32.0-2.0","3FF27EF7C8224767B45D905E45BE4E6B","3FF27EF7C8224767B45D905E45BE4E6B","90032e6c-c31d-4bbf-aa6b-db8f298c57ad","e622c465-ee29-4445-8260-1f3431e06587","{""participantId"":""3FF27EF7C8224767B45D905E45BE4E6B"",""assignmentId"":""90032e6c-c31d-4bbf-aa6b-db8f298c57ad"",""projectId"":""e622c465-ee29-4445-8260-1f3431e06587""}","https://test12345.live/?participantId=3FF27EF7C8224767B45D905E45BE4E6B&assignmentId=90032e6c-c31d-4bbf-aa6b-db8f298c57ad&projectId=e622c465-ee29-4445-8260-1f3431e06587","","null","<div style=""display: flex; justify-content: center; align-items: center;"">
                    <img src=""images/semantic/semantic_series_13/semantic_series_13_c.jpg"" style=""width: 300px; height: 300px;"" />
                  </div>","null","",""
"","","","","","html-keyboard-response","44","108120","0.0-32.0-3.0","3FF27EF7C8224767B45D905E45BE4E6B","3FF27EF7C8224767B45D905E45BE4E6B","90032e6c-c31d-4bbf-aa6b-db8f298c57ad","e622c465-ee29-4445-8260-1f3431e06587","{""participantId"":""3FF27EF7C8224767B45D905E45BE4E6B"",""assignmentId"":""90032e6c-c31d-4bbf-aa6b-db8f298c57ad"",""projectId"":""e622c465-ee29-4445-8260-1f3431e06587""}","https://test12345.live/?participantId=3FF27EF7C8224767B45D905E45BE4E6B&assignmentId=90032e6c-c31d-4bbf-aa6b-db8f298c57ad&projectId=e622c465-ee29-4445-8260-1f3431e06587","","null","<div style=""display: flex; justify-content: center; align-items: center;"">
                    <img src=""images/semantic/semantic_series_13/semantic_series_13_d.jpg"" style=""width: 300px; height: 300px;"" />
                  </div>","null","",""
"","","","","","html-button-response","45","109133","0.0-33.0","3FF27EF7C8224767B45D905E45BE4E6B","3FF27EF7C8224767B45D905E45BE4E6B","90032e6c-c31d-4bbf-aa6b-db8f298c57ad","e622c465-ee29-4445-8260-1f3431e06587","{""participantId"":""3FF27EF7C8224767B45D905E45BE4E6B"",""assignmentId"":""90032e6c-c31d-4bbf-aa6b-db8f298c57ad"",""projectId"":""e622c465-ee29-4445-8260-1f3431e06587""}","https://test12345.live/?participantId=3FF27EF7C8224767B45D905E45BE4E6B&assignmentId=90032e6c-c31d-4bbf-aa6b-db8f298c57ad&projectId=e622c465-ee29-4445-8260-1f3431e06587","","1012","Was there a person in the picture?","0","",""
"","","","","","survey-likert","46","111303","0.0-34.0","3FF27EF7C8224767B45D905E45BE4E6B","3FF27EF7C8224767B45D905E45BE4E6B","90032e6c-c31d-4bbf-aa6b-db8f298c57ad","e622c465-ee29-4445-8260-1f3431e06587","{""participantId"":""3FF27EF7C8224767B45D905E45BE4E6B"",""assignmentId"":""90032e6c-c31d-4bbf-aa6b-db8f298c57ad"",""projectId"":""e622c465-ee29-4445-8260-1f3431e06587""}","https://test12345.live/?participantId=3FF27EF7C8224767B45D905E45BE4E6B&assignmentId=90032e6c-c31d-4bbf-aa6b-db8f298c57ad&projectId=e622c465-ee29-4445-8260-1f3431e06587","","2168","","{""Q0"":2}","","[0]"
"","","","","","html-button-response","47","112442","0.0-35.0","3FF27EF7C8224767B45D905E45BE4E6B","3FF27EF7C8224767B45D905E45BE4E6B","90032e6c-c31d-4bbf-aa6b-db8f298c57ad","e622c465-ee29-4445-8260-1f3431e06587","{""participantId"":""3FF27EF7C8224767B45D905E45BE4E6B"",""assignmentId"":""90032e6c-c31d-4bbf-aa6b-db8f298c57ad"",""projectId"":""e622c465-ee29-4445-8260-1f3431e06587""}","https://test12345.live/?participantId=3FF27EF7C8224767B45D905E45BE4E6B&assignmentId=90032e6c-c31d-4bbf-aa6b-db8f298c57ad&projectId=e622c465-ee29-4445-8260-1f3431e06587","","1137","
    <div style=""display: flex; justify-content: center; align-items: center;"">
      <img src=""images/blue_deck_1.png"" style=""width: 300px; height: 300px; margin-right: 10px;"" />
      <img src=""images/red_deck_2.png"" style=""width: 300px; height: 300px;"" />
    </div>","1","1",""
"","","","","","html-keyboard-response","48","115450","0.0-37.0-0.0","3FF27EF7C8224767B45D905E45BE4E6B","3FF27EF7C8224767B45D905E45BE4E6B","90032e6c-c31d-4bbf-aa6b-db8f298c57ad","e622c465-ee29-4445-8260-1f3431e06587","{""participantId"":""3FF27EF7C8224767B45D905E45BE4E6B"",""assignmentId"":""90032e6c-c31d-4bbf-aa6b-db8f298c57ad"",""projectId"":""e622c465-ee29-4445-8260-1f3431e06587""}","https://test12345.live/?participantId=3FF27EF7C8224767B45D905E45BE4E6B&assignmentId=90032e6c-c31d-4bbf-aa6b-db8f298c57ad&projectId=e622c465-ee29-4445-8260-1f3431e06587","","null","<div style=""display: flex; justify-content: center; align-items: center;"">
                    <img src=""images/semantic/semantic_series_6/semantic_series_6_a.jpg"" style=""width: 300px; height: 300px;"" />
                  </div>","null","",""
"","","","","","html-keyboard-response","49","118451","0.0-37.0-1.0","3FF27EF7C8224767B45D905E45BE4E6B","3FF27EF7C8224767B45D905E45BE4E6B","90032e6c-c31d-4bbf-aa6b-db8f298c57ad","e622c465-ee29-4445-8260-1f3431e06587","{""participantId"":""3FF27EF7C8224767B45D905E45BE4E6B"",""assignmentId"":""90032e6c-c31d-4bbf-aa6b-db8f298c57ad"",""projectId"":""e622c465-ee29-4445-8260-1f3431e06587""}","https://test12345.live/?participantId=3FF27EF7C8224767B45D905E45BE4E6B&assignmentId=90032e6c-c31d-4bbf-aa6b-db8f298c57ad&projectId=e622c465-ee29-4445-8260-1f3431e06587","","null","<div style=""display: flex; justify-content: center; align-items: center;"">
                    <img src=""images/semantic/semantic_series_6/semantic_series_6_b.jpg"" style=""width: 300px; height: 300px;"" />
                  </div>","null","",""
"","","","","","html-keyboard-response","50","121464","0.0-37.0-2.0","3FF27EF7C8224767B45D905E45BE4E6B","3FF27EF7C8224767B45D905E45BE4E6B","90032e6c-c31d-4bbf-aa6b-db8f298c57ad","e622c465-ee29-4445-8260-1f3431e06587","{""participantId"":""3FF27EF7C8224767B45D905E45BE4E6B"",""assignmentId"":""90032e6c-c31d-4bbf-aa6b-db8f298c57ad"",""projectId"":""e622c465-ee29-4445-8260-1f3431e06587""}","https://test12345.live/?participantId=3FF27EF7C8224767B45D905E45BE4E6B&assignmentId=90032e6c-c31d-4bbf-aa6b-db8f298c57ad&projectId=e622c465-ee29-4445-8260-1f3431e06587","","null","<div style=""display: flex; justify-content: center; align-items: center;"">
                    <img src=""images/semantic/semantic_series_6/semantic_series_6_c.jpg"" style=""width: 300px; height: 300px;"" />
                  </div>","null","",""
"","","","","","html-keyboard-response","51","124470","0.0-37.0-3.0","3FF27EF7C8224767B45D905E45BE4E6B","3FF27EF7C8224767B45D905E45BE4E6B","90032e6c-c31d-4bbf-aa6b-db8f298c57ad","e622c465-ee29-4445-8260-1f3431e06587","{""participantId"":""3FF27EF7C8224767B45D905E45BE4E6B"",""assignmentId"":""90032e6c-c31d-4bbf-aa6b-db8f298c57ad"",""projectId"":""e622c465-ee29-4445-8260-1f3431e06587""}","https://test12345.live/?participantId=3FF27EF7C8224767B45D905E45BE4E6B&assignmentId=90032e6c-c31d-4bbf-aa6b-db8f298c57ad&projectId=e622c465-ee29-4445-8260-1f3431e06587","","null","<div style=""display: flex; justify-content: center; align-items: center;"">
                    <img src=""images/semantic/semantic_series_6/semantic_series_6_d.jpg"" style=""width: 300px; height: 300px;"" />
                  </div>","null","",""
"","","","","","html-button-response","52","125625","0.0-38.0","3FF27EF7C8224767B45D905E45BE4E6B","3FF27EF7C8224767B45D905E45BE4E6B","90032e6c-c31d-4bbf-aa6b-db8f298c57ad","e622c465-ee29-4445-8260-1f3431e06587","{""participantId"":""3FF27EF7C8224767B45D905E45BE4E6B"",""assignmentId"":""90032e6c-c31d-4bbf-aa6b-db8f298c57ad"",""projectId"":""e622c465-ee29-4445-8260-1f3431e06587""}","https://test12345.live/?participantId=3FF27EF7C8224767B45D905E45BE4E6B&assignmentId=90032e6c-c31d-4bbf-aa6b-db8f298c57ad&projectId=e622c465-ee29-4445-8260-1f3431e06587","","1154","Was there a person in the picture?","1","",""
"","","","","","survey-likert","53","126986","0.0-39.0","3FF27EF7C8224767B45D905E45BE4E6B","3FF27EF7C8224767B45D905E45BE4E6B","90032e6c-c31d-4bbf-aa6b-db8f298c57ad","e622c465-ee29-4445-8260-1f3431e06587","{""participantId"":""3FF27EF7C8224767B45D905E45BE4E6B"",""assignmentId"":""90032e6c-c31d-4bbf-aa6b-db8f298c57ad"",""projectId"":""e622c465-ee29-4445-8260-1f3431e06587""}","https://test12345.live/?participantId=3FF27EF7C8224767B45D905E45BE4E6B&assignmentId=90032e6c-c31d-4bbf-aa6b-db8f298c57ad&projectId=e622c465-ee29-4445-8260-1f3431e06587","","1360","","{""Q0"":1}","","[0]"
"","","","","","html-button-response","54","127681","0.0-40.0","3FF27EF7C8224767B45D905E45BE4E6B","3FF27EF7C8224767B45D905E45BE4E6B","90032e6c-c31d-4bbf-aa6b-db8f298c57ad","e622c465-ee29-4445-8260-1f3431e06587","{""participantId"":""3FF27EF7C8224767B45D905E45BE4E6B"",""assignmentId"":""90032e6c-c31d-4bbf-aa6b-db8f298c57ad"",""projectId"":""e622c465-ee29-4445-8260-1f3431e06587""}","https://test12345.live/?participantId=3FF27EF7C8224767B45D905E45BE4E6B&assignmentId=90032e6c-c31d-4bbf-aa6b-db8f298c57ad&projectId=e622c465-ee29-4445-8260-1f3431e06587","","693","
    <div style=""display: flex; justify-content: center; align-items: center;"">
      <img src=""images/blue_deck_1.png"" style=""width: 300px; height: 300px; margin-right: 10px;"" />
      <img src=""images/red_deck_2.png"" style=""width: 300px; height: 300px;"" />
    </div>","0","0",""
"","","","","","html-keyboard-response","55","130685","0.0-41.0-0.0","3FF27EF7C8224767B45D905E45BE4E6B","3FF27EF7C8224767B45D905E45BE4E6B","90032e6c-c31d-4bbf-aa6b-db8f298c57ad","e622c465-ee29-4445-8260-1f3431e06587","{""participantId"":""3FF27EF7C8224767B45D905E45BE4E6B"",""assignmentId"":""90032e6c-c31d-4bbf-aa6b-db8f298c57ad"",""projectId"":""e622c465-ee29-4445-8260-1f3431e06587""}","https://test12345.live/?participantId=3FF27EF7C8224767B45D905E45BE4E6B&assignmentId=90032e6c-c31d-4bbf-aa6b-db8f298c57ad&projectId=e622c465-ee29-4445-8260-1f3431e06587","","null","<div style=""display: flex; justify-content: center; align-items: center;"">
                    <img src=""images/causal/causal_series_10/causal_series_10_a.jpg"" style=""width: 300px; height: 300px;"" />
                  </div>","null","",""
"","","","","","html-keyboard-response","56","133690","0.0-41.0-1.0","3FF27EF7C8224767B45D905E45BE4E6B","3FF27EF7C8224767B45D905E45BE4E6B","90032e6c-c31d-4bbf-aa6b-db8f298c57ad","e622c465-ee29-4445-8260-1f3431e06587","{""participantId"":""3FF27EF7C8224767B45D905E45BE4E6B"",""assignmentId"":""90032e6c-c31d-4bbf-aa6b-db8f298c57ad"",""projectId"":""e622c465-ee29-4445-8260-1f3431e06587""}","https://test12345.live/?participantId=3FF27EF7C8224767B45D905E45BE4E6B&assignmentId=90032e6c-c31d-4bbf-aa6b-db8f298c57ad&projectId=e622c465-ee29-4445-8260-1f3431e06587","","null","<div style=""display: flex; justify-content: center; align-items: center;"">
                    <img src=""images/causal/causal_series_10/causal_series_10_b.jpg"" style=""width: 300px; height: 300px;"" />
                  </div>","null","",""
"","","","","","html-keyboard-response","57","136706","0.0-41.0-2.0","3FF27EF7C8224767B45D905E45BE4E6B","3FF27EF7C8224767B45D905E45BE4E6B","90032e6c-c31d-4bbf-aa6b-db8f298c57ad","e622c465-ee29-4445-8260-1f3431e06587","{""participantId"":""3FF27EF7C8224767B45D905E45BE4E6B"",""assignmentId"":""90032e6c-c31d-4bbf-aa6b-db8f298c57ad"",""projectId"":""e622c465-ee29-4445-8260-1f3431e06587""}","https://test12345.live/?participantId=3FF27EF7C8224767B45D905E45BE4E6B&assignmentId=90032e6c-c31d-4bbf-aa6b-db8f298c57ad&projectId=e622c465-ee29-4445-8260-1f3431e06587","","null","<div style=""display: flex; justify-content: center; align-items: center;"">
                    <img src=""images/causal/causal_series_10/causal_series_10_c.jpg"" style=""width: 300px; height: 300px;"" />
                  </div>","null","",""
"","","","","","html-keyboard-response","58","139708","0.0-41.0-3.0","3FF27EF7C8224767B45D905E45BE4E6B","3FF27EF7C8224767B45D905E45BE4E6B","90032e6c-c31d-4bbf-aa6b-db8f298c57ad","e622c465-ee29-4445-8260-1f3431e06587","{""participantId"":""3FF27EF7C8224767B45D905E45BE4E6B"",""assignmentId"":""90032e6c-c31d-4bbf-aa6b-db8f298c57ad"",""projectId"":""e622c465-ee29-4445-8260-1f3431e06587""}","https://test12345.live/?participantId=3FF27EF7C8224767B45D905E45BE4E6B&assignmentId=90032e6c-c31d-4bbf-aa6b-db8f298c57ad&projectId=e622c465-ee29-4445-8260-1f3431e06587","","null","<div style=""display: flex; justify-content: center; align-items: center;"">
                    <img src=""images/causal/causal_series_10/causal_series_10_d.jpg"" style=""width: 300px; height: 300px;"" />
                  </div>","null","",""
"","","","","","html-button-response","59","141322","0.0-43.0","3FF27EF7C8224767B45D905E45BE4E6B","3FF27EF7C8224767B45D905E45BE4E6B","90032e6c-c31d-4bbf-aa6b-db8f298c57ad","e622c465-ee29-4445-8260-1f3431e06587","{""participantId"":""3FF27EF7C8224767B45D905E45BE4E6B"",""assignmentId"":""90032e6c-c31d-4bbf-aa6b-db8f298c57ad"",""projectId"":""e622c465-ee29-4445-8260-1f3431e06587""}","https://test12345.live/?participantId=3FF27EF7C8224767B45D905E45BE4E6B&assignmentId=90032e6c-c31d-4bbf-aa6b-db8f298c57ad&projectId=e622c465-ee29-4445-8260-1f3431e06587","","1613","Was there a person in the picture?","1","",""
"","","","","","survey-likert","60","143214","0.0-44.0","3FF27EF7C8224767B45D905E45BE4E6B","3FF27EF7C8224767B45D905E45BE4E6B","90032e6c-c31d-4bbf-aa6b-db8f298c57ad","e622c465-ee29-4445-8260-1f3431e06587","{""participantId"":""3FF27EF7C8224767B45D905E45BE4E6B"",""assignmentId"":""90032e6c-c31d-4bbf-aa6b-db8f298c57ad"",""projectId"":""e622c465-ee29-4445-8260-1f3431e06587""}","https://test12345.live/?participantId=3FF27EF7C8224767B45D905E45BE4E6B&assignmentId=90032e6c-c31d-4bbf-aa6b-db8f298c57ad&projectId=e622c465-ee29-4445-8260-1f3431e06587","","1890","","{""Q0"":1}","","[0]"
"","","","","","html-button-response","61","144037","0.0-45.0","3FF27EF7C8224767B45D905E45BE4E6B","3FF27EF7C8224767B45D905E45BE4E6B","90032e6c-c31d-4bbf-aa6b-db8f298c57ad","e622c465-ee29-4445-8260-1f3431e06587","{""participantId"":""3FF27EF7C8224767B45D905E45BE4E6B"",""assignmentId"":""90032e6c-c31d-4bbf-aa6b-db8f298c57ad"",""projectId"":""e622c465-ee29-4445-8260-1f3431e06587""}","https://test12345.live/?participantId=3FF27EF7C8224767B45D905E45BE4E6B&assignmentId=90032e6c-c31d-4bbf-aa6b-db8f298c57ad&projectId=e622c465-ee29-4445-8260-1f3431e06587","","822","
    <div style=""display: flex; justify-content: center; align-items: center;"">
      <img src=""images/blue_deck_1.png"" style=""width: 300px; height: 300px; margin-right: 10px;"" />
      <img src=""images/red_deck_2.png"" style=""width: 300px; height: 300px;"" />
    </div>","1","1",""
"","","","","","html-keyboard-response","62","147043","0.0-47.0-0.0","3FF27EF7C8224767B45D905E45BE4E6B","3FF27EF7C8224767B45D905E45BE4E6B","90032e6c-c31d-4bbf-aa6b-db8f298c57ad","e622c465-ee29-4445-8260-1f3431e06587","{""participantId"":""3FF27EF7C8224767B45D905E45BE4E6B"",""assignmentId"":""90032e6c-c31d-4bbf-aa6b-db8f298c57ad"",""projectId"":""e622c465-ee29-4445-8260-1f3431e06587""}","https://test12345.live/?participantId=3FF27EF7C8224767B45D905E45BE4E6B&assignmentId=90032e6c-c31d-4bbf-aa6b-db8f298c57ad&projectId=e622c465-ee29-4445-8260-1f3431e06587","","null","<div style=""display: flex; justify-content: center; align-items: center;"">
                    <img src=""images/semantic/semantic_series_5/semantic_series_5_a.jpg"" style=""width: 300px; height: 300px;"" />
                  </div>","null","",""
"","","","","","html-keyboard-response","63","150055","0.0-47.0-1.0","3FF27EF7C8224767B45D905E45BE4E6B","3FF27EF7C8224767B45D905E45BE4E6B","90032e6c-c31d-4bbf-aa6b-db8f298c57ad","e622c465-ee29-4445-8260-1f3431e06587","{""participantId"":""3FF27EF7C8224767B45D905E45BE4E6B"",""assignmentId"":""90032e6c-c31d-4bbf-aa6b-db8f298c57ad"",""projectId"":""e622c465-ee29-4445-8260-1f3431e06587""}","https://test12345.live/?participantId=3FF27EF7C8224767B45D905E45BE4E6B&assignmentId=90032e6c-c31d-4bbf-aa6b-db8f298c57ad&projectId=e622c465-ee29-4445-8260-1f3431e06587","","null","<div style=""display: flex; justify-content: center; align-items: center;"">
                    <img src=""images/semantic/semantic_series_5/semantic_series_5_b.jpg"" style=""width: 300px; height: 300px;"" />
                  </div>","null","",""
"","","","","","html-keyboard-response","64","153058","0.0-47.0-2.0","3FF27EF7C8224767B45D905E45BE4E6B","3FF27EF7C8224767B45D905E45BE4E6B","90032e6c-c31d-4bbf-aa6b-db8f298c57ad","e622c465-ee29-4445-8260-1f3431e06587","{""participantId"":""3FF27EF7C8224767B45D905E45BE4E6B"",""assignmentId"":""90032e6c-c31d-4bbf-aa6b-db8f298c57ad"",""projectId"":""e622c465-ee29-4445-8260-1f3431e06587""}","https://test12345.live/?participantId=3FF27EF7C8224767B45D905E45BE4E6B&assignmentId=90032e6c-c31d-4bbf-aa6b-db8f298c57ad&projectId=e622c465-ee29-4445-8260-1f3431e06587","","null","<div style=""display: flex; justify-content: center; align-items: center;"">
                    <img src=""images/semantic/semantic_series_5/semantic_series_5_c.jpg"" style=""width: 300px; height: 300px;"" />
                  </div>","null","",""
"","","","","","html-keyboard-response","65","156060","0.0-47.0-3.0","3FF27EF7C8224767B45D905E45BE4E6B","3FF27EF7C8224767B45D905E45BE4E6B","90032e6c-c31d-4bbf-aa6b-db8f298c57ad","e622c465-ee29-4445-8260-1f3431e06587","{""participantId"":""3FF27EF7C8224767B45D905E45BE4E6B"",""assignmentId"":""90032e6c-c31d-4bbf-aa6b-db8f298c57ad"",""projectId"":""e622c465-ee29-4445-8260-1f3431e06587""}","https://test12345.live/?participantId=3FF27EF7C8224767B45D905E45BE4E6B&assignmentId=90032e6c-c31d-4bbf-aa6b-db8f298c57ad&projectId=e622c465-ee29-4445-8260-1f3431e06587","","null","<div style=""display: flex; justify-content: center; align-items: center;"">
                    <img src=""images/semantic/semantic_series_5/semantic_series_5_d.jpg"" style=""width: 300px; height: 300px;"" />
                  </div>","null","",""
"","","","","","html-button-response","66","157379","0.0-48.0","3FF27EF7C8224767B45D905E45BE4E6B","3FF27EF7C8224767B45D905E45BE4E6B","90032e6c-c31d-4bbf-aa6b-db8f298c57ad","e622c465-ee29-4445-8260-1f3431e06587","{""participantId"":""3FF27EF7C8224767B45D905E45BE4E6B"",""assignmentId"":""90032e6c-c31d-4bbf-aa6b-db8f298c57ad"",""projectId"":""e622c465-ee29-4445-8260-1f3431e06587""}","https://test12345.live/?participantId=3FF27EF7C8224767B45D905E45BE4E6B&assignmentId=90032e6c-c31d-4bbf-aa6b-db8f298c57ad&projectId=e622c465-ee29-4445-8260-1f3431e06587","","1318","Was there a person in the picture?","0","",""
"","","","","","survey-likert","67","158740","0.0-49.0","3FF27EF7C8224767B45D905E45BE4E6B","3FF27EF7C8224767B45D905E45BE4E6B","90032e6c-c31d-4bbf-aa6b-db8f298c57ad","e622c465-ee29-4445-8260-1f3431e06587","{""participantId"":""3FF27EF7C8224767B45D905E45BE4E6B"",""assignmentId"":""90032e6c-c31d-4bbf-aa6b-db8f298c57ad"",""projectId"":""e622c465-ee29-4445-8260-1f3431e06587""}","https://test12345.live/?participantId=3FF27EF7C8224767B45D905E45BE4E6B&assignmentId=90032e6c-c31d-4bbf-aa6b-db8f298c57ad&projectId=e622c465-ee29-4445-8260-1f3431e06587","","1360","","{""Q0"":2}","","[0]"
"","","","","","html-button-response","68","159421","0.0-50.0","3FF27EF7C8224767B45D905E45BE4E6B","3FF27EF7C8224767B45D905E45BE4E6B","90032e6c-c31d-4bbf-aa6b-db8f298c57ad","e622c465-ee29-4445-8260-1f3431e06587","{""participantId"":""3FF27EF7C8224767B45D905E45BE4E6B"",""assignmentId"":""90032e6c-c31d-4bbf-aa6b-db8f298c57ad"",""projectId"":""e622c465-ee29-4445-8260-1f3431e06587""}","https://test12345.live/?participantId=3FF27EF7C8224767B45D905E45BE4E6B&assignmentId=90032e6c-c31d-4bbf-aa6b-db8f298c57ad&projectId=e622c465-ee29-4445-8260-1f3431e06587","","678","
    <div style=""display: flex; justify-content: center; align-items: center;"">
      <img src=""images/blue_deck_1.png"" style=""width: 300px; height: 300px; margin-right: 10px;"" />
      <img src=""images/red_deck_2.png"" style=""width: 300px; height: 300px;"" />
    </div>","1","1",""
"","","","","","html-keyboard-response","69","162432","0.0-52.0-0.0","3FF27EF7C8224767B45D905E45BE4E6B","3FF27EF7C8224767B45D905E45BE4E6B","90032e6c-c31d-4bbf-aa6b-db8f298c57ad","e622c465-ee29-4445-8260-1f3431e06587","{""participantId"":""3FF27EF7C8224767B45D905E45BE4E6B"",""assignmentId"":""90032e6c-c31d-4bbf-aa6b-db8f298c57ad"",""projectId"":""e622c465-ee29-4445-8260-1f3431e06587""}","https://test12345.live/?participantId=3FF27EF7C8224767B45D905E45BE4E6B&assignmentId=90032e6c-c31d-4bbf-aa6b-db8f298c57ad&projectId=e622c465-ee29-4445-8260-1f3431e06587","","null","<div style=""display: flex; justify-content: center; align-items: center;"">
                    <img src=""images/semantic/semantic_series_7/semantic_series_7_a.jpg"" style=""width: 300px; height: 300px;"" />
                  </div>","null","",""
"","","","","","html-keyboard-response","70","165438","0.0-52.0-1.0","3FF27EF7C8224767B45D905E45BE4E6B","3FF27EF7C8224767B45D905E45BE4E6B","90032e6c-c31d-4bbf-aa6b-db8f298c57ad","e622c465-ee29-4445-8260-1f3431e06587","{""participantId"":""3FF27EF7C8224767B45D905E45BE4E6B"",""assignmentId"":""90032e6c-c31d-4bbf-aa6b-db8f298c57ad"",""projectId"":""e622c465-ee29-4445-8260-1f3431e06587""}","https://test12345.live/?participantId=3FF27EF7C8224767B45D905E45BE4E6B&assignmentId=90032e6c-c31d-4bbf-aa6b-db8f298c57ad&projectId=e622c465-ee29-4445-8260-1f3431e06587","","null","<div style=""display: flex; justify-content: center; align-items: center;"">
                    <img src=""images/semantic/semantic_series_7/semantic_series_7_b.jpg"" style=""width: 300px; height: 300px;"" />
                  </div>","null","",""
"","","","","","html-keyboard-response","71","168445","0.0-52.0-2.0","3FF27EF7C8224767B45D905E45BE4E6B","3FF27EF7C8224767B45D905E45BE4E6B","90032e6c-c31d-4bbf-aa6b-db8f298c57ad","e622c465-ee29-4445-8260-1f3431e06587","{""participantId"":""3FF27EF7C8224767B45D905E45BE4E6B"",""assignmentId"":""90032e6c-c31d-4bbf-aa6b-db8f298c57ad"",""projectId"":""e622c465-ee29-4445-8260-1f3431e06587""}","https://test12345.live/?participantId=3FF27EF7C8224767B45D905E45BE4E6B&assignmentId=90032e6c-c31d-4bbf-aa6b-db8f298c57ad&projectId=e622c465-ee29-4445-8260-1f3431e06587","","null","<div style=""display: flex; justify-content: center; align-items: center;"">
                    <img src=""images/semantic/semantic_series_7/semantic_series_7_c.jpg"" style=""width: 300px; height: 300px;"" />
                  </div>","null","",""
"","","","","","html-keyboard-response","72","171460","0.0-52.0-3.0","3FF27EF7C8224767B45D905E45BE4E6B","3FF27EF7C8224767B45D905E45BE4E6B","90032e6c-c31d-4bbf-aa6b-db8f298c57ad","e622c465-ee29-4445-8260-1f3431e06587","{""participantId"":""3FF27EF7C8224767B45D905E45BE4E6B"",""assignmentId"":""90032e6c-c31d-4bbf-aa6b-db8f298c57ad"",""projectId"":""e622c465-ee29-4445-8260-1f3431e06587""}","https://test12345.live/?participantId=3FF27EF7C8224767B45D905E45BE4E6B&assignmentId=90032e6c-c31d-4bbf-aa6b-db8f298c57ad&projectId=e622c465-ee29-4445-8260-1f3431e06587","","null","<div style=""display: flex; justify-content: center; align-items: center;"">
                    <img src=""images/semantic/semantic_series_7/semantic_series_7_d.jpg"" style=""width: 300px; height: 300px;"" />
                  </div>","null","",""
"","","","","","html-button-response","73","172446","0.0-53.0","3FF27EF7C8224767B45D905E45BE4E6B","3FF27EF7C8224767B45D905E45BE4E6B","90032e6c-c31d-4bbf-aa6b-db8f298c57ad","e622c465-ee29-4445-8260-1f3431e06587","{""participantId"":""3FF27EF7C8224767B45D905E45BE4E6B"",""assignmentId"":""90032e6c-c31d-4bbf-aa6b-db8f298c57ad"",""projectId"":""e622c465-ee29-4445-8260-1f3431e06587""}","https://test12345.live/?participantId=3FF27EF7C8224767B45D905E45BE4E6B&assignmentId=90032e6c-c31d-4bbf-aa6b-db8f298c57ad&projectId=e622c465-ee29-4445-8260-1f3431e06587","","986","Was there a person in the picture?","1","",""
"","","","","","survey-likert","74","174266","0.0-54.0","3FF27EF7C8224767B45D905E45BE4E6B","3FF27EF7C8224767B45D905E45BE4E6B","90032e6c-c31d-4bbf-aa6b-db8f298c57ad","e622c465-ee29-4445-8260-1f3431e06587","{""participantId"":""3FF27EF7C8224767B45D905E45BE4E6B"",""assignmentId"":""90032e6c-c31d-4bbf-aa6b-db8f298c57ad"",""projectId"":""e622c465-ee29-4445-8260-1f3431e06587""}","https://test12345.live/?participantId=3FF27EF7C8224767B45D905E45BE4E6B&assignmentId=90032e6c-c31d-4bbf-aa6b-db8f298c57ad&projectId=e622c465-ee29-4445-8260-1f3431e06587","","1818","","{""Q0"":1}","","[0]"
"","","","","","html-button-response","75","176030","0.0-55.0","3FF27EF7C8224767B45D905E45BE4E6B","3FF27EF7C8224767B45D905E45BE4E6B","90032e6c-c31d-4bbf-aa6b-db8f298c57ad","e622c465-ee29-4445-8260-1f3431e06587","{""participantId"":""3FF27EF7C8224767B45D905E45BE4E6B"",""assignmentId"":""90032e6c-c31d-4bbf-aa6b-db8f298c57ad"",""projectId"":""e622c465-ee29-4445-8260-1f3431e06587""}","https://test12345.live/?participantId=3FF27EF7C8224767B45D905E45BE4E6B&assignmentId=90032e6c-c31d-4bbf-aa6b-db8f298c57ad&projectId=e622c465-ee29-4445-8260-1f3431e06587","","1762","
    <div style=""display: flex; justify-content: center; align-items: center;"">
      <img src=""images/blue_deck_1.png"" style=""width: 300px; height: 300px; margin-right: 10px;"" />
      <img src=""images/red_deck_2.png"" style=""width: 300px; height: 300px;"" />
    </div>","0","0",""
"","","","","","html-keyboard-response","76","179041","0.0-56.0-0.0","3FF27EF7C8224767B45D905E45BE4E6B","3FF27EF7C8224767B45D905E45BE4E6B","90032e6c-c31d-4bbf-aa6b-db8f298c57ad","e622c465-ee29-4445-8260-1f3431e06587","{""participantId"":""3FF27EF7C8224767B45D905E45BE4E6B"",""assignmentId"":""90032e6c-c31d-4bbf-aa6b-db8f298c57ad"",""projectId"":""e622c465-ee29-4445-8260-1f3431e06587""}","https://test12345.live/?participantId=3FF27EF7C8224767B45D905E45BE4E6B&assignmentId=90032e6c-c31d-4bbf-aa6b-db8f298c57ad&projectId=e622c465-ee29-4445-8260-1f3431e06587","","null","<div style=""display: flex; justify-content: center; align-items: center;"">
                    <img src=""images/causal/causal_series_15/causal_series_15_a.jpg"" style=""width: 300px; height: 300px;"" />
                  </div>","null","",""
"","","","","","html-keyboard-response","77","182043","0.0-56.0-1.0","3FF27EF7C8224767B45D905E45BE4E6B","3FF27EF7C8224767B45D905E45BE4E6B","90032e6c-c31d-4bbf-aa6b-db8f298c57ad","e622c465-ee29-4445-8260-1f3431e06587","{""participantId"":""3FF27EF7C8224767B45D905E45BE4E6B"",""assignmentId"":""90032e6c-c31d-4bbf-aa6b-db8f298c57ad"",""projectId"":""e622c465-ee29-4445-8260-1f3431e06587""}","https://test12345.live/?participantId=3FF27EF7C8224767B45D905E45BE4E6B&assignmentId=90032e6c-c31d-4bbf-aa6b-db8f298c57ad&projectId=e622c465-ee29-4445-8260-1f3431e06587","","null","<div style=""display: flex; justify-content: center; align-items: center;"">
                    <img src=""images/causal/causal_series_15/causal_series_15_b.jpg"" style=""width: 300px; height: 300px;"" />
                  </div>","null","",""
"","","","","","html-keyboard-response","78","185057","0.0-56.0-2.0","3FF27EF7C8224767B45D905E45BE4E6B","3FF27EF7C8224767B45D905E45BE4E6B","90032e6c-c31d-4bbf-aa6b-db8f298c57ad","e622c465-ee29-4445-8260-1f3431e06587","{""participantId"":""3FF27EF7C8224767B45D905E45BE4E6B"",""assignmentId"":""90032e6c-c31d-4bbf-aa6b-db8f298c57ad"",""projectId"":""e622c465-ee29-4445-8260-1f3431e06587""}","https://test12345.live/?participantId=3FF27EF7C8224767B45D905E45BE4E6B&assignmentId=90032e6c-c31d-4bbf-aa6b-db8f298c57ad&projectId=e622c465-ee29-4445-8260-1f3431e06587","","null","<div style=""display: flex; justify-content: center; align-items: center;"">
                    <img src=""images/causal/causal_series_15/causal_series_15_c.jpg"" style=""width: 300px; height: 300px;"" />
                  </div>","null","",""
"","","","","","html-keyboard-response","79","188068","0.0-56.0-3.0","3FF27EF7C8224767B45D905E45BE4E6B","3FF27EF7C8224767B45D905E45BE4E6B","90032e6c-c31d-4bbf-aa6b-db8f298c57ad","e622c465-ee29-4445-8260-1f3431e06587","{""participantId"":""3FF27EF7C8224767B45D905E45BE4E6B"",""assignmentId"":""90032e6c-c31d-4bbf-aa6b-db8f298c57ad"",""projectId"":""e622c465-ee29-4445-8260-1f3431e06587""}","https://test12345.live/?participantId=3FF27EF7C8224767B45D905E45BE4E6B&assignmentId=90032e6c-c31d-4bbf-aa6b-db8f298c57ad&projectId=e622c465-ee29-4445-8260-1f3431e06587","","null","<div style=""display: flex; justify-content: center; align-items: center;"">
                    <img src=""images/causal/causal_series_15/causal_series_15_d.jpg"" style=""width: 300px; height: 300px;"" />
                  </div>","null","",""
"","","","","","html-button-response","80","189450","0.0-58.0","3FF27EF7C8224767B45D905E45BE4E6B","3FF27EF7C8224767B45D905E45BE4E6B","90032e6c-c31d-4bbf-aa6b-db8f298c57ad","e622c465-ee29-4445-8260-1f3431e06587","{""participantId"":""3FF27EF7C8224767B45D905E45BE4E6B"",""assignmentId"":""90032e6c-c31d-4bbf-aa6b-db8f298c57ad"",""projectId"":""e622c465-ee29-4445-8260-1f3431e06587""}","https://test12345.live/?participantId=3FF27EF7C8224767B45D905E45BE4E6B&assignmentId=90032e6c-c31d-4bbf-aa6b-db8f298c57ad&projectId=e622c465-ee29-4445-8260-1f3431e06587","","1380","Was there a person in the picture?","0","",""
"","","","","","survey-likert","81","192875","0.0-59.0","3FF27EF7C8224767B45D905E45BE4E6B","3FF27EF7C8224767B45D905E45BE4E6B","90032e6c-c31d-4bbf-aa6b-db8f298c57ad","e622c465-ee29-4445-8260-1f3431e06587","{""participantId"":""3FF27EF7C8224767B45D905E45BE4E6B"",""assignmentId"":""90032e6c-c31d-4bbf-aa6b-db8f298c57ad"",""projectId"":""e622c465-ee29-4445-8260-1f3431e06587""}","https://test12345.live/?participantId=3FF27EF7C8224767B45D905E45BE4E6B&assignmentId=90032e6c-c31d-4bbf-aa6b-db8f298c57ad&projectId=e622c465-ee29-4445-8260-1f3431e06587","","3423","","{""Q0"":2}","","[0]"
"","","","","","html-button-response","82","193813","0.0-60.0","3FF27EF7C8224767B45D905E45BE4E6B","3FF27EF7C8224767B45D905E45BE4E6B","90032e6c-c31d-4bbf-aa6b-db8f298c57ad","e622c465-ee29-4445-8260-1f3431e06587","{""participantId"":""3FF27EF7C8224767B45D905E45BE4E6B"",""assignmentId"":""90032e6c-c31d-4bbf-aa6b-db8f298c57ad"",""projectId"":""e622c465-ee29-4445-8260-1f3431e06587""}","https://test12345.live/?participantId=3FF27EF7C8224767B45D905E45BE4E6B&assignmentId=90032e6c-c31d-4bbf-aa6b-db8f298c57ad&projectId=e622c465-ee29-4445-8260-1f3431e06587","","936","
    <div style=""display: flex; justify-content: center; align-items: center;"">
      <img src=""images/blue_deck_1.png"" style=""width: 300px; height: 300px; margin-right: 10px;"" />
      <img src=""images/red_deck_2.png"" style=""width: 300px; height: 300px;"" />
    </div>","0","0",""
"","","","","","html-keyboard-response","83","196825","0.0-61.0-0.0","3FF27EF7C8224767B45D905E45BE4E6B","3FF27EF7C8224767B45D905E45BE4E6B","90032e6c-c31d-4bbf-aa6b-db8f298c57ad","e622c465-ee29-4445-8260-1f3431e06587","{""participantId"":""3FF27EF7C8224767B45D905E45BE4E6B"",""assignmentId"":""90032e6c-c31d-4bbf-aa6b-db8f298c57ad"",""projectId"":""e622c465-ee29-4445-8260-1f3431e06587""}","https://test12345.live/?participantId=3FF27EF7C8224767B45D905E45BE4E6B&assignmentId=90032e6c-c31d-4bbf-aa6b-db8f298c57ad&projectId=e622c465-ee29-4445-8260-1f3431e06587","","null","<div style=""display: flex; justify-content: center; align-items: center;"">
                    <img src=""images/causal/causal_series_14/causal_series_14_a.jpg"" style=""width: 300px; height: 300px;"" />
                  </div>","null","",""
"","","","","","html-keyboard-response","84","199841","0.0-61.0-1.0","3FF27EF7C8224767B45D905E45BE4E6B","3FF27EF7C8224767B45D905E45BE4E6B","90032e6c-c31d-4bbf-aa6b-db8f298c57ad","e622c465-ee29-4445-8260-1f3431e06587","{""participantId"":""3FF27EF7C8224767B45D905E45BE4E6B"",""assignmentId"":""90032e6c-c31d-4bbf-aa6b-db8f298c57ad"",""projectId"":""e622c465-ee29-4445-8260-1f3431e06587""}","https://test12345.live/?participantId=3FF27EF7C8224767B45D905E45BE4E6B&assignmentId=90032e6c-c31d-4bbf-aa6b-db8f298c57ad&projectId=e622c465-ee29-4445-8260-1f3431e06587","","null","<div style=""display: flex; justify-content: center; align-items: center;"">
                    <img src=""images/causal/causal_series_14/causal_series_14_b.jpg"" style=""width: 300px; height: 300px;"" />
                  </div>","null","",""
"","","","","","html-keyboard-response","85","202842","0.0-61.0-2.0","3FF27EF7C8224767B45D905E45BE4E6B","3FF27EF7C8224767B45D905E45BE4E6B","90032e6c-c31d-4bbf-aa6b-db8f298c57ad","e622c465-ee29-4445-8260-1f3431e06587","{""participantId"":""3FF27EF7C8224767B45D905E45BE4E6B"",""assignmentId"":""90032e6c-c31d-4bbf-aa6b-db8f298c57ad"",""projectId"":""e622c465-ee29-4445-8260-1f3431e06587""}","https://test12345.live/?participantId=3FF27EF7C8224767B45D905E45BE4E6B&assignmentId=90032e6c-c31d-4bbf-aa6b-db8f298c57ad&projectId=e622c465-ee29-4445-8260-1f3431e06587","","null","<div style=""display: flex; justify-content: center; align-items: center;"">
                    <img src=""images/causal/causal_series_14/causal_series_14_c.jpg"" style=""width: 300px; height: 300px;"" />
                  </div>","null","",""
"","","","","","html-keyboard-response","86","205851","0.0-61.0-3.0","3FF27EF7C8224767B45D905E45BE4E6B","3FF27EF7C8224767B45D905E45BE4E6B","90032e6c-c31d-4bbf-aa6b-db8f298c57ad","e622c465-ee29-4445-8260-1f3431e06587","{""participantId"":""3FF27EF7C8224767B45D905E45BE4E6B"",""assignmentId"":""90032e6c-c31d-4bbf-aa6b-db8f298c57ad"",""projectId"":""e622c465-ee29-4445-8260-1f3431e06587""}","https://test12345.live/?participantId=3FF27EF7C8224767B45D905E45BE4E6B&assignmentId=90032e6c-c31d-4bbf-aa6b-db8f298c57ad&projectId=e622c465-ee29-4445-8260-1f3431e06587","","null","<div style=""display: flex; justify-content: center; align-items: center;"">
                    <img src=""images/causal/causal_series_14/causal_series_14_d.jpg"" style=""width: 300px; height: 300px;"" />
                  </div>","null","",""
"","","","","","html-button-response","87","207183","0.0-63.0","3FF27EF7C8224767B45D905E45BE4E6B","3FF27EF7C8224767B45D905E45BE4E6B","90032e6c-c31d-4bbf-aa6b-db8f298c57ad","e622c465-ee29-4445-8260-1f3431e06587","{""participantId"":""3FF27EF7C8224767B45D905E45BE4E6B"",""assignmentId"":""90032e6c-c31d-4bbf-aa6b-db8f298c57ad"",""projectId"":""e622c465-ee29-4445-8260-1f3431e06587""}","https://test12345.live/?participantId=3FF27EF7C8224767B45D905E45BE4E6B&assignmentId=90032e6c-c31d-4bbf-aa6b-db8f298c57ad&projectId=e622c465-ee29-4445-8260-1f3431e06587","","1330","Was there a person in the picture?","0","",""
"","","","","","survey-likert","88","208953","0.0-64.0","3FF27EF7C8224767B45D905E45BE4E6B","3FF27EF7C8224767B45D905E45BE4E6B","90032e6c-c31d-4bbf-aa6b-db8f298c57ad","e622c465-ee29-4445-8260-1f3431e06587","{""participantId"":""3FF27EF7C8224767B45D905E45BE4E6B"",""assignmentId"":""90032e6c-c31d-4bbf-aa6b-db8f298c57ad"",""projectId"":""e622c465-ee29-4445-8260-1f3431e06587""}","https://test12345.live/?participantId=3FF27EF7C8224767B45D905E45BE4E6B&assignmentId=90032e6c-c31d-4bbf-aa6b-db8f298c57ad&projectId=e622c465-ee29-4445-8260-1f3431e06587","","1768","","{""Q0"":2}","","[0]"
"","","","","","html-button-response","89","210464","0.0-65.0","3FF27EF7C8224767B45D905E45BE4E6B","3FF27EF7C8224767B45D905E45BE4E6B","90032e6c-c31d-4bbf-aa6b-db8f298c57ad","e622c465-ee29-4445-8260-1f3431e06587","{""participantId"":""3FF27EF7C8224767B45D905E45BE4E6B"",""assignmentId"":""90032e6c-c31d-4bbf-aa6b-db8f298c57ad"",""projectId"":""e622c465-ee29-4445-8260-1f3431e06587""}","https://test12345.live/?participantId=3FF27EF7C8224767B45D905E45BE4E6B&assignmentId=90032e6c-c31d-4bbf-aa6b-db8f298c57ad&projectId=e622c465-ee29-4445-8260-1f3431e06587","","1510","
    <div style=""display: flex; justify-content: center; align-items: center;"">
      <img src=""images/blue_deck_1.png"" style=""width: 300px; height: 300px; margin-right: 10px;"" />
      <img src=""images/red_deck_2.png"" style=""width: 300px; height: 300px;"" />
    </div>","1","1",""
"","","","","","html-keyboard-response","90","213479","0.0-67.0-0.0","3FF27EF7C8224767B45D905E45BE4E6B","3FF27EF7C8224767B45D905E45BE4E6B","90032e6c-c31d-4bbf-aa6b-db8f298c57ad","e622c465-ee29-4445-8260-1f3431e06587","{""participantId"":""3FF27EF7C8224767B45D905E45BE4E6B"",""assignmentId"":""90032e6c-c31d-4bbf-aa6b-db8f298c57ad"",""projectId"":""e622c465-ee29-4445-8260-1f3431e06587""}","https://test12345.live/?participantId=3FF27EF7C8224767B45D905E45BE4E6B&assignmentId=90032e6c-c31d-4bbf-aa6b-db8f298c57ad&projectId=e622c465-ee29-4445-8260-1f3431e06587","","null","<div style=""display: flex; justify-content: center; align-items: center;"">
                    <img src=""images/semantic/semantic_series_17/semantic_series_17_a.jpg"" style=""width: 300px; height: 300px;"" />
                  </div>","null","",""
"","","","","","html-keyboard-response","91","216481","0.0-67.0-1.0","3FF27EF7C8224767B45D905E45BE4E6B","3FF27EF7C8224767B45D905E45BE4E6B","90032e6c-c31d-4bbf-aa6b-db8f298c57ad","e622c465-ee29-4445-8260-1f3431e06587","{""participantId"":""3FF27EF7C8224767B45D905E45BE4E6B"",""assignmentId"":""90032e6c-c31d-4bbf-aa6b-db8f298c57ad"",""projectId"":""e622c465-ee29-4445-8260-1f3431e06587""}","https://test12345.live/?participantId=3FF27EF7C8224767B45D905E45BE4E6B&assignmentId=90032e6c-c31d-4bbf-aa6b-db8f298c57ad&projectId=e622c465-ee29-4445-8260-1f3431e06587","","null","<div style=""display: flex; justify-content: center; align-items: center;"">
                    <img src=""images/semantic/semantic_series_17/semantic_series_17_b.jpg"" style=""width: 300px; height: 300px;"" />
                  </div>","null","",""
"","","","","","html-keyboard-response","92","219482","0.0-67.0-2.0","3FF27EF7C8224767B45D905E45BE4E6B","3FF27EF7C8224767B45D905E45BE4E6B","90032e6c-c31d-4bbf-aa6b-db8f298c57ad","e622c465-ee29-4445-8260-1f3431e06587","{""participantId"":""3FF27EF7C8224767B45D905E45BE4E6B"",""assignmentId"":""90032e6c-c31d-4bbf-aa6b-db8f298c57ad"",""projectId"":""e622c465-ee29-4445-8260-1f3431e06587""}","https://test12345.live/?participantId=3FF27EF7C8224767B45D905E45BE4E6B&assignmentId=90032e6c-c31d-4bbf-aa6b-db8f298c57ad&projectId=e622c465-ee29-4445-8260-1f3431e06587","","null","<div style=""display: flex; justify-content: center; align-items: center;"">
                    <img src=""images/semantic/semantic_series_17/semantic_series_17_c.jpg"" style=""width: 300px; height: 300px;"" />
                  </div>","null","",""
"","","","","","html-keyboard-response","93","222486","0.0-67.0-3.0","3FF27EF7C8224767B45D905E45BE4E6B","3FF27EF7C8224767B45D905E45BE4E6B","90032e6c-c31d-4bbf-aa6b-db8f298c57ad","e622c465-ee29-4445-8260-1f3431e06587","{""participantId"":""3FF27EF7C8224767B45D905E45BE4E6B"",""assignmentId"":""90032e6c-c31d-4bbf-aa6b-db8f298c57ad"",""projectId"":""e622c465-ee29-4445-8260-1f3431e06587""}","https://test12345.live/?participantId=3FF27EF7C8224767B45D905E45BE4E6B&assignmentId=90032e6c-c31d-4bbf-aa6b-db8f298c57ad&projectId=e622c465-ee29-4445-8260-1f3431e06587","","null","<div style=""display: flex; justify-content: center; align-items: center;"">
                    <img src=""images/semantic/semantic_series_17/semantic_series_17_d.jpg"" style=""width: 300px; height: 300px;"" />
                  </div>","null","",""
"","","","","","html-button-response","94","223444","0.0-68.0","3FF27EF7C8224767B45D905E45BE4E6B","3FF27EF7C8224767B45D905E45BE4E6B","90032e6c-c31d-4bbf-aa6b-db8f298c57ad","e622c465-ee29-4445-8260-1f3431e06587","{""participantId"":""3FF27EF7C8224767B45D905E45BE4E6B"",""assignmentId"":""90032e6c-c31d-4bbf-aa6b-db8f298c57ad"",""projectId"":""e622c465-ee29-4445-8260-1f3431e06587""}","https://test12345.live/?participantId=3FF27EF7C8224767B45D905E45BE4E6B&assignmentId=90032e6c-c31d-4bbf-aa6b-db8f298c57ad&projectId=e622c465-ee29-4445-8260-1f3431e06587","","957","Was there a person in the picture?","0","",""
"","","","","","survey-likert","95","224829","0.0-69.0","3FF27EF7C8224767B45D905E45BE4E6B","3FF27EF7C8224767B45D905E45BE4E6B","90032e6c-c31d-4bbf-aa6b-db8f298c57ad","e622c465-ee29-4445-8260-1f3431e06587","{""participantId"":""3FF27EF7C8224767B45D905E45BE4E6B"",""assignmentId"":""90032e6c-c31d-4bbf-aa6b-db8f298c57ad"",""projectId"":""e622c465-ee29-4445-8260-1f3431e06587""}","https://test12345.live/?participantId=3FF27EF7C8224767B45D905E45BE4E6B&assignmentId=90032e6c-c31d-4bbf-aa6b-db8f298c57ad&projectId=e622c465-ee29-4445-8260-1f3431e06587","","1384","","{""Q0"":2}","","[0]"
"","","","","","html-button-response","96","225516","0.0-70.0","3FF27EF7C8224767B45D905E45BE4E6B","3FF27EF7C8224767B45D905E45BE4E6B","90032e6c-c31d-4bbf-aa6b-db8f298c57ad","e622c465-ee29-4445-8260-1f3431e06587","{""participantId"":""3FF27EF7C8224767B45D905E45BE4E6B"",""assignmentId"":""90032e6c-c31d-4bbf-aa6b-db8f298c57ad"",""projectId"":""e622c465-ee29-4445-8260-1f3431e06587""}","https://test12345.live/?participantId=3FF27EF7C8224767B45D905E45BE4E6B&assignmentId=90032e6c-c31d-4bbf-aa6b-db8f298c57ad&projectId=e622c465-ee29-4445-8260-1f3431e06587","","685","
    <div style=""display: flex; justify-content: center; align-items: center;"">
      <img src=""images/blue_deck_1.png"" style=""width: 300px; height: 300px; margin-right: 10px;"" />
      <img src=""images/red_deck_2.png"" style=""width: 300px; height: 300px;"" />
    </div>","1","1",""
"","","","","","html-keyboard-response","97","228518","0.0-72.0-0.0","3FF27EF7C8224767B45D905E45BE4E6B","3FF27EF7C8224767B45D905E45BE4E6B","90032e6c-c31d-4bbf-aa6b-db8f298c57ad","e622c465-ee29-4445-8260-1f3431e06587","{""participantId"":""3FF27EF7C8224767B45D905E45BE4E6B"",""assignmentId"":""90032e6c-c31d-4bbf-aa6b-db8f298c57ad"",""projectId"":""e622c465-ee29-4445-8260-1f3431e06587""}","https://test12345.live/?participantId=3FF27EF7C8224767B45D905E45BE4E6B&assignmentId=90032e6c-c31d-4bbf-aa6b-db8f298c57ad&projectId=e622c465-ee29-4445-8260-1f3431e06587","","null","<div style=""display: flex; justify-content: center; align-items: center;"">
                    <img src=""images/semantic/semantic_series_10/semantic_series_10_a.jpg"" style=""width: 300px; height: 300px;"" />
                  </div>","null","",""
"","","","","","html-keyboard-response","98","231519","0.0-72.0-1.0","3FF27EF7C8224767B45D905E45BE4E6B","3FF27EF7C8224767B45D905E45BE4E6B","90032e6c-c31d-4bbf-aa6b-db8f298c57ad","e622c465-ee29-4445-8260-1f3431e06587","{""participantId"":""3FF27EF7C8224767B45D905E45BE4E6B"",""assignmentId"":""90032e6c-c31d-4bbf-aa6b-db8f298c57ad"",""projectId"":""e622c465-ee29-4445-8260-1f3431e06587""}","https://test12345.live/?participantId=3FF27EF7C8224767B45D905E45BE4E6B&assignmentId=90032e6c-c31d-4bbf-aa6b-db8f298c57ad&projectId=e622c465-ee29-4445-8260-1f3431e06587","","null","<div style=""display: flex; justify-content: center; align-items: center;"">
                    <img src=""images/semantic/semantic_series_10/semantic_series_10_b.jpg"" style=""width: 300px; height: 300px;"" />
                  </div>","null","",""
"","","","","","html-keyboard-response","99","234527","0.0-72.0-2.0","3FF27EF7C8224767B45D905E45BE4E6B","3FF27EF7C8224767B45D905E45BE4E6B","90032e6c-c31d-4bbf-aa6b-db8f298c57ad","e622c465-ee29-4445-8260-1f3431e06587","{""participantId"":""3FF27EF7C8224767B45D905E45BE4E6B"",""assignmentId"":""90032e6c-c31d-4bbf-aa6b-db8f298c57ad"",""projectId"":""e622c465-ee29-4445-8260-1f3431e06587""}","https://test12345.live/?participantId=3FF27EF7C8224767B45D905E45BE4E6B&assignmentId=90032e6c-c31d-4bbf-aa6b-db8f298c57ad&projectId=e622c465-ee29-4445-8260-1f3431e06587","","null","<div style=""display: flex; justify-content: center; align-items: center;"">
                    <img src=""images/semantic/semantic_series_10/semantic_series_10_c.jpg"" style=""width: 300px; height: 300px;"" />
                  </div>","null","",""
"","","","","","html-keyboard-response","100","237531","0.0-72.0-3.0","3FF27EF7C8224767B45D905E45BE4E6B","3FF27EF7C8224767B45D905E45BE4E6B","90032e6c-c31d-4bbf-aa6b-db8f298c57ad","e622c465-ee29-4445-8260-1f3431e06587","{""participantId"":""3FF27EF7C8224767B45D905E45BE4E6B"",""assignmentId"":""90032e6c-c31d-4bbf-aa6b-db8f298c57ad"",""projectId"":""e622c465-ee29-4445-8260-1f3431e06587""}","https://test12345.live/?participantId=3FF27EF7C8224767B45D905E45BE4E6B&assignmentId=90032e6c-c31d-4bbf-aa6b-db8f298c57ad&projectId=e622c465-ee29-4445-8260-1f3431e06587","","null","<div style=""display: flex; justify-content: center; align-items: center;"">
                    <img src=""images/semantic/semantic_series_10/semantic_series_10_d.jpg"" style=""width: 300px; height: 300px;"" />
                  </div>","null","",""
"","","","","","html-button-response","101","239057","0.0-73.0","3FF27EF7C8224767B45D905E45BE4E6B","3FF27EF7C8224767B45D905E45BE4E6B","90032e6c-c31d-4bbf-aa6b-db8f298c57ad","e622c465-ee29-4445-8260-1f3431e06587","{""participantId"":""3FF27EF7C8224767B45D905E45BE4E6B"",""assignmentId"":""90032e6c-c31d-4bbf-aa6b-db8f298c57ad"",""projectId"":""e622c465-ee29-4445-8260-1f3431e06587""}","https://test12345.live/?participantId=3FF27EF7C8224767B45D905E45BE4E6B&assignmentId=90032e6c-c31d-4bbf-aa6b-db8f298c57ad&projectId=e622c465-ee29-4445-8260-1f3431e06587","","1525","Was there a person in the picture?","1","",""
"","","","","","survey-likert","102","240676","0.0-74.0","3FF27EF7C8224767B45D905E45BE4E6B","3FF27EF7C8224767B45D905E45BE4E6B","90032e6c-c31d-4bbf-aa6b-db8f298c57ad","e622c465-ee29-4445-8260-1f3431e06587","{""participantId"":""3FF27EF7C8224767B45D905E45BE4E6B"",""assignmentId"":""90032e6c-c31d-4bbf-aa6b-db8f298c57ad"",""projectId"":""e622c465-ee29-4445-8260-1f3431e06587""}","https://test12345.live/?participantId=3FF27EF7C8224767B45D905E45BE4E6B&assignmentId=90032e6c-c31d-4bbf-aa6b-db8f298c57ad&projectId=e622c465-ee29-4445-8260-1f3431e06587","","1617","","{""Q0"":2}","","[0]"
"","","","","","html-button-response","103","241585","0.0-75.0","3FF27EF7C8224767B45D905E45BE4E6B","3FF27EF7C8224767B45D905E45BE4E6B","90032e6c-c31d-4bbf-aa6b-db8f298c57ad","e622c465-ee29-4445-8260-1f3431e06587","{""participantId"":""3FF27EF7C8224767B45D905E45BE4E6B"",""assignmentId"":""90032e6c-c31d-4bbf-aa6b-db8f298c57ad"",""projectId"":""e622c465-ee29-4445-8260-1f3431e06587""}","https://test12345.live/?participantId=3FF27EF7C8224767B45D905E45BE4E6B&assignmentId=90032e6c-c31d-4bbf-aa6b-db8f298c57ad&projectId=e622c465-ee29-4445-8260-1f3431e06587","","907","
    <div style=""display: flex; justify-content: center; align-items: center;"">
      <img src=""images/blue_deck_1.png"" style=""width: 300px; height: 300px; margin-right: 10px;"" />
      <img src=""images/red_deck_2.png"" style=""width: 300px; height: 300px;"" />
    </div>","0","0",""
"","","","","","html-keyboard-response","104","244587","0.0-76.0-0.0","3FF27EF7C8224767B45D905E45BE4E6B","3FF27EF7C8224767B45D905E45BE4E6B","90032e6c-c31d-4bbf-aa6b-db8f298c57ad","e622c465-ee29-4445-8260-1f3431e06587","{""participantId"":""3FF27EF7C8224767B45D905E45BE4E6B"",""assignmentId"":""90032e6c-c31d-4bbf-aa6b-db8f298c57ad"",""projectId"":""e622c465-ee29-4445-8260-1f3431e06587""}","https://test12345.live/?participantId=3FF27EF7C8224767B45D905E45BE4E6B&assignmentId=90032e6c-c31d-4bbf-aa6b-db8f298c57ad&projectId=e622c465-ee29-4445-8260-1f3431e06587","","null","<div style=""display: flex; justify-content: center; align-items: center;"">
                    <img src=""images/causal/causal_series_6/causal_series_6_a.jpg"" style=""width: 300px; height: 300px;"" />
                  </div>","null","",""
"","","","","","html-keyboard-response","105","247589","0.0-76.0-1.0","3FF27EF7C8224767B45D905E45BE4E6B","3FF27EF7C8224767B45D905E45BE4E6B","90032e6c-c31d-4bbf-aa6b-db8f298c57ad","e622c465-ee29-4445-8260-1f3431e06587","{""participantId"":""3FF27EF7C8224767B45D905E45BE4E6B"",""assignmentId"":""90032e6c-c31d-4bbf-aa6b-db8f298c57ad"",""projectId"":""e622c465-ee29-4445-8260-1f3431e06587""}","https://test12345.live/?participantId=3FF27EF7C8224767B45D905E45BE4E6B&assignmentId=90032e6c-c31d-4bbf-aa6b-db8f298c57ad&projectId=e622c465-ee29-4445-8260-1f3431e06587","","null","<div style=""display: flex; justify-content: center; align-items: center;"">
                    <img src=""images/causal/causal_series_6/causal_series_6_b.jpg"" style=""width: 300px; height: 300px;"" />
                  </div>","null","",""
"","","","","","html-keyboard-response","106","250598","0.0-76.0-2.0","3FF27EF7C8224767B45D905E45BE4E6B","3FF27EF7C8224767B45D905E45BE4E6B","90032e6c-c31d-4bbf-aa6b-db8f298c57ad","e622c465-ee29-4445-8260-1f3431e06587","{""participantId"":""3FF27EF7C8224767B45D905E45BE4E6B"",""assignmentId"":""90032e6c-c31d-4bbf-aa6b-db8f298c57ad"",""projectId"":""e622c465-ee29-4445-8260-1f3431e06587""}","https://test12345.live/?participantId=3FF27EF7C8224767B45D905E45BE4E6B&assignmentId=90032e6c-c31d-4bbf-aa6b-db8f298c57ad&projectId=e622c465-ee29-4445-8260-1f3431e06587","","null","<div style=""display: flex; justify-content: center; align-items: center;"">
                    <img src=""images/causal/causal_series_6/causal_series_6_c.jpg"" style=""width: 300px; height: 300px;"" />
                  </div>","null","",""
"","","","","","html-keyboard-response","107","253600","0.0-76.0-3.0","3FF27EF7C8224767B45D905E45BE4E6B","3FF27EF7C8224767B45D905E45BE4E6B","90032e6c-c31d-4bbf-aa6b-db8f298c57ad","e622c465-ee29-4445-8260-1f3431e06587","{""participantId"":""3FF27EF7C8224767B45D905E45BE4E6B"",""assignmentId"":""90032e6c-c31d-4bbf-aa6b-db8f298c57ad"",""projectId"":""e622c465-ee29-4445-8260-1f3431e06587""}","https://test12345.live/?participantId=3FF27EF7C8224767B45D905E45BE4E6B&assignmentId=90032e6c-c31d-4bbf-aa6b-db8f298c57ad&projectId=e622c465-ee29-4445-8260-1f3431e06587","","null","<div style=""display: flex; justify-content: center; align-items: center;"">
                    <img src=""images/causal/causal_series_6/causal_series_6_d.jpg"" style=""width: 300px; height: 300px;"" />
                  </div>","null","",""
"","","","","","html-button-response","108","254574","0.0-78.0","3FF27EF7C8224767B45D905E45BE4E6B","3FF27EF7C8224767B45D905E45BE4E6B","90032e6c-c31d-4bbf-aa6b-db8f298c57ad","e622c465-ee29-4445-8260-1f3431e06587","{""participantId"":""3FF27EF7C8224767B45D905E45BE4E6B"",""assignmentId"":""90032e6c-c31d-4bbf-aa6b-db8f298c57ad"",""projectId"":""e622c465-ee29-4445-8260-1f3431e06587""}","https://test12345.live/?participantId=3FF27EF7C8224767B45D905E45BE4E6B&assignmentId=90032e6c-c31d-4bbf-aa6b-db8f298c57ad&projectId=e622c465-ee29-4445-8260-1f3431e06587","","973","Was there a person in the picture?","1","",""
"","","","","","survey-likert","109","256028","0.0-79.0","3FF27EF7C8224767B45D905E45BE4E6B","3FF27EF7C8224767B45D905E45BE4E6B","90032e6c-c31d-4bbf-aa6b-db8f298c57ad","e622c465-ee29-4445-8260-1f3431e06587","{""participantId"":""3FF27EF7C8224767B45D905E45BE4E6B"",""assignmentId"":""90032e6c-c31d-4bbf-aa6b-db8f298c57ad"",""projectId"":""e622c465-ee29-4445-8260-1f3431e06587""}","https://test12345.live/?participantId=3FF27EF7C8224767B45D905E45BE4E6B&assignmentId=90032e6c-c31d-4bbf-aa6b-db8f298c57ad&projectId=e622c465-ee29-4445-8260-1f3431e06587","","1453","","{""Q0"":1}","","[0]"
"","","","","","html-button-response","110","256880","0.0-80.0","3FF27EF7C8224767B45D905E45BE4E6B","3FF27EF7C8224767B45D905E45BE4E6B","90032e6c-c31d-4bbf-aa6b-db8f298c57ad","e622c465-ee29-4445-8260-1f3431e06587","{""participantId"":""3FF27EF7C8224767B45D905E45BE4E6B"",""assignmentId"":""90032e6c-c31d-4bbf-aa6b-db8f298c57ad"",""projectId"":""e622c465-ee29-4445-8260-1f3431e06587""}","https://test12345.live/?participantId=3FF27EF7C8224767B45D905E45BE4E6B&assignmentId=90032e6c-c31d-4bbf-aa6b-db8f298c57ad&projectId=e622c465-ee29-4445-8260-1f3431e06587","","850","
    <div style=""display: flex; justify-content: center; align-items: center;"">
      <img src=""images/blue_deck_1.png"" style=""width: 300px; height: 300px; margin-right: 10px;"" />
      <img src=""images/red_deck_2.png"" style=""width: 300px; height: 300px;"" />
    </div>","1","1",""
"","","","","","html-keyboard-response","111","259891","0.0-82.0-0.0","3FF27EF7C8224767B45D905E45BE4E6B","3FF27EF7C8224767B45D905E45BE4E6B","90032e6c-c31d-4bbf-aa6b-db8f298c57ad","e622c465-ee29-4445-8260-1f3431e06587","{""participantId"":""3FF27EF7C8224767B45D905E45BE4E6B"",""assignmentId"":""90032e6c-c31d-4bbf-aa6b-db8f298c57ad"",""projectId"":""e622c465-ee29-4445-8260-1f3431e06587""}","https://test12345.live/?participantId=3FF27EF7C8224767B45D905E45BE4E6B&assignmentId=90032e6c-c31d-4bbf-aa6b-db8f298c57ad&projectId=e622c465-ee29-4445-8260-1f3431e06587","","null","<div style=""display: flex; justify-content: center; align-items: center;"">
                    <img src=""images/semantic/semantic_series_2/semantic_series_2_a.jpg"" style=""width: 300px; height: 300px;"" />
                  </div>","null","",""
"","","","","","html-keyboard-response","112","262902","0.0-82.0-1.0","3FF27EF7C8224767B45D905E45BE4E6B","3FF27EF7C8224767B45D905E45BE4E6B","90032e6c-c31d-4bbf-aa6b-db8f298c57ad","e622c465-ee29-4445-8260-1f3431e06587","{""participantId"":""3FF27EF7C8224767B45D905E45BE4E6B"",""assignmentId"":""90032e6c-c31d-4bbf-aa6b-db8f298c57ad"",""projectId"":""e622c465-ee29-4445-8260-1f3431e06587""}","https://test12345.live/?participantId=3FF27EF7C8224767B45D905E45BE4E6B&assignmentId=90032e6c-c31d-4bbf-aa6b-db8f298c57ad&projectId=e622c465-ee29-4445-8260-1f3431e06587","","null","<div style=""display: flex; justify-content: center; align-items: center;"">
                    <img src=""images/semantic/semantic_series_2/semantic_series_2_b.jpg"" style=""width: 300px; height: 300px;"" />
                  </div>","null","",""
"","","","","","html-keyboard-response","113","265904","0.0-82.0-2.0","3FF27EF7C8224767B45D905E45BE4E6B","3FF27EF7C8224767B45D905E45BE4E6B","90032e6c-c31d-4bbf-aa6b-db8f298c57ad","e622c465-ee29-4445-8260-1f3431e06587","{""participantId"":""3FF27EF7C8224767B45D905E45BE4E6B"",""assignmentId"":""90032e6c-c31d-4bbf-aa6b-db8f298c57ad"",""projectId"":""e622c465-ee29-4445-8260-1f3431e06587""}","https://test12345.live/?participantId=3FF27EF7C8224767B45D905E45BE4E6B&assignmentId=90032e6c-c31d-4bbf-aa6b-db8f298c57ad&projectId=e622c465-ee29-4445-8260-1f3431e06587","","null","<div style=""display: flex; justify-content: center; align-items: center;"">
                    <img src=""images/semantic/semantic_series_2/semantic_series_2_c.jpg"" style=""width: 300px; height: 300px;"" />
                  </div>","null","",""
"","","","","","html-keyboard-response","114","268906","0.0-82.0-3.0","3FF27EF7C8224767B45D905E45BE4E6B","3FF27EF7C8224767B45D905E45BE4E6B","90032e6c-c31d-4bbf-aa6b-db8f298c57ad","e622c465-ee29-4445-8260-1f3431e06587","{""participantId"":""3FF27EF7C8224767B45D905E45BE4E6B"",""assignmentId"":""90032e6c-c31d-4bbf-aa6b-db8f298c57ad"",""projectId"":""e622c465-ee29-4445-8260-1f3431e06587""}","https://test12345.live/?participantId=3FF27EF7C8224767B45D905E45BE4E6B&assignmentId=90032e6c-c31d-4bbf-aa6b-db8f298c57ad&projectId=e622c465-ee29-4445-8260-1f3431e06587","","null","<div style=""display: flex; justify-content: center; align-items: center;"">
                    <img src=""images/semantic/semantic_series_2/semantic_series_2_d.jpg"" style=""width: 300px; height: 300px;"" />
                  </div>","null","",""
"","","","","","html-button-response","115","269962","0.0-83.0","3FF27EF7C8224767B45D905E45BE4E6B","3FF27EF7C8224767B45D905E45BE4E6B","90032e6c-c31d-4bbf-aa6b-db8f298c57ad","e622c465-ee29-4445-8260-1f3431e06587","{""participantId"":""3FF27EF7C8224767B45D905E45BE4E6B"",""assignmentId"":""90032e6c-c31d-4bbf-aa6b-db8f298c57ad"",""projectId"":""e622c465-ee29-4445-8260-1f3431e06587""}","https://test12345.live/?participantId=3FF27EF7C8224767B45D905E45BE4E6B&assignmentId=90032e6c-c31d-4bbf-aa6b-db8f298c57ad&projectId=e622c465-ee29-4445-8260-1f3431e06587","","1055","Was there a person in the picture?","0","",""
"","","","","","survey-likert","116","271352","0.0-84.0","3FF27EF7C8224767B45D905E45BE4E6B","3FF27EF7C8224767B45D905E45BE4E6B","90032e6c-c31d-4bbf-aa6b-db8f298c57ad","e622c465-ee29-4445-8260-1f3431e06587","{""participantId"":""3FF27EF7C8224767B45D905E45BE4E6B"",""assignmentId"":""90032e6c-c31d-4bbf-aa6b-db8f298c57ad"",""projectId"":""e622c465-ee29-4445-8260-1f3431e06587""}","https://test12345.live/?participantId=3FF27EF7C8224767B45D905E45BE4E6B&assignmentId=90032e6c-c31d-4bbf-aa6b-db8f298c57ad&projectId=e622c465-ee29-4445-8260-1f3431e06587","","1388","","{""Q0"":1}","","[0]"
"","","","","","html-button-response","117","272362","0.0-85.0","3FF27EF7C8224767B45D905E45BE4E6B","3FF27EF7C8224767B45D905E45BE4E6B","90032e6c-c31d-4bbf-aa6b-db8f298c57ad","e622c465-ee29-4445-8260-1f3431e06587","{""participantId"":""3FF27EF7C8224767B45D905E45BE4E6B"",""assignmentId"":""90032e6c-c31d-4bbf-aa6b-db8f298c57ad"",""projectId"":""e622c465-ee29-4445-8260-1f3431e06587""}","https://test12345.live/?participantId=3FF27EF7C8224767B45D905E45BE4E6B&assignmentId=90032e6c-c31d-4bbf-aa6b-db8f298c57ad&projectId=e622c465-ee29-4445-8260-1f3431e06587","","1008","
    <div style=""display: flex; justify-content: center; align-items: center;"">
      <img src=""images/blue_deck_1.png"" style=""width: 300px; height: 300px; margin-right: 10px;"" />
      <img src=""images/red_deck_2.png"" style=""width: 300px; height: 300px;"" />
    </div>","1","1",""
"","","","","","html-keyboard-response","118","275364","0.0-87.0-0.0","3FF27EF7C8224767B45D905E45BE4E6B","3FF27EF7C8224767B45D905E45BE4E6B","90032e6c-c31d-4bbf-aa6b-db8f298c57ad","e622c465-ee29-4445-8260-1f3431e06587","{""participantId"":""3FF27EF7C8224767B45D905E45BE4E6B"",""assignmentId"":""90032e6c-c31d-4bbf-aa6b-db8f298c57ad"",""projectId"":""e622c465-ee29-4445-8260-1f3431e06587""}","https://test12345.live/?participantId=3FF27EF7C8224767B45D905E45BE4E6B&assignmentId=90032e6c-c31d-4bbf-aa6b-db8f298c57ad&projectId=e622c465-ee29-4445-8260-1f3431e06587","","null","<div style=""display: flex; justify-content: center; align-items: center;"">
                    <img src=""images/semantic/semantic_series_15/semantic_series_15_a.jpg"" style=""width: 300px; height: 300px;"" />
                  </div>","null","",""
"","","","","","html-keyboard-response","119","278367","0.0-87.0-1.0","3FF27EF7C8224767B45D905E45BE4E6B","3FF27EF7C8224767B45D905E45BE4E6B","90032e6c-c31d-4bbf-aa6b-db8f298c57ad","e622c465-ee29-4445-8260-1f3431e06587","{""participantId"":""3FF27EF7C8224767B45D905E45BE4E6B"",""assignmentId"":""90032e6c-c31d-4bbf-aa6b-db8f298c57ad"",""projectId"":""e622c465-ee29-4445-8260-1f3431e06587""}","https://test12345.live/?participantId=3FF27EF7C8224767B45D905E45BE4E6B&assignmentId=90032e6c-c31d-4bbf-aa6b-db8f298c57ad&projectId=e622c465-ee29-4445-8260-1f3431e06587","","null","<div style=""display: flex; justify-content: center; align-items: center;"">
                    <img src=""images/semantic/semantic_series_15/semantic_series_15_b.jpg"" style=""width: 300px; height: 300px;"" />
                  </div>","null","",""
"","","","","","html-keyboard-response","120","281369","0.0-87.0-2.0","3FF27EF7C8224767B45D905E45BE4E6B","3FF27EF7C8224767B45D905E45BE4E6B","90032e6c-c31d-4bbf-aa6b-db8f298c57ad","e622c465-ee29-4445-8260-1f3431e06587","{""participantId"":""3FF27EF7C8224767B45D905E45BE4E6B"",""assignmentId"":""90032e6c-c31d-4bbf-aa6b-db8f298c57ad"",""projectId"":""e622c465-ee29-4445-8260-1f3431e06587""}","https://test12345.live/?participantId=3FF27EF7C8224767B45D905E45BE4E6B&assignmentId=90032e6c-c31d-4bbf-aa6b-db8f298c57ad&projectId=e622c465-ee29-4445-8260-1f3431e06587","","null","<div style=""display: flex; justify-content: center; align-items: center;"">
                    <img src=""images/semantic/semantic_series_15/semantic_series_15_c.jpg"" style=""width: 300px; height: 300px;"" />
                  </div>","null","",""
"","","","","","html-keyboard-response","121","284375","0.0-87.0-3.0","3FF27EF7C8224767B45D905E45BE4E6B","3FF27EF7C8224767B45D905E45BE4E6B","90032e6c-c31d-4bbf-aa6b-db8f298c57ad","e622c465-ee29-4445-8260-1f3431e06587","{""participantId"":""3FF27EF7C8224767B45D905E45BE4E6B"",""assignmentId"":""90032e6c-c31d-4bbf-aa6b-db8f298c57ad"",""projectId"":""e622c465-ee29-4445-8260-1f3431e06587""}","https://test12345.live/?participantId=3FF27EF7C8224767B45D905E45BE4E6B&assignmentId=90032e6c-c31d-4bbf-aa6b-db8f298c57ad&projectId=e622c465-ee29-4445-8260-1f3431e06587","","null","<div style=""display: flex; justify-content: center; align-items: center;"">
                    <img src=""images/semantic/semantic_series_15/semantic_series_15_d.jpg"" style=""width: 300px; height: 300px;"" />
                  </div>","null","",""
"","","","","","html-button-response","122","285522","0.0-88.0","3FF27EF7C8224767B45D905E45BE4E6B","3FF27EF7C8224767B45D905E45BE4E6B","90032e6c-c31d-4bbf-aa6b-db8f298c57ad","e622c465-ee29-4445-8260-1f3431e06587","{""participantId"":""3FF27EF7C8224767B45D905E45BE4E6B"",""assignmentId"":""90032e6c-c31d-4bbf-aa6b-db8f298c57ad"",""projectId"":""e622c465-ee29-4445-8260-1f3431e06587""}","https://test12345.live/?participantId=3FF27EF7C8224767B45D905E45BE4E6B&assignmentId=90032e6c-c31d-4bbf-aa6b-db8f298c57ad&projectId=e622c465-ee29-4445-8260-1f3431e06587","","1146","Was there a person in the picture?","0","",""
"","","","","","survey-likert","123","287664","0.0-89.0","3FF27EF7C8224767B45D905E45BE4E6B","3FF27EF7C8224767B45D905E45BE4E6B","90032e6c-c31d-4bbf-aa6b-db8f298c57ad","e622c465-ee29-4445-8260-1f3431e06587","{""participantId"":""3FF27EF7C8224767B45D905E45BE4E6B"",""assignmentId"":""90032e6c-c31d-4bbf-aa6b-db8f298c57ad"",""projectId"":""e622c465-ee29-4445-8260-1f3431e06587""}","https://test12345.live/?participantId=3FF27EF7C8224767B45D905E45BE4E6B&assignmentId=90032e6c-c31d-4bbf-aa6b-db8f298c57ad&projectId=e622c465-ee29-4445-8260-1f3431e06587","","2141","","{""Q0"":2}","","[0]"
"","","","","","html-button-response","124","288451","0.0-90.0","3FF27EF7C8224767B45D905E45BE4E6B","3FF27EF7C8224767B45D905E45BE4E6B","90032e6c-c31d-4bbf-aa6b-db8f298c57ad","e622c465-ee29-4445-8260-1f3431e06587","{""participantId"":""3FF27EF7C8224767B45D905E45BE4E6B"",""assignmentId"":""90032e6c-c31d-4bbf-aa6b-db8f298c57ad"",""projectId"":""e622c465-ee29-4445-8260-1f3431e06587""}","https://test12345.live/?participantId=3FF27EF7C8224767B45D905E45BE4E6B&assignmentId=90032e6c-c31d-4bbf-aa6b-db8f298c57ad&projectId=e622c465-ee29-4445-8260-1f3431e06587","","786","
    <div style=""display: flex; justify-content: center; align-items: center;"">
      <img src=""images/blue_deck_1.png"" style=""width: 300px; height: 300px; margin-right: 10px;"" />
      <img src=""images/red_deck_2.png"" style=""width: 300px; height: 300px;"" />
    </div>","1","1",""
"","","","","","html-keyboard-response","125","291457","0.0-92.0-0.0","3FF27EF7C8224767B45D905E45BE4E6B","3FF27EF7C8224767B45D905E45BE4E6B","90032e6c-c31d-4bbf-aa6b-db8f298c57ad","e622c465-ee29-4445-8260-1f3431e06587","{""participantId"":""3FF27EF7C8224767B45D905E45BE4E6B"",""assignmentId"":""90032e6c-c31d-4bbf-aa6b-db8f298c57ad"",""projectId"":""e622c465-ee29-4445-8260-1f3431e06587""}","https://test12345.live/?participantId=3FF27EF7C8224767B45D905E45BE4E6B&assignmentId=90032e6c-c31d-4bbf-aa6b-db8f298c57ad&projectId=e622c465-ee29-4445-8260-1f3431e06587","","null","<div style=""display: flex; justify-content: center; align-items: center;"">
                    <img src=""images/semantic/semantic_series_16/semantic_series_16_a.jpg"" style=""width: 300px; height: 300px;"" />
                  </div>","null","",""
"","","","","","html-keyboard-response","126","294459","0.0-92.0-1.0","3FF27EF7C8224767B45D905E45BE4E6B","3FF27EF7C8224767B45D905E45BE4E6B","90032e6c-c31d-4bbf-aa6b-db8f298c57ad","e622c465-ee29-4445-8260-1f3431e06587","{""participantId"":""3FF27EF7C8224767B45D905E45BE4E6B"",""assignmentId"":""90032e6c-c31d-4bbf-aa6b-db8f298c57ad"",""projectId"":""e622c465-ee29-4445-8260-1f3431e06587""}","https://test12345.live/?participantId=3FF27EF7C8224767B45D905E45BE4E6B&assignmentId=90032e6c-c31d-4bbf-aa6b-db8f298c57ad&projectId=e622c465-ee29-4445-8260-1f3431e06587","","null","<div style=""display: flex; justify-content: center; align-items: center;"">
                    <img src=""images/semantic/semantic_series_16/semantic_series_16_b.jpg"" style=""width: 300px; height: 300px;"" />
                  </div>","null","",""
"","","","","","html-keyboard-response","127","297472","0.0-92.0-2.0","3FF27EF7C8224767B45D905E45BE4E6B","3FF27EF7C8224767B45D905E45BE4E6B","90032e6c-c31d-4bbf-aa6b-db8f298c57ad","e622c465-ee29-4445-8260-1f3431e06587","{""participantId"":""3FF27EF7C8224767B45D905E45BE4E6B"",""assignmentId"":""90032e6c-c31d-4bbf-aa6b-db8f298c57ad"",""projectId"":""e622c465-ee29-4445-8260-1f3431e06587""}","https://test12345.live/?participantId=3FF27EF7C8224767B45D905E45BE4E6B&assignmentId=90032e6c-c31d-4bbf-aa6b-db8f298c57ad&projectId=e622c465-ee29-4445-8260-1f3431e06587","","null","<div style=""display: flex; justify-content: center; align-items: center;"">
                    <img src=""images/semantic/semantic_series_16/semantic_series_16_c.jpg"" style=""width: 300px; height: 300px;"" />
                  </div>","null","",""
"","","","","","html-keyboard-response","128","300488","0.0-92.0-3.0","3FF27EF7C8224767B45D905E45BE4E6B","3FF27EF7C8224767B45D905E45BE4E6B","90032e6c-c31d-4bbf-aa6b-db8f298c57ad","e622c465-ee29-4445-8260-1f3431e06587","{""participantId"":""3FF27EF7C8224767B45D905E45BE4E6B"",""assignmentId"":""90032e6c-c31d-4bbf-aa6b-db8f298c57ad"",""projectId"":""e622c465-ee29-4445-8260-1f3431e06587""}","https://test12345.live/?participantId=3FF27EF7C8224767B45D905E45BE4E6B&assignmentId=90032e6c-c31d-4bbf-aa6b-db8f298c57ad&projectId=e622c465-ee29-4445-8260-1f3431e06587","","null","<div style=""display: flex; justify-content: center; align-items: center;"">
                    <img src=""images/semantic/semantic_series_16/semantic_series_16_d.jpg"" style=""width: 300px; height: 300px;"" />
                  </div>","null","",""
"","","","","","html-button-response","129","302699","0.0-93.0","3FF27EF7C8224767B45D905E45BE4E6B","3FF27EF7C8224767B45D905E45BE4E6B","90032e6c-c31d-4bbf-aa6b-db8f298c57ad","e622c465-ee29-4445-8260-1f3431e06587","{""participantId"":""3FF27EF7C8224767B45D905E45BE4E6B"",""assignmentId"":""90032e6c-c31d-4bbf-aa6b-db8f298c57ad"",""projectId"":""e622c465-ee29-4445-8260-1f3431e06587""}","https://test12345.live/?participantId=3FF27EF7C8224767B45D905E45BE4E6B&assignmentId=90032e6c-c31d-4bbf-aa6b-db8f298c57ad&projectId=e622c465-ee29-4445-8260-1f3431e06587","","2207","Was there a person in the picture?","0","",""
"","","","","","survey-likert","130","304389","0.0-94.0","3FF27EF7C8224767B45D905E45BE4E6B","3FF27EF7C8224767B45D905E45BE4E6B","90032e6c-c31d-4bbf-aa6b-db8f298c57ad","e622c465-ee29-4445-8260-1f3431e06587","{""participantId"":""3FF27EF7C8224767B45D905E45BE4E6B"",""assignmentId"":""90032e6c-c31d-4bbf-aa6b-db8f298c57ad"",""projectId"":""e622c465-ee29-4445-8260-1f3431e06587""}","https://test12345.live/?participantId=3FF27EF7C8224767B45D905E45BE4E6B&assignmentId=90032e6c-c31d-4bbf-aa6b-db8f298c57ad&projectId=e622c465-ee29-4445-8260-1f3431e06587","","1689","","{""Q0"":1}","","[0]"
"","","","","","survey-text","131","321742","0.0-95.0","3FF27EF7C8224767B45D905E45BE4E6B","3FF27EF7C8224767B45D905E45BE4E6B","90032e6c-c31d-4bbf-aa6b-db8f298c57ad","e622c465-ee29-4445-8260-1f3431e06587","{""participantId"":""3FF27EF7C8224767B45D905E45BE4E6B"",""assignmentId"":""90032e6c-c31d-4bbf-aa6b-db8f298c57ad"",""projectId"":""e622c465-ee29-4445-8260-1f3431e06587""}","https://test12345.live/?participantId=3FF27EF7C8224767B45D905E45BE4E6B&assignmentId=90032e6c-c31d-4bbf-aa6b-db8f298c57ad&projectId=e622c465-ee29-4445-8260-1f3431e06587","","17345","","{""Q0"":""One contained Ai images and the other contained cartoons""}","",""
