"success","timeout","failed_images","failed_audio","failed_video","trial_type","trial_index","time_elapsed","internal_node_id","subject_id","study_id","session_id","view_history","rt","stimulus","response","choice"
"true","false","[]","[]","[]","preload","0","6994","0.0-0.0","12D45106FC154102AB6C7C198F24ABE9","d736bce5-9ed4-465c-b707-1a69dfd02d4d","58046770-4c03-4bc2-b4bc-e7359011db5d","","","","",""
"","","","","","instructions","1","11020","0.0-1.0","12D45106FC154102AB6C7C198F24ABE9","d736bce5-9ed4-465c-b707-1a69dfd02d4d","58046770-4c03-4bc2-b4bc-e7359011db5d","[{""page_index"":0,""viewing_time"":4025}]","4025","","",""
"","","","","","instructions","2","15517","0.0-2.0","12D45106FC154102AB6C7C198F24ABE9","d736bce5-9ed4-465c-b707-1a69dfd02d4d","58046770-4c03-4bc2-b4bc-e7359011db5d","[{""page_index"":0,""viewing_time"":4497}]","4497","","",""
"true","","","","","fullscreen","3","18398","0.0-3.0","12D45106FC154102AB6C7C198F24ABE9","d736bce5-9ed4-465c-b707-1a69dfd02d4d","58046770-4c03-4bc2-b4bc-e7359011db5d","","1872","","",""
"","","","","","instructions","4","28321","0.0-4.0","12D45106FC154102AB6C7C198F24ABE9","d736bce5-9ed4-465c-b707-1a69dfd02d4d","58046770-4c03-4bc2-b4bc-e7359011db5d","[{""page_index"":0,""viewing_time"":9921}]","9922","","",""
"","","","","","html-keyboard-response","5","31328","0.0-5.0","12D45106FC154102AB6C7C198F24ABE9","d736bce5-9ed4-465c-b707-1a69dfd02d4d","58046770-4c03-4bc2-b4bc-e7359011db5d","","null","<div style=""display: flex; justify-content: center; align-items: center;"">
                <img src=""images/causal/causal_series_6/causal_series_6_a.jpg"" style=""width: 300px; height: 300px;"" />
              </div>","null",""
"","","","","","html-keyboard-response","6","34335","0.0-6.0","12D45106FC154102AB6C7C198F24ABE9","d736bce5-9ed4-465c-b707-1a69dfd02d4d","58046770-4c03-4bc2-b4bc-e7359011db5d","","null","<div style=""display: flex; justify-content: center; align-items: center;"">
                <img src=""images/causal/causal_series_6/causal_series_6_b.jpg"" style=""width: 300px; height: 300px;"" />
              </div>","null",""
"","","","","","html-keyboard-response","7","37343","0.0-7.0","12D45106FC154102AB6C7C198F24ABE9","d736bce5-9ed4-465c-b707-1a69dfd02d4d","58046770-4c03-4bc2-b4bc-e7359011db5d","","null","<div style=""display: flex; justify-content: center; align-items: center;"">
                <img src=""images/causal/causal_series_6/causal_series_6_c.jpg"" style=""width: 300px; height: 300px;"" />
              </div>","null",""
"","","","","","html-button-response","8","40853","0.0-8.0","12D45106FC154102AB6C7C198F24ABE9","d736bce5-9ed4-465c-b707-1a69dfd02d4d","58046770-4c03-4bc2-b4bc-e7359011db5d","","3506","
    <div style=""display: flex; justify-content: center; align-items: center;"">
      <img src=""images/red_deck_2.png"" style=""width: 300px; height: 300px; margin-right: 10px;"" />
      <img src=""images/blue_deck_1.png"" style=""width: 300px; height: 300px;"" />
    </div>","0","0"
"","","","","","html-keyboard-response","9","43856","0.0-9.0-0.0-0.0","12D45106FC154102AB6C7C198F24ABE9","d736bce5-9ed4-465c-b707-1a69dfd02d4d","58046770-4c03-4bc2-b4bc-e7359011db5d","","null","<div style=""display: flex; justify-content: center; align-items: center;"">
                <img src=""images/causal/causal_series_6/causal_series_6_d.jpg"" style=""width: 300px; height: 300px;"" />
              </div>","null",""
"","","","","","html-keyboard-response","10","46863","0.0-10.0","12D45106FC154102AB6C7C198F24ABE9","d736bce5-9ed4-465c-b707-1a69dfd02d4d","58046770-4c03-4bc2-b4bc-e7359011db5d","","null","<div style=""display: flex; justify-content: center; align-items: center;"">
                <img src=""images/other/blank.jpg"" style=""width: 300px; height: 300px;"" />
              </div>","null",""
"","","","","","html-keyboard-response","11","49870","0.0-11.0","12D45106FC154102AB6C7C198F24ABE9","d736bce5-9ed4-465c-b707-1a69dfd02d4d","58046770-4c03-4bc2-b4bc-e7359011db5d","","null","<div style=""display: flex; justify-content: center; align-items: center;"">
                <img src=""images/causal/causal_series_9/causal_series_9_a.jpg"" style=""width: 300px; height: 300px;"" />
              </div>","null",""
"","","","","","html-keyboard-response","12","52874","0.0-12.0","12D45106FC154102AB6C7C198F24ABE9","d736bce5-9ed4-465c-b707-1a69dfd02d4d","58046770-4c03-4bc2-b4bc-e7359011db5d","","null","<div style=""display: flex; justify-content: center; align-items: center;"">
                <img src=""images/causal/causal_series_9/causal_series_9_b.jpg"" style=""width: 300px; height: 300px;"" />
              </div>","null",""
"","","","","","html-keyboard-response","13","55877","0.0-13.0","12D45106FC154102AB6C7C198F24ABE9","d736bce5-9ed4-465c-b707-1a69dfd02d4d","58046770-4c03-4bc2-b4bc-e7359011db5d","","null","<div style=""display: flex; justify-content: center; align-items: center;"">
                <img src=""images/causal/causal_series_9/causal_series_9_c.jpg"" style=""width: 300px; height: 300px;"" />
              </div>","null",""
"","","","","","html-button-response","14","57421","0.0-14.0","12D45106FC154102AB6C7C198F24ABE9","d736bce5-9ed4-465c-b707-1a69dfd02d4d","58046770-4c03-4bc2-b4bc-e7359011db5d","","1542","
    <div style=""display: flex; justify-content: center; align-items: center;"">
      <img src=""images/red_deck_2.png"" style=""width: 300px; height: 300px; margin-right: 10px;"" />
      <img src=""images/blue_deck_1.png"" style=""width: 300px; height: 300px;"" />
    </div>","1","1"
"","","","","","html-keyboard-response","15","60428","0.0-15.0-1.0-0.0","12D45106FC154102AB6C7C198F24ABE9","d736bce5-9ed4-465c-b707-1a69dfd02d4d","58046770-4c03-4bc2-b4bc-e7359011db5d","","null","<div style=""display: flex; justify-content: center; align-items: center;"">
                <img src=""images/semantic/semantic_series_8/semantic_series_8_d.jpg"" style=""width: 300px; height: 300px;"" />
              </div>","null",""
"","","","","","html-keyboard-response","16","63435","0.0-16.0","12D45106FC154102AB6C7C198F24ABE9","d736bce5-9ed4-465c-b707-1a69dfd02d4d","58046770-4c03-4bc2-b4bc-e7359011db5d","","null","<div style=""display: flex; justify-content: center; align-items: center;"">
                <img src=""images/other/blank.jpg"" style=""width: 300px; height: 300px;"" />
              </div>","null",""
"","","","","","html-keyboard-response","17","66442","0.0-17.0","12D45106FC154102AB6C7C198F24ABE9","d736bce5-9ed4-465c-b707-1a69dfd02d4d","58046770-4c03-4bc2-b4bc-e7359011db5d","","null","<div style=""display: flex; justify-content: center; align-items: center;"">
                <img src=""images/causal/causal_series_7/causal_series_7_a.jpg"" style=""width: 300px; height: 300px;"" />
              </div>","null",""
"","","","","","html-keyboard-response","18","69449","0.0-18.0","12D45106FC154102AB6C7C198F24ABE9","d736bce5-9ed4-465c-b707-1a69dfd02d4d","58046770-4c03-4bc2-b4bc-e7359011db5d","","null","<div style=""display: flex; justify-content: center; align-items: center;"">
                <img src=""images/causal/causal_series_7/causal_series_7_b.jpg"" style=""width: 300px; height: 300px;"" />
              </div>","null",""
"","","","","","html-keyboard-response","19","72453","0.0-19.0","12D45106FC154102AB6C7C198F24ABE9","d736bce5-9ed4-465c-b707-1a69dfd02d4d","58046770-4c03-4bc2-b4bc-e7359011db5d","","null","<div style=""display: flex; justify-content: center; align-items: center;"">
                <img src=""images/causal/causal_series_7/causal_series_7_c.jpg"" style=""width: 300px; height: 300px;"" />
              </div>","null",""
"","","","","","html-button-response","20","75371","0.0-20.0","12D45106FC154102AB6C7C198F24ABE9","d736bce5-9ed4-465c-b707-1a69dfd02d4d","58046770-4c03-4bc2-b4bc-e7359011db5d","","2915","
    <div style=""display: flex; justify-content: center; align-items: center;"">
      <img src=""images/red_deck_2.png"" style=""width: 300px; height: 300px; margin-right: 10px;"" />
      <img src=""images/blue_deck_1.png"" style=""width: 300px; height: 300px;"" />
    </div>","1","1"
"","","","","","html-keyboard-response","21","78378","0.0-21.0-1.0-0.0","12D45106FC154102AB6C7C198F24ABE9","d736bce5-9ed4-465c-b707-1a69dfd02d4d","58046770-4c03-4bc2-b4bc-e7359011db5d","","null","<div style=""display: flex; justify-content: center; align-items: center;"">
                <img src=""images/semantic/semantic_series_6/semantic_series_6_d.jpg"" style=""width: 300px; height: 300px;"" />
              </div>","null",""
"","","","","","html-keyboard-response","22","81385","0.0-22.0","12D45106FC154102AB6C7C198F24ABE9","d736bce5-9ed4-465c-b707-1a69dfd02d4d","58046770-4c03-4bc2-b4bc-e7359011db5d","","null","<div style=""display: flex; justify-content: center; align-items: center;"">
                <img src=""images/other/blank.jpg"" style=""width: 300px; height: 300px;"" />
              </div>","null",""
"","","","","","html-keyboard-response","23","84391","0.0-23.0","12D45106FC154102AB6C7C198F24ABE9","d736bce5-9ed4-465c-b707-1a69dfd02d4d","58046770-4c03-4bc2-b4bc-e7359011db5d","","null","<div style=""display: flex; justify-content: center; align-items: center;"">
                <img src=""images/causal/causal_series_14/causal_series_14_a.jpg"" style=""width: 300px; height: 300px;"" />
              </div>","null",""
"","","","","","html-keyboard-response","24","87398","0.0-24.0","12D45106FC154102AB6C7C198F24ABE9","d736bce5-9ed4-465c-b707-1a69dfd02d4d","58046770-4c03-4bc2-b4bc-e7359011db5d","","null","<div style=""display: flex; justify-content: center; align-items: center;"">
                <img src=""images/causal/causal_series_14/causal_series_14_b.jpg"" style=""width: 300px; height: 300px;"" />
              </div>","null",""
"","","","","","html-keyboard-response","25","90405","0.0-25.0","12D45106FC154102AB6C7C198F24ABE9","d736bce5-9ed4-465c-b707-1a69dfd02d4d","58046770-4c03-4bc2-b4bc-e7359011db5d","","null","<div style=""display: flex; justify-content: center; align-items: center;"">
                <img src=""images/causal/causal_series_14/causal_series_14_c.jpg"" style=""width: 300px; height: 300px;"" />
              </div>","null",""
"","","","","","html-button-response","26","91716","0.0-26.0","12D45106FC154102AB6C7C198F24ABE9","d736bce5-9ed4-465c-b707-1a69dfd02d4d","58046770-4c03-4bc2-b4bc-e7359011db5d","","1309","
    <div style=""display: flex; justify-content: center; align-items: center;"">
      <img src=""images/red_deck_2.png"" style=""width: 300px; height: 300px; margin-right: 10px;"" />
      <img src=""images/blue_deck_1.png"" style=""width: 300px; height: 300px;"" />
    </div>","0","0"
"","","","","","html-keyboard-response","27","94720","0.0-27.0-0.0-0.0","12D45106FC154102AB6C7C198F24ABE9","d736bce5-9ed4-465c-b707-1a69dfd02d4d","58046770-4c03-4bc2-b4bc-e7359011db5d","","null","<div style=""display: flex; justify-content: center; align-items: center;"">
                <img src=""images/causal/causal_series_14/causal_series_14_d.jpg"" style=""width: 300px; height: 300px;"" />
              </div>","null",""
"","","","","","html-keyboard-response","28","97725","0.0-28.0","12D45106FC154102AB6C7C198F24ABE9","d736bce5-9ed4-465c-b707-1a69dfd02d4d","58046770-4c03-4bc2-b4bc-e7359011db5d","","null","<div style=""display: flex; justify-content: center; align-items: center;"">
                <img src=""images/other/blank.jpg"" style=""width: 300px; height: 300px;"" />
              </div>","null",""
"","","","","","html-keyboard-response","29","100729","0.0-29.0","12D45106FC154102AB6C7C198F24ABE9","d736bce5-9ed4-465c-b707-1a69dfd02d4d","58046770-4c03-4bc2-b4bc-e7359011db5d","","null","<div style=""display: flex; justify-content: center; align-items: center;"">
                <img src=""images/causal/causal_series_8/causal_series_8_a.jpg"" style=""width: 300px; height: 300px;"" />
              </div>","null",""
"","","","","","html-keyboard-response","30","103735","0.0-30.0","12D45106FC154102AB6C7C198F24ABE9","d736bce5-9ed4-465c-b707-1a69dfd02d4d","58046770-4c03-4bc2-b4bc-e7359011db5d","","null","<div style=""display: flex; justify-content: center; align-items: center;"">
                <img src=""images/causal/causal_series_8/causal_series_8_b.jpg"" style=""width: 300px; height: 300px;"" />
              </div>","null",""
"","","","","","html-keyboard-response","31","106739","0.0-31.0","12D45106FC154102AB6C7C198F24ABE9","d736bce5-9ed4-465c-b707-1a69dfd02d4d","58046770-4c03-4bc2-b4bc-e7359011db5d","","null","<div style=""display: flex; justify-content: center; align-items: center;"">
                <img src=""images/causal/causal_series_8/causal_series_8_c.jpg"" style=""width: 300px; height: 300px;"" />
              </div>","null",""
"","","","","","html-button-response","32","108231","0.0-32.0","12D45106FC154102AB6C7C198F24ABE9","d736bce5-9ed4-465c-b707-1a69dfd02d4d","58046770-4c03-4bc2-b4bc-e7359011db5d","","1491","
    <div style=""display: flex; justify-content: center; align-items: center;"">
      <img src=""images/red_deck_2.png"" style=""width: 300px; height: 300px; margin-right: 10px;"" />
      <img src=""images/blue_deck_1.png"" style=""width: 300px; height: 300px;"" />
    </div>","1","1"
"","","","","","html-keyboard-response","33","111233","0.0-33.0-1.0-0.0","12D45106FC154102AB6C7C198F24ABE9","d736bce5-9ed4-465c-b707-1a69dfd02d4d","58046770-4c03-4bc2-b4bc-e7359011db5d","","null","<div style=""display: flex; justify-content: center; align-items: center;"">
                <img src=""images/semantic/semantic_series_7/semantic_series_7_d.jpg"" style=""width: 300px; height: 300px;"" />
              </div>","null",""
"","","","","","html-keyboard-response","34","114238","0.0-34.0","12D45106FC154102AB6C7C198F24ABE9","d736bce5-9ed4-465c-b707-1a69dfd02d4d","58046770-4c03-4bc2-b4bc-e7359011db5d","","null","<div style=""display: flex; justify-content: center; align-items: center;"">
                <img src=""images/other/blank.jpg"" style=""width: 300px; height: 300px;"" />
              </div>","null",""
"","","","","","html-keyboard-response","35","117245","0.0-35.0","12D45106FC154102AB6C7C198F24ABE9","d736bce5-9ed4-465c-b707-1a69dfd02d4d","58046770-4c03-4bc2-b4bc-e7359011db5d","","null","<div style=""display: flex; justify-content: center; align-items: center;"">
                <img src=""images/causal/causal_series_17/causal_series_17_a.jpg"" style=""width: 300px; height: 300px;"" />
              </div>","null",""
"","","","","","html-keyboard-response","36","120250","0.0-36.0","12D45106FC154102AB6C7C198F24ABE9","d736bce5-9ed4-465c-b707-1a69dfd02d4d","58046770-4c03-4bc2-b4bc-e7359011db5d","","null","<div style=""display: flex; justify-content: center; align-items: center;"">
                <img src=""images/causal/causal_series_17/causal_series_17_b.jpg"" style=""width: 300px; height: 300px;"" />
              </div>","null",""
"","","","","","html-keyboard-response","37","123253","0.0-37.0","12D45106FC154102AB6C7C198F24ABE9","d736bce5-9ed4-465c-b707-1a69dfd02d4d","58046770-4c03-4bc2-b4bc-e7359011db5d","","null","<div style=""display: flex; justify-content: center; align-items: center;"">
                <img src=""images/causal/causal_series_17/causal_series_17_c.jpg"" style=""width: 300px; height: 300px;"" />
              </div>","null",""
"","","","","","html-button-response","38","124252","0.0-38.0","12D45106FC154102AB6C7C198F24ABE9","d736bce5-9ed4-465c-b707-1a69dfd02d4d","58046770-4c03-4bc2-b4bc-e7359011db5d","","996","
    <div style=""display: flex; justify-content: center; align-items: center;"">
      <img src=""images/red_deck_2.png"" style=""width: 300px; height: 300px; margin-right: 10px;"" />
      <img src=""images/blue_deck_1.png"" style=""width: 300px; height: 300px;"" />
    </div>","1","1"
"","","","","","html-keyboard-response","39","127259","0.0-39.0-1.0-0.0","12D45106FC154102AB6C7C198F24ABE9","d736bce5-9ed4-465c-b707-1a69dfd02d4d","58046770-4c03-4bc2-b4bc-e7359011db5d","","null","<div style=""display: flex; justify-content: center; align-items: center;"">
                <img src=""images/semantic/semantic_series_16/semantic_series_16_d.jpg"" style=""width: 300px; height: 300px;"" />
              </div>","null",""
"","","","","","html-keyboard-response","40","130266","0.0-40.0","12D45106FC154102AB6C7C198F24ABE9","d736bce5-9ed4-465c-b707-1a69dfd02d4d","58046770-4c03-4bc2-b4bc-e7359011db5d","","null","<div style=""display: flex; justify-content: center; align-items: center;"">
                <img src=""images/other/blank.jpg"" style=""width: 300px; height: 300px;"" />
              </div>","null",""
"","","","","","html-keyboard-response","41","133273","0.0-41.0","12D45106FC154102AB6C7C198F24ABE9","d736bce5-9ed4-465c-b707-1a69dfd02d4d","58046770-4c03-4bc2-b4bc-e7359011db5d","","null","<div style=""display: flex; justify-content: center; align-items: center;"">
                <img src=""images/causal/causal_series_15/causal_series_15_a.jpg"" style=""width: 300px; height: 300px;"" />
              </div>","null",""
"","","","","","html-keyboard-response","42","136280","0.0-42.0","12D45106FC154102AB6C7C198F24ABE9","d736bce5-9ed4-465c-b707-1a69dfd02d4d","58046770-4c03-4bc2-b4bc-e7359011db5d","","null","<div style=""display: flex; justify-content: center; align-items: center;"">
                <img src=""images/causal/causal_series_15/causal_series_15_b.jpg"" style=""width: 300px; height: 300px;"" />
              </div>","null",""
"","","","","","html-keyboard-response","43","139285","0.0-43.0","12D45106FC154102AB6C7C198F24ABE9","d736bce5-9ed4-465c-b707-1a69dfd02d4d","58046770-4c03-4bc2-b4bc-e7359011db5d","","null","<div style=""display: flex; justify-content: center; align-items: center;"">
                <img src=""images/causal/causal_series_15/causal_series_15_c.jpg"" style=""width: 300px; height: 300px;"" />
              </div>","null",""
"","","","","","html-button-response","44","141280","0.0-44.0","12D45106FC154102AB6C7C198F24ABE9","d736bce5-9ed4-465c-b707-1a69dfd02d4d","58046770-4c03-4bc2-b4bc-e7359011db5d","","1992","
    <div style=""display: flex; justify-content: center; align-items: center;"">
      <img src=""images/red_deck_2.png"" style=""width: 300px; height: 300px; margin-right: 10px;"" />
      <img src=""images/blue_deck_1.png"" style=""width: 300px; height: 300px;"" />
    </div>","0","0"
"","","","","","html-keyboard-response","45","144287","0.0-45.0-0.0-0.0","12D45106FC154102AB6C7C198F24ABE9","d736bce5-9ed4-465c-b707-1a69dfd02d4d","58046770-4c03-4bc2-b4bc-e7359011db5d","","null","<div style=""display: flex; justify-content: center; align-items: center;"">
                <img src=""images/causal/causal_series_15/causal_series_15_d.jpg"" style=""width: 300px; height: 300px;"" />
              </div>","null",""
"","","","","","html-keyboard-response","46","147290","0.0-46.0","12D45106FC154102AB6C7C198F24ABE9","d736bce5-9ed4-465c-b707-1a69dfd02d4d","58046770-4c03-4bc2-b4bc-e7359011db5d","","null","<div style=""display: flex; justify-content: center; align-items: center;"">
                <img src=""images/other/blank.jpg"" style=""width: 300px; height: 300px;"" />
              </div>","null",""
"","","","","","html-keyboard-response","47","150297","0.0-47.0","12D45106FC154102AB6C7C198F24ABE9","d736bce5-9ed4-465c-b707-1a69dfd02d4d","58046770-4c03-4bc2-b4bc-e7359011db5d","","null","<div style=""display: flex; justify-content: center; align-items: center;"">
                <img src=""images/causal/causal_series_12/causal_series_12_a.jpg"" style=""width: 300px; height: 300px;"" />
              </div>","null",""
"","","","","","html-keyboard-response","48","153298","0.0-48.0","12D45106FC154102AB6C7C198F24ABE9","d736bce5-9ed4-465c-b707-1a69dfd02d4d","58046770-4c03-4bc2-b4bc-e7359011db5d","","null","<div style=""display: flex; justify-content: center; align-items: center;"">
                <img src=""images/causal/causal_series_12/causal_series_12_b.jpg"" style=""width: 300px; height: 300px;"" />
              </div>","null",""
"","","","","","html-keyboard-response","49","156305","0.0-49.0","12D45106FC154102AB6C7C198F24ABE9","d736bce5-9ed4-465c-b707-1a69dfd02d4d","58046770-4c03-4bc2-b4bc-e7359011db5d","","null","<div style=""display: flex; justify-content: center; align-items: center;"">
                <img src=""images/causal/causal_series_12/causal_series_12_c.jpg"" style=""width: 300px; height: 300px;"" />
              </div>","null",""
"","","","","","html-button-response","50","157541","0.0-50.0","12D45106FC154102AB6C7C198F24ABE9","d736bce5-9ed4-465c-b707-1a69dfd02d4d","58046770-4c03-4bc2-b4bc-e7359011db5d","","1234","
    <div style=""display: flex; justify-content: center; align-items: center;"">
      <img src=""images/red_deck_2.png"" style=""width: 300px; height: 300px; margin-right: 10px;"" />
      <img src=""images/blue_deck_1.png"" style=""width: 300px; height: 300px;"" />
    </div>","1","1"
"","","","","","html-keyboard-response","51","160548","0.0-51.0-1.0-0.0","12D45106FC154102AB6C7C198F24ABE9","d736bce5-9ed4-465c-b707-1a69dfd02d4d","58046770-4c03-4bc2-b4bc-e7359011db5d","","null","<div style=""display: flex; justify-content: center; align-items: center;"">
                <img src=""images/semantic/semantic_series_11/semantic_series_11_d.jpg"" style=""width: 300px; height: 300px;"" />
              </div>","null",""
"","","","","","html-keyboard-response","52","163555","0.0-52.0","12D45106FC154102AB6C7C198F24ABE9","d736bce5-9ed4-465c-b707-1a69dfd02d4d","58046770-4c03-4bc2-b4bc-e7359011db5d","","null","<div style=""display: flex; justify-content: center; align-items: center;"">
                <img src=""images/other/blank.jpg"" style=""width: 300px; height: 300px;"" />
              </div>","null",""
"","","","","","html-keyboard-response","53","166562","0.0-53.0","12D45106FC154102AB6C7C198F24ABE9","d736bce5-9ed4-465c-b707-1a69dfd02d4d","58046770-4c03-4bc2-b4bc-e7359011db5d","","null","<div style=""display: flex; justify-content: center; align-items: center;"">
                <img src=""images/causal/causal_series_16/causal_series_16_a.jpg"" style=""width: 300px; height: 300px;"" />
              </div>","null",""
"","","","","","html-keyboard-response","54","169568","0.0-54.0","12D45106FC154102AB6C7C198F24ABE9","d736bce5-9ed4-465c-b707-1a69dfd02d4d","58046770-4c03-4bc2-b4bc-e7359011db5d","","null","<div style=""display: flex; justify-content: center; align-items: center;"">
                <img src=""images/causal/causal_series_16/causal_series_16_b.jpg"" style=""width: 300px; height: 300px;"" />
              </div>","null",""
"","","","","","html-keyboard-response","55","172575","0.0-55.0","12D45106FC154102AB6C7C198F24ABE9","d736bce5-9ed4-465c-b707-1a69dfd02d4d","58046770-4c03-4bc2-b4bc-e7359011db5d","","null","<div style=""display: flex; justify-content: center; align-items: center;"">
                <img src=""images/causal/causal_series_16/causal_series_16_c.jpg"" style=""width: 300px; height: 300px;"" />
              </div>","null",""
"","","","","","html-button-response","56","174725","0.0-56.0","12D45106FC154102AB6C7C198F24ABE9","d736bce5-9ed4-465c-b707-1a69dfd02d4d","58046770-4c03-4bc2-b4bc-e7359011db5d","","2147","
    <div style=""display: flex; justify-content: center; align-items: center;"">
      <img src=""images/red_deck_2.png"" style=""width: 300px; height: 300px; margin-right: 10px;"" />
      <img src=""images/blue_deck_1.png"" style=""width: 300px; height: 300px;"" />
    </div>","0","0"
"","","","","","html-keyboard-response","57","177729","0.0-57.0-0.0-0.0","12D45106FC154102AB6C7C198F24ABE9","d736bce5-9ed4-465c-b707-1a69dfd02d4d","58046770-4c03-4bc2-b4bc-e7359011db5d","","null","<div style=""display: flex; justify-content: center; align-items: center;"">
                <img src=""images/causal/causal_series_16/causal_series_16_d.jpg"" style=""width: 300px; height: 300px;"" />
              </div>","null",""
"","","","","","html-keyboard-response","58","180735","0.0-58.0","12D45106FC154102AB6C7C198F24ABE9","d736bce5-9ed4-465c-b707-1a69dfd02d4d","58046770-4c03-4bc2-b4bc-e7359011db5d","","null","<div style=""display: flex; justify-content: center; align-items: center;"">
                <img src=""images/other/blank.jpg"" style=""width: 300px; height: 300px;"" />
              </div>","null",""
"","","","","","html-keyboard-response","59","183741","0.0-59.0","12D45106FC154102AB6C7C198F24ABE9","d736bce5-9ed4-465c-b707-1a69dfd02d4d","58046770-4c03-4bc2-b4bc-e7359011db5d","","null","<div style=""display: flex; justify-content: center; align-items: center;"">
                <img src=""images/causal/causal_series_1/causal_series_1_a.jpg"" style=""width: 300px; height: 300px;"" />
              </div>","null",""
"","","","","","html-keyboard-response","60","186745","0.0-60.0","12D45106FC154102AB6C7C198F24ABE9","d736bce5-9ed4-465c-b707-1a69dfd02d4d","58046770-4c03-4bc2-b4bc-e7359011db5d","","null","<div style=""display: flex; justify-content: center; align-items: center;"">
                <img src=""images/causal/causal_series_1/causal_series_1_b.jpg"" style=""width: 300px; height: 300px;"" />
              </div>","null",""
"","","","","","html-keyboard-response","61","189749","0.0-61.0","12D45106FC154102AB6C7C198F24ABE9","d736bce5-9ed4-465c-b707-1a69dfd02d4d","58046770-4c03-4bc2-b4bc-e7359011db5d","","null","<div style=""display: flex; justify-content: center; align-items: center;"">
                <img src=""images/causal/causal_series_1/causal_series_1_c.jpg"" style=""width: 300px; height: 300px;"" />
              </div>","null",""
"","","","","","html-button-response","62","191153","0.0-62.0","12D45106FC154102AB6C7C198F24ABE9","d736bce5-9ed4-465c-b707-1a69dfd02d4d","58046770-4c03-4bc2-b4bc-e7359011db5d","","1401","
    <div style=""display: flex; justify-content: center; align-items: center;"">
      <img src=""images/red_deck_2.png"" style=""width: 300px; height: 300px; margin-right: 10px;"" />
      <img src=""images/blue_deck_1.png"" style=""width: 300px; height: 300px;"" />
    </div>","1","1"
"","","","","","html-keyboard-response","63","194158","0.0-63.0-1.0-0.0","12D45106FC154102AB6C7C198F24ABE9","d736bce5-9ed4-465c-b707-1a69dfd02d4d","58046770-4c03-4bc2-b4bc-e7359011db5d","","null","<div style=""display: flex; justify-content: center; align-items: center;"">
                <img src=""images/semantic/semantic_series_18/semantic_series_18_d.jpg"" style=""width: 300px; height: 300px;"" />
              </div>","null",""
"","","","","","html-keyboard-response","64","197159","0.0-64.0","12D45106FC154102AB6C7C198F24ABE9","d736bce5-9ed4-465c-b707-1a69dfd02d4d","58046770-4c03-4bc2-b4bc-e7359011db5d","","null","<div style=""display: flex; justify-content: center; align-items: center;"">
                <img src=""images/other/blank.jpg"" style=""width: 300px; height: 300px;"" />
              </div>","null",""
"","","","","","html-keyboard-response","65","200162","0.0-65.0","12D45106FC154102AB6C7C198F24ABE9","d736bce5-9ed4-465c-b707-1a69dfd02d4d","58046770-4c03-4bc2-b4bc-e7359011db5d","","null","<div style=""display: flex; justify-content: center; align-items: center;"">
                <img src=""images/causal/causal_series_18/causal_series_18_a.jpg"" style=""width: 300px; height: 300px;"" />
              </div>","null",""
"","","","","","html-keyboard-response","66","203166","0.0-66.0","12D45106FC154102AB6C7C198F24ABE9","d736bce5-9ed4-465c-b707-1a69dfd02d4d","58046770-4c03-4bc2-b4bc-e7359011db5d","","null","<div style=""display: flex; justify-content: center; align-items: center;"">
                <img src=""images/causal/causal_series_18/causal_series_18_b.jpg"" style=""width: 300px; height: 300px;"" />
              </div>","null",""
"","","","","","html-keyboard-response","67","206170","0.0-67.0","12D45106FC154102AB6C7C198F24ABE9","d736bce5-9ed4-465c-b707-1a69dfd02d4d","58046770-4c03-4bc2-b4bc-e7359011db5d","","null","<div style=""display: flex; justify-content: center; align-items: center;"">
                <img src=""images/causal/causal_series_18/causal_series_18_c.jpg"" style=""width: 300px; height: 300px;"" />
              </div>","null",""
"","","","","","html-button-response","68","207850","0.0-68.0","12D45106FC154102AB6C7C198F24ABE9","d736bce5-9ed4-465c-b707-1a69dfd02d4d","58046770-4c03-4bc2-b4bc-e7359011db5d","","1679","
    <div style=""display: flex; justify-content: center; align-items: center;"">
      <img src=""images/red_deck_2.png"" style=""width: 300px; height: 300px; margin-right: 10px;"" />
      <img src=""images/blue_deck_1.png"" style=""width: 300px; height: 300px;"" />
    </div>","0","0"
"","","","","","html-keyboard-response","69","210856","0.0-69.0-0.0-0.0","12D45106FC154102AB6C7C198F24ABE9","d736bce5-9ed4-465c-b707-1a69dfd02d4d","58046770-4c03-4bc2-b4bc-e7359011db5d","","null","<div style=""display: flex; justify-content: center; align-items: center;"">
                <img src=""images/causal/causal_series_18/causal_series_18_d.jpg"" style=""width: 300px; height: 300px;"" />
              </div>","null",""
"","","","","","html-keyboard-response","70","213860","0.0-70.0","12D45106FC154102AB6C7C198F24ABE9","d736bce5-9ed4-465c-b707-1a69dfd02d4d","58046770-4c03-4bc2-b4bc-e7359011db5d","","null","<div style=""display: flex; justify-content: center; align-items: center;"">
                <img src=""images/other/blank.jpg"" style=""width: 300px; height: 300px;"" />
              </div>","null",""
"","","","","","html-keyboard-response","71","216864","0.0-71.0","12D45106FC154102AB6C7C198F24ABE9","d736bce5-9ed4-465c-b707-1a69dfd02d4d","58046770-4c03-4bc2-b4bc-e7359011db5d","","null","<div style=""display: flex; justify-content: center; align-items: center;"">
                <img src=""images/causal/causal_series_2/causal_series_2_a.jpg"" style=""width: 300px; height: 300px;"" />
              </div>","null",""
"","","","","","html-keyboard-response","72","219867","0.0-72.0","12D45106FC154102AB6C7C198F24ABE9","d736bce5-9ed4-465c-b707-1a69dfd02d4d","58046770-4c03-4bc2-b4bc-e7359011db5d","","null","<div style=""display: flex; justify-content: center; align-items: center;"">
                <img src=""images/causal/causal_series_2/causal_series_2_b.jpg"" style=""width: 300px; height: 300px;"" />
              </div>","null",""
"","","","","","html-keyboard-response","73","222869","0.0-73.0","12D45106FC154102AB6C7C198F24ABE9","d736bce5-9ed4-465c-b707-1a69dfd02d4d","58046770-4c03-4bc2-b4bc-e7359011db5d","","null","<div style=""display: flex; justify-content: center; align-items: center;"">
                <img src=""images/causal/causal_series_2/causal_series_2_c.jpg"" style=""width: 300px; height: 300px;"" />
              </div>","null",""
"","","","","","html-button-response","74","224373","0.0-74.0","12D45106FC154102AB6C7C198F24ABE9","d736bce5-9ed4-465c-b707-1a69dfd02d4d","58046770-4c03-4bc2-b4bc-e7359011db5d","","1502","
    <div style=""display: flex; justify-content: center; align-items: center;"">
      <img src=""images/red_deck_2.png"" style=""width: 300px; height: 300px; margin-right: 10px;"" />
      <img src=""images/blue_deck_1.png"" style=""width: 300px; height: 300px;"" />
    </div>","1","1"
"","","","","","html-keyboard-response","75","227379","0.0-75.0-1.0-0.0","12D45106FC154102AB6C7C198F24ABE9","d736bce5-9ed4-465c-b707-1a69dfd02d4d","58046770-4c03-4bc2-b4bc-e7359011db5d","","null","<div style=""display: flex; justify-content: center; align-items: center;"">
                <img src=""images/semantic/semantic_series_1/semantic_series_1_d.jpg"" style=""width: 300px; height: 300px;"" />
              </div>","null",""
"","","","","","html-keyboard-response","76","230381","0.0-76.0","12D45106FC154102AB6C7C198F24ABE9","d736bce5-9ed4-465c-b707-1a69dfd02d4d","58046770-4c03-4bc2-b4bc-e7359011db5d","","null","<div style=""display: flex; justify-content: center; align-items: center;"">
                <img src=""images/other/blank.jpg"" style=""width: 300px; height: 300px;"" />
              </div>","null",""
"","","","","","html-keyboard-response","77","233387","0.0-77.0","12D45106FC154102AB6C7C198F24ABE9","d736bce5-9ed4-465c-b707-1a69dfd02d4d","58046770-4c03-4bc2-b4bc-e7359011db5d","","null","<div style=""display: flex; justify-content: center; align-items: center;"">
                <img src=""images/causal/causal_series_13/causal_series_13_a.jpg"" style=""width: 300px; height: 300px;"" />
              </div>","null",""
"","","","","","html-keyboard-response","78","236394","0.0-78.0","12D45106FC154102AB6C7C198F24ABE9","d736bce5-9ed4-465c-b707-1a69dfd02d4d","58046770-4c03-4bc2-b4bc-e7359011db5d","","null","<div style=""display: flex; justify-content: center; align-items: center;"">
                <img src=""images/causal/causal_series_13/causal_series_13_b.jpg"" style=""width: 300px; height: 300px;"" />
              </div>","null",""
"","","","","","html-keyboard-response","79","239400","0.0-79.0","12D45106FC154102AB6C7C198F24ABE9","d736bce5-9ed4-465c-b707-1a69dfd02d4d","58046770-4c03-4bc2-b4bc-e7359011db5d","","null","<div style=""display: flex; justify-content: center; align-items: center;"">
                <img src=""images/causal/causal_series_13/causal_series_13_c.jpg"" style=""width: 300px; height: 300px;"" />
              </div>","null",""
"","","","","","html-button-response","80","241272","0.0-80.0","12D45106FC154102AB6C7C198F24ABE9","d736bce5-9ed4-465c-b707-1a69dfd02d4d","58046770-4c03-4bc2-b4bc-e7359011db5d","","1869","
    <div style=""display: flex; justify-content: center; align-items: center;"">
      <img src=""images/red_deck_2.png"" style=""width: 300px; height: 300px; margin-right: 10px;"" />
      <img src=""images/blue_deck_1.png"" style=""width: 300px; height: 300px;"" />
    </div>","0","0"
"","","","","","html-keyboard-response","81","244278","0.0-81.0-0.0-0.0","12D45106FC154102AB6C7C198F24ABE9","d736bce5-9ed4-465c-b707-1a69dfd02d4d","58046770-4c03-4bc2-b4bc-e7359011db5d","","null","<div style=""display: flex; justify-content: center; align-items: center;"">
                <img src=""images/causal/causal_series_13/causal_series_13_d.jpg"" style=""width: 300px; height: 300px;"" />
              </div>","null",""
"","","","","","html-keyboard-response","82","247285","0.0-82.0","12D45106FC154102AB6C7C198F24ABE9","d736bce5-9ed4-465c-b707-1a69dfd02d4d","58046770-4c03-4bc2-b4bc-e7359011db5d","","null","<div style=""display: flex; justify-content: center; align-items: center;"">
                <img src=""images/other/blank.jpg"" style=""width: 300px; height: 300px;"" />
              </div>","null",""
"","","","","","html-keyboard-response","83","250292","0.0-83.0","12D45106FC154102AB6C7C198F24ABE9","d736bce5-9ed4-465c-b707-1a69dfd02d4d","58046770-4c03-4bc2-b4bc-e7359011db5d","","null","<div style=""display: flex; justify-content: center; align-items: center;"">
                <img src=""images/causal/causal_series_11/causal_series_11_a.jpg"" style=""width: 300px; height: 300px;"" />
              </div>","null",""
"","","","","","html-keyboard-response","84","253299","0.0-84.0","12D45106FC154102AB6C7C198F24ABE9","d736bce5-9ed4-465c-b707-1a69dfd02d4d","58046770-4c03-4bc2-b4bc-e7359011db5d","","null","<div style=""display: flex; justify-content: center; align-items: center;"">
                <img src=""images/causal/causal_series_11/causal_series_11_b.jpg"" style=""width: 300px; height: 300px;"" />
              </div>","null",""
"","","","","","html-keyboard-response","85","256306","0.0-85.0","12D45106FC154102AB6C7C198F24ABE9","d736bce5-9ed4-465c-b707-1a69dfd02d4d","58046770-4c03-4bc2-b4bc-e7359011db5d","","null","<div style=""display: flex; justify-content: center; align-items: center;"">
                <img src=""images/causal/causal_series_11/causal_series_11_c.jpg"" style=""width: 300px; height: 300px;"" />
              </div>","null",""
"","","","","","html-button-response","86","258091","0.0-86.0","12D45106FC154102AB6C7C198F24ABE9","d736bce5-9ed4-465c-b707-1a69dfd02d4d","58046770-4c03-4bc2-b4bc-e7359011db5d","","1783","
    <div style=""display: flex; justify-content: center; align-items: center;"">
      <img src=""images/red_deck_2.png"" style=""width: 300px; height: 300px; margin-right: 10px;"" />
      <img src=""images/blue_deck_1.png"" style=""width: 300px; height: 300px;"" />
    </div>","0","0"
"","","","","","html-keyboard-response","87","261098","0.0-87.0-0.0-0.0","12D45106FC154102AB6C7C198F24ABE9","d736bce5-9ed4-465c-b707-1a69dfd02d4d","58046770-4c03-4bc2-b4bc-e7359011db5d","","null","<div style=""display: flex; justify-content: center; align-items: center;"">
                <img src=""images/causal/causal_series_11/causal_series_11_d.jpg"" style=""width: 300px; height: 300px;"" />
              </div>","null",""
"","","","","","html-keyboard-response","88","264105","0.0-88.0","12D45106FC154102AB6C7C198F24ABE9","d736bce5-9ed4-465c-b707-1a69dfd02d4d","58046770-4c03-4bc2-b4bc-e7359011db5d","","null","<div style=""display: flex; justify-content: center; align-items: center;"">
                <img src=""images/other/blank.jpg"" style=""width: 300px; height: 300px;"" />
              </div>","null",""
"","","","","","html-keyboard-response","89","267111","0.0-89.0","12D45106FC154102AB6C7C198F24ABE9","d736bce5-9ed4-465c-b707-1a69dfd02d4d","58046770-4c03-4bc2-b4bc-e7359011db5d","","null","<div style=""display: flex; justify-content: center; align-items: center;"">
                <img src=""images/causal/causal_series_4/causal_series_4_a.jpg"" style=""width: 300px; height: 300px;"" />
              </div>","null",""
"","","","","","html-keyboard-response","90","270117","0.0-90.0","12D45106FC154102AB6C7C198F24ABE9","d736bce5-9ed4-465c-b707-1a69dfd02d4d","58046770-4c03-4bc2-b4bc-e7359011db5d","","null","<div style=""display: flex; justify-content: center; align-items: center;"">
                <img src=""images/causal/causal_series_4/causal_series_4_b.jpg"" style=""width: 300px; height: 300px;"" />
              </div>","null",""
"","","","","","html-keyboard-response","91","273124","0.0-91.0","12D45106FC154102AB6C7C198F24ABE9","d736bce5-9ed4-465c-b707-1a69dfd02d4d","58046770-4c03-4bc2-b4bc-e7359011db5d","","null","<div style=""display: flex; justify-content: center; align-items: center;"">
                <img src=""images/causal/causal_series_4/causal_series_4_c.jpg"" style=""width: 300px; height: 300px;"" />
              </div>","null",""
"","","","","","html-button-response","92","274718","0.0-92.0","12D45106FC154102AB6C7C198F24ABE9","d736bce5-9ed4-465c-b707-1a69dfd02d4d","58046770-4c03-4bc2-b4bc-e7359011db5d","","1592","
    <div style=""display: flex; justify-content: center; align-items: center;"">
      <img src=""images/red_deck_2.png"" style=""width: 300px; height: 300px; margin-right: 10px;"" />
      <img src=""images/blue_deck_1.png"" style=""width: 300px; height: 300px;"" />
    </div>","1","1"
"","","","","","html-keyboard-response","93","277725","0.0-93.0-1.0-0.0","12D45106FC154102AB6C7C198F24ABE9","d736bce5-9ed4-465c-b707-1a69dfd02d4d","58046770-4c03-4bc2-b4bc-e7359011db5d","","null","<div style=""display: flex; justify-content: center; align-items: center;"">
                <img src=""images/semantic/semantic_series_3/semantic_series_3_d.jpg"" style=""width: 300px; height: 300px;"" />
              </div>","null",""
"","","","","","html-keyboard-response","94","280733","0.0-94.0","12D45106FC154102AB6C7C198F24ABE9","d736bce5-9ed4-465c-b707-1a69dfd02d4d","58046770-4c03-4bc2-b4bc-e7359011db5d","","null","<div style=""display: flex; justify-content: center; align-items: center;"">
                <img src=""images/other/blank.jpg"" style=""width: 300px; height: 300px;"" />
              </div>","null",""
"","","","","","html-keyboard-response","95","283736","0.0-95.0","12D45106FC154102AB6C7C198F24ABE9","d736bce5-9ed4-465c-b707-1a69dfd02d4d","58046770-4c03-4bc2-b4bc-e7359011db5d","","null","<div style=""display: flex; justify-content: center; align-items: center;"">
                <img src=""images/causal/causal_series_10/causal_series_10_a.jpg"" style=""width: 300px; height: 300px;"" />
              </div>","null",""
"","","","","","html-keyboard-response","96","286742","0.0-96.0","12D45106FC154102AB6C7C198F24ABE9","d736bce5-9ed4-465c-b707-1a69dfd02d4d","58046770-4c03-4bc2-b4bc-e7359011db5d","","null","<div style=""display: flex; justify-content: center; align-items: center;"">
                <img src=""images/causal/causal_series_10/causal_series_10_b.jpg"" style=""width: 300px; height: 300px;"" />
              </div>","null",""
"","","","","","html-keyboard-response","97","289749","0.0-97.0","12D45106FC154102AB6C7C198F24ABE9","d736bce5-9ed4-465c-b707-1a69dfd02d4d","58046770-4c03-4bc2-b4bc-e7359011db5d","","null","<div style=""display: flex; justify-content: center; align-items: center;"">
                <img src=""images/causal/causal_series_10/causal_series_10_c.jpg"" style=""width: 300px; height: 300px;"" />
              </div>","null",""
"","","","","","html-button-response","98","291499","0.0-98.0","12D45106FC154102AB6C7C198F24ABE9","d736bce5-9ed4-465c-b707-1a69dfd02d4d","58046770-4c03-4bc2-b4bc-e7359011db5d","","1749","
    <div style=""display: flex; justify-content: center; align-items: center;"">
      <img src=""images/red_deck_2.png"" style=""width: 300px; height: 300px; margin-right: 10px;"" />
      <img src=""images/blue_deck_1.png"" style=""width: 300px; height: 300px;"" />
    </div>","0","0"
"","","","","","html-keyboard-response","99","294503","0.0-99.0-0.0-0.0","12D45106FC154102AB6C7C198F24ABE9","d736bce5-9ed4-465c-b707-1a69dfd02d4d","58046770-4c03-4bc2-b4bc-e7359011db5d","","null","<div style=""display: flex; justify-content: center; align-items: center;"">
                <img src=""images/causal/causal_series_10/causal_series_10_d.jpg"" style=""width: 300px; height: 300px;"" />
              </div>","null",""
"","","","","","html-keyboard-response","100","297511","0.0-100.0","12D45106FC154102AB6C7C198F24ABE9","d736bce5-9ed4-465c-b707-1a69dfd02d4d","58046770-4c03-4bc2-b4bc-e7359011db5d","","null","<div style=""display: flex; justify-content: center; align-items: center;"">
                <img src=""images/other/blank.jpg"" style=""width: 300px; height: 300px;"" />
              </div>","null",""
"","","","","","html-keyboard-response","101","300517","0.0-101.0","12D45106FC154102AB6C7C198F24ABE9","d736bce5-9ed4-465c-b707-1a69dfd02d4d","58046770-4c03-4bc2-b4bc-e7359011db5d","","null","<div style=""display: flex; justify-content: center; align-items: center;"">
                <img src=""images/causal/causal_series_5/causal_series_5_a.jpg"" style=""width: 300px; height: 300px;"" />
              </div>","null",""
"","","","","","html-keyboard-response","102","303520","0.0-102.0","12D45106FC154102AB6C7C198F24ABE9","d736bce5-9ed4-465c-b707-1a69dfd02d4d","58046770-4c03-4bc2-b4bc-e7359011db5d","","null","<div style=""display: flex; justify-content: center; align-items: center;"">
                <img src=""images/causal/causal_series_5/causal_series_5_b.jpg"" style=""width: 300px; height: 300px;"" />
              </div>","null",""
"","","","","","html-keyboard-response","103","306527","0.0-103.0","12D45106FC154102AB6C7C198F24ABE9","d736bce5-9ed4-465c-b707-1a69dfd02d4d","58046770-4c03-4bc2-b4bc-e7359011db5d","","null","<div style=""display: flex; justify-content: center; align-items: center;"">
                <img src=""images/causal/causal_series_5/causal_series_5_c.jpg"" style=""width: 300px; height: 300px;"" />
              </div>","null",""
"","","","","","html-button-response","104","307522","0.0-104.0","12D45106FC154102AB6C7C198F24ABE9","d736bce5-9ed4-465c-b707-1a69dfd02d4d","58046770-4c03-4bc2-b4bc-e7359011db5d","","993","
    <div style=""display: flex; justify-content: center; align-items: center;"">
      <img src=""images/red_deck_2.png"" style=""width: 300px; height: 300px; margin-right: 10px;"" />
      <img src=""images/blue_deck_1.png"" style=""width: 300px; height: 300px;"" />
    </div>","0","0"
"","","","","","html-keyboard-response","105","310529","0.0-105.0-0.0-0.0","12D45106FC154102AB6C7C198F24ABE9","d736bce5-9ed4-465c-b707-1a69dfd02d4d","58046770-4c03-4bc2-b4bc-e7359011db5d","","null","<div style=""display: flex; justify-content: center; align-items: center;"">
                <img src=""images/causal/causal_series_5/causal_series_5_d.jpg"" style=""width: 300px; height: 300px;"" />
              </div>","null",""
"","","","","","html-keyboard-response","106","313536","0.0-106.0","12D45106FC154102AB6C7C198F24ABE9","d736bce5-9ed4-465c-b707-1a69dfd02d4d","58046770-4c03-4bc2-b4bc-e7359011db5d","","null","<div style=""display: flex; justify-content: center; align-items: center;"">
                <img src=""images/other/blank.jpg"" style=""width: 300px; height: 300px;"" />
              </div>","null",""
"","","","","","html-keyboard-response","107","316543","0.0-107.0","12D45106FC154102AB6C7C198F24ABE9","d736bce5-9ed4-465c-b707-1a69dfd02d4d","58046770-4c03-4bc2-b4bc-e7359011db5d","","null","<div style=""display: flex; justify-content: center; align-items: center;"">
                <img src=""images/causal/causal_series_3/causal_series_3_a.jpg"" style=""width: 300px; height: 300px;"" />
              </div>","null",""
"","","","","","html-keyboard-response","108","319547","0.0-108.0","12D45106FC154102AB6C7C198F24ABE9","d736bce5-9ed4-465c-b707-1a69dfd02d4d","58046770-4c03-4bc2-b4bc-e7359011db5d","","null","<div style=""display: flex; justify-content: center; align-items: center;"">
                <img src=""images/causal/causal_series_3/causal_series_3_b.jpg"" style=""width: 300px; height: 300px;"" />
              </div>","null",""
"","","","","","html-keyboard-response","109","322555","0.0-109.0","12D45106FC154102AB6C7C198F24ABE9","d736bce5-9ed4-465c-b707-1a69dfd02d4d","58046770-4c03-4bc2-b4bc-e7359011db5d","","null","<div style=""display: flex; justify-content: center; align-items: center;"">
                <img src=""images/causal/causal_series_3/causal_series_3_c.jpg"" style=""width: 300px; height: 300px;"" />
              </div>","null",""
"","","","","","html-button-response","110","323910","0.0-110.0","12D45106FC154102AB6C7C198F24ABE9","d736bce5-9ed4-465c-b707-1a69dfd02d4d","58046770-4c03-4bc2-b4bc-e7359011db5d","","1352","
    <div style=""display: flex; justify-content: center; align-items: center;"">
      <img src=""images/red_deck_2.png"" style=""width: 300px; height: 300px; margin-right: 10px;"" />
      <img src=""images/blue_deck_1.png"" style=""width: 300px; height: 300px;"" />
    </div>","1","1"
"","","","","","html-keyboard-response","111","326913","0.0-111.0-1.0-0.0","12D45106FC154102AB6C7C198F24ABE9","d736bce5-9ed4-465c-b707-1a69dfd02d4d","58046770-4c03-4bc2-b4bc-e7359011db5d","","null","<div style=""display: flex; justify-content: center; align-items: center;"">
                <img src=""images/semantic/semantic_series_2/semantic_series_2_d.jpg"" style=""width: 300px; height: 300px;"" />
              </div>","null",""
"","","","","","html-keyboard-response","112","329918","0.0-112.0","12D45106FC154102AB6C7C198F24ABE9","d736bce5-9ed4-465c-b707-1a69dfd02d4d","58046770-4c03-4bc2-b4bc-e7359011db5d","","null","<div style=""display: flex; justify-content: center; align-items: center;"">
                <img src=""images/other/blank.jpg"" style=""width: 300px; height: 300px;"" />
              </div>","null",""
"","","","","","survey-text","113","339963","0.0-113.0","12D45106FC154102AB6C7C198F24ABE9","d736bce5-9ed4-465c-b707-1a69dfd02d4d","58046770-4c03-4bc2-b4bc-e7359011db5d","","10039","","{""Q0"":""no""}",""
"","","","","","survey-text","114","347049","0.0-114.0","12D45106FC154102AB6C7C198F24ABE9","d736bce5-9ed4-465c-b707-1a69dfd02d4d","58046770-4c03-4bc2-b4bc-e7359011db5d","","7083","","{""Q0"":""neither""}",""
"","","","","","html-button-response","115","363600","0.0-115.0","12D45106FC154102AB6C7C198F24ABE9","d736bce5-9ed4-465c-b707-1a69dfd02d4d","58046770-4c03-4bc2-b4bc-e7359011db5d","","16549","Which color deck does the fourth image continue the story from the series?","1",""
"","","","","","html-button-response","116","365690","0.0-116.0","12D45106FC154102AB6C7C198F24ABE9","d736bce5-9ed4-465c-b707-1a69dfd02d4d","58046770-4c03-4bc2-b4bc-e7359011db5d","","2088","Which color deck does the fourth image not follow the story from the series?","0",""
"","","","","","survey-text","117","374061","0.0-117.0","12D45106FC154102AB6C7C198F24ABE9","d736bce5-9ed4-465c-b707-1a69dfd02d4d","58046770-4c03-4bc2-b4bc-e7359011db5d","","8367","","{""Q0"":""female"",""Q1"":""31""}",""
"","","","","","instructions","118","379026","0.0-118.0","12D45106FC154102AB6C7C198F24ABE9","d736bce5-9ed4-465c-b707-1a69dfd02d4d","58046770-4c03-4bc2-b4bc-e7359011db5d","[{""page_index"":0,""viewing_time"":4964}]","4965","","",""
