"success","timeout","failed_images","failed_audio","failed_video","trial_type","trial_index","time_elapsed","internal_node_id","subject_id","study_id","session_id","view_history","rt","stimulus","response","choice"
"true","false","[]","[]","[]","preload","0","1136","0.0-0.0","9B773C6D2D5245669267511BB7CA8163","e1ab8038-8157-4bc7-8cdb-516942d78f4b","60874837-17fe-43d8-ba5e-75a805c652dd","","","","",""
"","","","","","instructions","1","2765","0.0-1.0","9B773C6D2D5245669267511BB7CA8163","e1ab8038-8157-4bc7-8cdb-516942d78f4b","60874837-17fe-43d8-ba5e-75a805c652dd","[{""page_index"":0,""viewing_time"":1627}]","1628","","",""
"","","","","","instructions","2","8292","0.0-2.0","9B773C6D2D5245669267511BB7CA8163","e1ab8038-8157-4bc7-8cdb-516942d78f4b","60874837-17fe-43d8-ba5e-75a805c652dd","[{""page_index"":0,""viewing_time"":5527}]","5527","","",""
"true","","","","","fullscreen","3","11230","0.0-3.0","9B773C6D2D5245669267511BB7CA8163","e1ab8038-8157-4bc7-8cdb-516942d78f4b","60874837-17fe-43d8-ba5e-75a805c652dd","","1935","","",""
"","","","","","instructions","4","14672","0.0-4.0","9B773C6D2D5245669267511BB7CA8163","e1ab8038-8157-4bc7-8cdb-516942d78f4b","60874837-17fe-43d8-ba5e-75a805c652dd","[{""page_index"":0,""viewing_time"":3441}]","3441","","",""
"","","","","","html-keyboard-response","5","17675","0.0-5.0","9B773C6D2D5245669267511BB7CA8163","e1ab8038-8157-4bc7-8cdb-516942d78f4b","60874837-17fe-43d8-ba5e-75a805c652dd","","null","<div style=""display: flex; justify-content: center; align-items: center;"">
                <img src=""images/causal/causal_series_8/causal_series_8_a.jpg"" style=""width: 300px; height: 300px;"" />
              </div>","null",""
"","","","","","html-keyboard-response","6","20677","0.0-6.0","9B773C6D2D5245669267511BB7CA8163","e1ab8038-8157-4bc7-8cdb-516942d78f4b","60874837-17fe-43d8-ba5e-75a805c652dd","","null","<div style=""display: flex; justify-content: center; align-items: center;"">
                <img src=""images/causal/causal_series_8/causal_series_8_b.jpg"" style=""width: 300px; height: 300px;"" />
              </div>","null",""
"","","","","","html-keyboard-response","7","23679","0.0-7.0","9B773C6D2D5245669267511BB7CA8163","e1ab8038-8157-4bc7-8cdb-516942d78f4b","60874837-17fe-43d8-ba5e-75a805c652dd","","null","<div style=""display: flex; justify-content: center; align-items: center;"">
                <img src=""images/causal/causal_series_8/causal_series_8_c.jpg"" style=""width: 300px; height: 300px;"" />
              </div>","null",""
"","","","","","html-button-response","8","25963","0.0-8.0","9B773C6D2D5245669267511BB7CA8163","e1ab8038-8157-4bc7-8cdb-516942d78f4b","60874837-17fe-43d8-ba5e-75a805c652dd","","2281","
    <div style=""display: flex; justify-content: center; align-items: center;"">
      <img src=""images/red_deck_2.png"" style=""width: 300px; height: 300px; margin-right: 10px;"" />
      <img src=""images/blue_deck_1.png"" style=""width: 300px; height: 300px;"" />
    </div>","1","1"
"","","","","","html-keyboard-response","9","28964","0.0-9.0-1.0-0.0","9B773C6D2D5245669267511BB7CA8163","e1ab8038-8157-4bc7-8cdb-516942d78f4b","60874837-17fe-43d8-ba5e-75a805c652dd","","null","<div style=""display: flex; justify-content: center; align-items: center;"">
                <img src=""images/semantic/semantic_series_7/semantic_series_7_d.jpg"" style=""width: 300px; height: 300px;"" />
              </div>","null",""
"","","","","","html-keyboard-response","10","31966","0.0-10.0","9B773C6D2D5245669267511BB7CA8163","e1ab8038-8157-4bc7-8cdb-516942d78f4b","60874837-17fe-43d8-ba5e-75a805c652dd","","null","<div style=""display: flex; justify-content: center; align-items: center;"">
                <img src=""images/other/blank.jpg"" style=""width: 300px; height: 300px;"" />
              </div>","null",""
"","","","","","html-keyboard-response","11","34967","0.0-11.0","9B773C6D2D5245669267511BB7CA8163","e1ab8038-8157-4bc7-8cdb-516942d78f4b","60874837-17fe-43d8-ba5e-75a805c652dd","","null","<div style=""display: flex; justify-content: center; align-items: center;"">
                <img src=""images/causal/causal_series_11/causal_series_11_a.jpg"" style=""width: 300px; height: 300px;"" />
              </div>","null",""
"","","","","","html-keyboard-response","12","37968","0.0-12.0","9B773C6D2D5245669267511BB7CA8163","e1ab8038-8157-4bc7-8cdb-516942d78f4b","60874837-17fe-43d8-ba5e-75a805c652dd","","null","<div style=""display: flex; justify-content: center; align-items: center;"">
                <img src=""images/causal/causal_series_11/causal_series_11_b.jpg"" style=""width: 300px; height: 300px;"" />
              </div>","null",""
"","","","","","html-keyboard-response","13","40970","0.0-13.0","9B773C6D2D5245669267511BB7CA8163","e1ab8038-8157-4bc7-8cdb-516942d78f4b","60874837-17fe-43d8-ba5e-75a805c652dd","","null","<div style=""display: flex; justify-content: center; align-items: center;"">
                <img src=""images/causal/causal_series_11/causal_series_11_c.jpg"" style=""width: 300px; height: 300px;"" />
              </div>","null",""
"","","","","","html-button-response","14","43026","0.0-14.0","9B773C6D2D5245669267511BB7CA8163","e1ab8038-8157-4bc7-8cdb-516942d78f4b","60874837-17fe-43d8-ba5e-75a805c652dd","","2055","
    <div style=""display: flex; justify-content: center; align-items: center;"">
      <img src=""images/red_deck_2.png"" style=""width: 300px; height: 300px; margin-right: 10px;"" />
      <img src=""images/blue_deck_1.png"" style=""width: 300px; height: 300px;"" />
    </div>","0","0"
"","","","","","html-keyboard-response","15","46027","0.0-15.0-0.0-0.0","9B773C6D2D5245669267511BB7CA8163","e1ab8038-8157-4bc7-8cdb-516942d78f4b","60874837-17fe-43d8-ba5e-75a805c652dd","","null","<div style=""display: flex; justify-content: center; align-items: center;"">
                <img src=""images/causal/causal_series_11/causal_series_11_d.jpg"" style=""width: 300px; height: 300px;"" />
              </div>","null",""
"","","","","","html-keyboard-response","16","49028","0.0-16.0","9B773C6D2D5245669267511BB7CA8163","e1ab8038-8157-4bc7-8cdb-516942d78f4b","60874837-17fe-43d8-ba5e-75a805c652dd","","null","<div style=""display: flex; justify-content: center; align-items: center;"">
                <img src=""images/other/blank.jpg"" style=""width: 300px; height: 300px;"" />
              </div>","null",""
"","","","","","html-keyboard-response","17","52030","0.0-17.0","9B773C6D2D5245669267511BB7CA8163","e1ab8038-8157-4bc7-8cdb-516942d78f4b","60874837-17fe-43d8-ba5e-75a805c652dd","","null","<div style=""display: flex; justify-content: center; align-items: center;"">
                <img src=""images/causal/causal_series_9/causal_series_9_a.jpg"" style=""width: 300px; height: 300px;"" />
              </div>","null",""
"","","","","","html-keyboard-response","18","55031","0.0-18.0","9B773C6D2D5245669267511BB7CA8163","e1ab8038-8157-4bc7-8cdb-516942d78f4b","60874837-17fe-43d8-ba5e-75a805c652dd","","null","<div style=""display: flex; justify-content: center; align-items: center;"">
                <img src=""images/causal/causal_series_9/causal_series_9_b.jpg"" style=""width: 300px; height: 300px;"" />
              </div>","null",""
"","","","","","html-keyboard-response","19","58033","0.0-19.0","9B773C6D2D5245669267511BB7CA8163","e1ab8038-8157-4bc7-8cdb-516942d78f4b","60874837-17fe-43d8-ba5e-75a805c652dd","","null","<div style=""display: flex; justify-content: center; align-items: center;"">
                <img src=""images/causal/causal_series_9/causal_series_9_c.jpg"" style=""width: 300px; height: 300px;"" />
              </div>","null",""
"","","","","","html-button-response","20","59280","0.0-20.0","9B773C6D2D5245669267511BB7CA8163","e1ab8038-8157-4bc7-8cdb-516942d78f4b","60874837-17fe-43d8-ba5e-75a805c652dd","","1245","
    <div style=""display: flex; justify-content: center; align-items: center;"">
      <img src=""images/red_deck_2.png"" style=""width: 300px; height: 300px; margin-right: 10px;"" />
      <img src=""images/blue_deck_1.png"" style=""width: 300px; height: 300px;"" />
    </div>","1","1"
"","","","","","html-keyboard-response","21","62281","0.0-21.0-1.0-0.0","9B773C6D2D5245669267511BB7CA8163","e1ab8038-8157-4bc7-8cdb-516942d78f4b","60874837-17fe-43d8-ba5e-75a805c652dd","","null","<div style=""display: flex; justify-content: center; align-items: center;"">
                <img src=""images/semantic/semantic_series_8/semantic_series_8_d.jpg"" style=""width: 300px; height: 300px;"" />
              </div>","null",""
"","","","","","html-keyboard-response","22","65282","0.0-22.0","9B773C6D2D5245669267511BB7CA8163","e1ab8038-8157-4bc7-8cdb-516942d78f4b","60874837-17fe-43d8-ba5e-75a805c652dd","","null","<div style=""display: flex; justify-content: center; align-items: center;"">
                <img src=""images/other/blank.jpg"" style=""width: 300px; height: 300px;"" />
              </div>","null",""
"","","","","","html-keyboard-response","23","68284","0.0-23.0","9B773C6D2D5245669267511BB7CA8163","e1ab8038-8157-4bc7-8cdb-516942d78f4b","60874837-17fe-43d8-ba5e-75a805c652dd","","null","<div style=""display: flex; justify-content: center; align-items: center;"">
                <img src=""images/causal/causal_series_12/causal_series_12_a.jpg"" style=""width: 300px; height: 300px;"" />
              </div>","null",""
"","","","","","html-keyboard-response","24","71285","0.0-24.0","9B773C6D2D5245669267511BB7CA8163","e1ab8038-8157-4bc7-8cdb-516942d78f4b","60874837-17fe-43d8-ba5e-75a805c652dd","","null","<div style=""display: flex; justify-content: center; align-items: center;"">
                <img src=""images/causal/causal_series_12/causal_series_12_b.jpg"" style=""width: 300px; height: 300px;"" />
              </div>","null",""
"","","","","","html-keyboard-response","25","74286","0.0-25.0","9B773C6D2D5245669267511BB7CA8163","e1ab8038-8157-4bc7-8cdb-516942d78f4b","60874837-17fe-43d8-ba5e-75a805c652dd","","null","<div style=""display: flex; justify-content: center; align-items: center;"">
                <img src=""images/causal/causal_series_12/causal_series_12_c.jpg"" style=""width: 300px; height: 300px;"" />
              </div>","null",""
"","","","","","html-button-response","26","75863","0.0-26.0","9B773C6D2D5245669267511BB7CA8163","e1ab8038-8157-4bc7-8cdb-516942d78f4b","60874837-17fe-43d8-ba5e-75a805c652dd","","1575","
    <div style=""display: flex; justify-content: center; align-items: center;"">
      <img src=""images/red_deck_2.png"" style=""width: 300px; height: 300px; margin-right: 10px;"" />
      <img src=""images/blue_deck_1.png"" style=""width: 300px; height: 300px;"" />
    </div>","0","0"
"","","","","","html-keyboard-response","27","78864","0.0-27.0-0.0-0.0","9B773C6D2D5245669267511BB7CA8163","e1ab8038-8157-4bc7-8cdb-516942d78f4b","60874837-17fe-43d8-ba5e-75a805c652dd","","null","<div style=""display: flex; justify-content: center; align-items: center;"">
                <img src=""images/causal/causal_series_12/causal_series_12_d.jpg"" style=""width: 300px; height: 300px;"" />
              </div>","null",""
"","","","","","html-keyboard-response","28","81865","0.0-28.0","9B773C6D2D5245669267511BB7CA8163","e1ab8038-8157-4bc7-8cdb-516942d78f4b","60874837-17fe-43d8-ba5e-75a805c652dd","","null","<div style=""display: flex; justify-content: center; align-items: center;"">
                <img src=""images/other/blank.jpg"" style=""width: 300px; height: 300px;"" />
              </div>","null",""
"","","","","","html-keyboard-response","29","84866","0.0-29.0","9B773C6D2D5245669267511BB7CA8163","e1ab8038-8157-4bc7-8cdb-516942d78f4b","60874837-17fe-43d8-ba5e-75a805c652dd","","null","<div style=""display: flex; justify-content: center; align-items: center;"">
                <img src=""images/causal/causal_series_7/causal_series_7_a.jpg"" style=""width: 300px; height: 300px;"" />
              </div>","null",""
"","","","","","html-keyboard-response","30","87868","0.0-30.0","9B773C6D2D5245669267511BB7CA8163","e1ab8038-8157-4bc7-8cdb-516942d78f4b","60874837-17fe-43d8-ba5e-75a805c652dd","","null","<div style=""display: flex; justify-content: center; align-items: center;"">
                <img src=""images/causal/causal_series_7/causal_series_7_b.jpg"" style=""width: 300px; height: 300px;"" />
              </div>","null",""
"","","","","","html-keyboard-response","31","90869","0.0-31.0","9B773C6D2D5245669267511BB7CA8163","e1ab8038-8157-4bc7-8cdb-516942d78f4b","60874837-17fe-43d8-ba5e-75a805c652dd","","null","<div style=""display: flex; justify-content: center; align-items: center;"">
                <img src=""images/causal/causal_series_7/causal_series_7_c.jpg"" style=""width: 300px; height: 300px;"" />
              </div>","null",""
"","","","","","html-button-response","32","92634","0.0-32.0","9B773C6D2D5245669267511BB7CA8163","e1ab8038-8157-4bc7-8cdb-516942d78f4b","60874837-17fe-43d8-ba5e-75a805c652dd","","1763","
    <div style=""display: flex; justify-content: center; align-items: center;"">
      <img src=""images/red_deck_2.png"" style=""width: 300px; height: 300px; margin-right: 10px;"" />
      <img src=""images/blue_deck_1.png"" style=""width: 300px; height: 300px;"" />
    </div>","0","0"
"","","","","","html-keyboard-response","33","95635","0.0-33.0-0.0-0.0","9B773C6D2D5245669267511BB7CA8163","e1ab8038-8157-4bc7-8cdb-516942d78f4b","60874837-17fe-43d8-ba5e-75a805c652dd","","null","<div style=""display: flex; justify-content: center; align-items: center;"">
                <img src=""images/causal/causal_series_7/causal_series_7_d.jpg"" style=""width: 300px; height: 300px;"" />
              </div>","null",""
"","","","","","html-keyboard-response","34","98639","0.0-34.0","9B773C6D2D5245669267511BB7CA8163","e1ab8038-8157-4bc7-8cdb-516942d78f4b","60874837-17fe-43d8-ba5e-75a805c652dd","","null","<div style=""display: flex; justify-content: center; align-items: center;"">
                <img src=""images/other/blank.jpg"" style=""width: 300px; height: 300px;"" />
              </div>","null",""
"","","","","","html-keyboard-response","35","101640","0.0-35.0","9B773C6D2D5245669267511BB7CA8163","e1ab8038-8157-4bc7-8cdb-516942d78f4b","60874837-17fe-43d8-ba5e-75a805c652dd","","null","<div style=""display: flex; justify-content: center; align-items: center;"">
                <img src=""images/causal/causal_series_10/causal_series_10_a.jpg"" style=""width: 300px; height: 300px;"" />
              </div>","null",""
"","","","","","html-keyboard-response","36","104642","0.0-36.0","9B773C6D2D5245669267511BB7CA8163","e1ab8038-8157-4bc7-8cdb-516942d78f4b","60874837-17fe-43d8-ba5e-75a805c652dd","","null","<div style=""display: flex; justify-content: center; align-items: center;"">
                <img src=""images/causal/causal_series_10/causal_series_10_b.jpg"" style=""width: 300px; height: 300px;"" />
              </div>","null",""
"","","","","","html-keyboard-response","37","107643","0.0-37.0","9B773C6D2D5245669267511BB7CA8163","e1ab8038-8157-4bc7-8cdb-516942d78f4b","60874837-17fe-43d8-ba5e-75a805c652dd","","null","<div style=""display: flex; justify-content: center; align-items: center;"">
                <img src=""images/causal/causal_series_10/causal_series_10_c.jpg"" style=""width: 300px; height: 300px;"" />
              </div>","null",""
"","","","","","html-button-response","38","109449","0.0-38.0","9B773C6D2D5245669267511BB7CA8163","e1ab8038-8157-4bc7-8cdb-516942d78f4b","60874837-17fe-43d8-ba5e-75a805c652dd","","1804","
    <div style=""display: flex; justify-content: center; align-items: center;"">
      <img src=""images/red_deck_2.png"" style=""width: 300px; height: 300px; margin-right: 10px;"" />
      <img src=""images/blue_deck_1.png"" style=""width: 300px; height: 300px;"" />
    </div>","0","0"
"","","","","","html-keyboard-response","39","112451","0.0-39.0-0.0-0.0","9B773C6D2D5245669267511BB7CA8163","e1ab8038-8157-4bc7-8cdb-516942d78f4b","60874837-17fe-43d8-ba5e-75a805c652dd","","null","<div style=""display: flex; justify-content: center; align-items: center;"">
                <img src=""images/causal/causal_series_10/causal_series_10_d.jpg"" style=""width: 300px; height: 300px;"" />
              </div>","null",""
"","","","","","html-keyboard-response","40","115453","0.0-40.0","9B773C6D2D5245669267511BB7CA8163","e1ab8038-8157-4bc7-8cdb-516942d78f4b","60874837-17fe-43d8-ba5e-75a805c652dd","","null","<div style=""display: flex; justify-content: center; align-items: center;"">
                <img src=""images/other/blank.jpg"" style=""width: 300px; height: 300px;"" />
              </div>","null",""
"","","","","","html-keyboard-response","41","118455","0.0-41.0","9B773C6D2D5245669267511BB7CA8163","e1ab8038-8157-4bc7-8cdb-516942d78f4b","60874837-17fe-43d8-ba5e-75a805c652dd","","null","<div style=""display: flex; justify-content: center; align-items: center;"">
                <img src=""images/causal/causal_series_18/causal_series_18_a.jpg"" style=""width: 300px; height: 300px;"" />
              </div>","null",""
"","","","","","html-keyboard-response","42","121456","0.0-42.0","9B773C6D2D5245669267511BB7CA8163","e1ab8038-8157-4bc7-8cdb-516942d78f4b","60874837-17fe-43d8-ba5e-75a805c652dd","","null","<div style=""display: flex; justify-content: center; align-items: center;"">
                <img src=""images/causal/causal_series_18/causal_series_18_b.jpg"" style=""width: 300px; height: 300px;"" />
              </div>","null",""
"","","","","","html-keyboard-response","43","124458","0.0-43.0","9B773C6D2D5245669267511BB7CA8163","e1ab8038-8157-4bc7-8cdb-516942d78f4b","60874837-17fe-43d8-ba5e-75a805c652dd","","null","<div style=""display: flex; justify-content: center; align-items: center;"">
                <img src=""images/causal/causal_series_18/causal_series_18_c.jpg"" style=""width: 300px; height: 300px;"" />
              </div>","null",""
"","","","","","html-button-response","44","125491","0.0-44.0","9B773C6D2D5245669267511BB7CA8163","e1ab8038-8157-4bc7-8cdb-516942d78f4b","60874837-17fe-43d8-ba5e-75a805c652dd","","1031","
    <div style=""display: flex; justify-content: center; align-items: center;"">
      <img src=""images/red_deck_2.png"" style=""width: 300px; height: 300px; margin-right: 10px;"" />
      <img src=""images/blue_deck_1.png"" style=""width: 300px; height: 300px;"" />
    </div>","0","0"
"","","","","","html-keyboard-response","45","128493","0.0-45.0-0.0-0.0","9B773C6D2D5245669267511BB7CA8163","e1ab8038-8157-4bc7-8cdb-516942d78f4b","60874837-17fe-43d8-ba5e-75a805c652dd","","null","<div style=""display: flex; justify-content: center; align-items: center;"">
                <img src=""images/causal/causal_series_18/causal_series_18_d.jpg"" style=""width: 300px; height: 300px;"" />
              </div>","null",""
"","","","","","html-keyboard-response","46","131495","0.0-46.0","9B773C6D2D5245669267511BB7CA8163","e1ab8038-8157-4bc7-8cdb-516942d78f4b","60874837-17fe-43d8-ba5e-75a805c652dd","","null","<div style=""display: flex; justify-content: center; align-items: center;"">
                <img src=""images/other/blank.jpg"" style=""width: 300px; height: 300px;"" />
              </div>","null",""
"","","","","","html-keyboard-response","47","134497","0.0-47.0","9B773C6D2D5245669267511BB7CA8163","e1ab8038-8157-4bc7-8cdb-516942d78f4b","60874837-17fe-43d8-ba5e-75a805c652dd","","null","<div style=""display: flex; justify-content: center; align-items: center;"">
                <img src=""images/causal/causal_series_6/causal_series_6_a.jpg"" style=""width: 300px; height: 300px;"" />
              </div>","null",""
"","","","","","html-keyboard-response","48","137499","0.0-48.0","9B773C6D2D5245669267511BB7CA8163","e1ab8038-8157-4bc7-8cdb-516942d78f4b","60874837-17fe-43d8-ba5e-75a805c652dd","","null","<div style=""display: flex; justify-content: center; align-items: center;"">
                <img src=""images/causal/causal_series_6/causal_series_6_b.jpg"" style=""width: 300px; height: 300px;"" />
              </div>","null",""
"","","","","","html-keyboard-response","49","140501","0.0-49.0","9B773C6D2D5245669267511BB7CA8163","e1ab8038-8157-4bc7-8cdb-516942d78f4b","60874837-17fe-43d8-ba5e-75a805c652dd","","null","<div style=""display: flex; justify-content: center; align-items: center;"">
                <img src=""images/causal/causal_series_6/causal_series_6_c.jpg"" style=""width: 300px; height: 300px;"" />
              </div>","null",""
"","","","","","html-button-response","50","142164","0.0-50.0","9B773C6D2D5245669267511BB7CA8163","e1ab8038-8157-4bc7-8cdb-516942d78f4b","60874837-17fe-43d8-ba5e-75a805c652dd","","1662","
    <div style=""display: flex; justify-content: center; align-items: center;"">
      <img src=""images/red_deck_2.png"" style=""width: 300px; height: 300px; margin-right: 10px;"" />
      <img src=""images/blue_deck_1.png"" style=""width: 300px; height: 300px;"" />
    </div>","0","0"
"","","","","","html-keyboard-response","51","145166","0.0-51.0-0.0-0.0","9B773C6D2D5245669267511BB7CA8163","e1ab8038-8157-4bc7-8cdb-516942d78f4b","60874837-17fe-43d8-ba5e-75a805c652dd","","null","<div style=""display: flex; justify-content: center; align-items: center;"">
                <img src=""images/causal/causal_series_6/causal_series_6_d.jpg"" style=""width: 300px; height: 300px;"" />
              </div>","null",""
"","","","","","html-keyboard-response","52","148167","0.0-52.0","9B773C6D2D5245669267511BB7CA8163","e1ab8038-8157-4bc7-8cdb-516942d78f4b","60874837-17fe-43d8-ba5e-75a805c652dd","","null","<div style=""display: flex; justify-content: center; align-items: center;"">
                <img src=""images/other/blank.jpg"" style=""width: 300px; height: 300px;"" />
              </div>","null",""
"","","","","","html-keyboard-response","53","151169","0.0-53.0","9B773C6D2D5245669267511BB7CA8163","e1ab8038-8157-4bc7-8cdb-516942d78f4b","60874837-17fe-43d8-ba5e-75a805c652dd","","null","<div style=""display: flex; justify-content: center; align-items: center;"">
                <img src=""images/causal/causal_series_16/causal_series_16_a.jpg"" style=""width: 300px; height: 300px;"" />
              </div>","null",""
"","","","","","html-keyboard-response","54","154171","0.0-54.0","9B773C6D2D5245669267511BB7CA8163","e1ab8038-8157-4bc7-8cdb-516942d78f4b","60874837-17fe-43d8-ba5e-75a805c652dd","","null","<div style=""display: flex; justify-content: center; align-items: center;"">
                <img src=""images/causal/causal_series_16/causal_series_16_b.jpg"" style=""width: 300px; height: 300px;"" />
              </div>","null",""
"","","","","","html-keyboard-response","55","157172","0.0-55.0","9B773C6D2D5245669267511BB7CA8163","e1ab8038-8157-4bc7-8cdb-516942d78f4b","60874837-17fe-43d8-ba5e-75a805c652dd","","null","<div style=""display: flex; justify-content: center; align-items: center;"">
                <img src=""images/causal/causal_series_16/causal_series_16_c.jpg"" style=""width: 300px; height: 300px;"" />
              </div>","null",""
"","","","","","html-button-response","56","158950","0.0-56.0","9B773C6D2D5245669267511BB7CA8163","e1ab8038-8157-4bc7-8cdb-516942d78f4b","60874837-17fe-43d8-ba5e-75a805c652dd","","1776","
    <div style=""display: flex; justify-content: center; align-items: center;"">
      <img src=""images/red_deck_2.png"" style=""width: 300px; height: 300px; margin-right: 10px;"" />
      <img src=""images/blue_deck_1.png"" style=""width: 300px; height: 300px;"" />
    </div>","0","0"
"","","","","","html-keyboard-response","57","161953","0.0-57.0-0.0-0.0","9B773C6D2D5245669267511BB7CA8163","e1ab8038-8157-4bc7-8cdb-516942d78f4b","60874837-17fe-43d8-ba5e-75a805c652dd","","null","<div style=""display: flex; justify-content: center; align-items: center;"">
                <img src=""images/causal/causal_series_16/causal_series_16_d.jpg"" style=""width: 300px; height: 300px;"" />
              </div>","null",""
"","","","","","html-keyboard-response","58","164954","0.0-58.0","9B773C6D2D5245669267511BB7CA8163","e1ab8038-8157-4bc7-8cdb-516942d78f4b","60874837-17fe-43d8-ba5e-75a805c652dd","","null","<div style=""display: flex; justify-content: center; align-items: center;"">
                <img src=""images/other/blank.jpg"" style=""width: 300px; height: 300px;"" />
              </div>","null",""
"","","","","","html-keyboard-response","59","167956","0.0-59.0","9B773C6D2D5245669267511BB7CA8163","e1ab8038-8157-4bc7-8cdb-516942d78f4b","60874837-17fe-43d8-ba5e-75a805c652dd","","null","<div style=""display: flex; justify-content: center; align-items: center;"">
                <img src=""images/causal/causal_series_4/causal_series_4_a.jpg"" style=""width: 300px; height: 300px;"" />
              </div>","null",""
"","","","","","html-keyboard-response","60","170957","0.0-60.0","9B773C6D2D5245669267511BB7CA8163","e1ab8038-8157-4bc7-8cdb-516942d78f4b","60874837-17fe-43d8-ba5e-75a805c652dd","","null","<div style=""display: flex; justify-content: center; align-items: center;"">
                <img src=""images/causal/causal_series_4/causal_series_4_b.jpg"" style=""width: 300px; height: 300px;"" />
              </div>","null",""
"","","","","","html-keyboard-response","61","173959","0.0-61.0","9B773C6D2D5245669267511BB7CA8163","e1ab8038-8157-4bc7-8cdb-516942d78f4b","60874837-17fe-43d8-ba5e-75a805c652dd","","null","<div style=""display: flex; justify-content: center; align-items: center;"">
                <img src=""images/causal/causal_series_4/causal_series_4_c.jpg"" style=""width: 300px; height: 300px;"" />
              </div>","null",""
"","","","","","html-button-response","62","175306","0.0-62.0","9B773C6D2D5245669267511BB7CA8163","e1ab8038-8157-4bc7-8cdb-516942d78f4b","60874837-17fe-43d8-ba5e-75a805c652dd","","1345","
    <div style=""display: flex; justify-content: center; align-items: center;"">
      <img src=""images/red_deck_2.png"" style=""width: 300px; height: 300px; margin-right: 10px;"" />
      <img src=""images/blue_deck_1.png"" style=""width: 300px; height: 300px;"" />
    </div>","0","0"
"","","","","","html-keyboard-response","63","178308","0.0-63.0-0.0-0.0","9B773C6D2D5245669267511BB7CA8163","e1ab8038-8157-4bc7-8cdb-516942d78f4b","60874837-17fe-43d8-ba5e-75a805c652dd","","null","<div style=""display: flex; justify-content: center; align-items: center;"">
                <img src=""images/causal/causal_series_4/causal_series_4_d.jpg"" style=""width: 300px; height: 300px;"" />
              </div>","null",""
"","","","","","html-keyboard-response","64","181309","0.0-64.0","9B773C6D2D5245669267511BB7CA8163","e1ab8038-8157-4bc7-8cdb-516942d78f4b","60874837-17fe-43d8-ba5e-75a805c652dd","","null","<div style=""display: flex; justify-content: center; align-items: center;"">
                <img src=""images/other/blank.jpg"" style=""width: 300px; height: 300px;"" />
              </div>","null",""
"","","","","","html-keyboard-response","65","184311","0.0-65.0","9B773C6D2D5245669267511BB7CA8163","e1ab8038-8157-4bc7-8cdb-516942d78f4b","60874837-17fe-43d8-ba5e-75a805c652dd","","null","<div style=""display: flex; justify-content: center; align-items: center;"">
                <img src=""images/causal/causal_series_3/causal_series_3_a.jpg"" style=""width: 300px; height: 300px;"" />
              </div>","null",""
"","","","","","html-keyboard-response","66","187312","0.0-66.0","9B773C6D2D5245669267511BB7CA8163","e1ab8038-8157-4bc7-8cdb-516942d78f4b","60874837-17fe-43d8-ba5e-75a805c652dd","","null","<div style=""display: flex; justify-content: center; align-items: center;"">
                <img src=""images/causal/causal_series_3/causal_series_3_b.jpg"" style=""width: 300px; height: 300px;"" />
              </div>","null",""
"","","","","","html-keyboard-response","67","190313","0.0-67.0","9B773C6D2D5245669267511BB7CA8163","e1ab8038-8157-4bc7-8cdb-516942d78f4b","60874837-17fe-43d8-ba5e-75a805c652dd","","null","<div style=""display: flex; justify-content: center; align-items: center;"">
                <img src=""images/causal/causal_series_3/causal_series_3_c.jpg"" style=""width: 300px; height: 300px;"" />
              </div>","null",""
"","","","","","html-button-response","68","191523","0.0-68.0","9B773C6D2D5245669267511BB7CA8163","e1ab8038-8157-4bc7-8cdb-516942d78f4b","60874837-17fe-43d8-ba5e-75a805c652dd","","1208","
    <div style=""display: flex; justify-content: center; align-items: center;"">
      <img src=""images/red_deck_2.png"" style=""width: 300px; height: 300px; margin-right: 10px;"" />
      <img src=""images/blue_deck_1.png"" style=""width: 300px; height: 300px;"" />
    </div>","0","0"
"","","","","","html-keyboard-response","69","194525","0.0-69.0-0.0-0.0","9B773C6D2D5245669267511BB7CA8163","e1ab8038-8157-4bc7-8cdb-516942d78f4b","60874837-17fe-43d8-ba5e-75a805c652dd","","null","<div style=""display: flex; justify-content: center; align-items: center;"">
                <img src=""images/causal/causal_series_3/causal_series_3_d.jpg"" style=""width: 300px; height: 300px;"" />
              </div>","null",""
"","","","","","html-keyboard-response","70","197527","0.0-70.0","9B773C6D2D5245669267511BB7CA8163","e1ab8038-8157-4bc7-8cdb-516942d78f4b","60874837-17fe-43d8-ba5e-75a805c652dd","","null","<div style=""display: flex; justify-content: center; align-items: center;"">
                <img src=""images/other/blank.jpg"" style=""width: 300px; height: 300px;"" />
              </div>","null",""
"","","","","","html-keyboard-response","71","200529","0.0-71.0","9B773C6D2D5245669267511BB7CA8163","e1ab8038-8157-4bc7-8cdb-516942d78f4b","60874837-17fe-43d8-ba5e-75a805c652dd","","null","<div style=""display: flex; justify-content: center; align-items: center;"">
                <img src=""images/causal/causal_series_2/causal_series_2_a.jpg"" style=""width: 300px; height: 300px;"" />
              </div>","null",""
"","","","","","html-keyboard-response","72","203531","0.0-72.0","9B773C6D2D5245669267511BB7CA8163","e1ab8038-8157-4bc7-8cdb-516942d78f4b","60874837-17fe-43d8-ba5e-75a805c652dd","","null","<div style=""display: flex; justify-content: center; align-items: center;"">
                <img src=""images/causal/causal_series_2/causal_series_2_b.jpg"" style=""width: 300px; height: 300px;"" />
              </div>","null",""
"","","","","","html-keyboard-response","73","206533","0.0-73.0","9B773C6D2D5245669267511BB7CA8163","e1ab8038-8157-4bc7-8cdb-516942d78f4b","60874837-17fe-43d8-ba5e-75a805c652dd","","null","<div style=""display: flex; justify-content: center; align-items: center;"">
                <img src=""images/causal/causal_series_2/causal_series_2_c.jpg"" style=""width: 300px; height: 300px;"" />
              </div>","null",""
"","","","","","html-button-response","74","208205","0.0-74.0","9B773C6D2D5245669267511BB7CA8163","e1ab8038-8157-4bc7-8cdb-516942d78f4b","60874837-17fe-43d8-ba5e-75a805c652dd","","1669","
    <div style=""display: flex; justify-content: center; align-items: center;"">
      <img src=""images/red_deck_2.png"" style=""width: 300px; height: 300px; margin-right: 10px;"" />
      <img src=""images/blue_deck_1.png"" style=""width: 300px; height: 300px;"" />
    </div>","1","1"
"","","","","","html-keyboard-response","75","211208","0.0-75.0-1.0-0.0","9B773C6D2D5245669267511BB7CA8163","e1ab8038-8157-4bc7-8cdb-516942d78f4b","60874837-17fe-43d8-ba5e-75a805c652dd","","null","<div style=""display: flex; justify-content: center; align-items: center;"">
                <img src=""images/semantic/semantic_series_1/semantic_series_1_d.jpg"" style=""width: 300px; height: 300px;"" />
              </div>","null",""
"","","","","","html-keyboard-response","76","214210","0.0-76.0","9B773C6D2D5245669267511BB7CA8163","e1ab8038-8157-4bc7-8cdb-516942d78f4b","60874837-17fe-43d8-ba5e-75a805c652dd","","null","<div style=""display: flex; justify-content: center; align-items: center;"">
                <img src=""images/other/blank.jpg"" style=""width: 300px; height: 300px;"" />
              </div>","null",""
"","","","","","html-keyboard-response","77","217211","0.0-77.0","9B773C6D2D5245669267511BB7CA8163","e1ab8038-8157-4bc7-8cdb-516942d78f4b","60874837-17fe-43d8-ba5e-75a805c652dd","","null","<div style=""display: flex; justify-content: center; align-items: center;"">
                <img src=""images/causal/causal_series_14/causal_series_14_a.jpg"" style=""width: 300px; height: 300px;"" />
              </div>","null",""
"","","","","","html-keyboard-response","78","220212","0.0-78.0","9B773C6D2D5245669267511BB7CA8163","e1ab8038-8157-4bc7-8cdb-516942d78f4b","60874837-17fe-43d8-ba5e-75a805c652dd","","null","<div style=""display: flex; justify-content: center; align-items: center;"">
                <img src=""images/causal/causal_series_14/causal_series_14_b.jpg"" style=""width: 300px; height: 300px;"" />
              </div>","null",""
"","","","","","html-keyboard-response","79","223214","0.0-79.0","9B773C6D2D5245669267511BB7CA8163","e1ab8038-8157-4bc7-8cdb-516942d78f4b","60874837-17fe-43d8-ba5e-75a805c652dd","","null","<div style=""display: flex; justify-content: center; align-items: center;"">
                <img src=""images/causal/causal_series_14/causal_series_14_c.jpg"" style=""width: 300px; height: 300px;"" />
              </div>","null",""
"","","","","","html-button-response","80","237436","0.0-80.0","9B773C6D2D5245669267511BB7CA8163","e1ab8038-8157-4bc7-8cdb-516942d78f4b","60874837-17fe-43d8-ba5e-75a805c652dd","","14221","
    <div style=""display: flex; justify-content: center; align-items: center;"">
      <img src=""images/red_deck_2.png"" style=""width: 300px; height: 300px; margin-right: 10px;"" />
      <img src=""images/blue_deck_1.png"" style=""width: 300px; height: 300px;"" />
    </div>","1","1"
"","","","","","html-keyboard-response","81","240437","0.0-81.0-1.0-0.0","9B773C6D2D5245669267511BB7CA8163","e1ab8038-8157-4bc7-8cdb-516942d78f4b","60874837-17fe-43d8-ba5e-75a805c652dd","","null","<div style=""display: flex; justify-content: center; align-items: center;"">
                <img src=""images/semantic/semantic_series_13/semantic_series_13_d.jpg"" style=""width: 300px; height: 300px;"" />
              </div>","null",""
"","","","","","html-keyboard-response","82","243438","0.0-82.0","9B773C6D2D5245669267511BB7CA8163","e1ab8038-8157-4bc7-8cdb-516942d78f4b","60874837-17fe-43d8-ba5e-75a805c652dd","","null","<div style=""display: flex; justify-content: center; align-items: center;"">
                <img src=""images/other/blank.jpg"" style=""width: 300px; height: 300px;"" />
              </div>","null",""
"","","","","","html-keyboard-response","83","246439","0.0-83.0","9B773C6D2D5245669267511BB7CA8163","e1ab8038-8157-4bc7-8cdb-516942d78f4b","60874837-17fe-43d8-ba5e-75a805c652dd","","null","<div style=""display: flex; justify-content: center; align-items: center;"">
                <img src=""images/causal/causal_series_1/causal_series_1_a.jpg"" style=""width: 300px; height: 300px;"" />
              </div>","null",""
"","","","","","html-keyboard-response","84","249441","0.0-84.0","9B773C6D2D5245669267511BB7CA8163","e1ab8038-8157-4bc7-8cdb-516942d78f4b","60874837-17fe-43d8-ba5e-75a805c652dd","","null","<div style=""display: flex; justify-content: center; align-items: center;"">
                <img src=""images/causal/causal_series_1/causal_series_1_b.jpg"" style=""width: 300px; height: 300px;"" />
              </div>","null",""
"","","","","","html-keyboard-response","85","252443","0.0-85.0","9B773C6D2D5245669267511BB7CA8163","e1ab8038-8157-4bc7-8cdb-516942d78f4b","60874837-17fe-43d8-ba5e-75a805c652dd","","null","<div style=""display: flex; justify-content: center; align-items: center;"">
                <img src=""images/causal/causal_series_1/causal_series_1_c.jpg"" style=""width: 300px; height: 300px;"" />
              </div>","null",""
"","","","","","html-button-response","86","253987","0.0-86.0","9B773C6D2D5245669267511BB7CA8163","e1ab8038-8157-4bc7-8cdb-516942d78f4b","60874837-17fe-43d8-ba5e-75a805c652dd","","1542","
    <div style=""display: flex; justify-content: center; align-items: center;"">
      <img src=""images/red_deck_2.png"" style=""width: 300px; height: 300px; margin-right: 10px;"" />
      <img src=""images/blue_deck_1.png"" style=""width: 300px; height: 300px;"" />
    </div>","1","1"
"","","","","","html-keyboard-response","87","256988","0.0-87.0-1.0-0.0","9B773C6D2D5245669267511BB7CA8163","e1ab8038-8157-4bc7-8cdb-516942d78f4b","60874837-17fe-43d8-ba5e-75a805c652dd","","null","<div style=""display: flex; justify-content: center; align-items: center;"">
                <img src=""images/semantic/semantic_series_18/semantic_series_18_d.jpg"" style=""width: 300px; height: 300px;"" />
              </div>","null",""
"","","","","","html-keyboard-response","88","259990","0.0-88.0","9B773C6D2D5245669267511BB7CA8163","e1ab8038-8157-4bc7-8cdb-516942d78f4b","60874837-17fe-43d8-ba5e-75a805c652dd","","null","<div style=""display: flex; justify-content: center; align-items: center;"">
                <img src=""images/other/blank.jpg"" style=""width: 300px; height: 300px;"" />
              </div>","null",""
"","","","","","html-keyboard-response","89","262992","0.0-89.0","9B773C6D2D5245669267511BB7CA8163","e1ab8038-8157-4bc7-8cdb-516942d78f4b","60874837-17fe-43d8-ba5e-75a805c652dd","","null","<div style=""display: flex; justify-content: center; align-items: center;"">
                <img src=""images/causal/causal_series_15/causal_series_15_a.jpg"" style=""width: 300px; height: 300px;"" />
              </div>","null",""
"","","","","","html-keyboard-response","90","265993","0.0-90.0","9B773C6D2D5245669267511BB7CA8163","e1ab8038-8157-4bc7-8cdb-516942d78f4b","60874837-17fe-43d8-ba5e-75a805c652dd","","null","<div style=""display: flex; justify-content: center; align-items: center;"">
                <img src=""images/causal/causal_series_15/causal_series_15_b.jpg"" style=""width: 300px; height: 300px;"" />
              </div>","null",""
"","","","","","html-keyboard-response","91","268994","0.0-91.0","9B773C6D2D5245669267511BB7CA8163","e1ab8038-8157-4bc7-8cdb-516942d78f4b","60874837-17fe-43d8-ba5e-75a805c652dd","","null","<div style=""display: flex; justify-content: center; align-items: center;"">
                <img src=""images/causal/causal_series_15/causal_series_15_c.jpg"" style=""width: 300px; height: 300px;"" />
              </div>","null",""
"","","","","","html-button-response","92","270393","0.0-92.0","9B773C6D2D5245669267511BB7CA8163","e1ab8038-8157-4bc7-8cdb-516942d78f4b","60874837-17fe-43d8-ba5e-75a805c652dd","","1397","
    <div style=""display: flex; justify-content: center; align-items: center;"">
      <img src=""images/red_deck_2.png"" style=""width: 300px; height: 300px; margin-right: 10px;"" />
      <img src=""images/blue_deck_1.png"" style=""width: 300px; height: 300px;"" />
    </div>","1","1"
"","","","","","html-keyboard-response","93","273395","0.0-93.0-1.0-0.0","9B773C6D2D5245669267511BB7CA8163","e1ab8038-8157-4bc7-8cdb-516942d78f4b","60874837-17fe-43d8-ba5e-75a805c652dd","","null","<div style=""display: flex; justify-content: center; align-items: center;"">
                <img src=""images/semantic/semantic_series_14/semantic_series_14_d.jpg"" style=""width: 300px; height: 300px;"" />
              </div>","null",""
"","","","","","html-keyboard-response","94","276397","0.0-94.0","9B773C6D2D5245669267511BB7CA8163","e1ab8038-8157-4bc7-8cdb-516942d78f4b","60874837-17fe-43d8-ba5e-75a805c652dd","","null","<div style=""display: flex; justify-content: center; align-items: center;"">
                <img src=""images/other/blank.jpg"" style=""width: 300px; height: 300px;"" />
              </div>","null",""
"","","","","","html-keyboard-response","95","279398","0.0-95.0","9B773C6D2D5245669267511BB7CA8163","e1ab8038-8157-4bc7-8cdb-516942d78f4b","60874837-17fe-43d8-ba5e-75a805c652dd","","null","<div style=""display: flex; justify-content: center; align-items: center;"">
                <img src=""images/causal/causal_series_5/causal_series_5_a.jpg"" style=""width: 300px; height: 300px;"" />
              </div>","null",""
"","","","","","html-keyboard-response","96","282400","0.0-96.0","9B773C6D2D5245669267511BB7CA8163","e1ab8038-8157-4bc7-8cdb-516942d78f4b","60874837-17fe-43d8-ba5e-75a805c652dd","","null","<div style=""display: flex; justify-content: center; align-items: center;"">
                <img src=""images/causal/causal_series_5/causal_series_5_b.jpg"" style=""width: 300px; height: 300px;"" />
              </div>","null",""
"","","","","","html-keyboard-response","97","285401","0.0-97.0","9B773C6D2D5245669267511BB7CA8163","e1ab8038-8157-4bc7-8cdb-516942d78f4b","60874837-17fe-43d8-ba5e-75a805c652dd","","null","<div style=""display: flex; justify-content: center; align-items: center;"">
                <img src=""images/causal/causal_series_5/causal_series_5_c.jpg"" style=""width: 300px; height: 300px;"" />
              </div>","null",""
"","","","","","html-button-response","98","288666","0.0-98.0","9B773C6D2D5245669267511BB7CA8163","e1ab8038-8157-4bc7-8cdb-516942d78f4b","60874837-17fe-43d8-ba5e-75a805c652dd","","3264","
    <div style=""display: flex; justify-content: center; align-items: center;"">
      <img src=""images/red_deck_2.png"" style=""width: 300px; height: 300px; margin-right: 10px;"" />
      <img src=""images/blue_deck_1.png"" style=""width: 300px; height: 300px;"" />
    </div>","1","1"
"","","","","","html-keyboard-response","99","291667","0.0-99.0-1.0-0.0","9B773C6D2D5245669267511BB7CA8163","e1ab8038-8157-4bc7-8cdb-516942d78f4b","60874837-17fe-43d8-ba5e-75a805c652dd","","null","<div style=""display: flex; justify-content: center; align-items: center;"">
                <img src=""images/semantic/semantic_series_4/semantic_series_4_d.jpg"" style=""width: 300px; height: 300px;"" />
              </div>","null",""
"","","","","","html-keyboard-response","100","294669","0.0-100.0","9B773C6D2D5245669267511BB7CA8163","e1ab8038-8157-4bc7-8cdb-516942d78f4b","60874837-17fe-43d8-ba5e-75a805c652dd","","null","<div style=""display: flex; justify-content: center; align-items: center;"">
                <img src=""images/other/blank.jpg"" style=""width: 300px; height: 300px;"" />
              </div>","null",""
"","","","","","html-keyboard-response","101","297671","0.0-101.0","9B773C6D2D5245669267511BB7CA8163","e1ab8038-8157-4bc7-8cdb-516942d78f4b","60874837-17fe-43d8-ba5e-75a805c652dd","","null","<div style=""display: flex; justify-content: center; align-items: center;"">
                <img src=""images/causal/causal_series_17/causal_series_17_a.jpg"" style=""width: 300px; height: 300px;"" />
              </div>","null",""
"","","","","","html-keyboard-response","102","300673","0.0-102.0","9B773C6D2D5245669267511BB7CA8163","e1ab8038-8157-4bc7-8cdb-516942d78f4b","60874837-17fe-43d8-ba5e-75a805c652dd","","null","<div style=""display: flex; justify-content: center; align-items: center;"">
                <img src=""images/causal/causal_series_17/causal_series_17_b.jpg"" style=""width: 300px; height: 300px;"" />
              </div>","null",""
"","","","","","html-keyboard-response","103","303674","0.0-103.0","9B773C6D2D5245669267511BB7CA8163","e1ab8038-8157-4bc7-8cdb-516942d78f4b","60874837-17fe-43d8-ba5e-75a805c652dd","","null","<div style=""display: flex; justify-content: center; align-items: center;"">
                <img src=""images/causal/causal_series_17/causal_series_17_c.jpg"" style=""width: 300px; height: 300px;"" />
              </div>","null",""
"","","","","","html-button-response","104","311940","0.0-104.0","9B773C6D2D5245669267511BB7CA8163","e1ab8038-8157-4bc7-8cdb-516942d78f4b","60874837-17fe-43d8-ba5e-75a805c652dd","","8264","
    <div style=""display: flex; justify-content: center; align-items: center;"">
      <img src=""images/red_deck_2.png"" style=""width: 300px; height: 300px; margin-right: 10px;"" />
      <img src=""images/blue_deck_1.png"" style=""width: 300px; height: 300px;"" />
    </div>","1","1"
"","","","","","html-keyboard-response","105","314942","0.0-105.0-1.0-0.0","9B773C6D2D5245669267511BB7CA8163","e1ab8038-8157-4bc7-8cdb-516942d78f4b","60874837-17fe-43d8-ba5e-75a805c652dd","","null","<div style=""display: flex; justify-content: center; align-items: center;"">
                <img src=""images/semantic/semantic_series_16/semantic_series_16_d.jpg"" style=""width: 300px; height: 300px;"" />
              </div>","null",""
"","","","","","html-keyboard-response","106","317944","0.0-106.0","9B773C6D2D5245669267511BB7CA8163","e1ab8038-8157-4bc7-8cdb-516942d78f4b","60874837-17fe-43d8-ba5e-75a805c652dd","","null","<div style=""display: flex; justify-content: center; align-items: center;"">
                <img src=""images/other/blank.jpg"" style=""width: 300px; height: 300px;"" />
              </div>","null",""
"","","","","","html-keyboard-response","107","320947","0.0-107.0","9B773C6D2D5245669267511BB7CA8163","e1ab8038-8157-4bc7-8cdb-516942d78f4b","60874837-17fe-43d8-ba5e-75a805c652dd","","null","<div style=""display: flex; justify-content: center; align-items: center;"">
                <img src=""images/causal/causal_series_13/causal_series_13_a.jpg"" style=""width: 300px; height: 300px;"" />
              </div>","null",""
"","","","","","html-keyboard-response","108","323950","0.0-108.0","9B773C6D2D5245669267511BB7CA8163","e1ab8038-8157-4bc7-8cdb-516942d78f4b","60874837-17fe-43d8-ba5e-75a805c652dd","","null","<div style=""display: flex; justify-content: center; align-items: center;"">
                <img src=""images/causal/causal_series_13/causal_series_13_b.jpg"" style=""width: 300px; height: 300px;"" />
              </div>","null",""
"","","","","","html-keyboard-response","109","326952","0.0-109.0","9B773C6D2D5245669267511BB7CA8163","e1ab8038-8157-4bc7-8cdb-516942d78f4b","60874837-17fe-43d8-ba5e-75a805c652dd","","null","<div style=""display: flex; justify-content: center; align-items: center;"">
                <img src=""images/causal/causal_series_13/causal_series_13_c.jpg"" style=""width: 300px; height: 300px;"" />
              </div>","null",""
"","","","","","html-button-response","110","328414","0.0-110.0","9B773C6D2D5245669267511BB7CA8163","e1ab8038-8157-4bc7-8cdb-516942d78f4b","60874837-17fe-43d8-ba5e-75a805c652dd","","1461","
    <div style=""display: flex; justify-content: center; align-items: center;"">
      <img src=""images/red_deck_2.png"" style=""width: 300px; height: 300px; margin-right: 10px;"" />
      <img src=""images/blue_deck_1.png"" style=""width: 300px; height: 300px;"" />
    </div>","1","1"
"","","","","","html-keyboard-response","111","331416","0.0-111.0-1.0-0.0","9B773C6D2D5245669267511BB7CA8163","e1ab8038-8157-4bc7-8cdb-516942d78f4b","60874837-17fe-43d8-ba5e-75a805c652dd","","null","<div style=""display: flex; justify-content: center; align-items: center;"">
                <img src=""images/semantic/semantic_series_12/semantic_series_12_d.jpg"" style=""width: 300px; height: 300px;"" />
              </div>","null",""
"","","","","","html-keyboard-response","112","334418","0.0-112.0","9B773C6D2D5245669267511BB7CA8163","e1ab8038-8157-4bc7-8cdb-516942d78f4b","60874837-17fe-43d8-ba5e-75a805c652dd","","null","<div style=""display: flex; justify-content: center; align-items: center;"">
                <img src=""images/other/blank.jpg"" style=""width: 300px; height: 300px;"" />
              </div>","null",""
"","","","","","survey-text","113","353777","0.0-113.0","9B773C6D2D5245669267511BB7CA8163","e1ab8038-8157-4bc7-8cdb-516942d78f4b","60874837-17fe-43d8-ba5e-75a805c652dd","","19352","","{""Q0"":""one seemed to be criminal things and the other wasnt""}",""
"","","","","","survey-text","114","359553","0.0-114.0","9B773C6D2D5245669267511BB7CA8163","e1ab8038-8157-4bc7-8cdb-516942d78f4b","60874837-17fe-43d8-ba5e-75a805c652dd","","5773","","{""Q0"":""both""}",""
"","","","","","html-button-response","115","369273","0.0-115.0","9B773C6D2D5245669267511BB7CA8163","e1ab8038-8157-4bc7-8cdb-516942d78f4b","60874837-17fe-43d8-ba5e-75a805c652dd","","9719","Which color deck does the fourth image continue the story from the series?","1",""
"","","","","","html-button-response","116","371302","0.0-116.0","9B773C6D2D5245669267511BB7CA8163","e1ab8038-8157-4bc7-8cdb-516942d78f4b","60874837-17fe-43d8-ba5e-75a805c652dd","","2027","Which color deck does the fourth image not follow the story from the series?","0",""
"","","","","","survey-text","117","377342","0.0-117.0","9B773C6D2D5245669267511BB7CA8163","e1ab8038-8157-4bc7-8cdb-516942d78f4b","60874837-17fe-43d8-ba5e-75a805c652dd","","6037","","{""Q0"":""MALE"",""Q1"":""30""}",""
"","","","","","instructions","118","378585","0.0-118.0","9B773C6D2D5245669267511BB7CA8163","e1ab8038-8157-4bc7-8cdb-516942d78f4b","60874837-17fe-43d8-ba5e-75a805c652dd","[{""page_index"":0,""viewing_time"":1242}]","1242","","",""
