"success","timeout","failed_images","failed_audio","failed_video","trial_type","trial_index","time_elapsed","internal_node_id","subject_id","study_id","session_id","view_history","rt","stimulus","response","choice"
"true","false","[]","[]","[]","preload","0","40673","0.0-0.0","4420EF8FD78F4FE5AF6D08B12564F93A","589ffdc2-bada-440e-bf6b-a1e7f6c58c21","e73ede5c-88cf-40f6-bd80-a9f952b58684","","","","",""
"","","","","","instructions","1","369561","0.0-1.0","4420EF8FD78F4FE5AF6D08B12564F93A","589ffdc2-bada-440e-bf6b-a1e7f6c58c21","e73ede5c-88cf-40f6-bd80-a9f952b58684","[{""page_index"":0,""viewing_time"":328887}]","328888","","",""
"","","","","","instructions","2","382533","0.0-2.0","4420EF8FD78F4FE5AF6D08B12564F93A","589ffdc2-bada-440e-bf6b-a1e7f6c58c21","e73ede5c-88cf-40f6-bd80-a9f952b58684","[{""page_index"":0,""viewing_time"":12971}]","12971","","",""
"true","","","","","fullscreen","3","386898","0.0-3.0","4420EF8FD78F4FE5AF6D08B12564F93A","589ffdc2-bada-440e-bf6b-a1e7f6c58c21","e73ede5c-88cf-40f6-bd80-a9f952b58684","","3349","","",""
"","","","","","instructions","4","401764","0.0-4.0","4420EF8FD78F4FE5AF6D08B12564F93A","589ffdc2-bada-440e-bf6b-a1e7f6c58c21","e73ede5c-88cf-40f6-bd80-a9f952b58684","[{""page_index"":0,""viewing_time"":14866}]","14866","","",""
"","","","","","html-keyboard-response","5","405769","0.0-5.0","4420EF8FD78F4FE5AF6D08B12564F93A","589ffdc2-bada-440e-bf6b-a1e7f6c58c21","e73ede5c-88cf-40f6-bd80-a9f952b58684","","null","<div style=""display: flex; justify-content: center; align-items: center;"">
                <img src=""images/causal/causal_series_12/causal_series_12_a.jpg"" style=""width: 300px; height: 300px;"" />
              </div>","null",""
"","","","","","html-keyboard-response","6","409775","0.0-6.0","4420EF8FD78F4FE5AF6D08B12564F93A","589ffdc2-bada-440e-bf6b-a1e7f6c58c21","e73ede5c-88cf-40f6-bd80-a9f952b58684","","null","<div style=""display: flex; justify-content: center; align-items: center;"">
                <img src=""images/causal/causal_series_12/causal_series_12_b.jpg"" style=""width: 300px; height: 300px;"" />
              </div>","null",""
"","","","","","html-keyboard-response","7","413785","0.0-7.0","4420EF8FD78F4FE5AF6D08B12564F93A","589ffdc2-bada-440e-bf6b-a1e7f6c58c21","e73ede5c-88cf-40f6-bd80-a9f952b58684","","null","<div style=""display: flex; justify-content: center; align-items: center;"">
                <img src=""images/causal/causal_series_12/causal_series_12_c.jpg"" style=""width: 300px; height: 300px;"" />
              </div>","null",""
"","","","","","html-button-response","8","415975","0.0-8.0","4420EF8FD78F4FE5AF6D08B12564F93A","589ffdc2-bada-440e-bf6b-a1e7f6c58c21","e73ede5c-88cf-40f6-bd80-a9f952b58684","","2189","
    <div style=""display: flex; justify-content: center; align-items: center;"">
      <img src=""images/blue_deck_1.png"" style=""width: 300px; height: 300px; margin-right: 10px;"" />
      <img src=""images/red_deck_2.png"" style=""width: 300px; height: 300px;"" />
    </div>","1","1"
"","","","","","html-keyboard-response","9","419977","0.0-9.0-1.0-0.0","4420EF8FD78F4FE5AF6D08B12564F93A","589ffdc2-bada-440e-bf6b-a1e7f6c58c21","e73ede5c-88cf-40f6-bd80-a9f952b58684","","null","<div style=""display: flex; justify-content: center; align-items: center;"">
                <img src=""images/semantic/semantic_series_12/semantic_series_12_d.jpg"" style=""width: 300px; height: 300px;"" />
              </div>","null",""
"","","","","","html-keyboard-response","10","423977","0.0-10.0","4420EF8FD78F4FE5AF6D08B12564F93A","589ffdc2-bada-440e-bf6b-a1e7f6c58c21","e73ede5c-88cf-40f6-bd80-a9f952b58684","","null","<div style=""display: flex; justify-content: center; align-items: center;"">
                <img src=""images/other/blank.jpg"" style=""width: 300px; height: 300px;"" />
              </div>","null",""
"","","","","","html-keyboard-response","11","427991","0.0-11.0","4420EF8FD78F4FE5AF6D08B12564F93A","589ffdc2-bada-440e-bf6b-a1e7f6c58c21","e73ede5c-88cf-40f6-bd80-a9f952b58684","","null","<div style=""display: flex; justify-content: center; align-items: center;"">
                <img src=""images/causal/causal_series_2/causal_series_2_a.jpg"" style=""width: 300px; height: 300px;"" />
              </div>","null",""
"","","","","","html-keyboard-response","12","431995","0.0-12.0","4420EF8FD78F4FE5AF6D08B12564F93A","589ffdc2-bada-440e-bf6b-a1e7f6c58c21","e73ede5c-88cf-40f6-bd80-a9f952b58684","","null","<div style=""display: flex; justify-content: center; align-items: center;"">
                <img src=""images/causal/causal_series_2/causal_series_2_b.jpg"" style=""width: 300px; height: 300px;"" />
              </div>","null",""
"","","","","","html-keyboard-response","13","435997","0.0-13.0","4420EF8FD78F4FE5AF6D08B12564F93A","589ffdc2-bada-440e-bf6b-a1e7f6c58c21","e73ede5c-88cf-40f6-bd80-a9f952b58684","","null","<div style=""display: flex; justify-content: center; align-items: center;"">
                <img src=""images/causal/causal_series_2/causal_series_2_c.jpg"" style=""width: 300px; height: 300px;"" />
              </div>","null",""
"","","","","","html-button-response","14","437667","0.0-14.0","4420EF8FD78F4FE5AF6D08B12564F93A","589ffdc2-bada-440e-bf6b-a1e7f6c58c21","e73ede5c-88cf-40f6-bd80-a9f952b58684","","1670","
    <div style=""display: flex; justify-content: center; align-items: center;"">
      <img src=""images/blue_deck_1.png"" style=""width: 300px; height: 300px; margin-right: 10px;"" />
      <img src=""images/red_deck_2.png"" style=""width: 300px; height: 300px;"" />
    </div>","0","0"
"","","","","","html-keyboard-response","15","441674","0.0-15.0-0.0-0.0","4420EF8FD78F4FE5AF6D08B12564F93A","589ffdc2-bada-440e-bf6b-a1e7f6c58c21","e73ede5c-88cf-40f6-bd80-a9f952b58684","","null","<div style=""display: flex; justify-content: center; align-items: center;"">
                <img src=""images/causal/causal_series_2/causal_series_2_d.jpg"" style=""width: 300px; height: 300px;"" />
              </div>","null",""
"","","","","","html-keyboard-response","16","445685","0.0-16.0","4420EF8FD78F4FE5AF6D08B12564F93A","589ffdc2-bada-440e-bf6b-a1e7f6c58c21","e73ede5c-88cf-40f6-bd80-a9f952b58684","","null","<div style=""display: flex; justify-content: center; align-items: center;"">
                <img src=""images/other/blank.jpg"" style=""width: 300px; height: 300px;"" />
              </div>","null",""
"","","","","","html-keyboard-response","17","449694","0.0-17.0","4420EF8FD78F4FE5AF6D08B12564F93A","589ffdc2-bada-440e-bf6b-a1e7f6c58c21","e73ede5c-88cf-40f6-bd80-a9f952b58684","","null","<div style=""display: flex; justify-content: center; align-items: center;"">
                <img src=""images/causal/causal_series_11/causal_series_11_a.jpg"" style=""width: 300px; height: 300px;"" />
              </div>","null",""
"","","","","","html-keyboard-response","18","453697","0.0-18.0","4420EF8FD78F4FE5AF6D08B12564F93A","589ffdc2-bada-440e-bf6b-a1e7f6c58c21","e73ede5c-88cf-40f6-bd80-a9f952b58684","","null","<div style=""display: flex; justify-content: center; align-items: center;"">
                <img src=""images/causal/causal_series_11/causal_series_11_b.jpg"" style=""width: 300px; height: 300px;"" />
              </div>","null",""
"","","","","","html-keyboard-response","19","457703","0.0-19.0","4420EF8FD78F4FE5AF6D08B12564F93A","589ffdc2-bada-440e-bf6b-a1e7f6c58c21","e73ede5c-88cf-40f6-bd80-a9f952b58684","","null","<div style=""display: flex; justify-content: center; align-items: center;"">
                <img src=""images/causal/causal_series_11/causal_series_11_c.jpg"" style=""width: 300px; height: 300px;"" />
              </div>","null",""
"","","","","","html-button-response","20","459386","0.0-20.0","4420EF8FD78F4FE5AF6D08B12564F93A","589ffdc2-bada-440e-bf6b-a1e7f6c58c21","e73ede5c-88cf-40f6-bd80-a9f952b58684","","1682","
    <div style=""display: flex; justify-content: center; align-items: center;"">
      <img src=""images/blue_deck_1.png"" style=""width: 300px; height: 300px; margin-right: 10px;"" />
      <img src=""images/red_deck_2.png"" style=""width: 300px; height: 300px;"" />
    </div>","0","0"
"","","","","","html-keyboard-response","21","463400","0.0-21.0-0.0-0.0","4420EF8FD78F4FE5AF6D08B12564F93A","589ffdc2-bada-440e-bf6b-a1e7f6c58c21","e73ede5c-88cf-40f6-bd80-a9f952b58684","","null","<div style=""display: flex; justify-content: center; align-items: center;"">
                <img src=""images/causal/causal_series_11/causal_series_11_d.jpg"" style=""width: 300px; height: 300px;"" />
              </div>","null",""
"","","","","","html-keyboard-response","22","467410","0.0-22.0","4420EF8FD78F4FE5AF6D08B12564F93A","589ffdc2-bada-440e-bf6b-a1e7f6c58c21","e73ede5c-88cf-40f6-bd80-a9f952b58684","","null","<div style=""display: flex; justify-content: center; align-items: center;"">
                <img src=""images/other/blank.jpg"" style=""width: 300px; height: 300px;"" />
              </div>","null",""
"","","","","","html-keyboard-response","23","471416","0.0-23.0","4420EF8FD78F4FE5AF6D08B12564F93A","589ffdc2-bada-440e-bf6b-a1e7f6c58c21","e73ede5c-88cf-40f6-bd80-a9f952b58684","","null","<div style=""display: flex; justify-content: center; align-items: center;"">
                <img src=""images/causal/causal_series_6/causal_series_6_a.jpg"" style=""width: 300px; height: 300px;"" />
              </div>","null",""
"","","","","","html-keyboard-response","24","475424","0.0-24.0","4420EF8FD78F4FE5AF6D08B12564F93A","589ffdc2-bada-440e-bf6b-a1e7f6c58c21","e73ede5c-88cf-40f6-bd80-a9f952b58684","","null","<div style=""display: flex; justify-content: center; align-items: center;"">
                <img src=""images/causal/causal_series_6/causal_series_6_b.jpg"" style=""width: 300px; height: 300px;"" />
              </div>","null",""
"","","","","","html-keyboard-response","25","479426","0.0-25.0","4420EF8FD78F4FE5AF6D08B12564F93A","589ffdc2-bada-440e-bf6b-a1e7f6c58c21","e73ede5c-88cf-40f6-bd80-a9f952b58684","","null","<div style=""display: flex; justify-content: center; align-items: center;"">
                <img src=""images/causal/causal_series_6/causal_series_6_c.jpg"" style=""width: 300px; height: 300px;"" />
              </div>","null",""
"","","","","","html-button-response","26","480659","0.0-26.0","4420EF8FD78F4FE5AF6D08B12564F93A","589ffdc2-bada-440e-bf6b-a1e7f6c58c21","e73ede5c-88cf-40f6-bd80-a9f952b58684","","1231","
    <div style=""display: flex; justify-content: center; align-items: center;"">
      <img src=""images/blue_deck_1.png"" style=""width: 300px; height: 300px; margin-right: 10px;"" />
      <img src=""images/red_deck_2.png"" style=""width: 300px; height: 300px;"" />
    </div>","1","1"
"","","","","","html-keyboard-response","27","484669","0.0-27.0-1.0-0.0","4420EF8FD78F4FE5AF6D08B12564F93A","589ffdc2-bada-440e-bf6b-a1e7f6c58c21","e73ede5c-88cf-40f6-bd80-a9f952b58684","","null","<div style=""display: flex; justify-content: center; align-items: center;"">
                <img src=""images/semantic/semantic_series_6/semantic_series_6_d.jpg"" style=""width: 300px; height: 300px;"" />
              </div>","null",""
"","","","","","html-keyboard-response","28","488683","0.0-28.0","4420EF8FD78F4FE5AF6D08B12564F93A","589ffdc2-bada-440e-bf6b-a1e7f6c58c21","e73ede5c-88cf-40f6-bd80-a9f952b58684","","null","<div style=""display: flex; justify-content: center; align-items: center;"">
                <img src=""images/other/blank.jpg"" style=""width: 300px; height: 300px;"" />
              </div>","null",""
"","","","","","html-keyboard-response","29","492700","0.0-29.0","4420EF8FD78F4FE5AF6D08B12564F93A","589ffdc2-bada-440e-bf6b-a1e7f6c58c21","e73ede5c-88cf-40f6-bd80-a9f952b58684","","null","<div style=""display: flex; justify-content: center; align-items: center;"">
                <img src=""images/causal/causal_series_18/causal_series_18_a.jpg"" style=""width: 300px; height: 300px;"" />
              </div>","null",""
"","","","","","html-keyboard-response","30","496706","0.0-30.0","4420EF8FD78F4FE5AF6D08B12564F93A","589ffdc2-bada-440e-bf6b-a1e7f6c58c21","e73ede5c-88cf-40f6-bd80-a9f952b58684","","null","<div style=""display: flex; justify-content: center; align-items: center;"">
                <img src=""images/causal/causal_series_18/causal_series_18_b.jpg"" style=""width: 300px; height: 300px;"" />
              </div>","null",""
"","","","","","html-keyboard-response","31","500716","0.0-31.0","4420EF8FD78F4FE5AF6D08B12564F93A","589ffdc2-bada-440e-bf6b-a1e7f6c58c21","e73ede5c-88cf-40f6-bd80-a9f952b58684","","null","<div style=""display: flex; justify-content: center; align-items: center;"">
                <img src=""images/causal/causal_series_18/causal_series_18_c.jpg"" style=""width: 300px; height: 300px;"" />
              </div>","null",""
"","","","","","html-button-response","32","501840","0.0-32.0","4420EF8FD78F4FE5AF6D08B12564F93A","589ffdc2-bada-440e-bf6b-a1e7f6c58c21","e73ede5c-88cf-40f6-bd80-a9f952b58684","","1124","
    <div style=""display: flex; justify-content: center; align-items: center;"">
      <img src=""images/blue_deck_1.png"" style=""width: 300px; height: 300px; margin-right: 10px;"" />
      <img src=""images/red_deck_2.png"" style=""width: 300px; height: 300px;"" />
    </div>","1","1"
"","","","","","html-keyboard-response","33","505847","0.0-33.0-1.0-0.0","4420EF8FD78F4FE5AF6D08B12564F93A","589ffdc2-bada-440e-bf6b-a1e7f6c58c21","e73ede5c-88cf-40f6-bd80-a9f952b58684","","null","<div style=""display: flex; justify-content: center; align-items: center;"">
                <img src=""images/semantic/semantic_series_18/semantic_series_18_d.jpg"" style=""width: 300px; height: 300px;"" />
              </div>","null",""
"","","","","","html-keyboard-response","34","509850","0.0-34.0","4420EF8FD78F4FE5AF6D08B12564F93A","589ffdc2-bada-440e-bf6b-a1e7f6c58c21","e73ede5c-88cf-40f6-bd80-a9f952b58684","","null","<div style=""display: flex; justify-content: center; align-items: center;"">
                <img src=""images/other/blank.jpg"" style=""width: 300px; height: 300px;"" />
              </div>","null",""
"","","","","","html-keyboard-response","35","513866","0.0-35.0","4420EF8FD78F4FE5AF6D08B12564F93A","589ffdc2-bada-440e-bf6b-a1e7f6c58c21","e73ede5c-88cf-40f6-bd80-a9f952b58684","","null","<div style=""display: flex; justify-content: center; align-items: center;"">
                <img src=""images/causal/causal_series_15/causal_series_15_a.jpg"" style=""width: 300px; height: 300px;"" />
              </div>","null",""
"","","","","","html-keyboard-response","36","517869","0.0-36.0","4420EF8FD78F4FE5AF6D08B12564F93A","589ffdc2-bada-440e-bf6b-a1e7f6c58c21","e73ede5c-88cf-40f6-bd80-a9f952b58684","","null","<div style=""display: flex; justify-content: center; align-items: center;"">
                <img src=""images/causal/causal_series_15/causal_series_15_b.jpg"" style=""width: 300px; height: 300px;"" />
              </div>","null",""
"","","","","","html-keyboard-response","37","521881","0.0-37.0","4420EF8FD78F4FE5AF6D08B12564F93A","589ffdc2-bada-440e-bf6b-a1e7f6c58c21","e73ede5c-88cf-40f6-bd80-a9f952b58684","","null","<div style=""display: flex; justify-content: center; align-items: center;"">
                <img src=""images/causal/causal_series_15/causal_series_15_c.jpg"" style=""width: 300px; height: 300px;"" />
              </div>","null",""
"","","","","","html-button-response","38","523081","0.0-38.0","4420EF8FD78F4FE5AF6D08B12564F93A","589ffdc2-bada-440e-bf6b-a1e7f6c58c21","e73ede5c-88cf-40f6-bd80-a9f952b58684","","1199","
    <div style=""display: flex; justify-content: center; align-items: center;"">
      <img src=""images/blue_deck_1.png"" style=""width: 300px; height: 300px; margin-right: 10px;"" />
      <img src=""images/red_deck_2.png"" style=""width: 300px; height: 300px;"" />
    </div>","1","1"
"","","","","","html-keyboard-response","39","527085","0.0-39.0-1.0-0.0","4420EF8FD78F4FE5AF6D08B12564F93A","589ffdc2-bada-440e-bf6b-a1e7f6c58c21","e73ede5c-88cf-40f6-bd80-a9f952b58684","","null","<div style=""display: flex; justify-content: center; align-items: center;"">
                <img src=""images/semantic/semantic_series_15/semantic_series_15_d.jpg"" style=""width: 300px; height: 300px;"" />
              </div>","null",""
"","","","","","html-keyboard-response","40","531097","0.0-40.0","4420EF8FD78F4FE5AF6D08B12564F93A","589ffdc2-bada-440e-bf6b-a1e7f6c58c21","e73ede5c-88cf-40f6-bd80-a9f952b58684","","null","<div style=""display: flex; justify-content: center; align-items: center;"">
                <img src=""images/other/blank.jpg"" style=""width: 300px; height: 300px;"" />
              </div>","null",""
"","","","","","html-keyboard-response","41","535098","0.0-41.0","4420EF8FD78F4FE5AF6D08B12564F93A","589ffdc2-bada-440e-bf6b-a1e7f6c58c21","e73ede5c-88cf-40f6-bd80-a9f952b58684","","null","<div style=""display: flex; justify-content: center; align-items: center;"">
                <img src=""images/causal/causal_series_10/causal_series_10_a.jpg"" style=""width: 300px; height: 300px;"" />
              </div>","null",""
"","","","","","html-keyboard-response","42","539103","0.0-42.0","4420EF8FD78F4FE5AF6D08B12564F93A","589ffdc2-bada-440e-bf6b-a1e7f6c58c21","e73ede5c-88cf-40f6-bd80-a9f952b58684","","null","<div style=""display: flex; justify-content: center; align-items: center;"">
                <img src=""images/causal/causal_series_10/causal_series_10_b.jpg"" style=""width: 300px; height: 300px;"" />
              </div>","null",""
"","","","","","html-keyboard-response","43","543113","0.0-43.0","4420EF8FD78F4FE5AF6D08B12564F93A","589ffdc2-bada-440e-bf6b-a1e7f6c58c21","e73ede5c-88cf-40f6-bd80-a9f952b58684","","null","<div style=""display: flex; justify-content: center; align-items: center;"">
                <img src=""images/causal/causal_series_10/causal_series_10_c.jpg"" style=""width: 300px; height: 300px;"" />
              </div>","null",""
"","","","","","html-button-response","44","544510","0.0-44.0","4420EF8FD78F4FE5AF6D08B12564F93A","589ffdc2-bada-440e-bf6b-a1e7f6c58c21","e73ede5c-88cf-40f6-bd80-a9f952b58684","","1395","
    <div style=""display: flex; justify-content: center; align-items: center;"">
      <img src=""images/blue_deck_1.png"" style=""width: 300px; height: 300px; margin-right: 10px;"" />
      <img src=""images/red_deck_2.png"" style=""width: 300px; height: 300px;"" />
    </div>","1","1"
"","","","","","html-keyboard-response","45","548513","0.0-45.0-1.0-0.0","4420EF8FD78F4FE5AF6D08B12564F93A","589ffdc2-bada-440e-bf6b-a1e7f6c58c21","e73ede5c-88cf-40f6-bd80-a9f952b58684","","null","<div style=""display: flex; justify-content: center; align-items: center;"">
                <img src=""images/semantic/semantic_series_10/semantic_series_10_d.jpg"" style=""width: 300px; height: 300px;"" />
              </div>","null",""
"","","","","","html-keyboard-response","46","552521","0.0-46.0","4420EF8FD78F4FE5AF6D08B12564F93A","589ffdc2-bada-440e-bf6b-a1e7f6c58c21","e73ede5c-88cf-40f6-bd80-a9f952b58684","","null","<div style=""display: flex; justify-content: center; align-items: center;"">
                <img src=""images/other/blank.jpg"" style=""width: 300px; height: 300px;"" />
              </div>","null",""
"","","","","","html-keyboard-response","47","556524","0.0-47.0","4420EF8FD78F4FE5AF6D08B12564F93A","589ffdc2-bada-440e-bf6b-a1e7f6c58c21","e73ede5c-88cf-40f6-bd80-a9f952b58684","","null","<div style=""display: flex; justify-content: center; align-items: center;"">
                <img src=""images/causal/causal_series_14/causal_series_14_a.jpg"" style=""width: 300px; height: 300px;"" />
              </div>","null",""
"","","","","","html-keyboard-response","48","560527","0.0-48.0","4420EF8FD78F4FE5AF6D08B12564F93A","589ffdc2-bada-440e-bf6b-a1e7f6c58c21","e73ede5c-88cf-40f6-bd80-a9f952b58684","","null","<div style=""display: flex; justify-content: center; align-items: center;"">
                <img src=""images/causal/causal_series_14/causal_series_14_b.jpg"" style=""width: 300px; height: 300px;"" />
              </div>","null",""
"","","","","","html-keyboard-response","49","564529","0.0-49.0","4420EF8FD78F4FE5AF6D08B12564F93A","589ffdc2-bada-440e-bf6b-a1e7f6c58c21","e73ede5c-88cf-40f6-bd80-a9f952b58684","","null","<div style=""display: flex; justify-content: center; align-items: center;"">
                <img src=""images/causal/causal_series_14/causal_series_14_c.jpg"" style=""width: 300px; height: 300px;"" />
              </div>","null",""
"","","","","","html-button-response","50","566046","0.0-50.0","4420EF8FD78F4FE5AF6D08B12564F93A","589ffdc2-bada-440e-bf6b-a1e7f6c58c21","e73ede5c-88cf-40f6-bd80-a9f952b58684","","1516","
    <div style=""display: flex; justify-content: center; align-items: center;"">
      <img src=""images/blue_deck_1.png"" style=""width: 300px; height: 300px; margin-right: 10px;"" />
      <img src=""images/red_deck_2.png"" style=""width: 300px; height: 300px;"" />
    </div>","0","0"
"","","","","","html-keyboard-response","51","570052","0.0-51.0-0.0-0.0","4420EF8FD78F4FE5AF6D08B12564F93A","589ffdc2-bada-440e-bf6b-a1e7f6c58c21","e73ede5c-88cf-40f6-bd80-a9f952b58684","","null","<div style=""display: flex; justify-content: center; align-items: center;"">
                <img src=""images/causal/causal_series_14/causal_series_14_d.jpg"" style=""width: 300px; height: 300px;"" />
              </div>","null",""
"","","","","","html-keyboard-response","52","574060","0.0-52.0","4420EF8FD78F4FE5AF6D08B12564F93A","589ffdc2-bada-440e-bf6b-a1e7f6c58c21","e73ede5c-88cf-40f6-bd80-a9f952b58684","","null","<div style=""display: flex; justify-content: center; align-items: center;"">
                <img src=""images/other/blank.jpg"" style=""width: 300px; height: 300px;"" />
              </div>","null",""
"","","","","","html-keyboard-response","53","578074","0.0-53.0","4420EF8FD78F4FE5AF6D08B12564F93A","589ffdc2-bada-440e-bf6b-a1e7f6c58c21","e73ede5c-88cf-40f6-bd80-a9f952b58684","","null","<div style=""display: flex; justify-content: center; align-items: center;"">
                <img src=""images/causal/causal_series_17/causal_series_17_a.jpg"" style=""width: 300px; height: 300px;"" />
              </div>","null",""
"","","","","","html-keyboard-response","54","582083","0.0-54.0","4420EF8FD78F4FE5AF6D08B12564F93A","589ffdc2-bada-440e-bf6b-a1e7f6c58c21","e73ede5c-88cf-40f6-bd80-a9f952b58684","","null","<div style=""display: flex; justify-content: center; align-items: center;"">
                <img src=""images/causal/causal_series_17/causal_series_17_b.jpg"" style=""width: 300px; height: 300px;"" />
              </div>","null",""
"","","","","","html-keyboard-response","55","586093","0.0-55.0","4420EF8FD78F4FE5AF6D08B12564F93A","589ffdc2-bada-440e-bf6b-a1e7f6c58c21","e73ede5c-88cf-40f6-bd80-a9f952b58684","","null","<div style=""display: flex; justify-content: center; align-items: center;"">
                <img src=""images/causal/causal_series_17/causal_series_17_c.jpg"" style=""width: 300px; height: 300px;"" />
              </div>","null",""
"","","","","","html-button-response","56","587044","0.0-56.0","4420EF8FD78F4FE5AF6D08B12564F93A","589ffdc2-bada-440e-bf6b-a1e7f6c58c21","e73ede5c-88cf-40f6-bd80-a9f952b58684","","950","
    <div style=""display: flex; justify-content: center; align-items: center;"">
      <img src=""images/blue_deck_1.png"" style=""width: 300px; height: 300px; margin-right: 10px;"" />
      <img src=""images/red_deck_2.png"" style=""width: 300px; height: 300px;"" />
    </div>","0","0"
"","","","","","html-keyboard-response","57","591046","0.0-57.0-0.0-0.0","4420EF8FD78F4FE5AF6D08B12564F93A","589ffdc2-bada-440e-bf6b-a1e7f6c58c21","e73ede5c-88cf-40f6-bd80-a9f952b58684","","null","<div style=""display: flex; justify-content: center; align-items: center;"">
                <img src=""images/causal/causal_series_17/causal_series_17_d.jpg"" style=""width: 300px; height: 300px;"" />
              </div>","null",""
"","","","","","html-keyboard-response","58","595055","0.0-58.0","4420EF8FD78F4FE5AF6D08B12564F93A","589ffdc2-bada-440e-bf6b-a1e7f6c58c21","e73ede5c-88cf-40f6-bd80-a9f952b58684","","null","<div style=""display: flex; justify-content: center; align-items: center;"">
                <img src=""images/other/blank.jpg"" style=""width: 300px; height: 300px;"" />
              </div>","null",""
"","","","","","html-keyboard-response","59","599064","0.0-59.0","4420EF8FD78F4FE5AF6D08B12564F93A","589ffdc2-bada-440e-bf6b-a1e7f6c58c21","e73ede5c-88cf-40f6-bd80-a9f952b58684","","null","<div style=""display: flex; justify-content: center; align-items: center;"">
                <img src=""images/causal/causal_series_7/causal_series_7_a.jpg"" style=""width: 300px; height: 300px;"" />
              </div>","null",""
"","","","","","html-keyboard-response","60","603078","0.0-60.0","4420EF8FD78F4FE5AF6D08B12564F93A","589ffdc2-bada-440e-bf6b-a1e7f6c58c21","e73ede5c-88cf-40f6-bd80-a9f952b58684","","null","<div style=""display: flex; justify-content: center; align-items: center;"">
                <img src=""images/causal/causal_series_7/causal_series_7_b.jpg"" style=""width: 300px; height: 300px;"" />
              </div>","null",""
"","","","","","html-keyboard-response","61","607083","0.0-61.0","4420EF8FD78F4FE5AF6D08B12564F93A","589ffdc2-bada-440e-bf6b-a1e7f6c58c21","e73ede5c-88cf-40f6-bd80-a9f952b58684","","null","<div style=""display: flex; justify-content: center; align-items: center;"">
                <img src=""images/causal/causal_series_7/causal_series_7_c.jpg"" style=""width: 300px; height: 300px;"" />
              </div>","null",""
"","","","","","html-button-response","62","608365","0.0-62.0","4420EF8FD78F4FE5AF6D08B12564F93A","589ffdc2-bada-440e-bf6b-a1e7f6c58c21","e73ede5c-88cf-40f6-bd80-a9f952b58684","","1281","
    <div style=""display: flex; justify-content: center; align-items: center;"">
      <img src=""images/blue_deck_1.png"" style=""width: 300px; height: 300px; margin-right: 10px;"" />
      <img src=""images/red_deck_2.png"" style=""width: 300px; height: 300px;"" />
    </div>","0","0"
"","","","","","html-keyboard-response","63","612367","0.0-63.0-0.0-0.0","4420EF8FD78F4FE5AF6D08B12564F93A","589ffdc2-bada-440e-bf6b-a1e7f6c58c21","e73ede5c-88cf-40f6-bd80-a9f952b58684","","null","<div style=""display: flex; justify-content: center; align-items: center;"">
                <img src=""images/causal/causal_series_7/causal_series_7_d.jpg"" style=""width: 300px; height: 300px;"" />
              </div>","null",""
"","","","","","html-keyboard-response","64","616374","0.0-64.0","4420EF8FD78F4FE5AF6D08B12564F93A","589ffdc2-bada-440e-bf6b-a1e7f6c58c21","e73ede5c-88cf-40f6-bd80-a9f952b58684","","null","<div style=""display: flex; justify-content: center; align-items: center;"">
                <img src=""images/other/blank.jpg"" style=""width: 300px; height: 300px;"" />
              </div>","null",""
"","","","","","html-keyboard-response","65","620385","0.0-65.0","4420EF8FD78F4FE5AF6D08B12564F93A","589ffdc2-bada-440e-bf6b-a1e7f6c58c21","e73ede5c-88cf-40f6-bd80-a9f952b58684","","null","<div style=""display: flex; justify-content: center; align-items: center;"">
                <img src=""images/causal/causal_series_9/causal_series_9_a.jpg"" style=""width: 300px; height: 300px;"" />
              </div>","null",""
"","","","","","html-keyboard-response","66","624390","0.0-66.0","4420EF8FD78F4FE5AF6D08B12564F93A","589ffdc2-bada-440e-bf6b-a1e7f6c58c21","e73ede5c-88cf-40f6-bd80-a9f952b58684","","null","<div style=""display: flex; justify-content: center; align-items: center;"">
                <img src=""images/causal/causal_series_9/causal_series_9_b.jpg"" style=""width: 300px; height: 300px;"" />
              </div>","null",""
"","","","","","html-keyboard-response","67","628398","0.0-67.0","4420EF8FD78F4FE5AF6D08B12564F93A","589ffdc2-bada-440e-bf6b-a1e7f6c58c21","e73ede5c-88cf-40f6-bd80-a9f952b58684","","null","<div style=""display: flex; justify-content: center; align-items: center;"">
                <img src=""images/causal/causal_series_9/causal_series_9_c.jpg"" style=""width: 300px; height: 300px;"" />
              </div>","null",""
"","","","","","html-button-response","68","629579","0.0-68.0","4420EF8FD78F4FE5AF6D08B12564F93A","589ffdc2-bada-440e-bf6b-a1e7f6c58c21","e73ede5c-88cf-40f6-bd80-a9f952b58684","","1179","
    <div style=""display: flex; justify-content: center; align-items: center;"">
      <img src=""images/blue_deck_1.png"" style=""width: 300px; height: 300px; margin-right: 10px;"" />
      <img src=""images/red_deck_2.png"" style=""width: 300px; height: 300px;"" />
    </div>","0","0"
"","","","","","html-keyboard-response","69","633590","0.0-69.0-0.0-0.0","4420EF8FD78F4FE5AF6D08B12564F93A","589ffdc2-bada-440e-bf6b-a1e7f6c58c21","e73ede5c-88cf-40f6-bd80-a9f952b58684","","null","<div style=""display: flex; justify-content: center; align-items: center;"">
                <img src=""images/causal/causal_series_9/causal_series_9_d.jpg"" style=""width: 300px; height: 300px;"" />
              </div>","null",""
"","","","","","html-keyboard-response","70","637599","0.0-70.0","4420EF8FD78F4FE5AF6D08B12564F93A","589ffdc2-bada-440e-bf6b-a1e7f6c58c21","e73ede5c-88cf-40f6-bd80-a9f952b58684","","null","<div style=""display: flex; justify-content: center; align-items: center;"">
                <img src=""images/other/blank.jpg"" style=""width: 300px; height: 300px;"" />
              </div>","null",""
"","","","","","html-keyboard-response","71","641604","0.0-71.0","4420EF8FD78F4FE5AF6D08B12564F93A","589ffdc2-bada-440e-bf6b-a1e7f6c58c21","e73ede5c-88cf-40f6-bd80-a9f952b58684","","null","<div style=""display: flex; justify-content: center; align-items: center;"">
                <img src=""images/causal/causal_series_16/causal_series_16_a.jpg"" style=""width: 300px; height: 300px;"" />
              </div>","null",""
"","","","","","html-keyboard-response","72","645619","0.0-72.0","4420EF8FD78F4FE5AF6D08B12564F93A","589ffdc2-bada-440e-bf6b-a1e7f6c58c21","e73ede5c-88cf-40f6-bd80-a9f952b58684","","null","<div style=""display: flex; justify-content: center; align-items: center;"">
                <img src=""images/causal/causal_series_16/causal_series_16_b.jpg"" style=""width: 300px; height: 300px;"" />
              </div>","null",""
"","","","","","html-keyboard-response","73","649635","0.0-73.0","4420EF8FD78F4FE5AF6D08B12564F93A","589ffdc2-bada-440e-bf6b-a1e7f6c58c21","e73ede5c-88cf-40f6-bd80-a9f952b58684","","null","<div style=""display: flex; justify-content: center; align-items: center;"">
                <img src=""images/causal/causal_series_16/causal_series_16_c.jpg"" style=""width: 300px; height: 300px;"" />
              </div>","null",""
"","","","","","html-button-response","74","651425","0.0-74.0","4420EF8FD78F4FE5AF6D08B12564F93A","589ffdc2-bada-440e-bf6b-a1e7f6c58c21","e73ede5c-88cf-40f6-bd80-a9f952b58684","","1789","
    <div style=""display: flex; justify-content: center; align-items: center;"">
      <img src=""images/blue_deck_1.png"" style=""width: 300px; height: 300px; margin-right: 10px;"" />
      <img src=""images/red_deck_2.png"" style=""width: 300px; height: 300px;"" />
    </div>","1","1"
"","","","","","html-keyboard-response","75","655436","0.0-75.0-1.0-0.0","4420EF8FD78F4FE5AF6D08B12564F93A","589ffdc2-bada-440e-bf6b-a1e7f6c58c21","e73ede5c-88cf-40f6-bd80-a9f952b58684","","null","<div style=""display: flex; justify-content: center; align-items: center;"">
                <img src=""images/semantic/semantic_series_16/semantic_series_16_d.jpg"" style=""width: 300px; height: 300px;"" />
              </div>","null",""
"","","","","","html-keyboard-response","76","659443","0.0-76.0","4420EF8FD78F4FE5AF6D08B12564F93A","589ffdc2-bada-440e-bf6b-a1e7f6c58c21","e73ede5c-88cf-40f6-bd80-a9f952b58684","","null","<div style=""display: flex; justify-content: center; align-items: center;"">
                <img src=""images/other/blank.jpg"" style=""width: 300px; height: 300px;"" />
              </div>","null",""
"","","","","","html-keyboard-response","77","663454","0.0-77.0","4420EF8FD78F4FE5AF6D08B12564F93A","589ffdc2-bada-440e-bf6b-a1e7f6c58c21","e73ede5c-88cf-40f6-bd80-a9f952b58684","","null","<div style=""display: flex; justify-content: center; align-items: center;"">
                <img src=""images/causal/causal_series_13/causal_series_13_a.jpg"" style=""width: 300px; height: 300px;"" />
              </div>","null",""
"","","","","","html-keyboard-response","78","667464","0.0-78.0","4420EF8FD78F4FE5AF6D08B12564F93A","589ffdc2-bada-440e-bf6b-a1e7f6c58c21","e73ede5c-88cf-40f6-bd80-a9f952b58684","","null","<div style=""display: flex; justify-content: center; align-items: center;"">
                <img src=""images/causal/causal_series_13/causal_series_13_b.jpg"" style=""width: 300px; height: 300px;"" />
              </div>","null",""
"","","","","","html-keyboard-response","79","671471","0.0-79.0","4420EF8FD78F4FE5AF6D08B12564F93A","589ffdc2-bada-440e-bf6b-a1e7f6c58c21","e73ede5c-88cf-40f6-bd80-a9f952b58684","","null","<div style=""display: flex; justify-content: center; align-items: center;"">
                <img src=""images/causal/causal_series_13/causal_series_13_c.jpg"" style=""width: 300px; height: 300px;"" />
              </div>","null",""
"","","","","","html-button-response","80","674016","0.0-80.0","4420EF8FD78F4FE5AF6D08B12564F93A","589ffdc2-bada-440e-bf6b-a1e7f6c58c21","e73ede5c-88cf-40f6-bd80-a9f952b58684","","2545","
    <div style=""display: flex; justify-content: center; align-items: center;"">
      <img src=""images/blue_deck_1.png"" style=""width: 300px; height: 300px; margin-right: 10px;"" />
      <img src=""images/red_deck_2.png"" style=""width: 300px; height: 300px;"" />
    </div>","1","1"
"","","","","","html-keyboard-response","81","678018","0.0-81.0-1.0-0.0","4420EF8FD78F4FE5AF6D08B12564F93A","589ffdc2-bada-440e-bf6b-a1e7f6c58c21","e73ede5c-88cf-40f6-bd80-a9f952b58684","","null","<div style=""display: flex; justify-content: center; align-items: center;"">
                <img src=""images/semantic/semantic_series_13/semantic_series_13_d.jpg"" style=""width: 300px; height: 300px;"" />
              </div>","null",""
"","","","","","html-keyboard-response","82","682028","0.0-82.0","4420EF8FD78F4FE5AF6D08B12564F93A","589ffdc2-bada-440e-bf6b-a1e7f6c58c21","e73ede5c-88cf-40f6-bd80-a9f952b58684","","null","<div style=""display: flex; justify-content: center; align-items: center;"">
                <img src=""images/other/blank.jpg"" style=""width: 300px; height: 300px;"" />
              </div>","null",""
"","","","","","html-keyboard-response","83","686036","0.0-83.0","4420EF8FD78F4FE5AF6D08B12564F93A","589ffdc2-bada-440e-bf6b-a1e7f6c58c21","e73ede5c-88cf-40f6-bd80-a9f952b58684","","null","<div style=""display: flex; justify-content: center; align-items: center;"">
                <img src=""images/causal/causal_series_4/causal_series_4_a.jpg"" style=""width: 300px; height: 300px;"" />
              </div>","null",""
"","","","","","html-keyboard-response","84","690046","0.0-84.0","4420EF8FD78F4FE5AF6D08B12564F93A","589ffdc2-bada-440e-bf6b-a1e7f6c58c21","e73ede5c-88cf-40f6-bd80-a9f952b58684","","null","<div style=""display: flex; justify-content: center; align-items: center;"">
                <img src=""images/causal/causal_series_4/causal_series_4_b.jpg"" style=""width: 300px; height: 300px;"" />
              </div>","null",""
"","","","","","html-keyboard-response","85","694062","0.0-85.0","4420EF8FD78F4FE5AF6D08B12564F93A","589ffdc2-bada-440e-bf6b-a1e7f6c58c21","e73ede5c-88cf-40f6-bd80-a9f952b58684","","null","<div style=""display: flex; justify-content: center; align-items: center;"">
                <img src=""images/causal/causal_series_4/causal_series_4_c.jpg"" style=""width: 300px; height: 300px;"" />
              </div>","null",""
"","","","","","html-button-response","86","696302","0.0-86.0","4420EF8FD78F4FE5AF6D08B12564F93A","589ffdc2-bada-440e-bf6b-a1e7f6c58c21","e73ede5c-88cf-40f6-bd80-a9f952b58684","","2240","
    <div style=""display: flex; justify-content: center; align-items: center;"">
      <img src=""images/blue_deck_1.png"" style=""width: 300px; height: 300px; margin-right: 10px;"" />
      <img src=""images/red_deck_2.png"" style=""width: 300px; height: 300px;"" />
    </div>","1","1"
"","","","","","html-keyboard-response","87","700303","0.0-87.0-1.0-0.0","4420EF8FD78F4FE5AF6D08B12564F93A","589ffdc2-bada-440e-bf6b-a1e7f6c58c21","e73ede5c-88cf-40f6-bd80-a9f952b58684","","null","<div style=""display: flex; justify-content: center; align-items: center;"">
                <img src=""images/semantic/semantic_series_4/semantic_series_4_d.jpg"" style=""width: 300px; height: 300px;"" />
              </div>","null",""
"","","","","","html-keyboard-response","88","704310","0.0-88.0","4420EF8FD78F4FE5AF6D08B12564F93A","589ffdc2-bada-440e-bf6b-a1e7f6c58c21","e73ede5c-88cf-40f6-bd80-a9f952b58684","","null","<div style=""display: flex; justify-content: center; align-items: center;"">
                <img src=""images/other/blank.jpg"" style=""width: 300px; height: 300px;"" />
              </div>","null",""
"","","","","","html-keyboard-response","89","708318","0.0-89.0","4420EF8FD78F4FE5AF6D08B12564F93A","589ffdc2-bada-440e-bf6b-a1e7f6c58c21","e73ede5c-88cf-40f6-bd80-a9f952b58684","","null","<div style=""display: flex; justify-content: center; align-items: center;"">
                <img src=""images/causal/causal_series_1/causal_series_1_a.jpg"" style=""width: 300px; height: 300px;"" />
              </div>","null",""
"","","","","","html-keyboard-response","90","712324","0.0-90.0","4420EF8FD78F4FE5AF6D08B12564F93A","589ffdc2-bada-440e-bf6b-a1e7f6c58c21","e73ede5c-88cf-40f6-bd80-a9f952b58684","","null","<div style=""display: flex; justify-content: center; align-items: center;"">
                <img src=""images/causal/causal_series_1/causal_series_1_b.jpg"" style=""width: 300px; height: 300px;"" />
              </div>","null",""
"","","","","","html-keyboard-response","91","716337","0.0-91.0","4420EF8FD78F4FE5AF6D08B12564F93A","589ffdc2-bada-440e-bf6b-a1e7f6c58c21","e73ede5c-88cf-40f6-bd80-a9f952b58684","","null","<div style=""display: flex; justify-content: center; align-items: center;"">
                <img src=""images/causal/causal_series_1/causal_series_1_c.jpg"" style=""width: 300px; height: 300px;"" />
              </div>","null",""
"","","","","","html-button-response","92","718181","0.0-92.0","4420EF8FD78F4FE5AF6D08B12564F93A","589ffdc2-bada-440e-bf6b-a1e7f6c58c21","e73ede5c-88cf-40f6-bd80-a9f952b58684","","1843","
    <div style=""display: flex; justify-content: center; align-items: center;"">
      <img src=""images/blue_deck_1.png"" style=""width: 300px; height: 300px; margin-right: 10px;"" />
      <img src=""images/red_deck_2.png"" style=""width: 300px; height: 300px;"" />
    </div>","1","1"
"","","","","","html-keyboard-response","93","722183","0.0-93.0-1.0-0.0","4420EF8FD78F4FE5AF6D08B12564F93A","589ffdc2-bada-440e-bf6b-a1e7f6c58c21","e73ede5c-88cf-40f6-bd80-a9f952b58684","","null","<div style=""display: flex; justify-content: center; align-items: center;"">
                <img src=""images/semantic/semantic_series_1/semantic_series_1_d.jpg"" style=""width: 300px; height: 300px;"" />
              </div>","null",""
"","","","","","html-keyboard-response","94","726195","0.0-94.0","4420EF8FD78F4FE5AF6D08B12564F93A","589ffdc2-bada-440e-bf6b-a1e7f6c58c21","e73ede5c-88cf-40f6-bd80-a9f952b58684","","null","<div style=""display: flex; justify-content: center; align-items: center;"">
                <img src=""images/other/blank.jpg"" style=""width: 300px; height: 300px;"" />
              </div>","null",""
"","","","","","html-keyboard-response","95","730209","0.0-95.0","4420EF8FD78F4FE5AF6D08B12564F93A","589ffdc2-bada-440e-bf6b-a1e7f6c58c21","e73ede5c-88cf-40f6-bd80-a9f952b58684","","null","<div style=""display: flex; justify-content: center; align-items: center;"">
                <img src=""images/causal/causal_series_3/causal_series_3_a.jpg"" style=""width: 300px; height: 300px;"" />
              </div>","null",""
"","","","","","html-keyboard-response","96","734220","0.0-96.0","4420EF8FD78F4FE5AF6D08B12564F93A","589ffdc2-bada-440e-bf6b-a1e7f6c58c21","e73ede5c-88cf-40f6-bd80-a9f952b58684","","null","<div style=""display: flex; justify-content: center; align-items: center;"">
                <img src=""images/causal/causal_series_3/causal_series_3_b.jpg"" style=""width: 300px; height: 300px;"" />
              </div>","null",""
"","","","","","html-keyboard-response","97","738227","0.0-97.0","4420EF8FD78F4FE5AF6D08B12564F93A","589ffdc2-bada-440e-bf6b-a1e7f6c58c21","e73ede5c-88cf-40f6-bd80-a9f952b58684","","null","<div style=""display: flex; justify-content: center; align-items: center;"">
                <img src=""images/causal/causal_series_3/causal_series_3_c.jpg"" style=""width: 300px; height: 300px;"" />
              </div>","null",""
"","","","","","html-button-response","98","739941","0.0-98.0","4420EF8FD78F4FE5AF6D08B12564F93A","589ffdc2-bada-440e-bf6b-a1e7f6c58c21","e73ede5c-88cf-40f6-bd80-a9f952b58684","","1713","
    <div style=""display: flex; justify-content: center; align-items: center;"">
      <img src=""images/blue_deck_1.png"" style=""width: 300px; height: 300px; margin-right: 10px;"" />
      <img src=""images/red_deck_2.png"" style=""width: 300px; height: 300px;"" />
    </div>","0","0"
"","","","","","html-keyboard-response","99","743948","0.0-99.0-0.0-0.0","4420EF8FD78F4FE5AF6D08B12564F93A","589ffdc2-bada-440e-bf6b-a1e7f6c58c21","e73ede5c-88cf-40f6-bd80-a9f952b58684","","null","<div style=""display: flex; justify-content: center; align-items: center;"">
                <img src=""images/causal/causal_series_3/causal_series_3_d.jpg"" style=""width: 300px; height: 300px;"" />
              </div>","null",""
"","","","","","html-keyboard-response","100","747951","0.0-100.0","4420EF8FD78F4FE5AF6D08B12564F93A","589ffdc2-bada-440e-bf6b-a1e7f6c58c21","e73ede5c-88cf-40f6-bd80-a9f952b58684","","null","<div style=""display: flex; justify-content: center; align-items: center;"">
                <img src=""images/other/blank.jpg"" style=""width: 300px; height: 300px;"" />
              </div>","null",""
"","","","","","html-keyboard-response","101","751956","0.0-101.0","4420EF8FD78F4FE5AF6D08B12564F93A","589ffdc2-bada-440e-bf6b-a1e7f6c58c21","e73ede5c-88cf-40f6-bd80-a9f952b58684","","null","<div style=""display: flex; justify-content: center; align-items: center;"">
                <img src=""images/causal/causal_series_5/causal_series_5_a.jpg"" style=""width: 300px; height: 300px;"" />
              </div>","null",""
"","","","","","html-keyboard-response","102","755969","0.0-102.0","4420EF8FD78F4FE5AF6D08B12564F93A","589ffdc2-bada-440e-bf6b-a1e7f6c58c21","e73ede5c-88cf-40f6-bd80-a9f952b58684","","null","<div style=""display: flex; justify-content: center; align-items: center;"">
                <img src=""images/causal/causal_series_5/causal_series_5_b.jpg"" style=""width: 300px; height: 300px;"" />
              </div>","null",""
"","","","","","html-keyboard-response","103","759970","0.0-103.0","4420EF8FD78F4FE5AF6D08B12564F93A","589ffdc2-bada-440e-bf6b-a1e7f6c58c21","e73ede5c-88cf-40f6-bd80-a9f952b58684","","null","<div style=""display: flex; justify-content: center; align-items: center;"">
                <img src=""images/causal/causal_series_5/causal_series_5_c.jpg"" style=""width: 300px; height: 300px;"" />
              </div>","null",""
"","","","","","html-button-response","104","761308","0.0-104.0","4420EF8FD78F4FE5AF6D08B12564F93A","589ffdc2-bada-440e-bf6b-a1e7f6c58c21","e73ede5c-88cf-40f6-bd80-a9f952b58684","","1338","
    <div style=""display: flex; justify-content: center; align-items: center;"">
      <img src=""images/blue_deck_1.png"" style=""width: 300px; height: 300px; margin-right: 10px;"" />
      <img src=""images/red_deck_2.png"" style=""width: 300px; height: 300px;"" />
    </div>","0","0"
"","","","","","html-keyboard-response","105","765314","0.0-105.0-0.0-0.0","4420EF8FD78F4FE5AF6D08B12564F93A","589ffdc2-bada-440e-bf6b-a1e7f6c58c21","e73ede5c-88cf-40f6-bd80-a9f952b58684","","null","<div style=""display: flex; justify-content: center; align-items: center;"">
                <img src=""images/causal/causal_series_5/causal_series_5_d.jpg"" style=""width: 300px; height: 300px;"" />
              </div>","null",""
"","","","","","html-keyboard-response","106","769325","0.0-106.0","4420EF8FD78F4FE5AF6D08B12564F93A","589ffdc2-bada-440e-bf6b-a1e7f6c58c21","e73ede5c-88cf-40f6-bd80-a9f952b58684","","null","<div style=""display: flex; justify-content: center; align-items: center;"">
                <img src=""images/other/blank.jpg"" style=""width: 300px; height: 300px;"" />
              </div>","null",""
"","","","","","html-keyboard-response","107","773326","0.0-107.0","4420EF8FD78F4FE5AF6D08B12564F93A","589ffdc2-bada-440e-bf6b-a1e7f6c58c21","e73ede5c-88cf-40f6-bd80-a9f952b58684","","null","<div style=""display: flex; justify-content: center; align-items: center;"">
                <img src=""images/causal/causal_series_8/causal_series_8_a.jpg"" style=""width: 300px; height: 300px;"" />
              </div>","null",""
"","","","","","html-keyboard-response","108","777340","0.0-108.0","4420EF8FD78F4FE5AF6D08B12564F93A","589ffdc2-bada-440e-bf6b-a1e7f6c58c21","e73ede5c-88cf-40f6-bd80-a9f952b58684","","null","<div style=""display: flex; justify-content: center; align-items: center;"">
                <img src=""images/causal/causal_series_8/causal_series_8_b.jpg"" style=""width: 300px; height: 300px;"" />
              </div>","null",""
"","","","","","html-keyboard-response","109","781348","0.0-109.0","4420EF8FD78F4FE5AF6D08B12564F93A","589ffdc2-bada-440e-bf6b-a1e7f6c58c21","e73ede5c-88cf-40f6-bd80-a9f952b58684","","null","<div style=""display: flex; justify-content: center; align-items: center;"">
                <img src=""images/causal/causal_series_8/causal_series_8_c.jpg"" style=""width: 300px; height: 300px;"" />
              </div>","null",""
"","","","","","html-button-response","110","782852","0.0-110.0","4420EF8FD78F4FE5AF6D08B12564F93A","589ffdc2-bada-440e-bf6b-a1e7f6c58c21","e73ede5c-88cf-40f6-bd80-a9f952b58684","","1503","
    <div style=""display: flex; justify-content: center; align-items: center;"">
      <img src=""images/blue_deck_1.png"" style=""width: 300px; height: 300px; margin-right: 10px;"" />
      <img src=""images/red_deck_2.png"" style=""width: 300px; height: 300px;"" />
    </div>","0","0"
"","","","","","html-keyboard-response","111","786867","0.0-111.0-0.0-0.0","4420EF8FD78F4FE5AF6D08B12564F93A","589ffdc2-bada-440e-bf6b-a1e7f6c58c21","e73ede5c-88cf-40f6-bd80-a9f952b58684","","null","<div style=""display: flex; justify-content: center; align-items: center;"">
                <img src=""images/causal/causal_series_8/causal_series_8_d.jpg"" style=""width: 300px; height: 300px;"" />
              </div>","null",""
"","","","","","html-keyboard-response","112","790870","0.0-112.0","4420EF8FD78F4FE5AF6D08B12564F93A","589ffdc2-bada-440e-bf6b-a1e7f6c58c21","e73ede5c-88cf-40f6-bd80-a9f952b58684","","null","<div style=""display: flex; justify-content: center; align-items: center;"">
                <img src=""images/other/blank.jpg"" style=""width: 300px; height: 300px;"" />
              </div>","null",""
"","","","","","survey-text","113","809167","0.0-113.0","4420EF8FD78F4FE5AF6D08B12564F93A","589ffdc2-bada-440e-bf6b-a1e7f6c58c21","e73ede5c-88cf-40f6-bd80-a9f952b58684","","18289","","{""Q0"":""MALE"",""Q1"":""35""}",""
"","","","","","instructions","114","839464","0.0-114.0","4420EF8FD78F4FE5AF6D08B12564F93A","589ffdc2-bada-440e-bf6b-a1e7f6c58c21","e73ede5c-88cf-40f6-bd80-a9f952b58684","[{""page_index"":0,""viewing_time"":30297}]","30297","","",""
