"success","timeout","failed_images","failed_audio","failed_video","trial_type","trial_index","time_elapsed","internal_node_id","subject_id","study_id","session_id","view_history","rt","stimulus","response","choice"
"true","false","[]","[]","[]","preload","0","2534","0.0-0.0","981A0785D1E5461BA32FC9F58BD22AD6","a32c3f03-0117-4496-a0a8-974470ec6b71","5479079d-2186-49b2-89e2-e3afab6abcc2","","","","",""
"","","","","","instructions","1","8385","0.0-1.0","981A0785D1E5461BA32FC9F58BD22AD6","a32c3f03-0117-4496-a0a8-974470ec6b71","5479079d-2186-49b2-89e2-e3afab6abcc2","[{""page_index"":0,""viewing_time"":5850}]","5851","","",""
"","","","","","instructions","2","15093","0.0-2.0","981A0785D1E5461BA32FC9F58BD22AD6","a32c3f03-0117-4496-a0a8-974470ec6b71","5479079d-2186-49b2-89e2-e3afab6abcc2","[{""page_index"":0,""viewing_time"":6706}]","6707","","",""
"true","","","","","fullscreen","3","21525","0.0-3.0","981A0785D1E5461BA32FC9F58BD22AD6","a32c3f03-0117-4496-a0a8-974470ec6b71","5479079d-2186-49b2-89e2-e3afab6abcc2","","5428","","",""
"","","","","","instructions","4","40522","0.0-4.0","981A0785D1E5461BA32FC9F58BD22AD6","a32c3f03-0117-4496-a0a8-974470ec6b71","5479079d-2186-49b2-89e2-e3afab6abcc2","[{""page_index"":0,""viewing_time"":18996}]","18996","","",""
"","","","","","html-keyboard-response","5","43631","0.0-5.0","981A0785D1E5461BA32FC9F58BD22AD6","a32c3f03-0117-4496-a0a8-974470ec6b71","5479079d-2186-49b2-89e2-e3afab6abcc2","","null","<div style=""display: flex; justify-content: center; align-items: center;"">
                <img src=""images/causal/causal_series_6/causal_series_6_a.jpg"" style=""width: 300px; height: 300px;"" />
              </div>","null",""
"","","","","","html-keyboard-response","6","46642","0.0-6.0","981A0785D1E5461BA32FC9F58BD22AD6","a32c3f03-0117-4496-a0a8-974470ec6b71","5479079d-2186-49b2-89e2-e3afab6abcc2","","null","<div style=""display: flex; justify-content: center; align-items: center;"">
                <img src=""images/causal/causal_series_6/causal_series_6_b.jpg"" style=""width: 300px; height: 300px;"" />
              </div>","null",""
"","","","","","html-keyboard-response","7","49643","0.0-7.0","981A0785D1E5461BA32FC9F58BD22AD6","a32c3f03-0117-4496-a0a8-974470ec6b71","5479079d-2186-49b2-89e2-e3afab6abcc2","","null","<div style=""display: flex; justify-content: center; align-items: center;"">
                <img src=""images/causal/causal_series_6/causal_series_6_c.jpg"" style=""width: 300px; height: 300px;"" />
              </div>","null",""
"","","","","","html-button-response","8","54744","0.0-8.0","981A0785D1E5461BA32FC9F58BD22AD6","a32c3f03-0117-4496-a0a8-974470ec6b71","5479079d-2186-49b2-89e2-e3afab6abcc2","","5100","
    <div style=""display: flex; justify-content: center; align-items: center;"">
      <img src=""images/blue_deck_1.png"" style=""width: 300px; height: 300px; margin-right: 10px;"" />
      <img src=""images/red_deck_2.png"" style=""width: 300px; height: 300px;"" />
    </div>","0","0"
"","","","","","html-keyboard-response","9","57759","0.0-9.0-0.0-0.0","981A0785D1E5461BA32FC9F58BD22AD6","a32c3f03-0117-4496-a0a8-974470ec6b71","5479079d-2186-49b2-89e2-e3afab6abcc2","","null","<div style=""display: flex; justify-content: center; align-items: center;"">
                <img src=""images/causal/causal_series_6/causal_series_6_d.jpg"" style=""width: 300px; height: 300px;"" />
              </div>","null",""
"","","","","","html-keyboard-response","10","60991","0.0-10.0","981A0785D1E5461BA32FC9F58BD22AD6","a32c3f03-0117-4496-a0a8-974470ec6b71","5479079d-2186-49b2-89e2-e3afab6abcc2","","null","<div style=""display: flex; justify-content: center; align-items: center;"">
                <img src=""images/other/blank.jpg"" style=""width: 300px; height: 300px;"" />
              </div>","null",""
"","","","","","html-keyboard-response","11","64005","0.0-11.0","981A0785D1E5461BA32FC9F58BD22AD6","a32c3f03-0117-4496-a0a8-974470ec6b71","5479079d-2186-49b2-89e2-e3afab6abcc2","","null","<div style=""display: flex; justify-content: center; align-items: center;"">
                <img src=""images/causal/causal_series_3/causal_series_3_a.jpg"" style=""width: 300px; height: 300px;"" />
              </div>","null",""
"","","","","","html-keyboard-response","12","67019","0.0-12.0","981A0785D1E5461BA32FC9F58BD22AD6","a32c3f03-0117-4496-a0a8-974470ec6b71","5479079d-2186-49b2-89e2-e3afab6abcc2","","null","<div style=""display: flex; justify-content: center; align-items: center;"">
                <img src=""images/causal/causal_series_3/causal_series_3_b.jpg"" style=""width: 300px; height: 300px;"" />
              </div>","null",""
"","","","","","html-keyboard-response","13","70033","0.0-13.0","981A0785D1E5461BA32FC9F58BD22AD6","a32c3f03-0117-4496-a0a8-974470ec6b71","5479079d-2186-49b2-89e2-e3afab6abcc2","","null","<div style=""display: flex; justify-content: center; align-items: center;"">
                <img src=""images/causal/causal_series_3/causal_series_3_c.jpg"" style=""width: 300px; height: 300px;"" />
              </div>","null",""
"","","","","","html-button-response","14","71211","0.0-14.0","981A0785D1E5461BA32FC9F58BD22AD6","a32c3f03-0117-4496-a0a8-974470ec6b71","5479079d-2186-49b2-89e2-e3afab6abcc2","","1178","
    <div style=""display: flex; justify-content: center; align-items: center;"">
      <img src=""images/blue_deck_1.png"" style=""width: 300px; height: 300px; margin-right: 10px;"" />
      <img src=""images/red_deck_2.png"" style=""width: 300px; height: 300px;"" />
    </div>","1","1"
"","","","","","html-keyboard-response","15","74258","0.0-15.0-1.0-0.0","981A0785D1E5461BA32FC9F58BD22AD6","a32c3f03-0117-4496-a0a8-974470ec6b71","5479079d-2186-49b2-89e2-e3afab6abcc2","","null","<div style=""display: flex; justify-content: center; align-items: center;"">
                <img src=""images/semantic/semantic_series_3/semantic_series_3_d.jpg"" style=""width: 300px; height: 300px;"" />
              </div>","null",""
"","","","","","html-keyboard-response","16","77260","0.0-16.0","981A0785D1E5461BA32FC9F58BD22AD6","a32c3f03-0117-4496-a0a8-974470ec6b71","5479079d-2186-49b2-89e2-e3afab6abcc2","","null","<div style=""display: flex; justify-content: center; align-items: center;"">
                <img src=""images/other/blank.jpg"" style=""width: 300px; height: 300px;"" />
              </div>","null",""
"","","","","","html-keyboard-response","17","80269","0.0-17.0","981A0785D1E5461BA32FC9F58BD22AD6","a32c3f03-0117-4496-a0a8-974470ec6b71","5479079d-2186-49b2-89e2-e3afab6abcc2","","null","<div style=""display: flex; justify-content: center; align-items: center;"">
                <img src=""images/causal/causal_series_4/causal_series_4_a.jpg"" style=""width: 300px; height: 300px;"" />
              </div>","null",""
"","","","","","html-keyboard-response","18","83278","0.0-18.0","981A0785D1E5461BA32FC9F58BD22AD6","a32c3f03-0117-4496-a0a8-974470ec6b71","5479079d-2186-49b2-89e2-e3afab6abcc2","","null","<div style=""display: flex; justify-content: center; align-items: center;"">
                <img src=""images/causal/causal_series_4/causal_series_4_b.jpg"" style=""width: 300px; height: 300px;"" />
              </div>","null",""
"","","","","","html-keyboard-response","19","86284","0.0-19.0","981A0785D1E5461BA32FC9F58BD22AD6","a32c3f03-0117-4496-a0a8-974470ec6b71","5479079d-2186-49b2-89e2-e3afab6abcc2","","null","<div style=""display: flex; justify-content: center; align-items: center;"">
                <img src=""images/causal/causal_series_4/causal_series_4_c.jpg"" style=""width: 300px; height: 300px;"" />
              </div>","null",""
"","","","","","html-button-response","20","87258","0.0-20.0","981A0785D1E5461BA32FC9F58BD22AD6","a32c3f03-0117-4496-a0a8-974470ec6b71","5479079d-2186-49b2-89e2-e3afab6abcc2","","973","
    <div style=""display: flex; justify-content: center; align-items: center;"">
      <img src=""images/blue_deck_1.png"" style=""width: 300px; height: 300px; margin-right: 10px;"" />
      <img src=""images/red_deck_2.png"" style=""width: 300px; height: 300px;"" />
    </div>","0","0"
"","","","","","html-keyboard-response","21","90433","0.0-21.0-0.0-0.0","981A0785D1E5461BA32FC9F58BD22AD6","a32c3f03-0117-4496-a0a8-974470ec6b71","5479079d-2186-49b2-89e2-e3afab6abcc2","","null","<div style=""display: flex; justify-content: center; align-items: center;"">
                <img src=""images/causal/causal_series_4/causal_series_4_d.jpg"" style=""width: 300px; height: 300px;"" />
              </div>","null",""
"","","","","","html-keyboard-response","22","93440","0.0-22.0","981A0785D1E5461BA32FC9F58BD22AD6","a32c3f03-0117-4496-a0a8-974470ec6b71","5479079d-2186-49b2-89e2-e3afab6abcc2","","null","<div style=""display: flex; justify-content: center; align-items: center;"">
                <img src=""images/other/blank.jpg"" style=""width: 300px; height: 300px;"" />
              </div>","null",""
"","","","","","html-keyboard-response","23","96447","0.0-23.0","981A0785D1E5461BA32FC9F58BD22AD6","a32c3f03-0117-4496-a0a8-974470ec6b71","5479079d-2186-49b2-89e2-e3afab6abcc2","","null","<div style=""display: flex; justify-content: center; align-items: center;"">
                <img src=""images/causal/causal_series_8/causal_series_8_a.jpg"" style=""width: 300px; height: 300px;"" />
              </div>","null",""
"","","","","","html-keyboard-response","24","99453","0.0-24.0","981A0785D1E5461BA32FC9F58BD22AD6","a32c3f03-0117-4496-a0a8-974470ec6b71","5479079d-2186-49b2-89e2-e3afab6abcc2","","null","<div style=""display: flex; justify-content: center; align-items: center;"">
                <img src=""images/causal/causal_series_8/causal_series_8_b.jpg"" style=""width: 300px; height: 300px;"" />
              </div>","null",""
"","","","","","html-keyboard-response","25","102622","0.0-25.0","981A0785D1E5461BA32FC9F58BD22AD6","a32c3f03-0117-4496-a0a8-974470ec6b71","5479079d-2186-49b2-89e2-e3afab6abcc2","","null","<div style=""display: flex; justify-content: center; align-items: center;"">
                <img src=""images/causal/causal_series_8/causal_series_8_c.jpg"" style=""width: 300px; height: 300px;"" />
              </div>","null",""
"","","","","","html-button-response","26","105502","0.0-26.0","981A0785D1E5461BA32FC9F58BD22AD6","a32c3f03-0117-4496-a0a8-974470ec6b71","5479079d-2186-49b2-89e2-e3afab6abcc2","","2879","
    <div style=""display: flex; justify-content: center; align-items: center;"">
      <img src=""images/blue_deck_1.png"" style=""width: 300px; height: 300px; margin-right: 10px;"" />
      <img src=""images/red_deck_2.png"" style=""width: 300px; height: 300px;"" />
    </div>","0","0"
"","","","","","html-keyboard-response","27","108507","0.0-27.0-0.0-0.0","981A0785D1E5461BA32FC9F58BD22AD6","a32c3f03-0117-4496-a0a8-974470ec6b71","5479079d-2186-49b2-89e2-e3afab6abcc2","","null","<div style=""display: flex; justify-content: center; align-items: center;"">
                <img src=""images/causal/causal_series_8/causal_series_8_d.jpg"" style=""width: 300px; height: 300px;"" />
              </div>","null",""
"","","","","","html-keyboard-response","28","111523","0.0-28.0","981A0785D1E5461BA32FC9F58BD22AD6","a32c3f03-0117-4496-a0a8-974470ec6b71","5479079d-2186-49b2-89e2-e3afab6abcc2","","null","<div style=""display: flex; justify-content: center; align-items: center;"">
                <img src=""images/other/blank.jpg"" style=""width: 300px; height: 300px;"" />
              </div>","null",""
"","","","","","html-keyboard-response","29","114535","0.0-29.0","981A0785D1E5461BA32FC9F58BD22AD6","a32c3f03-0117-4496-a0a8-974470ec6b71","5479079d-2186-49b2-89e2-e3afab6abcc2","","null","<div style=""display: flex; justify-content: center; align-items: center;"">
                <img src=""images/causal/causal_series_1/causal_series_1_a.jpg"" style=""width: 300px; height: 300px;"" />
              </div>","null",""
"","","","","","html-keyboard-response","30","117541","0.0-30.0","981A0785D1E5461BA32FC9F58BD22AD6","a32c3f03-0117-4496-a0a8-974470ec6b71","5479079d-2186-49b2-89e2-e3afab6abcc2","","null","<div style=""display: flex; justify-content: center; align-items: center;"">
                <img src=""images/causal/causal_series_1/causal_series_1_b.jpg"" style=""width: 300px; height: 300px;"" />
              </div>","null",""
"","","","","","html-keyboard-response","31","120545","0.0-31.0","981A0785D1E5461BA32FC9F58BD22AD6","a32c3f03-0117-4496-a0a8-974470ec6b71","5479079d-2186-49b2-89e2-e3afab6abcc2","","null","<div style=""display: flex; justify-content: center; align-items: center;"">
                <img src=""images/causal/causal_series_1/causal_series_1_c.jpg"" style=""width: 300px; height: 300px;"" />
              </div>","null",""
"","","","","","html-button-response","32","121399","0.0-32.0","981A0785D1E5461BA32FC9F58BD22AD6","a32c3f03-0117-4496-a0a8-974470ec6b71","5479079d-2186-49b2-89e2-e3afab6abcc2","","853","
    <div style=""display: flex; justify-content: center; align-items: center;"">
      <img src=""images/blue_deck_1.png"" style=""width: 300px; height: 300px; margin-right: 10px;"" />
      <img src=""images/red_deck_2.png"" style=""width: 300px; height: 300px;"" />
    </div>","1","1"
"","","","","","html-keyboard-response","33","124410","0.0-33.0-1.0-0.0","981A0785D1E5461BA32FC9F58BD22AD6","a32c3f03-0117-4496-a0a8-974470ec6b71","5479079d-2186-49b2-89e2-e3afab6abcc2","","null","<div style=""display: flex; justify-content: center; align-items: center;"">
                <img src=""images/semantic/semantic_series_1/semantic_series_1_d.jpg"" style=""width: 300px; height: 300px;"" />
              </div>","null",""
"","","","","","html-keyboard-response","34","127411","0.0-34.0","981A0785D1E5461BA32FC9F58BD22AD6","a32c3f03-0117-4496-a0a8-974470ec6b71","5479079d-2186-49b2-89e2-e3afab6abcc2","","null","<div style=""display: flex; justify-content: center; align-items: center;"">
                <img src=""images/other/blank.jpg"" style=""width: 300px; height: 300px;"" />
              </div>","null",""
"","","","","","html-keyboard-response","35","130416","0.0-35.0","981A0785D1E5461BA32FC9F58BD22AD6","a32c3f03-0117-4496-a0a8-974470ec6b71","5479079d-2186-49b2-89e2-e3afab6abcc2","","null","<div style=""display: flex; justify-content: center; align-items: center;"">
                <img src=""images/causal/causal_series_12/causal_series_12_a.jpg"" style=""width: 300px; height: 300px;"" />
              </div>","null",""
"","","","","","html-keyboard-response","36","133419","0.0-36.0","981A0785D1E5461BA32FC9F58BD22AD6","a32c3f03-0117-4496-a0a8-974470ec6b71","5479079d-2186-49b2-89e2-e3afab6abcc2","","null","<div style=""display: flex; justify-content: center; align-items: center;"">
                <img src=""images/causal/causal_series_12/causal_series_12_b.jpg"" style=""width: 300px; height: 300px;"" />
              </div>","null",""
"","","","","","html-keyboard-response","37","136424","0.0-37.0","981A0785D1E5461BA32FC9F58BD22AD6","a32c3f03-0117-4496-a0a8-974470ec6b71","5479079d-2186-49b2-89e2-e3afab6abcc2","","null","<div style=""display: flex; justify-content: center; align-items: center;"">
                <img src=""images/causal/causal_series_12/causal_series_12_c.jpg"" style=""width: 300px; height: 300px;"" />
              </div>","null",""
"","","","","","html-button-response","38","137286","0.0-38.0","981A0785D1E5461BA32FC9F58BD22AD6","a32c3f03-0117-4496-a0a8-974470ec6b71","5479079d-2186-49b2-89e2-e3afab6abcc2","","861","
    <div style=""display: flex; justify-content: center; align-items: center;"">
      <img src=""images/blue_deck_1.png"" style=""width: 300px; height: 300px; margin-right: 10px;"" />
      <img src=""images/red_deck_2.png"" style=""width: 300px; height: 300px;"" />
    </div>","0","0"
"","","","","","html-keyboard-response","39","140604","0.0-39.0-0.0-0.0","981A0785D1E5461BA32FC9F58BD22AD6","a32c3f03-0117-4496-a0a8-974470ec6b71","5479079d-2186-49b2-89e2-e3afab6abcc2","","null","<div style=""display: flex; justify-content: center; align-items: center;"">
                <img src=""images/causal/causal_series_12/causal_series_12_d.jpg"" style=""width: 300px; height: 300px;"" />
              </div>","null",""
"","","","","","html-keyboard-response","40","143620","0.0-40.0","981A0785D1E5461BA32FC9F58BD22AD6","a32c3f03-0117-4496-a0a8-974470ec6b71","5479079d-2186-49b2-89e2-e3afab6abcc2","","null","<div style=""display: flex; justify-content: center; align-items: center;"">
                <img src=""images/other/blank.jpg"" style=""width: 300px; height: 300px;"" />
              </div>","null",""
"","","","","","html-keyboard-response","41","146803","0.0-41.0","981A0785D1E5461BA32FC9F58BD22AD6","a32c3f03-0117-4496-a0a8-974470ec6b71","5479079d-2186-49b2-89e2-e3afab6abcc2","","null","<div style=""display: flex; justify-content: center; align-items: center;"">
                <img src=""images/causal/causal_series_16/causal_series_16_a.jpg"" style=""width: 300px; height: 300px;"" />
              </div>","null",""
"","","","","","html-keyboard-response","42","149814","0.0-42.0","981A0785D1E5461BA32FC9F58BD22AD6","a32c3f03-0117-4496-a0a8-974470ec6b71","5479079d-2186-49b2-89e2-e3afab6abcc2","","null","<div style=""display: flex; justify-content: center; align-items: center;"">
                <img src=""images/causal/causal_series_16/causal_series_16_b.jpg"" style=""width: 300px; height: 300px;"" />
              </div>","null",""
"","","","","","html-keyboard-response","43","152814","0.0-43.0","981A0785D1E5461BA32FC9F58BD22AD6","a32c3f03-0117-4496-a0a8-974470ec6b71","5479079d-2186-49b2-89e2-e3afab6abcc2","","null","<div style=""display: flex; justify-content: center; align-items: center;"">
                <img src=""images/causal/causal_series_16/causal_series_16_c.jpg"" style=""width: 300px; height: 300px;"" />
              </div>","null",""
"","","","","","html-button-response","44","153951","0.0-44.0","981A0785D1E5461BA32FC9F58BD22AD6","a32c3f03-0117-4496-a0a8-974470ec6b71","5479079d-2186-49b2-89e2-e3afab6abcc2","","1135","
    <div style=""display: flex; justify-content: center; align-items: center;"">
      <img src=""images/blue_deck_1.png"" style=""width: 300px; height: 300px; margin-right: 10px;"" />
      <img src=""images/red_deck_2.png"" style=""width: 300px; height: 300px;"" />
    </div>","1","1"
"","","","","","html-keyboard-response","45","157013","0.0-45.0-1.0-0.0","981A0785D1E5461BA32FC9F58BD22AD6","a32c3f03-0117-4496-a0a8-974470ec6b71","5479079d-2186-49b2-89e2-e3afab6abcc2","","null","<div style=""display: flex; justify-content: center; align-items: center;"">
                <img src=""images/semantic/semantic_series_16/semantic_series_16_d.jpg"" style=""width: 300px; height: 300px;"" />
              </div>","null",""
"","","","","","html-keyboard-response","46","160016","0.0-46.0","981A0785D1E5461BA32FC9F58BD22AD6","a32c3f03-0117-4496-a0a8-974470ec6b71","5479079d-2186-49b2-89e2-e3afab6abcc2","","null","<div style=""display: flex; justify-content: center; align-items: center;"">
                <img src=""images/other/blank.jpg"" style=""width: 300px; height: 300px;"" />
              </div>","null",""
"","","","","","html-keyboard-response","47","163021","0.0-47.0","981A0785D1E5461BA32FC9F58BD22AD6","a32c3f03-0117-4496-a0a8-974470ec6b71","5479079d-2186-49b2-89e2-e3afab6abcc2","","null","<div style=""display: flex; justify-content: center; align-items: center;"">
                <img src=""images/causal/causal_series_10/causal_series_10_a.jpg"" style=""width: 300px; height: 300px;"" />
              </div>","null",""
"","","","","","html-keyboard-response","48","166034","0.0-48.0","981A0785D1E5461BA32FC9F58BD22AD6","a32c3f03-0117-4496-a0a8-974470ec6b71","5479079d-2186-49b2-89e2-e3afab6abcc2","","null","<div style=""display: flex; justify-content: center; align-items: center;"">
                <img src=""images/causal/causal_series_10/causal_series_10_b.jpg"" style=""width: 300px; height: 300px;"" />
              </div>","null",""
"","","","","","html-keyboard-response","49","169052","0.0-49.0","981A0785D1E5461BA32FC9F58BD22AD6","a32c3f03-0117-4496-a0a8-974470ec6b71","5479079d-2186-49b2-89e2-e3afab6abcc2","","null","<div style=""display: flex; justify-content: center; align-items: center;"">
                <img src=""images/causal/causal_series_10/causal_series_10_c.jpg"" style=""width: 300px; height: 300px;"" />
              </div>","null",""
"","","","","","html-button-response","50","169840","0.0-50.0","981A0785D1E5461BA32FC9F58BD22AD6","a32c3f03-0117-4496-a0a8-974470ec6b71","5479079d-2186-49b2-89e2-e3afab6abcc2","","787","
    <div style=""display: flex; justify-content: center; align-items: center;"">
      <img src=""images/blue_deck_1.png"" style=""width: 300px; height: 300px; margin-right: 10px;"" />
      <img src=""images/red_deck_2.png"" style=""width: 300px; height: 300px;"" />
    </div>","0","0"
"","","","","","html-keyboard-response","51","173139","0.0-51.0-0.0-0.0","981A0785D1E5461BA32FC9F58BD22AD6","a32c3f03-0117-4496-a0a8-974470ec6b71","5479079d-2186-49b2-89e2-e3afab6abcc2","","null","<div style=""display: flex; justify-content: center; align-items: center;"">
                <img src=""images/causal/causal_series_10/causal_series_10_d.jpg"" style=""width: 300px; height: 300px;"" />
              </div>","null",""
"","","","","","html-keyboard-response","52","176151","0.0-52.0","981A0785D1E5461BA32FC9F58BD22AD6","a32c3f03-0117-4496-a0a8-974470ec6b71","5479079d-2186-49b2-89e2-e3afab6abcc2","","null","<div style=""display: flex; justify-content: center; align-items: center;"">
                <img src=""images/other/blank.jpg"" style=""width: 300px; height: 300px;"" />
              </div>","null",""
"","","","","","html-keyboard-response","53","179444","0.0-53.0","981A0785D1E5461BA32FC9F58BD22AD6","a32c3f03-0117-4496-a0a8-974470ec6b71","5479079d-2186-49b2-89e2-e3afab6abcc2","","null","<div style=""display: flex; justify-content: center; align-items: center;"">
                <img src=""images/causal/causal_series_17/causal_series_17_a.jpg"" style=""width: 300px; height: 300px;"" />
              </div>","null",""
"","","","","","html-keyboard-response","54","182458","0.0-54.0","981A0785D1E5461BA32FC9F58BD22AD6","a32c3f03-0117-4496-a0a8-974470ec6b71","5479079d-2186-49b2-89e2-e3afab6abcc2","","null","<div style=""display: flex; justify-content: center; align-items: center;"">
                <img src=""images/causal/causal_series_17/causal_series_17_b.jpg"" style=""width: 300px; height: 300px;"" />
              </div>","null",""
"","","","","","html-keyboard-response","55","185465","0.0-55.0","981A0785D1E5461BA32FC9F58BD22AD6","a32c3f03-0117-4496-a0a8-974470ec6b71","5479079d-2186-49b2-89e2-e3afab6abcc2","","null","<div style=""display: flex; justify-content: center; align-items: center;"">
                <img src=""images/causal/causal_series_17/causal_series_17_c.jpg"" style=""width: 300px; height: 300px;"" />
              </div>","null",""
"","","","","","html-button-response","56","186241","0.0-56.0","981A0785D1E5461BA32FC9F58BD22AD6","a32c3f03-0117-4496-a0a8-974470ec6b71","5479079d-2186-49b2-89e2-e3afab6abcc2","","776","
    <div style=""display: flex; justify-content: center; align-items: center;"">
      <img src=""images/blue_deck_1.png"" style=""width: 300px; height: 300px; margin-right: 10px;"" />
      <img src=""images/red_deck_2.png"" style=""width: 300px; height: 300px;"" />
    </div>","1","1"
"","","","","","html-keyboard-response","57","189533","0.0-57.0-1.0-0.0","981A0785D1E5461BA32FC9F58BD22AD6","a32c3f03-0117-4496-a0a8-974470ec6b71","5479079d-2186-49b2-89e2-e3afab6abcc2","","null","<div style=""display: flex; justify-content: center; align-items: center;"">
                <img src=""images/semantic/semantic_series_17/semantic_series_17_d.jpg"" style=""width: 300px; height: 300px;"" />
              </div>","null",""
"","","","","","html-keyboard-response","58","192536","0.0-58.0","981A0785D1E5461BA32FC9F58BD22AD6","a32c3f03-0117-4496-a0a8-974470ec6b71","5479079d-2186-49b2-89e2-e3afab6abcc2","","null","<div style=""display: flex; justify-content: center; align-items: center;"">
                <img src=""images/other/blank.jpg"" style=""width: 300px; height: 300px;"" />
              </div>","null",""
"","","","","","html-keyboard-response","59","195804","0.0-59.0","981A0785D1E5461BA32FC9F58BD22AD6","a32c3f03-0117-4496-a0a8-974470ec6b71","5479079d-2186-49b2-89e2-e3afab6abcc2","","null","<div style=""display: flex; justify-content: center; align-items: center;"">
                <img src=""images/causal/causal_series_13/causal_series_13_a.jpg"" style=""width: 300px; height: 300px;"" />
              </div>","null",""
"","","","","","html-keyboard-response","60","198807","0.0-60.0","981A0785D1E5461BA32FC9F58BD22AD6","a32c3f03-0117-4496-a0a8-974470ec6b71","5479079d-2186-49b2-89e2-e3afab6abcc2","","null","<div style=""display: flex; justify-content: center; align-items: center;"">
                <img src=""images/causal/causal_series_13/causal_series_13_b.jpg"" style=""width: 300px; height: 300px;"" />
              </div>","null",""
"","","","","","html-keyboard-response","61","201818","0.0-61.0","981A0785D1E5461BA32FC9F58BD22AD6","a32c3f03-0117-4496-a0a8-974470ec6b71","5479079d-2186-49b2-89e2-e3afab6abcc2","","null","<div style=""display: flex; justify-content: center; align-items: center;"">
                <img src=""images/causal/causal_series_13/causal_series_13_c.jpg"" style=""width: 300px; height: 300px;"" />
              </div>","null",""
"","","","","","html-button-response","62","202707","0.0-62.0","981A0785D1E5461BA32FC9F58BD22AD6","a32c3f03-0117-4496-a0a8-974470ec6b71","5479079d-2186-49b2-89e2-e3afab6abcc2","","889","
    <div style=""display: flex; justify-content: center; align-items: center;"">
      <img src=""images/blue_deck_1.png"" style=""width: 300px; height: 300px; margin-right: 10px;"" />
      <img src=""images/red_deck_2.png"" style=""width: 300px; height: 300px;"" />
    </div>","0","0"
"","","","","","html-keyboard-response","63","205715","0.0-63.0-0.0-0.0","981A0785D1E5461BA32FC9F58BD22AD6","a32c3f03-0117-4496-a0a8-974470ec6b71","5479079d-2186-49b2-89e2-e3afab6abcc2","","null","<div style=""display: flex; justify-content: center; align-items: center;"">
                <img src=""images/causal/causal_series_13/causal_series_13_d.jpg"" style=""width: 300px; height: 300px;"" />
              </div>","null",""
"","","","","","html-keyboard-response","64","208722","0.0-64.0","981A0785D1E5461BA32FC9F58BD22AD6","a32c3f03-0117-4496-a0a8-974470ec6b71","5479079d-2186-49b2-89e2-e3afab6abcc2","","null","<div style=""display: flex; justify-content: center; align-items: center;"">
                <img src=""images/other/blank.jpg"" style=""width: 300px; height: 300px;"" />
              </div>","null",""
"","","","","","html-keyboard-response","65","211733","0.0-65.0","981A0785D1E5461BA32FC9F58BD22AD6","a32c3f03-0117-4496-a0a8-974470ec6b71","5479079d-2186-49b2-89e2-e3afab6abcc2","","null","<div style=""display: flex; justify-content: center; align-items: center;"">
                <img src=""images/causal/causal_series_9/causal_series_9_a.jpg"" style=""width: 300px; height: 300px;"" />
              </div>","null",""
"","","","","","html-keyboard-response","66","214736","0.0-66.0","981A0785D1E5461BA32FC9F58BD22AD6","a32c3f03-0117-4496-a0a8-974470ec6b71","5479079d-2186-49b2-89e2-e3afab6abcc2","","null","<div style=""display: flex; justify-content: center; align-items: center;"">
                <img src=""images/causal/causal_series_9/causal_series_9_b.jpg"" style=""width: 300px; height: 300px;"" />
              </div>","null",""
"","","","","","html-keyboard-response","67","217747","0.0-67.0","981A0785D1E5461BA32FC9F58BD22AD6","a32c3f03-0117-4496-a0a8-974470ec6b71","5479079d-2186-49b2-89e2-e3afab6abcc2","","null","<div style=""display: flex; justify-content: center; align-items: center;"">
                <img src=""images/causal/causal_series_9/causal_series_9_c.jpg"" style=""width: 300px; height: 300px;"" />
              </div>","null",""
"","","","","","html-button-response","68","218535","0.0-68.0","981A0785D1E5461BA32FC9F58BD22AD6","a32c3f03-0117-4496-a0a8-974470ec6b71","5479079d-2186-49b2-89e2-e3afab6abcc2","","786","
    <div style=""display: flex; justify-content: center; align-items: center;"">
      <img src=""images/blue_deck_1.png"" style=""width: 300px; height: 300px; margin-right: 10px;"" />
      <img src=""images/red_deck_2.png"" style=""width: 300px; height: 300px;"" />
    </div>","1","1"
"","","","","","html-keyboard-response","69","221550","0.0-69.0-1.0-0.0","981A0785D1E5461BA32FC9F58BD22AD6","a32c3f03-0117-4496-a0a8-974470ec6b71","5479079d-2186-49b2-89e2-e3afab6abcc2","","null","<div style=""display: flex; justify-content: center; align-items: center;"">
                <img src=""images/semantic/semantic_series_9/semantic_series_9_d.jpg"" style=""width: 300px; height: 300px;"" />
              </div>","null",""
"","","","","","html-keyboard-response","70","224564","0.0-70.0","981A0785D1E5461BA32FC9F58BD22AD6","a32c3f03-0117-4496-a0a8-974470ec6b71","5479079d-2186-49b2-89e2-e3afab6abcc2","","null","<div style=""display: flex; justify-content: center; align-items: center;"">
                <img src=""images/other/blank.jpg"" style=""width: 300px; height: 300px;"" />
              </div>","null",""
"","","","","","html-keyboard-response","71","227565","0.0-71.0","981A0785D1E5461BA32FC9F58BD22AD6","a32c3f03-0117-4496-a0a8-974470ec6b71","5479079d-2186-49b2-89e2-e3afab6abcc2","","null","<div style=""display: flex; justify-content: center; align-items: center;"">
                <img src=""images/causal/causal_series_15/causal_series_15_a.jpg"" style=""width: 300px; height: 300px;"" />
              </div>","null",""
"","","","","","html-keyboard-response","72","230568","0.0-72.0","981A0785D1E5461BA32FC9F58BD22AD6","a32c3f03-0117-4496-a0a8-974470ec6b71","5479079d-2186-49b2-89e2-e3afab6abcc2","","null","<div style=""display: flex; justify-content: center; align-items: center;"">
                <img src=""images/causal/causal_series_15/causal_series_15_b.jpg"" style=""width: 300px; height: 300px;"" />
              </div>","null",""
"","","","","","html-keyboard-response","73","233569","0.0-73.0","981A0785D1E5461BA32FC9F58BD22AD6","a32c3f03-0117-4496-a0a8-974470ec6b71","5479079d-2186-49b2-89e2-e3afab6abcc2","","null","<div style=""display: flex; justify-content: center; align-items: center;"">
                <img src=""images/causal/causal_series_15/causal_series_15_c.jpg"" style=""width: 300px; height: 300px;"" />
              </div>","null",""
"","","","","","html-button-response","74","234337","0.0-74.0","981A0785D1E5461BA32FC9F58BD22AD6","a32c3f03-0117-4496-a0a8-974470ec6b71","5479079d-2186-49b2-89e2-e3afab6abcc2","","768","
    <div style=""display: flex; justify-content: center; align-items: center;"">
      <img src=""images/blue_deck_1.png"" style=""width: 300px; height: 300px; margin-right: 10px;"" />
      <img src=""images/red_deck_2.png"" style=""width: 300px; height: 300px;"" />
    </div>","1","1"
"","","","","","html-keyboard-response","75","237339","0.0-75.0-1.0-0.0","981A0785D1E5461BA32FC9F58BD22AD6","a32c3f03-0117-4496-a0a8-974470ec6b71","5479079d-2186-49b2-89e2-e3afab6abcc2","","null","<div style=""display: flex; justify-content: center; align-items: center;"">
                <img src=""images/semantic/semantic_series_15/semantic_series_15_d.jpg"" style=""width: 300px; height: 300px;"" />
              </div>","null",""
"","","","","","html-keyboard-response","76","240685","0.0-76.0","981A0785D1E5461BA32FC9F58BD22AD6","a32c3f03-0117-4496-a0a8-974470ec6b71","5479079d-2186-49b2-89e2-e3afab6abcc2","","null","<div style=""display: flex; justify-content: center; align-items: center;"">
                <img src=""images/other/blank.jpg"" style=""width: 300px; height: 300px;"" />
              </div>","null",""
"","","","","","html-keyboard-response","77","243686","0.0-77.0","981A0785D1E5461BA32FC9F58BD22AD6","a32c3f03-0117-4496-a0a8-974470ec6b71","5479079d-2186-49b2-89e2-e3afab6abcc2","","null","<div style=""display: flex; justify-content: center; align-items: center;"">
                <img src=""images/causal/causal_series_5/causal_series_5_a.jpg"" style=""width: 300px; height: 300px;"" />
              </div>","null",""
"","","","","","html-keyboard-response","78","246696","0.0-78.0","981A0785D1E5461BA32FC9F58BD22AD6","a32c3f03-0117-4496-a0a8-974470ec6b71","5479079d-2186-49b2-89e2-e3afab6abcc2","","null","<div style=""display: flex; justify-content: center; align-items: center;"">
                <img src=""images/causal/causal_series_5/causal_series_5_b.jpg"" style=""width: 300px; height: 300px;"" />
              </div>","null",""
"","","","","","html-keyboard-response","79","249708","0.0-79.0","981A0785D1E5461BA32FC9F58BD22AD6","a32c3f03-0117-4496-a0a8-974470ec6b71","5479079d-2186-49b2-89e2-e3afab6abcc2","","null","<div style=""display: flex; justify-content: center; align-items: center;"">
                <img src=""images/causal/causal_series_5/causal_series_5_c.jpg"" style=""width: 300px; height: 300px;"" />
              </div>","null",""
"","","","","","html-button-response","80","250443","0.0-80.0","981A0785D1E5461BA32FC9F58BD22AD6","a32c3f03-0117-4496-a0a8-974470ec6b71","5479079d-2186-49b2-89e2-e3afab6abcc2","","735","
    <div style=""display: flex; justify-content: center; align-items: center;"">
      <img src=""images/blue_deck_1.png"" style=""width: 300px; height: 300px; margin-right: 10px;"" />
      <img src=""images/red_deck_2.png"" style=""width: 300px; height: 300px;"" />
    </div>","0","0"
"","","","","","html-keyboard-response","81","253457","0.0-81.0-0.0-0.0","981A0785D1E5461BA32FC9F58BD22AD6","a32c3f03-0117-4496-a0a8-974470ec6b71","5479079d-2186-49b2-89e2-e3afab6abcc2","","null","<div style=""display: flex; justify-content: center; align-items: center;"">
                <img src=""images/causal/causal_series_5/causal_series_5_d.jpg"" style=""width: 300px; height: 300px;"" />
              </div>","null",""
"","","","","","html-keyboard-response","82","256522","0.0-82.0","981A0785D1E5461BA32FC9F58BD22AD6","a32c3f03-0117-4496-a0a8-974470ec6b71","5479079d-2186-49b2-89e2-e3afab6abcc2","","null","<div style=""display: flex; justify-content: center; align-items: center;"">
                <img src=""images/other/blank.jpg"" style=""width: 300px; height: 300px;"" />
              </div>","null",""
"","","","","","html-keyboard-response","83","259563","0.0-83.0","981A0785D1E5461BA32FC9F58BD22AD6","a32c3f03-0117-4496-a0a8-974470ec6b71","5479079d-2186-49b2-89e2-e3afab6abcc2","","null","<div style=""display: flex; justify-content: center; align-items: center;"">
                <img src=""images/causal/causal_series_7/causal_series_7_a.jpg"" style=""width: 300px; height: 300px;"" />
              </div>","null",""
"","","","","","html-keyboard-response","84","262568","0.0-84.0","981A0785D1E5461BA32FC9F58BD22AD6","a32c3f03-0117-4496-a0a8-974470ec6b71","5479079d-2186-49b2-89e2-e3afab6abcc2","","null","<div style=""display: flex; justify-content: center; align-items: center;"">
                <img src=""images/causal/causal_series_7/causal_series_7_b.jpg"" style=""width: 300px; height: 300px;"" />
              </div>","null",""
"","","","","","html-keyboard-response","85","265730","0.0-85.0","981A0785D1E5461BA32FC9F58BD22AD6","a32c3f03-0117-4496-a0a8-974470ec6b71","5479079d-2186-49b2-89e2-e3afab6abcc2","","null","<div style=""display: flex; justify-content: center; align-items: center;"">
                <img src=""images/causal/causal_series_7/causal_series_7_c.jpg"" style=""width: 300px; height: 300px;"" />
              </div>","null",""
"","","","","","html-button-response","86","266412","0.0-86.0","981A0785D1E5461BA32FC9F58BD22AD6","a32c3f03-0117-4496-a0a8-974470ec6b71","5479079d-2186-49b2-89e2-e3afab6abcc2","","683","
    <div style=""display: flex; justify-content: center; align-items: center;"">
      <img src=""images/blue_deck_1.png"" style=""width: 300px; height: 300px; margin-right: 10px;"" />
      <img src=""images/red_deck_2.png"" style=""width: 300px; height: 300px;"" />
    </div>","0","0"
"","","","","","html-keyboard-response","87","269417","0.0-87.0-0.0-0.0","981A0785D1E5461BA32FC9F58BD22AD6","a32c3f03-0117-4496-a0a8-974470ec6b71","5479079d-2186-49b2-89e2-e3afab6abcc2","","null","<div style=""display: flex; justify-content: center; align-items: center;"">
                <img src=""images/causal/causal_series_7/causal_series_7_d.jpg"" style=""width: 300px; height: 300px;"" />
              </div>","null",""
"","","","","","html-keyboard-response","88","272420","0.0-88.0","981A0785D1E5461BA32FC9F58BD22AD6","a32c3f03-0117-4496-a0a8-974470ec6b71","5479079d-2186-49b2-89e2-e3afab6abcc2","","null","<div style=""display: flex; justify-content: center; align-items: center;"">
                <img src=""images/other/blank.jpg"" style=""width: 300px; height: 300px;"" />
              </div>","null",""
"","","","","","html-keyboard-response","89","275743","0.0-89.0","981A0785D1E5461BA32FC9F58BD22AD6","a32c3f03-0117-4496-a0a8-974470ec6b71","5479079d-2186-49b2-89e2-e3afab6abcc2","","null","<div style=""display: flex; justify-content: center; align-items: center;"">
                <img src=""images/causal/causal_series_18/causal_series_18_a.jpg"" style=""width: 300px; height: 300px;"" />
              </div>","null",""
"","","","","","html-keyboard-response","90","278759","0.0-90.0","981A0785D1E5461BA32FC9F58BD22AD6","a32c3f03-0117-4496-a0a8-974470ec6b71","5479079d-2186-49b2-89e2-e3afab6abcc2","","null","<div style=""display: flex; justify-content: center; align-items: center;"">
                <img src=""images/causal/causal_series_18/causal_series_18_b.jpg"" style=""width: 300px; height: 300px;"" />
              </div>","null",""
"","","","","","html-keyboard-response","91","281765","0.0-91.0","981A0785D1E5461BA32FC9F58BD22AD6","a32c3f03-0117-4496-a0a8-974470ec6b71","5479079d-2186-49b2-89e2-e3afab6abcc2","","null","<div style=""display: flex; justify-content: center; align-items: center;"">
                <img src=""images/causal/causal_series_18/causal_series_18_c.jpg"" style=""width: 300px; height: 300px;"" />
              </div>","null",""
"","","","","","html-button-response","92","282458","0.0-92.0","981A0785D1E5461BA32FC9F58BD22AD6","a32c3f03-0117-4496-a0a8-974470ec6b71","5479079d-2186-49b2-89e2-e3afab6abcc2","","693","
    <div style=""display: flex; justify-content: center; align-items: center;"">
      <img src=""images/blue_deck_1.png"" style=""width: 300px; height: 300px; margin-right: 10px;"" />
      <img src=""images/red_deck_2.png"" style=""width: 300px; height: 300px;"" />
    </div>","1","1"
"","","","","","html-keyboard-response","93","285464","0.0-93.0-1.0-0.0","981A0785D1E5461BA32FC9F58BD22AD6","a32c3f03-0117-4496-a0a8-974470ec6b71","5479079d-2186-49b2-89e2-e3afab6abcc2","","null","<div style=""display: flex; justify-content: center; align-items: center;"">
                <img src=""images/semantic/semantic_series_18/semantic_series_18_d.jpg"" style=""width: 300px; height: 300px;"" />
              </div>","null",""
"","","","","","html-keyboard-response","94","288467","0.0-94.0","981A0785D1E5461BA32FC9F58BD22AD6","a32c3f03-0117-4496-a0a8-974470ec6b71","5479079d-2186-49b2-89e2-e3afab6abcc2","","null","<div style=""display: flex; justify-content: center; align-items: center;"">
                <img src=""images/other/blank.jpg"" style=""width: 300px; height: 300px;"" />
              </div>","null",""
"","","","","","html-keyboard-response","95","291493","0.0-95.0","981A0785D1E5461BA32FC9F58BD22AD6","a32c3f03-0117-4496-a0a8-974470ec6b71","5479079d-2186-49b2-89e2-e3afab6abcc2","","null","<div style=""display: flex; justify-content: center; align-items: center;"">
                <img src=""images/causal/causal_series_11/causal_series_11_a.jpg"" style=""width: 300px; height: 300px;"" />
              </div>","null",""
"","","","","","html-keyboard-response","96","294639","0.0-96.0","981A0785D1E5461BA32FC9F58BD22AD6","a32c3f03-0117-4496-a0a8-974470ec6b71","5479079d-2186-49b2-89e2-e3afab6abcc2","","null","<div style=""display: flex; justify-content: center; align-items: center;"">
                <img src=""images/causal/causal_series_11/causal_series_11_b.jpg"" style=""width: 300px; height: 300px;"" />
              </div>","null",""
"","","","","","html-keyboard-response","97","297650","0.0-97.0","981A0785D1E5461BA32FC9F58BD22AD6","a32c3f03-0117-4496-a0a8-974470ec6b71","5479079d-2186-49b2-89e2-e3afab6abcc2","","null","<div style=""display: flex; justify-content: center; align-items: center;"">
                <img src=""images/causal/causal_series_11/causal_series_11_c.jpg"" style=""width: 300px; height: 300px;"" />
              </div>","null",""
"","","","","","html-button-response","98","298260","0.0-98.0","981A0785D1E5461BA32FC9F58BD22AD6","a32c3f03-0117-4496-a0a8-974470ec6b71","5479079d-2186-49b2-89e2-e3afab6abcc2","","610","
    <div style=""display: flex; justify-content: center; align-items: center;"">
      <img src=""images/blue_deck_1.png"" style=""width: 300px; height: 300px; margin-right: 10px;"" />
      <img src=""images/red_deck_2.png"" style=""width: 300px; height: 300px;"" />
    </div>","0","0"
"","","","","","html-keyboard-response","99","301267","0.0-99.0-0.0-0.0","981A0785D1E5461BA32FC9F58BD22AD6","a32c3f03-0117-4496-a0a8-974470ec6b71","5479079d-2186-49b2-89e2-e3afab6abcc2","","null","<div style=""display: flex; justify-content: center; align-items: center;"">
                <img src=""images/causal/causal_series_11/causal_series_11_d.jpg"" style=""width: 300px; height: 300px;"" />
              </div>","null",""
"","","","","","html-keyboard-response","100","304281","0.0-100.0","981A0785D1E5461BA32FC9F58BD22AD6","a32c3f03-0117-4496-a0a8-974470ec6b71","5479079d-2186-49b2-89e2-e3afab6abcc2","","null","<div style=""display: flex; justify-content: center; align-items: center;"">
                <img src=""images/other/blank.jpg"" style=""width: 300px; height: 300px;"" />
              </div>","null",""
"","","","","","html-keyboard-response","101","307295","0.0-101.0","981A0785D1E5461BA32FC9F58BD22AD6","a32c3f03-0117-4496-a0a8-974470ec6b71","5479079d-2186-49b2-89e2-e3afab6abcc2","","null","<div style=""display: flex; justify-content: center; align-items: center;"">
                <img src=""images/causal/causal_series_14/causal_series_14_a.jpg"" style=""width: 300px; height: 300px;"" />
              </div>","null",""
"","","","","","html-keyboard-response","102","310307","0.0-102.0","981A0785D1E5461BA32FC9F58BD22AD6","a32c3f03-0117-4496-a0a8-974470ec6b71","5479079d-2186-49b2-89e2-e3afab6abcc2","","null","<div style=""display: flex; justify-content: center; align-items: center;"">
                <img src=""images/causal/causal_series_14/causal_series_14_b.jpg"" style=""width: 300px; height: 300px;"" />
              </div>","null",""
"","","","","","html-keyboard-response","103","313311","0.0-103.0","981A0785D1E5461BA32FC9F58BD22AD6","a32c3f03-0117-4496-a0a8-974470ec6b71","5479079d-2186-49b2-89e2-e3afab6abcc2","","null","<div style=""display: flex; justify-content: center; align-items: center;"">
                <img src=""images/causal/causal_series_14/causal_series_14_c.jpg"" style=""width: 300px; height: 300px;"" />
              </div>","null",""
"","","","","","html-button-response","104","313924","0.0-104.0","981A0785D1E5461BA32FC9F58BD22AD6","a32c3f03-0117-4496-a0a8-974470ec6b71","5479079d-2186-49b2-89e2-e3afab6abcc2","","612","
    <div style=""display: flex; justify-content: center; align-items: center;"">
      <img src=""images/blue_deck_1.png"" style=""width: 300px; height: 300px; margin-right: 10px;"" />
      <img src=""images/red_deck_2.png"" style=""width: 300px; height: 300px;"" />
    </div>","1","1"
"","","","","","html-keyboard-response","105","316931","0.0-105.0-1.0-0.0","981A0785D1E5461BA32FC9F58BD22AD6","a32c3f03-0117-4496-a0a8-974470ec6b71","5479079d-2186-49b2-89e2-e3afab6abcc2","","null","<div style=""display: flex; justify-content: center; align-items: center;"">
                <img src=""images/semantic/semantic_series_14/semantic_series_14_d.jpg"" style=""width: 300px; height: 300px;"" />
              </div>","null",""
"","","","","","html-keyboard-response","106","319943","0.0-106.0","981A0785D1E5461BA32FC9F58BD22AD6","a32c3f03-0117-4496-a0a8-974470ec6b71","5479079d-2186-49b2-89e2-e3afab6abcc2","","null","<div style=""display: flex; justify-content: center; align-items: center;"">
                <img src=""images/other/blank.jpg"" style=""width: 300px; height: 300px;"" />
              </div>","null",""
"","","","","","html-keyboard-response","107","322948","0.0-107.0","981A0785D1E5461BA32FC9F58BD22AD6","a32c3f03-0117-4496-a0a8-974470ec6b71","5479079d-2186-49b2-89e2-e3afab6abcc2","","null","<div style=""display: flex; justify-content: center; align-items: center;"">
                <img src=""images/causal/causal_series_2/causal_series_2_a.jpg"" style=""width: 300px; height: 300px;"" />
              </div>","null",""
"","","","","","html-keyboard-response","108","325960","0.0-108.0","981A0785D1E5461BA32FC9F58BD22AD6","a32c3f03-0117-4496-a0a8-974470ec6b71","5479079d-2186-49b2-89e2-e3afab6abcc2","","null","<div style=""display: flex; justify-content: center; align-items: center;"">
                <img src=""images/causal/causal_series_2/causal_series_2_b.jpg"" style=""width: 300px; height: 300px;"" />
              </div>","null",""
"","","","","","html-keyboard-response","109","329219","0.0-109.0","981A0785D1E5461BA32FC9F58BD22AD6","a32c3f03-0117-4496-a0a8-974470ec6b71","5479079d-2186-49b2-89e2-e3afab6abcc2","","null","<div style=""display: flex; justify-content: center; align-items: center;"">
                <img src=""images/causal/causal_series_2/causal_series_2_c.jpg"" style=""width: 300px; height: 300px;"" />
              </div>","null",""
"","","","","","html-button-response","110","329735","0.0-110.0","981A0785D1E5461BA32FC9F58BD22AD6","a32c3f03-0117-4496-a0a8-974470ec6b71","5479079d-2186-49b2-89e2-e3afab6abcc2","","516","
    <div style=""display: flex; justify-content: center; align-items: center;"">
      <img src=""images/blue_deck_1.png"" style=""width: 300px; height: 300px; margin-right: 10px;"" />
      <img src=""images/red_deck_2.png"" style=""width: 300px; height: 300px;"" />
    </div>","0","0"
"","","","","","html-keyboard-response","111","332741","0.0-111.0-0.0-0.0","981A0785D1E5461BA32FC9F58BD22AD6","a32c3f03-0117-4496-a0a8-974470ec6b71","5479079d-2186-49b2-89e2-e3afab6abcc2","","null","<div style=""display: flex; justify-content: center; align-items: center;"">
                <img src=""images/causal/causal_series_2/causal_series_2_d.jpg"" style=""width: 300px; height: 300px;"" />
              </div>","null",""
"","","","","","html-keyboard-response","112","335745","0.0-112.0","981A0785D1E5461BA32FC9F58BD22AD6","a32c3f03-0117-4496-a0a8-974470ec6b71","5479079d-2186-49b2-89e2-e3afab6abcc2","","null","<div style=""display: flex; justify-content: center; align-items: center;"">
                <img src=""images/other/blank.jpg"" style=""width: 300px; height: 300px;"" />
              </div>","null",""
"","","","","","survey-text","113","350688","0.0-113.0","981A0785D1E5461BA32FC9F58BD22AD6","a32c3f03-0117-4496-a0a8-974470ec6b71","5479079d-2186-49b2-89e2-e3afab6abcc2","","14911","","{""Q0"":""Blue desk continues the story, red deck jumps to a different story.""}",""
"","","","","","survey-text","114","359162","0.0-114.0","981A0785D1E5461BA32FC9F58BD22AD6","a32c3f03-0117-4496-a0a8-974470ec6b71","5479079d-2186-49b2-89e2-e3afab6abcc2","","8472","","{""Q0"":""Blue""}",""
"","","","","","html-button-response","115","370642","0.0-115.0","981A0785D1E5461BA32FC9F58BD22AD6","a32c3f03-0117-4496-a0a8-974470ec6b71","5479079d-2186-49b2-89e2-e3afab6abcc2","","11480","Which color deck does the fourth image continue the story from the series?","1",""
"","","","","","html-button-response","116","372821","0.0-116.0","981A0785D1E5461BA32FC9F58BD22AD6","a32c3f03-0117-4496-a0a8-974470ec6b71","5479079d-2186-49b2-89e2-e3afab6abcc2","","2178","Which color deck does the fourth image not follow the story from the series?","0",""
"","","","","","survey-text","117","379720","0.0-117.0","981A0785D1E5461BA32FC9F58BD22AD6","a32c3f03-0117-4496-a0a8-974470ec6b71","5479079d-2186-49b2-89e2-e3afab6abcc2","","6890","","{""Q0"":""MALE"",""Q1"":""34""}",""
"","","","","","instructions","118","385926","0.0-118.0","981A0785D1E5461BA32FC9F58BD22AD6","a32c3f03-0117-4496-a0a8-974470ec6b71","5479079d-2186-49b2-89e2-e3afab6abcc2","[{""page_index"":0,""viewing_time"":6205}]","6205","","",""
