"success","timeout","failed_images","failed_audio","failed_video","trial_type","trial_index","time_elapsed","internal_node_id","subject","subject_id","study_id","session_id","urlvar","current_url","view_history","rt","stimulus","response","choice","question_order"
"true","false","[]","[]","[]","preload","0","1927","0.0-0.0","8B6AB1EB04274208B2188E31FB13D10E","8B6AB1EB04274208B2188E31FB13D10E","5a7b58b4-4017-447a-9ad2-d2bb922e9b1f","e622c465-ee29-4445-8260-1f3431e06587","{""participantId"":""8B6AB1EB04274208B2188E31FB13D10E"",""assignmentId"":""5a7b58b4-4017-447a-9ad2-d2bb922e9b1f"",""projectId"":""e622c465-ee29-4445-8260-1f3431e06587""}","https://test12345.live/?participantId=8B6AB1EB04274208B2188E31FB13D10E&assignmentId=5a7b58b4-4017-447a-9ad2-d2bb922e9b1f&projectId=e622c465-ee29-4445-8260-1f3431e06587","","","","","",""
"","","","","","instructions","1","3160","0.0-1.0","8B6AB1EB04274208B2188E31FB13D10E","8B6AB1EB04274208B2188E31FB13D10E","5a7b58b4-4017-447a-9ad2-d2bb922e9b1f","e622c465-ee29-4445-8260-1f3431e06587","{""participantId"":""8B6AB1EB04274208B2188E31FB13D10E"",""assignmentId"":""5a7b58b4-4017-447a-9ad2-d2bb922e9b1f"",""projectId"":""e622c465-ee29-4445-8260-1f3431e06587""}","https://test12345.live/?participantId=8B6AB1EB04274208B2188E31FB13D10E&assignmentId=5a7b58b4-4017-447a-9ad2-d2bb922e9b1f&projectId=e622c465-ee29-4445-8260-1f3431e06587","[{""page_index"":0,""viewing_time"":1232}]","1232","","","",""
"","","","","","instructions","2","29623","0.0-2.0","8B6AB1EB04274208B2188E31FB13D10E","8B6AB1EB04274208B2188E31FB13D10E","5a7b58b4-4017-447a-9ad2-d2bb922e9b1f","e622c465-ee29-4445-8260-1f3431e06587","{""participantId"":""8B6AB1EB04274208B2188E31FB13D10E"",""assignmentId"":""5a7b58b4-4017-447a-9ad2-d2bb922e9b1f"",""projectId"":""e622c465-ee29-4445-8260-1f3431e06587""}","https://test12345.live/?participantId=8B6AB1EB04274208B2188E31FB13D10E&assignmentId=5a7b58b4-4017-447a-9ad2-d2bb922e9b1f&projectId=e622c465-ee29-4445-8260-1f3431e06587","[{""page_index"":0,""viewing_time"":26462}]","26462","","","",""
"true","","","","","fullscreen","3","33211","0.0-3.0","8B6AB1EB04274208B2188E31FB13D10E","8B6AB1EB04274208B2188E31FB13D10E","5a7b58b4-4017-447a-9ad2-d2bb922e9b1f","e622c465-ee29-4445-8260-1f3431e06587","{""participantId"":""8B6AB1EB04274208B2188E31FB13D10E"",""assignmentId"":""5a7b58b4-4017-447a-9ad2-d2bb922e9b1f"",""projectId"":""e622c465-ee29-4445-8260-1f3431e06587""}","https://test12345.live/?participantId=8B6AB1EB04274208B2188E31FB13D10E&assignmentId=5a7b58b4-4017-447a-9ad2-d2bb922e9b1f&projectId=e622c465-ee29-4445-8260-1f3431e06587","","2583","","","",""
"","","","","","instructions","4","41389","0.0-4.0","8B6AB1EB04274208B2188E31FB13D10E","8B6AB1EB04274208B2188E31FB13D10E","5a7b58b4-4017-447a-9ad2-d2bb922e9b1f","e622c465-ee29-4445-8260-1f3431e06587","{""participantId"":""8B6AB1EB04274208B2188E31FB13D10E"",""assignmentId"":""5a7b58b4-4017-447a-9ad2-d2bb922e9b1f"",""projectId"":""e622c465-ee29-4445-8260-1f3431e06587""}","https://test12345.live/?participantId=8B6AB1EB04274208B2188E31FB13D10E&assignmentId=5a7b58b4-4017-447a-9ad2-d2bb922e9b1f&projectId=e622c465-ee29-4445-8260-1f3431e06587","[{""page_index"":0,""viewing_time"":8177}]","8177","","","",""
"","","","","","html-button-response","5","46377","0.0-5.0","8B6AB1EB04274208B2188E31FB13D10E","8B6AB1EB04274208B2188E31FB13D10E","5a7b58b4-4017-447a-9ad2-d2bb922e9b1f","e622c465-ee29-4445-8260-1f3431e06587","{""participantId"":""8B6AB1EB04274208B2188E31FB13D10E"",""assignmentId"":""5a7b58b4-4017-447a-9ad2-d2bb922e9b1f"",""projectId"":""e622c465-ee29-4445-8260-1f3431e06587""}","https://test12345.live/?participantId=8B6AB1EB04274208B2188E31FB13D10E&assignmentId=5a7b58b4-4017-447a-9ad2-d2bb922e9b1f&projectId=e622c465-ee29-4445-8260-1f3431e06587","","4987","
    <div style=""display: flex; justify-content: center; align-items: center;"">
      <img src=""images/blue_deck_1.png"" style=""width: 300px; height: 300px; margin-right: 10px;"" />
      <img src=""images/red_deck_2.png"" style=""width: 300px; height: 300px;"" />
    </div>","0","0",""
"","","","","","html-keyboard-response","6","49380","0.0-6.0-0.0","8B6AB1EB04274208B2188E31FB13D10E","8B6AB1EB04274208B2188E31FB13D10E","5a7b58b4-4017-447a-9ad2-d2bb922e9b1f","e622c465-ee29-4445-8260-1f3431e06587","{""participantId"":""8B6AB1EB04274208B2188E31FB13D10E"",""assignmentId"":""5a7b58b4-4017-447a-9ad2-d2bb922e9b1f"",""projectId"":""e622c465-ee29-4445-8260-1f3431e06587""}","https://test12345.live/?participantId=8B6AB1EB04274208B2188E31FB13D10E&assignmentId=5a7b58b4-4017-447a-9ad2-d2bb922e9b1f&projectId=e622c465-ee29-4445-8260-1f3431e06587","","null","<div style=""display: flex; justify-content: center; align-items: center;"">
                    <img src=""images/causal/causal_series_2/causal_series_2_a.jpg"" style=""width: 300px; height: 300px;"" />
                  </div>","null","",""
"","","","","","html-keyboard-response","7","52383","0.0-6.0-1.0","8B6AB1EB04274208B2188E31FB13D10E","8B6AB1EB04274208B2188E31FB13D10E","5a7b58b4-4017-447a-9ad2-d2bb922e9b1f","e622c465-ee29-4445-8260-1f3431e06587","{""participantId"":""8B6AB1EB04274208B2188E31FB13D10E"",""assignmentId"":""5a7b58b4-4017-447a-9ad2-d2bb922e9b1f"",""projectId"":""e622c465-ee29-4445-8260-1f3431e06587""}","https://test12345.live/?participantId=8B6AB1EB04274208B2188E31FB13D10E&assignmentId=5a7b58b4-4017-447a-9ad2-d2bb922e9b1f&projectId=e622c465-ee29-4445-8260-1f3431e06587","","null","<div style=""display: flex; justify-content: center; align-items: center;"">
                    <img src=""images/causal/causal_series_2/causal_series_2_b.jpg"" style=""width: 300px; height: 300px;"" />
                  </div>","null","",""
"","","","","","html-keyboard-response","8","55386","0.0-6.0-2.0","8B6AB1EB04274208B2188E31FB13D10E","8B6AB1EB04274208B2188E31FB13D10E","5a7b58b4-4017-447a-9ad2-d2bb922e9b1f","e622c465-ee29-4445-8260-1f3431e06587","{""participantId"":""8B6AB1EB04274208B2188E31FB13D10E"",""assignmentId"":""5a7b58b4-4017-447a-9ad2-d2bb922e9b1f"",""projectId"":""e622c465-ee29-4445-8260-1f3431e06587""}","https://test12345.live/?participantId=8B6AB1EB04274208B2188E31FB13D10E&assignmentId=5a7b58b4-4017-447a-9ad2-d2bb922e9b1f&projectId=e622c465-ee29-4445-8260-1f3431e06587","","null","<div style=""display: flex; justify-content: center; align-items: center;"">
                    <img src=""images/causal/causal_series_2/causal_series_2_c.jpg"" style=""width: 300px; height: 300px;"" />
                  </div>","null","",""
"","","","","","html-keyboard-response","9","58389","0.0-6.0-3.0","8B6AB1EB04274208B2188E31FB13D10E","8B6AB1EB04274208B2188E31FB13D10E","5a7b58b4-4017-447a-9ad2-d2bb922e9b1f","e622c465-ee29-4445-8260-1f3431e06587","{""participantId"":""8B6AB1EB04274208B2188E31FB13D10E"",""assignmentId"":""5a7b58b4-4017-447a-9ad2-d2bb922e9b1f"",""projectId"":""e622c465-ee29-4445-8260-1f3431e06587""}","https://test12345.live/?participantId=8B6AB1EB04274208B2188E31FB13D10E&assignmentId=5a7b58b4-4017-447a-9ad2-d2bb922e9b1f&projectId=e622c465-ee29-4445-8260-1f3431e06587","","null","<div style=""display: flex; justify-content: center; align-items: center;"">
                    <img src=""images/causal/causal_series_2/causal_series_2_d.jpg"" style=""width: 300px; height: 300px;"" />
                  </div>","null","",""
"","","","","","html-button-response","10","63017","0.0-8.0","8B6AB1EB04274208B2188E31FB13D10E","8B6AB1EB04274208B2188E31FB13D10E","5a7b58b4-4017-447a-9ad2-d2bb922e9b1f","e622c465-ee29-4445-8260-1f3431e06587","{""participantId"":""8B6AB1EB04274208B2188E31FB13D10E"",""assignmentId"":""5a7b58b4-4017-447a-9ad2-d2bb922e9b1f"",""projectId"":""e622c465-ee29-4445-8260-1f3431e06587""}","https://test12345.live/?participantId=8B6AB1EB04274208B2188E31FB13D10E&assignmentId=5a7b58b4-4017-447a-9ad2-d2bb922e9b1f&projectId=e622c465-ee29-4445-8260-1f3431e06587","","4627","Was there a person in the picture?","0","",""
"","","","","","survey-likert","11","66903","0.0-9.0","8B6AB1EB04274208B2188E31FB13D10E","8B6AB1EB04274208B2188E31FB13D10E","5a7b58b4-4017-447a-9ad2-d2bb922e9b1f","e622c465-ee29-4445-8260-1f3431e06587","{""participantId"":""8B6AB1EB04274208B2188E31FB13D10E"",""assignmentId"":""5a7b58b4-4017-447a-9ad2-d2bb922e9b1f"",""projectId"":""e622c465-ee29-4445-8260-1f3431e06587""}","https://test12345.live/?participantId=8B6AB1EB04274208B2188E31FB13D10E&assignmentId=5a7b58b4-4017-447a-9ad2-d2bb922e9b1f&projectId=e622c465-ee29-4445-8260-1f3431e06587","","3883","","{""Q0"":2}","","[0]"
"","","","","","html-button-response","12","69468","0.0-10.0","8B6AB1EB04274208B2188E31FB13D10E","8B6AB1EB04274208B2188E31FB13D10E","5a7b58b4-4017-447a-9ad2-d2bb922e9b1f","e622c465-ee29-4445-8260-1f3431e06587","{""participantId"":""8B6AB1EB04274208B2188E31FB13D10E"",""assignmentId"":""5a7b58b4-4017-447a-9ad2-d2bb922e9b1f"",""projectId"":""e622c465-ee29-4445-8260-1f3431e06587""}","https://test12345.live/?participantId=8B6AB1EB04274208B2188E31FB13D10E&assignmentId=5a7b58b4-4017-447a-9ad2-d2bb922e9b1f&projectId=e622c465-ee29-4445-8260-1f3431e06587","","2564","
    <div style=""display: flex; justify-content: center; align-items: center;"">
      <img src=""images/blue_deck_1.png"" style=""width: 300px; height: 300px; margin-right: 10px;"" />
      <img src=""images/red_deck_2.png"" style=""width: 300px; height: 300px;"" />
    </div>","0","0",""
"","","","","","html-keyboard-response","13","72470","0.0-11.0-0.0","8B6AB1EB04274208B2188E31FB13D10E","8B6AB1EB04274208B2188E31FB13D10E","5a7b58b4-4017-447a-9ad2-d2bb922e9b1f","e622c465-ee29-4445-8260-1f3431e06587","{""participantId"":""8B6AB1EB04274208B2188E31FB13D10E"",""assignmentId"":""5a7b58b4-4017-447a-9ad2-d2bb922e9b1f"",""projectId"":""e622c465-ee29-4445-8260-1f3431e06587""}","https://test12345.live/?participantId=8B6AB1EB04274208B2188E31FB13D10E&assignmentId=5a7b58b4-4017-447a-9ad2-d2bb922e9b1f&projectId=e622c465-ee29-4445-8260-1f3431e06587","","null","<div style=""display: flex; justify-content: center; align-items: center;"">
                    <img src=""images/causal/causal_series_6/causal_series_6_a.jpg"" style=""width: 300px; height: 300px;"" />
                  </div>","null","",""
"","","","","","html-keyboard-response","14","75473","0.0-11.0-1.0","8B6AB1EB04274208B2188E31FB13D10E","8B6AB1EB04274208B2188E31FB13D10E","5a7b58b4-4017-447a-9ad2-d2bb922e9b1f","e622c465-ee29-4445-8260-1f3431e06587","{""participantId"":""8B6AB1EB04274208B2188E31FB13D10E"",""assignmentId"":""5a7b58b4-4017-447a-9ad2-d2bb922e9b1f"",""projectId"":""e622c465-ee29-4445-8260-1f3431e06587""}","https://test12345.live/?participantId=8B6AB1EB04274208B2188E31FB13D10E&assignmentId=5a7b58b4-4017-447a-9ad2-d2bb922e9b1f&projectId=e622c465-ee29-4445-8260-1f3431e06587","","null","<div style=""display: flex; justify-content: center; align-items: center;"">
                    <img src=""images/causal/causal_series_6/causal_series_6_b.jpg"" style=""width: 300px; height: 300px;"" />
                  </div>","null","",""
"","","","","","html-keyboard-response","15","78476","0.0-11.0-2.0","8B6AB1EB04274208B2188E31FB13D10E","8B6AB1EB04274208B2188E31FB13D10E","5a7b58b4-4017-447a-9ad2-d2bb922e9b1f","e622c465-ee29-4445-8260-1f3431e06587","{""participantId"":""8B6AB1EB04274208B2188E31FB13D10E"",""assignmentId"":""5a7b58b4-4017-447a-9ad2-d2bb922e9b1f"",""projectId"":""e622c465-ee29-4445-8260-1f3431e06587""}","https://test12345.live/?participantId=8B6AB1EB04274208B2188E31FB13D10E&assignmentId=5a7b58b4-4017-447a-9ad2-d2bb922e9b1f&projectId=e622c465-ee29-4445-8260-1f3431e06587","","null","<div style=""display: flex; justify-content: center; align-items: center;"">
                    <img src=""images/causal/causal_series_6/causal_series_6_c.jpg"" style=""width: 300px; height: 300px;"" />
                  </div>","null","",""
"","","","","","html-keyboard-response","16","81479","0.0-11.0-3.0","8B6AB1EB04274208B2188E31FB13D10E","8B6AB1EB04274208B2188E31FB13D10E","5a7b58b4-4017-447a-9ad2-d2bb922e9b1f","e622c465-ee29-4445-8260-1f3431e06587","{""participantId"":""8B6AB1EB04274208B2188E31FB13D10E"",""assignmentId"":""5a7b58b4-4017-447a-9ad2-d2bb922e9b1f"",""projectId"":""e622c465-ee29-4445-8260-1f3431e06587""}","https://test12345.live/?participantId=8B6AB1EB04274208B2188E31FB13D10E&assignmentId=5a7b58b4-4017-447a-9ad2-d2bb922e9b1f&projectId=e622c465-ee29-4445-8260-1f3431e06587","","null","<div style=""display: flex; justify-content: center; align-items: center;"">
                    <img src=""images/causal/causal_series_6/causal_series_6_d.jpg"" style=""width: 300px; height: 300px;"" />
                  </div>","null","",""
"","","","","","html-button-response","17","84762","0.0-13.0","8B6AB1EB04274208B2188E31FB13D10E","8B6AB1EB04274208B2188E31FB13D10E","5a7b58b4-4017-447a-9ad2-d2bb922e9b1f","e622c465-ee29-4445-8260-1f3431e06587","{""participantId"":""8B6AB1EB04274208B2188E31FB13D10E"",""assignmentId"":""5a7b58b4-4017-447a-9ad2-d2bb922e9b1f"",""projectId"":""e622c465-ee29-4445-8260-1f3431e06587""}","https://test12345.live/?participantId=8B6AB1EB04274208B2188E31FB13D10E&assignmentId=5a7b58b4-4017-447a-9ad2-d2bb922e9b1f&projectId=e622c465-ee29-4445-8260-1f3431e06587","","3281","Was there a person in the picture?","0","",""
"","","","","","survey-likert","18","87127","0.0-14.0","8B6AB1EB04274208B2188E31FB13D10E","8B6AB1EB04274208B2188E31FB13D10E","5a7b58b4-4017-447a-9ad2-d2bb922e9b1f","e622c465-ee29-4445-8260-1f3431e06587","{""participantId"":""8B6AB1EB04274208B2188E31FB13D10E"",""assignmentId"":""5a7b58b4-4017-447a-9ad2-d2bb922e9b1f"",""projectId"":""e622c465-ee29-4445-8260-1f3431e06587""}","https://test12345.live/?participantId=8B6AB1EB04274208B2188E31FB13D10E&assignmentId=5a7b58b4-4017-447a-9ad2-d2bb922e9b1f&projectId=e622c465-ee29-4445-8260-1f3431e06587","","2365","","{""Q0"":3}","","[0]"
"","","","","","html-button-response","19","88806","0.0-15.0","8B6AB1EB04274208B2188E31FB13D10E","8B6AB1EB04274208B2188E31FB13D10E","5a7b58b4-4017-447a-9ad2-d2bb922e9b1f","e622c465-ee29-4445-8260-1f3431e06587","{""participantId"":""8B6AB1EB04274208B2188E31FB13D10E"",""assignmentId"":""5a7b58b4-4017-447a-9ad2-d2bb922e9b1f"",""projectId"":""e622c465-ee29-4445-8260-1f3431e06587""}","https://test12345.live/?participantId=8B6AB1EB04274208B2188E31FB13D10E&assignmentId=5a7b58b4-4017-447a-9ad2-d2bb922e9b1f&projectId=e622c465-ee29-4445-8260-1f3431e06587","","1677","
    <div style=""display: flex; justify-content: center; align-items: center;"">
      <img src=""images/blue_deck_1.png"" style=""width: 300px; height: 300px; margin-right: 10px;"" />
      <img src=""images/red_deck_2.png"" style=""width: 300px; height: 300px;"" />
    </div>","0","0",""
"","","","","","html-keyboard-response","20","91809","0.0-16.0-0.0","8B6AB1EB04274208B2188E31FB13D10E","8B6AB1EB04274208B2188E31FB13D10E","5a7b58b4-4017-447a-9ad2-d2bb922e9b1f","e622c465-ee29-4445-8260-1f3431e06587","{""participantId"":""8B6AB1EB04274208B2188E31FB13D10E"",""assignmentId"":""5a7b58b4-4017-447a-9ad2-d2bb922e9b1f"",""projectId"":""e622c465-ee29-4445-8260-1f3431e06587""}","https://test12345.live/?participantId=8B6AB1EB04274208B2188E31FB13D10E&assignmentId=5a7b58b4-4017-447a-9ad2-d2bb922e9b1f&projectId=e622c465-ee29-4445-8260-1f3431e06587","","null","<div style=""display: flex; justify-content: center; align-items: center;"">
                    <img src=""images/causal/causal_series_5/causal_series_5_a.jpg"" style=""width: 300px; height: 300px;"" />
                  </div>","null","",""
"","","","","","html-keyboard-response","21","94812","0.0-16.0-1.0","8B6AB1EB04274208B2188E31FB13D10E","8B6AB1EB04274208B2188E31FB13D10E","5a7b58b4-4017-447a-9ad2-d2bb922e9b1f","e622c465-ee29-4445-8260-1f3431e06587","{""participantId"":""8B6AB1EB04274208B2188E31FB13D10E"",""assignmentId"":""5a7b58b4-4017-447a-9ad2-d2bb922e9b1f"",""projectId"":""e622c465-ee29-4445-8260-1f3431e06587""}","https://test12345.live/?participantId=8B6AB1EB04274208B2188E31FB13D10E&assignmentId=5a7b58b4-4017-447a-9ad2-d2bb922e9b1f&projectId=e622c465-ee29-4445-8260-1f3431e06587","","null","<div style=""display: flex; justify-content: center; align-items: center;"">
                    <img src=""images/causal/causal_series_5/causal_series_5_b.jpg"" style=""width: 300px; height: 300px;"" />
                  </div>","null","",""
"","","","","","html-keyboard-response","22","97815","0.0-16.0-2.0","8B6AB1EB04274208B2188E31FB13D10E","8B6AB1EB04274208B2188E31FB13D10E","5a7b58b4-4017-447a-9ad2-d2bb922e9b1f","e622c465-ee29-4445-8260-1f3431e06587","{""participantId"":""8B6AB1EB04274208B2188E31FB13D10E"",""assignmentId"":""5a7b58b4-4017-447a-9ad2-d2bb922e9b1f"",""projectId"":""e622c465-ee29-4445-8260-1f3431e06587""}","https://test12345.live/?participantId=8B6AB1EB04274208B2188E31FB13D10E&assignmentId=5a7b58b4-4017-447a-9ad2-d2bb922e9b1f&projectId=e622c465-ee29-4445-8260-1f3431e06587","","null","<div style=""display: flex; justify-content: center; align-items: center;"">
                    <img src=""images/causal/causal_series_5/causal_series_5_c.jpg"" style=""width: 300px; height: 300px;"" />
                  </div>","null","",""
"","","","","","html-keyboard-response","23","100818","0.0-16.0-3.0","8B6AB1EB04274208B2188E31FB13D10E","8B6AB1EB04274208B2188E31FB13D10E","5a7b58b4-4017-447a-9ad2-d2bb922e9b1f","e622c465-ee29-4445-8260-1f3431e06587","{""participantId"":""8B6AB1EB04274208B2188E31FB13D10E"",""assignmentId"":""5a7b58b4-4017-447a-9ad2-d2bb922e9b1f"",""projectId"":""e622c465-ee29-4445-8260-1f3431e06587""}","https://test12345.live/?participantId=8B6AB1EB04274208B2188E31FB13D10E&assignmentId=5a7b58b4-4017-447a-9ad2-d2bb922e9b1f&projectId=e622c465-ee29-4445-8260-1f3431e06587","","null","<div style=""display: flex; justify-content: center; align-items: center;"">
                    <img src=""images/causal/causal_series_5/causal_series_5_d.jpg"" style=""width: 300px; height: 300px;"" />
                  </div>","null","",""
"","","","","","html-button-response","24","102178","0.0-18.0","8B6AB1EB04274208B2188E31FB13D10E","8B6AB1EB04274208B2188E31FB13D10E","5a7b58b4-4017-447a-9ad2-d2bb922e9b1f","e622c465-ee29-4445-8260-1f3431e06587","{""participantId"":""8B6AB1EB04274208B2188E31FB13D10E"",""assignmentId"":""5a7b58b4-4017-447a-9ad2-d2bb922e9b1f"",""projectId"":""e622c465-ee29-4445-8260-1f3431e06587""}","https://test12345.live/?participantId=8B6AB1EB04274208B2188E31FB13D10E&assignmentId=5a7b58b4-4017-447a-9ad2-d2bb922e9b1f&projectId=e622c465-ee29-4445-8260-1f3431e06587","","1359","Was there a person in the picture?","0","",""
"","","","","","survey-likert","25","105476","0.0-19.0","8B6AB1EB04274208B2188E31FB13D10E","8B6AB1EB04274208B2188E31FB13D10E","5a7b58b4-4017-447a-9ad2-d2bb922e9b1f","e622c465-ee29-4445-8260-1f3431e06587","{""participantId"":""8B6AB1EB04274208B2188E31FB13D10E"",""assignmentId"":""5a7b58b4-4017-447a-9ad2-d2bb922e9b1f"",""projectId"":""e622c465-ee29-4445-8260-1f3431e06587""}","https://test12345.live/?participantId=8B6AB1EB04274208B2188E31FB13D10E&assignmentId=5a7b58b4-4017-447a-9ad2-d2bb922e9b1f&projectId=e622c465-ee29-4445-8260-1f3431e06587","","3297","","{""Q0"":1}","","[0]"
"","","","","","html-button-response","26","106503","0.0-20.0","8B6AB1EB04274208B2188E31FB13D10E","8B6AB1EB04274208B2188E31FB13D10E","5a7b58b4-4017-447a-9ad2-d2bb922e9b1f","e622c465-ee29-4445-8260-1f3431e06587","{""participantId"":""8B6AB1EB04274208B2188E31FB13D10E"",""assignmentId"":""5a7b58b4-4017-447a-9ad2-d2bb922e9b1f"",""projectId"":""e622c465-ee29-4445-8260-1f3431e06587""}","https://test12345.live/?participantId=8B6AB1EB04274208B2188E31FB13D10E&assignmentId=5a7b58b4-4017-447a-9ad2-d2bb922e9b1f&projectId=e622c465-ee29-4445-8260-1f3431e06587","","1025","
    <div style=""display: flex; justify-content: center; align-items: center;"">
      <img src=""images/blue_deck_1.png"" style=""width: 300px; height: 300px; margin-right: 10px;"" />
      <img src=""images/red_deck_2.png"" style=""width: 300px; height: 300px;"" />
    </div>","0","0",""
"","","","","","html-keyboard-response","27","109505","0.0-21.0-0.0","8B6AB1EB04274208B2188E31FB13D10E","8B6AB1EB04274208B2188E31FB13D10E","5a7b58b4-4017-447a-9ad2-d2bb922e9b1f","e622c465-ee29-4445-8260-1f3431e06587","{""participantId"":""8B6AB1EB04274208B2188E31FB13D10E"",""assignmentId"":""5a7b58b4-4017-447a-9ad2-d2bb922e9b1f"",""projectId"":""e622c465-ee29-4445-8260-1f3431e06587""}","https://test12345.live/?participantId=8B6AB1EB04274208B2188E31FB13D10E&assignmentId=5a7b58b4-4017-447a-9ad2-d2bb922e9b1f&projectId=e622c465-ee29-4445-8260-1f3431e06587","","null","<div style=""display: flex; justify-content: center; align-items: center;"">
                    <img src=""images/causal/causal_series_7/causal_series_7_a.jpg"" style=""width: 300px; height: 300px;"" />
                  </div>","null","",""
"","","","","","html-keyboard-response","28","112507","0.0-21.0-1.0","8B6AB1EB04274208B2188E31FB13D10E","8B6AB1EB04274208B2188E31FB13D10E","5a7b58b4-4017-447a-9ad2-d2bb922e9b1f","e622c465-ee29-4445-8260-1f3431e06587","{""participantId"":""8B6AB1EB04274208B2188E31FB13D10E"",""assignmentId"":""5a7b58b4-4017-447a-9ad2-d2bb922e9b1f"",""projectId"":""e622c465-ee29-4445-8260-1f3431e06587""}","https://test12345.live/?participantId=8B6AB1EB04274208B2188E31FB13D10E&assignmentId=5a7b58b4-4017-447a-9ad2-d2bb922e9b1f&projectId=e622c465-ee29-4445-8260-1f3431e06587","","null","<div style=""display: flex; justify-content: center; align-items: center;"">
                    <img src=""images/causal/causal_series_7/causal_series_7_b.jpg"" style=""width: 300px; height: 300px;"" />
                  </div>","null","",""
"","","","","","html-keyboard-response","29","115509","0.0-21.0-2.0","8B6AB1EB04274208B2188E31FB13D10E","8B6AB1EB04274208B2188E31FB13D10E","5a7b58b4-4017-447a-9ad2-d2bb922e9b1f","e622c465-ee29-4445-8260-1f3431e06587","{""participantId"":""8B6AB1EB04274208B2188E31FB13D10E"",""assignmentId"":""5a7b58b4-4017-447a-9ad2-d2bb922e9b1f"",""projectId"":""e622c465-ee29-4445-8260-1f3431e06587""}","https://test12345.live/?participantId=8B6AB1EB04274208B2188E31FB13D10E&assignmentId=5a7b58b4-4017-447a-9ad2-d2bb922e9b1f&projectId=e622c465-ee29-4445-8260-1f3431e06587","","null","<div style=""display: flex; justify-content: center; align-items: center;"">
                    <img src=""images/causal/causal_series_7/causal_series_7_c.jpg"" style=""width: 300px; height: 300px;"" />
                  </div>","null","",""
"","","","","","html-keyboard-response","30","118512","0.0-21.0-3.0","8B6AB1EB04274208B2188E31FB13D10E","8B6AB1EB04274208B2188E31FB13D10E","5a7b58b4-4017-447a-9ad2-d2bb922e9b1f","e622c465-ee29-4445-8260-1f3431e06587","{""participantId"":""8B6AB1EB04274208B2188E31FB13D10E"",""assignmentId"":""5a7b58b4-4017-447a-9ad2-d2bb922e9b1f"",""projectId"":""e622c465-ee29-4445-8260-1f3431e06587""}","https://test12345.live/?participantId=8B6AB1EB04274208B2188E31FB13D10E&assignmentId=5a7b58b4-4017-447a-9ad2-d2bb922e9b1f&projectId=e622c465-ee29-4445-8260-1f3431e06587","","null","<div style=""display: flex; justify-content: center; align-items: center;"">
                    <img src=""images/causal/causal_series_7/causal_series_7_d.jpg"" style=""width: 300px; height: 300px;"" />
                  </div>","null","",""
"","","","","","html-button-response","31","119757","0.0-23.0","8B6AB1EB04274208B2188E31FB13D10E","8B6AB1EB04274208B2188E31FB13D10E","5a7b58b4-4017-447a-9ad2-d2bb922e9b1f","e622c465-ee29-4445-8260-1f3431e06587","{""participantId"":""8B6AB1EB04274208B2188E31FB13D10E"",""assignmentId"":""5a7b58b4-4017-447a-9ad2-d2bb922e9b1f"",""projectId"":""e622c465-ee29-4445-8260-1f3431e06587""}","https://test12345.live/?participantId=8B6AB1EB04274208B2188E31FB13D10E&assignmentId=5a7b58b4-4017-447a-9ad2-d2bb922e9b1f&projectId=e622c465-ee29-4445-8260-1f3431e06587","","1244","Was there a person in the picture?","1","",""
"","","","","","survey-likert","32","121731","0.0-24.0","8B6AB1EB04274208B2188E31FB13D10E","8B6AB1EB04274208B2188E31FB13D10E","5a7b58b4-4017-447a-9ad2-d2bb922e9b1f","e622c465-ee29-4445-8260-1f3431e06587","{""participantId"":""8B6AB1EB04274208B2188E31FB13D10E"",""assignmentId"":""5a7b58b4-4017-447a-9ad2-d2bb922e9b1f"",""projectId"":""e622c465-ee29-4445-8260-1f3431e06587""}","https://test12345.live/?participantId=8B6AB1EB04274208B2188E31FB13D10E&assignmentId=5a7b58b4-4017-447a-9ad2-d2bb922e9b1f&projectId=e622c465-ee29-4445-8260-1f3431e06587","","1973","","{""Q0"":2}","","[0]"
"","","","","","html-button-response","33","122882","0.0-25.0","8B6AB1EB04274208B2188E31FB13D10E","8B6AB1EB04274208B2188E31FB13D10E","5a7b58b4-4017-447a-9ad2-d2bb922e9b1f","e622c465-ee29-4445-8260-1f3431e06587","{""participantId"":""8B6AB1EB04274208B2188E31FB13D10E"",""assignmentId"":""5a7b58b4-4017-447a-9ad2-d2bb922e9b1f"",""projectId"":""e622c465-ee29-4445-8260-1f3431e06587""}","https://test12345.live/?participantId=8B6AB1EB04274208B2188E31FB13D10E&assignmentId=5a7b58b4-4017-447a-9ad2-d2bb922e9b1f&projectId=e622c465-ee29-4445-8260-1f3431e06587","","1149","
    <div style=""display: flex; justify-content: center; align-items: center;"">
      <img src=""images/blue_deck_1.png"" style=""width: 300px; height: 300px; margin-right: 10px;"" />
      <img src=""images/red_deck_2.png"" style=""width: 300px; height: 300px;"" />
    </div>","0","0",""
"","","","","","html-keyboard-response","34","125885","0.0-26.0-0.0","8B6AB1EB04274208B2188E31FB13D10E","8B6AB1EB04274208B2188E31FB13D10E","5a7b58b4-4017-447a-9ad2-d2bb922e9b1f","e622c465-ee29-4445-8260-1f3431e06587","{""participantId"":""8B6AB1EB04274208B2188E31FB13D10E"",""assignmentId"":""5a7b58b4-4017-447a-9ad2-d2bb922e9b1f"",""projectId"":""e622c465-ee29-4445-8260-1f3431e06587""}","https://test12345.live/?participantId=8B6AB1EB04274208B2188E31FB13D10E&assignmentId=5a7b58b4-4017-447a-9ad2-d2bb922e9b1f&projectId=e622c465-ee29-4445-8260-1f3431e06587","","null","<div style=""display: flex; justify-content: center; align-items: center;"">
                    <img src=""images/causal/causal_series_3/causal_series_3_a.jpg"" style=""width: 300px; height: 300px;"" />
                  </div>","null","",""
"","","","","","html-keyboard-response","35","128887","0.0-26.0-1.0","8B6AB1EB04274208B2188E31FB13D10E","8B6AB1EB04274208B2188E31FB13D10E","5a7b58b4-4017-447a-9ad2-d2bb922e9b1f","e622c465-ee29-4445-8260-1f3431e06587","{""participantId"":""8B6AB1EB04274208B2188E31FB13D10E"",""assignmentId"":""5a7b58b4-4017-447a-9ad2-d2bb922e9b1f"",""projectId"":""e622c465-ee29-4445-8260-1f3431e06587""}","https://test12345.live/?participantId=8B6AB1EB04274208B2188E31FB13D10E&assignmentId=5a7b58b4-4017-447a-9ad2-d2bb922e9b1f&projectId=e622c465-ee29-4445-8260-1f3431e06587","","null","<div style=""display: flex; justify-content: center; align-items: center;"">
                    <img src=""images/causal/causal_series_3/causal_series_3_b.jpg"" style=""width: 300px; height: 300px;"" />
                  </div>","null","",""
"","","","","","html-keyboard-response","36","131889","0.0-26.0-2.0","8B6AB1EB04274208B2188E31FB13D10E","8B6AB1EB04274208B2188E31FB13D10E","5a7b58b4-4017-447a-9ad2-d2bb922e9b1f","e622c465-ee29-4445-8260-1f3431e06587","{""participantId"":""8B6AB1EB04274208B2188E31FB13D10E"",""assignmentId"":""5a7b58b4-4017-447a-9ad2-d2bb922e9b1f"",""projectId"":""e622c465-ee29-4445-8260-1f3431e06587""}","https://test12345.live/?participantId=8B6AB1EB04274208B2188E31FB13D10E&assignmentId=5a7b58b4-4017-447a-9ad2-d2bb922e9b1f&projectId=e622c465-ee29-4445-8260-1f3431e06587","","null","<div style=""display: flex; justify-content: center; align-items: center;"">
                    <img src=""images/causal/causal_series_3/causal_series_3_c.jpg"" style=""width: 300px; height: 300px;"" />
                  </div>","null","",""
"","","","","","html-keyboard-response","37","134891","0.0-26.0-3.0","8B6AB1EB04274208B2188E31FB13D10E","8B6AB1EB04274208B2188E31FB13D10E","5a7b58b4-4017-447a-9ad2-d2bb922e9b1f","e622c465-ee29-4445-8260-1f3431e06587","{""participantId"":""8B6AB1EB04274208B2188E31FB13D10E"",""assignmentId"":""5a7b58b4-4017-447a-9ad2-d2bb922e9b1f"",""projectId"":""e622c465-ee29-4445-8260-1f3431e06587""}","https://test12345.live/?participantId=8B6AB1EB04274208B2188E31FB13D10E&assignmentId=5a7b58b4-4017-447a-9ad2-d2bb922e9b1f&projectId=e622c465-ee29-4445-8260-1f3431e06587","","null","<div style=""display: flex; justify-content: center; align-items: center;"">
                    <img src=""images/causal/causal_series_3/causal_series_3_d.jpg"" style=""width: 300px; height: 300px;"" />
                  </div>","null","",""
"","","","","","html-button-response","38","138007","0.0-28.0","8B6AB1EB04274208B2188E31FB13D10E","8B6AB1EB04274208B2188E31FB13D10E","5a7b58b4-4017-447a-9ad2-d2bb922e9b1f","e622c465-ee29-4445-8260-1f3431e06587","{""participantId"":""8B6AB1EB04274208B2188E31FB13D10E"",""assignmentId"":""5a7b58b4-4017-447a-9ad2-d2bb922e9b1f"",""projectId"":""e622c465-ee29-4445-8260-1f3431e06587""}","https://test12345.live/?participantId=8B6AB1EB04274208B2188E31FB13D10E&assignmentId=5a7b58b4-4017-447a-9ad2-d2bb922e9b1f&projectId=e622c465-ee29-4445-8260-1f3431e06587","","3115","Was there a person in the picture?","0","",""
"","","","","","survey-likert","39","140262","0.0-29.0","8B6AB1EB04274208B2188E31FB13D10E","8B6AB1EB04274208B2188E31FB13D10E","5a7b58b4-4017-447a-9ad2-d2bb922e9b1f","e622c465-ee29-4445-8260-1f3431e06587","{""participantId"":""8B6AB1EB04274208B2188E31FB13D10E"",""assignmentId"":""5a7b58b4-4017-447a-9ad2-d2bb922e9b1f"",""projectId"":""e622c465-ee29-4445-8260-1f3431e06587""}","https://test12345.live/?participantId=8B6AB1EB04274208B2188E31FB13D10E&assignmentId=5a7b58b4-4017-447a-9ad2-d2bb922e9b1f&projectId=e622c465-ee29-4445-8260-1f3431e06587","","2254","","{""Q0"":1}","","[0]"
"","","","","","html-button-response","40","141852","0.0-30.0","8B6AB1EB04274208B2188E31FB13D10E","8B6AB1EB04274208B2188E31FB13D10E","5a7b58b4-4017-447a-9ad2-d2bb922e9b1f","e622c465-ee29-4445-8260-1f3431e06587","{""participantId"":""8B6AB1EB04274208B2188E31FB13D10E"",""assignmentId"":""5a7b58b4-4017-447a-9ad2-d2bb922e9b1f"",""projectId"":""e622c465-ee29-4445-8260-1f3431e06587""}","https://test12345.live/?participantId=8B6AB1EB04274208B2188E31FB13D10E&assignmentId=5a7b58b4-4017-447a-9ad2-d2bb922e9b1f&projectId=e622c465-ee29-4445-8260-1f3431e06587","","1588","
    <div style=""display: flex; justify-content: center; align-items: center;"">
      <img src=""images/blue_deck_1.png"" style=""width: 300px; height: 300px; margin-right: 10px;"" />
      <img src=""images/red_deck_2.png"" style=""width: 300px; height: 300px;"" />
    </div>","0","0",""
"","","","","","html-keyboard-response","41","144854","0.0-31.0-0.0","8B6AB1EB04274208B2188E31FB13D10E","8B6AB1EB04274208B2188E31FB13D10E","5a7b58b4-4017-447a-9ad2-d2bb922e9b1f","e622c465-ee29-4445-8260-1f3431e06587","{""participantId"":""8B6AB1EB04274208B2188E31FB13D10E"",""assignmentId"":""5a7b58b4-4017-447a-9ad2-d2bb922e9b1f"",""projectId"":""e622c465-ee29-4445-8260-1f3431e06587""}","https://test12345.live/?participantId=8B6AB1EB04274208B2188E31FB13D10E&assignmentId=5a7b58b4-4017-447a-9ad2-d2bb922e9b1f&projectId=e622c465-ee29-4445-8260-1f3431e06587","","null","<div style=""display: flex; justify-content: center; align-items: center;"">
                    <img src=""images/causal/causal_series_18/causal_series_18_a.jpg"" style=""width: 300px; height: 300px;"" />
                  </div>","null","",""
"","","","","","html-keyboard-response","42","147856","0.0-31.0-1.0","8B6AB1EB04274208B2188E31FB13D10E","8B6AB1EB04274208B2188E31FB13D10E","5a7b58b4-4017-447a-9ad2-d2bb922e9b1f","e622c465-ee29-4445-8260-1f3431e06587","{""participantId"":""8B6AB1EB04274208B2188E31FB13D10E"",""assignmentId"":""5a7b58b4-4017-447a-9ad2-d2bb922e9b1f"",""projectId"":""e622c465-ee29-4445-8260-1f3431e06587""}","https://test12345.live/?participantId=8B6AB1EB04274208B2188E31FB13D10E&assignmentId=5a7b58b4-4017-447a-9ad2-d2bb922e9b1f&projectId=e622c465-ee29-4445-8260-1f3431e06587","","null","<div style=""display: flex; justify-content: center; align-items: center;"">
                    <img src=""images/causal/causal_series_18/causal_series_18_b.jpg"" style=""width: 300px; height: 300px;"" />
                  </div>","null","",""
"","","","","","html-keyboard-response","43","150858","0.0-31.0-2.0","8B6AB1EB04274208B2188E31FB13D10E","8B6AB1EB04274208B2188E31FB13D10E","5a7b58b4-4017-447a-9ad2-d2bb922e9b1f","e622c465-ee29-4445-8260-1f3431e06587","{""participantId"":""8B6AB1EB04274208B2188E31FB13D10E"",""assignmentId"":""5a7b58b4-4017-447a-9ad2-d2bb922e9b1f"",""projectId"":""e622c465-ee29-4445-8260-1f3431e06587""}","https://test12345.live/?participantId=8B6AB1EB04274208B2188E31FB13D10E&assignmentId=5a7b58b4-4017-447a-9ad2-d2bb922e9b1f&projectId=e622c465-ee29-4445-8260-1f3431e06587","","null","<div style=""display: flex; justify-content: center; align-items: center;"">
                    <img src=""images/causal/causal_series_18/causal_series_18_c.jpg"" style=""width: 300px; height: 300px;"" />
                  </div>","null","",""
"","","","","","html-keyboard-response","44","153860","0.0-31.0-3.0","8B6AB1EB04274208B2188E31FB13D10E","8B6AB1EB04274208B2188E31FB13D10E","5a7b58b4-4017-447a-9ad2-d2bb922e9b1f","e622c465-ee29-4445-8260-1f3431e06587","{""participantId"":""8B6AB1EB04274208B2188E31FB13D10E"",""assignmentId"":""5a7b58b4-4017-447a-9ad2-d2bb922e9b1f"",""projectId"":""e622c465-ee29-4445-8260-1f3431e06587""}","https://test12345.live/?participantId=8B6AB1EB04274208B2188E31FB13D10E&assignmentId=5a7b58b4-4017-447a-9ad2-d2bb922e9b1f&projectId=e622c465-ee29-4445-8260-1f3431e06587","","null","<div style=""display: flex; justify-content: center; align-items: center;"">
                    <img src=""images/causal/causal_series_18/causal_series_18_d.jpg"" style=""width: 300px; height: 300px;"" />
                  </div>","null","",""
"","","","","","html-button-response","45","155054","0.0-33.0","8B6AB1EB04274208B2188E31FB13D10E","8B6AB1EB04274208B2188E31FB13D10E","5a7b58b4-4017-447a-9ad2-d2bb922e9b1f","e622c465-ee29-4445-8260-1f3431e06587","{""participantId"":""8B6AB1EB04274208B2188E31FB13D10E"",""assignmentId"":""5a7b58b4-4017-447a-9ad2-d2bb922e9b1f"",""projectId"":""e622c465-ee29-4445-8260-1f3431e06587""}","https://test12345.live/?participantId=8B6AB1EB04274208B2188E31FB13D10E&assignmentId=5a7b58b4-4017-447a-9ad2-d2bb922e9b1f&projectId=e622c465-ee29-4445-8260-1f3431e06587","","1192","Was there a person in the picture?","1","",""
"","","","","","survey-likert","46","157366","0.0-34.0","8B6AB1EB04274208B2188E31FB13D10E","8B6AB1EB04274208B2188E31FB13D10E","5a7b58b4-4017-447a-9ad2-d2bb922e9b1f","e622c465-ee29-4445-8260-1f3431e06587","{""participantId"":""8B6AB1EB04274208B2188E31FB13D10E"",""assignmentId"":""5a7b58b4-4017-447a-9ad2-d2bb922e9b1f"",""projectId"":""e622c465-ee29-4445-8260-1f3431e06587""}","https://test12345.live/?participantId=8B6AB1EB04274208B2188E31FB13D10E&assignmentId=5a7b58b4-4017-447a-9ad2-d2bb922e9b1f&projectId=e622c465-ee29-4445-8260-1f3431e06587","","2311","","{""Q0"":0}","","[0]"
"","","","","","html-button-response","47","158491","0.0-35.0","8B6AB1EB04274208B2188E31FB13D10E","8B6AB1EB04274208B2188E31FB13D10E","5a7b58b4-4017-447a-9ad2-d2bb922e9b1f","e622c465-ee29-4445-8260-1f3431e06587","{""participantId"":""8B6AB1EB04274208B2188E31FB13D10E"",""assignmentId"":""5a7b58b4-4017-447a-9ad2-d2bb922e9b1f"",""projectId"":""e622c465-ee29-4445-8260-1f3431e06587""}","https://test12345.live/?participantId=8B6AB1EB04274208B2188E31FB13D10E&assignmentId=5a7b58b4-4017-447a-9ad2-d2bb922e9b1f&projectId=e622c465-ee29-4445-8260-1f3431e06587","","1124","
    <div style=""display: flex; justify-content: center; align-items: center;"">
      <img src=""images/blue_deck_1.png"" style=""width: 300px; height: 300px; margin-right: 10px;"" />
      <img src=""images/red_deck_2.png"" style=""width: 300px; height: 300px;"" />
    </div>","0","0",""
"","","","","","html-keyboard-response","48","161493","0.0-36.0-0.0","8B6AB1EB04274208B2188E31FB13D10E","8B6AB1EB04274208B2188E31FB13D10E","5a7b58b4-4017-447a-9ad2-d2bb922e9b1f","e622c465-ee29-4445-8260-1f3431e06587","{""participantId"":""8B6AB1EB04274208B2188E31FB13D10E"",""assignmentId"":""5a7b58b4-4017-447a-9ad2-d2bb922e9b1f"",""projectId"":""e622c465-ee29-4445-8260-1f3431e06587""}","https://test12345.live/?participantId=8B6AB1EB04274208B2188E31FB13D10E&assignmentId=5a7b58b4-4017-447a-9ad2-d2bb922e9b1f&projectId=e622c465-ee29-4445-8260-1f3431e06587","","null","<div style=""display: flex; justify-content: center; align-items: center;"">
                    <img src=""images/causal/causal_series_12/causal_series_12_a.jpg"" style=""width: 300px; height: 300px;"" />
                  </div>","null","",""
"","","","","","html-keyboard-response","49","164496","0.0-36.0-1.0","8B6AB1EB04274208B2188E31FB13D10E","8B6AB1EB04274208B2188E31FB13D10E","5a7b58b4-4017-447a-9ad2-d2bb922e9b1f","e622c465-ee29-4445-8260-1f3431e06587","{""participantId"":""8B6AB1EB04274208B2188E31FB13D10E"",""assignmentId"":""5a7b58b4-4017-447a-9ad2-d2bb922e9b1f"",""projectId"":""e622c465-ee29-4445-8260-1f3431e06587""}","https://test12345.live/?participantId=8B6AB1EB04274208B2188E31FB13D10E&assignmentId=5a7b58b4-4017-447a-9ad2-d2bb922e9b1f&projectId=e622c465-ee29-4445-8260-1f3431e06587","","null","<div style=""display: flex; justify-content: center; align-items: center;"">
                    <img src=""images/causal/causal_series_12/causal_series_12_b.jpg"" style=""width: 300px; height: 300px;"" />
                  </div>","null","",""
"","","","","","html-keyboard-response","50","167498","0.0-36.0-2.0","8B6AB1EB04274208B2188E31FB13D10E","8B6AB1EB04274208B2188E31FB13D10E","5a7b58b4-4017-447a-9ad2-d2bb922e9b1f","e622c465-ee29-4445-8260-1f3431e06587","{""participantId"":""8B6AB1EB04274208B2188E31FB13D10E"",""assignmentId"":""5a7b58b4-4017-447a-9ad2-d2bb922e9b1f"",""projectId"":""e622c465-ee29-4445-8260-1f3431e06587""}","https://test12345.live/?participantId=8B6AB1EB04274208B2188E31FB13D10E&assignmentId=5a7b58b4-4017-447a-9ad2-d2bb922e9b1f&projectId=e622c465-ee29-4445-8260-1f3431e06587","","null","<div style=""display: flex; justify-content: center; align-items: center;"">
                    <img src=""images/causal/causal_series_12/causal_series_12_c.jpg"" style=""width: 300px; height: 300px;"" />
                  </div>","null","",""
"","","","","","html-keyboard-response","51","170500","0.0-36.0-3.0","8B6AB1EB04274208B2188E31FB13D10E","8B6AB1EB04274208B2188E31FB13D10E","5a7b58b4-4017-447a-9ad2-d2bb922e9b1f","e622c465-ee29-4445-8260-1f3431e06587","{""participantId"":""8B6AB1EB04274208B2188E31FB13D10E"",""assignmentId"":""5a7b58b4-4017-447a-9ad2-d2bb922e9b1f"",""projectId"":""e622c465-ee29-4445-8260-1f3431e06587""}","https://test12345.live/?participantId=8B6AB1EB04274208B2188E31FB13D10E&assignmentId=5a7b58b4-4017-447a-9ad2-d2bb922e9b1f&projectId=e622c465-ee29-4445-8260-1f3431e06587","","null","<div style=""display: flex; justify-content: center; align-items: center;"">
                    <img src=""images/causal/causal_series_12/causal_series_12_d.jpg"" style=""width: 300px; height: 300px;"" />
                  </div>","null","",""
"","","","","","html-button-response","52","171523","0.0-38.0","8B6AB1EB04274208B2188E31FB13D10E","8B6AB1EB04274208B2188E31FB13D10E","5a7b58b4-4017-447a-9ad2-d2bb922e9b1f","e622c465-ee29-4445-8260-1f3431e06587","{""participantId"":""8B6AB1EB04274208B2188E31FB13D10E"",""assignmentId"":""5a7b58b4-4017-447a-9ad2-d2bb922e9b1f"",""projectId"":""e622c465-ee29-4445-8260-1f3431e06587""}","https://test12345.live/?participantId=8B6AB1EB04274208B2188E31FB13D10E&assignmentId=5a7b58b4-4017-447a-9ad2-d2bb922e9b1f&projectId=e622c465-ee29-4445-8260-1f3431e06587","","1022","Was there a person in the picture?","1","",""
"","","","","","survey-likert","53","174222","0.0-39.0","8B6AB1EB04274208B2188E31FB13D10E","8B6AB1EB04274208B2188E31FB13D10E","5a7b58b4-4017-447a-9ad2-d2bb922e9b1f","e622c465-ee29-4445-8260-1f3431e06587","{""participantId"":""8B6AB1EB04274208B2188E31FB13D10E"",""assignmentId"":""5a7b58b4-4017-447a-9ad2-d2bb922e9b1f"",""projectId"":""e622c465-ee29-4445-8260-1f3431e06587""}","https://test12345.live/?participantId=8B6AB1EB04274208B2188E31FB13D10E&assignmentId=5a7b58b4-4017-447a-9ad2-d2bb922e9b1f&projectId=e622c465-ee29-4445-8260-1f3431e06587","","2697","","{""Q0"":3}","","[0]"
"","","","","","html-button-response","54","175290","0.0-40.0","8B6AB1EB04274208B2188E31FB13D10E","8B6AB1EB04274208B2188E31FB13D10E","5a7b58b4-4017-447a-9ad2-d2bb922e9b1f","e622c465-ee29-4445-8260-1f3431e06587","{""participantId"":""8B6AB1EB04274208B2188E31FB13D10E"",""assignmentId"":""5a7b58b4-4017-447a-9ad2-d2bb922e9b1f"",""projectId"":""e622c465-ee29-4445-8260-1f3431e06587""}","https://test12345.live/?participantId=8B6AB1EB04274208B2188E31FB13D10E&assignmentId=5a7b58b4-4017-447a-9ad2-d2bb922e9b1f&projectId=e622c465-ee29-4445-8260-1f3431e06587","","1067","
    <div style=""display: flex; justify-content: center; align-items: center;"">
      <img src=""images/blue_deck_1.png"" style=""width: 300px; height: 300px; margin-right: 10px;"" />
      <img src=""images/red_deck_2.png"" style=""width: 300px; height: 300px;"" />
    </div>","0","0",""
"","","","","","html-keyboard-response","55","178292","0.0-41.0-0.0","8B6AB1EB04274208B2188E31FB13D10E","8B6AB1EB04274208B2188E31FB13D10E","5a7b58b4-4017-447a-9ad2-d2bb922e9b1f","e622c465-ee29-4445-8260-1f3431e06587","{""participantId"":""8B6AB1EB04274208B2188E31FB13D10E"",""assignmentId"":""5a7b58b4-4017-447a-9ad2-d2bb922e9b1f"",""projectId"":""e622c465-ee29-4445-8260-1f3431e06587""}","https://test12345.live/?participantId=8B6AB1EB04274208B2188E31FB13D10E&assignmentId=5a7b58b4-4017-447a-9ad2-d2bb922e9b1f&projectId=e622c465-ee29-4445-8260-1f3431e06587","","null","<div style=""display: flex; justify-content: center; align-items: center;"">
                    <img src=""images/causal/causal_series_8/causal_series_8_a.jpg"" style=""width: 300px; height: 300px;"" />
                  </div>","null","",""
"","","","","","html-keyboard-response","56","181294","0.0-41.0-1.0","8B6AB1EB04274208B2188E31FB13D10E","8B6AB1EB04274208B2188E31FB13D10E","5a7b58b4-4017-447a-9ad2-d2bb922e9b1f","e622c465-ee29-4445-8260-1f3431e06587","{""participantId"":""8B6AB1EB04274208B2188E31FB13D10E"",""assignmentId"":""5a7b58b4-4017-447a-9ad2-d2bb922e9b1f"",""projectId"":""e622c465-ee29-4445-8260-1f3431e06587""}","https://test12345.live/?participantId=8B6AB1EB04274208B2188E31FB13D10E&assignmentId=5a7b58b4-4017-447a-9ad2-d2bb922e9b1f&projectId=e622c465-ee29-4445-8260-1f3431e06587","","null","<div style=""display: flex; justify-content: center; align-items: center;"">
                    <img src=""images/causal/causal_series_8/causal_series_8_b.jpg"" style=""width: 300px; height: 300px;"" />
                  </div>","null","",""
"","","","","","html-keyboard-response","57","184296","0.0-41.0-2.0","8B6AB1EB04274208B2188E31FB13D10E","8B6AB1EB04274208B2188E31FB13D10E","5a7b58b4-4017-447a-9ad2-d2bb922e9b1f","e622c465-ee29-4445-8260-1f3431e06587","{""participantId"":""8B6AB1EB04274208B2188E31FB13D10E"",""assignmentId"":""5a7b58b4-4017-447a-9ad2-d2bb922e9b1f"",""projectId"":""e622c465-ee29-4445-8260-1f3431e06587""}","https://test12345.live/?participantId=8B6AB1EB04274208B2188E31FB13D10E&assignmentId=5a7b58b4-4017-447a-9ad2-d2bb922e9b1f&projectId=e622c465-ee29-4445-8260-1f3431e06587","","null","<div style=""display: flex; justify-content: center; align-items: center;"">
                    <img src=""images/causal/causal_series_8/causal_series_8_c.jpg"" style=""width: 300px; height: 300px;"" />
                  </div>","null","",""
"","","","","","html-keyboard-response","58","187299","0.0-41.0-3.0","8B6AB1EB04274208B2188E31FB13D10E","8B6AB1EB04274208B2188E31FB13D10E","5a7b58b4-4017-447a-9ad2-d2bb922e9b1f","e622c465-ee29-4445-8260-1f3431e06587","{""participantId"":""8B6AB1EB04274208B2188E31FB13D10E"",""assignmentId"":""5a7b58b4-4017-447a-9ad2-d2bb922e9b1f"",""projectId"":""e622c465-ee29-4445-8260-1f3431e06587""}","https://test12345.live/?participantId=8B6AB1EB04274208B2188E31FB13D10E&assignmentId=5a7b58b4-4017-447a-9ad2-d2bb922e9b1f&projectId=e622c465-ee29-4445-8260-1f3431e06587","","null","<div style=""display: flex; justify-content: center; align-items: center;"">
                    <img src=""images/causal/causal_series_8/causal_series_8_d.jpg"" style=""width: 300px; height: 300px;"" />
                  </div>","null","",""
"","","","","","html-button-response","59","190296","0.0-43.0","8B6AB1EB04274208B2188E31FB13D10E","8B6AB1EB04274208B2188E31FB13D10E","5a7b58b4-4017-447a-9ad2-d2bb922e9b1f","e622c465-ee29-4445-8260-1f3431e06587","{""participantId"":""8B6AB1EB04274208B2188E31FB13D10E"",""assignmentId"":""5a7b58b4-4017-447a-9ad2-d2bb922e9b1f"",""projectId"":""e622c465-ee29-4445-8260-1f3431e06587""}","https://test12345.live/?participantId=8B6AB1EB04274208B2188E31FB13D10E&assignmentId=5a7b58b4-4017-447a-9ad2-d2bb922e9b1f&projectId=e622c465-ee29-4445-8260-1f3431e06587","","2995","Was there a person in the picture?","1","",""
"","","","","","survey-likert","60","192000","0.0-44.0","8B6AB1EB04274208B2188E31FB13D10E","8B6AB1EB04274208B2188E31FB13D10E","5a7b58b4-4017-447a-9ad2-d2bb922e9b1f","e622c465-ee29-4445-8260-1f3431e06587","{""participantId"":""8B6AB1EB04274208B2188E31FB13D10E"",""assignmentId"":""5a7b58b4-4017-447a-9ad2-d2bb922e9b1f"",""projectId"":""e622c465-ee29-4445-8260-1f3431e06587""}","https://test12345.live/?participantId=8B6AB1EB04274208B2188E31FB13D10E&assignmentId=5a7b58b4-4017-447a-9ad2-d2bb922e9b1f&projectId=e622c465-ee29-4445-8260-1f3431e06587","","1703","","{""Q0"":2}","","[0]"
"","","","","","html-button-response","61","192987","0.0-45.0","8B6AB1EB04274208B2188E31FB13D10E","8B6AB1EB04274208B2188E31FB13D10E","5a7b58b4-4017-447a-9ad2-d2bb922e9b1f","e622c465-ee29-4445-8260-1f3431e06587","{""participantId"":""8B6AB1EB04274208B2188E31FB13D10E"",""assignmentId"":""5a7b58b4-4017-447a-9ad2-d2bb922e9b1f"",""projectId"":""e622c465-ee29-4445-8260-1f3431e06587""}","https://test12345.live/?participantId=8B6AB1EB04274208B2188E31FB13D10E&assignmentId=5a7b58b4-4017-447a-9ad2-d2bb922e9b1f&projectId=e622c465-ee29-4445-8260-1f3431e06587","","986","
    <div style=""display: flex; justify-content: center; align-items: center;"">
      <img src=""images/blue_deck_1.png"" style=""width: 300px; height: 300px; margin-right: 10px;"" />
      <img src=""images/red_deck_2.png"" style=""width: 300px; height: 300px;"" />
    </div>","0","0",""
"","","","","","html-keyboard-response","62","195990","0.0-46.0-0.0","8B6AB1EB04274208B2188E31FB13D10E","8B6AB1EB04274208B2188E31FB13D10E","5a7b58b4-4017-447a-9ad2-d2bb922e9b1f","e622c465-ee29-4445-8260-1f3431e06587","{""participantId"":""8B6AB1EB04274208B2188E31FB13D10E"",""assignmentId"":""5a7b58b4-4017-447a-9ad2-d2bb922e9b1f"",""projectId"":""e622c465-ee29-4445-8260-1f3431e06587""}","https://test12345.live/?participantId=8B6AB1EB04274208B2188E31FB13D10E&assignmentId=5a7b58b4-4017-447a-9ad2-d2bb922e9b1f&projectId=e622c465-ee29-4445-8260-1f3431e06587","","null","<div style=""display: flex; justify-content: center; align-items: center;"">
                    <img src=""images/causal/causal_series_16/causal_series_16_a.jpg"" style=""width: 300px; height: 300px;"" />
                  </div>","null","",""
"","","","","","html-keyboard-response","63","198992","0.0-46.0-1.0","8B6AB1EB04274208B2188E31FB13D10E","8B6AB1EB04274208B2188E31FB13D10E","5a7b58b4-4017-447a-9ad2-d2bb922e9b1f","e622c465-ee29-4445-8260-1f3431e06587","{""participantId"":""8B6AB1EB04274208B2188E31FB13D10E"",""assignmentId"":""5a7b58b4-4017-447a-9ad2-d2bb922e9b1f"",""projectId"":""e622c465-ee29-4445-8260-1f3431e06587""}","https://test12345.live/?participantId=8B6AB1EB04274208B2188E31FB13D10E&assignmentId=5a7b58b4-4017-447a-9ad2-d2bb922e9b1f&projectId=e622c465-ee29-4445-8260-1f3431e06587","","null","<div style=""display: flex; justify-content: center; align-items: center;"">
                    <img src=""images/causal/causal_series_16/causal_series_16_b.jpg"" style=""width: 300px; height: 300px;"" />
                  </div>","null","",""
"","","","","","html-keyboard-response","64","201995","0.0-46.0-2.0","8B6AB1EB04274208B2188E31FB13D10E","8B6AB1EB04274208B2188E31FB13D10E","5a7b58b4-4017-447a-9ad2-d2bb922e9b1f","e622c465-ee29-4445-8260-1f3431e06587","{""participantId"":""8B6AB1EB04274208B2188E31FB13D10E"",""assignmentId"":""5a7b58b4-4017-447a-9ad2-d2bb922e9b1f"",""projectId"":""e622c465-ee29-4445-8260-1f3431e06587""}","https://test12345.live/?participantId=8B6AB1EB04274208B2188E31FB13D10E&assignmentId=5a7b58b4-4017-447a-9ad2-d2bb922e9b1f&projectId=e622c465-ee29-4445-8260-1f3431e06587","","null","<div style=""display: flex; justify-content: center; align-items: center;"">
                    <img src=""images/causal/causal_series_16/causal_series_16_c.jpg"" style=""width: 300px; height: 300px;"" />
                  </div>","null","",""
"","","","","","html-keyboard-response","65","204997","0.0-46.0-3.0","8B6AB1EB04274208B2188E31FB13D10E","8B6AB1EB04274208B2188E31FB13D10E","5a7b58b4-4017-447a-9ad2-d2bb922e9b1f","e622c465-ee29-4445-8260-1f3431e06587","{""participantId"":""8B6AB1EB04274208B2188E31FB13D10E"",""assignmentId"":""5a7b58b4-4017-447a-9ad2-d2bb922e9b1f"",""projectId"":""e622c465-ee29-4445-8260-1f3431e06587""}","https://test12345.live/?participantId=8B6AB1EB04274208B2188E31FB13D10E&assignmentId=5a7b58b4-4017-447a-9ad2-d2bb922e9b1f&projectId=e622c465-ee29-4445-8260-1f3431e06587","","null","<div style=""display: flex; justify-content: center; align-items: center;"">
                    <img src=""images/causal/causal_series_16/causal_series_16_d.jpg"" style=""width: 300px; height: 300px;"" />
                  </div>","null","",""
"","","","","","html-button-response","66","206096","0.0-48.0","8B6AB1EB04274208B2188E31FB13D10E","8B6AB1EB04274208B2188E31FB13D10E","5a7b58b4-4017-447a-9ad2-d2bb922e9b1f","e622c465-ee29-4445-8260-1f3431e06587","{""participantId"":""8B6AB1EB04274208B2188E31FB13D10E"",""assignmentId"":""5a7b58b4-4017-447a-9ad2-d2bb922e9b1f"",""projectId"":""e622c465-ee29-4445-8260-1f3431e06587""}","https://test12345.live/?participantId=8B6AB1EB04274208B2188E31FB13D10E&assignmentId=5a7b58b4-4017-447a-9ad2-d2bb922e9b1f&projectId=e622c465-ee29-4445-8260-1f3431e06587","","1098","Was there a person in the picture?","0","",""
"","","","","","survey-likert","67","208155","0.0-49.0","8B6AB1EB04274208B2188E31FB13D10E","8B6AB1EB04274208B2188E31FB13D10E","5a7b58b4-4017-447a-9ad2-d2bb922e9b1f","e622c465-ee29-4445-8260-1f3431e06587","{""participantId"":""8B6AB1EB04274208B2188E31FB13D10E"",""assignmentId"":""5a7b58b4-4017-447a-9ad2-d2bb922e9b1f"",""projectId"":""e622c465-ee29-4445-8260-1f3431e06587""}","https://test12345.live/?participantId=8B6AB1EB04274208B2188E31FB13D10E&assignmentId=5a7b58b4-4017-447a-9ad2-d2bb922e9b1f&projectId=e622c465-ee29-4445-8260-1f3431e06587","","2058","","{""Q0"":2}","","[0]"
"","","","","","html-button-response","68","209624","0.0-50.0","8B6AB1EB04274208B2188E31FB13D10E","8B6AB1EB04274208B2188E31FB13D10E","5a7b58b4-4017-447a-9ad2-d2bb922e9b1f","e622c465-ee29-4445-8260-1f3431e06587","{""participantId"":""8B6AB1EB04274208B2188E31FB13D10E"",""assignmentId"":""5a7b58b4-4017-447a-9ad2-d2bb922e9b1f"",""projectId"":""e622c465-ee29-4445-8260-1f3431e06587""}","https://test12345.live/?participantId=8B6AB1EB04274208B2188E31FB13D10E&assignmentId=5a7b58b4-4017-447a-9ad2-d2bb922e9b1f&projectId=e622c465-ee29-4445-8260-1f3431e06587","","1468","
    <div style=""display: flex; justify-content: center; align-items: center;"">
      <img src=""images/blue_deck_1.png"" style=""width: 300px; height: 300px; margin-right: 10px;"" />
      <img src=""images/red_deck_2.png"" style=""width: 300px; height: 300px;"" />
    </div>","0","0",""
"","","","","","html-keyboard-response","69","212626","0.0-51.0-0.0","8B6AB1EB04274208B2188E31FB13D10E","8B6AB1EB04274208B2188E31FB13D10E","5a7b58b4-4017-447a-9ad2-d2bb922e9b1f","e622c465-ee29-4445-8260-1f3431e06587","{""participantId"":""8B6AB1EB04274208B2188E31FB13D10E"",""assignmentId"":""5a7b58b4-4017-447a-9ad2-d2bb922e9b1f"",""projectId"":""e622c465-ee29-4445-8260-1f3431e06587""}","https://test12345.live/?participantId=8B6AB1EB04274208B2188E31FB13D10E&assignmentId=5a7b58b4-4017-447a-9ad2-d2bb922e9b1f&projectId=e622c465-ee29-4445-8260-1f3431e06587","","null","<div style=""display: flex; justify-content: center; align-items: center;"">
                    <img src=""images/causal/causal_series_13/causal_series_13_a.jpg"" style=""width: 300px; height: 300px;"" />
                  </div>","null","",""
"","","","","","html-keyboard-response","70","215629","0.0-51.0-1.0","8B6AB1EB04274208B2188E31FB13D10E","8B6AB1EB04274208B2188E31FB13D10E","5a7b58b4-4017-447a-9ad2-d2bb922e9b1f","e622c465-ee29-4445-8260-1f3431e06587","{""participantId"":""8B6AB1EB04274208B2188E31FB13D10E"",""assignmentId"":""5a7b58b4-4017-447a-9ad2-d2bb922e9b1f"",""projectId"":""e622c465-ee29-4445-8260-1f3431e06587""}","https://test12345.live/?participantId=8B6AB1EB04274208B2188E31FB13D10E&assignmentId=5a7b58b4-4017-447a-9ad2-d2bb922e9b1f&projectId=e622c465-ee29-4445-8260-1f3431e06587","","null","<div style=""display: flex; justify-content: center; align-items: center;"">
                    <img src=""images/causal/causal_series_13/causal_series_13_b.jpg"" style=""width: 300px; height: 300px;"" />
                  </div>","null","",""
"","","","","","html-keyboard-response","71","218631","0.0-51.0-2.0","8B6AB1EB04274208B2188E31FB13D10E","8B6AB1EB04274208B2188E31FB13D10E","5a7b58b4-4017-447a-9ad2-d2bb922e9b1f","e622c465-ee29-4445-8260-1f3431e06587","{""participantId"":""8B6AB1EB04274208B2188E31FB13D10E"",""assignmentId"":""5a7b58b4-4017-447a-9ad2-d2bb922e9b1f"",""projectId"":""e622c465-ee29-4445-8260-1f3431e06587""}","https://test12345.live/?participantId=8B6AB1EB04274208B2188E31FB13D10E&assignmentId=5a7b58b4-4017-447a-9ad2-d2bb922e9b1f&projectId=e622c465-ee29-4445-8260-1f3431e06587","","null","<div style=""display: flex; justify-content: center; align-items: center;"">
                    <img src=""images/causal/causal_series_13/causal_series_13_c.jpg"" style=""width: 300px; height: 300px;"" />
                  </div>","null","",""
"","","","","","html-keyboard-response","72","221633","0.0-51.0-3.0","8B6AB1EB04274208B2188E31FB13D10E","8B6AB1EB04274208B2188E31FB13D10E","5a7b58b4-4017-447a-9ad2-d2bb922e9b1f","e622c465-ee29-4445-8260-1f3431e06587","{""participantId"":""8B6AB1EB04274208B2188E31FB13D10E"",""assignmentId"":""5a7b58b4-4017-447a-9ad2-d2bb922e9b1f"",""projectId"":""e622c465-ee29-4445-8260-1f3431e06587""}","https://test12345.live/?participantId=8B6AB1EB04274208B2188E31FB13D10E&assignmentId=5a7b58b4-4017-447a-9ad2-d2bb922e9b1f&projectId=e622c465-ee29-4445-8260-1f3431e06587","","null","<div style=""display: flex; justify-content: center; align-items: center;"">
                    <img src=""images/causal/causal_series_13/causal_series_13_d.jpg"" style=""width: 300px; height: 300px;"" />
                  </div>","null","",""
"","","","","","html-button-response","73","222797","0.0-53.0","8B6AB1EB04274208B2188E31FB13D10E","8B6AB1EB04274208B2188E31FB13D10E","5a7b58b4-4017-447a-9ad2-d2bb922e9b1f","e622c465-ee29-4445-8260-1f3431e06587","{""participantId"":""8B6AB1EB04274208B2188E31FB13D10E"",""assignmentId"":""5a7b58b4-4017-447a-9ad2-d2bb922e9b1f"",""projectId"":""e622c465-ee29-4445-8260-1f3431e06587""}","https://test12345.live/?participantId=8B6AB1EB04274208B2188E31FB13D10E&assignmentId=5a7b58b4-4017-447a-9ad2-d2bb922e9b1f&projectId=e622c465-ee29-4445-8260-1f3431e06587","","1162","Was there a person in the picture?","0","",""
"","","","","","survey-likert","74","225725","0.0-54.0","8B6AB1EB04274208B2188E31FB13D10E","8B6AB1EB04274208B2188E31FB13D10E","5a7b58b4-4017-447a-9ad2-d2bb922e9b1f","e622c465-ee29-4445-8260-1f3431e06587","{""participantId"":""8B6AB1EB04274208B2188E31FB13D10E"",""assignmentId"":""5a7b58b4-4017-447a-9ad2-d2bb922e9b1f"",""projectId"":""e622c465-ee29-4445-8260-1f3431e06587""}","https://test12345.live/?participantId=8B6AB1EB04274208B2188E31FB13D10E&assignmentId=5a7b58b4-4017-447a-9ad2-d2bb922e9b1f&projectId=e622c465-ee29-4445-8260-1f3431e06587","","2927","","{""Q0"":1}","","[0]"
"","","","","","html-button-response","75","226704","0.0-55.0","8B6AB1EB04274208B2188E31FB13D10E","8B6AB1EB04274208B2188E31FB13D10E","5a7b58b4-4017-447a-9ad2-d2bb922e9b1f","e622c465-ee29-4445-8260-1f3431e06587","{""participantId"":""8B6AB1EB04274208B2188E31FB13D10E"",""assignmentId"":""5a7b58b4-4017-447a-9ad2-d2bb922e9b1f"",""projectId"":""e622c465-ee29-4445-8260-1f3431e06587""}","https://test12345.live/?participantId=8B6AB1EB04274208B2188E31FB13D10E&assignmentId=5a7b58b4-4017-447a-9ad2-d2bb922e9b1f&projectId=e622c465-ee29-4445-8260-1f3431e06587","","977","
    <div style=""display: flex; justify-content: center; align-items: center;"">
      <img src=""images/blue_deck_1.png"" style=""width: 300px; height: 300px; margin-right: 10px;"" />
      <img src=""images/red_deck_2.png"" style=""width: 300px; height: 300px;"" />
    </div>","1","1",""
"","","","","","html-keyboard-response","76","229706","0.0-57.0-0.0","8B6AB1EB04274208B2188E31FB13D10E","8B6AB1EB04274208B2188E31FB13D10E","5a7b58b4-4017-447a-9ad2-d2bb922e9b1f","e622c465-ee29-4445-8260-1f3431e06587","{""participantId"":""8B6AB1EB04274208B2188E31FB13D10E"",""assignmentId"":""5a7b58b4-4017-447a-9ad2-d2bb922e9b1f"",""projectId"":""e622c465-ee29-4445-8260-1f3431e06587""}","https://test12345.live/?participantId=8B6AB1EB04274208B2188E31FB13D10E&assignmentId=5a7b58b4-4017-447a-9ad2-d2bb922e9b1f&projectId=e622c465-ee29-4445-8260-1f3431e06587","","null","<div style=""display: flex; justify-content: center; align-items: center;"">
                    <img src=""images/semantic/semantic_series_3/semantic_series_3_a.jpg"" style=""width: 300px; height: 300px;"" />
                  </div>","null","",""
"","","","","","html-keyboard-response","77","232709","0.0-57.0-1.0","8B6AB1EB04274208B2188E31FB13D10E","8B6AB1EB04274208B2188E31FB13D10E","5a7b58b4-4017-447a-9ad2-d2bb922e9b1f","e622c465-ee29-4445-8260-1f3431e06587","{""participantId"":""8B6AB1EB04274208B2188E31FB13D10E"",""assignmentId"":""5a7b58b4-4017-447a-9ad2-d2bb922e9b1f"",""projectId"":""e622c465-ee29-4445-8260-1f3431e06587""}","https://test12345.live/?participantId=8B6AB1EB04274208B2188E31FB13D10E&assignmentId=5a7b58b4-4017-447a-9ad2-d2bb922e9b1f&projectId=e622c465-ee29-4445-8260-1f3431e06587","","null","<div style=""display: flex; justify-content: center; align-items: center;"">
                    <img src=""images/semantic/semantic_series_3/semantic_series_3_b.jpg"" style=""width: 300px; height: 300px;"" />
                  </div>","null","",""
"","","","","","html-keyboard-response","78","235711","0.0-57.0-2.0","8B6AB1EB04274208B2188E31FB13D10E","8B6AB1EB04274208B2188E31FB13D10E","5a7b58b4-4017-447a-9ad2-d2bb922e9b1f","e622c465-ee29-4445-8260-1f3431e06587","{""participantId"":""8B6AB1EB04274208B2188E31FB13D10E"",""assignmentId"":""5a7b58b4-4017-447a-9ad2-d2bb922e9b1f"",""projectId"":""e622c465-ee29-4445-8260-1f3431e06587""}","https://test12345.live/?participantId=8B6AB1EB04274208B2188E31FB13D10E&assignmentId=5a7b58b4-4017-447a-9ad2-d2bb922e9b1f&projectId=e622c465-ee29-4445-8260-1f3431e06587","","null","<div style=""display: flex; justify-content: center; align-items: center;"">
                    <img src=""images/semantic/semantic_series_3/semantic_series_3_c.jpg"" style=""width: 300px; height: 300px;"" />
                  </div>","null","",""
"","","","","","html-keyboard-response","79","238714","0.0-57.0-3.0","8B6AB1EB04274208B2188E31FB13D10E","8B6AB1EB04274208B2188E31FB13D10E","5a7b58b4-4017-447a-9ad2-d2bb922e9b1f","e622c465-ee29-4445-8260-1f3431e06587","{""participantId"":""8B6AB1EB04274208B2188E31FB13D10E"",""assignmentId"":""5a7b58b4-4017-447a-9ad2-d2bb922e9b1f"",""projectId"":""e622c465-ee29-4445-8260-1f3431e06587""}","https://test12345.live/?participantId=8B6AB1EB04274208B2188E31FB13D10E&assignmentId=5a7b58b4-4017-447a-9ad2-d2bb922e9b1f&projectId=e622c465-ee29-4445-8260-1f3431e06587","","null","<div style=""display: flex; justify-content: center; align-items: center;"">
                    <img src=""images/semantic/semantic_series_3/semantic_series_3_d.jpg"" style=""width: 300px; height: 300px;"" />
                  </div>","null","",""
"","","","","","html-button-response","80","239966","0.0-58.0","8B6AB1EB04274208B2188E31FB13D10E","8B6AB1EB04274208B2188E31FB13D10E","5a7b58b4-4017-447a-9ad2-d2bb922e9b1f","e622c465-ee29-4445-8260-1f3431e06587","{""participantId"":""8B6AB1EB04274208B2188E31FB13D10E"",""assignmentId"":""5a7b58b4-4017-447a-9ad2-d2bb922e9b1f"",""projectId"":""e622c465-ee29-4445-8260-1f3431e06587""}","https://test12345.live/?participantId=8B6AB1EB04274208B2188E31FB13D10E&assignmentId=5a7b58b4-4017-447a-9ad2-d2bb922e9b1f&projectId=e622c465-ee29-4445-8260-1f3431e06587","","1251","Was there a person in the picture?","0","",""
"","","","","","survey-likert","81","241668","0.0-59.0","8B6AB1EB04274208B2188E31FB13D10E","8B6AB1EB04274208B2188E31FB13D10E","5a7b58b4-4017-447a-9ad2-d2bb922e9b1f","e622c465-ee29-4445-8260-1f3431e06587","{""participantId"":""8B6AB1EB04274208B2188E31FB13D10E"",""assignmentId"":""5a7b58b4-4017-447a-9ad2-d2bb922e9b1f"",""projectId"":""e622c465-ee29-4445-8260-1f3431e06587""}","https://test12345.live/?participantId=8B6AB1EB04274208B2188E31FB13D10E&assignmentId=5a7b58b4-4017-447a-9ad2-d2bb922e9b1f&projectId=e622c465-ee29-4445-8260-1f3431e06587","","1701","","{""Q0"":1}","","[0]"
"","","","","","html-button-response","82","242762","0.0-60.0","8B6AB1EB04274208B2188E31FB13D10E","8B6AB1EB04274208B2188E31FB13D10E","5a7b58b4-4017-447a-9ad2-d2bb922e9b1f","e622c465-ee29-4445-8260-1f3431e06587","{""participantId"":""8B6AB1EB04274208B2188E31FB13D10E"",""assignmentId"":""5a7b58b4-4017-447a-9ad2-d2bb922e9b1f"",""projectId"":""e622c465-ee29-4445-8260-1f3431e06587""}","https://test12345.live/?participantId=8B6AB1EB04274208B2188E31FB13D10E&assignmentId=5a7b58b4-4017-447a-9ad2-d2bb922e9b1f&projectId=e622c465-ee29-4445-8260-1f3431e06587","","1093","
    <div style=""display: flex; justify-content: center; align-items: center;"">
      <img src=""images/blue_deck_1.png"" style=""width: 300px; height: 300px; margin-right: 10px;"" />
      <img src=""images/red_deck_2.png"" style=""width: 300px; height: 300px;"" />
    </div>","1","1",""
"","","","","","html-keyboard-response","83","245765","0.0-62.0-0.0","8B6AB1EB04274208B2188E31FB13D10E","8B6AB1EB04274208B2188E31FB13D10E","5a7b58b4-4017-447a-9ad2-d2bb922e9b1f","e622c465-ee29-4445-8260-1f3431e06587","{""participantId"":""8B6AB1EB04274208B2188E31FB13D10E"",""assignmentId"":""5a7b58b4-4017-447a-9ad2-d2bb922e9b1f"",""projectId"":""e622c465-ee29-4445-8260-1f3431e06587""}","https://test12345.live/?participantId=8B6AB1EB04274208B2188E31FB13D10E&assignmentId=5a7b58b4-4017-447a-9ad2-d2bb922e9b1f&projectId=e622c465-ee29-4445-8260-1f3431e06587","","null","<div style=""display: flex; justify-content: center; align-items: center;"">
                    <img src=""images/semantic/semantic_series_17/semantic_series_17_a.jpg"" style=""width: 300px; height: 300px;"" />
                  </div>","null","",""
"","","","","","html-keyboard-response","84","248768","0.0-62.0-1.0","8B6AB1EB04274208B2188E31FB13D10E","8B6AB1EB04274208B2188E31FB13D10E","5a7b58b4-4017-447a-9ad2-d2bb922e9b1f","e622c465-ee29-4445-8260-1f3431e06587","{""participantId"":""8B6AB1EB04274208B2188E31FB13D10E"",""assignmentId"":""5a7b58b4-4017-447a-9ad2-d2bb922e9b1f"",""projectId"":""e622c465-ee29-4445-8260-1f3431e06587""}","https://test12345.live/?participantId=8B6AB1EB04274208B2188E31FB13D10E&assignmentId=5a7b58b4-4017-447a-9ad2-d2bb922e9b1f&projectId=e622c465-ee29-4445-8260-1f3431e06587","","null","<div style=""display: flex; justify-content: center; align-items: center;"">
                    <img src=""images/semantic/semantic_series_17/semantic_series_17_b.jpg"" style=""width: 300px; height: 300px;"" />
                  </div>","null","",""
"","","","","","html-keyboard-response","85","251770","0.0-62.0-2.0","8B6AB1EB04274208B2188E31FB13D10E","8B6AB1EB04274208B2188E31FB13D10E","5a7b58b4-4017-447a-9ad2-d2bb922e9b1f","e622c465-ee29-4445-8260-1f3431e06587","{""participantId"":""8B6AB1EB04274208B2188E31FB13D10E"",""assignmentId"":""5a7b58b4-4017-447a-9ad2-d2bb922e9b1f"",""projectId"":""e622c465-ee29-4445-8260-1f3431e06587""}","https://test12345.live/?participantId=8B6AB1EB04274208B2188E31FB13D10E&assignmentId=5a7b58b4-4017-447a-9ad2-d2bb922e9b1f&projectId=e622c465-ee29-4445-8260-1f3431e06587","","null","<div style=""display: flex; justify-content: center; align-items: center;"">
                    <img src=""images/semantic/semantic_series_17/semantic_series_17_c.jpg"" style=""width: 300px; height: 300px;"" />
                  </div>","null","",""
"","","","","","html-keyboard-response","86","254773","0.0-62.0-3.0","8B6AB1EB04274208B2188E31FB13D10E","8B6AB1EB04274208B2188E31FB13D10E","5a7b58b4-4017-447a-9ad2-d2bb922e9b1f","e622c465-ee29-4445-8260-1f3431e06587","{""participantId"":""8B6AB1EB04274208B2188E31FB13D10E"",""assignmentId"":""5a7b58b4-4017-447a-9ad2-d2bb922e9b1f"",""projectId"":""e622c465-ee29-4445-8260-1f3431e06587""}","https://test12345.live/?participantId=8B6AB1EB04274208B2188E31FB13D10E&assignmentId=5a7b58b4-4017-447a-9ad2-d2bb922e9b1f&projectId=e622c465-ee29-4445-8260-1f3431e06587","","null","<div style=""display: flex; justify-content: center; align-items: center;"">
                    <img src=""images/semantic/semantic_series_17/semantic_series_17_d.jpg"" style=""width: 300px; height: 300px;"" />
                  </div>","null","",""
"","","","","","html-button-response","87","255887","0.0-63.0","8B6AB1EB04274208B2188E31FB13D10E","8B6AB1EB04274208B2188E31FB13D10E","5a7b58b4-4017-447a-9ad2-d2bb922e9b1f","e622c465-ee29-4445-8260-1f3431e06587","{""participantId"":""8B6AB1EB04274208B2188E31FB13D10E"",""assignmentId"":""5a7b58b4-4017-447a-9ad2-d2bb922e9b1f"",""projectId"":""e622c465-ee29-4445-8260-1f3431e06587""}","https://test12345.live/?participantId=8B6AB1EB04274208B2188E31FB13D10E&assignmentId=5a7b58b4-4017-447a-9ad2-d2bb922e9b1f&projectId=e622c465-ee29-4445-8260-1f3431e06587","","1114","Was there a person in the picture?","0","",""
"","","","","","survey-likert","88","257395","0.0-64.0","8B6AB1EB04274208B2188E31FB13D10E","8B6AB1EB04274208B2188E31FB13D10E","5a7b58b4-4017-447a-9ad2-d2bb922e9b1f","e622c465-ee29-4445-8260-1f3431e06587","{""participantId"":""8B6AB1EB04274208B2188E31FB13D10E"",""assignmentId"":""5a7b58b4-4017-447a-9ad2-d2bb922e9b1f"",""projectId"":""e622c465-ee29-4445-8260-1f3431e06587""}","https://test12345.live/?participantId=8B6AB1EB04274208B2188E31FB13D10E&assignmentId=5a7b58b4-4017-447a-9ad2-d2bb922e9b1f&projectId=e622c465-ee29-4445-8260-1f3431e06587","","1507","","{""Q0"":1}","","[0]"
"","","","","","html-button-response","89","258519","0.0-65.0","8B6AB1EB04274208B2188E31FB13D10E","8B6AB1EB04274208B2188E31FB13D10E","5a7b58b4-4017-447a-9ad2-d2bb922e9b1f","e622c465-ee29-4445-8260-1f3431e06587","{""participantId"":""8B6AB1EB04274208B2188E31FB13D10E"",""assignmentId"":""5a7b58b4-4017-447a-9ad2-d2bb922e9b1f"",""projectId"":""e622c465-ee29-4445-8260-1f3431e06587""}","https://test12345.live/?participantId=8B6AB1EB04274208B2188E31FB13D10E&assignmentId=5a7b58b4-4017-447a-9ad2-d2bb922e9b1f&projectId=e622c465-ee29-4445-8260-1f3431e06587","","1122","
    <div style=""display: flex; justify-content: center; align-items: center;"">
      <img src=""images/blue_deck_1.png"" style=""width: 300px; height: 300px; margin-right: 10px;"" />
      <img src=""images/red_deck_2.png"" style=""width: 300px; height: 300px;"" />
    </div>","1","1",""
"","","","","","html-keyboard-response","90","261522","0.0-67.0-0.0","8B6AB1EB04274208B2188E31FB13D10E","8B6AB1EB04274208B2188E31FB13D10E","5a7b58b4-4017-447a-9ad2-d2bb922e9b1f","e622c465-ee29-4445-8260-1f3431e06587","{""participantId"":""8B6AB1EB04274208B2188E31FB13D10E"",""assignmentId"":""5a7b58b4-4017-447a-9ad2-d2bb922e9b1f"",""projectId"":""e622c465-ee29-4445-8260-1f3431e06587""}","https://test12345.live/?participantId=8B6AB1EB04274208B2188E31FB13D10E&assignmentId=5a7b58b4-4017-447a-9ad2-d2bb922e9b1f&projectId=e622c465-ee29-4445-8260-1f3431e06587","","null","<div style=""display: flex; justify-content: center; align-items: center;"">
                    <img src=""images/semantic/semantic_series_10/semantic_series_10_a.jpg"" style=""width: 300px; height: 300px;"" />
                  </div>","null","",""
"","","","","","html-keyboard-response","91","264525","0.0-67.0-1.0","8B6AB1EB04274208B2188E31FB13D10E","8B6AB1EB04274208B2188E31FB13D10E","5a7b58b4-4017-447a-9ad2-d2bb922e9b1f","e622c465-ee29-4445-8260-1f3431e06587","{""participantId"":""8B6AB1EB04274208B2188E31FB13D10E"",""assignmentId"":""5a7b58b4-4017-447a-9ad2-d2bb922e9b1f"",""projectId"":""e622c465-ee29-4445-8260-1f3431e06587""}","https://test12345.live/?participantId=8B6AB1EB04274208B2188E31FB13D10E&assignmentId=5a7b58b4-4017-447a-9ad2-d2bb922e9b1f&projectId=e622c465-ee29-4445-8260-1f3431e06587","","null","<div style=""display: flex; justify-content: center; align-items: center;"">
                    <img src=""images/semantic/semantic_series_10/semantic_series_10_b.jpg"" style=""width: 300px; height: 300px;"" />
                  </div>","null","",""
"","","","","","html-keyboard-response","92","267528","0.0-67.0-2.0","8B6AB1EB04274208B2188E31FB13D10E","8B6AB1EB04274208B2188E31FB13D10E","5a7b58b4-4017-447a-9ad2-d2bb922e9b1f","e622c465-ee29-4445-8260-1f3431e06587","{""participantId"":""8B6AB1EB04274208B2188E31FB13D10E"",""assignmentId"":""5a7b58b4-4017-447a-9ad2-d2bb922e9b1f"",""projectId"":""e622c465-ee29-4445-8260-1f3431e06587""}","https://test12345.live/?participantId=8B6AB1EB04274208B2188E31FB13D10E&assignmentId=5a7b58b4-4017-447a-9ad2-d2bb922e9b1f&projectId=e622c465-ee29-4445-8260-1f3431e06587","","null","<div style=""display: flex; justify-content: center; align-items: center;"">
                    <img src=""images/semantic/semantic_series_10/semantic_series_10_c.jpg"" style=""width: 300px; height: 300px;"" />
                  </div>","null","",""
"","","","","","html-keyboard-response","93","270531","0.0-67.0-3.0","8B6AB1EB04274208B2188E31FB13D10E","8B6AB1EB04274208B2188E31FB13D10E","5a7b58b4-4017-447a-9ad2-d2bb922e9b1f","e622c465-ee29-4445-8260-1f3431e06587","{""participantId"":""8B6AB1EB04274208B2188E31FB13D10E"",""assignmentId"":""5a7b58b4-4017-447a-9ad2-d2bb922e9b1f"",""projectId"":""e622c465-ee29-4445-8260-1f3431e06587""}","https://test12345.live/?participantId=8B6AB1EB04274208B2188E31FB13D10E&assignmentId=5a7b58b4-4017-447a-9ad2-d2bb922e9b1f&projectId=e622c465-ee29-4445-8260-1f3431e06587","","null","<div style=""display: flex; justify-content: center; align-items: center;"">
                    <img src=""images/semantic/semantic_series_10/semantic_series_10_d.jpg"" style=""width: 300px; height: 300px;"" />
                  </div>","null","",""
"","","","","","html-button-response","94","271779","0.0-68.0","8B6AB1EB04274208B2188E31FB13D10E","8B6AB1EB04274208B2188E31FB13D10E","5a7b58b4-4017-447a-9ad2-d2bb922e9b1f","e622c465-ee29-4445-8260-1f3431e06587","{""participantId"":""8B6AB1EB04274208B2188E31FB13D10E"",""assignmentId"":""5a7b58b4-4017-447a-9ad2-d2bb922e9b1f"",""projectId"":""e622c465-ee29-4445-8260-1f3431e06587""}","https://test12345.live/?participantId=8B6AB1EB04274208B2188E31FB13D10E&assignmentId=5a7b58b4-4017-447a-9ad2-d2bb922e9b1f&projectId=e622c465-ee29-4445-8260-1f3431e06587","","1247","Was there a person in the picture?","1","",""
"","","","","","survey-likert","95","273371","0.0-69.0","8B6AB1EB04274208B2188E31FB13D10E","8B6AB1EB04274208B2188E31FB13D10E","5a7b58b4-4017-447a-9ad2-d2bb922e9b1f","e622c465-ee29-4445-8260-1f3431e06587","{""participantId"":""8B6AB1EB04274208B2188E31FB13D10E"",""assignmentId"":""5a7b58b4-4017-447a-9ad2-d2bb922e9b1f"",""projectId"":""e622c465-ee29-4445-8260-1f3431e06587""}","https://test12345.live/?participantId=8B6AB1EB04274208B2188E31FB13D10E&assignmentId=5a7b58b4-4017-447a-9ad2-d2bb922e9b1f&projectId=e622c465-ee29-4445-8260-1f3431e06587","","1592","","{""Q0"":2}","","[0]"
"","","","","","html-button-response","96","274313","0.0-70.0","8B6AB1EB04274208B2188E31FB13D10E","8B6AB1EB04274208B2188E31FB13D10E","5a7b58b4-4017-447a-9ad2-d2bb922e9b1f","e622c465-ee29-4445-8260-1f3431e06587","{""participantId"":""8B6AB1EB04274208B2188E31FB13D10E"",""assignmentId"":""5a7b58b4-4017-447a-9ad2-d2bb922e9b1f"",""projectId"":""e622c465-ee29-4445-8260-1f3431e06587""}","https://test12345.live/?participantId=8B6AB1EB04274208B2188E31FB13D10E&assignmentId=5a7b58b4-4017-447a-9ad2-d2bb922e9b1f&projectId=e622c465-ee29-4445-8260-1f3431e06587","","940","
    <div style=""display: flex; justify-content: center; align-items: center;"">
      <img src=""images/blue_deck_1.png"" style=""width: 300px; height: 300px; margin-right: 10px;"" />
      <img src=""images/red_deck_2.png"" style=""width: 300px; height: 300px;"" />
    </div>","1","1",""
"","","","","","html-keyboard-response","97","277316","0.0-72.0-0.0","8B6AB1EB04274208B2188E31FB13D10E","8B6AB1EB04274208B2188E31FB13D10E","5a7b58b4-4017-447a-9ad2-d2bb922e9b1f","e622c465-ee29-4445-8260-1f3431e06587","{""participantId"":""8B6AB1EB04274208B2188E31FB13D10E"",""assignmentId"":""5a7b58b4-4017-447a-9ad2-d2bb922e9b1f"",""projectId"":""e622c465-ee29-4445-8260-1f3431e06587""}","https://test12345.live/?participantId=8B6AB1EB04274208B2188E31FB13D10E&assignmentId=5a7b58b4-4017-447a-9ad2-d2bb922e9b1f&projectId=e622c465-ee29-4445-8260-1f3431e06587","","null","<div style=""display: flex; justify-content: center; align-items: center;"">
                    <img src=""images/semantic/semantic_series_9/semantic_series_9_a.jpg"" style=""width: 300px; height: 300px;"" />
                  </div>","null","",""
"","","","","","html-keyboard-response","98","280318","0.0-72.0-1.0","8B6AB1EB04274208B2188E31FB13D10E","8B6AB1EB04274208B2188E31FB13D10E","5a7b58b4-4017-447a-9ad2-d2bb922e9b1f","e622c465-ee29-4445-8260-1f3431e06587","{""participantId"":""8B6AB1EB04274208B2188E31FB13D10E"",""assignmentId"":""5a7b58b4-4017-447a-9ad2-d2bb922e9b1f"",""projectId"":""e622c465-ee29-4445-8260-1f3431e06587""}","https://test12345.live/?participantId=8B6AB1EB04274208B2188E31FB13D10E&assignmentId=5a7b58b4-4017-447a-9ad2-d2bb922e9b1f&projectId=e622c465-ee29-4445-8260-1f3431e06587","","null","<div style=""display: flex; justify-content: center; align-items: center;"">
                    <img src=""images/semantic/semantic_series_9/semantic_series_9_b.jpg"" style=""width: 300px; height: 300px;"" />
                  </div>","null","",""
"","","","","","html-keyboard-response","99","283320","0.0-72.0-2.0","8B6AB1EB04274208B2188E31FB13D10E","8B6AB1EB04274208B2188E31FB13D10E","5a7b58b4-4017-447a-9ad2-d2bb922e9b1f","e622c465-ee29-4445-8260-1f3431e06587","{""participantId"":""8B6AB1EB04274208B2188E31FB13D10E"",""assignmentId"":""5a7b58b4-4017-447a-9ad2-d2bb922e9b1f"",""projectId"":""e622c465-ee29-4445-8260-1f3431e06587""}","https://test12345.live/?participantId=8B6AB1EB04274208B2188E31FB13D10E&assignmentId=5a7b58b4-4017-447a-9ad2-d2bb922e9b1f&projectId=e622c465-ee29-4445-8260-1f3431e06587","","null","<div style=""display: flex; justify-content: center; align-items: center;"">
                    <img src=""images/semantic/semantic_series_9/semantic_series_9_c.jpg"" style=""width: 300px; height: 300px;"" />
                  </div>","null","",""
"","","","","","html-keyboard-response","100","286323","0.0-72.0-3.0","8B6AB1EB04274208B2188E31FB13D10E","8B6AB1EB04274208B2188E31FB13D10E","5a7b58b4-4017-447a-9ad2-d2bb922e9b1f","e622c465-ee29-4445-8260-1f3431e06587","{""participantId"":""8B6AB1EB04274208B2188E31FB13D10E"",""assignmentId"":""5a7b58b4-4017-447a-9ad2-d2bb922e9b1f"",""projectId"":""e622c465-ee29-4445-8260-1f3431e06587""}","https://test12345.live/?participantId=8B6AB1EB04274208B2188E31FB13D10E&assignmentId=5a7b58b4-4017-447a-9ad2-d2bb922e9b1f&projectId=e622c465-ee29-4445-8260-1f3431e06587","","null","<div style=""display: flex; justify-content: center; align-items: center;"">
                    <img src=""images/semantic/semantic_series_9/semantic_series_9_d.jpg"" style=""width: 300px; height: 300px;"" />
                  </div>","null","",""
"","","","","","html-button-response","101","287594","0.0-73.0","8B6AB1EB04274208B2188E31FB13D10E","8B6AB1EB04274208B2188E31FB13D10E","5a7b58b4-4017-447a-9ad2-d2bb922e9b1f","e622c465-ee29-4445-8260-1f3431e06587","{""participantId"":""8B6AB1EB04274208B2188E31FB13D10E"",""assignmentId"":""5a7b58b4-4017-447a-9ad2-d2bb922e9b1f"",""projectId"":""e622c465-ee29-4445-8260-1f3431e06587""}","https://test12345.live/?participantId=8B6AB1EB04274208B2188E31FB13D10E&assignmentId=5a7b58b4-4017-447a-9ad2-d2bb922e9b1f&projectId=e622c465-ee29-4445-8260-1f3431e06587","","1271","Was there a person in the picture?","1","",""
"","","","","","survey-likert","102","289025","0.0-74.0","8B6AB1EB04274208B2188E31FB13D10E","8B6AB1EB04274208B2188E31FB13D10E","5a7b58b4-4017-447a-9ad2-d2bb922e9b1f","e622c465-ee29-4445-8260-1f3431e06587","{""participantId"":""8B6AB1EB04274208B2188E31FB13D10E"",""assignmentId"":""5a7b58b4-4017-447a-9ad2-d2bb922e9b1f"",""projectId"":""e622c465-ee29-4445-8260-1f3431e06587""}","https://test12345.live/?participantId=8B6AB1EB04274208B2188E31FB13D10E&assignmentId=5a7b58b4-4017-447a-9ad2-d2bb922e9b1f&projectId=e622c465-ee29-4445-8260-1f3431e06587","","1430","","{""Q0"":2}","","[0]"
"","","","","","html-button-response","103","289871","0.0-75.0","8B6AB1EB04274208B2188E31FB13D10E","8B6AB1EB04274208B2188E31FB13D10E","5a7b58b4-4017-447a-9ad2-d2bb922e9b1f","e622c465-ee29-4445-8260-1f3431e06587","{""participantId"":""8B6AB1EB04274208B2188E31FB13D10E"",""assignmentId"":""5a7b58b4-4017-447a-9ad2-d2bb922e9b1f"",""projectId"":""e622c465-ee29-4445-8260-1f3431e06587""}","https://test12345.live/?participantId=8B6AB1EB04274208B2188E31FB13D10E&assignmentId=5a7b58b4-4017-447a-9ad2-d2bb922e9b1f&projectId=e622c465-ee29-4445-8260-1f3431e06587","","845","
    <div style=""display: flex; justify-content: center; align-items: center;"">
      <img src=""images/blue_deck_1.png"" style=""width: 300px; height: 300px; margin-right: 10px;"" />
      <img src=""images/red_deck_2.png"" style=""width: 300px; height: 300px;"" />
    </div>","1","1",""
"","","","","","html-keyboard-response","104","292872","0.0-77.0-0.0","8B6AB1EB04274208B2188E31FB13D10E","8B6AB1EB04274208B2188E31FB13D10E","5a7b58b4-4017-447a-9ad2-d2bb922e9b1f","e622c465-ee29-4445-8260-1f3431e06587","{""participantId"":""8B6AB1EB04274208B2188E31FB13D10E"",""assignmentId"":""5a7b58b4-4017-447a-9ad2-d2bb922e9b1f"",""projectId"":""e622c465-ee29-4445-8260-1f3431e06587""}","https://test12345.live/?participantId=8B6AB1EB04274208B2188E31FB13D10E&assignmentId=5a7b58b4-4017-447a-9ad2-d2bb922e9b1f&projectId=e622c465-ee29-4445-8260-1f3431e06587","","null","<div style=""display: flex; justify-content: center; align-items: center;"">
                    <img src=""images/semantic/semantic_series_15/semantic_series_15_a.jpg"" style=""width: 300px; height: 300px;"" />
                  </div>","null","",""
"","","","","","html-keyboard-response","105","295875","0.0-77.0-1.0","8B6AB1EB04274208B2188E31FB13D10E","8B6AB1EB04274208B2188E31FB13D10E","5a7b58b4-4017-447a-9ad2-d2bb922e9b1f","e622c465-ee29-4445-8260-1f3431e06587","{""participantId"":""8B6AB1EB04274208B2188E31FB13D10E"",""assignmentId"":""5a7b58b4-4017-447a-9ad2-d2bb922e9b1f"",""projectId"":""e622c465-ee29-4445-8260-1f3431e06587""}","https://test12345.live/?participantId=8B6AB1EB04274208B2188E31FB13D10E&assignmentId=5a7b58b4-4017-447a-9ad2-d2bb922e9b1f&projectId=e622c465-ee29-4445-8260-1f3431e06587","","null","<div style=""display: flex; justify-content: center; align-items: center;"">
                    <img src=""images/semantic/semantic_series_15/semantic_series_15_b.jpg"" style=""width: 300px; height: 300px;"" />
                  </div>","null","",""
"","","","","","html-keyboard-response","106","298876","0.0-77.0-2.0","8B6AB1EB04274208B2188E31FB13D10E","8B6AB1EB04274208B2188E31FB13D10E","5a7b58b4-4017-447a-9ad2-d2bb922e9b1f","e622c465-ee29-4445-8260-1f3431e06587","{""participantId"":""8B6AB1EB04274208B2188E31FB13D10E"",""assignmentId"":""5a7b58b4-4017-447a-9ad2-d2bb922e9b1f"",""projectId"":""e622c465-ee29-4445-8260-1f3431e06587""}","https://test12345.live/?participantId=8B6AB1EB04274208B2188E31FB13D10E&assignmentId=5a7b58b4-4017-447a-9ad2-d2bb922e9b1f&projectId=e622c465-ee29-4445-8260-1f3431e06587","","null","<div style=""display: flex; justify-content: center; align-items: center;"">
                    <img src=""images/semantic/semantic_series_15/semantic_series_15_c.jpg"" style=""width: 300px; height: 300px;"" />
                  </div>","null","",""
"","","","","","html-keyboard-response","107","301879","0.0-77.0-3.0","8B6AB1EB04274208B2188E31FB13D10E","8B6AB1EB04274208B2188E31FB13D10E","5a7b58b4-4017-447a-9ad2-d2bb922e9b1f","e622c465-ee29-4445-8260-1f3431e06587","{""participantId"":""8B6AB1EB04274208B2188E31FB13D10E"",""assignmentId"":""5a7b58b4-4017-447a-9ad2-d2bb922e9b1f"",""projectId"":""e622c465-ee29-4445-8260-1f3431e06587""}","https://test12345.live/?participantId=8B6AB1EB04274208B2188E31FB13D10E&assignmentId=5a7b58b4-4017-447a-9ad2-d2bb922e9b1f&projectId=e622c465-ee29-4445-8260-1f3431e06587","","null","<div style=""display: flex; justify-content: center; align-items: center;"">
                    <img src=""images/semantic/semantic_series_15/semantic_series_15_d.jpg"" style=""width: 300px; height: 300px;"" />
                  </div>","null","",""
"","","","","","html-button-response","108","303212","0.0-78.0","8B6AB1EB04274208B2188E31FB13D10E","8B6AB1EB04274208B2188E31FB13D10E","5a7b58b4-4017-447a-9ad2-d2bb922e9b1f","e622c465-ee29-4445-8260-1f3431e06587","{""participantId"":""8B6AB1EB04274208B2188E31FB13D10E"",""assignmentId"":""5a7b58b4-4017-447a-9ad2-d2bb922e9b1f"",""projectId"":""e622c465-ee29-4445-8260-1f3431e06587""}","https://test12345.live/?participantId=8B6AB1EB04274208B2188E31FB13D10E&assignmentId=5a7b58b4-4017-447a-9ad2-d2bb922e9b1f&projectId=e622c465-ee29-4445-8260-1f3431e06587","","1332","Was there a person in the picture?","1","",""
"","","","","","survey-likert","109","305371","0.0-79.0","8B6AB1EB04274208B2188E31FB13D10E","8B6AB1EB04274208B2188E31FB13D10E","5a7b58b4-4017-447a-9ad2-d2bb922e9b1f","e622c465-ee29-4445-8260-1f3431e06587","{""participantId"":""8B6AB1EB04274208B2188E31FB13D10E"",""assignmentId"":""5a7b58b4-4017-447a-9ad2-d2bb922e9b1f"",""projectId"":""e622c465-ee29-4445-8260-1f3431e06587""}","https://test12345.live/?participantId=8B6AB1EB04274208B2188E31FB13D10E&assignmentId=5a7b58b4-4017-447a-9ad2-d2bb922e9b1f&projectId=e622c465-ee29-4445-8260-1f3431e06587","","2158","","{""Q0"":1}","","[0]"
"","","","","","html-button-response","110","306326","0.0-80.0","8B6AB1EB04274208B2188E31FB13D10E","8B6AB1EB04274208B2188E31FB13D10E","5a7b58b4-4017-447a-9ad2-d2bb922e9b1f","e622c465-ee29-4445-8260-1f3431e06587","{""participantId"":""8B6AB1EB04274208B2188E31FB13D10E"",""assignmentId"":""5a7b58b4-4017-447a-9ad2-d2bb922e9b1f"",""projectId"":""e622c465-ee29-4445-8260-1f3431e06587""}","https://test12345.live/?participantId=8B6AB1EB04274208B2188E31FB13D10E&assignmentId=5a7b58b4-4017-447a-9ad2-d2bb922e9b1f&projectId=e622c465-ee29-4445-8260-1f3431e06587","","954","
    <div style=""display: flex; justify-content: center; align-items: center;"">
      <img src=""images/blue_deck_1.png"" style=""width: 300px; height: 300px; margin-right: 10px;"" />
      <img src=""images/red_deck_2.png"" style=""width: 300px; height: 300px;"" />
    </div>","1","1",""
"","","","","","html-keyboard-response","111","309329","0.0-82.0-0.0","8B6AB1EB04274208B2188E31FB13D10E","8B6AB1EB04274208B2188E31FB13D10E","5a7b58b4-4017-447a-9ad2-d2bb922e9b1f","e622c465-ee29-4445-8260-1f3431e06587","{""participantId"":""8B6AB1EB04274208B2188E31FB13D10E"",""assignmentId"":""5a7b58b4-4017-447a-9ad2-d2bb922e9b1f"",""projectId"":""e622c465-ee29-4445-8260-1f3431e06587""}","https://test12345.live/?participantId=8B6AB1EB04274208B2188E31FB13D10E&assignmentId=5a7b58b4-4017-447a-9ad2-d2bb922e9b1f&projectId=e622c465-ee29-4445-8260-1f3431e06587","","null","<div style=""display: flex; justify-content: center; align-items: center;"">
                    <img src=""images/semantic/semantic_series_6/semantic_series_6_a.jpg"" style=""width: 300px; height: 300px;"" />
                  </div>","null","",""
"","","","","","html-keyboard-response","112","312332","0.0-82.0-1.0","8B6AB1EB04274208B2188E31FB13D10E","8B6AB1EB04274208B2188E31FB13D10E","5a7b58b4-4017-447a-9ad2-d2bb922e9b1f","e622c465-ee29-4445-8260-1f3431e06587","{""participantId"":""8B6AB1EB04274208B2188E31FB13D10E"",""assignmentId"":""5a7b58b4-4017-447a-9ad2-d2bb922e9b1f"",""projectId"":""e622c465-ee29-4445-8260-1f3431e06587""}","https://test12345.live/?participantId=8B6AB1EB04274208B2188E31FB13D10E&assignmentId=5a7b58b4-4017-447a-9ad2-d2bb922e9b1f&projectId=e622c465-ee29-4445-8260-1f3431e06587","","null","<div style=""display: flex; justify-content: center; align-items: center;"">
                    <img src=""images/semantic/semantic_series_6/semantic_series_6_b.jpg"" style=""width: 300px; height: 300px;"" />
                  </div>","null","",""
"","","","","","html-keyboard-response","113","315333","0.0-82.0-2.0","8B6AB1EB04274208B2188E31FB13D10E","8B6AB1EB04274208B2188E31FB13D10E","5a7b58b4-4017-447a-9ad2-d2bb922e9b1f","e622c465-ee29-4445-8260-1f3431e06587","{""participantId"":""8B6AB1EB04274208B2188E31FB13D10E"",""assignmentId"":""5a7b58b4-4017-447a-9ad2-d2bb922e9b1f"",""projectId"":""e622c465-ee29-4445-8260-1f3431e06587""}","https://test12345.live/?participantId=8B6AB1EB04274208B2188E31FB13D10E&assignmentId=5a7b58b4-4017-447a-9ad2-d2bb922e9b1f&projectId=e622c465-ee29-4445-8260-1f3431e06587","","null","<div style=""display: flex; justify-content: center; align-items: center;"">
                    <img src=""images/semantic/semantic_series_6/semantic_series_6_c.jpg"" style=""width: 300px; height: 300px;"" />
                  </div>","null","",""
"","","","","","html-keyboard-response","114","318335","0.0-82.0-3.0","8B6AB1EB04274208B2188E31FB13D10E","8B6AB1EB04274208B2188E31FB13D10E","5a7b58b4-4017-447a-9ad2-d2bb922e9b1f","e622c465-ee29-4445-8260-1f3431e06587","{""participantId"":""8B6AB1EB04274208B2188E31FB13D10E"",""assignmentId"":""5a7b58b4-4017-447a-9ad2-d2bb922e9b1f"",""projectId"":""e622c465-ee29-4445-8260-1f3431e06587""}","https://test12345.live/?participantId=8B6AB1EB04274208B2188E31FB13D10E&assignmentId=5a7b58b4-4017-447a-9ad2-d2bb922e9b1f&projectId=e622c465-ee29-4445-8260-1f3431e06587","","null","<div style=""display: flex; justify-content: center; align-items: center;"">
                    <img src=""images/semantic/semantic_series_6/semantic_series_6_d.jpg"" style=""width: 300px; height: 300px;"" />
                  </div>","null","",""
"","","","","","html-button-response","115","319240","0.0-83.0","8B6AB1EB04274208B2188E31FB13D10E","8B6AB1EB04274208B2188E31FB13D10E","5a7b58b4-4017-447a-9ad2-d2bb922e9b1f","e622c465-ee29-4445-8260-1f3431e06587","{""participantId"":""8B6AB1EB04274208B2188E31FB13D10E"",""assignmentId"":""5a7b58b4-4017-447a-9ad2-d2bb922e9b1f"",""projectId"":""e622c465-ee29-4445-8260-1f3431e06587""}","https://test12345.live/?participantId=8B6AB1EB04274208B2188E31FB13D10E&assignmentId=5a7b58b4-4017-447a-9ad2-d2bb922e9b1f&projectId=e622c465-ee29-4445-8260-1f3431e06587","","904","Was there a person in the picture?","1","",""
"","","","","","survey-likert","116","320990","0.0-84.0","8B6AB1EB04274208B2188E31FB13D10E","8B6AB1EB04274208B2188E31FB13D10E","5a7b58b4-4017-447a-9ad2-d2bb922e9b1f","e622c465-ee29-4445-8260-1f3431e06587","{""participantId"":""8B6AB1EB04274208B2188E31FB13D10E"",""assignmentId"":""5a7b58b4-4017-447a-9ad2-d2bb922e9b1f"",""projectId"":""e622c465-ee29-4445-8260-1f3431e06587""}","https://test12345.live/?participantId=8B6AB1EB04274208B2188E31FB13D10E&assignmentId=5a7b58b4-4017-447a-9ad2-d2bb922e9b1f&projectId=e622c465-ee29-4445-8260-1f3431e06587","","1749","","{""Q0"":2}","","[0]"
"","","","","","html-button-response","117","321817","0.0-85.0","8B6AB1EB04274208B2188E31FB13D10E","8B6AB1EB04274208B2188E31FB13D10E","5a7b58b4-4017-447a-9ad2-d2bb922e9b1f","e622c465-ee29-4445-8260-1f3431e06587","{""participantId"":""8B6AB1EB04274208B2188E31FB13D10E"",""assignmentId"":""5a7b58b4-4017-447a-9ad2-d2bb922e9b1f"",""projectId"":""e622c465-ee29-4445-8260-1f3431e06587""}","https://test12345.live/?participantId=8B6AB1EB04274208B2188E31FB13D10E&assignmentId=5a7b58b4-4017-447a-9ad2-d2bb922e9b1f&projectId=e622c465-ee29-4445-8260-1f3431e06587","","826","
    <div style=""display: flex; justify-content: center; align-items: center;"">
      <img src=""images/blue_deck_1.png"" style=""width: 300px; height: 300px; margin-right: 10px;"" />
      <img src=""images/red_deck_2.png"" style=""width: 300px; height: 300px;"" />
    </div>","1","1",""
"","","","","","html-keyboard-response","118","324819","0.0-87.0-0.0","8B6AB1EB04274208B2188E31FB13D10E","8B6AB1EB04274208B2188E31FB13D10E","5a7b58b4-4017-447a-9ad2-d2bb922e9b1f","e622c465-ee29-4445-8260-1f3431e06587","{""participantId"":""8B6AB1EB04274208B2188E31FB13D10E"",""assignmentId"":""5a7b58b4-4017-447a-9ad2-d2bb922e9b1f"",""projectId"":""e622c465-ee29-4445-8260-1f3431e06587""}","https://test12345.live/?participantId=8B6AB1EB04274208B2188E31FB13D10E&assignmentId=5a7b58b4-4017-447a-9ad2-d2bb922e9b1f&projectId=e622c465-ee29-4445-8260-1f3431e06587","","null","<div style=""display: flex; justify-content: center; align-items: center;"">
                    <img src=""images/semantic/semantic_series_13/semantic_series_13_a.jpg"" style=""width: 300px; height: 300px;"" />
                  </div>","null","",""
"","","","","","html-keyboard-response","119","327820","0.0-87.0-1.0","8B6AB1EB04274208B2188E31FB13D10E","8B6AB1EB04274208B2188E31FB13D10E","5a7b58b4-4017-447a-9ad2-d2bb922e9b1f","e622c465-ee29-4445-8260-1f3431e06587","{""participantId"":""8B6AB1EB04274208B2188E31FB13D10E"",""assignmentId"":""5a7b58b4-4017-447a-9ad2-d2bb922e9b1f"",""projectId"":""e622c465-ee29-4445-8260-1f3431e06587""}","https://test12345.live/?participantId=8B6AB1EB04274208B2188E31FB13D10E&assignmentId=5a7b58b4-4017-447a-9ad2-d2bb922e9b1f&projectId=e622c465-ee29-4445-8260-1f3431e06587","","null","<div style=""display: flex; justify-content: center; align-items: center;"">
                    <img src=""images/semantic/semantic_series_13/semantic_series_13_b.jpg"" style=""width: 300px; height: 300px;"" />
                  </div>","null","",""
"","","","","","html-keyboard-response","120","330823","0.0-87.0-2.0","8B6AB1EB04274208B2188E31FB13D10E","8B6AB1EB04274208B2188E31FB13D10E","5a7b58b4-4017-447a-9ad2-d2bb922e9b1f","e622c465-ee29-4445-8260-1f3431e06587","{""participantId"":""8B6AB1EB04274208B2188E31FB13D10E"",""assignmentId"":""5a7b58b4-4017-447a-9ad2-d2bb922e9b1f"",""projectId"":""e622c465-ee29-4445-8260-1f3431e06587""}","https://test12345.live/?participantId=8B6AB1EB04274208B2188E31FB13D10E&assignmentId=5a7b58b4-4017-447a-9ad2-d2bb922e9b1f&projectId=e622c465-ee29-4445-8260-1f3431e06587","","null","<div style=""display: flex; justify-content: center; align-items: center;"">
                    <img src=""images/semantic/semantic_series_13/semantic_series_13_c.jpg"" style=""width: 300px; height: 300px;"" />
                  </div>","null","",""
"","","","","","html-keyboard-response","121","333824","0.0-87.0-3.0","8B6AB1EB04274208B2188E31FB13D10E","8B6AB1EB04274208B2188E31FB13D10E","5a7b58b4-4017-447a-9ad2-d2bb922e9b1f","e622c465-ee29-4445-8260-1f3431e06587","{""participantId"":""8B6AB1EB04274208B2188E31FB13D10E"",""assignmentId"":""5a7b58b4-4017-447a-9ad2-d2bb922e9b1f"",""projectId"":""e622c465-ee29-4445-8260-1f3431e06587""}","https://test12345.live/?participantId=8B6AB1EB04274208B2188E31FB13D10E&assignmentId=5a7b58b4-4017-447a-9ad2-d2bb922e9b1f&projectId=e622c465-ee29-4445-8260-1f3431e06587","","null","<div style=""display: flex; justify-content: center; align-items: center;"">
                    <img src=""images/semantic/semantic_series_13/semantic_series_13_d.jpg"" style=""width: 300px; height: 300px;"" />
                  </div>","null","",""
"","","","","","html-button-response","122","334633","0.0-88.0","8B6AB1EB04274208B2188E31FB13D10E","8B6AB1EB04274208B2188E31FB13D10E","5a7b58b4-4017-447a-9ad2-d2bb922e9b1f","e622c465-ee29-4445-8260-1f3431e06587","{""participantId"":""8B6AB1EB04274208B2188E31FB13D10E"",""assignmentId"":""5a7b58b4-4017-447a-9ad2-d2bb922e9b1f"",""projectId"":""e622c465-ee29-4445-8260-1f3431e06587""}","https://test12345.live/?participantId=8B6AB1EB04274208B2188E31FB13D10E&assignmentId=5a7b58b4-4017-447a-9ad2-d2bb922e9b1f&projectId=e622c465-ee29-4445-8260-1f3431e06587","","808","Was there a person in the picture?","0","",""
"","","","","","survey-likert","123","336676","0.0-89.0","8B6AB1EB04274208B2188E31FB13D10E","8B6AB1EB04274208B2188E31FB13D10E","5a7b58b4-4017-447a-9ad2-d2bb922e9b1f","e622c465-ee29-4445-8260-1f3431e06587","{""participantId"":""8B6AB1EB04274208B2188E31FB13D10E"",""assignmentId"":""5a7b58b4-4017-447a-9ad2-d2bb922e9b1f"",""projectId"":""e622c465-ee29-4445-8260-1f3431e06587""}","https://test12345.live/?participantId=8B6AB1EB04274208B2188E31FB13D10E&assignmentId=5a7b58b4-4017-447a-9ad2-d2bb922e9b1f&projectId=e622c465-ee29-4445-8260-1f3431e06587","","2042","","{""Q0"":1}","","[0]"
"","","","","","html-button-response","124","337580","0.0-90.0","8B6AB1EB04274208B2188E31FB13D10E","8B6AB1EB04274208B2188E31FB13D10E","5a7b58b4-4017-447a-9ad2-d2bb922e9b1f","e622c465-ee29-4445-8260-1f3431e06587","{""participantId"":""8B6AB1EB04274208B2188E31FB13D10E"",""assignmentId"":""5a7b58b4-4017-447a-9ad2-d2bb922e9b1f"",""projectId"":""e622c465-ee29-4445-8260-1f3431e06587""}","https://test12345.live/?participantId=8B6AB1EB04274208B2188E31FB13D10E&assignmentId=5a7b58b4-4017-447a-9ad2-d2bb922e9b1f&projectId=e622c465-ee29-4445-8260-1f3431e06587","","903","
    <div style=""display: flex; justify-content: center; align-items: center;"">
      <img src=""images/blue_deck_1.png"" style=""width: 300px; height: 300px; margin-right: 10px;"" />
      <img src=""images/red_deck_2.png"" style=""width: 300px; height: 300px;"" />
    </div>","1","1",""
"","","","","","html-keyboard-response","125","340583","0.0-92.0-0.0","8B6AB1EB04274208B2188E31FB13D10E","8B6AB1EB04274208B2188E31FB13D10E","5a7b58b4-4017-447a-9ad2-d2bb922e9b1f","e622c465-ee29-4445-8260-1f3431e06587","{""participantId"":""8B6AB1EB04274208B2188E31FB13D10E"",""assignmentId"":""5a7b58b4-4017-447a-9ad2-d2bb922e9b1f"",""projectId"":""e622c465-ee29-4445-8260-1f3431e06587""}","https://test12345.live/?participantId=8B6AB1EB04274208B2188E31FB13D10E&assignmentId=5a7b58b4-4017-447a-9ad2-d2bb922e9b1f&projectId=e622c465-ee29-4445-8260-1f3431e06587","","null","<div style=""display: flex; justify-content: center; align-items: center;"">
                    <img src=""images/semantic/semantic_series_2/semantic_series_2_a.jpg"" style=""width: 300px; height: 300px;"" />
                  </div>","null","",""
"","","","","","html-keyboard-response","126","343585","0.0-92.0-1.0","8B6AB1EB04274208B2188E31FB13D10E","8B6AB1EB04274208B2188E31FB13D10E","5a7b58b4-4017-447a-9ad2-d2bb922e9b1f","e622c465-ee29-4445-8260-1f3431e06587","{""participantId"":""8B6AB1EB04274208B2188E31FB13D10E"",""assignmentId"":""5a7b58b4-4017-447a-9ad2-d2bb922e9b1f"",""projectId"":""e622c465-ee29-4445-8260-1f3431e06587""}","https://test12345.live/?participantId=8B6AB1EB04274208B2188E31FB13D10E&assignmentId=5a7b58b4-4017-447a-9ad2-d2bb922e9b1f&projectId=e622c465-ee29-4445-8260-1f3431e06587","","null","<div style=""display: flex; justify-content: center; align-items: center;"">
                    <img src=""images/semantic/semantic_series_2/semantic_series_2_b.jpg"" style=""width: 300px; height: 300px;"" />
                  </div>","null","",""
"","","","","","html-keyboard-response","127","346588","0.0-92.0-2.0","8B6AB1EB04274208B2188E31FB13D10E","8B6AB1EB04274208B2188E31FB13D10E","5a7b58b4-4017-447a-9ad2-d2bb922e9b1f","e622c465-ee29-4445-8260-1f3431e06587","{""participantId"":""8B6AB1EB04274208B2188E31FB13D10E"",""assignmentId"":""5a7b58b4-4017-447a-9ad2-d2bb922e9b1f"",""projectId"":""e622c465-ee29-4445-8260-1f3431e06587""}","https://test12345.live/?participantId=8B6AB1EB04274208B2188E31FB13D10E&assignmentId=5a7b58b4-4017-447a-9ad2-d2bb922e9b1f&projectId=e622c465-ee29-4445-8260-1f3431e06587","","null","<div style=""display: flex; justify-content: center; align-items: center;"">
                    <img src=""images/semantic/semantic_series_2/semantic_series_2_c.jpg"" style=""width: 300px; height: 300px;"" />
                  </div>","null","",""
"","","","","","html-keyboard-response","128","349590","0.0-92.0-3.0","8B6AB1EB04274208B2188E31FB13D10E","8B6AB1EB04274208B2188E31FB13D10E","5a7b58b4-4017-447a-9ad2-d2bb922e9b1f","e622c465-ee29-4445-8260-1f3431e06587","{""participantId"":""8B6AB1EB04274208B2188E31FB13D10E"",""assignmentId"":""5a7b58b4-4017-447a-9ad2-d2bb922e9b1f"",""projectId"":""e622c465-ee29-4445-8260-1f3431e06587""}","https://test12345.live/?participantId=8B6AB1EB04274208B2188E31FB13D10E&assignmentId=5a7b58b4-4017-447a-9ad2-d2bb922e9b1f&projectId=e622c465-ee29-4445-8260-1f3431e06587","","null","<div style=""display: flex; justify-content: center; align-items: center;"">
                    <img src=""images/semantic/semantic_series_2/semantic_series_2_d.jpg"" style=""width: 300px; height: 300px;"" />
                  </div>","null","",""
"","","","","","html-button-response","129","351271","0.0-93.0","8B6AB1EB04274208B2188E31FB13D10E","8B6AB1EB04274208B2188E31FB13D10E","5a7b58b4-4017-447a-9ad2-d2bb922e9b1f","e622c465-ee29-4445-8260-1f3431e06587","{""participantId"":""8B6AB1EB04274208B2188E31FB13D10E"",""assignmentId"":""5a7b58b4-4017-447a-9ad2-d2bb922e9b1f"",""projectId"":""e622c465-ee29-4445-8260-1f3431e06587""}","https://test12345.live/?participantId=8B6AB1EB04274208B2188E31FB13D10E&assignmentId=5a7b58b4-4017-447a-9ad2-d2bb922e9b1f&projectId=e622c465-ee29-4445-8260-1f3431e06587","","1680","Was there a person in the picture?","0","",""
"","","","","","survey-likert","130","352846","0.0-94.0","8B6AB1EB04274208B2188E31FB13D10E","8B6AB1EB04274208B2188E31FB13D10E","5a7b58b4-4017-447a-9ad2-d2bb922e9b1f","e622c465-ee29-4445-8260-1f3431e06587","{""participantId"":""8B6AB1EB04274208B2188E31FB13D10E"",""assignmentId"":""5a7b58b4-4017-447a-9ad2-d2bb922e9b1f"",""projectId"":""e622c465-ee29-4445-8260-1f3431e06587""}","https://test12345.live/?participantId=8B6AB1EB04274208B2188E31FB13D10E&assignmentId=5a7b58b4-4017-447a-9ad2-d2bb922e9b1f&projectId=e622c465-ee29-4445-8260-1f3431e06587","","1574","","{""Q0"":1}","","[0]"
"","","","","","survey-text","131","403913","0.0-95.0","8B6AB1EB04274208B2188E31FB13D10E","8B6AB1EB04274208B2188E31FB13D10E","5a7b58b4-4017-447a-9ad2-d2bb922e9b1f","e622c465-ee29-4445-8260-1f3431e06587","{""participantId"":""8B6AB1EB04274208B2188E31FB13D10E"",""assignmentId"":""5a7b58b4-4017-447a-9ad2-d2bb922e9b1f"",""projectId"":""e622c465-ee29-4445-8260-1f3431e06587""}","https://test12345.live/?participantId=8B6AB1EB04274208B2188E31FB13D10E&assignmentId=5a7b58b4-4017-447a-9ad2-d2bb922e9b1f&projectId=e622c465-ee29-4445-8260-1f3431e06587","","51062","","{""Q0"":""In some of the red deck scenario's there were days included at the bottom of the photo. The red deck also seemed to use AI more apparently than the blue deck.""}","",""
