"success","timeout","failed_images","failed_audio","failed_video","trial_type","trial_index","time_elapsed","internal_node_id","subject","audio_id","rt","device_id","view_history","stimulus","response","estimated_stimulus_onset"
"true","false","[]","[]","[]","preload","0","2699","0.0-0.0","owhpwuu5tnjup3p","owhpwuu5tnjup3p-2024-03-20-17-35-31","","","","","",""
"true","","","","","fullscreen","1","8672","0.0-1.0","owhpwuu5tnjup3p","owhpwuu5tnjup3p-2024-03-20-17-35-31","4950","","","","",""
"","","","","","initialize-microphone","2","13209","0.0-2.0","owhpwuu5tnjup3p","owhpwuu5tnjup3p-2024-03-20-17-35-31","","380b5f8f4bcca57311fea4f8a505d8e5619ec1d096a5a96f0d9ac0b3585cf9fb","","","",""
"","","","","","instructions","3","16374","0.0-3.0","owhpwuu5tnjup3p","owhpwuu5tnjup3p-2024-03-20-17-35-31","3160","","[{""page_index"":0,""viewing_time"":1565},{""page_index"":1,""viewing_time"":1593}]","","",""
"","","","","","image-button-response","4","20894","0.0-4.0-0.0","owhpwuu5tnjup3p","owhpwuu5tnjup3p-2024-03-20-17-35-31","null","","","images/instructions/movie_1.png","null",""
"","","","","","image-button-response","5","23602","0.0-4.0-1.0","owhpwuu5tnjup3p","owhpwuu5tnjup3p-2024-03-20-17-35-31","null","","","images/instructions/movie_1.png","null",""
"","","","","","image-button-response","6","25407","0.0-4.0-2.0","owhpwuu5tnjup3p","owhpwuu5tnjup3p-2024-03-20-17-35-31","null","","","[]","null",""
"","","","","","image-button-response","7","29923","0.0-4.0-0.1","owhpwuu5tnjup3p","owhpwuu5tnjup3p-2024-03-20-17-35-31","null","","","images/instructions/movie_2.png","null",""
"","","","","","image-button-response","8","30665","0.0-4.0-1.1","owhpwuu5tnjup3p","owhpwuu5tnjup3p-2024-03-20-17-35-31","738","","","images/instructions/movie_2.png","0",""
"","","","","","image-button-response","9","32470","0.0-4.0-2.1","owhpwuu5tnjup3p","owhpwuu5tnjup3p-2024-03-20-17-35-31","null","","","[]","null",""
"","","","","","image-button-response","10","36973","0.0-4.0-0.2","owhpwuu5tnjup3p","owhpwuu5tnjup3p-2024-03-20-17-35-31","null","","","images/instructions/movie_3.png","null",""
"","","","","","image-button-response","11","38274","0.0-4.0-1.2","owhpwuu5tnjup3p","owhpwuu5tnjup3p-2024-03-20-17-35-31","1293","","","images/instructions/movie_3.png","0",""
"","","","","","image-button-response","12","40081","0.0-4.0-2.2","owhpwuu5tnjup3p","owhpwuu5tnjup3p-2024-03-20-17-35-31","null","","","[]","null",""
"","","","","","image-button-response","13","44585","0.0-4.0-0.3","owhpwuu5tnjup3p","owhpwuu5tnjup3p-2024-03-20-17-35-31","null","","","images/instructions/movie_4.png","null",""
"","","","","","image-button-response","14","45412","0.0-4.0-1.3","owhpwuu5tnjup3p","owhpwuu5tnjup3p-2024-03-20-17-35-31","824","","","images/instructions/movie_4.png","0",""
"","","","","","image-button-response","15","47219","0.0-4.0-2.3","owhpwuu5tnjup3p","owhpwuu5tnjup3p-2024-03-20-17-35-31","null","","","[]","null",""
"","","","","","instructions","16","50342","0.0-5.0","owhpwuu5tnjup3p","owhpwuu5tnjup3p-2024-03-20-17-35-31","3122","","[{""page_index"":0,""viewing_time"":2398},{""page_index"":1,""viewing_time"":724}]","","",""
"","","","","","html-audio-response","17","56259","0.0-6.0","owhpwuu5tnjup3p","owhpwuu5tnjup3p-2024-03-20-17-35-31","607","","","<span style=""color: red; font-size: 24px""> NOW RECORDING</span>
        <p>Please say out loud the list of the actions you saw. The actions can be said in any order.</p>","GkXfo59ChoEBQveBAULygQRC84EIQoKEd2VibUKHgQRChYECGFOAZwH/////////FUmpZpkq17GDD0JATYCGQ2hyb21lV0GGQ2hyb21lFlSua7+uvdeBAXPFh7URiZi+IAyDgQKGhkFfT1BVU2Oik09wdXNIZWFkAQEAAIC7AAAAAADhjbWERzuAAJ+BAWJkgSAfQ7Z1Af/////////ngQCjRJuBAACA+4P/NP8oftEmzLuG1NCD9f9+tB8INBYa3EFuLpu7bh3cQCQK9Oby8csbHWPjGkLto9RGNIFPx82cvdpzJ2P3U9/TcnUXTC9ksR7qjv8vh/5lAEiprvlZodxXVaxjKU23Zch3x8YEJGOx1CPb7el0kCH1t7AuXiGWmaArpveS7T5uGWHm5GM5Xq3Gv0Xg6IbZ5sFW4S3JmA6hmLI1Z8jGXMWfT5JxSvwiyUVOXtAXsMnam9E6Ren5WVOCz4AkQaMdRG7EMsr0/e9e/XZ0TPrh4nzc8pPxkVp/r+ueAAAAAAAAAAASmZd/pRLsE8cOkSM/oYDZ15BPnqybp9/LuBok5rxfKWpA4Ddk5Tr53TTXyEDvEH9UixsoVpK2bUWBOArHeo1VAmhHakCVQdNYXoXhiUoveTD9hr/axGmEoKube8zNVHkeGiA0Wkqfudq/YIH37NRWfIQBCIOayB9gdLwHfjfj6jIzwP8YT2qOnOYd9ZFRWmgXhK18Ydvw2Ibk0Ujn/9jxsssx2PaqGBYDMqSB8m4U2QNGHKunlFm5LZihmLpS0zCF+GRsLxIo/Q4jJe2D+IE3ki9KWeFOXMbVpv6R00cyXGipUN8TZbIcRVVMhxp4myF1rnyQA46A2ySjkxL2y56zOG2CoDTPqiBknQl4T/QK3pmlLcWg6JesvMCNBIHe2Nzloz30L+MPlxfotDvsGtVVUXyZG3fj4oJbdpEBwknl78SUnr/+4bX4NCZIT4vf2CWIwmRxEwh77IyOY5yeNOP9hBDOC+HMmHD1r/o0bbtwe4GDaFgra5+2RBonS35qWOT6Son9xW0m1PJDzO/YtYKPRFABfnQpEx/iGjJL7D82crcfy5XDZ9fA6oOfXBQfTetmNepu3e+UZBzN9ZsLavYd6kwTjiqtek1xQnON4sEWn36FrAOHuAufkW2iHCTeu4D/G0/Q/h59/e/CQ8LlHLKDsvrX+FIwlIJj5Wab6/N/wrksau3eaTtqqUApIADZK19wraRvVa026ZI+/DM/+YYmK30BzVSBDM4r6nHIzu2vWxCmXKTXNW7AUwh5fUoWXK7p9jx16HfRuZpLjzdeLR7nYSofCktDeaKu+k6W9U2wEFYaT37p/ew4+UW7+sgjvw0mMM25hzejICCxlTZiNxungDuYXT9j324fG1ctDOO8dRNCvMqagC3H6LhHetPLRZCUSWbH4bY23nSwpDrV3MKmIkfzdPG8k+WlqwnBLUV+dQ7frtP0adEE9uHdivmRkpOiC5wuh6Hd63JUpo6MpWVxu+x9lF096WGGfjj3wO+ev0HG6qq38m6kwE1XxKXP1QDy98Hy1cqLmr/4UvXTO69R1HK3sp2L8JEgz3LRFvoCZRepJNkhw5RNPCARYh1srMXNquuZrtvsdsNayo/cEyym08fQJtNzzNtjaeMvc/gfZVwDP3MuvYhu3vZ44mhEcZXsD85gYu8UP0G3uaVKX3yR5GG3eVX5RBTzFb/fX2yyTHCEbm8MqkwFqnQsR4GUj6AOxzpV8G8rcSOuae8T4d4NC+aX1s1GCrkpLW7SPkKpW7zafoujQ3aBADyA+4P9Cv8JGwobLHVhMyrczyOZpopa7qrSqxqTNi5b2e7AtO4Y7hb74xHUvob/SkdQhhwBkzNqM+bpoiFQkvKgzn/044jK7n96sKi3kDcsRWKSZD22smFmHHgTGztMgu1iYLRkUa2Es1ir2QWNbUcblWXfDX95ZIRySsuQVATYChcByQ+6V5wtH/3cYoROQ/I/hzZ+oRkJ5jcvZxQglixAtdySwHC9aOBLnC0LvDel0OkAOcGzofp8FlD9C8G3ORhMhJqPjiVDjCwgFvYKtFzYSnUf2P9Ov3yU7J5CiimcKzRygMBbhi4bpcuESn8XWU+dH+JTXQ9XxDvavXgejwWY7mMelbXbFMkFY6PRdaI/om0hnLan4pPei0d5iA6YpyhhXwhOY/LwBPIE2bs+zWWktyz4RmYTnAx9rXF8Okzach9EexmHHz0Z8it5SIBF2TP2+5jdCWlA0YeftmD6INWju1QjpeQljRKxsha8+7E3GHOXZw0VwL2IpfiYbFmz9r1VMycdtwbtZYT+RyVTAXaEaEryYEI++YI+CuVtHn5lr+GnjEXsbvHn7SbCzM6AeAClOr71M6DxK1AgJkUHhWl9i8Lkw82WtYxjAbXgupX4/di2EkWsEMFxo+FKnxyr101XnkyJQataH0N0OF4w+gDPKTGxJ1nDLn/PpKbnUZ9cgFTuNlA2xPLR3phgbbtgbnyfxbHFPK/FXu0V9JiSkmKXqzAtWNM3LDSts8N8e7ZbEK1BS9f2OpUGwsS33VzU0+gkzSD4GYN3ZDJC2SJdJ+s/INSTIyE+YFIvfojNTAb4camS9vcft384WyMhX6adn5i3QE/gXjL8XQIw0mXEaC+gJ9oN2rLbhODcTpG0wnAB4+5+PR+6gSw3o6fOYWThpLlRwx2TA/YJRksWY/5SUDWiH0Cj2+n1lB8c+kGhqBnTVz+4qnu0IcmB0xjkWjrDdFd9jW8R95WJ0fhMif0PpEs3W7cr19QGVbz8EM9RWdqEclcLRqjVmOmMRKxFYLbKrYHUt9rvzPtvoiOJQ4kqF59xROmeJq5Pvc0ZwSKnCqeAhEfePjsZ1+BSlT2pMdB3Qc5vuZX8hukKXRkGK1+CC2v0b1qUurOZu+OwuFv/97QIz1epGiwj5skkL5F5JfcAUFzLhYdaLLNbDMrkmdjjSJTobeJ/o0ODgQB4gPuD/Av/Cj838Fka2w1YazlRBX3BNU3Mj09P8x9se7BNcwej2q+iBISSLBQymN9kM/cn8a73wtdVUG0aXKJINmeHKU9WhtkzLzOb5GtTcTF77YmKtLqCXpyc2oGOAtnB+zuA1IyL2g/5hYYCWQdZdy/1oiwwaFb0KUmRRLA4cf5LMAnbT1juOmBy66CxLD0UeM6HpJxRgdEXhAMivVCVLHryAziGGaNSTawKSqYGEQewl/fpYK2HjaKiOMSa0vbQaX3JKa014VbRONh0uqwgEGem1BG4S1z1NswCOZ6wRblMozI9Cl8ecXLyMfclMT5yGUeQKSat4Uf8BwuyK4X0ftDuUsiEnezEiCszAmqiIFc3VFZ+xe03f2EU78jzr/tCXdmW8Snz80azYYn76OdiUmBAxwA3h8qCCQwKXQNbv+9NOd0iSyBWM2RGUMY0MR2fXu5uk8wgcZvOWgXX4DLZd8/YpjEf0/30T4BIRjY2WNxecFOssa3nOvDCHz3xh4vhXCU0oLqmQzoeR49v9EngmQmyiuX3zeEKB5UAeEAEPDqXcrbXXhmvUWGSmpESbAKYFVKx4gIpaGMOWwWs02bifPgpn/cDxq/tAtK8916dl8icu0zKcAWbZEdvZyWugxH/Elz/nkrHXi03+V7XGYP2CJWjtxQAs5cjAZ8pAqcScc34jljiUgE6OTzkLHENJlE8BVFXGji5y7dVzC1vBc8em6HqhScMm07lI+96AL9MoAuctCRRopFb8Kt3fohQKh4pFFRKI/HFCyRQxybbW6q72EhxW0+ZJCNQ+njFO+lW7cafyJm/3qLikuiB6BRL+/BFiBh9ddLQvPtjuy9eTdN2/y1M927L0tVCecwx1gqnL79BvFtjq03GIEFDdeCnENKYlPiTFkaaN4AMXlljitoXLrEiRJa2yRGItYVWik/be7QhinZjx9F1+VMlPs2C4PV883plPxjC00lE2/23C+m+AnhUxp5mfxBAJfXW4lDXT46lX6+bMfoOwFnfV/RsD2swKbmoTusTilPH0RwJHQq+j3SJEkP1NRnM2NpoUA+IaErPR28lSp90GYivRZJ5qPFdT8SvWbLmBBadInsyCn2gBQdL6kRYmz5UbuVce3RCrgjosj45N88sJjeunBw7/ggnl7M91Pe2+3ofhXkIvT1ld1sU99O9Y1LutpA857uSEfCjQ9GBALSA+4P8Dv0Z2veymYSQQ8xIEZy8e3zAv2i0viEcIceyPP+NGAjkoHatuGbpH99lRYX/DHQ7yzLL9BDtXJrsDOmWEmWfuqAYGrjqpRlIJOuu/BzIwdx1fWH4/TQ/wMvwbGrOh57P40fx+Wulhcg5LlF+mFt6LevZ3a5xMybB7IkIfVScE9QbizQE4jkWd0z+RDTabrLndLuCZiHhwOETxAEzVO+kg4a5RrpB6qKDEJ4/iS7hsYtxWsEM7fyJFhhwcB2DaC6qkuAHpJMlexZtPXOcyeywmUJq6xGuZwAIY8kBROoyMjZQRp6vxGZ4b0oKIwWxUMeWFmGv5cO8/Fs4mhptcznXAGWQ9fyKmfV7lEwO4ECjYfCXi+VWNSJxnB43bazYe3m6er39oAxTHKkM7F4tOUcQPdSM84fmXEraxzNq5c22xqYHRrzHbb6zd5Bac433a9PuXgknhY0XivNlOanU+B0MKkpCkWXbIOF6/DMTyb2yxExgcSnpEp6iQwDET22AfQUUhhon6uEH4hTjv+4sGQRf8DWJuArVzX1Zqa2Ei+oKZjeESxAUzG9ym4yEyn9yBMGM7RyuHBYilb9RFAAB9+TC9bU3NlSyXdquDrEN2u7dLGiXspX3GYdNmKKEHfA/VANWVVyD1BErWQbleaZOJydSFKX6Kl3IVmFq6pkLGQjO3iDvQmUVJwUk4T+zVSyB7ruVSaRKMCL5oi60YQWPPm5tRZC0r2EyQCsc892TTNjZiplWm2f3ykOnuchGQKMvUmR+FSNdhkm3yNcRst2Nu5x3nUY8xBqWQMb5D0abVX0fgBI8SqJ7P8nFl6wpmB776lfYXNJ19DOaMtVbfXAP0G/bR06clNAFxeKs/KLkny+Z2lEIiAy8MXRcSLAttFO4vCmtmhxrroWV3VwU0IjzzXHlxzrzWMPVLjz4M7s4zzhp/G5aerceoiHggKAxdqkz1p49zKkrF8eoRON0Eiqi3+/aPjv8NNiOyEhNfy3y+y05uW5V8N6UTs72Fsj5aOYVlPwWuQ4pVyLJAndFoH0eKtvgGXI3GEjL6cYPhHN/5oquqsj6lJOq4ouYIT7dGlUvw3mKePsxHFvvuzxRvX2GGLxK2fthF0EBuvOV57n9fUoO3oEKtcqvvBjZAopIdHH4PgAfdAowuRaMw8e+BEJY67U9kNSxb3vhpEHTMmPZyTpaQkqKRyYVj8KqJuKEmxOZtTXC0hXRAF9/PtzWSaSq67H6ss397Z4UfvbjbvVzNH7lp9Mgd03eZ1kof/A0QxAktRFObvrZ/ETenq6zBKNDmYEA8ID7g/0M/g2sqUV2IpUnnaortv7GbgpkftPoBM12j0CStBXcdpzMp7nj/zmjkORdAeACO+UnAOrGXiicakLbiLNWi3oq1YA+lL7zZmxgD7/2fE5/gFmZ8Cb8CQPUZWHi1/OSXSYZbyRf7T83BO3jpSKCCWEQeFwBWLwmFvIke4/haT/KMsmsgFcZ5wm66G0qnv0qsOamzZoi25LrKfgirggRuz9iUinu3PP2P4aT8yX9lBD155zzz54GnWDvZ6mUX9IPofQYN63jbm4bhRpFIxkuT0p3Pr5F/6NOzhfx2ErFdauxMRq688KKB7wrz8lAuoqHWgi+ySe5owfVV36mrd3pPw6DoVnqlreME672/r0nZIjiKjXtajcDa0zYY2ORct+RH1tfCinj7JWeA9CyTmnqRLaAUWcH5EQi1HLlEj+yhEruf10VXnRe+hKoQoA8Xhvxydc2gd+t6BU5Ms9DemHHFMMh65b1Z3/ferMQ3rpqluSePVOIAhei2fmYjiwvflhR5RHxm9z7Od/xt5udcA4ov1LSFDCRLoygUijt/ufuXGiJnsHX+WXjKWB9RopTyYUu9BiODDVlqyeMBWOvGWIeRff69a6cF4BEzJrNN0LswzeyK+CzKCUd6jsEk0gB7R1/CyDQg6uCpPmA4yteh31LC3JAdGYQrdG5bKqiklu5BFT3k7YC/ekfIXuTqaBey7Sx0DvvHtwhVQJ2tKdmhRAyzsge3Y/k+uJIqVIxUSEj6UeAG/c4KPUh8lGto0mI0wDbuRtlHQg8IqDVjWeOJc2k14BqiFp53CUbdd8jPv+p+Mn0YU4317xvP7cv78/IjU9lpw2LmFYzvbKFgp4kMwQ6yk+n+qsvfpIJI9YJtZbp9OymDRuPscCBX5qVWs/B2NtcLQJefpRNIu47kB4FgSCrnvmq8wAjh2v5glOu1udUlXiWxx3YJI1+cSWoKicOaSRXgtY9MhJUhWhfBWzRb9YQqN8znv4cAytPZip//DpvYqYc8aSUiU44IwKDLXyF3JszNIr4defVnb7U9leZ/dQ6eYZ/EYwqj6dNJkLc6Hm4AJQ9CWOZCVbM8k5TTVKWnEhT9vI9IxPgMSc0iAk3IP0hkD1qYgCAVqSSIU8bnEUgvh5Bd9BBP2LhPxY4Y3350M8VMcjV59tS4JtXQfIHDEMl40QmQb9j8wgYkRfgZWs5sD7rdrn32Xjs6+azIhydcAtHPtUEPaNDvoEBLID7g/wO/BHYR6SIrUhvFFNT2aCg6iHmFuFYIAH+6BSYjISkeo5uIFbbFuYYQ05DaeR2xcfeAsd3RaaWVtWzxnmM/CQlC3/LY6lheC9egWOfe+nEUeraaZ+JoBOIiYFfrazh1RqfLk1PsZ4X/RUrzbMFG1/HLp0+vYOCmJ0cvkfggxe/ujKcVX72DPmx0gtCQxP14HhRY2SAv87dMM9csZBi+AXvbUqMQA1v2WktdcWJ7nu3rJMBEdE58bHoMJDPZcg2k7PvNUYHmxhKqWIUxszfyBw3cgSg2fkJDlOLhORxRhtmPrVAyrMnoL6dodLDJkHhyUDM+WHKoUONCLLII+RSo9FsmlxPdDRDIz0Pj80ViroGGDrF+Mv50fbEotJVX7L1hC6yq7nz162Vpwz3LKU7ujoa93tIqWJCQD4f84I7/wibOpDXO9y/5qtvy5H3QfvGCa0NQMMiGRArMZvUkymxBoEgLaIQt+N/0mzYEjc9GSqMY2ELgehb5oxfN0fRxIexBf2PfHjF8T52RHD8zp2yWIfT5TQk0oVDNEXBH6mCkPTQwsnIShfVKvAyNPUejlggRhL5qaRyHKUJCqgq8kkkajR12COeNOHwGbiivWT5qN0zsFpQ55aVreNOzhT/xp0V40WKV+eAlKyhiLgwSoMDgOZbDQXcln9SLGYCS0hlHxOUrln1g8AeeVzv6wfdH375/IiUPYYLg30I6nCzI6SbHSgnCC/0mdzYT+WffyFNYZs4FPMW4YUzZYmtxIKHX+D7mqQo+hi0UCAxVv0nWZNq07yKL9OmAfh5JwbhvQ/d39ipXF6t8fSClnAq5ekvf1H0v2Y+LvE00Ms3DmJ0lfkNcltHfJzPN0EoyQSYi+WbMZQumdCgqS5swHbGzsOs6ueHWwDV/Ne7skilxvxNcV8j71bk30uLpN1o7eM4HqgD/C/trgzSqoLrSjI00T5X98hIh5gChxp69Fx2iti3zs/ua3lyLMsz5vp4S4rpDFuIiw/37lFFafx1OQEzWx+J6MUWd7LyXN/IOHj87uue9yftWyzd2QXErcgQREE6YW1xRWOW4UfIjBoU9mPRgWx8DA6Od6v8HVKUUs3rC8shjQCK7QZisfCgvtLINb48tYCurYnwbKvoAHC7vIG203o3tSju/d6hw/YXYiqZ8GTA1qevJC/w4kK7FRq5JYSZdjB7nqUN3qv4bQly9WC7dMArJaHj+P/4C2mUO7YScltsVmms/+nRaOnVlVRVp6nYjSvyT5pVM8qDlhsRD/mjQ8aBAWiA+wPXLGJupzO0n1FICzDwmv6tjSm4V9wphWHGDt25IGx8rhWWNbVuI/I5N8f8+yewK6bib6HUEe3Poawegh+9TvAv9PwkcPgy7JeNGm06uNWL3vAsszdwrXa6Yz0qLQbMxAzwB3w9uST8ykPNIn89RTXqQJM85ZM/sbEd79mL8AzAj4Ftl8p/LngGfHh3/pIk9yREElSgWyioMcQbZJsRmMteL765Rh+RYY9xO1i/qKnK5BZHnTmse9fjsaDIYhsQVyfF+8+3bTpqSKn8/OedTMriBrb3KOEnPq65WNXbP9VYQ8W6eAEjBzi0mb0u2PfZd0G1HkGsc/0X+mrjlmfSjk5bBZxsnbAUhxQ5DoptoRIY8jecT3I7pqiZx5sok7evUIl5aq8l84ro6auqC+cAK86c+kLmA/QVSyHyB7Io7yxycUEsnsXx9o94gYtXWpIzYFPh/o2vT4f3K6bFYS/NI/Qx8EpbKsqeyvJntw+NSBHO/Wm7X1TX9/k/+WJMBGgdQRv5RjlViLEu8aYg2/vM0nkWrfwd//LrqstTPBI94hA+Iquqc5926RkQ7L8owLPJuymTadUrRPl+RDWGPaQDG4PC3KEQbqAbfrvHXPJHaj/6WOjWM8ViWqlExeRLnNriR1Bmc2hgQw4U85Bc5z3UkCm5DFzlssoE0x29HIE/q7VMM+BPwvlAFMnI5FlYz7U9tRaoPQn+UmDNa7v/oRU0iVlNN0b3MCyQSi9+qB7cQsOzVlOxq/RgJg0K7riaoR0AMMSQhpfdNKaUyfrB2xbviudPfEY5r9KE04yMJFsCsgJerw+ld7mBxivTLDhCm3lXK+ERoqH17a2JNYoKXi6apx8MUWt9SZZILw8pRtPhZSQ2O8WYCcjvEMl20CL2tcDjed13dDhAVWkgb1EEKyvZROkR/2/HPFn5iU1m8T25yEF+fqyq6vCdfRn1LFzeVqgGh+RFYyanGm4MLgt7ZLlijeAyFHbF9wHvTVhVOmXL7jHJATJ2nfpkzRFVlO4k6ZAo3QuuYeT1gl6d2sj6XGSpMkw/MQKzQ91szhFandfYkPcaD4CANb2dJyREtXDTtrVkXIAgsUDLS6TnoOgEzZCZQm29YeavuuAem1vbf21EiGUaG8WLRJa82Q9R3ibPBH/b25V571Z4fiMVKhs3mCcbViUetyVsmA/CcEOcG1pYG+v7mKGTa1GlPY7KE03zBT9g9B49Eib9Y4LlPdK8NI+B1pdGE2ApYSFU6RFlkIMdsRo/n9xrl8CkBguMdgqza4TiVR6jQ8aBAaSA+wOwL4j7IBzM4DfiLXKf2eWUcW3E+B1Cst4Iv5nR32pVR30qa8Awu02fvYj/xXSboyNpE7Dsm0vNgLGw7QnTru0ZyRA/G2IWLv4dgLhkIQuBkpKUQSxCrmdW+omC3KZljJqADh9Et+IaWgF+4VJCBrCGHKWXk4Uh717NPOW15lmDsVSaFh22XR9bxZ+ig328FRCtPkuxhTuhxoFhvEse1LAGjhiHBmxktIWh6mH7+sVuUccMCpOvI8SnlFhJ87apcyLh2ZvnMKv6yFTmeA/8z3TJ+gJX7w/BpmD0BFEwKX9fyN6j5GgTfyHWlvnaA/HiFKleOlvfHkDtHia4ZaFZgFJbp+Ex798vixrdxIKyq4PA5C8cxRkuG8H9VuYW5EvoP18QwWPZTfGLm3T/bXjTYTBvFyQCiq1HNaIRViGwLMg+jUFgLc2BXCINGYotUpL/x0XdNDnud6mr106tHDZWuC/slBd6O/sGVT+8XaUcA9lkvX+7WPNypgOeZF16k7O+GCaa5FhdaWyzlqVRrj/T99VpzgRASZKP3zvnIf4Fd7+sG2KZ7th8i2clHeIf/U2Uwe5+IooKcpo3hJ+8UDYxgeiSODbUyOfY+TlOqDBYj15LvUYChS2bUYhNib7p6o5laBuVkN5BP5qu++/17ZbMqi1x4Q0kvCWTMNgkaY5jAr6Kalt2SoT/24Gt3a/uraEq+Q3T4AtL2i198+cihmtX9d1VAV3uwWALlvxX8lUC3cldIYs97fJHYDkWcuxwoVbwfhOoJdUO+NVxE5136gBql0GS5KmhDlRcJq//zbUIi3fVYriLqVVKBCHryusVjQzarcWiIPwvFL1NbrqJuyk3jieVQUqRTHKiRoRk1WxRieOvRMl+hwqnX4kqD3z3H8aHKfIfYMZb/iNZHwRC0KMk+AcqBdSWV7uV/iNcNgV5STNWUTv5JALCFFw8hEkoadJEpj2hYF/I4IdaQ2x53kQe6B8eRCBUZUaERsD4KP7ijcKfoj2zFaA7qppmJnj/HTzsjt9XUNWGDcKU0JpzauGM7gKqsmCHU0mM/O/bErygWdbxKLEiTplmu4IzNcvH3bPJoWgqPT+PuWxeuMsOlcVi0XOLPLOil9hcvu+1Yp0D+0XL6mqDq6oq/kO37TP10r+15VQ55vWljbRnUqnU5xXLwPcKF0uWhXDuNHGkScUdGUrFzMe7GzCJnJlqbf22iuNpRvAGicDmnZny1cS3byI7F1LgCICsaSLwnwxSy/m4icsIUnhB1T37LhFnRhsyhZMtfKejQ8aBAeCA+wOxaTTatS/vNPAJf2NGBPZ5SxQbz2K08br+NdxvjxTtBUQBCkjii190u3Gw1SStPcJvjl+0VSAmo/dJ27XNdqnDD621xdAasFB2PvR/UsFctKZ61sbm0JyquH6OYa+UtnyhNqzcwttk9jW+qJUrjUhPgay8gZTssaYODJRDY0VtzpCzxilSXx0ZlQMxcorbJvEzOzxe+Zm65N4XJJzJ2RZtrvxyOTJNZnZE2kipn73KB8DKMYTs3PBI3v4W+pqgnnRNU2eI6WcqsjxtBV2uz1lknYdcHqutSDnOQPvAvJoyadexDyLfrQtlnftog+JANXz+ueRahaTwIaQYDVO+9JgFtk6GPC7xdcaBcmfCRk5g5vk1wGXaFcl4USFfPBGRsA5T5v4ul6dJV2sERdfAqbpc9sI9dkGLLg3TonpPF71ujazAoUzeI3aAl6P+Y2PO3U6FRkY2o3zvXx9c2XArDweFTUPV+5OY10Wc3zuPSAXImmScuS5jhuD5Uk4EYbBF6iRUfP6dDKLxZXH014weDpJEgolKw9AcN1kfWRWbSN1u94+JqHEgmcQdQP8ovQ5ua+o6sVZjCfEUi+Unv76GvHIb6qDMSOVOFM9crnp7/oEnhkTfQnnEXTsbWYcW2bj+wgA8wZDrMKt5XZ5xFHVMEeA/cT64CsKqagHJbUFoIn748Ix7hM0PgGJsyth+PMD8mru3gRvxp0tqIMXKd021CfE2nXy96MUlAAIXT/93WkUjwYP1IyEcvSYBT6JPOb0ucrHbRo4VinfwTKfkxEfYvT+RhM6Gig4BWepZA8WsC6LOdK5A235uUH4jUkZXQmo3MqkzfJp+wVN0nc+VoPyGEdCNsWTYTqWHlMKnQd8WtTrIjLJhjSgBErFazm1jyFIpu2DFLRc1GbsGHSnRKURzVve3d/9CsN4pHP0sYecVpR6w2fVnlQpw94GQ+DKAwZXiWpzywS6Zx2MICVjExPRGZjnnVPXStDvAvyCNm2PAL72lpT0vvUmtC3UjsjR2b87OqJfxzbl5Uim8Yo85PBvoP1rt8WFMy13o9rPPmnJWV6WYVPf6R9IRjF+737t1oPI2T4jkXgjEPCQrOPJK/3JHUul+8XGAskD3ySaF1EYrQNFFmCZppbi954h457QqL6q84Agd1ypX/RxyglUNWmJaNR/xtudWBbQ3FRVLkCIF3CQbRlOxa1twMzGl1Z83h/RV2TyyQBSmVB/t90sr+BMvemhyKo8jJ8knjJ6RoBwgWM2xVf63fz+c5qyP0pbjQDLW7I2jQ8aBAhuA+wM8wBRPjhVm5qrntdFsZyk7XEoCBvkT/oB37/L3YY+tbAWdqAvtixRsaYi54u5RC2D1ip6Ksc9TFZfeLmQiprsEP9J7HEYaeDobwDq7t82FTnE3hN5nLiV7KuEP4nbVBNwlfgQHTDQFMnIyyUE/r/xrxPpJ7D4spinkyOnST97kQJ/6BqPCMMYyBbz18RBwVNHXAguvUetF6WuuY7wiJA8wf7qdNRJDPEKVVpZw//nN5xda8Cwy1uS2eN63JiF517UWI3B6dfs/Gt50un5Hi/8LH7rcib3ngifVTvn0KvTNofZF/xSA6NdBlpKGs+mcF23RlxYBWMuYyfKO4CziJ+FxLJi7LzkEjfSbcdO/gcnwREBtdHag5FP6avNp4Of7T5FfRWtm2zEr1ke8klo3kEB0hOV0y9wwe0dYS7sILQL+BiT5FaCtSJ3qcDcAjDECZipAWUOERgu4X56nlhmiZjKACcYVnask7lP0P89AgKhKg+MJWp27D+6AgS9DH7V8V2vG9n6wUjnKKfdq62mAuT8mQchExjZFvCpWkSByY2iJaUe6WDe0Eii1ZMbUwPdaxgV/OujqfUXUjpAksT/V2tOJN9REwjZ0bK4ahPFrcQKBWliIgHURx2kY7htBLcWSIA495qjKNnp1Lxb93UsnHKhzQ1YF1mxRBEp8XiY9GZ+cnIEvyITl3J9Uh61x1af0P4P+i3mglxxunGzZTTs+eM14gxJ+rg/SxES9sPU5jFmQN3LcCfIXdCj07u0zglMKfjSLHyRRuaWfGNNKquz7DTUVSr3J83Z8BKglOXhNoV63aUw8yLZVExvVFuPc8WXK5dz6ujwa3gOPvAgTrTLH4yY4PzijLyxl2HRAJDuwPeoRpgJ6+LHbr5bWCwmlJGbA2+Gl2TN53dGZpkDY21HUch8gRsNX32ZCoiT9gaX2AKD3KcdYKuSzbGog3trnanN9tcagDE5L66k2MVIG6YlSwOwkfwf0DcOcOTkhSVZcNL4IJomqq2OepqHkldd0Uwqdc1rHti2Hg+jI869iy7l9qlk49+1jfEGdDM2vUPEOmBcfCF3uKP7tf2N0qtPHrxh0/XmnVpoJbtLSYNBmcW3CUWedOprTN1y/JH5RhjtpqnH16oxdtH2v8lHlgyfsjUr9JzshWKR8ZCxnP5N8H4TG1303Ci/XwrzMGUfdc3m+23sbbAN5zaavqZl7+7hQDmIiiD1Vh+VKMGuYtYcwH+c9d7402b1HiwGZ1/fh5kAtLJPC2AzfDm+S+ziIK2QJRO1Zee2jRK6BAliA+4P9Ov4ncj/JkXAKVRusv6Igmua/E8+gsHC72ruRbU1AJfOZhPZ93s/HnYeH96vD9+LF7O8gFGnLg71C/9Y0qwqiLkcD3tiUk0drvku9+7fet9L0/eFfXqSk7AbneWavHTYTfwX4xyhogSlHRKf7r65gvwvW7zTa3G3SF0OJAZQFg158vFvlhjBJsJtbfX5KDIk4CooycENjkKn3L3EfBYGoIbdPrg3Nmg+Z9OlUBolDGgA8e8dnnjyxbj7dJHZGevNUhN3j9zptxlkYK5kM7yGSaF5N1aQsCH7tq/H0EUvyzXiktwpyKKRwOqksX8oYNd+mgv3hjehY7cXHUxDyo9j6pWAAC/Ij7F5lobLCfcHR5qdQ19Ixq49J8zL+zGsUfD5zL/7fis83bkvrhEZSCXYgPMjgfU0fJTORWbshUZQ6C229z2kXdwG9EGfuc5PDtmUNeQcHCLohiP5y2/zR6LThVaB4sGVNUZ7LfYKX4v6WPuwyAQ4iIKPKaLyjR/nxsdpakD4fmpMmZbXSTaT+Lfe/GNCChGbz7YDqeow2FDiPkQITF562bd7zctoAubhBu4c24LeEuHK1yDUkxVHwOIVdrsOo/bgPjUglFFcXc+L+FZ0Mb0e94C15nksBIZqVLXVm/JdVeseM0Ah6Bkh9B5lBOHjWklI2VgiAd8ROwJx0uy7CBhT5v0+bxLoQX7nvkv7peVhbCmgMC7rYlYb6kG1XwlPmwTlAQ3JtQexYokldSBUMKvKvUi+Dmf2MdinDROMEncHRfBrx1heHcSznRhR8qFCi7+vXzFhEUDYbTpRnz9NREMuWWyj4p0xd0aGxaVMG4H4Sb5I5sB6G/hKhGvYMaKZm39lVY2bIAS4zWXugHNPUcLOa76ED6jXKliB5+g5/HX/NR2IYRmnbWgH1C5rNuHvJa3hqEY1RLOXMTNqhgdvnjVMd7DZxg/G3um1c+I2SF9tRhRtL7toCYz87l+e9yvpHVHypxMpIIJ+ZCL1o1oHA8FfjeGr3sfpaGpwfC7Qbv6PJ17Jq/v7Z9jyoFRG6YbhLY3aHhEzVChfbS+9qntQw514oLr+/ybM01cJpcOxGhM4RbsEFVGzxSCLEDgon2QfadTdJOvEz30WpSxrj2jZJkVR2UO4ytwKPa1K4e6sL0UWtNtwJZ737o9DUHgTMqmuWEefFNA2c8SiR4CFc/XNw0FCDAc4evPNV3LGkk4LBzzE3oLV77/lOG+OhQjCsAwF+ynpFN2fgBNOQTDauKgA430ImnmYUN0xTpcw8CYsVTsnODGnEwlKSVW8Hi/YOEEeCAm4mRLxI+5kEGT4pkOu8/yWOUpbFz5AS2wr0cOjY6abhwzYW1rsAxRQ8kormqDlyFlpBSO2Vm5ERyLFZcAoWPwjtSVbtl+NVi/1WOXpiAhq38kkD++Nqd3UdfmYFfuouUat46HjCSc0XayhDBuYcihmQKzZ+7esERartQ89AD5H6X6YScAAuSFHDM98plK5iy4quWvyzgv3X1PBg8tD/Z6P5AnWjYQxwlK0A0FiOGbq3oOfYx4fwDGRkXYzcjuFcq5QUjhh8vHlojB8W7+o+zF23kdEs","10"
"","","","","","instructions","18","57103","0.0-7.0","owhpwuu5tnjup3p","owhpwuu5tnjup3p-2024-03-20-17-35-31","837","","[{""page_index"":0,""viewing_time"":836}]","","",""
"","","","","","image-button-response","19","61610","0.0-8.0-0.0","owhpwuu5tnjup3p","owhpwuu5tnjup3p-2024-03-20-17-35-31","null","","","images/stories/paris_story/paris_story_1.png","null",""
"","","","","","image-button-response","20","63481","0.0-8.0-1.0","owhpwuu5tnjup3p","owhpwuu5tnjup3p-2024-03-20-17-35-31","1869","","","images/stories/paris_story/paris_story_1.png","0",""
"","","","","","image-button-response","21","65288","0.0-8.0-2.0","owhpwuu5tnjup3p","owhpwuu5tnjup3p-2024-03-20-17-35-31","null","","","[]","null",""
"","","","","","image-button-response","22","69790","0.0-8.0-0.1","owhpwuu5tnjup3p","owhpwuu5tnjup3p-2024-03-20-17-35-31","null","","","images/stories/paris_story/paris_story_2.png","null",""
"","","","","","image-button-response","23","70606","0.0-8.0-1.1","owhpwuu5tnjup3p","owhpwuu5tnjup3p-2024-03-20-17-35-31","814","","","images/stories/paris_story/paris_story_2.png","0",""
"","","","","","image-button-response","24","72408","0.0-8.0-2.1","owhpwuu5tnjup3p","owhpwuu5tnjup3p-2024-03-20-17-35-31","null","","","[]","null",""
"","","","","","image-button-response","25","76911","0.0-8.0-0.2","owhpwuu5tnjup3p","owhpwuu5tnjup3p-2024-03-20-17-35-31","null","","","images/stories/paris_story/paris_story_3.png","null",""
"","","","","","image-button-response","26","77898","0.0-8.0-1.2","owhpwuu5tnjup3p","owhpwuu5tnjup3p-2024-03-20-17-35-31","985","","","images/stories/paris_story/paris_story_3.png","0",""
"","","","","","image-button-response","27","79712","0.0-8.0-2.2","owhpwuu5tnjup3p","owhpwuu5tnjup3p-2024-03-20-17-35-31","null","","","[]","null",""
"","","","","","image-button-response","28","84214","0.0-8.0-0.3","owhpwuu5tnjup3p","owhpwuu5tnjup3p-2024-03-20-17-35-31","null","","","images/stories/paris_story/paris_story_4.png","null",""
"","","","","","image-button-response","29","84955","0.0-8.0-1.3","owhpwuu5tnjup3p","owhpwuu5tnjup3p-2024-03-20-17-35-31","739","","","images/stories/paris_story/paris_story_4.png","0",""
"","","","","","image-button-response","30","86757","0.0-8.0-2.3","owhpwuu5tnjup3p","owhpwuu5tnjup3p-2024-03-20-17-35-31","null","","","[]","null",""
"","","","","","image-button-response","31","91260","0.0-8.0-0.4","owhpwuu5tnjup3p","owhpwuu5tnjup3p-2024-03-20-17-35-31","null","","","images/stories/paris_story/paris_story_5.png","null",""
"","","","","","image-button-response","32","92220","0.0-8.0-1.4","owhpwuu5tnjup3p","owhpwuu5tnjup3p-2024-03-20-17-35-31","957","","","images/stories/paris_story/paris_story_5.png","0",""
"","","","","","image-button-response","33","94027","0.0-8.0-2.4","owhpwuu5tnjup3p","owhpwuu5tnjup3p-2024-03-20-17-35-31","null","","","[]","null",""
"","","","","","image-button-response","34","98529","0.0-8.0-0.5","owhpwuu5tnjup3p","owhpwuu5tnjup3p-2024-03-20-17-35-31","null","","","images/stories/paris_story/paris_story_6.png","null",""
"","","","","","image-button-response","35","99173","0.0-8.0-1.5","owhpwuu5tnjup3p","owhpwuu5tnjup3p-2024-03-20-17-35-31","641","","","images/stories/paris_story/paris_story_6.png","1",""
"","","","","","image-button-response","36","100975","0.0-8.0-2.5","owhpwuu5tnjup3p","owhpwuu5tnjup3p-2024-03-20-17-35-31","null","","","[]","null",""
"","","","","","image-button-response","37","105489","0.0-8.0-0.6","owhpwuu5tnjup3p","owhpwuu5tnjup3p-2024-03-20-17-35-31","null","","","images/stories/paris_story/paris_story_7.png","null",""
"","","","","","image-button-response","38","106593","0.0-8.0-1.6","owhpwuu5tnjup3p","owhpwuu5tnjup3p-2024-03-20-17-35-31","1102","","","images/stories/paris_story/paris_story_7.png","0",""
"","","","","","image-button-response","39","108399","0.0-8.0-2.6","owhpwuu5tnjup3p","owhpwuu5tnjup3p-2024-03-20-17-35-31","null","","","[]","null",""
"","","","","","image-button-response","40","112902","0.0-8.0-0.7","owhpwuu5tnjup3p","owhpwuu5tnjup3p-2024-03-20-17-35-31","null","","","images/stories/paris_story/paris_story_8.png","null",""
"","","","","","image-button-response","41","113454","0.0-8.0-1.7","owhpwuu5tnjup3p","owhpwuu5tnjup3p-2024-03-20-17-35-31","549","","","images/stories/paris_story/paris_story_8.png","1",""
"","","","","","image-button-response","42","115257","0.0-8.0-2.7","owhpwuu5tnjup3p","owhpwuu5tnjup3p-2024-03-20-17-35-31","null","","","[]","null",""
"","","","","","image-button-response","43","119760","0.0-8.0-0.8","owhpwuu5tnjup3p","owhpwuu5tnjup3p-2024-03-20-17-35-31","null","","","images/stories/paris_story/paris_story_9.png","null",""
"","","","","","image-button-response","44","121904","0.0-8.0-1.8","owhpwuu5tnjup3p","owhpwuu5tnjup3p-2024-03-20-17-35-31","2143","","","images/stories/paris_story/paris_story_9.png","1",""
"","","","","","image-button-response","45","123708","0.0-8.0-2.8","owhpwuu5tnjup3p","owhpwuu5tnjup3p-2024-03-20-17-35-31","null","","","[]","null",""
"","","","","","image-button-response","46","128213","0.0-8.0-0.9","owhpwuu5tnjup3p","owhpwuu5tnjup3p-2024-03-20-17-35-31","null","","","images/stories/paris_story/paris_story_10.png","null",""
"","","","","","image-button-response","47","129110","0.0-8.0-1.9","owhpwuu5tnjup3p","owhpwuu5tnjup3p-2024-03-20-17-35-31","894","","","images/stories/paris_story/paris_story_10.png","1",""
"","","","","","image-button-response","48","130919","0.0-8.0-2.9","owhpwuu5tnjup3p","owhpwuu5tnjup3p-2024-03-20-17-35-31","null","","","[]","null",""
"","","","","","html-audio-response","49","135369","0.0-9.0","owhpwuu5tnjup3p","owhpwuu5tnjup3p-2024-03-20-17-35-31","976","","","<span style=""color: red; font-size: 24px""> NOW RECORDING</span>
        <p>Please say out loud the list of the actions you saw. The actions can be said in any order.</p>","GkXfo59ChoEBQveBAULygQRC84EIQoKEd2VibUKHgQRChYECGFOAZwH/////////FUmpZpkq17GDD0JATYCGQ2hyb21lV0GGQ2hyb21lFlSua7+uvdeBAXPFh8aeznS4yJmDgQKGhkFfT1BVU2Oik09wdXNIZWFkAQEAAIC7AAAAAADhjbWERzuAAJ+BAWJkgSAfQ7Z1Af/////////ngQCjRDOBAACA+4P8M/0McLz0lG4jS3IIhyiM/WVbmlzKeeZMGvQlqOfTjsEFp2etEHUV5FTq0hdR/+LVXE497udLJCZ7ovJhrWH8W8lWViAJMOYuOPsHLdd7cqdy+IiSBkApUwNOVt/wDLN8Zef7GFMhcr6o1Q3FTGkeiMgogDymPcN0lgNrVnL35VfnRTvsPQ1BCNr/gu/fD2ojtt6wfK5UZL8BXXE3PtjmSheurvjBBe6PWxU8ZoEZtKa0UgGl/6y0elkEvx6EQR59ajg1V0JpYFyx/sQvMvne4AAAAAAAAAAAA31R+JVOAs60SD0OgV1Iaw1ZWm8HiXOfXogTAiwBgul+ZPpStMmP9mn6T5fV3h9sXuo/hl+pjsZosd1dTqQkOEMT916+OVDfAOmtJZlZmvqAjp+jVa6vyJJzIC9/UpEFEO4UKJEnD1Jbm0AGj8xg/gAMkgMr2KhcZnKZVdZT8lOi2eSxs2i8q0XJLX+n1sE4HKH+5z6pUiellw0Tewt1bQub7gG7VxO3gCAme9SsxijjZE3bEcCbLuFCcY4C3nVLjXPkbMjDEhV5jWv8bQD6d3iS1/RKUHUH5SIkz/ThW3smoOXtq9/xFqGQqbXyj4XXvzikwlCTZ2mI+JaZIFD+Jd6K2H4O+XvbEcrMc+gABIRSreSK10n8QJgeKWJuMbnoVMCc1nvwXUcvifl1u5n0TWi6qoKpoHoz2EcGekiXteoEIlbaCkjo/a19kPHXoC/O2Znxtmve47IeZlvSptHQXVKNONF38A2N5TXZdeOoCNv23iAOg2GGigtCTqmppQvl5TLg//Aj2xqE6aMeh2pcRo8zjyKCJ+kQnAvryfZ849Jlg0BN3ccMnQR4f/nws9wp0bhMXkf9Y9WKqZBDpoEKM1EcF5q3LdXQGf7UzOc7X2Dc78xxHwRX4/CHMUAqBW6dx2Zf7jbC3Qc1i0RdexkvGSIMlvckLYn/OYTKQWczVmxnPOeb7IyQrVbtssVOrx06Cs2Nol770q8aw0ubFGjF3sJpQc1qlXoUYUV/miMD0rU4YK4gGfYuC7O9dJv0+EdknfvA5KcyckalHHV84feR1dSDRPrCSL670AqZaGm91w5BQvnZ2R9XhfYLIKHGPYzsZDozq8mcXEXH16NElPFpyFEbpBNRAnT4o94VXmT6mcPmtNg6ZGJhHw9GFvJ9a+4hkMQHxA4a9o7TTrmGkmA0SUwGe/Bf7iZ4HqQzvRAgRi3Rs5PetmUU11WsH8/2VKAO9wf/NBspeFQQ38IJgo87mzRuAbaHoTU5VKnJGz+Qlc0Odri1z5tbdBeGMQ2cB++u/dYgcMneOtVQIbgsfliYdPVIr8OhgiL+7VeRvT3LvoMf+19+xCLOTgo8FHiiOOkx7Ler0WAEZlE/HKu9mFdfWzjPy+umPow77ZIxcLwgTecr3qbdo0OXgQA7gPuD/A3+DMU87hHk0y57WvpsWwpreFuy3/8h82/WHsubHL+q5tqU202RPt7mDMmIRwVSA7Q6m+hULXWO3Q/ZfJKXF4aRg6FssZ5D9TYYGvZitFQOIAklAZKpvhpLSulTPT3ANBSvoYHHVwrbRH5SKhzPl/KvdpPr4xjdQbe3dNZ4DCTy9kA0lYnPtceq3IKwuY2sbZrABC3E62jGo5PSRymT/r9aBmnli+/SLIGOvh6KyAtaAB3ajxB8rxBHevdZJYPMuXMCo99bOnCQwJJ358s9aJeS+G5lIRzdtNYawiGIgbtu/yTMKYb/atVbP6W4y9i0dk5w8wqqL4Nwrbmmkn3MVRrWebsxAixMk2vYXa5Xioz7Hgu14Ssc0LQb7YK1Ux7Mu4T+KjyORNVmoEvfj/Er8X4pZdtE3y4hVF5a2NgfrOV/gv+vZH0gUnx0BJ/q9yAqY8vflZYReK5sU4BmzhJEvooH2wQ5HpOAxs6AXb1vc7S7T6Aldfe0b02AvTjfTijgamSslzq81gH50nFBM7OHvBlUgkp8cavwHRht1k+h7EyUDcZMAdNeloWeC6YvP3IS0lJPe5VCNitdd0ZHIWE5L3EOia4lx6uPrPMjh4EVjWE1MVzIERUwsY3euMOOTvbaHEq6GOoIaMhakMirhS99aoGSkhV9GQ34Fd5XxljLOk9yxynfJXMnxjQfSWwSvceapkkKV7xryCCCCxYJLyDPDtaYp8nduThg67i04kHxAzQdRsPdzZY81gimKhVw4jtVPQLYjfjS42K7BXzMn6xebxb4I9FjGc3k17sgqfPTuO4fO66FndL40vvHKP0RmfhfkgJZP5HFaMZ2pjBSqxcyk54/jodQdLbKk2AiRAi03CcSxxLz+S7dE5NsQVa/+QuWFoAKaTEi4fXwXVOv1N8dZrROxB1n7HVB4MJ3uVQAKxDkiEn8AoeTKWU2g9lLOeRBAStcXBbYnVf3xZKm9WMm7C7cppbMM06GYUk7ntXnDs7HYNI0Uzfa/7qgMq6ifrz/MbgrxhXwJHtQg6g9b0iIjJBn3OejImAop7eycqL9kUGbK3MM81Rr/zWCUDE6ZXXHfQsMPKl1ba3/vtQejYVCZo6qjKCYKrt8ISHht8FNdmKztEkvlEfYrkN/5DHcKv84VAm14kkXYt+Js9tBSs6Eelmuinqt4/Y971VqnWAIThwuWoKHJ5Rs6rmEoypQsi5i66NDmYEAeID7g/0M/w0E8GYOw6d3AkxMQJggC2n4VLGSbZBcoBfxUaGJ5Eha/bIQsPpJsokV1o6Zucb28B+S7F1ID4lOEG3W8cIYFA396/9KfEn0m3y9BaXcclaRoJFF+qj0bIN1QeY0gBOt2cZH6jCzgKqJjBlclgBl58CCuhRwHwMEbFBZeMEd/6rLk23z2b0Igp2y6WSbMBhNNbHFIZDZme5l62xCrQwwSl5Lyz1KsXy7/wUioGQcOfm16sXcVmRGCnVgPLWC+ISFlJt9E+WbWizLUQlTbD8szwB9y0KkEyd9Q+OmdQ26BkJ5v8yhhH0lJDJ3jd53ZANHXDvK0zHKuNJCGxsl3MY7PSM5MB9keSwl3USXhjkBF57zPpgr4mQzTxQ9fZ5dPr3TiXzP5cG4YBAS4b8UZudnOQE8F/xRJhrjMKGlfP1+crZPXaKIXeKXQoUoe55E0m27NmICc5UvsQUWhHZ10f5j5o4VCNvcNdGHsXFzJseLqq/wP6sPV/KAiRjVUioimNbJsBDexgKmD75KG3nq+vi9zJ1cV2kbLdd0NpQFa1AH6KT0PU73cvVI32ZRmSnMm3uWUlv7ycxPSBsZOdZOGn6xVyUGFm2AZsrttr7aRwDDkXjAQmDQ37UefSnx1ZV6zy7AqX1T6tSsoGL8BxodxgzIIN4h0B9Q8NtvPvIT7f1XG6vmkQdCz0SV+G3rp63QgVj3nGyXCQBw9AvxoBhdyC+VVuIg/b2efI7vOF5Ka2jdguDrVG4qTLZwTqtzQXKCp6/HTQEcQ0F5FZMI9+wYVljrAH9MoKXKqXQ/rnCzwrz15f82sdYKBaC+0YX6xN3nVUjHFzaGPlDJo/zgYZadn0cwocLjMc5W2EaJ8gr/ecVrV1tp85CJntcsSLjoeg1Q8itjxoQUFTiVbVp1serQCme8EIdkeVJPxipW3gxvbm85O0ml3CPqwk7a8fF3ohhQtyGQw9B0Fku6AxCp+R8EQrik/O1Z4lzngHAfgyUQsCtrZUWVyjVM2etp2A6foTF2mfn9sLxWNxow9Cjud1GOMiv5ZdqBI/l5gdk8CF05Du0twCpY9cYIyg12ZOFN95EShh7DwHkKQ3a7ziueT7QW5czMkeLCqzHGIAcP+X+rm8I1a4JgbHydTUFrB7W/anp6a1pfSmRCTptoGilhUOgVppuk5r6V6mxN779v2cSiFZ0qFkz7RoRwMBnD126zLoUZ+Lvan6NDxYEAs4D7g/8P/BEEml/VtS/oBmjGIO/qKHzv39VolUWa4LbW+fWyVmSpiVGhMIrSLm8688uWjS4pc8hKPY0UClU2owpf4I78nOHwx3rGxoLuGCOy34Xb3jUDVerFc0Mr4B5astgVT2HnR2FkwvAAhEvTnwk5UvHst38Maw5qZf8KbGVEvDkXsfGc14iodZ6i/GZzFFmN55EX1Sda/YqdWLkUPv9DSTJv5CQIQdRdmVy4ZMFKMcJOaYeTx2zE5dySbOMqwazHNOyKklDDhE55D2+9kiej7bcU8h6sX40p3sFAR5L1/ckY1S3q6MYvcOqHze44C882E2ecHq2kBd3Nz7SxH40DFA1V7xrJlGGN5g7do46X5pSyehmf7mz0HJgar87It+nvELgIAY8Nh6H7iXCWRK9w9yFIJnc/tXWTR/imfwzOMAsJYk1PKw8HSB/bk8UMseZzwbR3yuikwvJWQJf5xAt0STffuAGONjY4Xej8I1CoLrDZ1TbtPW/JE0o0NqpBsbYFH/W3a9gB3wGT5fyOhajYezaml1LqXsyHKvN2bUBY3HttyMrXXLbMXeLFJ9ZjzJlPb3dLEsLkjzp+fvD4AP32qBjHG8PG5M7TjW+jOJ5UaF27HjhnnHtMDNPZ9K/I9OSLfUFvpY2hhSosfXgywesu5K/G36x5QwM3O3P1jmQvdPjUuGnmyZ0wS38QomjVD76VwmoBDSpldK9cecnCgPsl23a3A1zD7mc8hYbmAmRhcLo6nv30/Fn2eLVsJTCxoKchIm369itqGph5uCJBtyD4JDMXSAnlkF7p/Ykim93VE0sVzjnITysFJRicy3HFvyWMYW1ofrcerQK0LtsbBIQ+6MAkbMlxNE50UCcDaaYQqSbsrxDlHQEzC5QKyW7lAwXwJk+nVfuEh4QW3ifMCtYE3clRmPZyQoo2KYDtdb7ETwqJ9Sg9xba3tRGmiSuCbtCVblmF8RgUVvwevbnh9m4Eii0IQrTSpAn1U3QQMxLy7hWgmrCKZvRI6cm2SUgQU2yrMKeGpEa4HH4FjAwfO8xF/CjgYVc76X2u0Y+GPoG3qNel5ym3Q2fOifISx1ZquQz8wyXsl0lMKyDxlnEIEnI+SfKGApKdCTjujQA8AXum0oPC7fVmlr6DXcom0Q/oxdZWawpuAXXWN/gHv7I5aFLCeUbaklGrOnQPL/6ihQw/I/tn4hYu1rPHCyCl3WsxvGzBkSiAiDuGa/OKeH1OFzhTUR8Ra/JG73YLe7t1D/diDsw0iuErurJ1KrdwPrXN+R5ko0PGgQDwgPsDwLXJE4HCAO5wfSFpUwCEli52px1vmA+JNz9saLRaAGnJR1Po7GdwVGGYc4kjod2W6dqcDdU9534GR0Rq+KVN3JTUhxH/ACvdUI4XzUQZZnQtg04Tf4zDv4pgO1c0oB6RkKbD/q1ilTWH0HG12W7oK1yGOivIDurJvf2R6J3MzCcNraxzZURj/6rpXqzZwehOtrEE40vppad1kW9pItzyMueUmrAjoR5uK0aogdhvJILI5shNtt2YzwtpPOZciEodiAC5ABtYgwHFTLUMNO+jN+oaTtX+0VmPXlV+sxF2+fXdwR6xEqZi6cvCixDrMKeYht7adBsOq3Q0Y2hMzDs1DvopI2HfZga7qxFysLCwHcGaQWoKhrfjxKwVf/qDETuOHUmSXSPKA3jvMH9hDJi/G9n/z2paTuGAb/VzfwdHmmLADwk80MSWC9l+1Y7jRBLRsRgoogDE/5N02XAiDJ5pcuegSdX/fV2A9UfzyGDteIsC2oM0qcQYRuxSZXDORW3vpeQDqevK3Tq09P+6IhIxdx+J79m4jVYwuLHTgLvyQWxhe3xwfhE8moRqMZZ256v6/fM/YFB+8IGiVivgUCLOdsUko+Tkr+HcEoR7XvGJYX8NIxXr2AucVMPKXlRgjja5Xbxq00e9Uwnp3gTxzU54T1S0WWS/otCpdxaHechdZq5wGp+w14ZBgIUQlpvGCp/cgg0DRoVmnWS/+dzofyp6NcL396wzx9OIvXfNHUtxlfdN20ti0WLOOdom9lwPp17t9yAil5/4xUn4XMCiJOzkTIL24bm70qHoo3iSqQaCq6Rn32bZaOfgc0qkqt85Kh7h7ji1VQVG3YzPEJbW4QyKZ8Bi0vK4mIF73eKA3v7W7+ujEw6qrWXNxHCetWD3oFBWZ7IJPjMmLuYa4wu3R66z+erUumdO3iRAa20xLZyxqkQJ6Vv61FrOJBTNHvyR86phFWMNmJunNPEJ7P6t3FIfyNR1b6NMrL4P1eaUlEe01G12JAusYraKbypr7CPJczXtTjEj0szVoYxS+ij2Z3ui1g15g8uUSbnVAoiSHiH7itu6bFWhFqGKH3Scx/mR1v1iUyOne5L8MZPNHTBy9IhWGEIPNXiSx3S9mOmhZco4oDvb+L/u2OLdo3JWi2f0xxKklUJZeCianVDG/GsGy3xTgJmWfDvyCBmzcR7iZhfKll8eGBTqsaecs/1OtRECE3KpwurT/OxlWhuWS5xFl7qxgnxn8snzsMvLSgkAT0dqMl3sm6UtTMqlPBylomruGeJpo0PGgQErgPsDBE7fDtOnJz7aMckQ1ozxA/Y+fdxgkEcqN4oz5Z7xlXNHqLzj+O1C/EgNb2wUS7QirUYkfzuCk9u9eO3lRq+l7SdjyAWXwQkfDqR2uZC++K8xC17UQRKhCuGAoSMMnkXQuL+tNiblk7Xf9IgaGS9Eb20uYVzYgtdpOh3k44n+g2S2wOZP6uzu1+SryKthoSnGedAlXpSzmT/rO6Gk1/2UoWPbey2/Blk7vUyPPPji8eChBsjd/S4XOvpojAHA92oKTLpCWiz5X5ezAMTbSEeWl8E5SbuTegopIw0jJf4AEPfX8WY9Y/Ce0DxFdWFsGH6PwTteYfDd3/Utz0G+sfke0wYVsGZoMY5OnzbmgyZV12u0Cty7vNeUQdH4Gy/Qr/h9w/+ECwzwR/qKyHlb8Seio88EGAAKUWKWYFCZlD1+IvACC/Axod+IkcCJ0WaDepqWwy+Y2PVaSJV52B07f5tCtwR8dmt60V8Y0UH0ygQ7eThfIWxNcUTQZsBYttNq0EXtk4No9z2ksVtV56agpmuJe62YMgn0ZxhVfjOu4AjWivEPoeRIiIKBX9vd5MdBPhNM01xsFNEXcewPjsx7GuSBrz7vdSOxJm9RYT/5E2V+bVMrahYUkUbn2LXSIr2PQ+EQ7sau5ZHDoZ533EfSvPVpnVCEpfNjsHK79J3WnnMn4Kc6o7MQxBqfB3AIDfmwUZmNIJt7Ld3OHjb1kZnt4w00zg0eY+9O94ekKgD1QCkjbn55RfGQroehUyfMWDAFyrmiRe3pYuXQQNJ5moxCI/gpM1viEK4Aod/pnlA2oIwFnBOIotEAnKaxOOfBYtRl4oTTNbwP9bW2ON6dSr5NAwqYWQzzEHSaz0x485kghaacEDoBa4YP6c7g5YtWRxW1JZ2c6GfO0rpzWvsDgPTxCHDowtUS4lTctSEbR1uRECzMIsA8roGRYaT60ehAABnvuA+1W9+aEd3wkKE5fB9O+lWyHzlW5tNrgp9OZrJfUhyItRVK8cRgim3Zthgfh4ioE/jJMHowSwOhfZSZgQo/09TePPQyASvkyAP4Yk14lXLhTQENCQAkqTPrSS8sZnj5OGWBRP76W2g49tb0L+ompOx0cjvKH3g8th4o0uJ1jDmPtNvxhlpPWdZBVaCAcKDNq9BnIdB1GTORy6hYmesGhM5C4NTm4OPUwhqeD729o4mdxZoDgPnSMh9lcmwdvchbmTRNCxMmY977v+YcraOz79j+NxnE97CroHBc1WSB7kfxkUdHdyQ+0+lzzUg+6qYkBQAqo0PGgQFngPsDxL4kFG9CLZ//oGL5uway7W6ysX2SMvh9u8+netYQeO3icrXaBqeAoGpDR2D4mCJPPgmR1Udh5XsLXcWjxQAja2UtZgwSkvq2XkC0UtOfnAjmPhfqG+6iVGKP6x2XX7MdCZSZXC9quoFmzO1qdrLeJ9WrIyXuZOeHWqx4strVRWojU1dBkW3OP0eu3ntdVNLJ7RkCgVJS5z38ZfLaTyLuTG0hqUxamilsYSp36luzg0wNa41DbaQIAKNwd0CxyNmnuQbjoQgVN+qWK5r6iTGuYtfSkvxL96QrMX4dvoWwtxecmradjRnJjqOBjcgwNVDnW14i7rHaPjUhfRved+Uj2hapOPbO+uIwoIU1mfbKD6aP6IfklsNYYnM1pPyLlnIf8lDGILyKQ9AqwVNP+clFtvkHr20asv0B9v3lhuyT5l2rCS5GG8mQfFS1Cnfd446rZD3mqWMMPxtqwE6gKj2yGuvUdp+mW/ojwEbOn74eFd/bmu8nw/P2rKiLpyXUXp/VxTN7I9Fq7FoM/QjbTetU9KXOBhG4WJNF+NZSh/pJ+sdUwv2YxzkcIeN8/8b2sNfhW6fmj5Jh2HCGyqEeVSBlnoIdCcb4tXn/yiYJBvA+hgnE0xSKmFHGg6HOsk3MJFRAS06/+sxu5iJ6pyTl9Rn/dCps+pLSzGWfVD6llxzKJPCer+I1JJ7E2dM9S7IIn79M8m/1kaC6Sj0tJ18239jYh+JLnCTXt7vu5olIbHMqiEw0ebvUXo9hoeoDP1f7FpyfdMoldSSS3ZIk61vB8Oar/R23BP+9WBYt2SOgTRb1jDkHNMzCzI32o1w9L4GW2YXGWJtRfGG5NQbKY5PhABYCiBKNJwNJmcjRbwwRedzTlmJpodY/inf0Hi4C0TrRTTc1/aitNwF8B2FOebricMEHct+Y8NyOzghpBkPGZu/bCe8MESGIk7KffRVey6NXMeu1nwUSWoxafyQdB5hFUD33CioP+M8TMOb9VWAeE2n6QyXHhDhKO/cE+qgMFK8is2FBKcRwFfdMjVLUDuSUvgbDm1XhO7b01RCryzVY3WGs+tVeRgzEgFs2c/QCcj1MdTHDzx/tm2666v+xvhz3nDyWU5vRUAuVoRZkPx2jVlxO3fYD1V/RuWMM2Pi04SHsfvKDjcRabqv6/7/MSr2lrWZA9HoYSNXMyBMFEtpIO9eJbHK4lhHPI9wzwOEirLfpz15WS2qlyPFOlz3RYUkMwPU0n0irFGlr6hCL4eYNLLTDya0hM97vU1AQvf9Fg39k4H6oo0PGgQGjgPsDITElC/IKMJI2jU+Y1XSGqqKsAtodikW4wS73AyY5rMcNU5XEs5KQciIlp2wJ5RuEL6uLqrIheBECysi65CbmuBB38wf8KPBoQ87nH5UrcpOi51DSM0ciUVKaj9lUTmISgc5KWLs86L0wrB1v8u3Bx+BKWv7cqhXSIFaYGwXMvEzPKdMsloO5eao0yM2uXax2ANddJ+5b497mD5x4KwlK+umSPAVtuBbm1Q0AmtTuzBnnqWRfOw3VNwDGeEm1p/Qvrv2Cu7eIFRLt2WGC15pneitocQV/HGCyyTWddMgO4PZuMyP9FricoU46mdfIUzjobRsF9tbwF/rbnQMp7P2upd1KmCPDvTO11FIOmJM7oWzVywGB9WBikXs7y3Ad9LNzpoEHvpQA2MqEIDsinv5bHm6UQ6nCBEe3kcqjEPBZ0cYB0GdFqM2D0mBh5J4fx4jL01hlR0gufF2ryUpbmqNTN/ycJ2SHDL4c4FYZCL2DIkSSFsnK3lXhNgjQKzGIHlCzfO6o2MJU4Lt47gBOLztI8hHJPPd49Y9Zjb/7u7TskHsHczI0GroBLmftW9ZwJqDOdKJLDIL9VNgVOMubY8BBtDwPBCSAeRpRuJwazHH53EXuxIm18G2TiQa/175lbhicjzi8Ved+j2mxvx23/aDktzJkBK0SDq4RghiWJ/tcTpwadWXyNzQscbnhbMvK/Iqd4TOXSKGhbL/fxOVpz03fLVKV4LuqWls9KmIliyptCqiqsyVF3MaJNPoPwQl1VJ/d0S4a21xxtdyfMYnYor1EZu1eBQs+tXH0+TWElfVC8eFhZAWvCXHcxuANeuk2SAbNx3EN396Ycewotwx0YCZjRxo2vhkhJ7gu+icUM0h3Pr8pVIkwpNyLac2hBcAUUEfC7xE+5XkwF2JmBa3f/A1q/8UDyYvj4y0LpReu6XGa1do/rzn3aQ9QTGIBuZdUHFE1qTQ51a1hTN4tvBqUwUQIanc/2rKmj9EI3MXkSUAeKarbf1TEZpuBuhuAEwejKH++jtVhIWyTZC53Hlnu74JhWp/NHq5pcFcJoBjLjhX1w5oQg6+ZDjLvx37VirqHOgDLlF4usRoLbIScqgXUsBPm/k6K8MUei6Kei5LC8BgtZLHoU/WehFpVdid5WKz7dzso1PhQxjWg9x1jTDbNjWp3eUZvqi8OWpCWqOG3jq9oBfdbefrC+t66idbLZHncePcWxkHb43JDzv5Uyu4WlIvKmI3JlV5vJoihqRc3TEIanQxg/ny2gZpOF6oacnynlypro0PGgQHggPsDGHmijGb03z1rRTccaFcnM9IvGX8S3+YSimXf1jp3Fw1L1hJGuy76E5VCrI3qmFnnlVPtIhqY7w8lPvYTBbZtkg7HVH+WPxQMe+/DP/NFSx5NJsMnA0L6OxtscIE2q8NBLPFywIzPVTQSuD75OjHG9cNcyio1Os57NyGNAhNB7s/WRRAME5VRjBTUYPS8sBLocHsQQn2CyCw9vOIs+D2Y9+amb0dr5uNLSwK2acxdAjD8cuB9oSktU6pOvUATHSWohECmd18vSzxf338v6nxNq95lnJuNr/3kopbZDuXSUpPd9TjB00cZxK64LFynMZcGHuBXydBHTGm7z79mGSdZuUs58VolJvk55a0zdlwtPx3DpGGEwT5pAu44h86uOm4p5ZKEZbf1pwi18p3mZhi1+0OOjg8ik+Qn5xlKMzk6TCGs3uym5YOQUsLcndMjw+VP3ytHmIyfE/ZBE3Bpoy66q69+fvYXRfFfgjDlq37qoR7KQxa/0t017sQZtkIGA56WBqIdo4aOBNBd0IP1lBZ+SdTt80HGHQQZXUJj07TVA7wK0Gv+lnnzmPTGhFNzDmPuf1vDyLL/31Bhy5T/wqkHUZ3FQOgpc7gTxQCOyOqFvluwUGl86THuFIJ7iZhFr9t5wyn67rI/FHpjpmAYoeOFYxJZ1IdUhDn0FhSxc3pN/hu5Gj7LR8lltM9Ebe5u0imgwUQS1wuW3Y7cg8mRf+bBmc+6rKgHcf+nweslo0sEmBhyJl5JdxMADf1E3sXLMFkkrP87MZ2WFNNxOc2PmfVQrPux7oFB70aOPMIK3BOo0ZlG7TICK7TrerwugfXdpIlrCS9OB9R4HT7f7pTo46hioGp8zU15oBTdOmgXdvfBJrQqxfISXnM24akZJQtnvaZciklVwUwVs62Gl4vxgjrIM5tbHqUU1I1t7sX9XPXlx8t+PUa1RVBCrcAUuHTdQ6pwln3jsItewKyEVqY4Kj9M/r8NIMKpgjIfLL2b6zAvFMr7/1iz5YATH07xA5Qcm/hcf5cZrQE5l9bikENT65RlBQEnQU5v0lgAMF3RBt/2oIVPO0Kzoj8d66pyMdZnjRKFASa2LvlNrGqLSfCZaRJAawlM9Z/U/mEnUMnE1jx64ut5qZUBe89k6vtvufzeiCCuPASK/eljW3XNzOCh2B2ME94VSzvNDPYuIxUTKI1hRENPMMYcFJB1fs81dkAT2qZ2t2NLAv38Xg2CrDKwjp27jebaOmBbhhO6ab2qmbGG1+8kULasMj+YF9EYmVTUuc7so0PGgQIcgPsDLNPtvqow59eOvFyTiUra1nFbJgfQIZR+PCB2FHpSFFjKXcAtf+cKGXhLX7Z19Sk5IQ7y1YX4jn9yvbuHrcL+P+UYcSW0UqtHr0lMkoiLyNmB6mJiQjnY3sJHQhyWPvsgH1PSLcWWGxxxQe8S0v99TFfs97BdvK+LKrXAOUFRYEPnvpsh3zgSNV+eRIqi2HcyQo5veO3dLeKAiS+vVOliFkZyVOUfLY9/4lmoroAJAH2knaLMadIMPo+rhYdqtbee1FaMd3cX6mS9w0J2RC+rJxqdaKGU9Xfn9XmvSv7UQ/jBolRkuvctooSaIvwXNqcko8C8aElj/cnJXEqMexzlDL5ygYze+NZiZXGPRAD+Pesgmd6Q/+KlOH0v8JzDzNyuKo8UrNYC1ZsPi35Y78eeCl4tODxH4FoaFFKbBwvHnoUu/Ef2kPsXwfjVP4G8596xte+k+4woJIXmRkU/PPCP/4QgmrnXcXKyCobUrnFEcxFJIX8xhR9EcS+szm8RinCTJeZz2Hz0buKu2M42Pcd+l0z57oBRYiP1bV4s4kNseiNCi61QAeTVUMOYaGxIlZ7TdNHHi+oQmAxJ+DyZZ5jrtd6UWcmGXPCFWEjmLDjyiy5xdtG67k1mFGX4C4TLQRFtMQux2Yl4ZxQxYc60Bk7hnYny3pcxITRgYfcof5SdGWBOj8buC1ZHRZMfJV3CbM6u/GqOVviAP37W3khkyMnRapFBIKratg4Kue0YPWii7IVFIpwSCBR5txbw06HjVc6sE0tDzXuxsOWScBxQlo8hqLXLKRMRXIimnPMlovjGYIhHvwcWkBcbFFUnWhcxR5DcGl252OYj0uonl5ndidcOYwWRAJCX6cgnBoSHRoxLIipqUKi1JU1rBKXJ5AUO0LH5tK4eZVcfBVPMAhoexKGJsQwoH65g+GyGa6opEhyJ24Wlvv0o7nvRhWeLOX2ORzsV/tgCKF5dAYwu74jam/Qd8uIAM1vRcVObCNt9Dgvhxoynhyg3/2IokORYpwBOB8md4SuZKZAJKoGiVp697solXsVk0q4pFsQPr89mJpp/mmZuqHVwtOyHQskW5KZofp8x/kYwnahFTNZyc7XmFOk3qvA7zgSye1mIjvop87IkZebf5nCrZlmmEvfkbxZTtq7VZC7qm2GiPYoWt927YmZof89MwsO4FO4kGaHOGMlAcwukt/Af+0Tu5btk1Zs6IHDPzzm7eEo76QYzmRs39gOTsP4k0JZNUew4BF84KKzoWisxl2XSBQ+QXL+KXKwimzZMo0PdgQJXgPuD/BH8ESUOkt+RU5RjWfBy5yr4cm7HIzamBDWy1AB9iKtWxvgKfR/HBQxuRstODJdtBa7/S7nYy7QNbmJXxMpQ/Q4LPtlTTYDcrIw+RnuhA+whHjThDrXSP2iIiXH6sRwiH5kb4JCGn57M03XrfduNvzxhvoc8SQjB8yiK4yJkRJIq/k9uqadtfpErLQGWlWQaOUeQCSVNleGXuuWE7IlX77aT5Y5wfvSBA02pRQkMXOhLcIyrDJhzzcwG62v/QjWnacnu9jgjU1ZzPrb2CS9VM/ICE5H2dFeNy8izte1mUQWiNHEVN9kmE4/IahQERbcsF8sHi01ktGx+SUTTOHcSymjORyId5a6uM9GhAI57lPPt8zOnjH+P8ZUR+BH95WZ81CVerbsXwl9oC7ceUfQhKWKBopDb4vJ+MGKpGOQT7L1Obg1JnYfw5JQ9xvigqGBUYQwFwfQF7DkKJ8vuayur3/0hzu5vGYmRU+Y72BpsBRYxa4Jv+wfK7jA5dNEkloJ8MgFXiCYxvaRuL3mj3gg/hJDfzOmwXpOVubz3ph8TMrtBjd3dfxxhI8YOvrObB6vz06g+db1hYtvYB/ZyBTKc8tqo66sabH6ARYSAqg0ydGnq+QcIYd2GhtTXkrdxFTFgtwj94DwelRGUh0wEgGxKy77OZ9HtJ/awbxowDK6CX4mBwGxPnc/H6vZhpsF2lkf64XZrFGHXfTpbqcA6Cvgfxn1nvGsiWpGHvpzlKrzKeq82E/h9xnlJ+n3DelpJ0ZUnlItokiEaL6p49K0AjbgDFZelPL6kfuBuQ9btkq1OIOFdHK5vs4EL9WN8efdFsIKrs8yKUi4J3rdEMIOPQpBaNvBJMVtVdd1RMiB5eB0SCzRQ7XkU1xYVYiRrIdbLB/enhOC9yAgxNAQTyazhCY+mIdTeAwYnYfKYDp3xNi1wnIxQQUvRhfyuGwzAQ5iT7tT0bJ3LeVXs2C943vIWr5/r7X3oz7WTu006kolWaJaedFjKSCb4tKpuXfF68inHyM4j1Aiz5E0y3YUvrHkEepGnjEXhRhfaIQ5mkUXh2GXW52ud1qhqdVK2wbSDbWlPLKohjzIP4gkA/qPc5eF+Cm30rtiUKlS0K4kLz3sAg0xmm8tHbK8ck388wLq2PMMHd5dzFx0oGs06n1ZW3e9gXVMRQK54i/XV21YYne0aj/g81GJEzLDmqYHKfFS/lT0Avsa+Uctn2M9MFduMOS47jSy7xOYHEVJxtPWmKOZGOlE2pQHHoAHgD39XH8HZ/WGHKu0JArSIVWdd5ajG76C8nti6rYY29/N9RGOjQ7eBApOA+4P9DvwPSk2xt8W71TbiFx0/URTT/qcpWSs2A5dhZ342J7soE77QBDGE1gen1WuE9Akpw/phskHXEDuTYiWCaJVWW9Eoml/38Kiw/AKn2l3bSw+MKzBpP/AdEpc+wylgZaNGnPliqph+sQWz9F4MW162+tVydvx3n25HkhrhUSoCeXEdKgYb8yioxuAIVsBdJ+YZAfmZsYMd0oZ12f25QFruCHmO+TpthnHN2RIkRzyaUW5pEZs4E3dF/lhx52oAhG8Q/HJtxX6Gfd23li2jscnBOSLtkEnpixiEJjf438narcoPv8dgAoj52uTwimVNCoBy1eLc4CxaDrTc1V9bnynDJx6xgxoTBA3WSljMwotgK+sc3QOxF57DQr5OExezieMzGdjVaGyd9PiMnkHE/6Xg/16EtIZ/uZJhJ2626g9zyg3E/pfhExYu8MZpQ1cg1u5H7ZXGePvg97vXdkaZE8fC0sGfSTzttip1bSvLsRIWWuiuCtTQYRumk7rPQ8TH6a8jEqSJjrlh/1+nZeRiFGEsZyXJVyStA1KV3ftBySROSCUWOKaUcrvXL0Mbr8a7A9bPYXYCtYW9yLQu/p76DsuEgphmIMgWVg5CUAvgLe1fg0Jx0cTIlflZAxzHoQ+h6NEM110FvFU9yL9bkhu1QYknnfuuWQOUD4zfEYSrvaMSEehH4Cp7hECgrcIyGOkyhFyW6pfwlqqpgWjk+WITNiAqpBWcFP1dIlbKgziZV430WiYwsgeHyOB7RnxI0DEFffaAD3Meo3sO1s6Wkh1uZ0Oc/dUULq1Z9h8gQeyYN24gALZkGJPZAilWXbc/u3YCUQAkAq49CMsOfmRG+jfSjVN4FcPiTf8uXuaGgnNWqO2bg+TJLPTOVzWGRiMuq0xFZuFOhtHzY2Z/sIPMLrXJqI6VVv7eo0VNehuwKYJ+1CePH9o2hc1UQ1H/wmSzYeDEF9KX3kpekqtT9DdyMeNeLeEFMKDcQiPI72+gD3eyR1W53WyUtGP+EFbUCX1F4Q4dao5lzP0LJGs/O7AwWJHAsBz26CZusoGnkM+9+JD9tGBGhk3nbp4s2vfEkSgFh09m+o+vlIF/a+z8wk2qWCoE7IHwIEMF9XxxUVKYVDsdb3m3bf9Na0plNtvf9L33lCHsSVwc81A3eLIUlikJDtQEWG99eLitTJPQhJbN4oG86VXQ0tX//PBHAtPvl9i4wB3012CKUBIFiJna8lcDZg4c0oWvrWn6UXIxI8fRPbz/SiL6b2ajQ8aBAs+A+wNKVRgnGLZb8k+9R89bPTuVuufH5iiZ4MNWwzFFBkicEavjS/8oobePAqlDaUrznt42r5fUL3SK5mCODRMJbuOhqnA/tlDUeJrm/xSDwDl5a8vdixT4eNkTjfUYJz6sj9OybwwOWFN3r1NtTwJ+nBet6CyNq0k2D/nN4ATTf+2TZNzhQZrceEUgr78zYplAcnLaAvgjbpzaRj2+Tjv9oSsAOqvbYR3ihMDczsIcmhoaEr1VvF8W9nWIgb6WGNEb/VgX8173IiOdpjrBhQIURRCoRxfqI746WDEw6/TG/T6piQnLs7pOxNelSyCL6a0hXXdzBgtGsSY2xKnTfOCY2aSDTSiAyZFUVJ61pRCwWrWXA5NtXx97rq60s/eW6Xh5Vciv0NBPcP9SQcUs2JfT3ReTN3Y89zXrK6lzPfL/dHMfINVt6eQPblLaAQhvm03R/voHribZ5D8oOTC/J3j8g1P+K8EGrVn9C49MCFQjSJZ4oHyFdoLsInV0GRkCc6JRugI/hL/QFgphFqrsXI6E6oQ7HzQHU392KrAB7MSJBjPf78mlGf91OuKRw40q/q+ktuztfW6B4ozkbNbDhMGI6kXQOiQRXY+N3oVVwtEdBF466fNfVR/0y8h8KskMTxanCo+OUVh5/e3VN1ozkKD7uRli1khsiib+ZAW+u7Gaqy5R4Fxm2DKVjv+npjxQVfWRCzKYdcBt7Q+NHW7+np8aaObEEUZ0+z0iItjj3Q0Fz05xrxXudaicnMts5P9iPNA2cyQT/v3VvzM/3gcAh/XPQbzSbL3TRPXhWpsC/f3GoBEydjH9OXHhIlB7van6AJ1mZwda8m8dpJRc8kRy5E2vfuRz1kZt5CLFCO2eaH/0/1XJBTyi1G8+/5gEkMhdES5fYF//9lHsehIdVJn7aLIIQ4ef0ws+7yOkboElzai7ow83fLZ44Yf347ekRpfbdNFnS9BGx3rviCSzFNGHSTXs8In3FJ5cVQhUZCmC06KojBdCmiFj8DP7sHKXbtkkqVpcCacynQprHLG2BNPb5dbcHqxAXQfrLku8n3u5Mfx5BXC/4PUVZct/TIkrywx1CudvWPfwmuRku8dfPDm5A5muOJIMm3jHnJVctIahe+l6WAO5xV8hFehnIueEmDXIyekQ+dla51WXjrwOD9jVaFJ4zEaRWo2eRA3BhqxcU81SE9ebHD4EaiYXnYYlAG6GeEHvzIJgvlPlKMp7/hciYAJqgB+KcGHb/dgmC/E66g2qnliTJlqjykfHY0lUuB2k5hQwfHejQ8aBAwuA+wODJXsqeZiRRn/lyiXR9O73aT5NRUn4+ifW6MQuL5T2aqPF4yypWBKSOvl0adAzo46hAGJM/84TSqpYT8uv3WbbdBH5lQXrf1TWxpRU6T9Njl5JMZs/umqJZdENMxATXKo1pNB56EAqpb7h1yFp7LNvQ8M9ruHL52IR+OOWgIYmqNCSRZf2JsGWWbcxGMSQd7vH5VblJoHzzzTEMwyQHjWEpLfv93ODpBB/uKvSluMVhKtUCrdpcVWIyjiiAgnpF1dn015oKl5q70Pkf7qRAp+QEKfROhz31rceI0RejSewc0DN189WwtU43+f2FtUapn0VDmEITbk665RXTVODRE3ytnhYo/Q+NdsVz+WoQSvxikwXL+r219p9cwLT9FamKm/OQ5tvAh3V2ujPymrIo1uiguuO9IXpquDWuf0I0fQwPioDdmQrK9BiwTHWD2Li2tyiVKxd79unUDqMdaMUvdkJ8HZkbg0ZZgeRZ67GfqEqyxjzKAjPIMNs4Ij0jqupEK5siPzMsXMN0dH4IV3kWgUnFSZR+IiaWlvmn8yhO5mIF+Hvf5w7kML8POtC6rZpHYxz+SuuWi7oymhdeS+cZyhq4L+lNYVcxh4eOaaaJzDfM2pKUXoxBBUMYAu0vXW0+PX7rDYnv6MSxTzbP4XdBAv6dWDJVBsAhbiwRtFc+yxXwboKT5tmkeZ9g9lSgiS7BUFAtYAr+ZyihteKqFHAlE/Erq2wJUi6FbggyWqRllUaZH4NtfjlGVX1pEb2PgYB7WgX7vL1xgFf3bWpnknf35HmpTBShDccTv9rX4LVdxisEpfzlK0U78HbIOd6gXJCin47ee3P+VEcxt6kO8GHDpq82hOfdSCGgxMD+ggo8dWdizlVRSy34augTZf8wIpB9iah8iI+P0aL7SqQwt14O1V7P/KaSvXqhkk7L5GHFEydn/Wv4ZQrEnNFu0V7Yt5w87BAPyw9LCR7g/MwcMoDL8in98xuPJaARpseTFsPDhcrUSTeRHjdElxArmlP/UdCRQIY4HHiWtfIu7GgPpK1lsxFFUyIMPoI5DGmhnAs6LdTjBscygYpK0ES+kvCDV8/vL6nWD3VaW/BWwhSN8EaYPptp4EMaeu8/JyPb1na11QoN5BkF5aNxh4mEKGIPiJFfFn+rWGG+fcw5kH32N6Yt0nESYK/8EUrU2b60MQ2Vtkdr1cbB21KrmtN3vCV3qAVeGAL16/Lat140F8d/2qwLCNKXRkdipaQS5gCUBlf8k4qS9AlVVgD1SMpIjrHPw03i4qjQ8aBA0iA+wPYyy5tBrU7QzEG9dDxskTP/fw2I5FEotahX1tho11Rt6hxrMA6a7u2yG/tQ5H8spTCSKBGjkSID+aJIBW0bh7W/E05rqqfB3EFi7jE9O+4syIAPic4/V17adXFzr0gLqCedph37m95f6LS5gU2gwv3HRvAsQhmfxirp/Z8uaLEbA6cz9a8DDAkLJQ+QHfS86DA00BrnW5SvwE9ug4OrxxC5CDde1v40vpAo6FDMlTWnbPzitNfYz02BR1hgZlVKeZhBfk0Cd+qZ5OtHrtrAw2N/Iv2u7liE3YnH56omy89BWXWcBo7DogxsMZ2Z3u1/WytsqyvWzZYGragYVIJSjL0Smwonkg5laPGkj5YonU6wIXvhWreVfE8vkQHgo7kH0Qd8zehEhrPdr+4cDg+XQvADts+ohMZJecTlzd12v6zh9V/5qP1pLo44vH4Gb1Z4BucDE65gXyAzgtnjDu81Occ3bB5SYhEWcs+hDMEiXKUVCIKThdIseYsmqobQ5cD2HsPATpfO5AWWrgynsSMiPpcPZNWxPmNgIaCTyAjEf/jqR/T3rRyyvGIA97XFbxYEvP09WCBED8bfKARqDpN4xFYWhjSwkAFRCHkMa583JWd7UHgMwag1TH5CMyADpcwUwChdHCPoJQQUGvX/dpVsugcDIPKfEw/t4nMyRCt8Gv8aAOdLJnx1tk5kZQE8xzAOScrDT2aD0w0MrmZC9/5ic+EMW6Ey/I6vTXhzgqNohm2INuubp8v5C77ifMvu4slW1XAKWwjvSL/GdegerHXTyDNe5IuIO2ibhrO1DMjpzP08AgkBIryikUJQ0WjqJAaaiHTu1tnTMoWTJb36DIQXft/2MkXn4SuVefvWXHXI8RdXaLeyJhcVcDu1A9qRaEGlZpTpULkSEFB6kVir3Ah0ff9U99v3BHx9ZuMHjN5RD4E2fMXJ202MfM7fR5j0/3UZfT9iEE0IYikzabNOeq7Jr4D8OrLMSKtnmkk4amSfP2U9jq8AV1PBo+Nr+lr7pqGb/S/3Szh0TCot07aC9X5qjQ8wnDPgeeriK4ZAep4rHPXvLpaKTUdEp29o3UPkYBzPVYwbkdUL/+kiP/vZJw8gF1BGzZZR6B+zC3vpYVFvcENIX5HKFS7WIHGNXKcB0LnmtOmzR5TYWNgAHgvnTdGzBG6J+sjcF6o0DZ826o+ZmSfARrFjTHd/K3fpEEYPDUljbhwT6RAQ1n4oaIuk3F7ODOBwE4WG011BacD7km+/XJyG33+6ADJbcDvRPzDQsTrC36jRAKBA4SA+4P8EfwR2S2tn8BQ/dqbNMFxy5KWKH9/owoPar+LffzMnRiC9QX5Jmitodh2TgvuskNc6Tyd5eo82aaKzRtzJhiXI95pH9NPSXHddwXVA6u0i3Z9UOioZP/0aFc3W6vSX6cLRzZSpiYWwSe3g74eNsKG8Jie6uOlZBPm9z1ucvgzrmvysk3RCoR0okeukmejAAd3eZ8DdsDkZ4WZmAq/VuMUR9Rl12ZWDj3Eplxbj3Ew9mzmu10YMqQeEv9vmJrEcki7y+1rPZkzPfRGIHMsM5L3VXBCZPHlXXsoXuG3rLb0yLBU1gbBblnE2YadrgqFGoIhC/SLdg7Fkv1p/Dq81R4rJX8e2JttKdqgJJbQ4DQnLAPVfmU6F0MHlm6pBT9RsYiedJmi7NOdwPpFYWRHqjgyhYgCzf8gz8HBgfBNuVkjzUSHAoSD68MFhwbuxnFp1JrWprUrCnviwOfFZ1ATNttKDf6bAGaeX0DzIojC1oOSAiEPBGktWydhBAmPC8hMjjkn6Ycnj5fQJmvy0TW5mSpRad6R+LcI297qYPoPdUEcybKDRdq61kGvwY1alCLKqiZsg+889fhx34mpFcYR7NAsbxyYhZ7iYa8SSJyC8F5+OB0zbR8jq3wie75Q4gguJDSmWLQy08j6y3hVsMYRJVv/Hzfvd/tzsWTMiFCo4Rdh5zia7+XYJVD+5HMKZdt6t3DqHTO9bJBJIG9sAKDSXIOLoJF8t+Te/mZsHXqiqkiQbEP1OMGTfy+TQvTQfDThJgEEx1HN+JWIoVYJw+iqVC9dahU8AlJWcynQmkzAVqm76ZvzdSwr3TXex5mTftTd30dcEFF0u5ZLJ5di3eLmrC5j8XV9vHr4zWgthpvOdpfN1VWcE7Wf8HZSEKrqvr+3b8LIp6NTQ1k6Ha09JN5QlCYNkTDIT8dz1dQJhCBPfdfCvYWYjwI/P04ll31xjKekQcoGjYcvNP2/nhE2eosXDolwD8FwcJ/sCLSyyIRLAEgRvk9qiBVUGl7X9xAEvMi5YOYapdoG7+UvEIRvR1Buph/N5z+WOaYn9gDhkIXf3kPebGa2+lzBHWuk8v6KlTQ15x9kKSGUl1FTMORhm/x7Es9+fCHFxYLLWuEpKk8I62j6TuvF44AAEShJBO9iseWLLmqb46HlssX4thxieEJbnQwAQ+HVUVLcAMEa2ioLBvzYgCGzTMDmiSPbdxQMxR7aR6O8CY8pRULA00A6ApTIMuq2ZbHpNlaw5RAXjWNtCyGFGJmCA9UUQRpjVpRrw5Dv5NljSxFSbQKgrWO4ur3DMIKvrp4MFyV7ThQ2Ey/aMsf8g7vE+XMge1vXXErJM7feGaAjRspK5XKEGVz2CxijQ6WBA7+A+4P8Dv0ON8H42NqnVg0Gfgi45WUO3KD0A/r6U3T2cdhAci481zBpPrWeXCVoZXHwsRTXgSpfdRbLyHwzrCJR4m0unVCGDNtJz9DEy14YBqZOhEY3f3FZaVUPcROJGlnoIWnU/8Xi+2k6BFBDA+bCqIqWLfq8cnOXSZZzaokSpWTAYtLwqpBbMBmAOUdwdP724bfr53bsk/S7gDrMax4T4zPUGu1hsxLdqevfHpDNHzXT4KLi7o8I4XR6HN2KvswTvUcCXsX+HcLE7T1JQEV3Kk2Oiozt06/OK1mbkdLVMWZPNSjs0J0eUKOkRvbRbFmC5lH57ryEUm0RGi8Ie3cssQXTBLWUo7LKb8i0lij8mm7awF2uIH9L20+1TmU7nCKTcNDV/jILRD6Abaw9keJtRxFBgvXhb/HA40EvumQdQ1r9UU8bh/2epv3mwNWsTBj6aA9w56ODsrGsy7EqubXkqWtwUAot4tm8Wq+oYzfvTVOY7mUT0QFd/o5Eob5MEbXdPXFVzG66ZI9pNIk8elXHFDrF94TbWQfZeRA28EkCo0WzPM3SIMbbKx/wDGqJ5TLcDT7TlvNSWDff2FhEqF6vEaUj2wmqBWOK8ZNmUuY59awPZsRwEo5Rlbd/2TvXDLBNhasMWO5+NzKjQO7MRiJ3Qy6e1PCsLxwRBJqTkajznRbgvktCnSrap1QVXriT6e/7LtVM95yWwlPqjYwlEvbNxu3unslZNk7i6RnQlcHKv+QXMbUQeW2SIZElejwEEsBLe/Y5VC2mCfitrNEKnBG/9n+L1BQXShNc56Qo2oy3+jZfboFXrgjDmvJJJe9DMVQXpdMk6Gt2Gduf5EeWTwHuXgp4WuxNv8KQCw7b9VSRyrIWTlRQo8rdVT7ys9I2Wp3FPWr7NnN6vZzSbFTY5ISD/hkMbOtLJEXh56GZenEb4UDwfK3DT4l1S0V9XC223UY55WfiLceSZWU71mWia8JVrfkk/Ae9TiTVOcwQ5S7QssVXmKY9EwG9tcYCEneB0/P8A2eKMMrabOpaUn34ITZ4FWNbe/d/lfwD6XkOwOj36nilArQlWN02RnBz89sVbKLoeLc62ft6YYGdLRV/XX7ObT+9Dk7eAMeLFhRz+Y4dXkwwpx0w4IWTHc82OKIl9O4IpNtD+yH0HduvF2262t3ZsddKWHBzCPdSWpe+c+vcl4NvQMCeFjk4BNHYembU1i3sUB2vpz9o5feH7jBFqRIg1BE=","3"
"","","","","","image-button-response","50","139880","0.0-10.0-0.0","owhpwuu5tnjup3p","owhpwuu5tnjup3p-2024-03-20-17-35-31","null","","","images/stories/market_story/market_story_9.png","null",""
"","","","","","image-button-response","51","141719","0.0-10.0-1.0","owhpwuu5tnjup3p","owhpwuu5tnjup3p-2024-03-20-17-35-31","1836","","","images/stories/market_story/market_story_9.png","1",""
"","","","","","image-button-response","52","143523","0.0-10.0-2.0","owhpwuu5tnjup3p","owhpwuu5tnjup3p-2024-03-20-17-35-31","null","","","[]","null",""
"","","","","","image-button-response","53","148026","0.0-10.0-0.1","owhpwuu5tnjup3p","owhpwuu5tnjup3p-2024-03-20-17-35-31","null","","","images/stories/market_story/market_story_10.png","null",""
"","","","","","image-button-response","54","149960","0.0-10.0-1.1","owhpwuu5tnjup3p","owhpwuu5tnjup3p-2024-03-20-17-35-31","1931","","","images/stories/market_story/market_story_10.png","1",""
"","","","","","image-button-response","55","151768","0.0-10.0-2.1","owhpwuu5tnjup3p","owhpwuu5tnjup3p-2024-03-20-17-35-31","null","","","[]","null",""
"","","","","","image-button-response","56","156270","0.0-10.0-0.2","owhpwuu5tnjup3p","owhpwuu5tnjup3p-2024-03-20-17-35-31","null","","","images/stories/market_story/market_story_5.png","null",""
"","","","","","image-button-response","57","157623","0.0-10.0-1.2","owhpwuu5tnjup3p","owhpwuu5tnjup3p-2024-03-20-17-35-31","1352","","","images/stories/market_story/market_story_5.png","1",""
"","","","","","image-button-response","58","159425","0.0-10.0-2.2","owhpwuu5tnjup3p","owhpwuu5tnjup3p-2024-03-20-17-35-31","null","","","[]","null",""
"","","","","","image-button-response","59","163927","0.0-10.0-0.3","owhpwuu5tnjup3p","owhpwuu5tnjup3p-2024-03-20-17-35-31","null","","","images/stories/market_story/market_story_8.png","null",""
"","","","","","image-button-response","60","165322","0.0-10.0-1.3","owhpwuu5tnjup3p","owhpwuu5tnjup3p-2024-03-20-17-35-31","1392","","","images/stories/market_story/market_story_8.png","1",""
"","","","","","image-button-response","61","167125","0.0-10.0-2.3","owhpwuu5tnjup3p","owhpwuu5tnjup3p-2024-03-20-17-35-31","null","","","[]","null",""
"","","","","","image-button-response","62","171627","0.0-10.0-0.4","owhpwuu5tnjup3p","owhpwuu5tnjup3p-2024-03-20-17-35-31","null","","","images/stories/market_story/market_story_6.png","null",""
"","","","","","image-button-response","63","172297","0.0-10.0-1.4","owhpwuu5tnjup3p","owhpwuu5tnjup3p-2024-03-20-17-35-31","668","","","images/stories/market_story/market_story_6.png","0",""
"","","","","","image-button-response","64","174101","0.0-10.0-2.4","owhpwuu5tnjup3p","owhpwuu5tnjup3p-2024-03-20-17-35-31","null","","","[]","null",""
"","","","","","image-button-response","65","178603","0.0-10.0-0.5","owhpwuu5tnjup3p","owhpwuu5tnjup3p-2024-03-20-17-35-31","null","","","images/stories/market_story/market_story_7.png","null",""
"","","","","","image-button-response","66","179485","0.0-10.0-1.5","owhpwuu5tnjup3p","owhpwuu5tnjup3p-2024-03-20-17-35-31","879","","","images/stories/market_story/market_story_7.png","1",""
"","","","","","image-button-response","67","181291","0.0-10.0-2.5","owhpwuu5tnjup3p","owhpwuu5tnjup3p-2024-03-20-17-35-31","null","","","[]","null",""
"","","","","","image-button-response","68","185794","0.0-10.0-0.6","owhpwuu5tnjup3p","owhpwuu5tnjup3p-2024-03-20-17-35-31","null","","","images/stories/market_story/market_story_3.png","null",""
"","","","","","image-button-response","69","187474","0.0-10.0-1.6","owhpwuu5tnjup3p","owhpwuu5tnjup3p-2024-03-20-17-35-31","1677","","","images/stories/market_story/market_story_3.png","0",""
"","","","","","image-button-response","70","189279","0.0-10.0-2.6","owhpwuu5tnjup3p","owhpwuu5tnjup3p-2024-03-20-17-35-31","null","","","[]","null",""
"","","","","","image-button-response","71","193781","0.0-10.0-0.7","owhpwuu5tnjup3p","owhpwuu5tnjup3p-2024-03-20-17-35-31","null","","","images/stories/market_story/market_story_2.png","null",""
"","","","","","image-button-response","72","194522","0.0-10.0-1.7","owhpwuu5tnjup3p","owhpwuu5tnjup3p-2024-03-20-17-35-31","738","","","images/stories/market_story/market_story_2.png","1",""
"","","","","","image-button-response","73","196327","0.0-10.0-2.7","owhpwuu5tnjup3p","owhpwuu5tnjup3p-2024-03-20-17-35-31","null","","","[]","null",""
"","","","","","image-button-response","74","200828","0.0-10.0-0.8","owhpwuu5tnjup3p","owhpwuu5tnjup3p-2024-03-20-17-35-31","null","","","images/stories/market_story/market_story_1.png","null",""
"","","","","","image-button-response","75","202153","0.0-10.0-1.8","owhpwuu5tnjup3p","owhpwuu5tnjup3p-2024-03-20-17-35-31","1322","","","images/stories/market_story/market_story_1.png","0",""
"","","","","","image-button-response","76","203961","0.0-10.0-2.8","owhpwuu5tnjup3p","owhpwuu5tnjup3p-2024-03-20-17-35-31","null","","","[]","null",""
"","","","","","image-button-response","77","208464","0.0-10.0-0.9","owhpwuu5tnjup3p","owhpwuu5tnjup3p-2024-03-20-17-35-31","null","","","images/stories/market_story/market_story_4.png","null",""
"","","","","","image-button-response","78","209198","0.0-10.0-1.9","owhpwuu5tnjup3p","owhpwuu5tnjup3p-2024-03-20-17-35-31","731","","","images/stories/market_story/market_story_4.png","1",""
"","","","","","image-button-response","79","211001","0.0-10.0-2.9","owhpwuu5tnjup3p","owhpwuu5tnjup3p-2024-03-20-17-35-31","null","","","[]","null",""
"","","","","","html-audio-response","80","212929","0.0-11.0","owhpwuu5tnjup3p","owhpwuu5tnjup3p-2024-03-20-17-35-31","1039","","","<span style=""color: red; font-size: 24px""> NOW RECORDING</span>
        <p>Please say out loud the list of the actions you saw. The actions can be said in any order.</p>","GkXfo59ChoEBQveBAULygQRC84EIQoKEd2VibUKHgQRChYECGFOAZwH/////////FUmpZpkq17GDD0JATYCGQ2hyb21lV0GGQ2hyb21lFlSua7+uvdeBAXPFh9aMt3EteWSDgQKGhkFfT1BVU2Oik09wdXNIZWFkAQEAAIC7AAAAAADhjbWERzuAAJ+BAWJkgSAfQ7Z1Af/////////ngQCjRCKBAACA+4P9NP8Jf2JcmIU1eLocgmVXK9eAG+y677Q68EEVBa5jdGi3+YeySAQmmpMcQ4nxlKbzAdq4fRDaZpL2z+i7OVVcLmbh5sNBsYaH6gVjJGPFm6vt/x2dCDp0R6UEId7yDLibLINZU8WdqXhbfSVtXFl029CakLy/5BKDj661WL/RfegBMVwnP6KzLjeUprsgNuuGrGnPpXqaMF/v2N46sOQ/McEbaBxq70G7rJQhfdURE7podg7D8tilByVdmVjyKzrcHmwdfh4OyPq+X0UIhHvEy+ApWwAAAAAAAAAAAABpTU+NDSvHfBxw3UeNoeOajzNm63lhEkStywcM5ZA5+bZBmjxogGiastKGLR7qGoz7FMlWBhHq4KZs8AHKnVXrVeDGpZJm+xcpk3hSfNRwEJNCNfJEGP2uj0Dt5/iz9y5lWi9RxeaHndwqUavqLzJZk+jlFli2EZ43MPEBP91GsLkI6Fg7cMoMcV5hXsAH34g5FRsGrwW1dgFKtQj5YiQRJeRh+K/AZW/iPbzaWWefQCx4FC161Pw5CGNar1qO4dEz2+Bid3f4TxLvhlxW+ffUQ8Ht1o1UoA3d5grjJTE+jpZazenIARs6qBYErnF4kkiKTi5Rf1rQ6LXdhUngeoOv/kacaG24vydjnh5cn+kLBCTZX1n7tyGBD9o2GCp5Xj6zn4RK9SCMzsU4du6/F0PEIHaIKnL5ST8uokPCYJ9Bz6isxkJjFzRV7uybKMqdY8Hr85u+0BZ+fzIdmjDIige1cEMDXjtgR58af5LFekl5+XFOb2BFjfdrUW++UZ5zao6XYsxiBomGDOqAi11kxvHVDm7V7Zi3AA6fkoFidUfyq40hvpXXLGhwqun7NaBIKXlUdDck9fh1clD8k7nvb1JMnFQ8renJB6RCdwnziufJXRCGv5Sof9oTwF42NkETqgZEtWtOeiuFy/bfH/kIIciOCZkgydDzJUb5XRtoAxrFevMf+slv4oMyDRnp9k8JXl66STvrzuFPo6uuKz/GGr6xPYmMj8EDjM7ULdkfRn/CJ/n+mK6ewgXGPCnuyQXGUO3HKVYEdDhRXmJSPy+7RwZFixCT5KNQi/M+1oDRWDUNjBo7YdvWg7D85HTWQb1ghjMLULkh3iXz1PKMVzaFAr1oQ+2F2SyYoe/L880QolC5JIyNWwTnQ6SAYVgv6c62JoTvqCqoY/rxcS417NPVQ4sD4J3TeF7M5FLhQuO1STwXBjDCuBTfBOL+QQYN5RQzHwb2caKbnJBPv9x0toLeZVwekF9qO67du77ERVCpXqRe9VZXg013g+VHLI1BruELmkpOdomsqrrv4ikQenjS5ROak1Z5UO22DXbdxyocgtmthK5WJQ4aDi2OQ+V8QJdhNwCvrrLSK3kcNNKI/WA71qNDg4EAO4D7g/wL/wpPwMF4eKGFDtcsMubckROBwqisCWkzceOlXtD5RPe4V2OTgBOxcujiVxnrutoxgBhcgAKQ7LSiQzFGI6HRzHRWB2U8vK3svoxkT0N83KMf5pxk6V4OeuYdkg8ltWPkYZAbuN6Xt7OXC6ibjX9skU/8zKqCoZBZGLqrpP/cyek93LKP0DLmfyvqf+gFIZajjvLIBC8JYr6OduZqdF1r4Y07SJiNvEu4o3N0aj63chC4rr1NzdP0oLApLAX4SGxK9+T/DlgiLjPmwp91jZ/HXdQ9wKIAv+HkoH8FilMaoAhjBf/clMfWxVTAw+jasTSJgXbugGX6sL3tboaahK3YUAQY2UXALYL1WZMLBHv3kvGGgsCFB6QfFpxMQ5eIC0YA4Pps9+ER/jhQ6T9itE3szUsU4J402GwP26X/yAMD6fycu4hxrreIT3AM6h7ldmPgoEXGJs+a97PZPD7kyC3HMDEyuLViKBo9KNXdzmtBKsfOY6BtqErumoLerY8HE5+V36vFDzAsCS2ZZFzLsRgqmBlxKUql3ZbnSI8pZEf0rhNMSzOSmhY3s6jkmw0Q8ommidWO0sibPjHlM8FYQxI1jipt05aRCW/zeYWkWn6d94lURlQnOSLefqp0os/jD+4+OiOPKypD7vaJ6VWRlfVuJRb8EgwxgClE6s9xB/1YDqVWbYIF9K2YuUILB8uNLHmsvqsISiNZ4pQVog6nvYyq5Ox+DoAe6Yb+AsvkYD5Yeom/XOGMi1aJuVldMIFUQk7BXINsxQtzTAqN4V1uE0QMH9s7soukWYyEbkSis17+vnOyGYre2So0yXlIeXEGPFFJknh+3vz9+/cf5qvd3K3/YwcH0vIMizER+fKpV8cCqan9kU+2o5BtYnw9hXM0kzNHoUlvU/AvRM2/uwfQbcWNeFWIQrFapqgH7JKLbWaiBfyTGvnfKC6GmXcGNauQuVWcuRsqja+4Fyl0a93egZfTRCBqykcgSzLKRzNQHrhjQlDRoXMeuTWDyQNZ9PpHap7Rn5yUhr6emHblp5T/7icZSBb05c/4xelmCdbjzWXBK8Stl3Ynicx4HXiB/fxfmlQNa0zQi4zvSYVITZZomQgTtUKuXFYas/ipu76qgMYGkllKyhy2lFflpLFk9XErS3LO6JiA8VhwZv5UtYJTU6i87fJpQLO900QWRYlBo0O5gQB4gPuD/wz8ERi7YqxwYydBwdbJBv5DmKGQDxVKKhM54Bc+mHfJoI0/jfDE8T8g+EwGfioCzWSZeM0enOYqMjGTTsOuGCmjZPVXxVHogx4xfAcIkzaILJzpD1M2kbld5jKGwCopoty6dfHtSK08rCN3Y7bTqVUKwrL22O0k8msltGm4c14eeXJmpytHxu7yoc+BD7DBPNgqeeQB+4GgTzsPlqhQuNpIRgyrR0KCg/9ls03dRkXrHA6Ydqquo7zu4o83ndeuScnbYr6oNinBHhUbjCVpIjvnOUI6Mqlub/TbG5xYIeejanG73ppeGxFM2gJbubIZrhB5RFKQ6OhYlkGD1CRvvqIiLeMpO0TK9NTXQd+Bq3Yyc6d5gdDTh6KA8eS35dABXcIzTCUx5Khggc5lw5yWsDrxckDrzeHmQjzxPaCTQO3+8rlHcqAK9aaD88qJX7vhHnLUBGvdHwntyGNxLCP7IDjPTi5nQncAuvNND8epM1cYXdTqqQSvbx6w6Rdl1fvnf1AeJRs7X8bJ5oG4NR3aNB7iTnJyok1/hoMdbYWI8y5n0B6zWGx+o6E5R9bUZ7x3kEX6EDFaNICUND3i4YcBQE98hi0jNe6Aj2Qec/LrxgN2gKnqZnUpDl1At6qbVnw5uqV1wi01qI1PU5iJqyFo1iY9EhdX2PlYRtkc0vAhNGH6I7R5G3E0vtd6rhBmXzVJautM+7vO/7mEZBYJQiMkropRV+4pGMLJQVKuxgm3cQydvJtTYf+0HZkYBEhl0mx9JRmw7XOUW608daXjrSGfnLZkz0W57zBgUWR4jMKsZVeuIb5hre3IDFhwVgO9ANkd/IQyQDw+TJtl41kkghPMsGn9IMIWOmMFu5GhULyVB/dSOxCTK1yGvLpdcwOebNMNHDBoI7rqnUmeNEAyeVIO9taXpXTzCgUMZIJmUs+Kp6Qakct8cqmqedzZ+iZBO2jVlbdX7vOrYZb+EzrH0XgNOwX1v4TDF3V7TvlhWje/4gs8dh6h+s5SKYwKxYS+GbumSyI1rC7ky5G7rx+yWDUTetF+CiQjmOh9XfwJ5pGDdgEgokjqk58+vC+3hrvJEw+5XB45YdPmrK/wpGEVpYnm2Qw1BlJV2iue2Q0V/3YOlpLILctoblMdIqcLmUUr9jUtxPj0IvXNB9mWZ2LUp6PBFWR0l/Cpn8hzdDSBFkL13mb9i4TQtbhAe7LkTwR5eVRa3SqWrqA1rF4bOHLns3cs2bukbYGEdftGkvZZ/ObWoE0NTyKjQ8aBALSA+wNbBCvKRwRwhENCpUnam50Y9zF+FyW20q668w9WNvLZF/ASISgHd+X1lrtv47bAml1azN5nPXx/g4TIKvawa6eDonvgct4cpP+K5tGTPsbBkcMuFRSXP7qMQJCYNH4fTxvfmygCXr7laOsn9k08+c1CrAgfANP2Rin9LyOB7/XVUiK+cQjNOTOSZf/56zh6vXu/WXwgDPHD7j0zwg7TIR5kezOno88zyW037mOgZZVRl6FNZTQ5n6zDcLleCpTJ9KNUo340KMTCI8EaJ5IlCsappk9MCywLiZLsZvOeHu/TzqMbGaPDcaiAF9IPpDUpXlta/XJg5TANPmhn2vSL1UJnOiOMeIKSjnMVKrGW2NWcTPcDLfsguQpSElM/evPM9HKPAN4L6yYzql2f4ZXKoJZSIzw4T/w9w5J5qKxCzkY0LT+VpvjhA1f8bljTm0RGYnrBh4TEawnFdli9NVY3WOIviynRIwXJsq/lpK3hycUCpTzviEaQoxaH7bcth6VMHmgdHjivOOPG2JPUEkEGB9YlKCcICMCS5vq2HFzIu3kdR5pyFckC3Hq8aLADK6ZalRqutdBBfcqq0jgkSD0N+fiFbKDdSVKzgAmVyoJDnYrPWpTo41plGgA+nJdW4x9MQk/X47tRyYXNdtns17kVL3dS5LZ0c4BKPoQieuGCQ5a6icK+3tMJXvZzwEZeAx4n38EMIDpTNbs+GqJ6JxYW6wT5QG/TpGP5Sohqypeg/JI4dKo8VcgwBD2RFlKQlab9dCuKY3vzPyDSSjQiL4mWnSspUWk6nUvxWnSGxzll0EjKu6+O6E59rjS9g1VeYScco/6oeacAL4bwlklhJ/OBNvxcP5PqzCBACEoy4xiypuuwGRJQh5V10j5jwo+WOLsao8tQkchLA256TERHDgmQigEsvkPIjU8ZC1mHCxoE2eoNi2RC2SGQsPdLeQCDEW5EDiBQRQs9HaIk2EUU6KtkUFQSnBh5Cq+RWDSpT+IQlp6Hu5aAcgctrODc4YULSF5M38WUb7s0Z0jKQWHkq/A0R3B3096WBUQybiIlPQAvmMLFec7xPmiYpLWygSYLYkqzEyTGjbH3p8y05RqdgZg+kkEtfIVgv63iyK1oVKcv7p170W/IVWVby6+gQA6ab/Nq53tRyGza4GfAHU7DpSwA3sKYX2h5XWiJx08/QHTPc9ttm2QJ0vLFl6n6+MrpKV8sr50DElKZ1R9avIBsZ3rURiZEmsGLF1RGrY/WJ90TKrLC05HEU9AjYGxMXVqLrfh4/rGjQ8aBAO+A+wM7RDijZj6aS7wUMQ/c0XQQgfE0oAqyj7Ehm4Kwtcy4M/anIj7cfURquM+zIHDaCuYx1WpDSwhO9gVz0w4mUSNX4dCNT2UToNqD12wKZUpCRLl59ahVg97YfXpR9q05CzivULJp6IB5h9fRS1qNdQ6woA+opbJCum/QJNN+0shVyCgDt8jKC87LiVE36+XrwxqfbF8wSVx8ke/BXuLJ9l7TnfTjFPbglrrjr3yVXkDQr2osOaS3MLOoyxTDH8uWzsYP42YO+a2cYUs3s3QyA5Z3embGkOARZ1v9Unl33jJxYTvXZl13yQi4u+5oncnWqLI5OEnzjk2npTHkoQwCzH8PfhTphNMoAfI6q9a1vT5c6MalNC9NdqM90vNCaPk7DJ9FpVnfE6FJaqwIqHgcKDHEMu4qkse5Kp4Po3WL5oJGZRqiuwZKZzb/jwy8LHWVTBKRsj4tsSQLfBhJhqQi1bDBbM7cjqPfk6DX7H7zbtZOgaPaqE73kUzQIBZhPdTCG6B584hupgYmuWrIUxpTUJQY0wAA8dJUpfZxkkotqcstM2MQsUTOZ3kWLmeCMNjYx+Ft9feQ11GEdR2i/8YVoes/8lD9/yEhoZEwLmjRJwQAgC6dGVlmkbJjz+TyobsfUOw9P1TCljbHgg5pF+xCu1DHZIlzDGsxZF5lD2+CxwFyNf0Xnfb0vw0/17A46FmaJnLSFdFBYuyi2g2R3ZhdHe3nQ3ZkmMGzypWd0qN1L5p5wMwZzE4jfPIU4iW7nK+UxTBMIkv0MNQPmGk+1laxl4UEP61z8V+POLITqxd8h0xS8+cWGhXXOOhmhE0X/0DSP5davUtFzvgp3iAoFFaLoQ7oUweYWU74hi7vzm7A/a/ZFLaX/s98Nub78/YeGMREm7KuZtCb/Urx7QkERXlYznrBo53jEBzayKSkoOqiV5rK3cA54I1P+BWf8qvzjJKgiWjCWFOoJz5aJtkq2O4sQ8Fv7f2y0qugE6eexdxgIue0kgpSbAsuMJ4SgKA2J3nXw177OCNvJlcuPq53kJksHgShirxxwTVKXrGWkbdcTjKowuISGQH2MaLcauEc6J0NpcqxfAORG7vBp0Lp7MrNu/mZTqS+7Mm4Zsyzd12Ipf8J6CVRXDYI5by7+LT/uOMD/OKGT2JDpIIVt9B+0TTlFgWVPZZ8tBOKMeNm4JHz4+oh6P1XAMCwrQ2kg0UjYFbGnve6XAwLAi5xWA7wjr/pLdVhS7QW4/2lZoPCRm8o9CTAZ7zpwr9ovoE0JuS00Q5cis+jQ8aBASyA+wM8PP5+jZJNtCERerTqG/3x31M9XYSwOdwZfhCgxlELGbNHDziw3ngZPvfjgYtwOYQF4bhjw9DlPcb+I1J+wFFUQayG6qPE1LZf3TA3hYH86N62a0NgMswAjpDUZiqYQXwzD9aZT5SkO16F1wMHxgqmnq9jM2K9BMWPow3Ra7X79FRTP0c3msbtJcTBdPADg9bSUvPU6JroTEflKHAsSGeyAZ36nkV65mBR98J5+0Ym7NSjx7wRfEJzlCPlXU8gtdVork9M9YCWglrVg+W1LScP1lhfMLgvwLv4te1a+Tyi3CI4J9BnB0ifV1tqbwMx+nLI9DLtW43H77lx5GgxYkc4+CtxIcUGSyKa9/XF9xN1KHl8ELiSUZGb4uun2ahAlOzSnRznP28asB4h95aetZRjmSTSCHpQhUwgtln+bI0eyDxApRyNf8Sw+0n18iJJWJWEJtGLtJ+ln+6EmmOyhu6imRSeAG9IKZ7DOyaigeZQJbblSIPjP3KNl+/Rp6Cdrr84BUCNwJ+TloPkDrHp5PqD2u2R1UVptCZtWBoXoVUmcChAGDGcrD/jrlCnG5PxFALYGb6HNXP4LpVOehkLEtp2IdT7WVeNUx69cpMVp92A2gIix+zhdz53vU1auXkmC/Z0coTwSNbHKQkJ1bl0a3vdO/jTMtOX6F8pc6xi6hbtCLThZE+ufYV+VhlQCQvqIwUYeJS0SACohY3e/IO/Q3n6qKOiDaMdtPpXRTBUzosdAwNo+ZNB2EFlUiF1PC/ilvVQCo8oOdxQ92u5fe7yyu0CRa7Ca4icTaMDKcB2oHyl4dTsUf9BVopZ7tKWSNfk0tkcWA7qX34ORqArWeWOEyy/QPrGU8J5GdWOr6j6ojM/A0YSFKpFqCjI9jEfZFs3KfmWLQRHG23n+bK2j0OELBNhFMTHX9iyS27rakBYAQ+ynNHgdmsBp39NfpRkkRpM8N5e2nfIfdL52xvlXdQnBiSp+8/94Re3KujgR0XU/r73d5RGOUqMsgViB4tZ6x01/0JT3jxr7iitOu59fl5BjIO8CEvno7PY+Ak4D3nlhSGTrE4NSgstz+20AmX2ErwJuifcXOQS9deHcr+Gz8wOtM7G8MjKUgs6ZUpDm8DtBOjtz3LwBTrFigGFvHJ2kPORcDvfj3+eH0lRDSabJfJYjVASf7F3pmKeGCSlnHVoxSSYFZRrpDnJ5Zg1Yv7ozPtXxYnWG+aIjKgqDViNDhFrpHrX+aw2prs0JlFVcBLqk85jhNt2g8b932x3RajGAVexSD6jQ8aBAWeA+wNTHM1vooQ2f+JMAh5P4fizzPMjImvqCDd1NKRQOQGDID89tMcQTQhYfBDJHLKncbdc7V20M0l/mtVIVyTEvty8roaBqax8Um1MnU+yn+/l9gbl3u6wdRPzsENfbVcKc59D7thnH3IEs+yhzWCbW5JLDXMoR84qRnEjUe3AAeyPCnY/vsThqbYPwKTc+dtZC3YY78X5+rp8nN9Ld2TNvGI+qr8rQehslntzcWrspze9/8HyUsbYS3vU0Z6Z+mVxMDTV5AQ20V3baZrbVDoUEYLjrNIWszD5swOg+tD/+9B8nNRGJXysuFNIfVBidLx544f9ZOCWkdlWueJIahyqHcPq2gkUe0Li9cthFF1KmHEe5JLi9vTs/RnG1Rtp+kkv2hS3soMt9H12SERIUKKeAwTwO4yNgSCghtYgjJHKSKmfvzwrz+JYwV1b5M8f2H6NRo+UDvBaXx4V26rE6BoXHlxMv+12twRQk7V8fdER+McXk7NVLTIETRBHJ6JMes951zhPnblg482DuXAmAreB4GMSYOiwGl74TLH/HHYRZii7yopHwe6adul8aiuQiSyO+1ztKnPGHKWwaH+ep97Syn8RdOl5KELD9japRr10rH8TG3Dh62KTtsMEf7UZCnwi+FbGOZkFRgMG3/8oLlP/Yt62cBwOBKmjHWSN3zXalkNYUZtDalPlCUPyF4soMPYiJoFEWppEnDFBxNJQ0plaH5aB/0YtK7FhpXhAuy0dvIQ5jO/K21ATt6Du/qYg+gtPJ7fbxByq+nmLiazGuUj4EsGs4joahKg/eILi1H0QemMyaANsHly9AlQ002n0BK0bCXNY8Z7KZGPm8+2IXh2ZGkYKPSmFzm942g9Oyp19hj1kjEv/hbijq6F7SnSLX8o6jn8FLrsM4GveH3HpEenwMtofZd/wqKXq3WpsgZylGgrM6MNg4+yEnuFtezKarPmjZLV8N6vAVYb0i5DF4yycFUEzP5UdBhjSpREMT54BjLT2ihT61AQay/eoVE2K5QyEyeblOPjJyyXxL2Sc+wRQUnBqnjfP8D0L5pPIx1t446GYJ281pso/HLiauqkk6EKErJIDrB9+zQEqxwffNf2ZSec40wl82ulciHCW+ktPT1hzrq3MGjVpDKHuI+kDqJ3tk1CV60YP2kxPQuDInfVMUOzzflesXaJrsB/TZfkQ1aMzM/5qI00gksgZytnhX8hIX+QxOu/23UCuAKys9iU77UxoJqwmUcLvzUWOkRKe1trSJ9MAZbpv8UbfEvh67ZOByWujQ8aBAaSA+wPG5g0gNXY3JTI+gznjewIQItdgkJOLIPYbqe7N+NKQZcPr0VT5Ym9Vyjf/Bc2lv5BNFbt61u7l1TJbsd7U8zAPlcfhcWyAvXNAu/gdXcDpDbl+ebahQEhgeX3Ge6ZPVAuhBRGax4hMTf8oMfegOGC9E6dzepTWnfJ3r2sFsm/v915yC5TMx9AwvQfGcaPT3uDjsWF4kn4Rv9uisPOhG2b+3VXGPtB+UWKNQhHowJyFPc4VspAAooMxVAzakTMfyRErkOHS6BvoKWeV9EEJhmE9g4aOR7usF/tBeTck9c+uKayWWAxsBIgg6Sl2P0nz4dHzE4/gUicxWFIXqDnNR1QGmoffLaPtkYNpCPKI3XKhyhlRMitaY2cTEkhmsHYPpk7VoahfzgnQmxZgnGXX3lOgufPp8fWJTY9scAYSa1BZGMUAchW+M1owL6igDkNW/lwfjsCYxsJaNMUuuguJaes2qsKP5HWjAOwOMguQZ20loix/OQ+xwCB3U6hnM6hFJYhk2UUwopO1Ev16UEelUJ1sz0iCzlLLkowLyp86o0ij2JDiqvbwmsIPSbv07/WByv2aiMsCinQPAPaGarOYIiEqoJ7RH+mV3EzXZse8oAqvpqVQ+KzyioiotmGGsaBSmXD5hekfExAneJ74B0ev50D+Gbz2lCLKiyXeqbbCmWMWlwj9PqxQnRDReof/UxWMtcDhccOsDFMbUX6i+2c+8Rj3o9DEJNuu1fAX7pYx+0poUdLMIa+164ztfCgIpfzmnsB5Zuv/op/gMaHlnq/sMl4G/P41nDk47MLmtKp7GgCsjoWgfmiJ/Qn+ZmLM6lPup7HEa/58LGZFB+PHsnfAoOUYxSjgYmo1yS2v5C1t4XVmeP5+dX5M6/4629pzwi4tFqeXUitQ/fe32bQBm5aX9O7Yj7aTIL7YzycGie1sM1Wg8PmSCReV+a5IorOoJLJi2dJnCcvmGOdShqpSXUUqE8xzDlOrdSQYzq864Rr+ljLCTBqi+7V/wXUQPTa9vnQnSFKKhaFLw6S0FvYnel3ec8N3GTa0WI+G/XhrrgQr3q8IV296vzOa4NERDgDEmXtpKO7LO8aXH5Xifo06G6rRPAjP/5dVue+WhL2GpdtkWvDpU7tzDLixVIdIAsPaoSIP8wtv3aDbLdyMjavOOXcc0yA9nP2uWeUAhiPF2eJuYAygvajriO1cLUUdhd+OUBlJOJGvG9iwajAPxmjdWlbGSCzFQr1eDkY7g74ESYxZDq+axN+rIBWNTInH9ZV+VMbRURmjQ8aBAeCA+wPJAuywZfcKTGWHDRtUHu2Xx+dgVNWynMZ+lpBFeHUqU2pL36x2VtcDGsxcgngjrxjtKKLwVmz3pqtZAtcLyfNVvBlZAmEB3EpbOPUsppQniBhOZ4jiXBTx0futjwc0NJM9jIeM5WIos723FCPoVW6AHzm99EUQCa9gclyRI9rpqi1zuMi3W9m+280FmYHSJNmAeO8iMc92UnhXkabNY3i+WJ8SDzelp5QrjrxrpyQqg/clnbm0uFrfvjXZm5KRUv0PAZvFbjWXq25QK4n//AjQJRPxTXkjEQkTRU84aDqg5eq/J+F9w8r17J1AfkHCztR5lcXqcDGKbo/R2qoLEUo90XEADpMRWE83xl5DKLTx9mceMJ2FGshGb9Lclnobfk5VMbilc5Vph0eqsOBKKyZtD/7zRReGtQy1o7HdlizmCbGxdP6lZKtWAYqlCVmZfQXHwJ1gszHZxEeI1fD222pf2OxVFnfJEfrZE4AW7TvBiw5vyaXpdSzhuw5r2xAP7RQmf0r3aM4teNJ+bvvdQ44qKRMzp0yrb1YExD3GodBDW8IZ6M4VDGDPSA5Yt7IKp9nKYelaTs4tRp1qmedRVthgRLB/vMNwP6+gtH+9tjnUvgs7ZTmrgWswQcmdEH5qfzwolAZ3W/NiUyr2cGQ+klDROT+drfLu6STE0Vmsg0xeWyw9MjS0r5GUQQz2TYYIj28lMr38jjFwA6bd6IeD5JxrQ0uGAGbjLAV3jDvSaXhUVQoM0K0CZGJJ+bW3PfsWRtk0/k2excuwNIT19j5g2WHNOcG2CBR5dZ02R9bLD+qwEJbVkZftAbBmag0lG9PplbR1j3aSL/ztjYz2/G0lRBTHr9PHShsFjNZOZf2C3f7lzZSQahVTygI2pU2Ve2HUkdbiZHNVtoTOY7FdnQkJZfx1M+5krO4IvNRmhsRhDr3tqzTu0xfgFHthUit3W8z/k3DiIXXoCeGRybJgfaY9dDybGWhFq4svHHCpLpecN+HX1xm4WcsNOxq7nrpjm3F7HL6OLPXcLVuFuuU8gHkxIx8rS+TWithigfInBenkqJpkngpsRI1+CHGxgO+fGe7HnVAU3W9wb4b1z04ltFd1o3CsvDMEd8sJEiu+ZySu1pMCkvlrEdiCgz8ERsTndsKnU1Co+7s1jB+UtuhvG1S/Ree2SDsHwEaG7M4LrCSVywrGX3PQPOpP94HLFG9gMfapQvh80/dzvJbTW+t21smHCChZEFD/7BIhnTWxEGEktY7MKQzHs58HzPQtz+sGVGsHuMejQ8aBAhyA+wNTcfaHrq/a7+yHw1L9WWt04GBPoLapP3eACdcIGW+Od4vzwFR/Qpr1k1uephTSJ0WqU4chVCGihNCD4lFrJdtXWO6ps+EJXvACw9cTg8TRcDylU/mUlslVcC9+HfYYkixgpMSlSGHUdtuxt25QM31fcnS4F/Nw4rYF3y159y/StS54qMkOWd+57DAgTcv8LHXr4YjLlHRmRmDe9i+KxNGJ2q9CT65e5zOMsdMyNxnqwwzMLliZ2BImOgopnZJKtWprRWDtL3EUCX+nY6OMOKc2tq8WYaIFBJRQ/t5O9fXHZEi2J+tVIUIll9mLgZSGJ5YCgyxmzfY+N1f8ZYDeoMCe1Fp2Ivb2TrrFqRyQudm/E5BFp8ORz+DWykpJfI1ak5Mr2qCqc+/VSWVeY02p1HVpvPQ6BmdCtV5ey6aztJ+PfEOKNOoLtKP3MGCPaUFOUvGLwYWfempdegm5emzlVjRstZXPjK1eEDo63wczTRFzRr6FljZ+ACe6Yssv1p9h/3GwIKH0b8jn7/DtDuYLE3EnHTHPQym9IiegfGL0R/qMwVow4EFFSwhzpeYrA3iw8+n9pdY4MROeTaEJMzoD1octTH6q4v973LzKaebnfRvqxW3ncR06fVArPNVEvir+aEbSM6pHp0z6p+DKmwqKxzcWTTPfbEyRw09mD1GqRLcFf4U1m4csVVMTpoA/asAsmthyOxKPJH8Aekbes2I/emA24PMNYdttfeWaBkyqFKVB27cNGDgeLz3bwylwyzGPPOwqodUmCEXBaw2snAtkz+NZktIX+8i7LhajGvnzZIrrRVgweaKe8YEkNR0LeC8LdifL7gaQdtenDdQv2mRMuCiqrsZgoKSDxUHE+YEDUFlq1wYugzdAR6kRHoLlEduriqh2pgnZYsi7LZzpbV9A1bXXXPTo/UxS3Ah65rgk/LU06mCX5UH8WlnxGOIWOiXuohiAefu3t7XSL5gmeC4fDF2uB29/dLheNxFuZiEHzmoT2jpSR/aCfrUKIGHRhuAlDgWd02fi3pBrTHAEm+WS4DvSBytT7aQq4Q00vyxAi7IM1fV7/Bdn8AEAogQLyeMYOgUcXXmTqXufZSzcyRuit9Ok0LvkgSGVaDNaofYEfYoQo1bm7abKn30wTXoMEUhRZoJ2kfgQkcvudEx0thzS02kdTjXd05wSSfIPBT5tjuk+PHqlTRTioR0lLEY7f3Iw+Fm/dxpRiJWYNuHfXCgiQzmvu0QOM4xZGjz4h7uzxEGIVzZv30zQG8ugZutysVN1hEajREmBAleA+4P/Kf4bd1WNnTX90QSutdEoHxWQsWHkhC+yqZ6J0Dl3HZZ+hiHPirRB0p5j3epyRw8UlhO6klr08EvjWvncsjcSnURU1PSzh59oy7Rwm35COv1itlLJWfCT0VSBfalXRd1I2LBp4Cx0tnlHbCNSrrujJs6tt20yMuxJql3DV2/s+oAIhYjhk1srIqp82ve7FTrACo0n2cckAExyfkz0fZFRPDDqyh1l9vJ6uerZ7m6Q340m/3Zsaudfchr+VyzhgJszMUbbFa2h95KC/yaWsnnBM4bUawesLYHor/JNpKPTjEembkl9MSv7Ul4iY7lsFsG+cusROpqQCdxPfK4G5zGBcusTZLCfMFnE/GIAtEHgt9df3w5uLm8cvjHaYI+CwGtAtiGloDp2ytF517zmaRCn2UnN2/p2lLEr045O3MDrjwsYE/GLtnK71YbmCxfGXGXGl07wDF5HkGnJ2wB5bwDHcFUemY/tNfPtzeQQi3Vd2blsB7ahbhRYZIPjmwmOflEnXvZzvbwCRou9qmaVhkM4J3h1+ZBAPRHqJ/6LYDN/pU0nH/M7jn8+NTlG9jUsHxje0Gc+Sx5A2H+P8bwYYMmZimLkHQTLRsvGbPWWwHmyQ7stlc6jlxPx5qnjcIsHC3EPWHJdVQeIIauYgN31fVtbfVo5ZDzP41seWM33jfk/oDHSKNY2vxeMaRDxCwNKy4ulYSdFjGhGV6bIY26/uIGgoxfdY9+PNVBOq1IEpmoVvOFCJ0b2DSObXtpn0wiJ4klwWrSvS0XA4q8IaZWJ/atyKUhWrtueFXDKjkktimuZbK83fVLRn6Ktl8OJhwBgqKtje5dh1Dsr0GDyiamm3sTUKuen93m2/y7KLfsDfsreRjQkzFfIVJDxCDuL+qgiSxkPGw5dEypJona2hFN6IY7HGcGv6gFqRqpjBh5wTFhoFzzqA2mYzz4BxLYzizREDmflrAnvKFlS/ebpsaz6MHNJ6DbJEJ8xdTvqCPwPQw8Ac4oYJkXfTn+xkWIN70OTTd5CcdoYUrQFCJF9tRFP+GdO6hHOWVHNSoLOiaoh4dvgMXbQW2GzgCGtcI5m8H/eqZil7lv1c0PTZXbT2xRpTv9Sah4M5ebRjiS/khiBmcraTBlVJ8b/C52YZVy3bXzHzPzvxdodWAv35jJL+joay4Z5UCwLQbbxkzZAeE1xaDvFTb/P3pIE7y72TtWu1/EvJ6Xrhc4sIfEAtDS9n8Ha2nu19yl87Pur0txF1Mnduegef2Xcc4bDu+OTNJlDt9ZAdkbAMY0Ph2JldXqH5PivOrVgHOBKFYDauLapLXov4rlwzgrCptWa92LyB5Cx01PQlMk3wZCqeVAoYEpFRfQkvRhEQbMJqBvw3KHhzGMFO9f5Y6jg4klyXN2WE86T9zFVrAfy+ZBNgE6U1Nr6Bq/iEWxycgl85kWJf5QWeoFNqYHtBdsVNaNDqYEClID7g/8N/w0PxzIiUGSj9LXPivTuX9gfKaaMlD3aJ7r8n2hJs0pw/U4ygmpYJMv8EIA5/t131Q1m3oLoswohcTRNpTa3wAl1PKzHmNAOleCCExU2Wwas4ZmCc7b/2dmoQHWlwdMCS1+GI/bH7r0MLAjBMiRMA0dh53xIgR7Z9Y3X8r8k5QBvCdd/GMPdxPl04eYxiauaj9huYi/Y+JN/6OCCFKX4d7uiOle07CWyUEo40ZuehT9UL99Sw71MBRKOa8+hj2J3p/kb/WyjM5MbFuonVAoFXW5rH+XD2lC8qn2TgFbuAKpYkEhv53mef/UaOEbY4A6lj+JBWwrmtOuvB6tS/BGr/GGmBEetFBgUDYqz1CnW5innu4oQy16qfNgehiNySdf0qMzPea/9NYm6WFmI+YjrVLUVNI4SBfm/yi8Sp98QUJljirIljqtqw9g/eITDOBbIGBJhB1UbDnkkWEkT88w1Sn2M/quIrGrGbHzyMSvr8aScGNAQB1tBPzESfzcyJA7f9SxjzVuW1HXZD+57I+xM7bGPp4q0EjvF7oYrNg8QnxpJV681JPlYfv6msPGPtu4cJ3+DAqNFjpzCjJkGckVs4kWljrLPcdBFeitwmOYXVYKXCUn9S5K2TLr79uUC7BySNTvjPqqhWVKK2mS6lLp82tXhOC7OxXBABIGirMhiEtG/S26cqVNdqKbjZaIncOmh35jjPyAN/WazuiDMGDKCcnQLlvLkWNoiQiEXzP2gG8GiGXBiewsREkt5Wdv+ih0c7Iahy5k3NMTfBfr6ZpSOgJKI1nqaI/zvhuG+tuEPJvDttrOAeTPb+sEEG3nk5RjpZNR/Sevr0SE4/AysGD3VhR0JYuh6oFAFum59mApnyZg/lOroDQirAGrocEExm88dPWrrOgZK/4mtxF0/sAKSVa1i2L6kqhbWgDkpGM0eF+mhJK9wGzd+fP3bGghYH22AW7+mltrt+CGyG68As59ca/SFTYGSWUAY8ivcF6Y0/05/3pZjaYe+pMOIn8aeqMGNTvHnZ/afjMAM0qCAqeS5g9NLTJthETYEtSoSxoEpl2nfjRtV2uQu9Q7VtI9Oox3O6Q94P37Rn2IySxH16N2wq6b3KPhwY2zCOEY3K5Ix4TtKhvLp7mNlEyk8+9blyqISa01p0PAA0U3Axs0qYJjnAzV0XRwJjsAcva2M8ObAqjsZBMn3VYM3NSdIFUzB7Fm/PtDDdxfZtTWGoeWWkVwKEkGjQ6uBAs+A+4P+Dv4OwsfOjbg2JJA12qX0hS1lfyr6oP9rd6DQuzqLhRImbJ44hQfLTyNSFufKbD7MLjYAgryNPyY295qZWFd9oyu7Cie+geCORcUdMjX1enqxgCnrCae15PXdUWZyg7UttuAtYdindzzF1wabiGLAcD55DbgTPZBEQ0vIwB/mWIbvKwFF4RdMvXmVUQpXM0lfdLBIwTioHUjlFv4rTuaSRWwHm3Uk0zwjQgv6JbpF3XYSZmKKmcw/x3Djyo5sdfnAxv+7QWV0ZaUP4uFqYeVE98F+Gn4zHNG0VOci6eBWP98pvAr/CPZSXpTXmU1qBAWmw5xmr0jobp0JKj+0rgE9MX/HWbxFrAIB61vQtjxb8bGNzuB93G8R74UG/LocS9ecJgEg18CT3cwORFiBvN0aSF+AaG4I+/RyQa8QX07BjbCiLhnn7AuuCezsO0CF0kpOrYhjeAWYYSW5qNIBEt8Vwlxuhff29wtJwcM1LnPIRCMWgiZXxx1jzXwjDa8AxuMwkiv0E72au44oe7D/bajeoc9eFXlOPD6GFNih9HtkNuEsRDxMlMGxPUx59oNBeGHfmQwgldXx2Nv/FUmRjonAOZCSdjvAQe0TWDR5yJfq1FH2ks9xYtNIQwRAl57kk6UHQSMeFcXdOMFtYbos630MZqwaeP+hoKVezykAGGmmhiBCUNC8YCTR+2UmxpVJ70EiB2/BjO70Uq9lgmJlq99UMcHv1kp/qyaH5aY/iGr5/IZgJfXGRRYrb7yjt0+s0VzvSghiRikE9OsjTXiAbPat3dM4/evOl2HtFFei09wi3Bll3QWhitqFZFsaBAhejIWrfQmJcuUhuL+AewcaTKvURQ+YstLP/6R1uhRu14FmYoHANvA7EqcyInJhOHtZzqT4kcHAckQU1yFju0EgABSNfprag43kwc5XGu8pzm31BJJC0oon6+GKC8+j+jKkOF7+yvAw7SPT5JCGMSyfHId+y7bmQRzxEbM1jWnmdRCMAZ3ZpIVUTuSranG/djWEMaytoSE0VH6LTg3IaTQBnQSwJqP1qsmxUlfLEYygaKieQYmUD/aN16iXdmIFfXzn5cQtHiwyKxCfQRi+4QDfVfRmFt3CiYsnaWL7Ou6JGErEjrFXBKWXW1dQgX3Z1WU7LTyOH22TGpxDKkWkm7Dw+FeRSKMFln4vlKQwfbnNE7pp/IUzX0F81RYC7VLw2PgciuleggEmbkc6wABN3g+m/ugUkG1vjIGjQ6KBAwyA+4P9Dv0NDGnrjRRhXQ7CEqmK0OIT5hzfJJ4S0S6LcyTM5MqorsQA77Ev3rUc2fP4gktAGLruyOfQ9IsEvnkKS+Hq/rEBA47hSkzjkipySBb52N77g72DSfPp4uHkgnpeIHpcsjPOxgfEm02+LvIR1otSJ2TITlKCk5K8Wlqrs5/E8l53OL1ofc26/lMVLQoLooKvIgYqi/EipbrVFNCbSfvH2mt6kobg2NI/sWGfycjLTm6SVEOUsvcqbLKzHgzAScUDA80HD+Yz3ps06TNUT0YXFBauCzvDHc4Ja1unQgA6R51ej7V74ZlSBw+gq5lLkcx9tPEmzwoSVo9Wk3otlj65sAv5UfISIVSwbQbrLSsCVp95LWZLklPgDrFnWltQlf1qEeglp7qRjPmIIustCtC/JCf6ch5UBIG7BNcEoyabeHqUeyLGnzB2eP3AR18k65+BviLP47vuMm9Xcr4sPGXMqOvQtXMIT1aqvaR8i3LEm17d0CCY6/DUlT6EVnWtAJ8bkrNj8BQD9xzsuaz43lw2g3XNPG+omXF9W6hhc5E1kHn1E2dKzgURGQWHsPyKzVkKXmHL/oG6UDwnKnMY71TUBVQxs9bi6E76+D/QpqPr9m8wfHjts+X/KXPELRRsIkZ2tsfnW1MvfNFFFkiVDbSOJE6j1SI26P/qtwltYzCk1wQAJGxigBl9wpBOsqctt2jltvfRg+/jbfNCFVg4kXMAYmmcQ7erF4HyhJxRGD2A+3LqQd4xHgHqPRkmZIPJt1Al0TXG6hWzVk+xrBNyECVV76XMzgrV2fCn0D3CTEsKDAqwGF6wql9ImIQEzhFMv6VaThlEb4Hf97d6C05OMnuFiYJN+C68I2dp1JM7w/CQmvkJ5CFaJ9Bq69JKGdp7Mgk6MtuGW0EWTc9pC8jW8oJTddYblT1JuU1pY9QB6UbKENIhg8kSz5aFhadlOmsxXeusnjONjGJBnumrFZ/aG7mWN6FHnty5n98CFFBq9LcFbZccPMeZbtCMWl+kEJTkh3YsxHvDcXpp9HA25lE8EhsCiHrCuFAhPuLc49QXL+HNB60Ua2RwOaLcKu04UKg7kG3C2sChIUnHGDaWYJOKW++CzNQvzxgeXNEdTciA3epOAgSc5/keE/IylUcWiJ7izsanm+GWMViagsk7QQODBNcnY0M4h2FYR5cN2oeXNQ8a9Al9koYRCqr5mBZpttygLj1u6AQ3dl8KkZNa5HKjQ7OBA0iA+4P8Dv0OPuAoKzW70p+RKdIzm/CIiX2HqCV9lChbkLXD4NL49ffbMJfVWqCY8CBSE2mpTM4sSn0nebqtlm1XjfWjmA3mMY1+xIP+/Pt3JidlaHZ01qFRC7ffWjbDj+43gg1oHWHeo7vHz2l8YxFoATkWmd/0YuxO9BX2f2dA2HSLVRt4MMd9ulDx4EssCXum0ZwlMEyo9VaP9EqnE8S9lzJ81huqPjujuaop0QQb8IuydyTXEM5YFY3V3hl85binuQ0YuJprRVEQ1HGU5y5TGPAcFtHGxKzBs4NoFbOvN93FLJVomo7PK9pXLztYqn/hxORQ3JuuqyP1O0rrv8m2UP2w9t9kz3A3QMPpk65NuE8CiC/GazogJQ7LF8PIdTMjzIxrG0nYjvwwCrJsUs0BXdb8vZFde3jdhYuwQGSxVkQMuPSD+iDxOMHQnGU6F+3rwsYyY0pWWnltHQqo+le2mAUgWiQq6tFjMiNV4U2tQdP2a2pZXrOq5QA9WUI2r06OY0rPE0Ec2RoG5EHLONbOvyP96LoAttECWLIhVa8zJ9Tg8eD3q2okwJ7FQt9sp2bUnM1M6Fq0gKg+su9SMZR+MJykgm3lFPu/MeOYT/my8VVzc2J11rbfZcglaGNPi9PB+iye/RhHIVFSQ/s73b5cq4yT14b9glQqqukUfyI1sBoxQiiGyB8E7/+RIbHnxXU6yWml8mrqQ+iSlRqXTdnx/bim6m7hJHFNY/V9VLcE2Y5TfOFz48FV/PUzMYx1jJNIJzlJWPMKqciE3MVtTSkFUu8PKTHE0aJf/PoFaF15LskybFbjCxGOkDhGQhUrPQEd775TJ+OwpSncYQsZdo+n10oQH0Z/jCvkjHsPl3HRsl2UQgf/DHy/dGZW9Xd/c19H9He1sjQFLvsXas0bAvaFG89NQ6qUIHpkZ7Ef4uTVlQ/PBUw6k0ibNiigHsC2cgU363ce7CfZDbvIESRR95GdaUrY9QujOQW5qWaQNLn7W+9E+RcGGhuymCK3Q64TghxZu3+ZyH9BABMYvGk2RG/W44RbR3gaIyPkpgr6evILb2U2eVv7tfz303Fm7x7oBccYC3fgf0Qp+oDRgcK+IXeEuDxJWsfHCuhU1rDfDeopW+zDe8la6nAckyjS4ONYnIaktVvb+BGSiHvqx7r2CnmkgLlzjOtTnbBwlmA6IqrE3g36IvTlqZejjVwOUw4jVUc1MQXIIlK0t3iHTpVopLT1ctKFXSiZHLLE0HIbd465EqNDxoEDhID7A8LNOvMKew04LBEnOGO4XSYxlKggtCn34sck4O2uXirZgLv7mUxy44lr8w1meRwWxMIaZUvyKC14/wdESEE+TWHFSZqmgbwgQLYhLO8kJ4JMKXqri78aroUagDg8S5Xwgpav/VISYhkSLoDvhzLYy9GMJIw6n//LHcJJlTIs3M8HEnjiVPYblv1h7C5ImdwtYlZEQmGVM/Za3ZPpItg6T4qUK/oxQ6rFLaIPUqvrLIHTyhgXRpuJ4hqGPmqVhtJnak3HXPCGBexGjmazoTIlKWvWCDT5CbHhEYVKCXFYYLEi7stx47f5SP04mxECpxE4ztbEvNx0YD8smwBdSkSD2LxVewL0KRsktTDJl6syBHxbZ/2JGkcnRrlZJfey16NVfWibRcnfrrdULvlfdBF5UQukwplVIbpvoy32Ks/8P33rJGXdvcMFqjhK2wD4pX91pQq3eDO+JvxkoL8mRvpiSVoQ0E/ViwQc55XlOc8tnMY6bjeTR6y5V1rWwiGa2bYYNmSQZHmFm+8FUQNYqV2cHP3lYwbybRhUA6gHD3AR0RJXLyA69G3hrOH9QcM1GGBvQCgxYjXXBTkVQ4VYhsHhOWfVrCfwIBpAqAqJYP59PPCSkC8KuIt9w8eqWxv2zqzNQPHE5/obDzLgU0h7M5XU2SE4mYbEbFFXFeycCjv3vW6TMhBKCxeJm+1AZuvFEYyASLK3jUv1rqiS9qZObTc6IhIme8wZVwTCuw9UJbeDQSLynNRPCcCW2uWujwZS70PcydKvm56mOBE/gSiQhNKYwa56QC3ewvtZednLNaqlZRR8VgVfTAyqrNGmB32y6m1aev5byK8ZrDZq2cS1Tm5OliwMPvQ4X/r1fjVShtB8i6Ol8syhqIAzTQHzak9zLlVYVSxXNfFPfstESdKFLX/FIktnXF/f+E7GES1L99uxG8ZXLHWxjyLReisTV+vd7dKpKLdED3ZIhfdWVB3zW62H4K8tl1FSp2wTd5fERgBi4TVU9gYgLfdUHWZWza/1Pd57O9SQvj/DwRRCmXfSYKFbYUFFzE/LvqrDSH/aiPRx/Fh39FHh2oXCl0mhETOI4E6uvOqqq57y+BQ+U85n8Tbli9Ec7Gzlcfd23NC4dZREDD0vVzZBhFTZ1ZZ1TtgQg7m7ELeXvq3/p34qmVG4gtIw75QcQhqd27IARQPUKZ3qimelR5edlqkwqAJmIQjEwwa13F5nw/Ftj5ZJBteZ1yGhUG1ygvtUltVwga2p5583vC2Vqk/6946NVQcjjfW3h78zJKNDxoEDwID7AwzjFkuCYguYtaE2L6m4Pr3m7AaNrqWqSCd32qkQChZc4n3IsZpxeicyv7XwYf6kVFELPfH7LOfa5boNa0xq9OYgpwLR5UEiXepNNLFMkmykBWEMO+u8LU93wjYFej+0CNr4zxBf2Bj1qRECYyxi3ilJV8JfRjj01qZQwOEd7q/1ETCxDq3c/EMxN1s5lLjBUSosszrja5gfCZdsktZBYALjQQUzMA0xZdtjOt1yeReZ2BV/Iv+dxqjEpVzaENndNHTIKYaw5o3mWlQuqYqZ/kcQEhYBIzgT/tMn83uSrFNsS9PkolT7+Xqb8RGbtbZqzpxN1mxjyo9GQ54Y85sgSnLdd68+p3YVB0HZ51PkAw47gbXVWuma+C0m8xhpQE8qKp3q/mlkWWDr3X7uglI8QliehHtTdu49dSKihjEZw9NFIhO0avF5Iz6UpPdmdRcFoNB6bf87Sp+ieJn+pFQTg029Q9LtApQsyzG5S3D4o5CJKcZvsFAUCxvYYHT9VeRUxX2e59hvLnsLH/JAb24ik2uuQlYyBErJnm0A/8D9DlckZfzhaOa67Kp0nptIlCfxbFC4C5lEkuapZkrgMvjHCWkPIFVDcRyAv6AApSPKroXD+kT2ykQu1mcpOEAeQ7bras4PKnK7uElqF66I2dFswMqswvvs+e2PKyEFzsaaX7PecDEx9LPyobaUABXEZii8/hRJfAUrtm+UBIFdOea73UQ5CjQ8vClLyqJCAixOopAfajPvZp9vqSpH3hcQZOsKHNzJnfc7dkwCGh2hdlty5QTX6WpFXZ2oWz62QH4STrDW+sek2Py/ubHWWjLOYWwCvtfW06Rh7EG6EXe/cxVLnw+wbfHVSj3jEf/ilSsKv2OVpEAXvTosnP9X0w20dZ7BvGgYeuGYhZ+impWfEWYF3epyM09g+F8qlgHEvTfxMbYd2slrpf04JPt5k/kVvN8rT2AlAhajcbKc4DHWM6EXNV+L+uqPd/wl0vWsd5N5gqqNGgjKPRKrkQwLevhir1ip7ozn6jj5veWluQZgWYTjBxGJVondhWniKB2LPqgPvkvknRafX93yIsbz6cx9t6r2F1BVOi4rC9Y8MGWkY7nj4blidKkczgLHvhjXgYrG/3L1qOURKqx1uUHGf43/Cm6EtbKgnqPDM+ZG2EpD4gi+NNyPMtYrhHwcSVxpv5YISPVdi7jA+Cm6tqcQixLpvwDiwLxlnPasF9jBMi4N7vrU0MYhBPfLxUl8OqKKOCjthClbYEV8Oh2/2b3tIlMvvOVE56NDxoED+4D7A7GxdtJz/fIa9VD/oHSkZWT3M7xpl7YvrcZpjlJ4E5n+EboeCvqFRv3+OyHzjpypK2DFDk+vDKxelhu8EWzu2L8byS6sEPqtbRWTByCxwEnlh4Hn1+ACyYZdSfbaTWkUjYlPv8xEkoatwNpvqfG4cHI0byfikmPSlMePDT8S/Dtow9XyNo04H0c6evQ6Adm0UZvpdkZHelE4aVWrUPIeFGC/yig9aQVwr+ZwVzBxwODYjXaV4o6Cyx99cAEEcE26sHQVtPvUirsyp+J9MxFWYiuZrbrcHX8WkGQZL0ZpROdkyPa6WUpjBRoDvQgaoffMF7XjQOvLDU3/4wBjKIPTx70RHBpkuBARdnO1QS+T93kvtEynYZyYRjBZCNnz2Eb+OeIMfANOREPF8zRGc/8xX3Zuv14F8zrN4ES4gJ2d1Vjkrjr7LBTcHq5l0DNqBY9GBa4FjJdGtnEPb/gV6dWTIymhNluWccTg8Lcv1FH6ZbehO8LGZZ00vHR20WyMWWAfrV6n4gZ33HhRqtZJg0MteSpodPCsLusPL0CqO0XwX3Rh7nmKCZ1FL+UEdESGkN1FRMHVXELVuTOpqSZh8d/rVVnzbViWxccnxQwN02jiroTlYFO/Fe5bizSEmgVeurnoaCi9ZU0eHgNCP219x1w3SmttWyOYg6WyoTD19un11QBw4WoDt/uco7hTnSq4Hw3c8f04KeaKNTOIgeUP0a5eQxalB1+N9emYbPzTOCyQ5ihpMXUros8Of5fvQ7PWPIjIAb6pYg4JP4TEg1AcKtTgQSsDe79xCiEBiay8Lk2tIuDN4g5UaaSuWVl3CNoG16wG6xwCWdRF5Cj/K9E3Z5g+buAE56J40etOO99xLVkeHqbx3ePC1cuSQ6e1+tlqa1jt4ODDCF8J3y1twymb6FNY+6z1hfVmvSBNHYSfe/swQmIZxoVB5u3u0hGpoRbl7dJtFf0cXYs9h0DFGC5I5GTl/mqeNTlYWQiLEW90L52RUBQ8a0Og3M9hYD1eaftJCelY6q/6IcR6t2svOfq13oG8CCn+DPZlpIk/lfSBoibehJ65YdCyDHMa2Og0ynBvy7L9UGBIkyrrJ5fe3y2LMwzHfYoSzYDvpksW8s5Z6uj7QUfNF1Al7NDMug94S2BFrR6Y1uW3OWzkiZVGW/pyoOEuPtiW5KVqYdYTOn3RxsQiBsp9fWqlKwzUvnPB+DN78s6zUtAi32UkIBhtfveZ1i6LxZsDe/HWUeX3BuJgBxdfLM/bq2w7o47V2b4Amp3An9pD7g==","3"
"","","","","","survey-text","81","220831","0.0-12.0","owhpwuu5tnjup3p","owhpwuu5tnjup3p-2024-03-20-17-35-31","7854","","","","{""Q0"":""MALE"",""Q1"":""22""}",""
"","","","","","instructions","82","228410","0.0-13.0","owhpwuu5tnjup3p","owhpwuu5tnjup3p-2024-03-20-17-35-31","7574","","[{""page_index"":0,""viewing_time"":7573}]","","",""
"","","","","","survey-text","83","232047","0.0-14.0","owhpwuu5tnjup3p","owhpwuu5tnjup3p-2024-03-20-17-35-31","3627","","","","{""Q0"":""AJFHBG897""}",""
