"success","timeout","failed_images","failed_audio","failed_video","trial_type","trial_index","time_elapsed","internal_node_id","view_history","rt","stimulus","response","firstImageNumber","secondImageNumber","response_made","stimulus_type"
"true","false","[]","[]","[]","preload","0","12637","0.0-0.0","","","","","","","",""
"","","","","","instructions","1","135685","0.0-1.0","[{""page_index"":0,""viewing_time"":123046}]","123046","","","","","",""
"","","","","","html-button-response","2","145997","0.0-2.0","","10308","
        <div style=""display: flex; justify-content: center; align-items: center;"">
          <div style=""text-align: center; margin-right: 20px;"">
            <p style=""font-size: 24px; font-weight: bold;"">Event 1</p>
            <img src=""images/instructions/1.png"" style=""width: 300px; height: auto;"">
          </div>
          <div style=""text-align: center; margin-left: 20px;"">
            <p style=""font-size: 24px; font-weight: bold;"">Event 2</p>
            <img src=""images/instructions/2.png"" style=""width: 300px; height: auto;"">
          </div>
        </div>
        <p style=""text-align: center; margin-top: 20px;"">Does Event 1 lead to Event 2?</p>","0","","","",""
"","","","","","html-button-response","3","147365","0.0-3.0","","1366","
        <div style=""display: flex; justify-content: center; align-items: center;"">
          <div style=""text-align: center; margin-right: 20px;"">
            <p style=""font-size: 24px; font-weight: bold;"">Event 1</p>
            <img src=""images/instructions/1.png"" style=""width: 300px; height: auto;"">
          </div>
          <div style=""text-align: center; margin-left: 20px;"">
            <p style=""font-size: 24px; font-weight: bold;"">Event 2</p>
            <img src=""images/instructions/2.png"" style=""width: 300px; height: auto;"">
          </div>
        </div>
        <h2>Correct Answer</h2>
        <p>The correct answer is: <strong>Event 1 leads to Event 2</strong>.</p>
        <p>Click ""Next"" to proceed to the next example.</p>","0","","","",""
"","","","","","html-button-response","4","152750","0.0-4.0","","5381","
        <div style=""display: flex; justify-content: center; align-items: center;"">
          <div style=""text-align: center; margin-right: 20px;"">
            <p style=""font-size: 24px; font-weight: bold;"">Event 1</p>
            <img src=""images/instructions/2.png"" style=""width: 300px; height: auto;"">
          </div>
          <div style=""text-align: center; margin-left: 20px;"">
            <p style=""font-size: 24px; font-weight: bold;"">Event 2</p>
            <img src=""images/instructions/1.png"" style=""width: 300px; height: auto;"">
          </div>
        </div>
        <p style=""text-align: center; margin-top: 20px;"">Does Event 1 lead to Event 2?</p>","1","","","",""
"","","","","","html-button-response","5","153894","0.0-5.0","","1143","
        <div style=""display: flex; justify-content: center; align-items: center;"">
          <div style=""text-align: center; margin-right: 20px;"">
            <p style=""font-size: 24px; font-weight: bold;"">Event 1</p>
            <img src=""images/instructions/2.png"" style=""width: 300px; height: auto;"">
          </div>
          <div style=""text-align: center; margin-left: 20px;"">
            <p style=""font-size: 24px; font-weight: bold;"">Event 2</p>
            <img src=""images/instructions/1.png"" style=""width: 300px; height: auto;"">
          </div>
        </div>
        <h2>Correct Answer</h2>
        <p>The correct answer is: <strong>Event 2 leads to Event 1</strong>.</p>
        <p>Click ""Next"" to proceed to the next example.</p>","0","","","",""
"","","","","","html-button-response","6","159788","0.0-6.0","","5893","
        <div style=""display: flex; justify-content: center; align-items: center;"">
          <div style=""text-align: center; margin-right: 20px;"">
            <p style=""font-size: 24px; font-weight: bold;"">Event 1</p>
            <img src=""images/instructions/5.png"" style=""width: 300px; height: auto;"">
          </div>
          <div style=""text-align: center; margin-left: 20px;"">
            <p style=""font-size: 24px; font-weight: bold;"">Event 2</p>
            <img src=""images/instructions/6.png"" style=""width: 300px; height: auto;"">
          </div>
        </div>
        <p style=""text-align: center; margin-top: 20px;"">Does Event 1 lead to Event 2?</p>","2","","","",""
"","","","","","html-button-response","7","160846","0.0-7.0","","1054","
        <div style=""display: flex; justify-content: center; align-items: center;"">
          <div style=""text-align: center; margin-right: 20px;"">
            <p style=""font-size: 24px; font-weight: bold;"">Event 1</p>
            <img src=""images/instructions/5.png"" style=""width: 300px; height: auto;"">
          </div>
          <div style=""text-align: center; margin-left: 20px;"">
            <p style=""font-size: 24px; font-weight: bold;"">Event 2</p>
            <img src=""images/instructions/6.png"" style=""width: 300px; height: auto;"">
          </div>
        </div>
        <h2>Correct Answer</h2>
        <p>The correct answer is: <strong>Events are unrelated</strong>.</p>
        <p>Click ""Next"" to proceed to the experiment.</p>","0","","","",""
"","","","","","html-button-response","8","204806","0.0-8.0","","43958","
        <h2>Get Ready!</h2>
        <p>You have completed the examples. The experiment is about to begin.</p>
        <p>Click ""Start"" to begin the experiment.</p>","0","","","",""
"","","","","","html-button-response","9","210213","0.0-9.0","","5403","
      <div style=""display: flex; justify-content: center; align-items: center;"">
        <div style=""text-align: center; margin-right: 20px;"">
          <p style=""font-size: 24px; font-weight: bold;"">Event 1</p>
          <img src=""images/causal/restaurant_scheme/restaurant_scheme_5.png"" style=""width: 300px; height: auto;"">
        </div>
        <div style=""text-align: center; margin-left: 20px;"">
          <p style=""font-size: 24px; font-weight: bold;"">Event 2</p>
          <img src=""images/causal/restaurant_scheme/restaurant_scheme_1.png"" style=""width: 300px; height: auto;"">
        </div>
      </div>
      <p style=""text-align: center; margin-top: 20px;"">Does Event 1 lead to Event 2?</p>","1","5","1","true","dog_causal"
"","","","","","html-button-response","10","216140","0.0-10.0","","5925","
      <div style=""display: flex; justify-content: center; align-items: center;"">
        <div style=""text-align: center; margin-right: 20px;"">
          <p style=""font-size: 24px; font-weight: bold;"">Event 1</p>
          <img src=""images/causal/museum_causal/museum_causal_5.png"" style=""width: 300px; height: auto;"">
        </div>
        <div style=""text-align: center; margin-left: 20px;"">
          <p style=""font-size: 24px; font-weight: bold;"">Event 2</p>
          <img src=""images/causal/museum_causal/museum_causal_6.png"" style=""width: 300px; height: auto;"">
        </div>
      </div>
      <p style=""text-align: center; margin-top: 20px;"">Does Event 1 lead to Event 2?</p>","0","5","6","true","museum_causal"
"","","","","","html-button-response","11","221590","0.0-11.0","","5446","
      <div style=""display: flex; justify-content: center; align-items: center;"">
        <div style=""text-align: center; margin-right: 20px;"">
          <p style=""font-size: 24px; font-weight: bold;"">Event 1</p>
          <img src=""images/causal/housework_semantic/housework_semantic_9.png"" style=""width: 300px; height: auto;"">
        </div>
        <div style=""text-align: center; margin-left: 20px;"">
          <p style=""font-size: 24px; font-weight: bold;"">Event 2</p>
          <img src=""images/causal/housework_semantic/housework_semantic_2.png"" style=""width: 300px; height: auto;"">
        </div>
      </div>
      <p style=""text-align: center; margin-top: 20px;"">Does Event 1 lead to Event 2?</p>","2","9","2","true","housework_semantic"
"","","","","","html-button-response","12","226958","0.0-12.0","","5364","
      <div style=""display: flex; justify-content: center; align-items: center;"">
        <div style=""text-align: center; margin-right: 20px;"">
          <p style=""font-size: 24px; font-weight: bold;"">Event 1</p>
          <img src=""images/causal/housework_semantic/housework_semantic_1.png"" style=""width: 300px; height: auto;"">
        </div>
        <div style=""text-align: center; margin-left: 20px;"">
          <p style=""font-size: 24px; font-weight: bold;"">Event 2</p>
          <img src=""images/causal/housework_semantic/housework_semantic_7.png"" style=""width: 300px; height: auto;"">
        </div>
      </div>
      <p style=""text-align: center; margin-top: 20px;"">Does Event 1 lead to Event 2?</p>","2","1","7","true","housework_semantic"
"","","","","","html-button-response","13","232389","0.0-13.0","","5428","
      <div style=""display: flex; justify-content: center; align-items: center;"">
        <div style=""text-align: center; margin-right: 20px;"">
          <p style=""font-size: 24px; font-weight: bold;"">Event 1</p>
          <img src=""images/causal/restaurant_scheme/restaurant_scheme_4.png"" style=""width: 300px; height: auto;"">
        </div>
        <div style=""text-align: center; margin-left: 20px;"">
          <p style=""font-size: 24px; font-weight: bold;"">Event 2</p>
          <img src=""images/causal/restaurant_scheme/restaurant_scheme_6.png"" style=""width: 300px; height: auto;"">
        </div>
      </div>
      <p style=""text-align: center; margin-top: 20px;"">Does Event 1 lead to Event 2?</p>","0","4","6","true","dog_causal"
"","","","","","html-button-response","14","238334","0.0-14.0","","5940","
      <div style=""display: flex; justify-content: center; align-items: center;"">
        <div style=""text-align: center; margin-right: 20px;"">
          <p style=""font-size: 24px; font-weight: bold;"">Event 1</p>
          <img src=""images/causal/museum_causal/museum_causal_2.png"" style=""width: 300px; height: auto;"">
        </div>
        <div style=""text-align: center; margin-left: 20px;"">
          <p style=""font-size: 24px; font-weight: bold;"">Event 2</p>
          <img src=""images/causal/museum_causal/museum_causal_7.png"" style=""width: 300px; height: auto;"">
        </div>
      </div>
      <p style=""text-align: center; margin-top: 20px;"">Does Event 1 lead to Event 2?</p>","2","2","7","true","museum_causal"
"","","","","","html-button-response","15","244173","0.0-15.0","","5836","
      <div style=""display: flex; justify-content: center; align-items: center;"">
        <div style=""text-align: center; margin-right: 20px;"">
          <p style=""font-size: 24px; font-weight: bold;"">Event 1</p>
          <img src=""images/causal/museum_causal/museum_causal_6.png"" style=""width: 300px; height: auto;"">
        </div>
        <div style=""text-align: center; margin-left: 20px;"">
          <p style=""font-size: 24px; font-weight: bold;"">Event 2</p>
          <img src=""images/causal/museum_causal/museum_causal_10.png"" style=""width: 300px; height: auto;"">
        </div>
      </div>
      <p style=""text-align: center; margin-top: 20px;"">Does Event 1 lead to Event 2?</p>","0","6","10","true","museum_causal"
"","","","","","html-button-response","16","249646","0.0-16.0","","5469","
      <div style=""display: flex; justify-content: center; align-items: center;"">
        <div style=""text-align: center; margin-right: 20px;"">
          <p style=""font-size: 24px; font-weight: bold;"">Event 1</p>
          <img src=""images/causal/restaurant_scheme/restaurant_scheme_1.png"" style=""width: 300px; height: auto;"">
        </div>
        <div style=""text-align: center; margin-left: 20px;"">
          <p style=""font-size: 24px; font-weight: bold;"">Event 2</p>
          <img src=""images/causal/restaurant_scheme/restaurant_scheme_6.png"" style=""width: 300px; height: auto;"">
        </div>
      </div>
      <p style=""text-align: center; margin-top: 20px;"">Does Event 1 lead to Event 2?</p>","0","1","6","true","dog_causal"
"","","","","","html-button-response","17","255165","0.0-17.0","","5517","
      <div style=""display: flex; justify-content: center; align-items: center;"">
        <div style=""text-align: center; margin-right: 20px;"">
          <p style=""font-size: 24px; font-weight: bold;"">Event 1</p>
          <img src=""images/causal/museum_causal/museum_causal_10.png"" style=""width: 300px; height: auto;"">
        </div>
        <div style=""text-align: center; margin-left: 20px;"">
          <p style=""font-size: 24px; font-weight: bold;"">Event 2</p>
          <img src=""images/causal/museum_causal/museum_causal_9.png"" style=""width: 300px; height: auto;"">
        </div>
      </div>
      <p style=""text-align: center; margin-top: 20px;"">Does Event 1 lead to Event 2?</p>","0","10","9","true","museum_causal"
"","","","","","html-button-response","18","260589","0.0-18.0","","5421","
      <div style=""display: flex; justify-content: center; align-items: center;"">
        <div style=""text-align: center; margin-right: 20px;"">
          <p style=""font-size: 24px; font-weight: bold;"">Event 1</p>
          <img src=""images/causal/restaurant_scheme/restaurant_scheme_10.png"" style=""width: 300px; height: auto;"">
        </div>
        <div style=""text-align: center; margin-left: 20px;"">
          <p style=""font-size: 24px; font-weight: bold;"">Event 2</p>
          <img src=""images/causal/restaurant_scheme/restaurant_scheme_6.png"" style=""width: 300px; height: auto;"">
        </div>
      </div>
      <p style=""text-align: center; margin-top: 20px;"">Does Event 1 lead to Event 2?</p>","1","10","6","true","dog_causal"
"","","","","","html-button-response","19","266791","0.0-19.0","","6199","
      <div style=""display: flex; justify-content: center; align-items: center;"">
        <div style=""text-align: center; margin-right: 20px;"">
          <p style=""font-size: 24px; font-weight: bold;"">Event 1</p>
          <img src=""images/causal/restaurant_scheme/restaurant_scheme_5.png"" style=""width: 300px; height: auto;"">
        </div>
        <div style=""text-align: center; margin-left: 20px;"">
          <p style=""font-size: 24px; font-weight: bold;"">Event 2</p>
          <img src=""images/causal/restaurant_scheme/restaurant_scheme_2.png"" style=""width: 300px; height: auto;"">
        </div>
      </div>
      <p style=""text-align: center; margin-top: 20px;"">Does Event 1 lead to Event 2?</p>","1","5","2","true","dog_causal"
"","","","","","html-button-response","20","272637","0.0-20.0","","5844","
      <div style=""display: flex; justify-content: center; align-items: center;"">
        <div style=""text-align: center; margin-right: 20px;"">
          <p style=""font-size: 24px; font-weight: bold;"">Event 1</p>
          <img src=""images/causal/housework_semantic/housework_semantic_4.png"" style=""width: 300px; height: auto;"">
        </div>
        <div style=""text-align: center; margin-left: 20px;"">
          <p style=""font-size: 24px; font-weight: bold;"">Event 2</p>
          <img src=""images/causal/housework_semantic/housework_semantic_10.png"" style=""width: 300px; height: auto;"">
        </div>
      </div>
      <p style=""text-align: center; margin-top: 20px;"">Does Event 1 lead to Event 2?</p>","2","4","10","true","housework_semantic"
"","","","","","html-button-response","21","279759","0.0-21.0","","7118","
      <div style=""display: flex; justify-content: center; align-items: center;"">
        <div style=""text-align: center; margin-right: 20px;"">
          <p style=""font-size: 24px; font-weight: bold;"">Event 1</p>
          <img src=""images/causal/restaurant_scheme/restaurant_scheme_4.png"" style=""width: 300px; height: auto;"">
        </div>
        <div style=""text-align: center; margin-left: 20px;"">
          <p style=""font-size: 24px; font-weight: bold;"">Event 2</p>
          <img src=""images/causal/restaurant_scheme/restaurant_scheme_5.png"" style=""width: 300px; height: auto;"">
        </div>
      </div>
      <p style=""text-align: center; margin-top: 20px;"">Does Event 1 lead to Event 2?</p>","0","4","5","true","dog_causal"
"","","","","","html-button-response","22","286941","0.0-22.0","","7179","
      <div style=""display: flex; justify-content: center; align-items: center;"">
        <div style=""text-align: center; margin-right: 20px;"">
          <p style=""font-size: 24px; font-weight: bold;"">Event 1</p>
          <img src=""images/causal/housework_semantic/housework_semantic_6.png"" style=""width: 300px; height: auto;"">
        </div>
        <div style=""text-align: center; margin-left: 20px;"">
          <p style=""font-size: 24px; font-weight: bold;"">Event 2</p>
          <img src=""images/causal/housework_semantic/housework_semantic_10.png"" style=""width: 300px; height: auto;"">
        </div>
      </div>
      <p style=""text-align: center; margin-top: 20px;"">Does Event 1 lead to Event 2?</p>","2","6","10","true","housework_semantic"
"","","","","","html-button-response","23","292339","0.0-23.0","","5396","
      <div style=""display: flex; justify-content: center; align-items: center;"">
        <div style=""text-align: center; margin-right: 20px;"">
          <p style=""font-size: 24px; font-weight: bold;"">Event 1</p>
          <img src=""images/causal/housework_semantic/housework_semantic_10.png"" style=""width: 300px; height: auto;"">
        </div>
        <div style=""text-align: center; margin-left: 20px;"">
          <p style=""font-size: 24px; font-weight: bold;"">Event 2</p>
          <img src=""images/causal/housework_semantic/housework_semantic_2.png"" style=""width: 300px; height: auto;"">
        </div>
      </div>
      <p style=""text-align: center; margin-top: 20px;"">Does Event 1 lead to Event 2?</p>","2","10","2","true","housework_semantic"
"","","","","","html-button-response","24","297701","0.0-24.0","","5358","
      <div style=""display: flex; justify-content: center; align-items: center;"">
        <div style=""text-align: center; margin-right: 20px;"">
          <p style=""font-size: 24px; font-weight: bold;"">Event 1</p>
          <img src=""images/causal/housework_semantic/housework_semantic_1.png"" style=""width: 300px; height: auto;"">
        </div>
        <div style=""text-align: center; margin-left: 20px;"">
          <p style=""font-size: 24px; font-weight: bold;"">Event 2</p>
          <img src=""images/causal/housework_semantic/housework_semantic_2.png"" style=""width: 300px; height: auto;"">
        </div>
      </div>
      <p style=""text-align: center; margin-top: 20px;"">Does Event 1 lead to Event 2?</p>","2","1","2","true","housework_semantic"
"","","","","","html-button-response","25","303053","0.0-25.0","","5346","
      <div style=""display: flex; justify-content: center; align-items: center;"">
        <div style=""text-align: center; margin-right: 20px;"">
          <p style=""font-size: 24px; font-weight: bold;"">Event 1</p>
          <img src=""images/causal/restaurant_scheme/restaurant_scheme_5.png"" style=""width: 300px; height: auto;"">
        </div>
        <div style=""text-align: center; margin-left: 20px;"">
          <p style=""font-size: 24px; font-weight: bold;"">Event 2</p>
          <img src=""images/causal/restaurant_scheme/restaurant_scheme_3.png"" style=""width: 300px; height: auto;"">
        </div>
      </div>
      <p style=""text-align: center; margin-top: 20px;"">Does Event 1 lead to Event 2?</p>","1","5","3","true","dog_causal"
"","","","","","html-button-response","26","309037","0.0-26.0","","5981","
      <div style=""display: flex; justify-content: center; align-items: center;"">
        <div style=""text-align: center; margin-right: 20px;"">
          <p style=""font-size: 24px; font-weight: bold;"">Event 1</p>
          <img src=""images/causal/housework_semantic/housework_semantic_7.png"" style=""width: 300px; height: auto;"">
        </div>
        <div style=""text-align: center; margin-left: 20px;"">
          <p style=""font-size: 24px; font-weight: bold;"">Event 2</p>
          <img src=""images/causal/housework_semantic/housework_semantic_9.png"" style=""width: 300px; height: auto;"">
        </div>
      </div>
      <p style=""text-align: center; margin-top: 20px;"">Does Event 1 lead to Event 2?</p>","2","7","9","true","housework_semantic"
"","","","","","html-button-response","27","317269","0.0-27.0","","8227","
      <div style=""display: flex; justify-content: center; align-items: center;"">
        <div style=""text-align: center; margin-right: 20px;"">
          <p style=""font-size: 24px; font-weight: bold;"">Event 1</p>
          <img src=""images/causal/museum_causal/museum_causal_8.png"" style=""width: 300px; height: auto;"">
        </div>
        <div style=""text-align: center; margin-left: 20px;"">
          <p style=""font-size: 24px; font-weight: bold;"">Event 2</p>
          <img src=""images/causal/museum_causal/museum_causal_5.png"" style=""width: 300px; height: auto;"">
        </div>
      </div>
      <p style=""text-align: center; margin-top: 20px;"">Does Event 1 lead to Event 2?</p>","1","8","5","true","museum_causal"
"","","","","","html-button-response","28","325580","0.0-28.0","","8306","
      <div style=""display: flex; justify-content: center; align-items: center;"">
        <div style=""text-align: center; margin-right: 20px;"">
          <p style=""font-size: 24px; font-weight: bold;"">Event 1</p>
          <img src=""images/causal/housework_semantic/housework_semantic_5.png"" style=""width: 300px; height: auto;"">
        </div>
        <div style=""text-align: center; margin-left: 20px;"">
          <p style=""font-size: 24px; font-weight: bold;"">Event 2</p>
          <img src=""images/causal/housework_semantic/housework_semantic_10.png"" style=""width: 300px; height: auto;"">
        </div>
      </div>
      <p style=""text-align: center; margin-top: 20px;"">Does Event 1 lead to Event 2?</p>","2","5","10","true","housework_semantic"
"","","","","","html-button-response","29","331102","0.0-29.0","","5520","
      <div style=""display: flex; justify-content: center; align-items: center;"">
        <div style=""text-align: center; margin-right: 20px;"">
          <p style=""font-size: 24px; font-weight: bold;"">Event 1</p>
          <img src=""images/causal/museum_causal/museum_causal_10.png"" style=""width: 300px; height: auto;"">
        </div>
        <div style=""text-align: center; margin-left: 20px;"">
          <p style=""font-size: 24px; font-weight: bold;"">Event 2</p>
          <img src=""images/causal/museum_causal/museum_causal_1.png"" style=""width: 300px; height: auto;"">
        </div>
      </div>
      <p style=""text-align: center; margin-top: 20px;"">Does Event 1 lead to Event 2?</p>","2","10","1","true","museum_causal"
"","","","","","html-button-response","30","342141","0.0-30.0","","11036","
      <div style=""display: flex; justify-content: center; align-items: center;"">
        <div style=""text-align: center; margin-right: 20px;"">
          <p style=""font-size: 24px; font-weight: bold;"">Event 1</p>
          <img src=""images/causal/housework_semantic/housework_semantic_6.png"" style=""width: 300px; height: auto;"">
        </div>
        <div style=""text-align: center; margin-left: 20px;"">
          <p style=""font-size: 24px; font-weight: bold;"">Event 2</p>
          <img src=""images/causal/housework_semantic/housework_semantic_4.png"" style=""width: 300px; height: auto;"">
        </div>
      </div>
      <p style=""text-align: center; margin-top: 20px;"">Does Event 1 lead to Event 2?</p>","0","6","4","true","housework_semantic"
"","","","","","html-button-response","31","347524","0.0-31.0","","5381","
      <div style=""display: flex; justify-content: center; align-items: center;"">
        <div style=""text-align: center; margin-right: 20px;"">
          <p style=""font-size: 24px; font-weight: bold;"">Event 1</p>
          <img src=""images/causal/museum_causal/museum_causal_5.png"" style=""width: 300px; height: auto;"">
        </div>
        <div style=""text-align: center; margin-left: 20px;"">
          <p style=""font-size: 24px; font-weight: bold;"">Event 2</p>
          <img src=""images/causal/museum_causal/museum_causal_1.png"" style=""width: 300px; height: auto;"">
        </div>
      </div>
      <p style=""text-align: center; margin-top: 20px;"">Does Event 1 lead to Event 2?</p>","2","5","1","true","museum_causal"
"","","","","","html-button-response","32","354660","0.0-32.0","","7133","
      <div style=""display: flex; justify-content: center; align-items: center;"">
        <div style=""text-align: center; margin-right: 20px;"">
          <p style=""font-size: 24px; font-weight: bold;"">Event 1</p>
          <img src=""images/causal/housework_semantic/housework_semantic_9.png"" style=""width: 300px; height: auto;"">
        </div>
        <div style=""text-align: center; margin-left: 20px;"">
          <p style=""font-size: 24px; font-weight: bold;"">Event 2</p>
          <img src=""images/causal/housework_semantic/housework_semantic_3.png"" style=""width: 300px; height: auto;"">
        </div>
      </div>
      <p style=""text-align: center; margin-top: 20px;"">Does Event 1 lead to Event 2?</p>","2","9","3","true","housework_semantic"
"","","","","","html-button-response","33","360062","0.0-33.0","","5399","
      <div style=""display: flex; justify-content: center; align-items: center;"">
        <div style=""text-align: center; margin-right: 20px;"">
          <p style=""font-size: 24px; font-weight: bold;"">Event 1</p>
          <img src=""images/causal/museum_causal/museum_causal_10.png"" style=""width: 300px; height: auto;"">
        </div>
        <div style=""text-align: center; margin-left: 20px;"">
          <p style=""font-size: 24px; font-weight: bold;"">Event 2</p>
          <img src=""images/causal/museum_causal/museum_causal_3.png"" style=""width: 300px; height: auto;"">
        </div>
      </div>
      <p style=""text-align: center; margin-top: 20px;"">Does Event 1 lead to Event 2?</p>","1","10","3","true","museum_causal"
"","","","","","html-button-response","34","366997","0.0-34.0","","6932","
      <div style=""display: flex; justify-content: center; align-items: center;"">
        <div style=""text-align: center; margin-right: 20px;"">
          <p style=""font-size: 24px; font-weight: bold;"">Event 1</p>
          <img src=""images/causal/housework_semantic/housework_semantic_5.png"" style=""width: 300px; height: auto;"">
        </div>
        <div style=""text-align: center; margin-left: 20px;"">
          <p style=""font-size: 24px; font-weight: bold;"">Event 2</p>
          <img src=""images/causal/housework_semantic/housework_semantic_6.png"" style=""width: 300px; height: auto;"">
        </div>
      </div>
      <p style=""text-align: center; margin-top: 20px;"">Does Event 1 lead to Event 2?</p>","2","5","6","true","housework_semantic"
"","","","","","html-button-response","35","372293","0.0-35.0","","5294","
      <div style=""display: flex; justify-content: center; align-items: center;"">
        <div style=""text-align: center; margin-right: 20px;"">
          <p style=""font-size: 24px; font-weight: bold;"">Event 1</p>
          <img src=""images/causal/restaurant_scheme/restaurant_scheme_2.png"" style=""width: 300px; height: auto;"">
        </div>
        <div style=""text-align: center; margin-left: 20px;"">
          <p style=""font-size: 24px; font-weight: bold;"">Event 2</p>
          <img src=""images/causal/restaurant_scheme/restaurant_scheme_4.png"" style=""width: 300px; height: auto;"">
        </div>
      </div>
      <p style=""text-align: center; margin-top: 20px;"">Does Event 1 lead to Event 2?</p>","0","2","4","true","dog_causal"
"","","","","","html-button-response","36","377654","0.0-36.0","","5358","
      <div style=""display: flex; justify-content: center; align-items: center;"">
        <div style=""text-align: center; margin-right: 20px;"">
          <p style=""font-size: 24px; font-weight: bold;"">Event 1</p>
          <img src=""images/causal/museum_causal/museum_causal_9.png"" style=""width: 300px; height: auto;"">
        </div>
        <div style=""text-align: center; margin-left: 20px;"">
          <p style=""font-size: 24px; font-weight: bold;"">Event 2</p>
          <img src=""images/causal/museum_causal/museum_causal_1.png"" style=""width: 300px; height: auto;"">
        </div>
      </div>
      <p style=""text-align: center; margin-top: 20px;"">Does Event 1 lead to Event 2?</p>","2","9","1","true","museum_causal"
"","","","","","html-button-response","37","383277","0.0-37.0","","5619","
      <div style=""display: flex; justify-content: center; align-items: center;"">
        <div style=""text-align: center; margin-right: 20px;"">
          <p style=""font-size: 24px; font-weight: bold;"">Event 1</p>
          <img src=""images/causal/museum_causal/museum_causal_3.png"" style=""width: 300px; height: auto;"">
        </div>
        <div style=""text-align: center; margin-left: 20px;"">
          <p style=""font-size: 24px; font-weight: bold;"">Event 2</p>
          <img src=""images/causal/museum_causal/museum_causal_1.png"" style=""width: 300px; height: auto;"">
        </div>
      </div>
      <p style=""text-align: center; margin-top: 20px;"">Does Event 1 lead to Event 2?</p>","1","3","1","true","museum_causal"
"","","","","","html-button-response","38","388629","0.0-38.0","","5349","
      <div style=""display: flex; justify-content: center; align-items: center;"">
        <div style=""text-align: center; margin-right: 20px;"">
          <p style=""font-size: 24px; font-weight: bold;"">Event 1</p>
          <img src=""images/causal/restaurant_scheme/restaurant_scheme_8.png"" style=""width: 300px; height: auto;"">
        </div>
        <div style=""text-align: center; margin-left: 20px;"">
          <p style=""font-size: 24px; font-weight: bold;"">Event 2</p>
          <img src=""images/causal/restaurant_scheme/restaurant_scheme_10.png"" style=""width: 300px; height: auto;"">
        </div>
      </div>
      <p style=""text-align: center; margin-top: 20px;"">Does Event 1 lead to Event 2?</p>","0","8","10","true","dog_causal"
"","","","","","html-button-response","39","393997","0.0-39.0","","5366","
      <div style=""display: flex; justify-content: center; align-items: center;"">
        <div style=""text-align: center; margin-right: 20px;"">
          <p style=""font-size: 24px; font-weight: bold;"">Event 1</p>
          <img src=""images/causal/restaurant_scheme/restaurant_scheme_9.png"" style=""width: 300px; height: auto;"">
        </div>
        <div style=""text-align: center; margin-left: 20px;"">
          <p style=""font-size: 24px; font-weight: bold;"">Event 2</p>
          <img src=""images/causal/restaurant_scheme/restaurant_scheme_10.png"" style=""width: 300px; height: auto;"">
        </div>
      </div>
      <p style=""text-align: center; margin-top: 20px;"">Does Event 1 lead to Event 2?</p>","0","9","10","true","dog_causal"
"","","","","","html-button-response","40","399485","0.0-40.0","","5486","
      <div style=""display: flex; justify-content: center; align-items: center;"">
        <div style=""text-align: center; margin-right: 20px;"">
          <p style=""font-size: 24px; font-weight: bold;"">Event 1</p>
          <img src=""images/causal/housework_semantic/housework_semantic_1.png"" style=""width: 300px; height: auto;"">
        </div>
        <div style=""text-align: center; margin-left: 20px;"">
          <p style=""font-size: 24px; font-weight: bold;"">Event 2</p>
          <img src=""images/causal/housework_semantic/housework_semantic_6.png"" style=""width: 300px; height: auto;"">
        </div>
      </div>
      <p style=""text-align: center; margin-top: 20px;"">Does Event 1 lead to Event 2?</p>","2","1","6","true","housework_semantic"
"","","","","","html-button-response","41","404869","0.0-41.0","","5379","
      <div style=""display: flex; justify-content: center; align-items: center;"">
        <div style=""text-align: center; margin-right: 20px;"">
          <p style=""font-size: 24px; font-weight: bold;"">Event 1</p>
          <img src=""images/causal/restaurant_scheme/restaurant_scheme_3.png"" style=""width: 300px; height: auto;"">
        </div>
        <div style=""text-align: center; margin-left: 20px;"">
          <p style=""font-size: 24px; font-weight: bold;"">Event 2</p>
          <img src=""images/causal/restaurant_scheme/restaurant_scheme_1.png"" style=""width: 300px; height: auto;"">
        </div>
      </div>
      <p style=""text-align: center; margin-top: 20px;"">Does Event 1 lead to Event 2?</p>","1","3","1","true","dog_causal"
"","","","","","html-button-response","42","410851","0.0-42.0","","5978","
      <div style=""display: flex; justify-content: center; align-items: center;"">
        <div style=""text-align: center; margin-right: 20px;"">
          <p style=""font-size: 24px; font-weight: bold;"">Event 1</p>
          <img src=""images/causal/restaurant_scheme/restaurant_scheme_2.png"" style=""width: 300px; height: auto;"">
        </div>
        <div style=""text-align: center; margin-left: 20px;"">
          <p style=""font-size: 24px; font-weight: bold;"">Event 2</p>
          <img src=""images/causal/restaurant_scheme/restaurant_scheme_6.png"" style=""width: 300px; height: auto;"">
        </div>
      </div>
      <p style=""text-align: center; margin-top: 20px;"">Does Event 1 lead to Event 2?</p>","0","2","6","true","dog_causal"
"","","","","","html-button-response","43","416326","0.0-43.0","","5474","
      <div style=""display: flex; justify-content: center; align-items: center;"">
        <div style=""text-align: center; margin-right: 20px;"">
          <p style=""font-size: 24px; font-weight: bold;"">Event 1</p>
          <img src=""images/causal/restaurant_scheme/restaurant_scheme_10.png"" style=""width: 300px; height: auto;"">
        </div>
        <div style=""text-align: center; margin-left: 20px;"">
          <p style=""font-size: 24px; font-weight: bold;"">Event 2</p>
          <img src=""images/causal/restaurant_scheme/restaurant_scheme_4.png"" style=""width: 300px; height: auto;"">
        </div>
      </div>
      <p style=""text-align: center; margin-top: 20px;"">Does Event 1 lead to Event 2?</p>","1","10","4","true","dog_causal"
"","","","","","html-button-response","44","429124","0.0-44.0","","12794","
      <div style=""display: flex; justify-content: center; align-items: center;"">
        <div style=""text-align: center; margin-right: 20px;"">
          <p style=""font-size: 24px; font-weight: bold;"">Event 1</p>
          <img src=""images/causal/museum_causal/museum_causal_9.png"" style=""width: 300px; height: auto;"">
        </div>
        <div style=""text-align: center; margin-left: 20px;"">
          <p style=""font-size: 24px; font-weight: bold;"">Event 2</p>
          <img src=""images/causal/museum_causal/museum_causal_8.png"" style=""width: 300px; height: auto;"">
        </div>
      </div>
      <p style=""text-align: center; margin-top: 20px;"">Does Event 1 lead to Event 2?</p>","0","9","8","true","museum_causal"
"","","","","","html-button-response","45","434629","0.0-45.0","","5503","
      <div style=""display: flex; justify-content: center; align-items: center;"">
        <div style=""text-align: center; margin-right: 20px;"">
          <p style=""font-size: 24px; font-weight: bold;"">Event 1</p>
          <img src=""images/causal/housework_semantic/housework_semantic_9.png"" style=""width: 300px; height: auto;"">
        </div>
        <div style=""text-align: center; margin-left: 20px;"">
          <p style=""font-size: 24px; font-weight: bold;"">Event 2</p>
          <img src=""images/causal/housework_semantic/housework_semantic_8.png"" style=""width: 300px; height: auto;"">
        </div>
      </div>
      <p style=""text-align: center; margin-top: 20px;"">Does Event 1 lead to Event 2?</p>","2","9","8","true","housework_semantic"
"","","","","","html-button-response","46","440141","0.0-46.0","","5508","
      <div style=""display: flex; justify-content: center; align-items: center;"">
        <div style=""text-align: center; margin-right: 20px;"">
          <p style=""font-size: 24px; font-weight: bold;"">Event 1</p>
          <img src=""images/causal/housework_semantic/housework_semantic_8.png"" style=""width: 300px; height: auto;"">
        </div>
        <div style=""text-align: center; margin-left: 20px;"">
          <p style=""font-size: 24px; font-weight: bold;"">Event 2</p>
          <img src=""images/causal/housework_semantic/housework_semantic_7.png"" style=""width: 300px; height: auto;"">
        </div>
      </div>
      <p style=""text-align: center; margin-top: 20px;"">Does Event 1 lead to Event 2?</p>","2","8","7","true","housework_semantic"
"","","","","","html-button-response","47","445605","0.0-47.0","","5461","
      <div style=""display: flex; justify-content: center; align-items: center;"">
        <div style=""text-align: center; margin-right: 20px;"">
          <p style=""font-size: 24px; font-weight: bold;"">Event 1</p>
          <img src=""images/causal/museum_causal/museum_causal_6.png"" style=""width: 300px; height: auto;"">
        </div>
        <div style=""text-align: center; margin-left: 20px;"">
          <p style=""font-size: 24px; font-weight: bold;"">Event 2</p>
          <img src=""images/causal/museum_causal/museum_causal_2.png"" style=""width: 300px; height: auto;"">
        </div>
      </div>
      <p style=""text-align: center; margin-top: 20px;"">Does Event 1 lead to Event 2?</p>","2","6","2","true","museum_causal"
"","","","","","html-button-response","48","451109","0.0-48.0","","5501","
      <div style=""display: flex; justify-content: center; align-items: center;"">
        <div style=""text-align: center; margin-right: 20px;"">
          <p style=""font-size: 24px; font-weight: bold;"">Event 1</p>
          <img src=""images/causal/housework_semantic/housework_semantic_4.png"" style=""width: 300px; height: auto;"">
        </div>
        <div style=""text-align: center; margin-left: 20px;"">
          <p style=""font-size: 24px; font-weight: bold;"">Event 2</p>
          <img src=""images/causal/housework_semantic/housework_semantic_8.png"" style=""width: 300px; height: auto;"">
        </div>
      </div>
      <p style=""text-align: center; margin-top: 20px;"">Does Event 1 lead to Event 2?</p>","2","4","8","true","housework_semantic"
"","","","","","html-button-response","49","458181","0.0-49.0","","7066","
      <div style=""display: flex; justify-content: center; align-items: center;"">
        <div style=""text-align: center; margin-right: 20px;"">
          <p style=""font-size: 24px; font-weight: bold;"">Event 1</p>
          <img src=""images/causal/restaurant_scheme/restaurant_scheme_7.png"" style=""width: 300px; height: auto;"">
        </div>
        <div style=""text-align: center; margin-left: 20px;"">
          <p style=""font-size: 24px; font-weight: bold;"">Event 2</p>
          <img src=""images/causal/restaurant_scheme/restaurant_scheme_1.png"" style=""width: 300px; height: auto;"">
        </div>
      </div>
      <p style=""text-align: center; margin-top: 20px;"">Does Event 1 lead to Event 2?</p>","1","7","1","true","dog_causal"
"","","","","","html-button-response","50","464478","0.0-50.0","","6292","
      <div style=""display: flex; justify-content: center; align-items: center;"">
        <div style=""text-align: center; margin-right: 20px;"">
          <p style=""font-size: 24px; font-weight: bold;"">Event 1</p>
          <img src=""images/causal/restaurant_scheme/restaurant_scheme_9.png"" style=""width: 300px; height: auto;"">
        </div>
        <div style=""text-align: center; margin-left: 20px;"">
          <p style=""font-size: 24px; font-weight: bold;"">Event 2</p>
          <img src=""images/causal/restaurant_scheme/restaurant_scheme_1.png"" style=""width: 300px; height: auto;"">
        </div>
      </div>
      <p style=""text-align: center; margin-top: 20px;"">Does Event 1 lead to Event 2?</p>","1","9","1","true","dog_causal"
"","","","","","html-button-response","51","474798","0.0-51.0","","10316","
      <div style=""display: flex; justify-content: center; align-items: center;"">
        <div style=""text-align: center; margin-right: 20px;"">
          <p style=""font-size: 24px; font-weight: bold;"">Event 1</p>
          <img src=""images/causal/museum_causal/museum_causal_1.png"" style=""width: 300px; height: auto;"">
        </div>
        <div style=""text-align: center; margin-left: 20px;"">
          <p style=""font-size: 24px; font-weight: bold;"">Event 2</p>
          <img src=""images/causal/museum_causal/museum_causal_8.png"" style=""width: 300px; height: auto;"">
        </div>
      </div>
      <p style=""text-align: center; margin-top: 20px;"">Does Event 1 lead to Event 2?</p>","0","1","8","true","museum_causal"
"","","","","","html-button-response","52","480149","0.0-52.0","","5348","
      <div style=""display: flex; justify-content: center; align-items: center;"">
        <div style=""text-align: center; margin-right: 20px;"">
          <p style=""font-size: 24px; font-weight: bold;"">Event 1</p>
          <img src=""images/causal/restaurant_scheme/restaurant_scheme_3.png"" style=""width: 300px; height: auto;"">
        </div>
        <div style=""text-align: center; margin-left: 20px;"">
          <p style=""font-size: 24px; font-weight: bold;"">Event 2</p>
          <img src=""images/causal/restaurant_scheme/restaurant_scheme_6.png"" style=""width: 300px; height: auto;"">
        </div>
      </div>
      <p style=""text-align: center; margin-top: 20px;"">Does Event 1 lead to Event 2?</p>","0","3","6","true","dog_causal"
"","","","","","html-button-response","53","485516","0.0-53.0","","5364","
      <div style=""display: flex; justify-content: center; align-items: center;"">
        <div style=""text-align: center; margin-right: 20px;"">
          <p style=""font-size: 24px; font-weight: bold;"">Event 1</p>
          <img src=""images/causal/restaurant_scheme/restaurant_scheme_2.png"" style=""width: 300px; height: auto;"">
        </div>
        <div style=""text-align: center; margin-left: 20px;"">
          <p style=""font-size: 24px; font-weight: bold;"">Event 2</p>
          <img src=""images/causal/restaurant_scheme/restaurant_scheme_7.png"" style=""width: 300px; height: auto;"">
        </div>
      </div>
      <p style=""text-align: center; margin-top: 20px;"">Does Event 1 lead to Event 2?</p>","0","2","7","true","dog_causal"
"","","","","","html-button-response","54","490916","0.0-54.0","","5396","
      <div style=""display: flex; justify-content: center; align-items: center;"">
        <div style=""text-align: center; margin-right: 20px;"">
          <p style=""font-size: 24px; font-weight: bold;"">Event 1</p>
          <img src=""images/causal/museum_causal/museum_causal_10.png"" style=""width: 300px; height: auto;"">
        </div>
        <div style=""text-align: center; margin-left: 20px;"">
          <p style=""font-size: 24px; font-weight: bold;"">Event 2</p>
          <img src=""images/causal/museum_causal/museum_causal_4.png"" style=""width: 300px; height: auto;"">
        </div>
      </div>
      <p style=""text-align: center; margin-top: 20px;"">Does Event 1 lead to Event 2?</p>","1","10","4","true","museum_causal"
"","","","","","html-button-response","55","496678","0.0-55.0","","5761","
      <div style=""display: flex; justify-content: center; align-items: center;"">
        <div style=""text-align: center; margin-right: 20px;"">
          <p style=""font-size: 24px; font-weight: bold;"">Event 1</p>
          <img src=""images/causal/restaurant_scheme/restaurant_scheme_3.png"" style=""width: 300px; height: auto;"">
        </div>
        <div style=""text-align: center; margin-left: 20px;"">
          <p style=""font-size: 24px; font-weight: bold;"">Event 2</p>
          <img src=""images/causal/restaurant_scheme/restaurant_scheme_10.png"" style=""width: 300px; height: auto;"">
        </div>
      </div>
      <p style=""text-align: center; margin-top: 20px;"">Does Event 1 lead to Event 2?</p>","0","3","10","true","dog_causal"
"","","","","","html-button-response","56","502045","0.0-56.0","","5365","
      <div style=""display: flex; justify-content: center; align-items: center;"">
        <div style=""text-align: center; margin-right: 20px;"">
          <p style=""font-size: 24px; font-weight: bold;"">Event 1</p>
          <img src=""images/causal/restaurant_scheme/restaurant_scheme_2.png"" style=""width: 300px; height: auto;"">
        </div>
        <div style=""text-align: center; margin-left: 20px;"">
          <p style=""font-size: 24px; font-weight: bold;"">Event 2</p>
          <img src=""images/causal/restaurant_scheme/restaurant_scheme_8.png"" style=""width: 300px; height: auto;"">
        </div>
      </div>
      <p style=""text-align: center; margin-top: 20px;"">Does Event 1 lead to Event 2?</p>","0","2","8","true","dog_causal"
"","","","","","html-button-response","57","507444","0.0-57.0","","5397","
      <div style=""display: flex; justify-content: center; align-items: center;"">
        <div style=""text-align: center; margin-right: 20px;"">
          <p style=""font-size: 24px; font-weight: bold;"">Event 1</p>
          <img src=""images/causal/housework_semantic/housework_semantic_5.png"" style=""width: 300px; height: auto;"">
        </div>
        <div style=""text-align: center; margin-left: 20px;"">
          <p style=""font-size: 24px; font-weight: bold;"">Event 2</p>
          <img src=""images/causal/housework_semantic/housework_semantic_4.png"" style=""width: 300px; height: auto;"">
        </div>
      </div>
      <p style=""text-align: center; margin-top: 20px;"">Does Event 1 lead to Event 2?</p>","2","5","4","true","housework_semantic"
"","","","","","html-button-response","58","515166","0.0-58.0","","7718","
      <div style=""display: flex; justify-content: center; align-items: center;"">
        <div style=""text-align: center; margin-right: 20px;"">
          <p style=""font-size: 24px; font-weight: bold;"">Event 1</p>
          <img src=""images/causal/museum_causal/museum_causal_6.png"" style=""width: 300px; height: auto;"">
        </div>
        <div style=""text-align: center; margin-left: 20px;"">
          <p style=""font-size: 24px; font-weight: bold;"">Event 2</p>
          <img src=""images/causal/museum_causal/museum_causal_3.png"" style=""width: 300px; height: auto;"">
        </div>
      </div>
      <p style=""text-align: center; margin-top: 20px;"">Does Event 1 lead to Event 2?</p>","1","6","3","true","museum_causal"
"","","","","","html-button-response","59","521027","0.0-59.0","","5858","
      <div style=""display: flex; justify-content: center; align-items: center;"">
        <div style=""text-align: center; margin-right: 20px;"">
          <p style=""font-size: 24px; font-weight: bold;"">Event 1</p>
          <img src=""images/causal/housework_semantic/housework_semantic_8.png"" style=""width: 300px; height: auto;"">
        </div>
        <div style=""text-align: center; margin-left: 20px;"">
          <p style=""font-size: 24px; font-weight: bold;"">Event 2</p>
          <img src=""images/causal/housework_semantic/housework_semantic_1.png"" style=""width: 300px; height: auto;"">
        </div>
      </div>
      <p style=""text-align: center; margin-top: 20px;"">Does Event 1 lead to Event 2?</p>","2","8","1","true","housework_semantic"
"","","","","","html-button-response","60","526382","0.0-60.0","","5352","
      <div style=""display: flex; justify-content: center; align-items: center;"">
        <div style=""text-align: center; margin-right: 20px;"">
          <p style=""font-size: 24px; font-weight: bold;"">Event 1</p>
          <img src=""images/causal/museum_causal/museum_causal_1.png"" style=""width: 300px; height: auto;"">
        </div>
        <div style=""text-align: center; margin-left: 20px;"">
          <p style=""font-size: 24px; font-weight: bold;"">Event 2</p>
          <img src=""images/causal/museum_causal/museum_causal_4.png"" style=""width: 300px; height: auto;"">
        </div>
      </div>
      <p style=""text-align: center; margin-top: 20px;"">Does Event 1 lead to Event 2?</p>","2","1","4","true","museum_causal"
"","","","","","html-button-response","61","531731","0.0-61.0","","5346","
      <div style=""display: flex; justify-content: center; align-items: center;"">
        <div style=""text-align: center; margin-right: 20px;"">
          <p style=""font-size: 24px; font-weight: bold;"">Event 1</p>
          <img src=""images/causal/museum_causal/museum_causal_5.png"" style=""width: 300px; height: auto;"">
        </div>
        <div style=""text-align: center; margin-left: 20px;"">
          <p style=""font-size: 24px; font-weight: bold;"">Event 2</p>
          <img src=""images/causal/museum_causal/museum_causal_4.png"" style=""width: 300px; height: auto;"">
        </div>
      </div>
      <p style=""text-align: center; margin-top: 20px;"">Does Event 1 lead to Event 2?</p>","0","5","4","true","museum_causal"
"","","","","","html-button-response","62","538430","0.0-62.0","","6697","
      <div style=""display: flex; justify-content: center; align-items: center;"">
        <div style=""text-align: center; margin-right: 20px;"">
          <p style=""font-size: 24px; font-weight: bold;"">Event 1</p>
          <img src=""images/causal/housework_semantic/housework_semantic_4.png"" style=""width: 300px; height: auto;"">
        </div>
        <div style=""text-align: center; margin-left: 20px;"">
          <p style=""font-size: 24px; font-weight: bold;"">Event 2</p>
          <img src=""images/causal/housework_semantic/housework_semantic_1.png"" style=""width: 300px; height: auto;"">
        </div>
      </div>
      <p style=""text-align: center; margin-top: 20px;"">Does Event 1 lead to Event 2?</p>","2","4","1","true","housework_semantic"
"","","","","","html-button-response","63","543765","0.0-63.0","","5335","
      <div style=""display: flex; justify-content: center; align-items: center;"">
        <div style=""text-align: center; margin-right: 20px;"">
          <p style=""font-size: 24px; font-weight: bold;"">Event 1</p>
          <img src=""images/causal/restaurant_scheme/restaurant_scheme_6.png"" style=""width: 300px; height: auto;"">
        </div>
        <div style=""text-align: center; margin-left: 20px;"">
          <p style=""font-size: 24px; font-weight: bold;"">Event 2</p>
          <img src=""images/causal/restaurant_scheme/restaurant_scheme_8.png"" style=""width: 300px; height: auto;"">
        </div>
      </div>
      <p style=""text-align: center; margin-top: 20px;"">Does Event 1 lead to Event 2?</p>","0","6","8","true","dog_causal"
"","","","","","html-button-response","64","549197","0.0-64.0","","5428","
      <div style=""display: flex; justify-content: center; align-items: center;"">
        <div style=""text-align: center; margin-right: 20px;"">
          <p style=""font-size: 24px; font-weight: bold;"">Event 1</p>
          <img src=""images/causal/housework_semantic/housework_semantic_10.png"" style=""width: 300px; height: auto;"">
        </div>
        <div style=""text-align: center; margin-left: 20px;"">
          <p style=""font-size: 24px; font-weight: bold;"">Event 2</p>
          <img src=""images/causal/housework_semantic/housework_semantic_1.png"" style=""width: 300px; height: auto;"">
        </div>
      </div>
      <p style=""text-align: center; margin-top: 20px;"">Does Event 1 lead to Event 2?</p>","2","10","1","true","housework_semantic"
"","","","","","html-button-response","65","554861","0.0-65.0","","5660","
      <div style=""display: flex; justify-content: center; align-items: center;"">
        <div style=""text-align: center; margin-right: 20px;"">
          <p style=""font-size: 24px; font-weight: bold;"">Event 1</p>
          <img src=""images/causal/housework_semantic/housework_semantic_3.png"" style=""width: 300px; height: auto;"">
        </div>
        <div style=""text-align: center; margin-left: 20px;"">
          <p style=""font-size: 24px; font-weight: bold;"">Event 2</p>
          <img src=""images/causal/housework_semantic/housework_semantic_5.png"" style=""width: 300px; height: auto;"">
        </div>
      </div>
      <p style=""text-align: center; margin-top: 20px;"">Does Event 1 lead to Event 2?</p>","2","3","5","true","housework_semantic"
"","","","","","html-button-response","66","560190","0.0-66.0","","5326","
      <div style=""display: flex; justify-content: center; align-items: center;"">
        <div style=""text-align: center; margin-right: 20px;"">
          <p style=""font-size: 24px; font-weight: bold;"">Event 1</p>
          <img src=""images/causal/museum_causal/museum_causal_9.png"" style=""width: 300px; height: auto;"">
        </div>
        <div style=""text-align: center; margin-left: 20px;"">
          <p style=""font-size: 24px; font-weight: bold;"">Event 2</p>
          <img src=""images/causal/museum_causal/museum_causal_7.png"" style=""width: 300px; height: auto;"">
        </div>
      </div>
      <p style=""text-align: center; margin-top: 20px;"">Does Event 1 lead to Event 2?</p>","1","9","7","true","museum_causal"
"","","","","","html-button-response","67","565670","0.0-67.0","","5477","
      <div style=""display: flex; justify-content: center; align-items: center;"">
        <div style=""text-align: center; margin-right: 20px;"">
          <p style=""font-size: 24px; font-weight: bold;"">Event 1</p>
          <img src=""images/causal/restaurant_scheme/restaurant_scheme_7.png"" style=""width: 300px; height: auto;"">
        </div>
        <div style=""text-align: center; margin-left: 20px;"">
          <p style=""font-size: 24px; font-weight: bold;"">Event 2</p>
          <img src=""images/causal/restaurant_scheme/restaurant_scheme_8.png"" style=""width: 300px; height: auto;"">
        </div>
      </div>
      <p style=""text-align: center; margin-top: 20px;"">Does Event 1 lead to Event 2?</p>","0","7","8","true","dog_causal"
"","","","","","html-button-response","68","571221","0.0-68.0","","5548","
      <div style=""display: flex; justify-content: center; align-items: center;"">
        <div style=""text-align: center; margin-right: 20px;"">
          <p style=""font-size: 24px; font-weight: bold;"">Event 1</p>
          <img src=""images/causal/museum_causal/museum_causal_8.png"" style=""width: 300px; height: auto;"">
        </div>
        <div style=""text-align: center; margin-left: 20px;"">
          <p style=""font-size: 24px; font-weight: bold;"">Event 2</p>
          <img src=""images/causal/museum_causal/museum_causal_6.png"" style=""width: 300px; height: auto;"">
        </div>
      </div>
      <p style=""text-align: center; margin-top: 20px;"">Does Event 1 lead to Event 2?</p>","0","8","6","true","museum_causal"
"","","","","","html-button-response","69","576629","0.0-69.0","","5405","
      <div style=""display: flex; justify-content: center; align-items: center;"">
        <div style=""text-align: center; margin-right: 20px;"">
          <p style=""font-size: 24px; font-weight: bold;"">Event 1</p>
          <img src=""images/causal/restaurant_scheme/restaurant_scheme_6.png"" style=""width: 300px; height: auto;"">
        </div>
        <div style=""text-align: center; margin-left: 20px;"">
          <p style=""font-size: 24px; font-weight: bold;"">Event 2</p>
          <img src=""images/causal/restaurant_scheme/restaurant_scheme_9.png"" style=""width: 300px; height: auto;"">
        </div>
      </div>
      <p style=""text-align: center; margin-top: 20px;"">Does Event 1 lead to Event 2?</p>","0","6","9","true","dog_causal"
"","","","","","html-button-response","70","584061","0.0-70.0","","7429","
      <div style=""display: flex; justify-content: center; align-items: center;"">
        <div style=""text-align: center; margin-right: 20px;"">
          <p style=""font-size: 24px; font-weight: bold;"">Event 1</p>
          <img src=""images/causal/housework_semantic/housework_semantic_8.png"" style=""width: 300px; height: auto;"">
        </div>
        <div style=""text-align: center; margin-left: 20px;"">
          <p style=""font-size: 24px; font-weight: bold;"">Event 2</p>
          <img src=""images/causal/housework_semantic/housework_semantic_10.png"" style=""width: 300px; height: auto;"">
        </div>
      </div>
      <p style=""text-align: center; margin-top: 20px;"">Does Event 1 lead to Event 2?</p>","0","8","10","true","housework_semantic"
"","","","","","html-button-response","71","589390","0.0-71.0","","5326","
      <div style=""display: flex; justify-content: center; align-items: center;"">
        <div style=""text-align: center; margin-right: 20px;"">
          <p style=""font-size: 24px; font-weight: bold;"">Event 1</p>
          <img src=""images/causal/museum_causal/museum_causal_2.png"" style=""width: 300px; height: auto;"">
        </div>
        <div style=""text-align: center; margin-left: 20px;"">
          <p style=""font-size: 24px; font-weight: bold;"">Event 2</p>
          <img src=""images/causal/museum_causal/museum_causal_4.png"" style=""width: 300px; height: auto;"">
        </div>
      </div>
      <p style=""text-align: center; margin-top: 20px;"">Does Event 1 lead to Event 2?</p>","2","2","4","true","museum_causal"
"","","","","","html-button-response","72","594828","0.0-72.0","","5435","
      <div style=""display: flex; justify-content: center; align-items: center;"">
        <div style=""text-align: center; margin-right: 20px;"">
          <p style=""font-size: 24px; font-weight: bold;"">Event 1</p>
          <img src=""images/causal/housework_semantic/housework_semantic_2.png"" style=""width: 300px; height: auto;"">
        </div>
        <div style=""text-align: center; margin-left: 20px;"">
          <p style=""font-size: 24px; font-weight: bold;"">Event 2</p>
          <img src=""images/causal/housework_semantic/housework_semantic_4.png"" style=""width: 300px; height: auto;"">
        </div>
      </div>
      <p style=""text-align: center; margin-top: 20px;"">Does Event 1 lead to Event 2?</p>","1","2","4","true","housework_semantic"
"","","","","","html-button-response","73","600165","0.0-73.0","","5332","
      <div style=""display: flex; justify-content: center; align-items: center;"">
        <div style=""text-align: center; margin-right: 20px;"">
          <p style=""font-size: 24px; font-weight: bold;"">Event 1</p>
          <img src=""images/causal/housework_semantic/housework_semantic_6.png"" style=""width: 300px; height: auto;"">
        </div>
        <div style=""text-align: center; margin-left: 20px;"">
          <p style=""font-size: 24px; font-weight: bold;"">Event 2</p>
          <img src=""images/causal/housework_semantic/housework_semantic_8.png"" style=""width: 300px; height: auto;"">
        </div>
      </div>
      <p style=""text-align: center; margin-top: 20px;"">Does Event 1 lead to Event 2?</p>","2","6","8","true","housework_semantic"
"","","","","","html-button-response","74","605581","0.0-74.0","","5413","
      <div style=""display: flex; justify-content: center; align-items: center;"">
        <div style=""text-align: center; margin-right: 20px;"">
          <p style=""font-size: 24px; font-weight: bold;"">Event 1</p>
          <img src=""images/causal/housework_semantic/housework_semantic_3.png"" style=""width: 300px; height: auto;"">
        </div>
        <div style=""text-align: center; margin-left: 20px;"">
          <p style=""font-size: 24px; font-weight: bold;"">Event 2</p>
          <img src=""images/causal/housework_semantic/housework_semantic_7.png"" style=""width: 300px; height: auto;"">
        </div>
      </div>
      <p style=""text-align: center; margin-top: 20px;"">Does Event 1 lead to Event 2?</p>","2","3","7","true","housework_semantic"
"","","","","","html-button-response","75","610893","0.0-75.0","","5307","
      <div style=""display: flex; justify-content: center; align-items: center;"">
        <div style=""text-align: center; margin-right: 20px;"">
          <p style=""font-size: 24px; font-weight: bold;"">Event 1</p>
          <img src=""images/causal/restaurant_scheme/restaurant_scheme_3.png"" style=""width: 300px; height: auto;"">
        </div>
        <div style=""text-align: center; margin-left: 20px;"">
          <p style=""font-size: 24px; font-weight: bold;"">Event 2</p>
          <img src=""images/causal/restaurant_scheme/restaurant_scheme_9.png"" style=""width: 300px; height: auto;"">
        </div>
      </div>
      <p style=""text-align: center; margin-top: 20px;"">Does Event 1 lead to Event 2?</p>","0","3","9","true","dog_causal"
"","","","","","html-button-response","76","618811","0.0-76.0","","7916","
      <div style=""display: flex; justify-content: center; align-items: center;"">
        <div style=""text-align: center; margin-right: 20px;"">
          <p style=""font-size: 24px; font-weight: bold;"">Event 1</p>
          <img src=""images/causal/restaurant_scheme/restaurant_scheme_4.png"" style=""width: 300px; height: auto;"">
        </div>
        <div style=""text-align: center; margin-left: 20px;"">
          <p style=""font-size: 24px; font-weight: bold;"">Event 2</p>
          <img src=""images/causal/restaurant_scheme/restaurant_scheme_1.png"" style=""width: 300px; height: auto;"">
        </div>
      </div>
      <p style=""text-align: center; margin-top: 20px;"">Does Event 1 lead to Event 2?</p>","1","4","1","true","dog_causal"
"","","","","","html-button-response","77","625107","0.0-77.0","","6294","
      <div style=""display: flex; justify-content: center; align-items: center;"">
        <div style=""text-align: center; margin-right: 20px;"">
          <p style=""font-size: 24px; font-weight: bold;"">Event 1</p>
          <img src=""images/causal/museum_causal/museum_causal_6.png"" style=""width: 300px; height: auto;"">
        </div>
        <div style=""text-align: center; margin-left: 20px;"">
          <p style=""font-size: 24px; font-weight: bold;"">Event 2</p>
          <img src=""images/causal/museum_causal/museum_causal_1.png"" style=""width: 300px; height: auto;"">
        </div>
      </div>
      <p style=""text-align: center; margin-top: 20px;"">Does Event 1 lead to Event 2?</p>","2","6","1","true","museum_causal"
"","","","","","html-button-response","78","630645","0.0-78.0","","5536","
      <div style=""display: flex; justify-content: center; align-items: center;"">
        <div style=""text-align: center; margin-right: 20px;"">
          <p style=""font-size: 24px; font-weight: bold;"">Event 1</p>
          <img src=""images/causal/housework_semantic/housework_semantic_7.png"" style=""width: 300px; height: auto;"">
        </div>
        <div style=""text-align: center; margin-left: 20px;"">
          <p style=""font-size: 24px; font-weight: bold;"">Event 2</p>
          <img src=""images/causal/housework_semantic/housework_semantic_6.png"" style=""width: 300px; height: auto;"">
        </div>
      </div>
      <p style=""text-align: center; margin-top: 20px;"">Does Event 1 lead to Event 2?</p>","2","7","6","true","housework_semantic"
"","","","","","html-button-response","79","636188","0.0-79.0","","5541","
      <div style=""display: flex; justify-content: center; align-items: center;"">
        <div style=""text-align: center; margin-right: 20px;"">
          <p style=""font-size: 24px; font-weight: bold;"">Event 1</p>
          <img src=""images/causal/housework_semantic/housework_semantic_6.png"" style=""width: 300px; height: auto;"">
        </div>
        <div style=""text-align: center; margin-left: 20px;"">
          <p style=""font-size: 24px; font-weight: bold;"">Event 2</p>
          <img src=""images/causal/housework_semantic/housework_semantic_3.png"" style=""width: 300px; height: auto;"">
        </div>
      </div>
      <p style=""text-align: center; margin-top: 20px;"">Does Event 1 lead to Event 2?</p>","1","6","3","true","housework_semantic"
"","","","","","html-button-response","80","641469","0.0-80.0","","5277","
      <div style=""display: flex; justify-content: center; align-items: center;"">
        <div style=""text-align: center; margin-right: 20px;"">
          <p style=""font-size: 24px; font-weight: bold;"">Event 1</p>
          <img src=""images/causal/restaurant_scheme/restaurant_scheme_6.png"" style=""width: 300px; height: auto;"">
        </div>
        <div style=""text-align: center; margin-left: 20px;"">
          <p style=""font-size: 24px; font-weight: bold;"">Event 2</p>
          <img src=""images/causal/restaurant_scheme/restaurant_scheme_5.png"" style=""width: 300px; height: auto;"">
        </div>
      </div>
      <p style=""text-align: center; margin-top: 20px;"">Does Event 1 lead to Event 2?</p>","1","6","5","true","dog_causal"
"","","","","","html-button-response","81","647590","0.0-81.0","","6118","
      <div style=""display: flex; justify-content: center; align-items: center;"">
        <div style=""text-align: center; margin-right: 20px;"">
          <p style=""font-size: 24px; font-weight: bold;"">Event 1</p>
          <img src=""images/causal/museum_causal/museum_causal_2.png"" style=""width: 300px; height: auto;"">
        </div>
        <div style=""text-align: center; margin-left: 20px;"">
          <p style=""font-size: 24px; font-weight: bold;"">Event 2</p>
          <img src=""images/causal/museum_causal/museum_causal_5.png"" style=""width: 300px; height: auto;"">
        </div>
      </div>
      <p style=""text-align: center; margin-top: 20px;"">Does Event 1 lead to Event 2?</p>","0","2","5","true","museum_causal"
"","","","","","html-button-response","82","652998","0.0-82.0","","5404","
      <div style=""display: flex; justify-content: center; align-items: center;"">
        <div style=""text-align: center; margin-right: 20px;"">
          <p style=""font-size: 24px; font-weight: bold;"">Event 1</p>
          <img src=""images/causal/restaurant_scheme/restaurant_scheme_8.png"" style=""width: 300px; height: auto;"">
        </div>
        <div style=""text-align: center; margin-left: 20px;"">
          <p style=""font-size: 24px; font-weight: bold;"">Event 2</p>
          <img src=""images/causal/restaurant_scheme/restaurant_scheme_5.png"" style=""width: 300px; height: auto;"">
        </div>
      </div>
      <p style=""text-align: center; margin-top: 20px;"">Does Event 1 lead to Event 2?</p>","1","8","5","true","dog_causal"
"","","","","","html-button-response","83","658196","0.0-83.0","","5195","
      <div style=""display: flex; justify-content: center; align-items: center;"">
        <div style=""text-align: center; margin-right: 20px;"">
          <p style=""font-size: 24px; font-weight: bold;"">Event 1</p>
          <img src=""images/causal/museum_causal/museum_causal_8.png"" style=""width: 300px; height: auto;"">
        </div>
        <div style=""text-align: center; margin-left: 20px;"">
          <p style=""font-size: 24px; font-weight: bold;"">Event 2</p>
          <img src=""images/causal/museum_causal/museum_causal_4.png"" style=""width: 300px; height: auto;"">
        </div>
      </div>
      <p style=""text-align: center; margin-top: 20px;"">Does Event 1 lead to Event 2?</p>","0","8","4","true","museum_causal"
"","","","","","html-button-response","84","663549","0.0-84.0","","5351","
      <div style=""display: flex; justify-content: center; align-items: center;"">
        <div style=""text-align: center; margin-right: 20px;"">
          <p style=""font-size: 24px; font-weight: bold;"">Event 1</p>
          <img src=""images/causal/housework_semantic/housework_semantic_7.png"" style=""width: 300px; height: auto;"">
        </div>
        <div style=""text-align: center; margin-left: 20px;"">
          <p style=""font-size: 24px; font-weight: bold;"">Event 2</p>
          <img src=""images/causal/housework_semantic/housework_semantic_2.png"" style=""width: 300px; height: auto;"">
        </div>
      </div>
      <p style=""text-align: center; margin-top: 20px;"">Does Event 1 lead to Event 2?</p>","2","7","2","true","housework_semantic"
"","","","","","html-button-response","85","668912","0.0-85.0","","5357","
      <div style=""display: flex; justify-content: center; align-items: center;"">
        <div style=""text-align: center; margin-right: 20px;"">
          <p style=""font-size: 24px; font-weight: bold;"">Event 1</p>
          <img src=""images/causal/museum_causal/museum_causal_3.png"" style=""width: 300px; height: auto;"">
        </div>
        <div style=""text-align: center; margin-left: 20px;"">
          <p style=""font-size: 24px; font-weight: bold;"">Event 2</p>
          <img src=""images/causal/museum_causal/museum_causal_4.png"" style=""width: 300px; height: auto;"">
        </div>
      </div>
      <p style=""text-align: center; margin-top: 20px;"">Does Event 1 lead to Event 2?</p>","0","3","4","true","museum_causal"
"","","","","","html-button-response","86","675036","0.0-86.0","","6119","
      <div style=""display: flex; justify-content: center; align-items: center;"">
        <div style=""text-align: center; margin-right: 20px;"">
          <p style=""font-size: 24px; font-weight: bold;"">Event 1</p>
          <img src=""images/causal/housework_semantic/housework_semantic_1.png"" style=""width: 300px; height: auto;"">
        </div>
        <div style=""text-align: center; margin-left: 20px;"">
          <p style=""font-size: 24px; font-weight: bold;"">Event 2</p>
          <img src=""images/causal/housework_semantic/housework_semantic_3.png"" style=""width: 300px; height: auto;"">
        </div>
      </div>
      <p style=""text-align: center; margin-top: 20px;"">Does Event 1 lead to Event 2?</p>","0","1","3","true","housework_semantic"
"","","","","","html-button-response","87","680718","0.0-87.0","","5681","
      <div style=""display: flex; justify-content: center; align-items: center;"">
        <div style=""text-align: center; margin-right: 20px;"">
          <p style=""font-size: 24px; font-weight: bold;"">Event 1</p>
          <img src=""images/causal/housework_semantic/housework_semantic_9.png"" style=""width: 300px; height: auto;"">
        </div>
        <div style=""text-align: center; margin-left: 20px;"">
          <p style=""font-size: 24px; font-weight: bold;"">Event 2</p>
          <img src=""images/causal/housework_semantic/housework_semantic_6.png"" style=""width: 300px; height: auto;"">
        </div>
      </div>
      <p style=""text-align: center; margin-top: 20px;"">Does Event 1 lead to Event 2?</p>","2","9","6","true","housework_semantic"
"","","","","","html-button-response","88","686277","0.0-88.0","","5555","
      <div style=""display: flex; justify-content: center; align-items: center;"">
        <div style=""text-align: center; margin-right: 20px;"">
          <p style=""font-size: 24px; font-weight: bold;"">Event 1</p>
          <img src=""images/causal/museum_causal/museum_causal_3.png"" style=""width: 300px; height: auto;"">
        </div>
        <div style=""text-align: center; margin-left: 20px;"">
          <p style=""font-size: 24px; font-weight: bold;"">Event 2</p>
          <img src=""images/causal/museum_causal/museum_causal_2.png"" style=""width: 300px; height: auto;"">
        </div>
      </div>
      <p style=""text-align: center; margin-top: 20px;"">Does Event 1 lead to Event 2?</p>","1","3","2","true","museum_causal"
"","","","","","html-button-response","89","693181","0.0-89.0","","6899","
      <div style=""display: flex; justify-content: center; align-items: center;"">
        <div style=""text-align: center; margin-right: 20px;"">
          <p style=""font-size: 24px; font-weight: bold;"">Event 1</p>
          <img src=""images/causal/museum_causal/museum_causal_7.png"" style=""width: 300px; height: auto;"">
        </div>
        <div style=""text-align: center; margin-left: 20px;"">
          <p style=""font-size: 24px; font-weight: bold;"">Event 2</p>
          <img src=""images/causal/museum_causal/museum_causal_5.png"" style=""width: 300px; height: auto;"">
        </div>
      </div>
      <p style=""text-align: center; margin-top: 20px;"">Does Event 1 lead to Event 2?</p>","1","7","5","true","museum_causal"
"","","","","","html-button-response","90","706109","0.0-90.0","","12925","
      <div style=""display: flex; justify-content: center; align-items: center;"">
        <div style=""text-align: center; margin-right: 20px;"">
          <p style=""font-size: 24px; font-weight: bold;"">Event 1</p>
          <img src=""images/causal/restaurant_scheme/restaurant_scheme_1.png"" style=""width: 300px; height: auto;"">
        </div>
        <div style=""text-align: center; margin-left: 20px;"">
          <p style=""font-size: 24px; font-weight: bold;"">Event 2</p>
          <img src=""images/causal/restaurant_scheme/restaurant_scheme_10.png"" style=""width: 300px; height: auto;"">
        </div>
      </div>
      <p style=""text-align: center; margin-top: 20px;"">Does Event 1 lead to Event 2?</p>","0","1","10","true","dog_causal"
"","","","","","html-button-response","91","714485","0.0-91.0","","8373","
      <div style=""display: flex; justify-content: center; align-items: center;"">
        <div style=""text-align: center; margin-right: 20px;"">
          <p style=""font-size: 24px; font-weight: bold;"">Event 1</p>
          <img src=""images/causal/housework_semantic/housework_semantic_2.png"" style=""width: 300px; height: auto;"">
        </div>
        <div style=""text-align: center; margin-left: 20px;"">
          <p style=""font-size: 24px; font-weight: bold;"">Event 2</p>
          <img src=""images/causal/housework_semantic/housework_semantic_6.png"" style=""width: 300px; height: auto;"">
        </div>
      </div>
      <p style=""text-align: center; margin-top: 20px;"">Does Event 1 lead to Event 2?</p>","2","2","6","true","housework_semantic"
"","","","","","html-button-response","92","719813","0.0-92.0","","5325","
      <div style=""display: flex; justify-content: center; align-items: center;"">
        <div style=""text-align: center; margin-right: 20px;"">
          <p style=""font-size: 24px; font-weight: bold;"">Event 1</p>
          <img src=""images/causal/housework_semantic/housework_semantic_2.png"" style=""width: 300px; height: auto;"">
        </div>
        <div style=""text-align: center; margin-left: 20px;"">
          <p style=""font-size: 24px; font-weight: bold;"">Event 2</p>
          <img src=""images/causal/housework_semantic/housework_semantic_8.png"" style=""width: 300px; height: auto;"">
        </div>
      </div>
      <p style=""text-align: center; margin-top: 20px;"">Does Event 1 lead to Event 2?</p>","1","2","8","true","housework_semantic"
"","","","","","html-button-response","93","725189","0.0-93.0","","5370","
      <div style=""display: flex; justify-content: center; align-items: center;"">
        <div style=""text-align: center; margin-right: 20px;"">
          <p style=""font-size: 24px; font-weight: bold;"">Event 1</p>
          <img src=""images/causal/housework_semantic/housework_semantic_2.png"" style=""width: 300px; height: auto;"">
        </div>
        <div style=""text-align: center; margin-left: 20px;"">
          <p style=""font-size: 24px; font-weight: bold;"">Event 2</p>
          <img src=""images/causal/housework_semantic/housework_semantic_3.png"" style=""width: 300px; height: auto;"">
        </div>
      </div>
      <p style=""text-align: center; margin-top: 20px;"">Does Event 1 lead to Event 2?</p>","1","2","3","true","housework_semantic"
"","","","","","html-button-response","94","730685","0.0-94.0","","5491","
      <div style=""display: flex; justify-content: center; align-items: center;"">
        <div style=""text-align: center; margin-right: 20px;"">
          <p style=""font-size: 24px; font-weight: bold;"">Event 1</p>
          <img src=""images/causal/restaurant_scheme/restaurant_scheme_3.png"" style=""width: 300px; height: auto;"">
        </div>
        <div style=""text-align: center; margin-left: 20px;"">
          <p style=""font-size: 24px; font-weight: bold;"">Event 2</p>
          <img src=""images/causal/restaurant_scheme/restaurant_scheme_4.png"" style=""width: 300px; height: auto;"">
        </div>
      </div>
      <p style=""text-align: center; margin-top: 20px;"">Does Event 1 lead to Event 2?</p>","0","3","4","true","dog_causal"
"","","","","","html-button-response","95","741340","0.0-95.0","","10652","
      <div style=""display: flex; justify-content: center; align-items: center;"">
        <div style=""text-align: center; margin-right: 20px;"">
          <p style=""font-size: 24px; font-weight: bold;"">Event 1</p>
          <img src=""images/causal/museum_causal/museum_causal_2.png"" style=""width: 300px; height: auto;"">
        </div>
        <div style=""text-align: center; margin-left: 20px;"">
          <p style=""font-size: 24px; font-weight: bold;"">Event 2</p>
          <img src=""images/causal/museum_causal/museum_causal_8.png"" style=""width: 300px; height: auto;"">
        </div>
      </div>
      <p style=""text-align: center; margin-top: 20px;"">Does Event 1 lead to Event 2?</p>","1","2","8","true","museum_causal"
"","","","","","html-button-response","96","746876","0.0-96.0","","5534","
      <div style=""display: flex; justify-content: center; align-items: center;"">
        <div style=""text-align: center; margin-right: 20px;"">
          <p style=""font-size: 24px; font-weight: bold;"">Event 1</p>
          <img src=""images/causal/housework_semantic/housework_semantic_10.png"" style=""width: 300px; height: auto;"">
        </div>
        <div style=""text-align: center; margin-left: 20px;"">
          <p style=""font-size: 24px; font-weight: bold;"">Event 2</p>
          <img src=""images/causal/housework_semantic/housework_semantic_9.png"" style=""width: 300px; height: auto;"">
        </div>
      </div>
      <p style=""text-align: center; margin-top: 20px;"">Does Event 1 lead to Event 2?</p>","2","10","9","true","housework_semantic"
"","","","","","html-button-response","97","752237","0.0-97.0","","5357","
      <div style=""display: flex; justify-content: center; align-items: center;"">
        <div style=""text-align: center; margin-right: 20px;"">
          <p style=""font-size: 24px; font-weight: bold;"">Event 1</p>
          <img src=""images/causal/museum_causal/museum_causal_6.png"" style=""width: 300px; height: auto;"">
        </div>
        <div style=""text-align: center; margin-left: 20px;"">
          <p style=""font-size: 24px; font-weight: bold;"">Event 2</p>
          <img src=""images/causal/museum_causal/museum_causal_7.png"" style=""width: 300px; height: auto;"">
        </div>
      </div>
      <p style=""text-align: center; margin-top: 20px;"">Does Event 1 lead to Event 2?</p>","0","6","7","true","museum_causal"
"","","","","","html-button-response","98","759069","0.0-98.0","","6829","
      <div style=""display: flex; justify-content: center; align-items: center;"">
        <div style=""text-align: center; margin-right: 20px;"">
          <p style=""font-size: 24px; font-weight: bold;"">Event 1</p>
          <img src=""images/causal/museum_causal/museum_causal_1.png"" style=""width: 300px; height: auto;"">
        </div>
        <div style=""text-align: center; margin-left: 20px;"">
          <p style=""font-size: 24px; font-weight: bold;"">Event 2</p>
          <img src=""images/causal/museum_causal/museum_causal_7.png"" style=""width: 300px; height: auto;"">
        </div>
      </div>
      <p style=""text-align: center; margin-top: 20px;"">Does Event 1 lead to Event 2?</p>","0","1","7","true","museum_causal"
"","","","","","html-button-response","99","765021","0.0-99.0","","5949","
      <div style=""display: flex; justify-content: center; align-items: center;"">
        <div style=""text-align: center; margin-right: 20px;"">
          <p style=""font-size: 24px; font-weight: bold;"">Event 1</p>
          <img src=""images/causal/museum_causal/museum_causal_1.png"" style=""width: 300px; height: auto;"">
        </div>
        <div style=""text-align: center; margin-left: 20px;"">
          <p style=""font-size: 24px; font-weight: bold;"">Event 2</p>
          <img src=""images/causal/museum_causal/museum_causal_2.png"" style=""width: 300px; height: auto;"">
        </div>
      </div>
      <p style=""text-align: center; margin-top: 20px;"">Does Event 1 lead to Event 2?</p>","0","1","2","true","museum_causal"
"","","","","","html-button-response","100","770523","0.0-100.0","","5499","
      <div style=""display: flex; justify-content: center; align-items: center;"">
        <div style=""text-align: center; margin-right: 20px;"">
          <p style=""font-size: 24px; font-weight: bold;"">Event 1</p>
          <img src=""images/causal/restaurant_scheme/restaurant_scheme_3.png"" style=""width: 300px; height: auto;"">
        </div>
        <div style=""text-align: center; margin-left: 20px;"">
          <p style=""font-size: 24px; font-weight: bold;"">Event 2</p>
          <img src=""images/causal/restaurant_scheme/restaurant_scheme_8.png"" style=""width: 300px; height: auto;"">
        </div>
      </div>
      <p style=""text-align: center; margin-top: 20px;"">Does Event 1 lead to Event 2?</p>","0","3","8","true","dog_causal"
"","","","","","html-button-response","101","776101","0.0-101.0","","5574","
      <div style=""display: flex; justify-content: center; align-items: center;"">
        <div style=""text-align: center; margin-right: 20px;"">
          <p style=""font-size: 24px; font-weight: bold;"">Event 1</p>
          <img src=""images/causal/museum_causal/museum_causal_8.png"" style=""width: 300px; height: auto;"">
        </div>
        <div style=""text-align: center; margin-left: 20px;"">
          <p style=""font-size: 24px; font-weight: bold;"">Event 2</p>
          <img src=""images/causal/museum_causal/museum_causal_7.png"" style=""width: 300px; height: auto;"">
        </div>
      </div>
      <p style=""text-align: center; margin-top: 20px;"">Does Event 1 lead to Event 2?</p>","0","8","7","true","museum_causal"
"","","","","","html-button-response","102","781429","0.0-102.0","","5323","
      <div style=""display: flex; justify-content: center; align-items: center;"">
        <div style=""text-align: center; margin-right: 20px;"">
          <p style=""font-size: 24px; font-weight: bold;"">Event 1</p>
          <img src=""images/causal/museum_causal/museum_causal_7.png"" style=""width: 300px; height: auto;"">
        </div>
        <div style=""text-align: center; margin-left: 20px;"">
          <p style=""font-size: 24px; font-weight: bold;"">Event 2</p>
          <img src=""images/causal/museum_causal/museum_causal_3.png"" style=""width: 300px; height: auto;"">
        </div>
      </div>
      <p style=""text-align: center; margin-top: 20px;"">Does Event 1 lead to Event 2?</p>","1","7","3","true","museum_causal"
"","","","","","html-button-response","103","786739","0.0-103.0","","5308","
      <div style=""display: flex; justify-content: center; align-items: center;"">
        <div style=""text-align: center; margin-right: 20px;"">
          <p style=""font-size: 24px; font-weight: bold;"">Event 1</p>
          <img src=""images/causal/museum_causal/museum_causal_2.png"" style=""width: 300px; height: auto;"">
        </div>
        <div style=""text-align: center; margin-left: 20px;"">
          <p style=""font-size: 24px; font-weight: bold;"">Event 2</p>
          <img src=""images/causal/museum_causal/museum_causal_9.png"" style=""width: 300px; height: auto;"">
        </div>
      </div>
      <p style=""text-align: center; margin-top: 20px;"">Does Event 1 lead to Event 2?</p>","2","2","9","true","museum_causal"
"","","","","","html-button-response","104","795412","0.0-104.0","","8673","
      <div style=""display: flex; justify-content: center; align-items: center;"">
        <div style=""text-align: center; margin-right: 20px;"">
          <p style=""font-size: 24px; font-weight: bold;"">Event 1</p>
          <img src=""images/causal/museum_causal/museum_causal_4.png"" style=""width: 300px; height: auto;"">
        </div>
        <div style=""text-align: center; margin-left: 20px;"">
          <p style=""font-size: 24px; font-weight: bold;"">Event 2</p>
          <img src=""images/causal/museum_causal/museum_causal_9.png"" style=""width: 300px; height: auto;"">
        </div>
      </div>
      <p style=""text-align: center; margin-top: 20px;"">Does Event 1 lead to Event 2?</p>","0","4","9","true","museum_causal"
"","","","","","html-button-response","105","800757","0.0-105.0","","5343","
      <div style=""display: flex; justify-content: center; align-items: center;"">
        <div style=""text-align: center; margin-right: 20px;"">
          <p style=""font-size: 24px; font-weight: bold;"">Event 1</p>
          <img src=""images/causal/restaurant_scheme/restaurant_scheme_4.png"" style=""width: 300px; height: auto;"">
        </div>
        <div style=""text-align: center; margin-left: 20px;"">
          <p style=""font-size: 24px; font-weight: bold;"">Event 2</p>
          <img src=""images/causal/restaurant_scheme/restaurant_scheme_7.png"" style=""width: 300px; height: auto;"">
        </div>
      </div>
      <p style=""text-align: center; margin-top: 20px;"">Does Event 1 lead to Event 2?</p>","0","4","7","true","dog_causal"
"","","","","","html-button-response","106","806973","0.0-106.0","","6214","
      <div style=""display: flex; justify-content: center; align-items: center;"">
        <div style=""text-align: center; margin-right: 20px;"">
          <p style=""font-size: 24px; font-weight: bold;"">Event 1</p>
          <img src=""images/causal/housework_semantic/housework_semantic_8.png"" style=""width: 300px; height: auto;"">
        </div>
        <div style=""text-align: center; margin-left: 20px;"">
          <p style=""font-size: 24px; font-weight: bold;"">Event 2</p>
          <img src=""images/causal/housework_semantic/housework_semantic_5.png"" style=""width: 300px; height: auto;"">
        </div>
      </div>
      <p style=""text-align: center; margin-top: 20px;"">Does Event 1 lead to Event 2?</p>","2","8","5","true","housework_semantic"
"","","","","","html-button-response","107","812293","0.0-107.0","","5317","
      <div style=""display: flex; justify-content: center; align-items: center;"">
        <div style=""text-align: center; margin-right: 20px;"">
          <p style=""font-size: 24px; font-weight: bold;"">Event 1</p>
          <img src=""images/causal/housework_semantic/housework_semantic_3.png"" style=""width: 300px; height: auto;"">
        </div>
        <div style=""text-align: center; margin-left: 20px;"">
          <p style=""font-size: 24px; font-weight: bold;"">Event 2</p>
          <img src=""images/causal/housework_semantic/housework_semantic_10.png"" style=""width: 300px; height: auto;"">
        </div>
      </div>
      <p style=""text-align: center; margin-top: 20px;"">Does Event 1 lead to Event 2?</p>","0","3","10","true","housework_semantic"
"","","","","","html-button-response","108","827004","0.0-108.0","","14708","
      <div style=""display: flex; justify-content: center; align-items: center;"">
        <div style=""text-align: center; margin-right: 20px;"">
          <p style=""font-size: 24px; font-weight: bold;"">Event 1</p>
          <img src=""images/causal/housework_semantic/housework_semantic_4.png"" style=""width: 300px; height: auto;"">
        </div>
        <div style=""text-align: center; margin-left: 20px;"">
          <p style=""font-size: 24px; font-weight: bold;"">Event 2</p>
          <img src=""images/causal/housework_semantic/housework_semantic_7.png"" style=""width: 300px; height: auto;"">
        </div>
      </div>
      <p style=""text-align: center; margin-top: 20px;"">Does Event 1 lead to Event 2?</p>","0","4","7","true","housework_semantic"
"","","","","","html-button-response","109","833149","0.0-109.0","","6141","
      <div style=""display: flex; justify-content: center; align-items: center;"">
        <div style=""text-align: center; margin-right: 20px;"">
          <p style=""font-size: 24px; font-weight: bold;"">Event 1</p>
          <img src=""images/causal/museum_causal/museum_causal_6.png"" style=""width: 300px; height: auto;"">
        </div>
        <div style=""text-align: center; margin-left: 20px;"">
          <p style=""font-size: 24px; font-weight: bold;"">Event 2</p>
          <img src=""images/causal/museum_causal/museum_causal_9.png"" style=""width: 300px; height: auto;"">
        </div>
      </div>
      <p style=""text-align: center; margin-top: 20px;"">Does Event 1 lead to Event 2?</p>","0","6","9","true","museum_causal"
"","","","","","html-button-response","110","848116","0.0-110.0","","14965","
      <div style=""display: flex; justify-content: center; align-items: center;"">
        <div style=""text-align: center; margin-right: 20px;"">
          <p style=""font-size: 24px; font-weight: bold;"">Event 1</p>
          <img src=""images/causal/museum_causal/museum_causal_4.png"" style=""width: 300px; height: auto;"">
        </div>
        <div style=""text-align: center; margin-left: 20px;"">
          <p style=""font-size: 24px; font-weight: bold;"">Event 2</p>
          <img src=""images/causal/museum_causal/museum_causal_7.png"" style=""width: 300px; height: auto;"">
        </div>
      </div>
      <p style=""text-align: center; margin-top: 20px;"">Does Event 1 lead to Event 2?</p>","1","4","7","true","museum_causal"
"","","","","","html-button-response","111","854693","0.0-111.0","","6574","
      <div style=""display: flex; justify-content: center; align-items: center;"">
        <div style=""text-align: center; margin-right: 20px;"">
          <p style=""font-size: 24px; font-weight: bold;"">Event 1</p>
          <img src=""images/causal/housework_semantic/housework_semantic_5.png"" style=""width: 300px; height: auto;"">
        </div>
        <div style=""text-align: center; margin-left: 20px;"">
          <p style=""font-size: 24px; font-weight: bold;"">Event 2</p>
          <img src=""images/causal/housework_semantic/housework_semantic_9.png"" style=""width: 300px; height: auto;"">
        </div>
      </div>
      <p style=""text-align: center; margin-top: 20px;"">Does Event 1 lead to Event 2?</p>","2","5","9","true","housework_semantic"
"","","","","","html-button-response","112","860149","0.0-112.0","","5453","
      <div style=""display: flex; justify-content: center; align-items: center;"">
        <div style=""text-align: center; margin-right: 20px;"">
          <p style=""font-size: 24px; font-weight: bold;"">Event 1</p>
          <img src=""images/causal/restaurant_scheme/restaurant_scheme_5.png"" style=""width: 300px; height: auto;"">
        </div>
        <div style=""text-align: center; margin-left: 20px;"">
          <p style=""font-size: 24px; font-weight: bold;"">Event 2</p>
          <img src=""images/causal/restaurant_scheme/restaurant_scheme_10.png"" style=""width: 300px; height: auto;"">
        </div>
      </div>
      <p style=""text-align: center; margin-top: 20px;"">Does Event 1 lead to Event 2?</p>","0","5","10","true","dog_causal"
"","","","","","html-button-response","113","865533","0.0-113.0","","5380","
      <div style=""display: flex; justify-content: center; align-items: center;"">
        <div style=""text-align: center; margin-right: 20px;"">
          <p style=""font-size: 24px; font-weight: bold;"">Event 1</p>
          <img src=""images/causal/museum_causal/museum_causal_10.png"" style=""width: 300px; height: auto;"">
        </div>
        <div style=""text-align: center; margin-left: 20px;"">
          <p style=""font-size: 24px; font-weight: bold;"">Event 2</p>
          <img src=""images/causal/museum_causal/museum_causal_5.png"" style=""width: 300px; height: auto;"">
        </div>
      </div>
      <p style=""text-align: center; margin-top: 20px;"">Does Event 1 lead to Event 2?</p>","1","10","5","true","museum_causal"
"","","","","","html-button-response","114","871046","0.0-114.0","","5508","
      <div style=""display: flex; justify-content: center; align-items: center;"">
        <div style=""text-align: center; margin-right: 20px;"">
          <p style=""font-size: 24px; font-weight: bold;"">Event 1</p>
          <img src=""images/causal/restaurant_scheme/restaurant_scheme_6.png"" style=""width: 300px; height: auto;"">
        </div>
        <div style=""text-align: center; margin-left: 20px;"">
          <p style=""font-size: 24px; font-weight: bold;"">Event 2</p>
          <img src=""images/causal/restaurant_scheme/restaurant_scheme_7.png"" style=""width: 300px; height: auto;"">
        </div>
      </div>
      <p style=""text-align: center; margin-top: 20px;"">Does Event 1 lead to Event 2?</p>","0","6","7","true","dog_causal"
"","","","","","html-button-response","115","876373","0.0-115.0","","5324","
      <div style=""display: flex; justify-content: center; align-items: center;"">
        <div style=""text-align: center; margin-right: 20px;"">
          <p style=""font-size: 24px; font-weight: bold;"">Event 1</p>
          <img src=""images/causal/restaurant_scheme/restaurant_scheme_4.png"" style=""width: 300px; height: auto;"">
        </div>
        <div style=""text-align: center; margin-left: 20px;"">
          <p style=""font-size: 24px; font-weight: bold;"">Event 2</p>
          <img src=""images/causal/restaurant_scheme/restaurant_scheme_8.png"" style=""width: 300px; height: auto;"">
        </div>
      </div>
      <p style=""text-align: center; margin-top: 20px;"">Does Event 1 lead to Event 2?</p>","0","4","8","true","dog_causal"
"","","","","","html-button-response","116","881677","0.0-116.0","","5302","
      <div style=""display: flex; justify-content: center; align-items: center;"">
        <div style=""text-align: center; margin-right: 20px;"">
          <p style=""font-size: 24px; font-weight: bold;"">Event 1</p>
          <img src=""images/causal/restaurant_scheme/restaurant_scheme_9.png"" style=""width: 300px; height: auto;"">
        </div>
        <div style=""text-align: center; margin-left: 20px;"">
          <p style=""font-size: 24px; font-weight: bold;"">Event 2</p>
          <img src=""images/causal/restaurant_scheme/restaurant_scheme_7.png"" style=""width: 300px; height: auto;"">
        </div>
      </div>
      <p style=""text-align: center; margin-top: 20px;"">Does Event 1 lead to Event 2?</p>","1","9","7","true","dog_causal"
"","","","","","html-button-response","117","887020","0.0-117.0","","5341","
      <div style=""display: flex; justify-content: center; align-items: center;"">
        <div style=""text-align: center; margin-right: 20px;"">
          <p style=""font-size: 24px; font-weight: bold;"">Event 1</p>
          <img src=""images/causal/housework_semantic/housework_semantic_10.png"" style=""width: 300px; height: auto;"">
        </div>
        <div style=""text-align: center; margin-left: 20px;"">
          <p style=""font-size: 24px; font-weight: bold;"">Event 2</p>
          <img src=""images/causal/housework_semantic/housework_semantic_7.png"" style=""width: 300px; height: auto;"">
        </div>
      </div>
      <p style=""text-align: center; margin-top: 20px;"">Does Event 1 lead to Event 2?</p>","2","10","7","true","housework_semantic"
"","","","","","html-button-response","118","892560","0.0-118.0","","5536","
      <div style=""display: flex; justify-content: center; align-items: center;"">
        <div style=""text-align: center; margin-right: 20px;"">
          <p style=""font-size: 24px; font-weight: bold;"">Event 1</p>
          <img src=""images/causal/restaurant_scheme/restaurant_scheme_3.png"" style=""width: 300px; height: auto;"">
        </div>
        <div style=""text-align: center; margin-left: 20px;"">
          <p style=""font-size: 24px; font-weight: bold;"">Event 2</p>
          <img src=""images/causal/restaurant_scheme/restaurant_scheme_2.png"" style=""width: 300px; height: auto;"">
        </div>
      </div>
      <p style=""text-align: center; margin-top: 20px;"">Does Event 1 lead to Event 2?</p>","1","3","2","true","dog_causal"
"","","","","","html-button-response","119","898269","0.0-119.0","","5707","
      <div style=""display: flex; justify-content: center; align-items: center;"">
        <div style=""text-align: center; margin-right: 20px;"">
          <p style=""font-size: 24px; font-weight: bold;"">Event 1</p>
          <img src=""images/causal/housework_semantic/housework_semantic_3.png"" style=""width: 300px; height: auto;"">
        </div>
        <div style=""text-align: center; margin-left: 20px;"">
          <p style=""font-size: 24px; font-weight: bold;"">Event 2</p>
          <img src=""images/causal/housework_semantic/housework_semantic_8.png"" style=""width: 300px; height: auto;"">
        </div>
      </div>
      <p style=""text-align: center; margin-top: 20px;"">Does Event 1 lead to Event 2?</p>","2","3","8","true","housework_semantic"
"","","","","","html-button-response","120","903836","0.0-120.0","","5565","
      <div style=""display: flex; justify-content: center; align-items: center;"">
        <div style=""text-align: center; margin-right: 20px;"">
          <p style=""font-size: 24px; font-weight: bold;"">Event 1</p>
          <img src=""images/causal/housework_semantic/housework_semantic_1.png"" style=""width: 300px; height: auto;"">
        </div>
        <div style=""text-align: center; margin-left: 20px;"">
          <p style=""font-size: 24px; font-weight: bold;"">Event 2</p>
          <img src=""images/causal/housework_semantic/housework_semantic_9.png"" style=""width: 300px; height: auto;"">
        </div>
      </div>
      <p style=""text-align: center; margin-top: 20px;"">Does Event 1 lead to Event 2?</p>","1","1","9","true","housework_semantic"
"","","","","","html-button-response","121","909533","0.0-121.0","","5692","
      <div style=""display: flex; justify-content: center; align-items: center;"">
        <div style=""text-align: center; margin-right: 20px;"">
          <p style=""font-size: 24px; font-weight: bold;"">Event 1</p>
          <img src=""images/causal/museum_causal/museum_causal_8.png"" style=""width: 300px; height: auto;"">
        </div>
        <div style=""text-align: center; margin-left: 20px;"">
          <p style=""font-size: 24px; font-weight: bold;"">Event 2</p>
          <img src=""images/causal/museum_causal/museum_causal_3.png"" style=""width: 300px; height: auto;"">
        </div>
      </div>
      <p style=""text-align: center; margin-top: 20px;"">Does Event 1 lead to Event 2?</p>","1","8","3","true","museum_causal"
"","","","","","html-button-response","122","915789","0.0-122.0","","6252","
      <div style=""display: flex; justify-content: center; align-items: center;"">
        <div style=""text-align: center; margin-right: 20px;"">
          <p style=""font-size: 24px; font-weight: bold;"">Event 1</p>
