"success","timeout","failed_images","failed_audio","failed_video","trial_type","trial_index","time_elapsed","internal_node_id","subject","subject_id","study_id","session_id","urlvar","current_url","view_history","rt","stimulus","response","choice","question_order"
"true","false","[]","[]","[]","preload","0","485","0.0-0.0","0D0029E3C6C042EB8224BD7A522F4EBF","0D0029E3C6C042EB8224BD7A522F4EBF","b9e84846-34dd-4a9a-ba2e-67f3dd71e5c2","bea99957-1862-4ad8-9558-57b91e42ce64","{""participantId"":""0D0029E3C6C042EB8224BD7A522F4EBF"",""assignmentId"":""b9e84846-34dd-4a9a-ba2e-67f3dd71e5c2"",""projectId"":""bea99957-1862-4ad8-9558-57b91e42ce64""}","https://test12345.live/?participantId=0D0029E3C6C042EB8224BD7A522F4EBF&assignmentId=b9e84846-34dd-4a9a-ba2e-67f3dd71e5c2&projectId=bea99957-1862-4ad8-9558-57b91e42ce64","","","","","",""
"","","","","","instructions","1","5472","0.0-1.0","0D0029E3C6C042EB8224BD7A522F4EBF","0D0029E3C6C042EB8224BD7A522F4EBF","b9e84846-34dd-4a9a-ba2e-67f3dd71e5c2","bea99957-1862-4ad8-9558-57b91e42ce64","{""participantId"":""0D0029E3C6C042EB8224BD7A522F4EBF"",""assignmentId"":""b9e84846-34dd-4a9a-ba2e-67f3dd71e5c2"",""projectId"":""bea99957-1862-4ad8-9558-57b91e42ce64""}","https://test12345.live/?participantId=0D0029E3C6C042EB8224BD7A522F4EBF&assignmentId=b9e84846-34dd-4a9a-ba2e-67f3dd71e5c2&projectId=bea99957-1862-4ad8-9558-57b91e42ce64","[{""page_index"":0,""viewing_time"":4986}]","4986","","","",""
"","","","","","instructions","2","10228","0.0-2.0","0D0029E3C6C042EB8224BD7A522F4EBF","0D0029E3C6C042EB8224BD7A522F4EBF","b9e84846-34dd-4a9a-ba2e-67f3dd71e5c2","bea99957-1862-4ad8-9558-57b91e42ce64","{""participantId"":""0D0029E3C6C042EB8224BD7A522F4EBF"",""assignmentId"":""b9e84846-34dd-4a9a-ba2e-67f3dd71e5c2"",""projectId"":""bea99957-1862-4ad8-9558-57b91e42ce64""}","https://test12345.live/?participantId=0D0029E3C6C042EB8224BD7A522F4EBF&assignmentId=b9e84846-34dd-4a9a-ba2e-67f3dd71e5c2&projectId=bea99957-1862-4ad8-9558-57b91e42ce64","[{""page_index"":0,""viewing_time"":4755}]","4755","","","",""
"true","","","","","fullscreen","3","18444","0.0-3.0","0D0029E3C6C042EB8224BD7A522F4EBF","0D0029E3C6C042EB8224BD7A522F4EBF","b9e84846-34dd-4a9a-ba2e-67f3dd71e5c2","bea99957-1862-4ad8-9558-57b91e42ce64","{""participantId"":""0D0029E3C6C042EB8224BD7A522F4EBF"",""assignmentId"":""b9e84846-34dd-4a9a-ba2e-67f3dd71e5c2"",""projectId"":""bea99957-1862-4ad8-9558-57b91e42ce64""}","https://test12345.live/?participantId=0D0029E3C6C042EB8224BD7A522F4EBF&assignmentId=b9e84846-34dd-4a9a-ba2e-67f3dd71e5c2&projectId=bea99957-1862-4ad8-9558-57b91e42ce64","","7210","","","",""
"","","","","","instructions","4","75576","0.0-4.0","0D0029E3C6C042EB8224BD7A522F4EBF","0D0029E3C6C042EB8224BD7A522F4EBF","b9e84846-34dd-4a9a-ba2e-67f3dd71e5c2","bea99957-1862-4ad8-9558-57b91e42ce64","{""participantId"":""0D0029E3C6C042EB8224BD7A522F4EBF"",""assignmentId"":""b9e84846-34dd-4a9a-ba2e-67f3dd71e5c2"",""projectId"":""bea99957-1862-4ad8-9558-57b91e42ce64""}","https://test12345.live/?participantId=0D0029E3C6C042EB8224BD7A522F4EBF&assignmentId=b9e84846-34dd-4a9a-ba2e-67f3dd71e5c2&projectId=bea99957-1862-4ad8-9558-57b91e42ce64","[{""page_index"":0,""viewing_time"":57132}]","57132","","","",""
"","","","","","html-button-response","5","77763","0.0-5.0","0D0029E3C6C042EB8224BD7A522F4EBF","0D0029E3C6C042EB8224BD7A522F4EBF","b9e84846-34dd-4a9a-ba2e-67f3dd71e5c2","bea99957-1862-4ad8-9558-57b91e42ce64","{""participantId"":""0D0029E3C6C042EB8224BD7A522F4EBF"",""assignmentId"":""b9e84846-34dd-4a9a-ba2e-67f3dd71e5c2"",""projectId"":""bea99957-1862-4ad8-9558-57b91e42ce64""}","https://test12345.live/?participantId=0D0029E3C6C042EB8224BD7A522F4EBF&assignmentId=b9e84846-34dd-4a9a-ba2e-67f3dd71e5c2&projectId=bea99957-1862-4ad8-9558-57b91e42ce64","","2185","
    <div style=""display: flex; justify-content: center; align-items: center;"">
      <img src=""images/red_deck_2.png"" style=""width: 300px; height: 300px; margin-right: 10px;"" />
      <img src=""images/blue_deck_1.png"" style=""width: 300px; height: 300px;"" />
    </div>","1","1",""
"","","","","","html-keyboard-response","6","80766","0.0-6.0-0.0","0D0029E3C6C042EB8224BD7A522F4EBF","0D0029E3C6C042EB8224BD7A522F4EBF","b9e84846-34dd-4a9a-ba2e-67f3dd71e5c2","bea99957-1862-4ad8-9558-57b91e42ce64","{""participantId"":""0D0029E3C6C042EB8224BD7A522F4EBF"",""assignmentId"":""b9e84846-34dd-4a9a-ba2e-67f3dd71e5c2"",""projectId"":""bea99957-1862-4ad8-9558-57b91e42ce64""}","https://test12345.live/?participantId=0D0029E3C6C042EB8224BD7A522F4EBF&assignmentId=b9e84846-34dd-4a9a-ba2e-67f3dd71e5c2&projectId=bea99957-1862-4ad8-9558-57b91e42ce64","","null","<div style=""display: flex; justify-content: center; align-items: center;"">
                    <img src=""images/causal/causal_series_4/causal_series_4_a.jpg"" style=""width: 300px; height: 300px;"" />
                  </div>","null","",""
"","","","","","html-keyboard-response","7","83768","0.0-6.0-1.0","0D0029E3C6C042EB8224BD7A522F4EBF","0D0029E3C6C042EB8224BD7A522F4EBF","b9e84846-34dd-4a9a-ba2e-67f3dd71e5c2","bea99957-1862-4ad8-9558-57b91e42ce64","{""participantId"":""0D0029E3C6C042EB8224BD7A522F4EBF"",""assignmentId"":""b9e84846-34dd-4a9a-ba2e-67f3dd71e5c2"",""projectId"":""bea99957-1862-4ad8-9558-57b91e42ce64""}","https://test12345.live/?participantId=0D0029E3C6C042EB8224BD7A522F4EBF&assignmentId=b9e84846-34dd-4a9a-ba2e-67f3dd71e5c2&projectId=bea99957-1862-4ad8-9558-57b91e42ce64","","null","<div style=""display: flex; justify-content: center; align-items: center;"">
                    <img src=""images/causal/causal_series_4/causal_series_4_b.jpg"" style=""width: 300px; height: 300px;"" />
                  </div>","null","",""
"","","","","","html-keyboard-response","8","86770","0.0-6.0-2.0","0D0029E3C6C042EB8224BD7A522F4EBF","0D0029E3C6C042EB8224BD7A522F4EBF","b9e84846-34dd-4a9a-ba2e-67f3dd71e5c2","bea99957-1862-4ad8-9558-57b91e42ce64","{""participantId"":""0D0029E3C6C042EB8224BD7A522F4EBF"",""assignmentId"":""b9e84846-34dd-4a9a-ba2e-67f3dd71e5c2"",""projectId"":""bea99957-1862-4ad8-9558-57b91e42ce64""}","https://test12345.live/?participantId=0D0029E3C6C042EB8224BD7A522F4EBF&assignmentId=b9e84846-34dd-4a9a-ba2e-67f3dd71e5c2&projectId=bea99957-1862-4ad8-9558-57b91e42ce64","","null","<div style=""display: flex; justify-content: center; align-items: center;"">
                    <img src=""images/causal/causal_series_4/causal_series_4_c.jpg"" style=""width: 300px; height: 300px;"" />
                  </div>","null","",""
"","","","","","html-keyboard-response","9","89773","0.0-6.0-3.0","0D0029E3C6C042EB8224BD7A522F4EBF","0D0029E3C6C042EB8224BD7A522F4EBF","b9e84846-34dd-4a9a-ba2e-67f3dd71e5c2","bea99957-1862-4ad8-9558-57b91e42ce64","{""participantId"":""0D0029E3C6C042EB8224BD7A522F4EBF"",""assignmentId"":""b9e84846-34dd-4a9a-ba2e-67f3dd71e5c2"",""projectId"":""bea99957-1862-4ad8-9558-57b91e42ce64""}","https://test12345.live/?participantId=0D0029E3C6C042EB8224BD7A522F4EBF&assignmentId=b9e84846-34dd-4a9a-ba2e-67f3dd71e5c2&projectId=bea99957-1862-4ad8-9558-57b91e42ce64","","null","<div style=""display: flex; justify-content: center; align-items: center;"">
                    <img src=""images/causal/causal_series_4/causal_series_4_d.jpg"" style=""width: 300px; height: 300px;"" />
                  </div>","null","",""
"","","","","","html-button-response","10","91514","0.0-8.0","0D0029E3C6C042EB8224BD7A522F4EBF","0D0029E3C6C042EB8224BD7A522F4EBF","b9e84846-34dd-4a9a-ba2e-67f3dd71e5c2","bea99957-1862-4ad8-9558-57b91e42ce64","{""participantId"":""0D0029E3C6C042EB8224BD7A522F4EBF"",""assignmentId"":""b9e84846-34dd-4a9a-ba2e-67f3dd71e5c2"",""projectId"":""bea99957-1862-4ad8-9558-57b91e42ce64""}","https://test12345.live/?participantId=0D0029E3C6C042EB8224BD7A522F4EBF&assignmentId=b9e84846-34dd-4a9a-ba2e-67f3dd71e5c2&projectId=bea99957-1862-4ad8-9558-57b91e42ce64","","1739","Was there a person in the picture?","1","",""
"","","","","","survey-likert","11","96330","0.0-9.0","0D0029E3C6C042EB8224BD7A522F4EBF","0D0029E3C6C042EB8224BD7A522F4EBF","b9e84846-34dd-4a9a-ba2e-67f3dd71e5c2","bea99957-1862-4ad8-9558-57b91e42ce64","{""participantId"":""0D0029E3C6C042EB8224BD7A522F4EBF"",""assignmentId"":""b9e84846-34dd-4a9a-ba2e-67f3dd71e5c2"",""projectId"":""bea99957-1862-4ad8-9558-57b91e42ce64""}","https://test12345.live/?participantId=0D0029E3C6C042EB8224BD7A522F4EBF&assignmentId=b9e84846-34dd-4a9a-ba2e-67f3dd71e5c2&projectId=bea99957-1862-4ad8-9558-57b91e42ce64","","4812","","{""Q0"":3}","","[0]"
"","","","","","html-button-response","12","97362","0.0-10.0","0D0029E3C6C042EB8224BD7A522F4EBF","0D0029E3C6C042EB8224BD7A522F4EBF","b9e84846-34dd-4a9a-ba2e-67f3dd71e5c2","bea99957-1862-4ad8-9558-57b91e42ce64","{""participantId"":""0D0029E3C6C042EB8224BD7A522F4EBF"",""assignmentId"":""b9e84846-34dd-4a9a-ba2e-67f3dd71e5c2"",""projectId"":""bea99957-1862-4ad8-9558-57b91e42ce64""}","https://test12345.live/?participantId=0D0029E3C6C042EB8224BD7A522F4EBF&assignmentId=b9e84846-34dd-4a9a-ba2e-67f3dd71e5c2&projectId=bea99957-1862-4ad8-9558-57b91e42ce64","","1030","
    <div style=""display: flex; justify-content: center; align-items: center;"">
      <img src=""images/red_deck_2.png"" style=""width: 300px; height: 300px; margin-right: 10px;"" />
      <img src=""images/blue_deck_1.png"" style=""width: 300px; height: 300px;"" />
    </div>","0","0",""
"","","","","","html-keyboard-response","13","100365","0.0-12.0-0.0","0D0029E3C6C042EB8224BD7A522F4EBF","0D0029E3C6C042EB8224BD7A522F4EBF","b9e84846-34dd-4a9a-ba2e-67f3dd71e5c2","bea99957-1862-4ad8-9558-57b91e42ce64","{""participantId"":""0D0029E3C6C042EB8224BD7A522F4EBF"",""assignmentId"":""b9e84846-34dd-4a9a-ba2e-67f3dd71e5c2"",""projectId"":""bea99957-1862-4ad8-9558-57b91e42ce64""}","https://test12345.live/?participantId=0D0029E3C6C042EB8224BD7A522F4EBF&assignmentId=b9e84846-34dd-4a9a-ba2e-67f3dd71e5c2&projectId=bea99957-1862-4ad8-9558-57b91e42ce64","","null","<div style=""display: flex; justify-content: center; align-items: center;"">
                    <img src=""images/semantic/semantic_series_12/semantic_series_12_a.jpg"" style=""width: 300px; height: 300px;"" />
                  </div>","null","",""
"","","","","","html-keyboard-response","14","103368","0.0-12.0-1.0","0D0029E3C6C042EB8224BD7A522F4EBF","0D0029E3C6C042EB8224BD7A522F4EBF","b9e84846-34dd-4a9a-ba2e-67f3dd71e5c2","bea99957-1862-4ad8-9558-57b91e42ce64","{""participantId"":""0D0029E3C6C042EB8224BD7A522F4EBF"",""assignmentId"":""b9e84846-34dd-4a9a-ba2e-67f3dd71e5c2"",""projectId"":""bea99957-1862-4ad8-9558-57b91e42ce64""}","https://test12345.live/?participantId=0D0029E3C6C042EB8224BD7A522F4EBF&assignmentId=b9e84846-34dd-4a9a-ba2e-67f3dd71e5c2&projectId=bea99957-1862-4ad8-9558-57b91e42ce64","","null","<div style=""display: flex; justify-content: center; align-items: center;"">
                    <img src=""images/semantic/semantic_series_12/semantic_series_12_b.jpg"" style=""width: 300px; height: 300px;"" />
                  </div>","null","",""
"","","","","","html-keyboard-response","15","106369","0.0-12.0-2.0","0D0029E3C6C042EB8224BD7A522F4EBF","0D0029E3C6C042EB8224BD7A522F4EBF","b9e84846-34dd-4a9a-ba2e-67f3dd71e5c2","bea99957-1862-4ad8-9558-57b91e42ce64","{""participantId"":""0D0029E3C6C042EB8224BD7A522F4EBF"",""assignmentId"":""b9e84846-34dd-4a9a-ba2e-67f3dd71e5c2"",""projectId"":""bea99957-1862-4ad8-9558-57b91e42ce64""}","https://test12345.live/?participantId=0D0029E3C6C042EB8224BD7A522F4EBF&assignmentId=b9e84846-34dd-4a9a-ba2e-67f3dd71e5c2&projectId=bea99957-1862-4ad8-9558-57b91e42ce64","","null","<div style=""display: flex; justify-content: center; align-items: center;"">
                    <img src=""images/semantic/semantic_series_12/semantic_series_12_c.jpg"" style=""width: 300px; height: 300px;"" />
                  </div>","null","",""
"","","","","","html-keyboard-response","16","109371","0.0-12.0-3.0","0D0029E3C6C042EB8224BD7A522F4EBF","0D0029E3C6C042EB8224BD7A522F4EBF","b9e84846-34dd-4a9a-ba2e-67f3dd71e5c2","bea99957-1862-4ad8-9558-57b91e42ce64","{""participantId"":""0D0029E3C6C042EB8224BD7A522F4EBF"",""assignmentId"":""b9e84846-34dd-4a9a-ba2e-67f3dd71e5c2"",""projectId"":""bea99957-1862-4ad8-9558-57b91e42ce64""}","https://test12345.live/?participantId=0D0029E3C6C042EB8224BD7A522F4EBF&assignmentId=b9e84846-34dd-4a9a-ba2e-67f3dd71e5c2&projectId=bea99957-1862-4ad8-9558-57b91e42ce64","","null","<div style=""display: flex; justify-content: center; align-items: center;"">
                    <img src=""images/semantic/semantic_series_12/semantic_series_12_d.jpg"" style=""width: 300px; height: 300px;"" />
                  </div>","null","",""
"","","","","","html-button-response","17","155195","0.0-13.0","0D0029E3C6C042EB8224BD7A522F4EBF","0D0029E3C6C042EB8224BD7A522F4EBF","b9e84846-34dd-4a9a-ba2e-67f3dd71e5c2","bea99957-1862-4ad8-9558-57b91e42ce64","{""participantId"":""0D0029E3C6C042EB8224BD7A522F4EBF"",""assignmentId"":""b9e84846-34dd-4a9a-ba2e-67f3dd71e5c2"",""projectId"":""bea99957-1862-4ad8-9558-57b91e42ce64""}","https://test12345.live/?participantId=0D0029E3C6C042EB8224BD7A522F4EBF&assignmentId=b9e84846-34dd-4a9a-ba2e-67f3dd71e5c2&projectId=bea99957-1862-4ad8-9558-57b91e42ce64","","45824","Was there a person in the picture?","1","",""
"","","","","","survey-likert","18","157534","0.0-14.0","0D0029E3C6C042EB8224BD7A522F4EBF","0D0029E3C6C042EB8224BD7A522F4EBF","b9e84846-34dd-4a9a-ba2e-67f3dd71e5c2","bea99957-1862-4ad8-9558-57b91e42ce64","{""participantId"":""0D0029E3C6C042EB8224BD7A522F4EBF"",""assignmentId"":""b9e84846-34dd-4a9a-ba2e-67f3dd71e5c2"",""projectId"":""bea99957-1862-4ad8-9558-57b91e42ce64""}","https://test12345.live/?participantId=0D0029E3C6C042EB8224BD7A522F4EBF&assignmentId=b9e84846-34dd-4a9a-ba2e-67f3dd71e5c2&projectId=bea99957-1862-4ad8-9558-57b91e42ce64","","2338","","{""Q0"":3}","","[0]"
"","","","","","html-button-response","19","158873","0.0-15.0","0D0029E3C6C042EB8224BD7A522F4EBF","0D0029E3C6C042EB8224BD7A522F4EBF","b9e84846-34dd-4a9a-ba2e-67f3dd71e5c2","bea99957-1862-4ad8-9558-57b91e42ce64","{""participantId"":""0D0029E3C6C042EB8224BD7A522F4EBF"",""assignmentId"":""b9e84846-34dd-4a9a-ba2e-67f3dd71e5c2"",""projectId"":""bea99957-1862-4ad8-9558-57b91e42ce64""}","https://test12345.live/?participantId=0D0029E3C6C042EB8224BD7A522F4EBF&assignmentId=b9e84846-34dd-4a9a-ba2e-67f3dd71e5c2&projectId=bea99957-1862-4ad8-9558-57b91e42ce64","","1336","
    <div style=""display: flex; justify-content: center; align-items: center;"">
      <img src=""images/red_deck_2.png"" style=""width: 300px; height: 300px; margin-right: 10px;"" />
      <img src=""images/blue_deck_1.png"" style=""width: 300px; height: 300px;"" />
    </div>","1","1",""
"","","","","","html-keyboard-response","20","161876","0.0-16.0-0.0","0D0029E3C6C042EB8224BD7A522F4EBF","0D0029E3C6C042EB8224BD7A522F4EBF","b9e84846-34dd-4a9a-ba2e-67f3dd71e5c2","bea99957-1862-4ad8-9558-57b91e42ce64","{""participantId"":""0D0029E3C6C042EB8224BD7A522F4EBF"",""assignmentId"":""b9e84846-34dd-4a9a-ba2e-67f3dd71e5c2"",""projectId"":""bea99957-1862-4ad8-9558-57b91e42ce64""}","https://test12345.live/?participantId=0D0029E3C6C042EB8224BD7A522F4EBF&assignmentId=b9e84846-34dd-4a9a-ba2e-67f3dd71e5c2&projectId=bea99957-1862-4ad8-9558-57b91e42ce64","","null","<div style=""display: flex; justify-content: center; align-items: center;"">
                    <img src=""images/causal/causal_series_8/causal_series_8_a.jpg"" style=""width: 300px; height: 300px;"" />
                  </div>","null","",""
"","","","","","html-keyboard-response","21","164879","0.0-16.0-1.0","0D0029E3C6C042EB8224BD7A522F4EBF","0D0029E3C6C042EB8224BD7A522F4EBF","b9e84846-34dd-4a9a-ba2e-67f3dd71e5c2","bea99957-1862-4ad8-9558-57b91e42ce64","{""participantId"":""0D0029E3C6C042EB8224BD7A522F4EBF"",""assignmentId"":""b9e84846-34dd-4a9a-ba2e-67f3dd71e5c2"",""projectId"":""bea99957-1862-4ad8-9558-57b91e42ce64""}","https://test12345.live/?participantId=0D0029E3C6C042EB8224BD7A522F4EBF&assignmentId=b9e84846-34dd-4a9a-ba2e-67f3dd71e5c2&projectId=bea99957-1862-4ad8-9558-57b91e42ce64","","null","<div style=""display: flex; justify-content: center; align-items: center;"">
                    <img src=""images/causal/causal_series_8/causal_series_8_b.jpg"" style=""width: 300px; height: 300px;"" />
                  </div>","null","",""
"","","","","","html-keyboard-response","22","167881","0.0-16.0-2.0","0D0029E3C6C042EB8224BD7A522F4EBF","0D0029E3C6C042EB8224BD7A522F4EBF","b9e84846-34dd-4a9a-ba2e-67f3dd71e5c2","bea99957-1862-4ad8-9558-57b91e42ce64","{""participantId"":""0D0029E3C6C042EB8224BD7A522F4EBF"",""assignmentId"":""b9e84846-34dd-4a9a-ba2e-67f3dd71e5c2"",""projectId"":""bea99957-1862-4ad8-9558-57b91e42ce64""}","https://test12345.live/?participantId=0D0029E3C6C042EB8224BD7A522F4EBF&assignmentId=b9e84846-34dd-4a9a-ba2e-67f3dd71e5c2&projectId=bea99957-1862-4ad8-9558-57b91e42ce64","","null","<div style=""display: flex; justify-content: center; align-items: center;"">
                    <img src=""images/causal/causal_series_8/causal_series_8_c.jpg"" style=""width: 300px; height: 300px;"" />
                  </div>","null","",""
"","","","","","html-keyboard-response","23","170883","0.0-16.0-3.0","0D0029E3C6C042EB8224BD7A522F4EBF","0D0029E3C6C042EB8224BD7A522F4EBF","b9e84846-34dd-4a9a-ba2e-67f3dd71e5c2","bea99957-1862-4ad8-9558-57b91e42ce64","{""participantId"":""0D0029E3C6C042EB8224BD7A522F4EBF"",""assignmentId"":""b9e84846-34dd-4a9a-ba2e-67f3dd71e5c2"",""projectId"":""bea99957-1862-4ad8-9558-57b91e42ce64""}","https://test12345.live/?participantId=0D0029E3C6C042EB8224BD7A522F4EBF&assignmentId=b9e84846-34dd-4a9a-ba2e-67f3dd71e5c2&projectId=bea99957-1862-4ad8-9558-57b91e42ce64","","null","<div style=""display: flex; justify-content: center; align-items: center;"">
                    <img src=""images/causal/causal_series_8/causal_series_8_d.jpg"" style=""width: 300px; height: 300px;"" />
                  </div>","null","",""
"","","","","","html-button-response","24","173314","0.0-18.0","0D0029E3C6C042EB8224BD7A522F4EBF","0D0029E3C6C042EB8224BD7A522F4EBF","b9e84846-34dd-4a9a-ba2e-67f3dd71e5c2","bea99957-1862-4ad8-9558-57b91e42ce64","{""participantId"":""0D0029E3C6C042EB8224BD7A522F4EBF"",""assignmentId"":""b9e84846-34dd-4a9a-ba2e-67f3dd71e5c2"",""projectId"":""bea99957-1862-4ad8-9558-57b91e42ce64""}","https://test12345.live/?participantId=0D0029E3C6C042EB8224BD7A522F4EBF&assignmentId=b9e84846-34dd-4a9a-ba2e-67f3dd71e5c2&projectId=bea99957-1862-4ad8-9558-57b91e42ce64","","2430","Was there a person in the picture?","0","",""
"","","","","","survey-likert","25","176222","0.0-19.0","0D0029E3C6C042EB8224BD7A522F4EBF","0D0029E3C6C042EB8224BD7A522F4EBF","b9e84846-34dd-4a9a-ba2e-67f3dd71e5c2","bea99957-1862-4ad8-9558-57b91e42ce64","{""participantId"":""0D0029E3C6C042EB8224BD7A522F4EBF"",""assignmentId"":""b9e84846-34dd-4a9a-ba2e-67f3dd71e5c2"",""projectId"":""bea99957-1862-4ad8-9558-57b91e42ce64""}","https://test12345.live/?participantId=0D0029E3C6C042EB8224BD7A522F4EBF&assignmentId=b9e84846-34dd-4a9a-ba2e-67f3dd71e5c2&projectId=bea99957-1862-4ad8-9558-57b91e42ce64","","2906","","{""Q0"":3}","","[0]"
"","","","","","html-button-response","26","177164","0.0-20.0","0D0029E3C6C042EB8224BD7A522F4EBF","0D0029E3C6C042EB8224BD7A522F4EBF","b9e84846-34dd-4a9a-ba2e-67f3dd71e5c2","bea99957-1862-4ad8-9558-57b91e42ce64","{""participantId"":""0D0029E3C6C042EB8224BD7A522F4EBF"",""assignmentId"":""b9e84846-34dd-4a9a-ba2e-67f3dd71e5c2"",""projectId"":""bea99957-1862-4ad8-9558-57b91e42ce64""}","https://test12345.live/?participantId=0D0029E3C6C042EB8224BD7A522F4EBF&assignmentId=b9e84846-34dd-4a9a-ba2e-67f3dd71e5c2&projectId=bea99957-1862-4ad8-9558-57b91e42ce64","","940","
    <div style=""display: flex; justify-content: center; align-items: center;"">
      <img src=""images/red_deck_2.png"" style=""width: 300px; height: 300px; margin-right: 10px;"" />
      <img src=""images/blue_deck_1.png"" style=""width: 300px; height: 300px;"" />
    </div>","0","0",""
"","","","","","html-keyboard-response","27","180166","0.0-22.0-0.0","0D0029E3C6C042EB8224BD7A522F4EBF","0D0029E3C6C042EB8224BD7A522F4EBF","b9e84846-34dd-4a9a-ba2e-67f3dd71e5c2","bea99957-1862-4ad8-9558-57b91e42ce64","{""participantId"":""0D0029E3C6C042EB8224BD7A522F4EBF"",""assignmentId"":""b9e84846-34dd-4a9a-ba2e-67f3dd71e5c2"",""projectId"":""bea99957-1862-4ad8-9558-57b91e42ce64""}","https://test12345.live/?participantId=0D0029E3C6C042EB8224BD7A522F4EBF&assignmentId=b9e84846-34dd-4a9a-ba2e-67f3dd71e5c2&projectId=bea99957-1862-4ad8-9558-57b91e42ce64","","null","<div style=""display: flex; justify-content: center; align-items: center;"">
                    <img src=""images/semantic/semantic_series_7/semantic_series_7_a.jpg"" style=""width: 300px; height: 300px;"" />
                  </div>","null","",""
"","","","","","html-keyboard-response","28","183169","0.0-22.0-1.0","0D0029E3C6C042EB8224BD7A522F4EBF","0D0029E3C6C042EB8224BD7A522F4EBF","b9e84846-34dd-4a9a-ba2e-67f3dd71e5c2","bea99957-1862-4ad8-9558-57b91e42ce64","{""participantId"":""0D0029E3C6C042EB8224BD7A522F4EBF"",""assignmentId"":""b9e84846-34dd-4a9a-ba2e-67f3dd71e5c2"",""projectId"":""bea99957-1862-4ad8-9558-57b91e42ce64""}","https://test12345.live/?participantId=0D0029E3C6C042EB8224BD7A522F4EBF&assignmentId=b9e84846-34dd-4a9a-ba2e-67f3dd71e5c2&projectId=bea99957-1862-4ad8-9558-57b91e42ce64","","null","<div style=""display: flex; justify-content: center; align-items: center;"">
                    <img src=""images/semantic/semantic_series_7/semantic_series_7_b.jpg"" style=""width: 300px; height: 300px;"" />
                  </div>","null","",""
"","","","","","html-keyboard-response","29","186171","0.0-22.0-2.0","0D0029E3C6C042EB8224BD7A522F4EBF","0D0029E3C6C042EB8224BD7A522F4EBF","b9e84846-34dd-4a9a-ba2e-67f3dd71e5c2","bea99957-1862-4ad8-9558-57b91e42ce64","{""participantId"":""0D0029E3C6C042EB8224BD7A522F4EBF"",""assignmentId"":""b9e84846-34dd-4a9a-ba2e-67f3dd71e5c2"",""projectId"":""bea99957-1862-4ad8-9558-57b91e42ce64""}","https://test12345.live/?participantId=0D0029E3C6C042EB8224BD7A522F4EBF&assignmentId=b9e84846-34dd-4a9a-ba2e-67f3dd71e5c2&projectId=bea99957-1862-4ad8-9558-57b91e42ce64","","null","<div style=""display: flex; justify-content: center; align-items: center;"">
                    <img src=""images/semantic/semantic_series_7/semantic_series_7_c.jpg"" style=""width: 300px; height: 300px;"" />
                  </div>","null","",""
"","","","","","html-keyboard-response","30","189174","0.0-22.0-3.0","0D0029E3C6C042EB8224BD7A522F4EBF","0D0029E3C6C042EB8224BD7A522F4EBF","b9e84846-34dd-4a9a-ba2e-67f3dd71e5c2","bea99957-1862-4ad8-9558-57b91e42ce64","{""participantId"":""0D0029E3C6C042EB8224BD7A522F4EBF"",""assignmentId"":""b9e84846-34dd-4a9a-ba2e-67f3dd71e5c2"",""projectId"":""bea99957-1862-4ad8-9558-57b91e42ce64""}","https://test12345.live/?participantId=0D0029E3C6C042EB8224BD7A522F4EBF&assignmentId=b9e84846-34dd-4a9a-ba2e-67f3dd71e5c2&projectId=bea99957-1862-4ad8-9558-57b91e42ce64","","null","<div style=""display: flex; justify-content: center; align-items: center;"">
                    <img src=""images/semantic/semantic_series_7/semantic_series_7_d.jpg"" style=""width: 300px; height: 300px;"" />
                  </div>","null","",""
"","","","","","html-button-response","31","203739","0.0-23.0","0D0029E3C6C042EB8224BD7A522F4EBF","0D0029E3C6C042EB8224BD7A522F4EBF","b9e84846-34dd-4a9a-ba2e-67f3dd71e5c2","bea99957-1862-4ad8-9558-57b91e42ce64","{""participantId"":""0D0029E3C6C042EB8224BD7A522F4EBF"",""assignmentId"":""b9e84846-34dd-4a9a-ba2e-67f3dd71e5c2"",""projectId"":""bea99957-1862-4ad8-9558-57b91e42ce64""}","https://test12345.live/?participantId=0D0029E3C6C042EB8224BD7A522F4EBF&assignmentId=b9e84846-34dd-4a9a-ba2e-67f3dd71e5c2&projectId=bea99957-1862-4ad8-9558-57b91e42ce64","","14565","Was there a person in the picture?","1","",""
"","","","","","survey-likert","32","208220","0.0-24.0","0D0029E3C6C042EB8224BD7A522F4EBF","0D0029E3C6C042EB8224BD7A522F4EBF","b9e84846-34dd-4a9a-ba2e-67f3dd71e5c2","bea99957-1862-4ad8-9558-57b91e42ce64","{""participantId"":""0D0029E3C6C042EB8224BD7A522F4EBF"",""assignmentId"":""b9e84846-34dd-4a9a-ba2e-67f3dd71e5c2"",""projectId"":""bea99957-1862-4ad8-9558-57b91e42ce64""}","https://test12345.live/?participantId=0D0029E3C6C042EB8224BD7A522F4EBF&assignmentId=b9e84846-34dd-4a9a-ba2e-67f3dd71e5c2&projectId=bea99957-1862-4ad8-9558-57b91e42ce64","","4480","","{""Q0"":3}","","[0]"
"","","","","","html-button-response","33","209373","0.0-25.0","0D0029E3C6C042EB8224BD7A522F4EBF","0D0029E3C6C042EB8224BD7A522F4EBF","b9e84846-34dd-4a9a-ba2e-67f3dd71e5c2","bea99957-1862-4ad8-9558-57b91e42ce64","{""participantId"":""0D0029E3C6C042EB8224BD7A522F4EBF"",""assignmentId"":""b9e84846-34dd-4a9a-ba2e-67f3dd71e5c2"",""projectId"":""bea99957-1862-4ad8-9558-57b91e42ce64""}","https://test12345.live/?participantId=0D0029E3C6C042EB8224BD7A522F4EBF&assignmentId=b9e84846-34dd-4a9a-ba2e-67f3dd71e5c2&projectId=bea99957-1862-4ad8-9558-57b91e42ce64","","1150","
    <div style=""display: flex; justify-content: center; align-items: center;"">
      <img src=""images/red_deck_2.png"" style=""width: 300px; height: 300px; margin-right: 10px;"" />
      <img src=""images/blue_deck_1.png"" style=""width: 300px; height: 300px;"" />
    </div>","1","1",""
"","","","","","html-keyboard-response","34","212376","0.0-26.0-0.0","0D0029E3C6C042EB8224BD7A522F4EBF","0D0029E3C6C042EB8224BD7A522F4EBF","b9e84846-34dd-4a9a-ba2e-67f3dd71e5c2","bea99957-1862-4ad8-9558-57b91e42ce64","{""participantId"":""0D0029E3C6C042EB8224BD7A522F4EBF"",""assignmentId"":""b9e84846-34dd-4a9a-ba2e-67f3dd71e5c2"",""projectId"":""bea99957-1862-4ad8-9558-57b91e42ce64""}","https://test12345.live/?participantId=0D0029E3C6C042EB8224BD7A522F4EBF&assignmentId=b9e84846-34dd-4a9a-ba2e-67f3dd71e5c2&projectId=bea99957-1862-4ad8-9558-57b91e42ce64","","null","<div style=""display: flex; justify-content: center; align-items: center;"">
                    <img src=""images/causal/causal_series_10/causal_series_10_a.jpg"" style=""width: 300px; height: 300px;"" />
                  </div>","null","",""
"","","","","","html-keyboard-response","35","215379","0.0-26.0-1.0","0D0029E3C6C042EB8224BD7A522F4EBF","0D0029E3C6C042EB8224BD7A522F4EBF","b9e84846-34dd-4a9a-ba2e-67f3dd71e5c2","bea99957-1862-4ad8-9558-57b91e42ce64","{""participantId"":""0D0029E3C6C042EB8224BD7A522F4EBF"",""assignmentId"":""b9e84846-34dd-4a9a-ba2e-67f3dd71e5c2"",""projectId"":""bea99957-1862-4ad8-9558-57b91e42ce64""}","https://test12345.live/?participantId=0D0029E3C6C042EB8224BD7A522F4EBF&assignmentId=b9e84846-34dd-4a9a-ba2e-67f3dd71e5c2&projectId=bea99957-1862-4ad8-9558-57b91e42ce64","","null","<div style=""display: flex; justify-content: center; align-items: center;"">
                    <img src=""images/causal/causal_series_10/causal_series_10_b.jpg"" style=""width: 300px; height: 300px;"" />
                  </div>","null","",""
"","","","","","html-keyboard-response","36","218382","0.0-26.0-2.0","0D0029E3C6C042EB8224BD7A522F4EBF","0D0029E3C6C042EB8224BD7A522F4EBF","b9e84846-34dd-4a9a-ba2e-67f3dd71e5c2","bea99957-1862-4ad8-9558-57b91e42ce64","{""participantId"":""0D0029E3C6C042EB8224BD7A522F4EBF"",""assignmentId"":""b9e84846-34dd-4a9a-ba2e-67f3dd71e5c2"",""projectId"":""bea99957-1862-4ad8-9558-57b91e42ce64""}","https://test12345.live/?participantId=0D0029E3C6C042EB8224BD7A522F4EBF&assignmentId=b9e84846-34dd-4a9a-ba2e-67f3dd71e5c2&projectId=bea99957-1862-4ad8-9558-57b91e42ce64","","null","<div style=""display: flex; justify-content: center; align-items: center;"">
                    <img src=""images/causal/causal_series_10/causal_series_10_c.jpg"" style=""width: 300px; height: 300px;"" />
                  </div>","null","",""
"","","","","","html-keyboard-response","37","221384","0.0-26.0-3.0","0D0029E3C6C042EB8224BD7A522F4EBF","0D0029E3C6C042EB8224BD7A522F4EBF","b9e84846-34dd-4a9a-ba2e-67f3dd71e5c2","bea99957-1862-4ad8-9558-57b91e42ce64","{""participantId"":""0D0029E3C6C042EB8224BD7A522F4EBF"",""assignmentId"":""b9e84846-34dd-4a9a-ba2e-67f3dd71e5c2"",""projectId"":""bea99957-1862-4ad8-9558-57b91e42ce64""}","https://test12345.live/?participantId=0D0029E3C6C042EB8224BD7A522F4EBF&assignmentId=b9e84846-34dd-4a9a-ba2e-67f3dd71e5c2&projectId=bea99957-1862-4ad8-9558-57b91e42ce64","","null","<div style=""display: flex; justify-content: center; align-items: center;"">
                    <img src=""images/causal/causal_series_10/causal_series_10_d.jpg"" style=""width: 300px; height: 300px;"" />
                  </div>","null","",""
"","","","","","html-button-response","38","223069","0.0-28.0","0D0029E3C6C042EB8224BD7A522F4EBF","0D0029E3C6C042EB8224BD7A522F4EBF","b9e84846-34dd-4a9a-ba2e-67f3dd71e5c2","bea99957-1862-4ad8-9558-57b91e42ce64","{""participantId"":""0D0029E3C6C042EB8224BD7A522F4EBF"",""assignmentId"":""b9e84846-34dd-4a9a-ba2e-67f3dd71e5c2"",""projectId"":""bea99957-1862-4ad8-9558-57b91e42ce64""}","https://test12345.live/?participantId=0D0029E3C6C042EB8224BD7A522F4EBF&assignmentId=b9e84846-34dd-4a9a-ba2e-67f3dd71e5c2&projectId=bea99957-1862-4ad8-9558-57b91e42ce64","","1684","Was there a person in the picture?","1","",""
"","","","","","survey-likert","39","225033","0.0-29.0","0D0029E3C6C042EB8224BD7A522F4EBF","0D0029E3C6C042EB8224BD7A522F4EBF","b9e84846-34dd-4a9a-ba2e-67f3dd71e5c2","bea99957-1862-4ad8-9558-57b91e42ce64","{""participantId"":""0D0029E3C6C042EB8224BD7A522F4EBF"",""assignmentId"":""b9e84846-34dd-4a9a-ba2e-67f3dd71e5c2"",""projectId"":""bea99957-1862-4ad8-9558-57b91e42ce64""}","https://test12345.live/?participantId=0D0029E3C6C042EB8224BD7A522F4EBF&assignmentId=b9e84846-34dd-4a9a-ba2e-67f3dd71e5c2&projectId=bea99957-1862-4ad8-9558-57b91e42ce64","","1963","","{""Q0"":3}","","[0]"
"","","","","","html-button-response","40","226188","0.0-30.0","0D0029E3C6C042EB8224BD7A522F4EBF","0D0029E3C6C042EB8224BD7A522F4EBF","b9e84846-34dd-4a9a-ba2e-67f3dd71e5c2","bea99957-1862-4ad8-9558-57b91e42ce64","{""participantId"":""0D0029E3C6C042EB8224BD7A522F4EBF"",""assignmentId"":""b9e84846-34dd-4a9a-ba2e-67f3dd71e5c2"",""projectId"":""bea99957-1862-4ad8-9558-57b91e42ce64""}","https://test12345.live/?participantId=0D0029E3C6C042EB8224BD7A522F4EBF&assignmentId=b9e84846-34dd-4a9a-ba2e-67f3dd71e5c2&projectId=bea99957-1862-4ad8-9558-57b91e42ce64","","1153","
    <div style=""display: flex; justify-content: center; align-items: center;"">
      <img src=""images/red_deck_2.png"" style=""width: 300px; height: 300px; margin-right: 10px;"" />
      <img src=""images/blue_deck_1.png"" style=""width: 300px; height: 300px;"" />
    </div>","0","0",""
"","","","","","html-keyboard-response","41","229191","0.0-32.0-0.0","0D0029E3C6C042EB8224BD7A522F4EBF","0D0029E3C6C042EB8224BD7A522F4EBF","b9e84846-34dd-4a9a-ba2e-67f3dd71e5c2","bea99957-1862-4ad8-9558-57b91e42ce64","{""participantId"":""0D0029E3C6C042EB8224BD7A522F4EBF"",""assignmentId"":""b9e84846-34dd-4a9a-ba2e-67f3dd71e5c2"",""projectId"":""bea99957-1862-4ad8-9558-57b91e42ce64""}","https://test12345.live/?participantId=0D0029E3C6C042EB8224BD7A522F4EBF&assignmentId=b9e84846-34dd-4a9a-ba2e-67f3dd71e5c2&projectId=bea99957-1862-4ad8-9558-57b91e42ce64","","null","<div style=""display: flex; justify-content: center; align-items: center;"">
                    <img src=""images/semantic/semantic_series_17/semantic_series_17_a.jpg"" style=""width: 300px; height: 300px;"" />
                  </div>","null","",""
"","","","","","html-keyboard-response","42","232194","0.0-32.0-1.0","0D0029E3C6C042EB8224BD7A522F4EBF","0D0029E3C6C042EB8224BD7A522F4EBF","b9e84846-34dd-4a9a-ba2e-67f3dd71e5c2","bea99957-1862-4ad8-9558-57b91e42ce64","{""participantId"":""0D0029E3C6C042EB8224BD7A522F4EBF"",""assignmentId"":""b9e84846-34dd-4a9a-ba2e-67f3dd71e5c2"",""projectId"":""bea99957-1862-4ad8-9558-57b91e42ce64""}","https://test12345.live/?participantId=0D0029E3C6C042EB8224BD7A522F4EBF&assignmentId=b9e84846-34dd-4a9a-ba2e-67f3dd71e5c2&projectId=bea99957-1862-4ad8-9558-57b91e42ce64","","null","<div style=""display: flex; justify-content: center; align-items: center;"">
                    <img src=""images/semantic/semantic_series_17/semantic_series_17_b.jpg"" style=""width: 300px; height: 300px;"" />
                  </div>","null","",""
"","","","","","html-keyboard-response","43","235197","0.0-32.0-2.0","0D0029E3C6C042EB8224BD7A522F4EBF","0D0029E3C6C042EB8224BD7A522F4EBF","b9e84846-34dd-4a9a-ba2e-67f3dd71e5c2","bea99957-1862-4ad8-9558-57b91e42ce64","{""participantId"":""0D0029E3C6C042EB8224BD7A522F4EBF"",""assignmentId"":""b9e84846-34dd-4a9a-ba2e-67f3dd71e5c2"",""projectId"":""bea99957-1862-4ad8-9558-57b91e42ce64""}","https://test12345.live/?participantId=0D0029E3C6C042EB8224BD7A522F4EBF&assignmentId=b9e84846-34dd-4a9a-ba2e-67f3dd71e5c2&projectId=bea99957-1862-4ad8-9558-57b91e42ce64","","null","<div style=""display: flex; justify-content: center; align-items: center;"">
                    <img src=""images/semantic/semantic_series_17/semantic_series_17_c.jpg"" style=""width: 300px; height: 300px;"" />
                  </div>","null","",""
"","","","","","html-keyboard-response","44","238200","0.0-32.0-3.0","0D0029E3C6C042EB8224BD7A522F4EBF","0D0029E3C6C042EB8224BD7A522F4EBF","b9e84846-34dd-4a9a-ba2e-67f3dd71e5c2","bea99957-1862-4ad8-9558-57b91e42ce64","{""participantId"":""0D0029E3C6C042EB8224BD7A522F4EBF"",""assignmentId"":""b9e84846-34dd-4a9a-ba2e-67f3dd71e5c2"",""projectId"":""bea99957-1862-4ad8-9558-57b91e42ce64""}","https://test12345.live/?participantId=0D0029E3C6C042EB8224BD7A522F4EBF&assignmentId=b9e84846-34dd-4a9a-ba2e-67f3dd71e5c2&projectId=bea99957-1862-4ad8-9558-57b91e42ce64","","null","<div style=""display: flex; justify-content: center; align-items: center;"">
                    <img src=""images/semantic/semantic_series_17/semantic_series_17_d.jpg"" style=""width: 300px; height: 300px;"" />
                  </div>","null","",""
"","","","","","html-button-response","45","241409","0.0-33.0","0D0029E3C6C042EB8224BD7A522F4EBF","0D0029E3C6C042EB8224BD7A522F4EBF","b9e84846-34dd-4a9a-ba2e-67f3dd71e5c2","bea99957-1862-4ad8-9558-57b91e42ce64","{""participantId"":""0D0029E3C6C042EB8224BD7A522F4EBF"",""assignmentId"":""b9e84846-34dd-4a9a-ba2e-67f3dd71e5c2"",""projectId"":""bea99957-1862-4ad8-9558-57b91e42ce64""}","https://test12345.live/?participantId=0D0029E3C6C042EB8224BD7A522F4EBF&assignmentId=b9e84846-34dd-4a9a-ba2e-67f3dd71e5c2&projectId=bea99957-1862-4ad8-9558-57b91e42ce64","","3208","Was there a person in the picture?","0","",""
"","","","","","survey-likert","46","244047","0.0-34.0","0D0029E3C6C042EB8224BD7A522F4EBF","0D0029E3C6C042EB8224BD7A522F4EBF","b9e84846-34dd-4a9a-ba2e-67f3dd71e5c2","bea99957-1862-4ad8-9558-57b91e42ce64","{""participantId"":""0D0029E3C6C042EB8224BD7A522F4EBF"",""assignmentId"":""b9e84846-34dd-4a9a-ba2e-67f3dd71e5c2"",""projectId"":""bea99957-1862-4ad8-9558-57b91e42ce64""}","https://test12345.live/?participantId=0D0029E3C6C042EB8224BD7A522F4EBF&assignmentId=b9e84846-34dd-4a9a-ba2e-67f3dd71e5c2&projectId=bea99957-1862-4ad8-9558-57b91e42ce64","","2637","","{""Q0"":2}","","[0]"
"","","","","","html-button-response","47","248988","0.0-35.0","0D0029E3C6C042EB8224BD7A522F4EBF","0D0029E3C6C042EB8224BD7A522F4EBF","b9e84846-34dd-4a9a-ba2e-67f3dd71e5c2","bea99957-1862-4ad8-9558-57b91e42ce64","{""participantId"":""0D0029E3C6C042EB8224BD7A522F4EBF"",""assignmentId"":""b9e84846-34dd-4a9a-ba2e-67f3dd71e5c2"",""projectId"":""bea99957-1862-4ad8-9558-57b91e42ce64""}","https://test12345.live/?participantId=0D0029E3C6C042EB8224BD7A522F4EBF&assignmentId=b9e84846-34dd-4a9a-ba2e-67f3dd71e5c2&projectId=bea99957-1862-4ad8-9558-57b91e42ce64","","4939","
    <div style=""display: flex; justify-content: center; align-items: center;"">
      <img src=""images/red_deck_2.png"" style=""width: 300px; height: 300px; margin-right: 10px;"" />
      <img src=""images/blue_deck_1.png"" style=""width: 300px; height: 300px;"" />
    </div>","1","1",""
"","","","","","html-keyboard-response","48","251991","0.0-36.0-0.0","0D0029E3C6C042EB8224BD7A522F4EBF","0D0029E3C6C042EB8224BD7A522F4EBF","b9e84846-34dd-4a9a-ba2e-67f3dd71e5c2","bea99957-1862-4ad8-9558-57b91e42ce64","{""participantId"":""0D0029E3C6C042EB8224BD7A522F4EBF"",""assignmentId"":""b9e84846-34dd-4a9a-ba2e-67f3dd71e5c2"",""projectId"":""bea99957-1862-4ad8-9558-57b91e42ce64""}","https://test12345.live/?participantId=0D0029E3C6C042EB8224BD7A522F4EBF&assignmentId=b9e84846-34dd-4a9a-ba2e-67f3dd71e5c2&projectId=bea99957-1862-4ad8-9558-57b91e42ce64","","null","<div style=""display: flex; justify-content: center; align-items: center;"">
                    <img src=""images/causal/causal_series_12/causal_series_12_a.jpg"" style=""width: 300px; height: 300px;"" />
                  </div>","null","",""
"","","","","","html-keyboard-response","49","254992","0.0-36.0-1.0","0D0029E3C6C042EB8224BD7A522F4EBF","0D0029E3C6C042EB8224BD7A522F4EBF","b9e84846-34dd-4a9a-ba2e-67f3dd71e5c2","bea99957-1862-4ad8-9558-57b91e42ce64","{""participantId"":""0D0029E3C6C042EB8224BD7A522F4EBF"",""assignmentId"":""b9e84846-34dd-4a9a-ba2e-67f3dd71e5c2"",""projectId"":""bea99957-1862-4ad8-9558-57b91e42ce64""}","https://test12345.live/?participantId=0D0029E3C6C042EB8224BD7A522F4EBF&assignmentId=b9e84846-34dd-4a9a-ba2e-67f3dd71e5c2&projectId=bea99957-1862-4ad8-9558-57b91e42ce64","","null","<div style=""display: flex; justify-content: center; align-items: center;"">
                    <img src=""images/causal/causal_series_12/causal_series_12_b.jpg"" style=""width: 300px; height: 300px;"" />
                  </div>","null","",""
"","","","","","html-keyboard-response","50","257995","0.0-36.0-2.0","0D0029E3C6C042EB8224BD7A522F4EBF","0D0029E3C6C042EB8224BD7A522F4EBF","b9e84846-34dd-4a9a-ba2e-67f3dd71e5c2","bea99957-1862-4ad8-9558-57b91e42ce64","{""participantId"":""0D0029E3C6C042EB8224BD7A522F4EBF"",""assignmentId"":""b9e84846-34dd-4a9a-ba2e-67f3dd71e5c2"",""projectId"":""bea99957-1862-4ad8-9558-57b91e42ce64""}","https://test12345.live/?participantId=0D0029E3C6C042EB8224BD7A522F4EBF&assignmentId=b9e84846-34dd-4a9a-ba2e-67f3dd71e5c2&projectId=bea99957-1862-4ad8-9558-57b91e42ce64","","null","<div style=""display: flex; justify-content: center; align-items: center;"">
                    <img src=""images/causal/causal_series_12/causal_series_12_c.jpg"" style=""width: 300px; height: 300px;"" />
                  </div>","null","",""
"","","","","","html-keyboard-response","51","260997","0.0-36.0-3.0","0D0029E3C6C042EB8224BD7A522F4EBF","0D0029E3C6C042EB8224BD7A522F4EBF","b9e84846-34dd-4a9a-ba2e-67f3dd71e5c2","bea99957-1862-4ad8-9558-57b91e42ce64","{""participantId"":""0D0029E3C6C042EB8224BD7A522F4EBF"",""assignmentId"":""b9e84846-34dd-4a9a-ba2e-67f3dd71e5c2"",""projectId"":""bea99957-1862-4ad8-9558-57b91e42ce64""}","https://test12345.live/?participantId=0D0029E3C6C042EB8224BD7A522F4EBF&assignmentId=b9e84846-34dd-4a9a-ba2e-67f3dd71e5c2&projectId=bea99957-1862-4ad8-9558-57b91e42ce64","","null","<div style=""display: flex; justify-content: center; align-items: center;"">
                    <img src=""images/causal/causal_series_12/causal_series_12_d.jpg"" style=""width: 300px; height: 300px;"" />
                  </div>","null","",""
"","","","","","html-button-response","52","263152","0.0-38.0","0D0029E3C6C042EB8224BD7A522F4EBF","0D0029E3C6C042EB8224BD7A522F4EBF","b9e84846-34dd-4a9a-ba2e-67f3dd71e5c2","bea99957-1862-4ad8-9558-57b91e42ce64","{""participantId"":""0D0029E3C6C042EB8224BD7A522F4EBF"",""assignmentId"":""b9e84846-34dd-4a9a-ba2e-67f3dd71e5c2"",""projectId"":""bea99957-1862-4ad8-9558-57b91e42ce64""}","https://test12345.live/?participantId=0D0029E3C6C042EB8224BD7A522F4EBF&assignmentId=b9e84846-34dd-4a9a-ba2e-67f3dd71e5c2&projectId=bea99957-1862-4ad8-9558-57b91e42ce64","","2153","Was there a person in the picture?","1","",""
"","","","","","survey-likert","53","265370","0.0-39.0","0D0029E3C6C042EB8224BD7A522F4EBF","0D0029E3C6C042EB8224BD7A522F4EBF","b9e84846-34dd-4a9a-ba2e-67f3dd71e5c2","bea99957-1862-4ad8-9558-57b91e42ce64","{""participantId"":""0D0029E3C6C042EB8224BD7A522F4EBF"",""assignmentId"":""b9e84846-34dd-4a9a-ba2e-67f3dd71e5c2"",""projectId"":""bea99957-1862-4ad8-9558-57b91e42ce64""}","https://test12345.live/?participantId=0D0029E3C6C042EB8224BD7A522F4EBF&assignmentId=b9e84846-34dd-4a9a-ba2e-67f3dd71e5c2&projectId=bea99957-1862-4ad8-9558-57b91e42ce64","","2216","","{""Q0"":3}","","[0]"
"","","","","","html-button-response","54","266233","0.0-40.0","0D0029E3C6C042EB8224BD7A522F4EBF","0D0029E3C6C042EB8224BD7A522F4EBF","b9e84846-34dd-4a9a-ba2e-67f3dd71e5c2","bea99957-1862-4ad8-9558-57b91e42ce64","{""participantId"":""0D0029E3C6C042EB8224BD7A522F4EBF"",""assignmentId"":""b9e84846-34dd-4a9a-ba2e-67f3dd71e5c2"",""projectId"":""bea99957-1862-4ad8-9558-57b91e42ce64""}","https://test12345.live/?participantId=0D0029E3C6C042EB8224BD7A522F4EBF&assignmentId=b9e84846-34dd-4a9a-ba2e-67f3dd71e5c2&projectId=bea99957-1862-4ad8-9558-57b91e42ce64","","861","
    <div style=""display: flex; justify-content: center; align-items: center;"">
      <img src=""images/red_deck_2.png"" style=""width: 300px; height: 300px; margin-right: 10px;"" />
      <img src=""images/blue_deck_1.png"" style=""width: 300px; height: 300px;"" />
    </div>","1","1",""
"","","","","","html-keyboard-response","55","269235","0.0-41.0-0.0","0D0029E3C6C042EB8224BD7A522F4EBF","0D0029E3C6C042EB8224BD7A522F4EBF","b9e84846-34dd-4a9a-ba2e-67f3dd71e5c2","bea99957-1862-4ad8-9558-57b91e42ce64","{""participantId"":""0D0029E3C6C042EB8224BD7A522F4EBF"",""assignmentId"":""b9e84846-34dd-4a9a-ba2e-67f3dd71e5c2"",""projectId"":""bea99957-1862-4ad8-9558-57b91e42ce64""}","https://test12345.live/?participantId=0D0029E3C6C042EB8224BD7A522F4EBF&assignmentId=b9e84846-34dd-4a9a-ba2e-67f3dd71e5c2&projectId=bea99957-1862-4ad8-9558-57b91e42ce64","","null","<div style=""display: flex; justify-content: center; align-items: center;"">
                    <img src=""images/causal/causal_series_5/causal_series_5_a.jpg"" style=""width: 300px; height: 300px;"" />
                  </div>","null","",""
"","","","","","html-keyboard-response","56","272237","0.0-41.0-1.0","0D0029E3C6C042EB8224BD7A522F4EBF","0D0029E3C6C042EB8224BD7A522F4EBF","b9e84846-34dd-4a9a-ba2e-67f3dd71e5c2","bea99957-1862-4ad8-9558-57b91e42ce64","{""participantId"":""0D0029E3C6C042EB8224BD7A522F4EBF"",""assignmentId"":""b9e84846-34dd-4a9a-ba2e-67f3dd71e5c2"",""projectId"":""bea99957-1862-4ad8-9558-57b91e42ce64""}","https://test12345.live/?participantId=0D0029E3C6C042EB8224BD7A522F4EBF&assignmentId=b9e84846-34dd-4a9a-ba2e-67f3dd71e5c2&projectId=bea99957-1862-4ad8-9558-57b91e42ce64","","null","<div style=""display: flex; justify-content: center; align-items: center;"">
                    <img src=""images/causal/causal_series_5/causal_series_5_b.jpg"" style=""width: 300px; height: 300px;"" />
                  </div>","null","",""
"","","","","","html-keyboard-response","57","275239","0.0-41.0-2.0","0D0029E3C6C042EB8224BD7A522F4EBF","0D0029E3C6C042EB8224BD7A522F4EBF","b9e84846-34dd-4a9a-ba2e-67f3dd71e5c2","bea99957-1862-4ad8-9558-57b91e42ce64","{""participantId"":""0D0029E3C6C042EB8224BD7A522F4EBF"",""assignmentId"":""b9e84846-34dd-4a9a-ba2e-67f3dd71e5c2"",""projectId"":""bea99957-1862-4ad8-9558-57b91e42ce64""}","https://test12345.live/?participantId=0D0029E3C6C042EB8224BD7A522F4EBF&assignmentId=b9e84846-34dd-4a9a-ba2e-67f3dd71e5c2&projectId=bea99957-1862-4ad8-9558-57b91e42ce64","","null","<div style=""display: flex; justify-content: center; align-items: center;"">
                    <img src=""images/causal/causal_series_5/causal_series_5_c.jpg"" style=""width: 300px; height: 300px;"" />
                  </div>","null","",""
"","","","","","html-keyboard-response","58","278241","0.0-41.0-3.0","0D0029E3C6C042EB8224BD7A522F4EBF","0D0029E3C6C042EB8224BD7A522F4EBF","b9e84846-34dd-4a9a-ba2e-67f3dd71e5c2","bea99957-1862-4ad8-9558-57b91e42ce64","{""participantId"":""0D0029E3C6C042EB8224BD7A522F4EBF"",""assignmentId"":""b9e84846-34dd-4a9a-ba2e-67f3dd71e5c2"",""projectId"":""bea99957-1862-4ad8-9558-57b91e42ce64""}","https://test12345.live/?participantId=0D0029E3C6C042EB8224BD7A522F4EBF&assignmentId=b9e84846-34dd-4a9a-ba2e-67f3dd71e5c2&projectId=bea99957-1862-4ad8-9558-57b91e42ce64","","null","<div style=""display: flex; justify-content: center; align-items: center;"">
                    <img src=""images/causal/causal_series_5/causal_series_5_d.jpg"" style=""width: 300px; height: 300px;"" />
                  </div>","null","",""
"","","","","","html-button-response","59","284458","0.0-43.0","0D0029E3C6C042EB8224BD7A522F4EBF","0D0029E3C6C042EB8224BD7A522F4EBF","b9e84846-34dd-4a9a-ba2e-67f3dd71e5c2","bea99957-1862-4ad8-9558-57b91e42ce64","{""participantId"":""0D0029E3C6C042EB8224BD7A522F4EBF"",""assignmentId"":""b9e84846-34dd-4a9a-ba2e-67f3dd71e5c2"",""projectId"":""bea99957-1862-4ad8-9558-57b91e42ce64""}","https://test12345.live/?participantId=0D0029E3C6C042EB8224BD7A522F4EBF&assignmentId=b9e84846-34dd-4a9a-ba2e-67f3dd71e5c2&projectId=bea99957-1862-4ad8-9558-57b91e42ce64","","6216","Was there a person in the picture?","0","",""
"","","","","","survey-likert","60","286428","0.0-44.0","0D0029E3C6C042EB8224BD7A522F4EBF","0D0029E3C6C042EB8224BD7A522F4EBF","b9e84846-34dd-4a9a-ba2e-67f3dd71e5c2","bea99957-1862-4ad8-9558-57b91e42ce64","{""participantId"":""0D0029E3C6C042EB8224BD7A522F4EBF"",""assignmentId"":""b9e84846-34dd-4a9a-ba2e-67f3dd71e5c2"",""projectId"":""bea99957-1862-4ad8-9558-57b91e42ce64""}","https://test12345.live/?participantId=0D0029E3C6C042EB8224BD7A522F4EBF&assignmentId=b9e84846-34dd-4a9a-ba2e-67f3dd71e5c2&projectId=bea99957-1862-4ad8-9558-57b91e42ce64","","1969","","{""Q0"":3}","","[0]"
"","","","","","html-button-response","61","287349","0.0-45.0","0D0029E3C6C042EB8224BD7A522F4EBF","0D0029E3C6C042EB8224BD7A522F4EBF","b9e84846-34dd-4a9a-ba2e-67f3dd71e5c2","bea99957-1862-4ad8-9558-57b91e42ce64","{""participantId"":""0D0029E3C6C042EB8224BD7A522F4EBF"",""assignmentId"":""b9e84846-34dd-4a9a-ba2e-67f3dd71e5c2"",""projectId"":""bea99957-1862-4ad8-9558-57b91e42ce64""}","https://test12345.live/?participantId=0D0029E3C6C042EB8224BD7A522F4EBF&assignmentId=b9e84846-34dd-4a9a-ba2e-67f3dd71e5c2&projectId=bea99957-1862-4ad8-9558-57b91e42ce64","","919","
    <div style=""display: flex; justify-content: center; align-items: center;"">
      <img src=""images/red_deck_2.png"" style=""width: 300px; height: 300px; margin-right: 10px;"" />
      <img src=""images/blue_deck_1.png"" style=""width: 300px; height: 300px;"" />
    </div>","0","0",""
"","","","","","html-keyboard-response","62","290352","0.0-47.0-0.0","0D0029E3C6C042EB8224BD7A522F4EBF","0D0029E3C6C042EB8224BD7A522F4EBF","b9e84846-34dd-4a9a-ba2e-67f3dd71e5c2","bea99957-1862-4ad8-9558-57b91e42ce64","{""participantId"":""0D0029E3C6C042EB8224BD7A522F4EBF"",""assignmentId"":""b9e84846-34dd-4a9a-ba2e-67f3dd71e5c2"",""projectId"":""bea99957-1862-4ad8-9558-57b91e42ce64""}","https://test12345.live/?participantId=0D0029E3C6C042EB8224BD7A522F4EBF&assignmentId=b9e84846-34dd-4a9a-ba2e-67f3dd71e5c2&projectId=bea99957-1862-4ad8-9558-57b91e42ce64","","null","<div style=""display: flex; justify-content: center; align-items: center;"">
                    <img src=""images/semantic/semantic_series_18/semantic_series_18_a.jpg"" style=""width: 300px; height: 300px;"" />
                  </div>","null","",""
"","","","","","html-keyboard-response","63","293355","0.0-47.0-1.0","0D0029E3C6C042EB8224BD7A522F4EBF","0D0029E3C6C042EB8224BD7A522F4EBF","b9e84846-34dd-4a9a-ba2e-67f3dd71e5c2","bea99957-1862-4ad8-9558-57b91e42ce64","{""participantId"":""0D0029E3C6C042EB8224BD7A522F4EBF"",""assignmentId"":""b9e84846-34dd-4a9a-ba2e-67f3dd71e5c2"",""projectId"":""bea99957-1862-4ad8-9558-57b91e42ce64""}","https://test12345.live/?participantId=0D0029E3C6C042EB8224BD7A522F4EBF&assignmentId=b9e84846-34dd-4a9a-ba2e-67f3dd71e5c2&projectId=bea99957-1862-4ad8-9558-57b91e42ce64","","null","<div style=""display: flex; justify-content: center; align-items: center;"">
                    <img src=""images/semantic/semantic_series_18/semantic_series_18_b.jpg"" style=""width: 300px; height: 300px;"" />
                  </div>","null","",""
"","","","","","html-keyboard-response","64","296358","0.0-47.0-2.0","0D0029E3C6C042EB8224BD7A522F4EBF","0D0029E3C6C042EB8224BD7A522F4EBF","b9e84846-34dd-4a9a-ba2e-67f3dd71e5c2","bea99957-1862-4ad8-9558-57b91e42ce64","{""participantId"":""0D0029E3C6C042EB8224BD7A522F4EBF"",""assignmentId"":""b9e84846-34dd-4a9a-ba2e-67f3dd71e5c2"",""projectId"":""bea99957-1862-4ad8-9558-57b91e42ce64""}","https://test12345.live/?participantId=0D0029E3C6C042EB8224BD7A522F4EBF&assignmentId=b9e84846-34dd-4a9a-ba2e-67f3dd71e5c2&projectId=bea99957-1862-4ad8-9558-57b91e42ce64","","null","<div style=""display: flex; justify-content: center; align-items: center;"">
                    <img src=""images/semantic/semantic_series_18/semantic_series_18_c.jpg"" style=""width: 300px; height: 300px;"" />
                  </div>","null","",""
"","","","","","html-keyboard-response","65","299360","0.0-47.0-3.0","0D0029E3C6C042EB8224BD7A522F4EBF","0D0029E3C6C042EB8224BD7A522F4EBF","b9e84846-34dd-4a9a-ba2e-67f3dd71e5c2","bea99957-1862-4ad8-9558-57b91e42ce64","{""participantId"":""0D0029E3C6C042EB8224BD7A522F4EBF"",""assignmentId"":""b9e84846-34dd-4a9a-ba2e-67f3dd71e5c2"",""projectId"":""bea99957-1862-4ad8-9558-57b91e42ce64""}","https://test12345.live/?participantId=0D0029E3C6C042EB8224BD7A522F4EBF&assignmentId=b9e84846-34dd-4a9a-ba2e-67f3dd71e5c2&projectId=bea99957-1862-4ad8-9558-57b91e42ce64","","null","<div style=""display: flex; justify-content: center; align-items: center;"">
                    <img src=""images/semantic/semantic_series_18/semantic_series_18_d.jpg"" style=""width: 300px; height: 300px;"" />
                  </div>","null","",""
"","","","","","html-button-response","66","302130","0.0-48.0","0D0029E3C6C042EB8224BD7A522F4EBF","0D0029E3C6C042EB8224BD7A522F4EBF","b9e84846-34dd-4a9a-ba2e-67f3dd71e5c2","bea99957-1862-4ad8-9558-57b91e42ce64","{""participantId"":""0D0029E3C6C042EB8224BD7A522F4EBF"",""assignmentId"":""b9e84846-34dd-4a9a-ba2e-67f3dd71e5c2"",""projectId"":""bea99957-1862-4ad8-9558-57b91e42ce64""}","https://test12345.live/?participantId=0D0029E3C6C042EB8224BD7A522F4EBF&assignmentId=b9e84846-34dd-4a9a-ba2e-67f3dd71e5c2&projectId=bea99957-1862-4ad8-9558-57b91e42ce64","","2768","Was there a person in the picture?","1","",""
"","","","","","survey-likert","67","303929","0.0-49.0","0D0029E3C6C042EB8224BD7A522F4EBF","0D0029E3C6C042EB8224BD7A522F4EBF","b9e84846-34dd-4a9a-ba2e-67f3dd71e5c2","bea99957-1862-4ad8-9558-57b91e42ce64","{""participantId"":""0D0029E3C6C042EB8224BD7A522F4EBF"",""assignmentId"":""b9e84846-34dd-4a9a-ba2e-67f3dd71e5c2"",""projectId"":""bea99957-1862-4ad8-9558-57b91e42ce64""}","https://test12345.live/?participantId=0D0029E3C6C042EB8224BD7A522F4EBF&assignmentId=b9e84846-34dd-4a9a-ba2e-67f3dd71e5c2&projectId=bea99957-1862-4ad8-9558-57b91e42ce64","","1798","","{""Q0"":3}","","[0]"
"","","","","","html-button-response","68","304834","0.0-50.0","0D0029E3C6C042EB8224BD7A522F4EBF","0D0029E3C6C042EB8224BD7A522F4EBF","b9e84846-34dd-4a9a-ba2e-67f3dd71e5c2","bea99957-1862-4ad8-9558-57b91e42ce64","{""participantId"":""0D0029E3C6C042EB8224BD7A522F4EBF"",""assignmentId"":""b9e84846-34dd-4a9a-ba2e-67f3dd71e5c2"",""projectId"":""bea99957-1862-4ad8-9558-57b91e42ce64""}","https://test12345.live/?participantId=0D0029E3C6C042EB8224BD7A522F4EBF&assignmentId=b9e84846-34dd-4a9a-ba2e-67f3dd71e5c2&projectId=bea99957-1862-4ad8-9558-57b91e42ce64","","902","
    <div style=""display: flex; justify-content: center; align-items: center;"">
      <img src=""images/red_deck_2.png"" style=""width: 300px; height: 300px; margin-right: 10px;"" />
      <img src=""images/blue_deck_1.png"" style=""width: 300px; height: 300px;"" />
    </div>","1","1",""
"","","","","","html-keyboard-response","69","307836","0.0-51.0-0.0","0D0029E3C6C042EB8224BD7A522F4EBF","0D0029E3C6C042EB8224BD7A522F4EBF","b9e84846-34dd-4a9a-ba2e-67f3dd71e5c2","bea99957-1862-4ad8-9558-57b91e42ce64","{""participantId"":""0D0029E3C6C042EB8224BD7A522F4EBF"",""assignmentId"":""b9e84846-34dd-4a9a-ba2e-67f3dd71e5c2"",""projectId"":""bea99957-1862-4ad8-9558-57b91e42ce64""}","https://test12345.live/?participantId=0D0029E3C6C042EB8224BD7A522F4EBF&assignmentId=b9e84846-34dd-4a9a-ba2e-67f3dd71e5c2&projectId=bea99957-1862-4ad8-9558-57b91e42ce64","","null","<div style=""display: flex; justify-content: center; align-items: center;"">
                    <img src=""images/causal/causal_series_3/causal_series_3_a.jpg"" style=""width: 300px; height: 300px;"" />
                  </div>","null","",""
"","","","","","html-keyboard-response","70","310839","0.0-51.0-1.0","0D0029E3C6C042EB8224BD7A522F4EBF","0D0029E3C6C042EB8224BD7A522F4EBF","b9e84846-34dd-4a9a-ba2e-67f3dd71e5c2","bea99957-1862-4ad8-9558-57b91e42ce64","{""participantId"":""0D0029E3C6C042EB8224BD7A522F4EBF"",""assignmentId"":""b9e84846-34dd-4a9a-ba2e-67f3dd71e5c2"",""projectId"":""bea99957-1862-4ad8-9558-57b91e42ce64""}","https://test12345.live/?participantId=0D0029E3C6C042EB8224BD7A522F4EBF&assignmentId=b9e84846-34dd-4a9a-ba2e-67f3dd71e5c2&projectId=bea99957-1862-4ad8-9558-57b91e42ce64","","null","<div style=""display: flex; justify-content: center; align-items: center;"">
                    <img src=""images/causal/causal_series_3/causal_series_3_b.jpg"" style=""width: 300px; height: 300px;"" />
                  </div>","null","",""
"","","","","","html-keyboard-response","71","313841","0.0-51.0-2.0","0D0029E3C6C042EB8224BD7A522F4EBF","0D0029E3C6C042EB8224BD7A522F4EBF","b9e84846-34dd-4a9a-ba2e-67f3dd71e5c2","bea99957-1862-4ad8-9558-57b91e42ce64","{""participantId"":""0D0029E3C6C042EB8224BD7A522F4EBF"",""assignmentId"":""b9e84846-34dd-4a9a-ba2e-67f3dd71e5c2"",""projectId"":""bea99957-1862-4ad8-9558-57b91e42ce64""}","https://test12345.live/?participantId=0D0029E3C6C042EB8224BD7A522F4EBF&assignmentId=b9e84846-34dd-4a9a-ba2e-67f3dd71e5c2&projectId=bea99957-1862-4ad8-9558-57b91e42ce64","","null","<div style=""display: flex; justify-content: center; align-items: center;"">
                    <img src=""images/causal/causal_series_3/causal_series_3_c.jpg"" style=""width: 300px; height: 300px;"" />
                  </div>","null","",""
"","","","","","html-keyboard-response","72","316843","0.0-51.0-3.0","0D0029E3C6C042EB8224BD7A522F4EBF","0D0029E3C6C042EB8224BD7A522F4EBF","b9e84846-34dd-4a9a-ba2e-67f3dd71e5c2","bea99957-1862-4ad8-9558-57b91e42ce64","{""participantId"":""0D0029E3C6C042EB8224BD7A522F4EBF"",""assignmentId"":""b9e84846-34dd-4a9a-ba2e-67f3dd71e5c2"",""projectId"":""bea99957-1862-4ad8-9558-57b91e42ce64""}","https://test12345.live/?participantId=0D0029E3C6C042EB8224BD7A522F4EBF&assignmentId=b9e84846-34dd-4a9a-ba2e-67f3dd71e5c2&projectId=bea99957-1862-4ad8-9558-57b91e42ce64","","null","<div style=""display: flex; justify-content: center; align-items: center;"">
                    <img src=""images/causal/causal_series_3/causal_series_3_d.jpg"" style=""width: 300px; height: 300px;"" />
                  </div>","null","",""
"","","","","","html-button-response","73","323985","0.0-53.0","0D0029E3C6C042EB8224BD7A522F4EBF","0D0029E3C6C042EB8224BD7A522F4EBF","b9e84846-34dd-4a9a-ba2e-67f3dd71e5c2","bea99957-1862-4ad8-9558-57b91e42ce64","{""participantId"":""0D0029E3C6C042EB8224BD7A522F4EBF"",""assignmentId"":""b9e84846-34dd-4a9a-ba2e-67f3dd71e5c2"",""projectId"":""bea99957-1862-4ad8-9558-57b91e42ce64""}","https://test12345.live/?participantId=0D0029E3C6C042EB8224BD7A522F4EBF&assignmentId=b9e84846-34dd-4a9a-ba2e-67f3dd71e5c2&projectId=bea99957-1862-4ad8-9558-57b91e42ce64","","7140","Was there a person in the picture?","0","",""
"","","","","","survey-likert","74","326054","0.0-54.0","0D0029E3C6C042EB8224BD7A522F4EBF","0D0029E3C6C042EB8224BD7A522F4EBF","b9e84846-34dd-4a9a-ba2e-67f3dd71e5c2","bea99957-1862-4ad8-9558-57b91e42ce64","{""participantId"":""0D0029E3C6C042EB8224BD7A522F4EBF"",""assignmentId"":""b9e84846-34dd-4a9a-ba2e-67f3dd71e5c2"",""projectId"":""bea99957-1862-4ad8-9558-57b91e42ce64""}","https://test12345.live/?participantId=0D0029E3C6C042EB8224BD7A522F4EBF&assignmentId=b9e84846-34dd-4a9a-ba2e-67f3dd71e5c2&projectId=bea99957-1862-4ad8-9558-57b91e42ce64","","2068","","{""Q0"":2}","","[0]"
"","","","","","html-button-response","75","327117","0.0-55.0","0D0029E3C6C042EB8224BD7A522F4EBF","0D0029E3C6C042EB8224BD7A522F4EBF","b9e84846-34dd-4a9a-ba2e-67f3dd71e5c2","bea99957-1862-4ad8-9558-57b91e42ce64","{""participantId"":""0D0029E3C6C042EB8224BD7A522F4EBF"",""assignmentId"":""b9e84846-34dd-4a9a-ba2e-67f3dd71e5c2"",""projectId"":""bea99957-1862-4ad8-9558-57b91e42ce64""}","https://test12345.live/?participantId=0D0029E3C6C042EB8224BD7A522F4EBF&assignmentId=b9e84846-34dd-4a9a-ba2e-67f3dd71e5c2&projectId=bea99957-1862-4ad8-9558-57b91e42ce64","","1061","
    <div style=""display: flex; justify-content: center; align-items: center;"">
      <img src=""images/red_deck_2.png"" style=""width: 300px; height: 300px; margin-right: 10px;"" />
      <img src=""images/blue_deck_1.png"" style=""width: 300px; height: 300px;"" />
    </div>","1","1",""
"","","","","","html-keyboard-response","76","330119","0.0-56.0-0.0","0D0029E3C6C042EB8224BD7A522F4EBF","0D0029E3C6C042EB8224BD7A522F4EBF","b9e84846-34dd-4a9a-ba2e-67f3dd71e5c2","bea99957-1862-4ad8-9558-57b91e42ce64","{""participantId"":""0D0029E3C6C042EB8224BD7A522F4EBF"",""assignmentId"":""b9e84846-34dd-4a9a-ba2e-67f3dd71e5c2"",""projectId"":""bea99957-1862-4ad8-9558-57b91e42ce64""}","https://test12345.live/?participantId=0D0029E3C6C042EB8224BD7A522F4EBF&assignmentId=b9e84846-34dd-4a9a-ba2e-67f3dd71e5c2&projectId=bea99957-1862-4ad8-9558-57b91e42ce64","","null","<div style=""display: flex; justify-content: center; align-items: center;"">
                    <img src=""images/causal/causal_series_13/causal_series_13_a.jpg"" style=""width: 300px; height: 300px;"" />
                  </div>","null","",""
"","","","","","html-keyboard-response","77","333121","0.0-56.0-1.0","0D0029E3C6C042EB8224BD7A522F4EBF","0D0029E3C6C042EB8224BD7A522F4EBF","b9e84846-34dd-4a9a-ba2e-67f3dd71e5c2","bea99957-1862-4ad8-9558-57b91e42ce64","{""participantId"":""0D0029E3C6C042EB8224BD7A522F4EBF"",""assignmentId"":""b9e84846-34dd-4a9a-ba2e-67f3dd71e5c2"",""projectId"":""bea99957-1862-4ad8-9558-57b91e42ce64""}","https://test12345.live/?participantId=0D0029E3C6C042EB8224BD7A522F4EBF&assignmentId=b9e84846-34dd-4a9a-ba2e-67f3dd71e5c2&projectId=bea99957-1862-4ad8-9558-57b91e42ce64","","null","<div style=""display: flex; justify-content: center; align-items: center;"">
                    <img src=""images/causal/causal_series_13/causal_series_13_b.jpg"" style=""width: 300px; height: 300px;"" />
                  </div>","null","",""
"","","","","","html-keyboard-response","78","336126","0.0-56.0-2.0","0D0029E3C6C042EB8224BD7A522F4EBF","0D0029E3C6C042EB8224BD7A522F4EBF","b9e84846-34dd-4a9a-ba2e-67f3dd71e5c2","bea99957-1862-4ad8-9558-57b91e42ce64","{""participantId"":""0D0029E3C6C042EB8224BD7A522F4EBF"",""assignmentId"":""b9e84846-34dd-4a9a-ba2e-67f3dd71e5c2"",""projectId"":""bea99957-1862-4ad8-9558-57b91e42ce64""}","https://test12345.live/?participantId=0D0029E3C6C042EB8224BD7A522F4EBF&assignmentId=b9e84846-34dd-4a9a-ba2e-67f3dd71e5c2&projectId=bea99957-1862-4ad8-9558-57b91e42ce64","","null","<div style=""display: flex; justify-content: center; align-items: center;"">
                    <img src=""images/causal/causal_series_13/causal_series_13_c.jpg"" style=""width: 300px; height: 300px;"" />
                  </div>","null","",""
"","","","","","html-keyboard-response","79","339127","0.0-56.0-3.0","0D0029E3C6C042EB8224BD7A522F4EBF","0D0029E3C6C042EB8224BD7A522F4EBF","b9e84846-34dd-4a9a-ba2e-67f3dd71e5c2","bea99957-1862-4ad8-9558-57b91e42ce64","{""participantId"":""0D0029E3C6C042EB8224BD7A522F4EBF"",""assignmentId"":""b9e84846-34dd-4a9a-ba2e-67f3dd71e5c2"",""projectId"":""bea99957-1862-4ad8-9558-57b91e42ce64""}","https://test12345.live/?participantId=0D0029E3C6C042EB8224BD7A522F4EBF&assignmentId=b9e84846-34dd-4a9a-ba2e-67f3dd71e5c2&projectId=bea99957-1862-4ad8-9558-57b91e42ce64","","null","<div style=""display: flex; justify-content: center; align-items: center;"">
                    <img src=""images/causal/causal_series_13/causal_series_13_d.jpg"" style=""width: 300px; height: 300px;"" />
                  </div>","null","",""
"","","","","","html-button-response","80","347986","0.0-58.0","0D0029E3C6C042EB8224BD7A522F4EBF","0D0029E3C6C042EB8224BD7A522F4EBF","b9e84846-34dd-4a9a-ba2e-67f3dd71e5c2","bea99957-1862-4ad8-9558-57b91e42ce64","{""participantId"":""0D0029E3C6C042EB8224BD7A522F4EBF"",""assignmentId"":""b9e84846-34dd-4a9a-ba2e-67f3dd71e5c2"",""projectId"":""bea99957-1862-4ad8-9558-57b91e42ce64""}","https://test12345.live/?participantId=0D0029E3C6C042EB8224BD7A522F4EBF&assignmentId=b9e84846-34dd-4a9a-ba2e-67f3dd71e5c2&projectId=bea99957-1862-4ad8-9558-57b91e42ce64","","8858","Was there a person in the picture?","0","",""
"","","","","","survey-likert","81","350964","0.0-59.0","0D0029E3C6C042EB8224BD7A522F4EBF","0D0029E3C6C042EB8224BD7A522F4EBF","b9e84846-34dd-4a9a-ba2e-67f3dd71e5c2","bea99957-1862-4ad8-9558-57b91e42ce64","{""participantId"":""0D0029E3C6C042EB8224BD7A522F4EBF"",""assignmentId"":""b9e84846-34dd-4a9a-ba2e-67f3dd71e5c2"",""projectId"":""bea99957-1862-4ad8-9558-57b91e42ce64""}","https://test12345.live/?participantId=0D0029E3C6C042EB8224BD7A522F4EBF&assignmentId=b9e84846-34dd-4a9a-ba2e-67f3dd71e5c2&projectId=bea99957-1862-4ad8-9558-57b91e42ce64","","2977","","{""Q0"":2}","","[0]"
"","","","","","html-button-response","82","351910","0.0-60.0","0D0029E3C6C042EB8224BD7A522F4EBF","0D0029E3C6C042EB8224BD7A522F4EBF","b9e84846-34dd-4a9a-ba2e-67f3dd71e5c2","bea99957-1862-4ad8-9558-57b91e42ce64","{""participantId"":""0D0029E3C6C042EB8224BD7A522F4EBF"",""assignmentId"":""b9e84846-34dd-4a9a-ba2e-67f3dd71e5c2"",""projectId"":""bea99957-1862-4ad8-9558-57b91e42ce64""}","https://test12345.live/?participantId=0D0029E3C6C042EB8224BD7A522F4EBF&assignmentId=b9e84846-34dd-4a9a-ba2e-67f3dd71e5c2&projectId=bea99957-1862-4ad8-9558-57b91e42ce64","","944","
    <div style=""display: flex; justify-content: center; align-items: center;"">
      <img src=""images/red_deck_2.png"" style=""width: 300px; height: 300px; margin-right: 10px;"" />
      <img src=""images/blue_deck_1.png"" style=""width: 300px; height: 300px;"" />
    </div>","0","0",""
"","","","","","html-keyboard-response","83","354912","0.0-62.0-0.0","0D0029E3C6C042EB8224BD7A522F4EBF","0D0029E3C6C042EB8224BD7A522F4EBF","b9e84846-34dd-4a9a-ba2e-67f3dd71e5c2","bea99957-1862-4ad8-9558-57b91e42ce64","{""participantId"":""0D0029E3C6C042EB8224BD7A522F4EBF"",""assignmentId"":""b9e84846-34dd-4a9a-ba2e-67f3dd71e5c2"",""projectId"":""bea99957-1862-4ad8-9558-57b91e42ce64""}","https://test12345.live/?participantId=0D0029E3C6C042EB8224BD7A522F4EBF&assignmentId=b9e84846-34dd-4a9a-ba2e-67f3dd71e5c2&projectId=bea99957-1862-4ad8-9558-57b91e42ce64","","null","<div style=""display: flex; justify-content: center; align-items: center;"">
                    <img src=""images/semantic/semantic_series_15/semantic_series_15_a.jpg"" style=""width: 300px; height: 300px;"" />
                  </div>","null","",""
"","","","","","html-keyboard-response","84","357915","0.0-62.0-1.0","0D0029E3C6C042EB8224BD7A522F4EBF","0D0029E3C6C042EB8224BD7A522F4EBF","b9e84846-34dd-4a9a-ba2e-67f3dd71e5c2","bea99957-1862-4ad8-9558-57b91e42ce64","{""participantId"":""0D0029E3C6C042EB8224BD7A522F4EBF"",""assignmentId"":""b9e84846-34dd-4a9a-ba2e-67f3dd71e5c2"",""projectId"":""bea99957-1862-4ad8-9558-57b91e42ce64""}","https://test12345.live/?participantId=0D0029E3C6C042EB8224BD7A522F4EBF&assignmentId=b9e84846-34dd-4a9a-ba2e-67f3dd71e5c2&projectId=bea99957-1862-4ad8-9558-57b91e42ce64","","null","<div style=""display: flex; justify-content: center; align-items: center;"">
                    <img src=""images/semantic/semantic_series_15/semantic_series_15_b.jpg"" style=""width: 300px; height: 300px;"" />
                  </div>","null","",""
"","","","","","html-keyboard-response","85","360919","0.0-62.0-2.0","0D0029E3C6C042EB8224BD7A522F4EBF","0D0029E3C6C042EB8224BD7A522F4EBF","b9e84846-34dd-4a9a-ba2e-67f3dd71e5c2","bea99957-1862-4ad8-9558-57b91e42ce64","{""participantId"":""0D0029E3C6C042EB8224BD7A522F4EBF"",""assignmentId"":""b9e84846-34dd-4a9a-ba2e-67f3dd71e5c2"",""projectId"":""bea99957-1862-4ad8-9558-57b91e42ce64""}","https://test12345.live/?participantId=0D0029E3C6C042EB8224BD7A522F4EBF&assignmentId=b9e84846-34dd-4a9a-ba2e-67f3dd71e5c2&projectId=bea99957-1862-4ad8-9558-57b91e42ce64","","null","<div style=""display: flex; justify-content: center; align-items: center;"">
                    <img src=""images/semantic/semantic_series_15/semantic_series_15_c.jpg"" style=""width: 300px; height: 300px;"" />
                  </div>","null","",""
"","","","","","html-keyboard-response","86","363922","0.0-62.0-3.0","0D0029E3C6C042EB8224BD7A522F4EBF","0D0029E3C6C042EB8224BD7A522F4EBF","b9e84846-34dd-4a9a-ba2e-67f3dd71e5c2","bea99957-1862-4ad8-9558-57b91e42ce64","{""participantId"":""0D0029E3C6C042EB8224BD7A522F4EBF"",""assignmentId"":""b9e84846-34dd-4a9a-ba2e-67f3dd71e5c2"",""projectId"":""bea99957-1862-4ad8-9558-57b91e42ce64""}","https://test12345.live/?participantId=0D0029E3C6C042EB8224BD7A522F4EBF&assignmentId=b9e84846-34dd-4a9a-ba2e-67f3dd71e5c2&projectId=bea99957-1862-4ad8-9558-57b91e42ce64","","null","<div style=""display: flex; justify-content: center; align-items: center;"">
                    <img src=""images/semantic/semantic_series_15/semantic_series_15_d.jpg"" style=""width: 300px; height: 300px;"" />
                  </div>","null","",""
"","","","","","html-button-response","87","372002","0.0-63.0","0D0029E3C6C042EB8224BD7A522F4EBF","0D0029E3C6C042EB8224BD7A522F4EBF","b9e84846-34dd-4a9a-ba2e-67f3dd71e5c2","bea99957-1862-4ad8-9558-57b91e42ce64","{""participantId"":""0D0029E3C6C042EB8224BD7A522F4EBF"",""assignmentId"":""b9e84846-34dd-4a9a-ba2e-67f3dd71e5c2"",""projectId"":""bea99957-1862-4ad8-9558-57b91e42ce64""}","https://test12345.live/?participantId=0D0029E3C6C042EB8224BD7A522F4EBF&assignmentId=b9e84846-34dd-4a9a-ba2e-67f3dd71e5c2&projectId=bea99957-1862-4ad8-9558-57b91e42ce64","","8080","Was there a person in the picture?","1","",""
"","","","","","survey-likert","88","374929","0.0-64.0","0D0029E3C6C042EB8224BD7A522F4EBF","0D0029E3C6C042EB8224BD7A522F4EBF","b9e84846-34dd-4a9a-ba2e-67f3dd71e5c2","bea99957-1862-4ad8-9558-57b91e42ce64","{""participantId"":""0D0029E3C6C042EB8224BD7A522F4EBF"",""assignmentId"":""b9e84846-34dd-4a9a-ba2e-67f3dd71e5c2"",""projectId"":""bea99957-1862-4ad8-9558-57b91e42ce64""}","https://test12345.live/?participantId=0D0029E3C6C042EB8224BD7A522F4EBF&assignmentId=b9e84846-34dd-4a9a-ba2e-67f3dd71e5c2&projectId=bea99957-1862-4ad8-9558-57b91e42ce64","","2926","","{""Q0"":1}","","[0]"
"","","","","","html-button-response","89","376247","0.0-65.0","0D0029E3C6C042EB8224BD7A522F4EBF","0D0029E3C6C042EB8224BD7A522F4EBF","b9e84846-34dd-4a9a-ba2e-67f3dd71e5c2","bea99957-1862-4ad8-9558-57b91e42ce64","{""participantId"":""0D0029E3C6C042EB8224BD7A522F4EBF"",""assignmentId"":""b9e84846-34dd-4a9a-ba2e-67f3dd71e5c2"",""projectId"":""bea99957-1862-4ad8-9558-57b91e42ce64""}","https://test12345.live/?participantId=0D0029E3C6C042EB8224BD7A522F4EBF&assignmentId=b9e84846-34dd-4a9a-ba2e-67f3dd71e5c2&projectId=bea99957-1862-4ad8-9558-57b91e42ce64","","1315","
    <div style=""display: flex; justify-content: center; align-items: center;"">
      <img src=""images/red_deck_2.png"" style=""width: 300px; height: 300px; margin-right: 10px;"" />
      <img src=""images/blue_deck_1.png"" style=""width: 300px; height: 300px;"" />
    </div>","1","1",""
"","","","","","html-keyboard-response","90","379250","0.0-66.0-0.0","0D0029E3C6C042EB8224BD7A522F4EBF","0D0029E3C6C042EB8224BD7A522F4EBF","b9e84846-34dd-4a9a-ba2e-67f3dd71e5c2","bea99957-1862-4ad8-9558-57b91e42ce64","{""participantId"":""0D0029E3C6C042EB8224BD7A522F4EBF"",""assignmentId"":""b9e84846-34dd-4a9a-ba2e-67f3dd71e5c2"",""projectId"":""bea99957-1862-4ad8-9558-57b91e42ce64""}","https://test12345.live/?participantId=0D0029E3C6C042EB8224BD7A522F4EBF&assignmentId=b9e84846-34dd-4a9a-ba2e-67f3dd71e5c2&projectId=bea99957-1862-4ad8-9558-57b91e42ce64","","null","<div style=""display: flex; justify-content: center; align-items: center;"">
                    <img src=""images/causal/causal_series_11/causal_series_11_a.jpg"" style=""width: 300px; height: 300px;"" />
                  </div>","null","",""
"","","","","","html-keyboard-response","91","382252","0.0-66.0-1.0","0D0029E3C6C042EB8224BD7A522F4EBF","0D0029E3C6C042EB8224BD7A522F4EBF","b9e84846-34dd-4a9a-ba2e-67f3dd71e5c2","bea99957-1862-4ad8-9558-57b91e42ce64","{""participantId"":""0D0029E3C6C042EB8224BD7A522F4EBF"",""assignmentId"":""b9e84846-34dd-4a9a-ba2e-67f3dd71e5c2"",""projectId"":""bea99957-1862-4ad8-9558-57b91e42ce64""}","https://test12345.live/?participantId=0D0029E3C6C042EB8224BD7A522F4EBF&assignmentId=b9e84846-34dd-4a9a-ba2e-67f3dd71e5c2&projectId=bea99957-1862-4ad8-9558-57b91e42ce64","","null","<div style=""display: flex; justify-content: center; align-items: center;"">
                    <img src=""images/causal/causal_series_11/causal_series_11_b.jpg"" style=""width: 300px; height: 300px;"" />
                  </div>","null","",""
"","","","","","html-keyboard-response","92","385254","0.0-66.0-2.0","0D0029E3C6C042EB8224BD7A522F4EBF","0D0029E3C6C042EB8224BD7A522F4EBF","b9e84846-34dd-4a9a-ba2e-67f3dd71e5c2","bea99957-1862-4ad8-9558-57b91e42ce64","{""participantId"":""0D0029E3C6C042EB8224BD7A522F4EBF"",""assignmentId"":""b9e84846-34dd-4a9a-ba2e-67f3dd71e5c2"",""projectId"":""bea99957-1862-4ad8-9558-57b91e42ce64""}","https://test12345.live/?participantId=0D0029E3C6C042EB8224BD7A522F4EBF&assignmentId=b9e84846-34dd-4a9a-ba2e-67f3dd71e5c2&projectId=bea99957-1862-4ad8-9558-57b91e42ce64","","null","<div style=""display: flex; justify-content: center; align-items: center;"">
                    <img src=""images/causal/causal_series_11/causal_series_11_c.jpg"" style=""width: 300px; height: 300px;"" />
                  </div>","null","",""
"","","","","","html-keyboard-response","93","388257","0.0-66.0-3.0","0D0029E3C6C042EB8224BD7A522F4EBF","0D0029E3C6C042EB8224BD7A522F4EBF","b9e84846-34dd-4a9a-ba2e-67f3dd71e5c2","bea99957-1862-4ad8-9558-57b91e42ce64","{""participantId"":""0D0029E3C6C042EB8224BD7A522F4EBF"",""assignmentId"":""b9e84846-34dd-4a9a-ba2e-67f3dd71e5c2"",""projectId"":""bea99957-1862-4ad8-9558-57b91e42ce64""}","https://test12345.live/?participantId=0D0029E3C6C042EB8224BD7A522F4EBF&assignmentId=b9e84846-34dd-4a9a-ba2e-67f3dd71e5c2&projectId=bea99957-1862-4ad8-9558-57b91e42ce64","","null","<div style=""display: flex; justify-content: center; align-items: center;"">
                    <img src=""images/causal/causal_series_11/causal_series_11_d.jpg"" style=""width: 300px; height: 300px;"" />
                  </div>","null","",""
"","","","","","html-button-response","94","395318","0.0-68.0","0D0029E3C6C042EB8224BD7A522F4EBF","0D0029E3C6C042EB8224BD7A522F4EBF","b9e84846-34dd-4a9a-ba2e-67f3dd71e5c2","bea99957-1862-4ad8-9558-57b91e42ce64","{""participantId"":""0D0029E3C6C042EB8224BD7A522F4EBF"",""assignmentId"":""b9e84846-34dd-4a9a-ba2e-67f3dd71e5c2"",""projectId"":""bea99957-1862-4ad8-9558-57b91e42ce64""}","https://test12345.live/?participantId=0D0029E3C6C042EB8224BD7A522F4EBF&assignmentId=b9e84846-34dd-4a9a-ba2e-67f3dd71e5c2&projectId=bea99957-1862-4ad8-9558-57b91e42ce64","","7060","Was there a person in the picture?","1","",""
"","","","","","survey-likert","95","399133","0.0-69.0","0D0029E3C6C042EB8224BD7A522F4EBF","0D0029E3C6C042EB8224BD7A522F4EBF","b9e84846-34dd-4a9a-ba2e-67f3dd71e5c2","bea99957-1862-4ad8-9558-57b91e42ce64","{""participantId"":""0D0029E3C6C042EB8224BD7A522F4EBF"",""assignmentId"":""b9e84846-34dd-4a9a-ba2e-67f3dd71e5c2"",""projectId"":""bea99957-1862-4ad8-9558-57b91e42ce64""}","https://test12345.live/?participantId=0D0029E3C6C042EB8224BD7A522F4EBF&assignmentId=b9e84846-34dd-4a9a-ba2e-67f3dd71e5c2&projectId=bea99957-1862-4ad8-9558-57b91e42ce64","","3814","","{""Q0"":2}","","[0]"
"","","","","","html-button-response","96","400081","0.0-70.0","0D0029E3C6C042EB8224BD7A522F4EBF","0D0029E3C6C042EB8224BD7A522F4EBF","b9e84846-34dd-4a9a-ba2e-67f3dd71e5c2","bea99957-1862-4ad8-9558-57b91e42ce64","{""participantId"":""0D0029E3C6C042EB8224BD7A522F4EBF"",""assignmentId"":""b9e84846-34dd-4a9a-ba2e-67f3dd71e5c2"",""projectId"":""bea99957-1862-4ad8-9558-57b91e42ce64""}","https://test12345.live/?participantId=0D0029E3C6C042EB8224BD7A522F4EBF&assignmentId=b9e84846-34dd-4a9a-ba2e-67f3dd71e5c2&projectId=bea99957-1862-4ad8-9558-57b91e42ce64","","947","
    <div style=""display: flex; justify-content: center; align-items: center;"">
      <img src=""images/red_deck_2.png"" style=""width: 300px; height: 300px; margin-right: 10px;"" />
      <img src=""images/blue_deck_1.png"" style=""width: 300px; height: 300px;"" />
    </div>","1","1",""
"","","","","","html-keyboard-response","97","403084","0.0-71.0-0.0","0D0029E3C6C042EB8224BD7A522F4EBF","0D0029E3C6C042EB8224BD7A522F4EBF","b9e84846-34dd-4a9a-ba2e-67f3dd71e5c2","bea99957-1862-4ad8-9558-57b91e42ce64","{""participantId"":""0D0029E3C6C042EB8224BD7A522F4EBF"",""assignmentId"":""b9e84846-34dd-4a9a-ba2e-67f3dd71e5c2"",""projectId"":""bea99957-1862-4ad8-9558-57b91e42ce64""}","https://test12345.live/?participantId=0D0029E3C6C042EB8224BD7A522F4EBF&assignmentId=b9e84846-34dd-4a9a-ba2e-67f3dd71e5c2&projectId=bea99957-1862-4ad8-9558-57b91e42ce64","","null","<div style=""display: flex; justify-content: center; align-items: center;"">
                    <img src=""images/causal/causal_series_1/causal_series_1_a.jpg"" style=""width: 300px; height: 300px;"" />
                  </div>","null","",""
"","","","","","html-keyboard-response","98","406085","0.0-71.0-1.0","0D0029E3C6C042EB8224BD7A522F4EBF","0D0029E3C6C042EB8224BD7A522F4EBF","b9e84846-34dd-4a9a-ba2e-67f3dd71e5c2","bea99957-1862-4ad8-9558-57b91e42ce64","{""participantId"":""0D0029E3C6C042EB8224BD7A522F4EBF"",""assignmentId"":""b9e84846-34dd-4a9a-ba2e-67f3dd71e5c2"",""projectId"":""bea99957-1862-4ad8-9558-57b91e42ce64""}","https://test12345.live/?participantId=0D0029E3C6C042EB8224BD7A522F4EBF&assignmentId=b9e84846-34dd-4a9a-ba2e-67f3dd71e5c2&projectId=bea99957-1862-4ad8-9558-57b91e42ce64","","null","<div style=""display: flex; justify-content: center; align-items: center;"">
                    <img src=""images/causal/causal_series_1/causal_series_1_b.jpg"" style=""width: 300px; height: 300px;"" />
                  </div>","null","",""
"","","","","","html-keyboard-response","99","409088","0.0-71.0-2.0","0D0029E3C6C042EB8224BD7A522F4EBF","0D0029E3C6C042EB8224BD7A522F4EBF","b9e84846-34dd-4a9a-ba2e-67f3dd71e5c2","bea99957-1862-4ad8-9558-57b91e42ce64","{""participantId"":""0D0029E3C6C042EB8224BD7A522F4EBF"",""assignmentId"":""b9e84846-34dd-4a9a-ba2e-67f3dd71e5c2"",""projectId"":""bea99957-1862-4ad8-9558-57b91e42ce64""}","https://test12345.live/?participantId=0D0029E3C6C042EB8224BD7A522F4EBF&assignmentId=b9e84846-34dd-4a9a-ba2e-67f3dd71e5c2&projectId=bea99957-1862-4ad8-9558-57b91e42ce64","","null","<div style=""display: flex; justify-content: center; align-items: center;"">
                    <img src=""images/causal/causal_series_1/causal_series_1_c.jpg"" style=""width: 300px; height: 300px;"" />
                  </div>","null","",""
"","","","","","html-keyboard-response","100","412090","0.0-71.0-3.0","0D0029E3C6C042EB8224BD7A522F4EBF","0D0029E3C6C042EB8224BD7A522F4EBF","b9e84846-34dd-4a9a-ba2e-67f3dd71e5c2","bea99957-1862-4ad8-9558-57b91e42ce64","{""participantId"":""0D0029E3C6C042EB8224BD7A522F4EBF"",""assignmentId"":""b9e84846-34dd-4a9a-ba2e-67f3dd71e5c2"",""projectId"":""bea99957-1862-4ad8-9558-57b91e42ce64""}","https://test12345.live/?participantId=0D0029E3C6C042EB8224BD7A522F4EBF&assignmentId=b9e84846-34dd-4a9a-ba2e-67f3dd71e5c2&projectId=bea99957-1862-4ad8-9558-57b91e42ce64","","null","<div style=""display: flex; justify-content: center; align-items: center;"">
                    <img src=""images/causal/causal_series_1/causal_series_1_d.jpg"" style=""width: 300px; height: 300px;"" />
                  </div>","null","",""
"","","","","","html-button-response","101","413350","0.0-73.0","0D0029E3C6C042EB8224BD7A522F4EBF","0D0029E3C6C042EB8224BD7A522F4EBF","b9e84846-34dd-4a9a-ba2e-67f3dd71e5c2","bea99957-1862-4ad8-9558-57b91e42ce64","{""participantId"":""0D0029E3C6C042EB8224BD7A522F4EBF"",""assignmentId"":""b9e84846-34dd-4a9a-ba2e-67f3dd71e5c2"",""projectId"":""bea99957-1862-4ad8-9558-57b91e42ce64""}","https://test12345.live/?participantId=0D0029E3C6C042EB8224BD7A522F4EBF&assignmentId=b9e84846-34dd-4a9a-ba2e-67f3dd71e5c2&projectId=bea99957-1862-4ad8-9558-57b91e42ce64","","1259","Was there a person in the picture?","0","",""
"","","","","","survey-likert","102","416009","0.0-74.0","0D0029E3C6C042EB8224BD7A522F4EBF","0D0029E3C6C042EB8224BD7A522F4EBF","b9e84846-34dd-4a9a-ba2e-67f3dd71e5c2","bea99957-1862-4ad8-9558-57b91e42ce64","{""participantId"":""0D0029E3C6C042EB8224BD7A522F4EBF"",""assignmentId"":""b9e84846-34dd-4a9a-ba2e-67f3dd71e5c2"",""projectId"":""bea99957-1862-4ad8-9558-57b91e42ce64""}","https://test12345.live/?participantId=0D0029E3C6C042EB8224BD7A522F4EBF&assignmentId=b9e84846-34dd-4a9a-ba2e-67f3dd71e5c2&projectId=bea99957-1862-4ad8-9558-57b91e42ce64","","2658","","{""Q0"":1}","","[0]"
"","","","","","html-button-response","103","416910","0.0-75.0","0D0029E3C6C042EB8224BD7A522F4EBF","0D0029E3C6C042EB8224BD7A522F4EBF","b9e84846-34dd-4a9a-ba2e-67f3dd71e5c2","bea99957-1862-4ad8-9558-57b91e42ce64","{""participantId"":""0D0029E3C6C042EB8224BD7A522F4EBF"",""assignmentId"":""b9e84846-34dd-4a9a-ba2e-67f3dd71e5c2"",""projectId"":""bea99957-1862-4ad8-9558-57b91e42ce64""}","https://test12345.live/?participantId=0D0029E3C6C042EB8224BD7A522F4EBF&assignmentId=b9e84846-34dd-4a9a-ba2e-67f3dd71e5c2&projectId=bea99957-1862-4ad8-9558-57b91e42ce64","","900","
    <div style=""display: flex; justify-content: center; align-items: center;"">
      <img src=""images/red_deck_2.png"" style=""width: 300px; height: 300px; margin-right: 10px;"" />
      <img src=""images/blue_deck_1.png"" style=""width: 300px; height: 300px;"" />
    </div>","0","0",""
"","","","","","html-keyboard-response","104","419912","0.0-77.0-0.0","0D0029E3C6C042EB8224BD7A522F4EBF","0D0029E3C6C042EB8224BD7A522F4EBF","b9e84846-34dd-4a9a-ba2e-67f3dd71e5c2","bea99957-1862-4ad8-9558-57b91e42ce64","{""participantId"":""0D0029E3C6C042EB8224BD7A522F4EBF"",""assignmentId"":""b9e84846-34dd-4a9a-ba2e-67f3dd71e5c2"",""projectId"":""bea99957-1862-4ad8-9558-57b91e42ce64""}","https://test12345.live/?participantId=0D0029E3C6C042EB8224BD7A522F4EBF&assignmentId=b9e84846-34dd-4a9a-ba2e-67f3dd71e5c2&projectId=bea99957-1862-4ad8-9558-57b91e42ce64","","null","<div style=""display: flex; justify-content: center; align-items: center;"">
                    <img src=""images/semantic/semantic_series_13/semantic_series_13_a.jpg"" style=""width: 300px; height: 300px;"" />
                  </div>","null","",""
"","","","","","html-keyboard-response","105","422915","0.0-77.0-1.0","0D0029E3C6C042EB8224BD7A522F4EBF","0D0029E3C6C042EB8224BD7A522F4EBF","b9e84846-34dd-4a9a-ba2e-67f3dd71e5c2","bea99957-1862-4ad8-9558-57b91e42ce64","{""participantId"":""0D0029E3C6C042EB8224BD7A522F4EBF"",""assignmentId"":""b9e84846-34dd-4a9a-ba2e-67f3dd71e5c2"",""projectId"":""bea99957-1862-4ad8-9558-57b91e42ce64""}","https://test12345.live/?participantId=0D0029E3C6C042EB8224BD7A522F4EBF&assignmentId=b9e84846-34dd-4a9a-ba2e-67f3dd71e5c2&projectId=bea99957-1862-4ad8-9558-57b91e42ce64","","null","<div style=""display: flex; justify-content: center; align-items: center;"">
                    <img src=""images/semantic/semantic_series_13/semantic_series_13_b.jpg"" style=""width: 300px; height: 300px;"" />
                  </div>","null","",""
"","","","","","html-keyboard-response","106","425919","0.0-77.0-2.0","0D0029E3C6C042EB8224BD7A522F4EBF","0D0029E3C6C042EB8224BD7A522F4EBF","b9e84846-34dd-4a9a-ba2e-67f3dd71e5c2","bea99957-1862-4ad8-9558-57b91e42ce64","{""participantId"":""0D0029E3C6C042EB8224BD7A522F4EBF"",""assignmentId"":""b9e84846-34dd-4a9a-ba2e-67f3dd71e5c2"",""projectId"":""bea99957-1862-4ad8-9558-57b91e42ce64""}","https://test12345.live/?participantId=0D0029E3C6C042EB8224BD7A522F4EBF&assignmentId=b9e84846-34dd-4a9a-ba2e-67f3dd71e5c2&projectId=bea99957-1862-4ad8-9558-57b91e42ce64","","null","<div style=""display: flex; justify-content: center; align-items: center;"">
                    <img src=""images/semantic/semantic_series_13/semantic_series_13_c.jpg"" style=""width: 300px; height: 300px;"" />
                  </div>","null","",""
"","","","","","html-keyboard-response","107","428922","0.0-77.0-3.0","0D0029E3C6C042EB8224BD7A522F4EBF","0D0029E3C6C042EB8224BD7A522F4EBF","b9e84846-34dd-4a9a-ba2e-67f3dd71e5c2","bea99957-1862-4ad8-9558-57b91e42ce64","{""participantId"":""0D0029E3C6C042EB8224BD7A522F4EBF"",""assignmentId"":""b9e84846-34dd-4a9a-ba2e-67f3dd71e5c2"",""projectId"":""bea99957-1862-4ad8-9558-57b91e42ce64""}","https://test12345.live/?participantId=0D0029E3C6C042EB8224BD7A522F4EBF&assignmentId=b9e84846-34dd-4a9a-ba2e-67f3dd71e5c2&projectId=bea99957-1862-4ad8-9558-57b91e42ce64","","null","<div style=""display: flex; justify-content: center; align-items: center;"">
                    <img src=""images/semantic/semantic_series_13/semantic_series_13_d.jpg"" style=""width: 300px; height: 300px;"" />
                  </div>","null","",""
"","","","","","html-button-response","108","430922","0.0-78.0","0D0029E3C6C042EB8224BD7A522F4EBF","0D0029E3C6C042EB8224BD7A522F4EBF","b9e84846-34dd-4a9a-ba2e-67f3dd71e5c2","bea99957-1862-4ad8-9558-57b91e42ce64","{""participantId"":""0D0029E3C6C042EB8224BD7A522F4EBF"",""assignmentId"":""b9e84846-34dd-4a9a-ba2e-67f3dd71e5c2"",""projectId"":""bea99957-1862-4ad8-9558-57b91e42ce64""}","https://test12345.live/?participantId=0D0029E3C6C042EB8224BD7A522F4EBF&assignmentId=b9e84846-34dd-4a9a-ba2e-67f3dd71e5c2&projectId=bea99957-1862-4ad8-9558-57b91e42ce64","","2000","Was there a person in the picture?","0","",""
"","","","","","survey-likert","109","432871","0.0-79.0","0D0029E3C6C042EB8224BD7A522F4EBF","0D0029E3C6C042EB8224BD7A522F4EBF","b9e84846-34dd-4a9a-ba2e-67f3dd71e5c2","bea99957-1862-4ad8-9558-57b91e42ce64","{""participantId"":""0D0029E3C6C042EB8224BD7A522F4EBF"",""assignmentId"":""b9e84846-34dd-4a9a-ba2e-67f3dd71e5c2"",""projectId"":""bea99957-1862-4ad8-9558-57b91e42ce64""}","https://test12345.live/?participantId=0D0029E3C6C042EB8224BD7A522F4EBF&assignmentId=b9e84846-34dd-4a9a-ba2e-67f3dd71e5c2&projectId=bea99957-1862-4ad8-9558-57b91e42ce64","","1947","","{""Q0"":1}","","[0]"
"","","","","","html-button-response","110","433795","0.0-80.0","0D0029E3C6C042EB8224BD7A522F4EBF","0D0029E3C6C042EB8224BD7A522F4EBF","b9e84846-34dd-4a9a-ba2e-67f3dd71e5c2","bea99957-1862-4ad8-9558-57b91e42ce64","{""participantId"":""0D0029E3C6C042EB8224BD7A522F4EBF"",""assignmentId"":""b9e84846-34dd-4a9a-ba2e-67f3dd71e5c2"",""projectId"":""bea99957-1862-4ad8-9558-57b91e42ce64""}","https://test12345.live/?participantId=0D0029E3C6C042EB8224BD7A522F4EBF&assignmentId=b9e84846-34dd-4a9a-ba2e-67f3dd71e5c2&projectId=bea99957-1862-4ad8-9558-57b91e42ce64","","923","
    <div style=""display: flex; justify-content: center; align-items: center;"">
      <img src=""images/red_deck_2.png"" style=""width: 300px; height: 300px; margin-right: 10px;"" />
      <img src=""images/blue_deck_1.png"" style=""width: 300px; height: 300px;"" />
    </div>","1","1",""
"","","","","","html-keyboard-response","111","436798","0.0-81.0-0.0","0D0029E3C6C042EB8224BD7A522F4EBF","0D0029E3C6C042EB8224BD7A522F4EBF","b9e84846-34dd-4a9a-ba2e-67f3dd71e5c2","bea99957-1862-4ad8-9558-57b91e42ce64","{""participantId"":""0D0029E3C6C042EB8224BD7A522F4EBF"",""assignmentId"":""b9e84846-34dd-4a9a-ba2e-67f3dd71e5c2"",""projectId"":""bea99957-1862-4ad8-9558-57b91e42ce64""}","https://test12345.live/?participantId=0D0029E3C6C042EB8224BD7A522F4EBF&assignmentId=b9e84846-34dd-4a9a-ba2e-67f3dd71e5c2&projectId=bea99957-1862-4ad8-9558-57b91e42ce64","","null","<div style=""display: flex; justify-content: center; align-items: center;"">
                    <img src=""images/causal/causal_series_9/causal_series_9_a.jpg"" style=""width: 300px; height: 300px;"" />
                  </div>","null","",""
"","","","","","html-keyboard-response","112","439800","0.0-81.0-1.0","0D0029E3C6C042EB8224BD7A522F4EBF","0D0029E3C6C042EB8224BD7A522F4EBF","b9e84846-34dd-4a9a-ba2e-67f3dd71e5c2","bea99957-1862-4ad8-9558-57b91e42ce64","{""participantId"":""0D0029E3C6C042EB8224BD7A522F4EBF"",""assignmentId"":""b9e84846-34dd-4a9a-ba2e-67f3dd71e5c2"",""projectId"":""bea99957-1862-4ad8-9558-57b91e42ce64""}","https://test12345.live/?participantId=0D0029E3C6C042EB8224BD7A522F4EBF&assignmentId=b9e84846-34dd-4a9a-ba2e-67f3dd71e5c2&projectId=bea99957-1862-4ad8-9558-57b91e42ce64","","null","<div style=""display: flex; justify-content: center; align-items: center;"">
                    <img src=""images/causal/causal_series_9/causal_series_9_b.jpg"" style=""width: 300px; height: 300px;"" />
                  </div>","null","",""
"","","","","","html-keyboard-response","113","442802","0.0-81.0-2.0","0D0029E3C6C042EB8224BD7A522F4EBF","0D0029E3C6C042EB8224BD7A522F4EBF","b9e84846-34dd-4a9a-ba2e-67f3dd71e5c2","bea99957-1862-4ad8-9558-57b91e42ce64","{""participantId"":""0D0029E3C6C042EB8224BD7A522F4EBF"",""assignmentId"":""b9e84846-34dd-4a9a-ba2e-67f3dd71e5c2"",""projectId"":""bea99957-1862-4ad8-9558-57b91e42ce64""}","https://test12345.live/?participantId=0D0029E3C6C042EB8224BD7A522F4EBF&assignmentId=b9e84846-34dd-4a9a-ba2e-67f3dd71e5c2&projectId=bea99957-1862-4ad8-9558-57b91e42ce64","","null","<div style=""display: flex; justify-content: center; align-items: center;"">
                    <img src=""images/causal/causal_series_9/causal_series_9_c.jpg"" style=""width: 300px; height: 300px;"" />
                  </div>","null","",""
"","","","","","html-keyboard-response","114","445804","0.0-81.0-3.0","0D0029E3C6C042EB8224BD7A522F4EBF","0D0029E3C6C042EB8224BD7A522F4EBF","b9e84846-34dd-4a9a-ba2e-67f3dd71e5c2","bea99957-1862-4ad8-9558-57b91e42ce64","{""participantId"":""0D0029E3C6C042EB8224BD7A522F4EBF"",""assignmentId"":""b9e84846-34dd-4a9a-ba2e-67f3dd71e5c2"",""projectId"":""bea99957-1862-4ad8-9558-57b91e42ce64""}","https://test12345.live/?participantId=0D0029E3C6C042EB8224BD7A522F4EBF&assignmentId=b9e84846-34dd-4a9a-ba2e-67f3dd71e5c2&projectId=bea99957-1862-4ad8-9558-57b91e42ce64","","null","<div style=""display: flex; justify-content: center; align-items: center;"">
                    <img src=""images/causal/causal_series_9/causal_series_9_d.jpg"" style=""width: 300px; height: 300px;"" />
                  </div>","null","",""
"","","","","","html-button-response","115","450833","0.0-83.0","0D0029E3C6C042EB8224BD7A522F4EBF","0D0029E3C6C042EB8224BD7A522F4EBF","b9e84846-34dd-4a9a-ba2e-67f3dd71e5c2","bea99957-1862-4ad8-9558-57b91e42ce64","{""participantId"":""0D0029E3C6C042EB8224BD7A522F4EBF"",""assignmentId"":""b9e84846-34dd-4a9a-ba2e-67f3dd71e5c2"",""projectId"":""bea99957-1862-4ad8-9558-57b91e42ce64""}","https://test12345.live/?participantId=0D0029E3C6C042EB8224BD7A522F4EBF&assignmentId=b9e84846-34dd-4a9a-ba2e-67f3dd71e5c2&projectId=bea99957-1862-4ad8-9558-57b91e42ce64","","5027","Was there a person in the picture?","1","",""
"","","","","","survey-likert","116","454081","0.0-84.0","0D0029E3C6C042EB8224BD7A522F4EBF","0D0029E3C6C042EB8224BD7A522F4EBF","b9e84846-34dd-4a9a-ba2e-67f3dd71e5c2","bea99957-1862-4ad8-9558-57b91e42ce64","{""participantId"":""0D0029E3C6C042EB8224BD7A522F4EBF"",""assignmentId"":""b9e84846-34dd-4a9a-ba2e-67f3dd71e5c2"",""projectId"":""bea99957-1862-4ad8-9558-57b91e42ce64""}","https://test12345.live/?participantId=0D0029E3C6C042EB8224BD7A522F4EBF&assignmentId=b9e84846-34dd-4a9a-ba2e-67f3dd71e5c2&projectId=bea99957-1862-4ad8-9558-57b91e42ce64","","3247","","{""Q0"":3}","","[0]"
"","","","","","html-button-response","117","455098","0.0-85.0","0D0029E3C6C042EB8224BD7A522F4EBF","0D0029E3C6C042EB8224BD7A522F4EBF","b9e84846-34dd-4a9a-ba2e-67f3dd71e5c2","bea99957-1862-4ad8-9558-57b91e42ce64","{""participantId"":""0D0029E3C6C042EB8224BD7A522F4EBF"",""assignmentId"":""b9e84846-34dd-4a9a-ba2e-67f3dd71e5c2"",""projectId"":""bea99957-1862-4ad8-9558-57b91e42ce64""}","https://test12345.live/?participantId=0D0029E3C6C042EB8224BD7A522F4EBF&assignmentId=b9e84846-34dd-4a9a-ba2e-67f3dd71e5c2&projectId=bea99957-1862-4ad8-9558-57b91e42ce64","","1015","
    <div style=""display: flex; justify-content: center; align-items: center;"">
      <img src=""images/red_deck_2.png"" style=""width: 300px; height: 300px; margin-right: 10px;"" />
      <img src=""images/blue_deck_1.png"" style=""width: 300px; height: 300px;"" />
    </div>","1","1",""
"","","","","","html-keyboard-response","118","458099","0.0-86.0-0.0","0D0029E3C6C042EB8224BD7A522F4EBF","0D0029E3C6C042EB8224BD7A522F4EBF","b9e84846-34dd-4a9a-ba2e-67f3dd71e5c2","bea99957-1862-4ad8-9558-57b91e42ce64","{""participantId"":""0D0029E3C6C042EB8224BD7A522F4EBF"",""assignmentId"":""b9e84846-34dd-4a9a-ba2e-67f3dd71e5c2"",""projectId"":""bea99957-1862-4ad8-9558-57b91e42ce64""}","https://test12345.live/?participantId=0D0029E3C6C042EB8224BD7A522F4EBF&assignmentId=b9e84846-34dd-4a9a-ba2e-67f3dd71e5c2&projectId=bea99957-1862-4ad8-9558-57b91e42ce64","","null","<div style=""display: flex; justify-content: center; align-items: center;"">
                    <img src=""images/causal/causal_series_6/causal_series_6_a.jpg"" style=""width: 300px; height: 300px;"" />
                  </div>","null","",""
"","","","","","html-keyboard-response","119","461101","0.0-86.0-1.0","0D0029E3C6C042EB8224BD7A522F4EBF","0D0029E3C6C042EB8224BD7A522F4EBF","b9e84846-34dd-4a9a-ba2e-67f3dd71e5c2","bea99957-1862-4ad8-9558-57b91e42ce64","{""participantId"":""0D0029E3C6C042EB8224BD7A522F4EBF"",""assignmentId"":""b9e84846-34dd-4a9a-ba2e-67f3dd71e5c2"",""projectId"":""bea99957-1862-4ad8-9558-57b91e42ce64""}","https://test12345.live/?participantId=0D0029E3C6C042EB8224BD7A522F4EBF&assignmentId=b9e84846-34dd-4a9a-ba2e-67f3dd71e5c2&projectId=bea99957-1862-4ad8-9558-57b91e42ce64","","null","<div style=""display: flex; justify-content: center; align-items: center;"">
                    <img src=""images/causal/causal_series_6/causal_series_6_b.jpg"" style=""width: 300px; height: 300px;"" />
                  </div>","null","",""
"","","","","","html-keyboard-response","120","464103","0.0-86.0-2.0","0D0029E3C6C042EB8224BD7A522F4EBF","0D0029E3C6C042EB8224BD7A522F4EBF","b9e84846-34dd-4a9a-ba2e-67f3dd71e5c2","bea99957-1862-4ad8-9558-57b91e42ce64","{""participantId"":""0D0029E3C6C042EB8224BD7A522F4EBF"",""assignmentId"":""b9e84846-34dd-4a9a-ba2e-67f3dd71e5c2"",""projectId"":""bea99957-1862-4ad8-9558-57b91e42ce64""}","https://test12345.live/?participantId=0D0029E3C6C042EB8224BD7A522F4EBF&assignmentId=b9e84846-34dd-4a9a-ba2e-67f3dd71e5c2&projectId=bea99957-1862-4ad8-9558-57b91e42ce64","","null","<div style=""display: flex; justify-content: center; align-items: center;"">
                    <img src=""images/causal/causal_series_6/causal_series_6_c.jpg"" style=""width: 300px; height: 300px;"" />
                  </div>","null","",""
"","","","","","html-keyboard-response","121","467105","0.0-86.0-3.0","0D0029E3C6C042EB8224BD7A522F4EBF","0D0029E3C6C042EB8224BD7A522F4EBF","b9e84846-34dd-4a9a-ba2e-67f3dd71e5c2","bea99957-1862-4ad8-9558-57b91e42ce64","{""participantId"":""0D0029E3C6C042EB8224BD7A522F4EBF"",""assignmentId"":""b9e84846-34dd-4a9a-ba2e-67f3dd71e5c2"",""projectId"":""bea99957-1862-4ad8-9558-57b91e42ce64""}","https://test12345.live/?participantId=0D0029E3C6C042EB8224BD7A522F4EBF&assignmentId=b9e84846-34dd-4a9a-ba2e-67f3dd71e5c2&projectId=bea99957-1862-4ad8-9558-57b91e42ce64","","null","<div style=""display: flex; justify-content: center; align-items: center;"">
                    <img src=""images/causal/causal_series_6/causal_series_6_d.jpg"" style=""width: 300px; height: 300px;"" />
                  </div>","null","",""
"","","","","","html-button-response","122","469927","0.0-88.0","0D0029E3C6C042EB8224BD7A522F4EBF","0D0029E3C6C042EB8224BD7A522F4EBF","b9e84846-34dd-4a9a-ba2e-67f3dd71e5c2","bea99957-1862-4ad8-9558-57b91e42ce64","{""participantId"":""0D0029E3C6C042EB8224BD7A522F4EBF"",""assignmentId"":""b9e84846-34dd-4a9a-ba2e-67f3dd71e5c2"",""projectId"":""bea99957-1862-4ad8-9558-57b91e42ce64""}","https://test12345.live/?participantId=0D0029E3C6C042EB8224BD7A522F4EBF&assignmentId=b9e84846-34dd-4a9a-ba2e-67f3dd71e5c2&projectId=bea99957-1862-4ad8-9558-57b91e42ce64","","2821","Was there a person in the picture?","1","",""
"","","","","","survey-likert","123","474237","0.0-89.0","0D0029E3C6C042EB8224BD7A522F4EBF","0D0029E3C6C042EB8224BD7A522F4EBF","b9e84846-34dd-4a9a-ba2e-67f3dd71e5c2","bea99957-1862-4ad8-9558-57b91e42ce64","{""participantId"":""0D0029E3C6C042EB8224BD7A522F4EBF"",""assignmentId"":""b9e84846-34dd-4a9a-ba2e-67f3dd71e5c2"",""projectId"":""bea99957-1862-4ad8-9558-57b91e42ce64""}","https://test12345.live/?participantId=0D0029E3C6C042EB8224BD7A522F4EBF&assignmentId=b9e84846-34dd-4a9a-ba2e-67f3dd71e5c2&projectId=bea99957-1862-4ad8-9558-57b91e42ce64","","4308","","{""Q0"":2}","","[0]"
"","","","","","html-button-response","124","476026","0.0-90.0","0D0029E3C6C042EB8224BD7A522F4EBF","0D0029E3C6C042EB8224BD7A522F4EBF","b9e84846-34dd-4a9a-ba2e-67f3dd71e5c2","bea99957-1862-4ad8-9558-57b91e42ce64","{""participantId"":""0D0029E3C6C042EB8224BD7A522F4EBF"",""assignmentId"":""b9e84846-34dd-4a9a-ba2e-67f3dd71e5c2"",""projectId"":""bea99957-1862-4ad8-9558-57b91e42ce64""}","https://test12345.live/?participantId=0D0029E3C6C042EB8224BD7A522F4EBF&assignmentId=b9e84846-34dd-4a9a-ba2e-67f3dd71e5c2&projectId=bea99957-1862-4ad8-9558-57b91e42ce64","","1787","
    <div style=""display: flex; justify-content: center; align-items: center;"">
      <img src=""images/red_deck_2.png"" style=""width: 300px; height: 300px; margin-right: 10px;"" />
      <img src=""images/blue_deck_1.png"" style=""width: 300px; height: 300px;"" />
    </div>","1","1",""
"","","","","","html-keyboard-response","125","479030","0.0-91.0-0.0","0D0029E3C6C042EB8224BD7A522F4EBF","0D0029E3C6C042EB8224BD7A522F4EBF","b9e84846-34dd-4a9a-ba2e-67f3dd71e5c2","bea99957-1862-4ad8-9558-57b91e42ce64","{""participantId"":""0D0029E3C6C042EB8224BD7A522F4EBF"",""assignmentId"":""b9e84846-34dd-4a9a-ba2e-67f3dd71e5c2"",""projectId"":""bea99957-1862-4ad8-9558-57b91e42ce64""}","https://test12345.live/?participantId=0D0029E3C6C042EB8224BD7A522F4EBF&assignmentId=b9e84846-34dd-4a9a-ba2e-67f3dd71e5c2&projectId=bea99957-1862-4ad8-9558-57b91e42ce64","","null","<div style=""display: flex; justify-content: center; align-items: center;"">
                    <img src=""images/causal/causal_series_7/causal_series_7_a.jpg"" style=""width: 300px; height: 300px;"" />
                  </div>","null","",""
"","","","","","html-keyboard-response","126","482032","0.0-91.0-1.0","0D0029E3C6C042EB8224BD7A522F4EBF","0D0029E3C6C042EB8224BD7A522F4EBF","b9e84846-34dd-4a9a-ba2e-67f3dd71e5c2","bea99957-1862-4ad8-9558-57b91e42ce64","{""participantId"":""0D0029E3C6C042EB8224BD7A522F4EBF"",""assignmentId"":""b9e84846-34dd-4a9a-ba2e-67f3dd71e5c2"",""projectId"":""bea99957-1862-4ad8-9558-57b91e42ce64""}","https://test12345.live/?participantId=0D0029E3C6C042EB8224BD7A522F4EBF&assignmentId=b9e84846-34dd-4a9a-ba2e-67f3dd71e5c2&projectId=bea99957-1862-4ad8-9558-57b91e42ce64","","null","<div style=""display: flex; justify-content: center; align-items: center;"">
                    <img src=""images/causal/causal_series_7/causal_series_7_b.jpg"" style=""width: 300px; height: 300px;"" />
                  </div>","null","",""
"","","","","","html-keyboard-response","127","485035","0.0-91.0-2.0","0D0029E3C6C042EB8224BD7A522F4EBF","0D0029E3C6C042EB8224BD7A522F4EBF","b9e84846-34dd-4a9a-ba2e-67f3dd71e5c2","bea99957-1862-4ad8-9558-57b91e42ce64","{""participantId"":""0D0029E3C6C042EB8224BD7A522F4EBF"",""assignmentId"":""b9e84846-34dd-4a9a-ba2e-67f3dd71e5c2"",""projectId"":""bea99957-1862-4ad8-9558-57b91e42ce64""}","https://test12345.live/?participantId=0D0029E3C6C042EB8224BD7A522F4EBF&assignmentId=b9e84846-34dd-4a9a-ba2e-67f3dd71e5c2&projectId=bea99957-1862-4ad8-9558-57b91e42ce64","","null","<div style=""display: flex; justify-content: center; align-items: center;"">
                    <img src=""images/causal/causal_series_7/causal_series_7_c.jpg"" style=""width: 300px; height: 300px;"" />
                  </div>","null","",""
"","","","","","html-keyboard-response","128","488037","0.0-91.0-3.0","0D0029E3C6C042EB8224BD7A522F4EBF","0D0029E3C6C042EB8224BD7A522F4EBF","b9e84846-34dd-4a9a-ba2e-67f3dd71e5c2","bea99957-1862-4ad8-9558-57b91e42ce64","{""participantId"":""0D0029E3C6C042EB8224BD7A522F4EBF"",""assignmentId"":""b9e84846-34dd-4a9a-ba2e-67f3dd71e5c2"",""projectId"":""bea99957-1862-4ad8-9558-57b91e42ce64""}","https://test12345.live/?participantId=0D0029E3C6C042EB8224BD7A522F4EBF&assignmentId=b9e84846-34dd-4a9a-ba2e-67f3dd71e5c2&projectId=bea99957-1862-4ad8-9558-57b91e42ce64","","null","<div style=""display: flex; justify-content: center; align-items: center;"">
                    <img src=""images/causal/causal_series_7/causal_series_7_d.jpg"" style=""width: 300px; height: 300px;"" />
                  </div>","null","",""
"","","","","","html-button-response","129","489461","0.0-93.0","0D0029E3C6C042EB8224BD7A522F4EBF","0D0029E3C6C042EB8224BD7A522F4EBF","b9e84846-34dd-4a9a-ba2e-67f3dd71e5c2","bea99957-1862-4ad8-9558-57b91e42ce64","{""participantId"":""0D0029E3C6C042EB8224BD7A522F4EBF"",""assignmentId"":""b9e84846-34dd-4a9a-ba2e-67f3dd71e5c2"",""projectId"":""bea99957-1862-4ad8-9558-57b91e42ce64""}","https://test12345.live/?participantId=0D0029E3C6C042EB8224BD7A522F4EBF&assignmentId=b9e84846-34dd-4a9a-ba2e-67f3dd71e5c2&projectId=bea99957-1862-4ad8-9558-57b91e42ce64","","1423","Was there a person in the picture?","1","",""
"","","","","","survey-likert","130","493104","0.0-94.0","0D0029E3C6C042EB8224BD7A522F4EBF","0D0029E3C6C042EB8224BD7A522F4EBF","b9e84846-34dd-4a9a-ba2e-67f3dd71e5c2","bea99957-1862-4ad8-9558-57b91e42ce64","{""participantId"":""0D0029E3C6C042EB8224BD7A522F4EBF"",""assignmentId"":""b9e84846-34dd-4a9a-ba2e-67f3dd71e5c2"",""projectId"":""bea99957-1862-4ad8-9558-57b91e42ce64""}","https://test12345.live/?participantId=0D0029E3C6C042EB8224BD7A522F4EBF&assignmentId=b9e84846-34dd-4a9a-ba2e-67f3dd71e5c2&projectId=bea99957-1862-4ad8-9558-57b91e42ce64","","3642","","{""Q0"":3}","","[0]"
"","","","","","survey-text","131","525546","0.0-95.0","0D0029E3C6C042EB8224BD7A522F4EBF","0D0029E3C6C042EB8224BD7A522F4EBF","b9e84846-34dd-4a9a-ba2e-67f3dd71e5c2","bea99957-1862-4ad8-9558-57b91e42ce64","{""participantId"":""0D0029E3C6C042EB8224BD7A522F4EBF"",""assignmentId"":""b9e84846-34dd-4a9a-ba2e-67f3dd71e5c2"",""projectId"":""bea99957-1862-4ad8-9558-57b91e42ce64""}","https://test12345.live/?participantId=0D0029E3C6C042EB8224BD7A522F4EBF&assignmentId=b9e84846-34dd-4a9a-ba2e-67f3dd71e5c2&projectId=bea99957-1862-4ad8-9558-57b91e42ce64","","32438","","{""Q0"":""One was cartoons/animals and one was realistic/people. ""}","",""
