"success","timeout","failed_images","failed_audio","failed_video","trial_type","trial_index","time_elapsed","internal_node_id","subject_id","study_id","session_id","view_history","rt","stimulus","response","choice"
"true","false","[]","[]","[]","preload","0","15118","0.0-0.0","805D5E902221463CBE8C1204BDCD0BEF","378dac7f-0c6f-4447-82b9-7efc5b0116e5","5479079d-2186-49b2-89e2-e3afab6abcc2","","","","",""
"","","","","","instructions","1","24582","0.0-1.0","805D5E902221463CBE8C1204BDCD0BEF","378dac7f-0c6f-4447-82b9-7efc5b0116e5","5479079d-2186-49b2-89e2-e3afab6abcc2","[{""page_index"":0,""viewing_time"":9460}]","9462","","",""
"","","","","","instructions","2","30427","0.0-2.0","805D5E902221463CBE8C1204BDCD0BEF","378dac7f-0c6f-4447-82b9-7efc5b0116e5","5479079d-2186-49b2-89e2-e3afab6abcc2","[{""page_index"":0,""viewing_time"":5841}]","5842","","",""
"true","","","","","fullscreen","3","36186","0.0-3.0","805D5E902221463CBE8C1204BDCD0BEF","378dac7f-0c6f-4447-82b9-7efc5b0116e5","5479079d-2186-49b2-89e2-e3afab6abcc2","","4739","","",""
"","","","","","instructions","4","228020","0.0-4.0","805D5E902221463CBE8C1204BDCD0BEF","378dac7f-0c6f-4447-82b9-7efc5b0116e5","5479079d-2186-49b2-89e2-e3afab6abcc2","[{""page_index"":0,""viewing_time"":191832}]","191834","","",""
"","","","","","html-keyboard-response","5","231048","0.0-5.0","805D5E902221463CBE8C1204BDCD0BEF","378dac7f-0c6f-4447-82b9-7efc5b0116e5","5479079d-2186-49b2-89e2-e3afab6abcc2","","null","<div style=""display: flex; justify-content: center; align-items: center;"">
                <img src=""images/causal/causal_series_13/causal_series_13_a.jpg"" style=""width: 300px; height: 300px;"" />
              </div>","null",""
"","","","","","html-keyboard-response","6","234054","0.0-6.0","805D5E902221463CBE8C1204BDCD0BEF","378dac7f-0c6f-4447-82b9-7efc5b0116e5","5479079d-2186-49b2-89e2-e3afab6abcc2","","null","<div style=""display: flex; justify-content: center; align-items: center;"">
                <img src=""images/causal/causal_series_13/causal_series_13_b.jpg"" style=""width: 300px; height: 300px;"" />
              </div>","null",""
"","","","","","html-keyboard-response","7","237060","0.0-7.0","805D5E902221463CBE8C1204BDCD0BEF","378dac7f-0c6f-4447-82b9-7efc5b0116e5","5479079d-2186-49b2-89e2-e3afab6abcc2","","null","<div style=""display: flex; justify-content: center; align-items: center;"">
                <img src=""images/causal/causal_series_13/causal_series_13_c.jpg"" style=""width: 300px; height: 300px;"" />
              </div>","null",""
"","","","","","html-button-response","8","240112","0.0-8.0","805D5E902221463CBE8C1204BDCD0BEF","378dac7f-0c6f-4447-82b9-7efc5b0116e5","5479079d-2186-49b2-89e2-e3afab6abcc2","","3044","
    <div style=""display: flex; justify-content: center; align-items: center;"">
      <img src=""images/blue_deck_1.png"" style=""width: 300px; height: 300px; margin-right: 10px;"" />
      <img src=""images/red_deck_2.png"" style=""width: 300px; height: 300px;"" />
    </div>","1","1"
"","","","","","html-keyboard-response","9","243139","0.0-9.0-1.0-0.0","805D5E902221463CBE8C1204BDCD0BEF","378dac7f-0c6f-4447-82b9-7efc5b0116e5","5479079d-2186-49b2-89e2-e3afab6abcc2","","null","<div style=""display: flex; justify-content: center; align-items: center;"">
                <img src=""images/semantic/semantic_series_13/semantic_series_13_d.jpg"" style=""width: 300px; height: 300px;"" />
              </div>","null",""
"","","","","","html-keyboard-response","10","246145","0.0-10.0","805D5E902221463CBE8C1204BDCD0BEF","378dac7f-0c6f-4447-82b9-7efc5b0116e5","5479079d-2186-49b2-89e2-e3afab6abcc2","","null","<div style=""display: flex; justify-content: center; align-items: center;"">
                <img src=""images/other/blank.jpg"" style=""width: 300px; height: 300px;"" />
              </div>","null",""
"","","","","","html-keyboard-response","11","249150","0.0-11.0","805D5E902221463CBE8C1204BDCD0BEF","378dac7f-0c6f-4447-82b9-7efc5b0116e5","5479079d-2186-49b2-89e2-e3afab6abcc2","","null","<div style=""display: flex; justify-content: center; align-items: center;"">
                <img src=""images/causal/causal_series_12/causal_series_12_a.jpg"" style=""width: 300px; height: 300px;"" />
              </div>","null",""
"","","","","","html-keyboard-response","12","252157","0.0-12.0","805D5E902221463CBE8C1204BDCD0BEF","378dac7f-0c6f-4447-82b9-7efc5b0116e5","5479079d-2186-49b2-89e2-e3afab6abcc2","","null","<div style=""display: flex; justify-content: center; align-items: center;"">
                <img src=""images/causal/causal_series_12/causal_series_12_b.jpg"" style=""width: 300px; height: 300px;"" />
              </div>","null",""
"","","","","","html-keyboard-response","13","255175","0.0-13.0","805D5E902221463CBE8C1204BDCD0BEF","378dac7f-0c6f-4447-82b9-7efc5b0116e5","5479079d-2186-49b2-89e2-e3afab6abcc2","","null","<div style=""display: flex; justify-content: center; align-items: center;"">
                <img src=""images/causal/causal_series_12/causal_series_12_c.jpg"" style=""width: 300px; height: 300px;"" />
              </div>","null",""
"","","","","","html-button-response","14","257882","0.0-14.0","805D5E902221463CBE8C1204BDCD0BEF","378dac7f-0c6f-4447-82b9-7efc5b0116e5","5479079d-2186-49b2-89e2-e3afab6abcc2","","2699","
    <div style=""display: flex; justify-content: center; align-items: center;"">
      <img src=""images/blue_deck_1.png"" style=""width: 300px; height: 300px; margin-right: 10px;"" />
      <img src=""images/red_deck_2.png"" style=""width: 300px; height: 300px;"" />
    </div>","0","0"
"","","","","","html-keyboard-response","15","260892","0.0-15.0-0.0-0.0","805D5E902221463CBE8C1204BDCD0BEF","378dac7f-0c6f-4447-82b9-7efc5b0116e5","5479079d-2186-49b2-89e2-e3afab6abcc2","","null","<div style=""display: flex; justify-content: center; align-items: center;"">
                <img src=""images/causal/causal_series_12/causal_series_12_d.jpg"" style=""width: 300px; height: 300px;"" />
              </div>","null",""
"","","","","","html-keyboard-response","16","263907","0.0-16.0","805D5E902221463CBE8C1204BDCD0BEF","378dac7f-0c6f-4447-82b9-7efc5b0116e5","5479079d-2186-49b2-89e2-e3afab6abcc2","","null","<div style=""display: flex; justify-content: center; align-items: center;"">
                <img src=""images/other/blank.jpg"" style=""width: 300px; height: 300px;"" />
              </div>","null",""
"","","","","","html-keyboard-response","17","266911","0.0-17.0","805D5E902221463CBE8C1204BDCD0BEF","378dac7f-0c6f-4447-82b9-7efc5b0116e5","5479079d-2186-49b2-89e2-e3afab6abcc2","","null","<div style=""display: flex; justify-content: center; align-items: center;"">
                <img src=""images/causal/causal_series_1/causal_series_1_a.jpg"" style=""width: 300px; height: 300px;"" />
              </div>","null",""
"","","","","","html-keyboard-response","18","269920","0.0-18.0","805D5E902221463CBE8C1204BDCD0BEF","378dac7f-0c6f-4447-82b9-7efc5b0116e5","5479079d-2186-49b2-89e2-e3afab6abcc2","","null","<div style=""display: flex; justify-content: center; align-items: center;"">
                <img src=""images/causal/causal_series_1/causal_series_1_b.jpg"" style=""width: 300px; height: 300px;"" />
              </div>","null",""
"","","","","","html-keyboard-response","19","272936","0.0-19.0","805D5E902221463CBE8C1204BDCD0BEF","378dac7f-0c6f-4447-82b9-7efc5b0116e5","5479079d-2186-49b2-89e2-e3afab6abcc2","","null","<div style=""display: flex; justify-content: center; align-items: center;"">
                <img src=""images/causal/causal_series_1/causal_series_1_c.jpg"" style=""width: 300px; height: 300px;"" />
              </div>","null",""
"","","","","","html-button-response","20","283089","0.0-20.0","805D5E902221463CBE8C1204BDCD0BEF","378dac7f-0c6f-4447-82b9-7efc5b0116e5","5479079d-2186-49b2-89e2-e3afab6abcc2","","10148","
    <div style=""display: flex; justify-content: center; align-items: center;"">
      <img src=""images/blue_deck_1.png"" style=""width: 300px; height: 300px; margin-right: 10px;"" />
      <img src=""images/red_deck_2.png"" style=""width: 300px; height: 300px;"" />
    </div>","1","1"
"","","","","","html-keyboard-response","21","286104","0.0-21.0-1.0-0.0","805D5E902221463CBE8C1204BDCD0BEF","378dac7f-0c6f-4447-82b9-7efc5b0116e5","5479079d-2186-49b2-89e2-e3afab6abcc2","","null","<div style=""display: flex; justify-content: center; align-items: center;"">
                <img src=""images/semantic/semantic_series_1/semantic_series_1_d.jpg"" style=""width: 300px; height: 300px;"" />
              </div>","null",""
"","","","","","html-keyboard-response","22","289121","0.0-22.0","805D5E902221463CBE8C1204BDCD0BEF","378dac7f-0c6f-4447-82b9-7efc5b0116e5","5479079d-2186-49b2-89e2-e3afab6abcc2","","null","<div style=""display: flex; justify-content: center; align-items: center;"">
                <img src=""images/other/blank.jpg"" style=""width: 300px; height: 300px;"" />
              </div>","null",""
"","","","","","html-keyboard-response","23","292123","0.0-23.0","805D5E902221463CBE8C1204BDCD0BEF","378dac7f-0c6f-4447-82b9-7efc5b0116e5","5479079d-2186-49b2-89e2-e3afab6abcc2","","null","<div style=""display: flex; justify-content: center; align-items: center;"">
                <img src=""images/causal/causal_series_5/causal_series_5_a.jpg"" style=""width: 300px; height: 300px;"" />
              </div>","null",""
"","","","","","html-keyboard-response","24","295136","0.0-24.0","805D5E902221463CBE8C1204BDCD0BEF","378dac7f-0c6f-4447-82b9-7efc5b0116e5","5479079d-2186-49b2-89e2-e3afab6abcc2","","null","<div style=""display: flex; justify-content: center; align-items: center;"">
                <img src=""images/causal/causal_series_5/causal_series_5_b.jpg"" style=""width: 300px; height: 300px;"" />
              </div>","null",""
"","","","","","html-keyboard-response","25","298146","0.0-25.0","805D5E902221463CBE8C1204BDCD0BEF","378dac7f-0c6f-4447-82b9-7efc5b0116e5","5479079d-2186-49b2-89e2-e3afab6abcc2","","null","<div style=""display: flex; justify-content: center; align-items: center;"">
                <img src=""images/causal/causal_series_5/causal_series_5_c.jpg"" style=""width: 300px; height: 300px;"" />
              </div>","null",""
"","","","","","html-button-response","26","300022","0.0-26.0","805D5E902221463CBE8C1204BDCD0BEF","378dac7f-0c6f-4447-82b9-7efc5b0116e5","5479079d-2186-49b2-89e2-e3afab6abcc2","","1874","
    <div style=""display: flex; justify-content: center; align-items: center;"">
      <img src=""images/blue_deck_1.png"" style=""width: 300px; height: 300px; margin-right: 10px;"" />
      <img src=""images/red_deck_2.png"" style=""width: 300px; height: 300px;"" />
    </div>","1","1"
"","","","","","html-keyboard-response","27","303035","0.0-27.0-1.0-0.0","805D5E902221463CBE8C1204BDCD0BEF","378dac7f-0c6f-4447-82b9-7efc5b0116e5","5479079d-2186-49b2-89e2-e3afab6abcc2","","null","<div style=""display: flex; justify-content: center; align-items: center;"">
                <img src=""images/semantic/semantic_series_5/semantic_series_5_d.jpg"" style=""width: 300px; height: 300px;"" />
              </div>","null",""
"","","","","","html-keyboard-response","28","306048","0.0-28.0","805D5E902221463CBE8C1204BDCD0BEF","378dac7f-0c6f-4447-82b9-7efc5b0116e5","5479079d-2186-49b2-89e2-e3afab6abcc2","","null","<div style=""display: flex; justify-content: center; align-items: center;"">
                <img src=""images/other/blank.jpg"" style=""width: 300px; height: 300px;"" />
              </div>","null",""
"","","","","","html-keyboard-response","29","309057","0.0-29.0","805D5E902221463CBE8C1204BDCD0BEF","378dac7f-0c6f-4447-82b9-7efc5b0116e5","5479079d-2186-49b2-89e2-e3afab6abcc2","","null","<div style=""display: flex; justify-content: center; align-items: center;"">
                <img src=""images/causal/causal_series_11/causal_series_11_a.jpg"" style=""width: 300px; height: 300px;"" />
              </div>","null",""
"","","","","","html-keyboard-response","30","312062","0.0-30.0","805D5E902221463CBE8C1204BDCD0BEF","378dac7f-0c6f-4447-82b9-7efc5b0116e5","5479079d-2186-49b2-89e2-e3afab6abcc2","","null","<div style=""display: flex; justify-content: center; align-items: center;"">
                <img src=""images/causal/causal_series_11/causal_series_11_b.jpg"" style=""width: 300px; height: 300px;"" />
              </div>","null",""
"","","","","","html-keyboard-response","31","315067","0.0-31.0","805D5E902221463CBE8C1204BDCD0BEF","378dac7f-0c6f-4447-82b9-7efc5b0116e5","5479079d-2186-49b2-89e2-e3afab6abcc2","","null","<div style=""display: flex; justify-content: center; align-items: center;"">
                <img src=""images/causal/causal_series_11/causal_series_11_c.jpg"" style=""width: 300px; height: 300px;"" />
              </div>","null",""
"","","","","","html-button-response","32","316396","0.0-32.0","805D5E902221463CBE8C1204BDCD0BEF","378dac7f-0c6f-4447-82b9-7efc5b0116e5","5479079d-2186-49b2-89e2-e3afab6abcc2","","1326","
    <div style=""display: flex; justify-content: center; align-items: center;"">
      <img src=""images/blue_deck_1.png"" style=""width: 300px; height: 300px; margin-right: 10px;"" />
      <img src=""images/red_deck_2.png"" style=""width: 300px; height: 300px;"" />
    </div>","1","1"
"","","","","","html-keyboard-response","33","319404","0.0-33.0-1.0-0.0","805D5E902221463CBE8C1204BDCD0BEF","378dac7f-0c6f-4447-82b9-7efc5b0116e5","5479079d-2186-49b2-89e2-e3afab6abcc2","","null","<div style=""display: flex; justify-content: center; align-items: center;"">
                <img src=""images/semantic/semantic_series_11/semantic_series_11_d.jpg"" style=""width: 300px; height: 300px;"" />
              </div>","null",""
"","","","","","html-keyboard-response","34","322419","0.0-34.0","805D5E902221463CBE8C1204BDCD0BEF","378dac7f-0c6f-4447-82b9-7efc5b0116e5","5479079d-2186-49b2-89e2-e3afab6abcc2","","null","<div style=""display: flex; justify-content: center; align-items: center;"">
                <img src=""images/other/blank.jpg"" style=""width: 300px; height: 300px;"" />
              </div>","null",""
"","","","","","html-keyboard-response","35","325434","0.0-35.0","805D5E902221463CBE8C1204BDCD0BEF","378dac7f-0c6f-4447-82b9-7efc5b0116e5","5479079d-2186-49b2-89e2-e3afab6abcc2","","null","<div style=""display: flex; justify-content: center; align-items: center;"">
                <img src=""images/causal/causal_series_16/causal_series_16_a.jpg"" style=""width: 300px; height: 300px;"" />
              </div>","null",""
"","","","","","html-keyboard-response","36","328444","0.0-36.0","805D5E902221463CBE8C1204BDCD0BEF","378dac7f-0c6f-4447-82b9-7efc5b0116e5","5479079d-2186-49b2-89e2-e3afab6abcc2","","null","<div style=""display: flex; justify-content: center; align-items: center;"">
                <img src=""images/causal/causal_series_16/causal_series_16_b.jpg"" style=""width: 300px; height: 300px;"" />
              </div>","null",""
"","","","","","html-keyboard-response","37","331450","0.0-37.0","805D5E902221463CBE8C1204BDCD0BEF","378dac7f-0c6f-4447-82b9-7efc5b0116e5","5479079d-2186-49b2-89e2-e3afab6abcc2","","null","<div style=""display: flex; justify-content: center; align-items: center;"">
                <img src=""images/causal/causal_series_16/causal_series_16_c.jpg"" style=""width: 300px; height: 300px;"" />
              </div>","null",""
"","","","","","html-button-response","38","334196","0.0-38.0","805D5E902221463CBE8C1204BDCD0BEF","378dac7f-0c6f-4447-82b9-7efc5b0116e5","5479079d-2186-49b2-89e2-e3afab6abcc2","","2743","
    <div style=""display: flex; justify-content: center; align-items: center;"">
      <img src=""images/blue_deck_1.png"" style=""width: 300px; height: 300px; margin-right: 10px;"" />
      <img src=""images/red_deck_2.png"" style=""width: 300px; height: 300px;"" />
    </div>","0","0"
"","","","","","html-keyboard-response","39","337204","0.0-39.0-0.0-0.0","805D5E902221463CBE8C1204BDCD0BEF","378dac7f-0c6f-4447-82b9-7efc5b0116e5","5479079d-2186-49b2-89e2-e3afab6abcc2","","null","<div style=""display: flex; justify-content: center; align-items: center;"">
                <img src=""images/causal/causal_series_16/causal_series_16_d.jpg"" style=""width: 300px; height: 300px;"" />
              </div>","null",""
"","","","","","html-keyboard-response","40","340212","0.0-40.0","805D5E902221463CBE8C1204BDCD0BEF","378dac7f-0c6f-4447-82b9-7efc5b0116e5","5479079d-2186-49b2-89e2-e3afab6abcc2","","null","<div style=""display: flex; justify-content: center; align-items: center;"">
                <img src=""images/other/blank.jpg"" style=""width: 300px; height: 300px;"" />
              </div>","null",""
"","","","","","html-keyboard-response","41","343223","0.0-41.0","805D5E902221463CBE8C1204BDCD0BEF","378dac7f-0c6f-4447-82b9-7efc5b0116e5","5479079d-2186-49b2-89e2-e3afab6abcc2","","null","<div style=""display: flex; justify-content: center; align-items: center;"">
                <img src=""images/causal/causal_series_15/causal_series_15_a.jpg"" style=""width: 300px; height: 300px;"" />
              </div>","null",""
"","","","","","html-keyboard-response","42","346240","0.0-42.0","805D5E902221463CBE8C1204BDCD0BEF","378dac7f-0c6f-4447-82b9-7efc5b0116e5","5479079d-2186-49b2-89e2-e3afab6abcc2","","null","<div style=""display: flex; justify-content: center; align-items: center;"">
                <img src=""images/causal/causal_series_15/causal_series_15_b.jpg"" style=""width: 300px; height: 300px;"" />
              </div>","null",""
"","","","","","html-keyboard-response","43","349245","0.0-43.0","805D5E902221463CBE8C1204BDCD0BEF","378dac7f-0c6f-4447-82b9-7efc5b0116e5","5479079d-2186-49b2-89e2-e3afab6abcc2","","null","<div style=""display: flex; justify-content: center; align-items: center;"">
                <img src=""images/causal/causal_series_15/causal_series_15_c.jpg"" style=""width: 300px; height: 300px;"" />
              </div>","null",""
"","","","","","html-button-response","44","350692","0.0-44.0","805D5E902221463CBE8C1204BDCD0BEF","378dac7f-0c6f-4447-82b9-7efc5b0116e5","5479079d-2186-49b2-89e2-e3afab6abcc2","","1438","
    <div style=""display: flex; justify-content: center; align-items: center;"">
      <img src=""images/blue_deck_1.png"" style=""width: 300px; height: 300px; margin-right: 10px;"" />
      <img src=""images/red_deck_2.png"" style=""width: 300px; height: 300px;"" />
    </div>","0","0"
"","","","","","html-keyboard-response","45","353709","0.0-45.0-0.0-0.0","805D5E902221463CBE8C1204BDCD0BEF","378dac7f-0c6f-4447-82b9-7efc5b0116e5","5479079d-2186-49b2-89e2-e3afab6abcc2","","null","<div style=""display: flex; justify-content: center; align-items: center;"">
                <img src=""images/causal/causal_series_15/causal_series_15_d.jpg"" style=""width: 300px; height: 300px;"" />
              </div>","null",""
"","","","","","html-keyboard-response","46","356724","0.0-46.0","805D5E902221463CBE8C1204BDCD0BEF","378dac7f-0c6f-4447-82b9-7efc5b0116e5","5479079d-2186-49b2-89e2-e3afab6abcc2","","null","<div style=""display: flex; justify-content: center; align-items: center;"">
                <img src=""images/other/blank.jpg"" style=""width: 300px; height: 300px;"" />
              </div>","null",""
"","","","","","html-keyboard-response","47","359731","0.0-47.0","805D5E902221463CBE8C1204BDCD0BEF","378dac7f-0c6f-4447-82b9-7efc5b0116e5","5479079d-2186-49b2-89e2-e3afab6abcc2","","null","<div style=""display: flex; justify-content: center; align-items: center;"">
                <img src=""images/causal/causal_series_8/causal_series_8_a.jpg"" style=""width: 300px; height: 300px;"" />
              </div>","null",""
"","","","","","html-keyboard-response","48","362740","0.0-48.0","805D5E902221463CBE8C1204BDCD0BEF","378dac7f-0c6f-4447-82b9-7efc5b0116e5","5479079d-2186-49b2-89e2-e3afab6abcc2","","null","<div style=""display: flex; justify-content: center; align-items: center;"">
                <img src=""images/causal/causal_series_8/causal_series_8_b.jpg"" style=""width: 300px; height: 300px;"" />
              </div>","null",""
"","","","","","html-keyboard-response","49","365759","0.0-49.0","805D5E902221463CBE8C1204BDCD0BEF","378dac7f-0c6f-4447-82b9-7efc5b0116e5","5479079d-2186-49b2-89e2-e3afab6abcc2","","null","<div style=""display: flex; justify-content: center; align-items: center;"">
                <img src=""images/causal/causal_series_8/causal_series_8_c.jpg"" style=""width: 300px; height: 300px;"" />
              </div>","null",""
"","","","","","html-button-response","50","367169","0.0-50.0","805D5E902221463CBE8C1204BDCD0BEF","378dac7f-0c6f-4447-82b9-7efc5b0116e5","5479079d-2186-49b2-89e2-e3afab6abcc2","","1405","
    <div style=""display: flex; justify-content: center; align-items: center;"">
      <img src=""images/blue_deck_1.png"" style=""width: 300px; height: 300px; margin-right: 10px;"" />
      <img src=""images/red_deck_2.png"" style=""width: 300px; height: 300px;"" />
    </div>","0","0"
"","","","","","html-keyboard-response","51","370186","0.0-51.0-0.0-0.0","805D5E902221463CBE8C1204BDCD0BEF","378dac7f-0c6f-4447-82b9-7efc5b0116e5","5479079d-2186-49b2-89e2-e3afab6abcc2","","null","<div style=""display: flex; justify-content: center; align-items: center;"">
                <img src=""images/causal/causal_series_8/causal_series_8_d.jpg"" style=""width: 300px; height: 300px;"" />
              </div>","null",""
"","","","","","html-keyboard-response","52","373201","0.0-52.0","805D5E902221463CBE8C1204BDCD0BEF","378dac7f-0c6f-4447-82b9-7efc5b0116e5","5479079d-2186-49b2-89e2-e3afab6abcc2","","null","<div style=""display: flex; justify-content: center; align-items: center;"">
                <img src=""images/other/blank.jpg"" style=""width: 300px; height: 300px;"" />
              </div>","null",""
"","","","","","html-keyboard-response","53","376214","0.0-53.0","805D5E902221463CBE8C1204BDCD0BEF","378dac7f-0c6f-4447-82b9-7efc5b0116e5","5479079d-2186-49b2-89e2-e3afab6abcc2","","null","<div style=""display: flex; justify-content: center; align-items: center;"">
                <img src=""images/causal/causal_series_10/causal_series_10_a.jpg"" style=""width: 300px; height: 300px;"" />
              </div>","null",""
"","","","","","html-keyboard-response","54","379220","0.0-54.0","805D5E902221463CBE8C1204BDCD0BEF","378dac7f-0c6f-4447-82b9-7efc5b0116e5","5479079d-2186-49b2-89e2-e3afab6abcc2","","null","<div style=""display: flex; justify-content: center; align-items: center;"">
                <img src=""images/causal/causal_series_10/causal_series_10_b.jpg"" style=""width: 300px; height: 300px;"" />
              </div>","null",""
"","","","","","html-keyboard-response","55","382226","0.0-55.0","805D5E902221463CBE8C1204BDCD0BEF","378dac7f-0c6f-4447-82b9-7efc5b0116e5","5479079d-2186-49b2-89e2-e3afab6abcc2","","null","<div style=""display: flex; justify-content: center; align-items: center;"">
                <img src=""images/causal/causal_series_10/causal_series_10_c.jpg"" style=""width: 300px; height: 300px;"" />
              </div>","null",""
"","","","","","html-button-response","56","384365","0.0-56.0","805D5E902221463CBE8C1204BDCD0BEF","378dac7f-0c6f-4447-82b9-7efc5b0116e5","5479079d-2186-49b2-89e2-e3afab6abcc2","","2132","
    <div style=""display: flex; justify-content: center; align-items: center;"">
      <img src=""images/blue_deck_1.png"" style=""width: 300px; height: 300px; margin-right: 10px;"" />
      <img src=""images/red_deck_2.png"" style=""width: 300px; height: 300px;"" />
    </div>","1","1"
"","","","","","html-keyboard-response","57","387373","0.0-57.0-1.0-0.0","805D5E902221463CBE8C1204BDCD0BEF","378dac7f-0c6f-4447-82b9-7efc5b0116e5","5479079d-2186-49b2-89e2-e3afab6abcc2","","null","<div style=""display: flex; justify-content: center; align-items: center;"">
                <img src=""images/semantic/semantic_series_10/semantic_series_10_d.jpg"" style=""width: 300px; height: 300px;"" />
              </div>","null",""
"","","","","","html-keyboard-response","58","390384","0.0-58.0","805D5E902221463CBE8C1204BDCD0BEF","378dac7f-0c6f-4447-82b9-7efc5b0116e5","5479079d-2186-49b2-89e2-e3afab6abcc2","","null","<div style=""display: flex; justify-content: center; align-items: center;"">
                <img src=""images/other/blank.jpg"" style=""width: 300px; height: 300px;"" />
              </div>","null",""
"","","","","","html-keyboard-response","59","393392","0.0-59.0","805D5E902221463CBE8C1204BDCD0BEF","378dac7f-0c6f-4447-82b9-7efc5b0116e5","5479079d-2186-49b2-89e2-e3afab6abcc2","","null","<div style=""display: flex; justify-content: center; align-items: center;"">
                <img src=""images/causal/causal_series_3/causal_series_3_a.jpg"" style=""width: 300px; height: 300px;"" />
              </div>","null",""
"","","","","","html-keyboard-response","60","396398","0.0-60.0","805D5E902221463CBE8C1204BDCD0BEF","378dac7f-0c6f-4447-82b9-7efc5b0116e5","5479079d-2186-49b2-89e2-e3afab6abcc2","","null","<div style=""display: flex; justify-content: center; align-items: center;"">
                <img src=""images/causal/causal_series_3/causal_series_3_b.jpg"" style=""width: 300px; height: 300px;"" />
              </div>","null",""
"","","","","","html-keyboard-response","61","399408","0.0-61.0","805D5E902221463CBE8C1204BDCD0BEF","378dac7f-0c6f-4447-82b9-7efc5b0116e5","5479079d-2186-49b2-89e2-e3afab6abcc2","","null","<div style=""display: flex; justify-content: center; align-items: center;"">
                <img src=""images/causal/causal_series_3/causal_series_3_c.jpg"" style=""width: 300px; height: 300px;"" />
              </div>","null",""
"","","","","","html-button-response","62","401017","0.0-62.0","805D5E902221463CBE8C1204BDCD0BEF","378dac7f-0c6f-4447-82b9-7efc5b0116e5","5479079d-2186-49b2-89e2-e3afab6abcc2","","1603","
    <div style=""display: flex; justify-content: center; align-items: center;"">
      <img src=""images/blue_deck_1.png"" style=""width: 300px; height: 300px; margin-right: 10px;"" />
      <img src=""images/red_deck_2.png"" style=""width: 300px; height: 300px;"" />
    </div>","1","1"
"","","","","","html-keyboard-response","63","404036","0.0-63.0-1.0-0.0","805D5E902221463CBE8C1204BDCD0BEF","378dac7f-0c6f-4447-82b9-7efc5b0116e5","5479079d-2186-49b2-89e2-e3afab6abcc2","","null","<div style=""display: flex; justify-content: center; align-items: center;"">
                <img src=""images/semantic/semantic_series_3/semantic_series_3_d.jpg"" style=""width: 300px; height: 300px;"" />
              </div>","null",""
"","","","","","html-keyboard-response","64","407041","0.0-64.0","805D5E902221463CBE8C1204BDCD0BEF","378dac7f-0c6f-4447-82b9-7efc5b0116e5","5479079d-2186-49b2-89e2-e3afab6abcc2","","null","<div style=""display: flex; justify-content: center; align-items: center;"">
                <img src=""images/other/blank.jpg"" style=""width: 300px; height: 300px;"" />
              </div>","null",""
"","","","","","html-keyboard-response","65","410054","0.0-65.0","805D5E902221463CBE8C1204BDCD0BEF","378dac7f-0c6f-4447-82b9-7efc5b0116e5","5479079d-2186-49b2-89e2-e3afab6abcc2","","null","<div style=""display: flex; justify-content: center; align-items: center;"">
                <img src=""images/causal/causal_series_18/causal_series_18_a.jpg"" style=""width: 300px; height: 300px;"" />
              </div>","null",""
"","","","","","html-keyboard-response","66","413059","0.0-66.0","805D5E902221463CBE8C1204BDCD0BEF","378dac7f-0c6f-4447-82b9-7efc5b0116e5","5479079d-2186-49b2-89e2-e3afab6abcc2","","null","<div style=""display: flex; justify-content: center; align-items: center;"">
                <img src=""images/causal/causal_series_18/causal_series_18_b.jpg"" style=""width: 300px; height: 300px;"" />
              </div>","null",""
"","","","","","html-keyboard-response","67","416076","0.0-67.0","805D5E902221463CBE8C1204BDCD0BEF","378dac7f-0c6f-4447-82b9-7efc5b0116e5","5479079d-2186-49b2-89e2-e3afab6abcc2","","null","<div style=""display: flex; justify-content: center; align-items: center;"">
                <img src=""images/causal/causal_series_18/causal_series_18_c.jpg"" style=""width: 300px; height: 300px;"" />
              </div>","null",""
"","","","","","html-button-response","68","421315","0.0-68.0","805D5E902221463CBE8C1204BDCD0BEF","378dac7f-0c6f-4447-82b9-7efc5b0116e5","5479079d-2186-49b2-89e2-e3afab6abcc2","","5236","
    <div style=""display: flex; justify-content: center; align-items: center;"">
      <img src=""images/blue_deck_1.png"" style=""width: 300px; height: 300px; margin-right: 10px;"" />
      <img src=""images/red_deck_2.png"" style=""width: 300px; height: 300px;"" />
    </div>","0","0"
"","","","","","html-keyboard-response","69","424324","0.0-69.0-0.0-0.0","805D5E902221463CBE8C1204BDCD0BEF","378dac7f-0c6f-4447-82b9-7efc5b0116e5","5479079d-2186-49b2-89e2-e3afab6abcc2","","null","<div style=""display: flex; justify-content: center; align-items: center;"">
                <img src=""images/causal/causal_series_18/causal_series_18_d.jpg"" style=""width: 300px; height: 300px;"" />
              </div>","null",""
"","","","","","html-keyboard-response","70","427342","0.0-70.0","805D5E902221463CBE8C1204BDCD0BEF","378dac7f-0c6f-4447-82b9-7efc5b0116e5","5479079d-2186-49b2-89e2-e3afab6abcc2","","null","<div style=""display: flex; justify-content: center; align-items: center;"">
                <img src=""images/other/blank.jpg"" style=""width: 300px; height: 300px;"" />
              </div>","null",""
"","","","","","html-keyboard-response","71","430353","0.0-71.0","805D5E902221463CBE8C1204BDCD0BEF","378dac7f-0c6f-4447-82b9-7efc5b0116e5","5479079d-2186-49b2-89e2-e3afab6abcc2","","null","<div style=""display: flex; justify-content: center; align-items: center;"">
                <img src=""images/causal/causal_series_9/causal_series_9_a.jpg"" style=""width: 300px; height: 300px;"" />
              </div>","null",""
"","","","","","html-keyboard-response","72","433363","0.0-72.0","805D5E902221463CBE8C1204BDCD0BEF","378dac7f-0c6f-4447-82b9-7efc5b0116e5","5479079d-2186-49b2-89e2-e3afab6abcc2","","null","<div style=""display: flex; justify-content: center; align-items: center;"">
                <img src=""images/causal/causal_series_9/causal_series_9_b.jpg"" style=""width: 300px; height: 300px;"" />
              </div>","null",""
"","","","","","html-keyboard-response","73","436379","0.0-73.0","805D5E902221463CBE8C1204BDCD0BEF","378dac7f-0c6f-4447-82b9-7efc5b0116e5","5479079d-2186-49b2-89e2-e3afab6abcc2","","null","<div style=""display: flex; justify-content: center; align-items: center;"">
                <img src=""images/causal/causal_series_9/causal_series_9_c.jpg"" style=""width: 300px; height: 300px;"" />
              </div>","null",""
"","","","","","html-button-response","74","437848","0.0-74.0","805D5E902221463CBE8C1204BDCD0BEF","378dac7f-0c6f-4447-82b9-7efc5b0116e5","5479079d-2186-49b2-89e2-e3afab6abcc2","","1466","
    <div style=""display: flex; justify-content: center; align-items: center;"">
      <img src=""images/blue_deck_1.png"" style=""width: 300px; height: 300px; margin-right: 10px;"" />
      <img src=""images/red_deck_2.png"" style=""width: 300px; height: 300px;"" />
    </div>","0","0"
"","","","","","html-keyboard-response","75","440865","0.0-75.0-0.0-0.0","805D5E902221463CBE8C1204BDCD0BEF","378dac7f-0c6f-4447-82b9-7efc5b0116e5","5479079d-2186-49b2-89e2-e3afab6abcc2","","null","<div style=""display: flex; justify-content: center; align-items: center;"">
                <img src=""images/causal/causal_series_9/causal_series_9_d.jpg"" style=""width: 300px; height: 300px;"" />
              </div>","null",""
"","","","","","html-keyboard-response","76","443873","0.0-76.0","805D5E902221463CBE8C1204BDCD0BEF","378dac7f-0c6f-4447-82b9-7efc5b0116e5","5479079d-2186-49b2-89e2-e3afab6abcc2","","null","<div style=""display: flex; justify-content: center; align-items: center;"">
                <img src=""images/other/blank.jpg"" style=""width: 300px; height: 300px;"" />
              </div>","null",""
"","","","","","html-keyboard-response","77","446887","0.0-77.0","805D5E902221463CBE8C1204BDCD0BEF","378dac7f-0c6f-4447-82b9-7efc5b0116e5","5479079d-2186-49b2-89e2-e3afab6abcc2","","null","<div style=""display: flex; justify-content: center; align-items: center;"">
                <img src=""images/causal/causal_series_6/causal_series_6_a.jpg"" style=""width: 300px; height: 300px;"" />
              </div>","null",""
"","","","","","html-keyboard-response","78","449892","0.0-78.0","805D5E902221463CBE8C1204BDCD0BEF","378dac7f-0c6f-4447-82b9-7efc5b0116e5","5479079d-2186-49b2-89e2-e3afab6abcc2","","null","<div style=""display: flex; justify-content: center; align-items: center;"">
                <img src=""images/causal/causal_series_6/causal_series_6_b.jpg"" style=""width: 300px; height: 300px;"" />
              </div>","null",""
"","","","","","html-keyboard-response","79","452904","0.0-79.0","805D5E902221463CBE8C1204BDCD0BEF","378dac7f-0c6f-4447-82b9-7efc5b0116e5","5479079d-2186-49b2-89e2-e3afab6abcc2","","null","<div style=""display: flex; justify-content: center; align-items: center;"">
                <img src=""images/causal/causal_series_6/causal_series_6_c.jpg"" style=""width: 300px; height: 300px;"" />
              </div>","null",""
"","","","","","html-button-response","80","455960","0.0-80.0","805D5E902221463CBE8C1204BDCD0BEF","378dac7f-0c6f-4447-82b9-7efc5b0116e5","5479079d-2186-49b2-89e2-e3afab6abcc2","","3050","
    <div style=""display: flex; justify-content: center; align-items: center;"">
      <img src=""images/blue_deck_1.png"" style=""width: 300px; height: 300px; margin-right: 10px;"" />
      <img src=""images/red_deck_2.png"" style=""width: 300px; height: 300px;"" />
    </div>","0","0"
"","","","","","html-keyboard-response","81","458966","0.0-81.0-0.0-0.0","805D5E902221463CBE8C1204BDCD0BEF","378dac7f-0c6f-4447-82b9-7efc5b0116e5","5479079d-2186-49b2-89e2-e3afab6abcc2","","null","<div style=""display: flex; justify-content: center; align-items: center;"">
                <img src=""images/causal/causal_series_6/causal_series_6_d.jpg"" style=""width: 300px; height: 300px;"" />
              </div>","null",""
"","","","","","html-keyboard-response","82","461974","0.0-82.0","805D5E902221463CBE8C1204BDCD0BEF","378dac7f-0c6f-4447-82b9-7efc5b0116e5","5479079d-2186-49b2-89e2-e3afab6abcc2","","null","<div style=""display: flex; justify-content: center; align-items: center;"">
                <img src=""images/other/blank.jpg"" style=""width: 300px; height: 300px;"" />
              </div>","null",""
"","","","","","html-keyboard-response","83","464983","0.0-83.0","805D5E902221463CBE8C1204BDCD0BEF","378dac7f-0c6f-4447-82b9-7efc5b0116e5","5479079d-2186-49b2-89e2-e3afab6abcc2","","null","<div style=""display: flex; justify-content: center; align-items: center;"">
                <img src=""images/causal/causal_series_17/causal_series_17_a.jpg"" style=""width: 300px; height: 300px;"" />
              </div>","null",""
"","","","","","html-keyboard-response","84","468000","0.0-84.0","805D5E902221463CBE8C1204BDCD0BEF","378dac7f-0c6f-4447-82b9-7efc5b0116e5","5479079d-2186-49b2-89e2-e3afab6abcc2","","null","<div style=""display: flex; justify-content: center; align-items: center;"">
                <img src=""images/causal/causal_series_17/causal_series_17_b.jpg"" style=""width: 300px; height: 300px;"" />
              </div>","null",""
"","","","","","html-keyboard-response","85","471007","0.0-85.0","805D5E902221463CBE8C1204BDCD0BEF","378dac7f-0c6f-4447-82b9-7efc5b0116e5","5479079d-2186-49b2-89e2-e3afab6abcc2","","null","<div style=""display: flex; justify-content: center; align-items: center;"">
                <img src=""images/causal/causal_series_17/causal_series_17_c.jpg"" style=""width: 300px; height: 300px;"" />
              </div>","null",""
"","","","","","html-button-response","86","472886","0.0-86.0","805D5E902221463CBE8C1204BDCD0BEF","378dac7f-0c6f-4447-82b9-7efc5b0116e5","5479079d-2186-49b2-89e2-e3afab6abcc2","","1873","
    <div style=""display: flex; justify-content: center; align-items: center;"">
      <img src=""images/blue_deck_1.png"" style=""width: 300px; height: 300px; margin-right: 10px;"" />
      <img src=""images/red_deck_2.png"" style=""width: 300px; height: 300px;"" />
    </div>","0","0"
"","","","","","html-keyboard-response","87","475895","0.0-87.0-0.0-0.0","805D5E902221463CBE8C1204BDCD0BEF","378dac7f-0c6f-4447-82b9-7efc5b0116e5","5479079d-2186-49b2-89e2-e3afab6abcc2","","null","<div style=""display: flex; justify-content: center; align-items: center;"">
                <img src=""images/causal/causal_series_17/causal_series_17_d.jpg"" style=""width: 300px; height: 300px;"" />
              </div>","null",""
"","","","","","html-keyboard-response","88","478908","0.0-88.0","805D5E902221463CBE8C1204BDCD0BEF","378dac7f-0c6f-4447-82b9-7efc5b0116e5","5479079d-2186-49b2-89e2-e3afab6abcc2","","null","<div style=""display: flex; justify-content: center; align-items: center;"">
                <img src=""images/other/blank.jpg"" style=""width: 300px; height: 300px;"" />
              </div>","null",""
"","","","","","html-keyboard-response","89","481914","0.0-89.0","805D5E902221463CBE8C1204BDCD0BEF","378dac7f-0c6f-4447-82b9-7efc5b0116e5","5479079d-2186-49b2-89e2-e3afab6abcc2","","null","<div style=""display: flex; justify-content: center; align-items: center;"">
                <img src=""images/causal/causal_series_7/causal_series_7_a.jpg"" style=""width: 300px; height: 300px;"" />
              </div>","null",""
"","","","","","html-keyboard-response","90","484926","0.0-90.0","805D5E902221463CBE8C1204BDCD0BEF","378dac7f-0c6f-4447-82b9-7efc5b0116e5","5479079d-2186-49b2-89e2-e3afab6abcc2","","null","<div style=""display: flex; justify-content: center; align-items: center;"">
                <img src=""images/causal/causal_series_7/causal_series_7_b.jpg"" style=""width: 300px; height: 300px;"" />
              </div>","null",""
"","","","","","html-keyboard-response","91","487933","0.0-91.0","805D5E902221463CBE8C1204BDCD0BEF","378dac7f-0c6f-4447-82b9-7efc5b0116e5","5479079d-2186-49b2-89e2-e3afab6abcc2","","null","<div style=""display: flex; justify-content: center; align-items: center;"">
                <img src=""images/causal/causal_series_7/causal_series_7_c.jpg"" style=""width: 300px; height: 300px;"" />
              </div>","null",""
"","","","","","html-button-response","92","489410","0.0-92.0","805D5E902221463CBE8C1204BDCD0BEF","378dac7f-0c6f-4447-82b9-7efc5b0116e5","5479079d-2186-49b2-89e2-e3afab6abcc2","","1474","
    <div style=""display: flex; justify-content: center; align-items: center;"">
      <img src=""images/blue_deck_1.png"" style=""width: 300px; height: 300px; margin-right: 10px;"" />
      <img src=""images/red_deck_2.png"" style=""width: 300px; height: 300px;"" />
    </div>","0","0"
"","","","","","html-keyboard-response","93","492424","0.0-93.0-0.0-0.0","805D5E902221463CBE8C1204BDCD0BEF","378dac7f-0c6f-4447-82b9-7efc5b0116e5","5479079d-2186-49b2-89e2-e3afab6abcc2","","null","<div style=""display: flex; justify-content: center; align-items: center;"">
                <img src=""images/causal/causal_series_7/causal_series_7_d.jpg"" style=""width: 300px; height: 300px;"" />
              </div>","null",""
"","","","","","html-keyboard-response","94","495435","0.0-94.0","805D5E902221463CBE8C1204BDCD0BEF","378dac7f-0c6f-4447-82b9-7efc5b0116e5","5479079d-2186-49b2-89e2-e3afab6abcc2","","null","<div style=""display: flex; justify-content: center; align-items: center;"">
                <img src=""images/other/blank.jpg"" style=""width: 300px; height: 300px;"" />
              </div>","null",""
"","","","","","html-keyboard-response","95","498438","0.0-95.0","805D5E902221463CBE8C1204BDCD0BEF","378dac7f-0c6f-4447-82b9-7efc5b0116e5","5479079d-2186-49b2-89e2-e3afab6abcc2","","null","<div style=""display: flex; justify-content: center; align-items: center;"">
                <img src=""images/causal/causal_series_14/causal_series_14_a.jpg"" style=""width: 300px; height: 300px;"" />
              </div>","null",""
"","","","","","html-keyboard-response","96","501450","0.0-96.0","805D5E902221463CBE8C1204BDCD0BEF","378dac7f-0c6f-4447-82b9-7efc5b0116e5","5479079d-2186-49b2-89e2-e3afab6abcc2","","null","<div style=""display: flex; justify-content: center; align-items: center;"">
                <img src=""images/causal/causal_series_14/causal_series_14_b.jpg"" style=""width: 300px; height: 300px;"" />
              </div>","null",""
"","","","","","html-keyboard-response","97","504457","0.0-97.0","805D5E902221463CBE8C1204BDCD0BEF","378dac7f-0c6f-4447-82b9-7efc5b0116e5","5479079d-2186-49b2-89e2-e3afab6abcc2","","null","<div style=""display: flex; justify-content: center; align-items: center;"">
                <img src=""images/causal/causal_series_14/causal_series_14_c.jpg"" style=""width: 300px; height: 300px;"" />
              </div>","null",""
"","","","","","html-button-response","98","506030","0.0-98.0","805D5E902221463CBE8C1204BDCD0BEF","378dac7f-0c6f-4447-82b9-7efc5b0116e5","5479079d-2186-49b2-89e2-e3afab6abcc2","","1568","
    <div style=""display: flex; justify-content: center; align-items: center;"">
      <img src=""images/blue_deck_1.png"" style=""width: 300px; height: 300px; margin-right: 10px;"" />
      <img src=""images/red_deck_2.png"" style=""width: 300px; height: 300px;"" />
    </div>","0","0"
"","","","","","html-keyboard-response","99","509053","0.0-99.0-0.0-0.0","805D5E902221463CBE8C1204BDCD0BEF","378dac7f-0c6f-4447-82b9-7efc5b0116e5","5479079d-2186-49b2-89e2-e3afab6abcc2","","null","<div style=""display: flex; justify-content: center; align-items: center;"">
                <img src=""images/causal/causal_series_14/causal_series_14_d.jpg"" style=""width: 300px; height: 300px;"" />
              </div>","null",""
"","","","","","html-keyboard-response","100","512071","0.0-100.0","805D5E902221463CBE8C1204BDCD0BEF","378dac7f-0c6f-4447-82b9-7efc5b0116e5","5479079d-2186-49b2-89e2-e3afab6abcc2","","null","<div style=""display: flex; justify-content: center; align-items: center;"">
                <img src=""images/other/blank.jpg"" style=""width: 300px; height: 300px;"" />
              </div>","null",""
"","","","","","html-keyboard-response","101","515085","0.0-101.0","805D5E902221463CBE8C1204BDCD0BEF","378dac7f-0c6f-4447-82b9-7efc5b0116e5","5479079d-2186-49b2-89e2-e3afab6abcc2","","null","<div style=""display: flex; justify-content: center; align-items: center;"">
                <img src=""images/causal/causal_series_2/causal_series_2_a.jpg"" style=""width: 300px; height: 300px;"" />
              </div>","null",""
"","","","","","html-keyboard-response","102","518095","0.0-102.0","805D5E902221463CBE8C1204BDCD0BEF","378dac7f-0c6f-4447-82b9-7efc5b0116e5","5479079d-2186-49b2-89e2-e3afab6abcc2","","null","<div style=""display: flex; justify-content: center; align-items: center;"">
                <img src=""images/causal/causal_series_2/causal_series_2_b.jpg"" style=""width: 300px; height: 300px;"" />
              </div>","null",""
"","","","","","html-keyboard-response","103","521098","0.0-103.0","805D5E902221463CBE8C1204BDCD0BEF","378dac7f-0c6f-4447-82b9-7efc5b0116e5","5479079d-2186-49b2-89e2-e3afab6abcc2","","null","<div style=""display: flex; justify-content: center; align-items: center;"">
                <img src=""images/causal/causal_series_2/causal_series_2_c.jpg"" style=""width: 300px; height: 300px;"" />
              </div>","null",""
"","","","","","html-button-response","104","525065","0.0-104.0","805D5E902221463CBE8C1204BDCD0BEF","378dac7f-0c6f-4447-82b9-7efc5b0116e5","5479079d-2186-49b2-89e2-e3afab6abcc2","","3964","
    <div style=""display: flex; justify-content: center; align-items: center;"">
      <img src=""images/blue_deck_1.png"" style=""width: 300px; height: 300px; margin-right: 10px;"" />
      <img src=""images/red_deck_2.png"" style=""width: 300px; height: 300px;"" />
    </div>","0","0"
"","","","","","html-keyboard-response","105","528084","0.0-105.0-0.0-0.0","805D5E902221463CBE8C1204BDCD0BEF","378dac7f-0c6f-4447-82b9-7efc5b0116e5","5479079d-2186-49b2-89e2-e3afab6abcc2","","null","<div style=""display: flex; justify-content: center; align-items: center;"">
                <img src=""images/causal/causal_series_2/causal_series_2_d.jpg"" style=""width: 300px; height: 300px;"" />
              </div>","null",""
"","","","","","html-keyboard-response","106","531090","0.0-106.0","805D5E902221463CBE8C1204BDCD0BEF","378dac7f-0c6f-4447-82b9-7efc5b0116e5","5479079d-2186-49b2-89e2-e3afab6abcc2","","null","<div style=""display: flex; justify-content: center; align-items: center;"">
                <img src=""images/other/blank.jpg"" style=""width: 300px; height: 300px;"" />
              </div>","null",""
"","","","","","html-keyboard-response","107","534093","0.0-107.0","805D5E902221463CBE8C1204BDCD0BEF","378dac7f-0c6f-4447-82b9-7efc5b0116e5","5479079d-2186-49b2-89e2-e3afab6abcc2","","null","<div style=""display: flex; justify-content: center; align-items: center;"">
                <img src=""images/causal/causal_series_4/causal_series_4_a.jpg"" style=""width: 300px; height: 300px;"" />
              </div>","null",""
"","","","","","html-keyboard-response","108","537104","0.0-108.0","805D5E902221463CBE8C1204BDCD0BEF","378dac7f-0c6f-4447-82b9-7efc5b0116e5","5479079d-2186-49b2-89e2-e3afab6abcc2","","null","<div style=""display: flex; justify-content: center; align-items: center;"">
                <img src=""images/causal/causal_series_4/causal_series_4_b.jpg"" style=""width: 300px; height: 300px;"" />
              </div>","null",""
"","","","","","html-keyboard-response","109","540116","0.0-109.0","805D5E902221463CBE8C1204BDCD0BEF","378dac7f-0c6f-4447-82b9-7efc5b0116e5","5479079d-2186-49b2-89e2-e3afab6abcc2","","null","<div style=""display: flex; justify-content: center; align-items: center;"">
                <img src=""images/causal/causal_series_4/causal_series_4_c.jpg"" style=""width: 300px; height: 300px;"" />
              </div>","null",""
"","","","","","html-button-response","110","541946","0.0-110.0","805D5E902221463CBE8C1204BDCD0BEF","378dac7f-0c6f-4447-82b9-7efc5b0116e5","5479079d-2186-49b2-89e2-e3afab6abcc2","","1825","
    <div style=""display: flex; justify-content: center; align-items: center;"">
      <img src=""images/blue_deck_1.png"" style=""width: 300px; height: 300px; margin-right: 10px;"" />
      <img src=""images/red_deck_2.png"" style=""width: 300px; height: 300px;"" />
    </div>","0","0"
"","","","","","html-keyboard-response","111","544955","0.0-111.0-0.0-0.0","805D5E902221463CBE8C1204BDCD0BEF","378dac7f-0c6f-4447-82b9-7efc5b0116e5","5479079d-2186-49b2-89e2-e3afab6abcc2","","null","<div style=""display: flex; justify-content: center; align-items: center;"">
                <img src=""images/causal/causal_series_4/causal_series_4_d.jpg"" style=""width: 300px; height: 300px;"" />
              </div>","null",""
"","","","","","html-keyboard-response","112","547964","0.0-112.0","805D5E902221463CBE8C1204BDCD0BEF","378dac7f-0c6f-4447-82b9-7efc5b0116e5","5479079d-2186-49b2-89e2-e3afab6abcc2","","null","<div style=""display: flex; justify-content: center; align-items: center;"">
                <img src=""images/other/blank.jpg"" style=""width: 300px; height: 300px;"" />
              </div>","null",""
"","","","","","survey-text","113","618947","0.0-113.0","805D5E902221463CBE8C1204BDCD0BEF","378dac7f-0c6f-4447-82b9-7efc5b0116e5","5479079d-2186-49b2-89e2-e3afab6abcc2","","70971","","{""Q0"":""the different between in terms of color is that one is blue and other is red.""}",""
"","","","","","survey-text","114","659062","0.0-114.0","805D5E902221463CBE8C1204BDCD0BEF","378dac7f-0c6f-4447-82b9-7efc5b0116e5","5479079d-2186-49b2-89e2-e3afab6abcc2","","40101","","{""Q0"":""the first desk look more interesting""}",""
"","","","","","html-button-response","115","686321","0.0-115.0","805D5E902221463CBE8C1204BDCD0BEF","378dac7f-0c6f-4447-82b9-7efc5b0116e5","5479079d-2186-49b2-89e2-e3afab6abcc2","","27251","Which color deck does the fourth image continue the story from the series?","0",""
"","","","","","html-button-response","116","693000","0.0-116.0","805D5E902221463CBE8C1204BDCD0BEF","378dac7f-0c6f-4447-82b9-7efc5b0116e5","5479079d-2186-49b2-89e2-e3afab6abcc2","","6673","Which color deck does the fourth image not follow the story from the series?","1",""
"","","","","","survey-text","117","703970","0.0-117.0","805D5E902221463CBE8C1204BDCD0BEF","378dac7f-0c6f-4447-82b9-7efc5b0116e5","5479079d-2186-49b2-89e2-e3afab6abcc2","","10944","","{""Q0"":""male"",""Q1"":""24""}",""
"","","","","","instructions","118","723509","0.0-118.0","805D5E902221463CBE8C1204BDCD0BEF","378dac7f-0c6f-4447-82b9-7efc5b0116e5","5479079d-2186-49b2-89e2-e3afab6abcc2","[{""page_index"":0,""viewing_time"":19533}]","19536","","",""
