"success","timeout","failed_images","failed_audio","failed_video","trial_type","trial_index","time_elapsed","internal_node_id","subject","subject_id","study_id","session_id","urlvar","current_url","view_history","rt","stimulus","response","choice","question_order"
"true","false","[]","[]","[]","preload","0","642","0.0-0.0","2BA7A916DF2543C38FBD337BB3F6469E","2BA7A916DF2543C38FBD337BB3F6469E","938bfd4b-dc26-4196-92fd-0b965b6c8dbc","bea99957-1862-4ad8-9558-57b91e42ce64","{""participantId"":""2BA7A916DF2543C38FBD337BB3F6469E"",""assignmentId"":""938bfd4b-dc26-4196-92fd-0b965b6c8dbc"",""projectId"":""bea99957-1862-4ad8-9558-57b91e42ce64""}","https://test12345.live/?participantId=2BA7A916DF2543C38FBD337BB3F6469E&assignmentId=938bfd4b-dc26-4196-92fd-0b965b6c8dbc&projectId=bea99957-1862-4ad8-9558-57b91e42ce64","","","","","",""
"","","","","","instructions","1","95610","0.0-1.0","2BA7A916DF2543C38FBD337BB3F6469E","2BA7A916DF2543C38FBD337BB3F6469E","938bfd4b-dc26-4196-92fd-0b965b6c8dbc","bea99957-1862-4ad8-9558-57b91e42ce64","{""participantId"":""2BA7A916DF2543C38FBD337BB3F6469E"",""assignmentId"":""938bfd4b-dc26-4196-92fd-0b965b6c8dbc"",""projectId"":""bea99957-1862-4ad8-9558-57b91e42ce64""}","https://test12345.live/?participantId=2BA7A916DF2543C38FBD337BB3F6469E&assignmentId=938bfd4b-dc26-4196-92fd-0b965b6c8dbc&projectId=bea99957-1862-4ad8-9558-57b91e42ce64","[{""page_index"":0,""viewing_time"":94967}]","94967","","","",""
"","","","","","instructions","2","142571","0.0-2.0","2BA7A916DF2543C38FBD337BB3F6469E","2BA7A916DF2543C38FBD337BB3F6469E","938bfd4b-dc26-4196-92fd-0b965b6c8dbc","bea99957-1862-4ad8-9558-57b91e42ce64","{""participantId"":""2BA7A916DF2543C38FBD337BB3F6469E"",""assignmentId"":""938bfd4b-dc26-4196-92fd-0b965b6c8dbc"",""projectId"":""bea99957-1862-4ad8-9558-57b91e42ce64""}","https://test12345.live/?participantId=2BA7A916DF2543C38FBD337BB3F6469E&assignmentId=938bfd4b-dc26-4196-92fd-0b965b6c8dbc&projectId=bea99957-1862-4ad8-9558-57b91e42ce64","[{""page_index"":0,""viewing_time"":46959}]","46960","","","",""
"true","","","","","fullscreen","3","145734","0.0-3.0","2BA7A916DF2543C38FBD337BB3F6469E","2BA7A916DF2543C38FBD337BB3F6469E","938bfd4b-dc26-4196-92fd-0b965b6c8dbc","bea99957-1862-4ad8-9558-57b91e42ce64","{""participantId"":""2BA7A916DF2543C38FBD337BB3F6469E"",""assignmentId"":""938bfd4b-dc26-4196-92fd-0b965b6c8dbc"",""projectId"":""bea99957-1862-4ad8-9558-57b91e42ce64""}","https://test12345.live/?participantId=2BA7A916DF2543C38FBD337BB3F6469E&assignmentId=938bfd4b-dc26-4196-92fd-0b965b6c8dbc&projectId=bea99957-1862-4ad8-9558-57b91e42ce64","","2153","","","",""
"","","","","","instructions","4","184628","0.0-4.0","2BA7A916DF2543C38FBD337BB3F6469E","2BA7A916DF2543C38FBD337BB3F6469E","938bfd4b-dc26-4196-92fd-0b965b6c8dbc","bea99957-1862-4ad8-9558-57b91e42ce64","{""participantId"":""2BA7A916DF2543C38FBD337BB3F6469E"",""assignmentId"":""938bfd4b-dc26-4196-92fd-0b965b6c8dbc"",""projectId"":""bea99957-1862-4ad8-9558-57b91e42ce64""}","https://test12345.live/?participantId=2BA7A916DF2543C38FBD337BB3F6469E&assignmentId=938bfd4b-dc26-4196-92fd-0b965b6c8dbc&projectId=bea99957-1862-4ad8-9558-57b91e42ce64","[{""page_index"":0,""viewing_time"":38893}]","38894","","","",""
"","","","","","html-button-response","5","188649","0.0-5.0","2BA7A916DF2543C38FBD337BB3F6469E","2BA7A916DF2543C38FBD337BB3F6469E","938bfd4b-dc26-4196-92fd-0b965b6c8dbc","bea99957-1862-4ad8-9558-57b91e42ce64","{""participantId"":""2BA7A916DF2543C38FBD337BB3F6469E"",""assignmentId"":""938bfd4b-dc26-4196-92fd-0b965b6c8dbc"",""projectId"":""bea99957-1862-4ad8-9558-57b91e42ce64""}","https://test12345.live/?participantId=2BA7A916DF2543C38FBD337BB3F6469E&assignmentId=938bfd4b-dc26-4196-92fd-0b965b6c8dbc&projectId=bea99957-1862-4ad8-9558-57b91e42ce64","","4018","
    <div style=""display: flex; justify-content: center; align-items: center;"">
      <img src=""images/red_deck_2.png"" style=""width: 300px; height: 300px; margin-right: 10px;"" />
      <img src=""images/blue_deck_1.png"" style=""width: 300px; height: 300px;"" />
    </div>","1","1",""
"","","","","","html-keyboard-response","6","191657","0.0-6.0-0.0","2BA7A916DF2543C38FBD337BB3F6469E","2BA7A916DF2543C38FBD337BB3F6469E","938bfd4b-dc26-4196-92fd-0b965b6c8dbc","bea99957-1862-4ad8-9558-57b91e42ce64","{""participantId"":""2BA7A916DF2543C38FBD337BB3F6469E"",""assignmentId"":""938bfd4b-dc26-4196-92fd-0b965b6c8dbc"",""projectId"":""bea99957-1862-4ad8-9558-57b91e42ce64""}","https://test12345.live/?participantId=2BA7A916DF2543C38FBD337BB3F6469E&assignmentId=938bfd4b-dc26-4196-92fd-0b965b6c8dbc&projectId=bea99957-1862-4ad8-9558-57b91e42ce64","","null","<div style=""display: flex; justify-content: center; align-items: center;"">
                    <img src=""images/causal/causal_series_9/causal_series_9_a.jpg"" style=""width: 300px; height: 300px;"" />
                  </div>","null","",""
"","","","","","html-keyboard-response","7","194658","0.0-6.0-1.0","2BA7A916DF2543C38FBD337BB3F6469E","2BA7A916DF2543C38FBD337BB3F6469E","938bfd4b-dc26-4196-92fd-0b965b6c8dbc","bea99957-1862-4ad8-9558-57b91e42ce64","{""participantId"":""2BA7A916DF2543C38FBD337BB3F6469E"",""assignmentId"":""938bfd4b-dc26-4196-92fd-0b965b6c8dbc"",""projectId"":""bea99957-1862-4ad8-9558-57b91e42ce64""}","https://test12345.live/?participantId=2BA7A916DF2543C38FBD337BB3F6469E&assignmentId=938bfd4b-dc26-4196-92fd-0b965b6c8dbc&projectId=bea99957-1862-4ad8-9558-57b91e42ce64","","null","<div style=""display: flex; justify-content: center; align-items: center;"">
                    <img src=""images/causal/causal_series_9/causal_series_9_b.jpg"" style=""width: 300px; height: 300px;"" />
                  </div>","null","",""
"","","","","","html-keyboard-response","8","197673","0.0-6.0-2.0","2BA7A916DF2543C38FBD337BB3F6469E","2BA7A916DF2543C38FBD337BB3F6469E","938bfd4b-dc26-4196-92fd-0b965b6c8dbc","bea99957-1862-4ad8-9558-57b91e42ce64","{""participantId"":""2BA7A916DF2543C38FBD337BB3F6469E"",""assignmentId"":""938bfd4b-dc26-4196-92fd-0b965b6c8dbc"",""projectId"":""bea99957-1862-4ad8-9558-57b91e42ce64""}","https://test12345.live/?participantId=2BA7A916DF2543C38FBD337BB3F6469E&assignmentId=938bfd4b-dc26-4196-92fd-0b965b6c8dbc&projectId=bea99957-1862-4ad8-9558-57b91e42ce64","","null","<div style=""display: flex; justify-content: center; align-items: center;"">
                    <img src=""images/causal/causal_series_9/causal_series_9_c.jpg"" style=""width: 300px; height: 300px;"" />
                  </div>","null","",""
"","","","","","html-keyboard-response","9","200678","0.0-6.0-3.0","2BA7A916DF2543C38FBD337BB3F6469E","2BA7A916DF2543C38FBD337BB3F6469E","938bfd4b-dc26-4196-92fd-0b965b6c8dbc","bea99957-1862-4ad8-9558-57b91e42ce64","{""participantId"":""2BA7A916DF2543C38FBD337BB3F6469E"",""assignmentId"":""938bfd4b-dc26-4196-92fd-0b965b6c8dbc"",""projectId"":""bea99957-1862-4ad8-9558-57b91e42ce64""}","https://test12345.live/?participantId=2BA7A916DF2543C38FBD337BB3F6469E&assignmentId=938bfd4b-dc26-4196-92fd-0b965b6c8dbc&projectId=bea99957-1862-4ad8-9558-57b91e42ce64","","null","<div style=""display: flex; justify-content: center; align-items: center;"">
                    <img src=""images/causal/causal_series_9/causal_series_9_d.jpg"" style=""width: 300px; height: 300px;"" />
                  </div>","null","",""
"","","","","","html-button-response","10","205509","0.0-8.0","2BA7A916DF2543C38FBD337BB3F6469E","2BA7A916DF2543C38FBD337BB3F6469E","938bfd4b-dc26-4196-92fd-0b965b6c8dbc","bea99957-1862-4ad8-9558-57b91e42ce64","{""participantId"":""2BA7A916DF2543C38FBD337BB3F6469E"",""assignmentId"":""938bfd4b-dc26-4196-92fd-0b965b6c8dbc"",""projectId"":""bea99957-1862-4ad8-9558-57b91e42ce64""}","https://test12345.live/?participantId=2BA7A916DF2543C38FBD337BB3F6469E&assignmentId=938bfd4b-dc26-4196-92fd-0b965b6c8dbc&projectId=bea99957-1862-4ad8-9558-57b91e42ce64","","4829","Was there a person in the picture?","1","",""
"","","","","","survey-likert","11","209923","0.0-9.0","2BA7A916DF2543C38FBD337BB3F6469E","2BA7A916DF2543C38FBD337BB3F6469E","938bfd4b-dc26-4196-92fd-0b965b6c8dbc","bea99957-1862-4ad8-9558-57b91e42ce64","{""participantId"":""2BA7A916DF2543C38FBD337BB3F6469E"",""assignmentId"":""938bfd4b-dc26-4196-92fd-0b965b6c8dbc"",""projectId"":""bea99957-1862-4ad8-9558-57b91e42ce64""}","https://test12345.live/?participantId=2BA7A916DF2543C38FBD337BB3F6469E&assignmentId=938bfd4b-dc26-4196-92fd-0b965b6c8dbc&projectId=bea99957-1862-4ad8-9558-57b91e42ce64","","4408","","{""Q0"":3}","","[0]"
"","","","","","html-button-response","12","218982","0.0-10.0","2BA7A916DF2543C38FBD337BB3F6469E","2BA7A916DF2543C38FBD337BB3F6469E","938bfd4b-dc26-4196-92fd-0b965b6c8dbc","bea99957-1862-4ad8-9558-57b91e42ce64","{""participantId"":""2BA7A916DF2543C38FBD337BB3F6469E"",""assignmentId"":""938bfd4b-dc26-4196-92fd-0b965b6c8dbc"",""projectId"":""bea99957-1862-4ad8-9558-57b91e42ce64""}","https://test12345.live/?participantId=2BA7A916DF2543C38FBD337BB3F6469E&assignmentId=938bfd4b-dc26-4196-92fd-0b965b6c8dbc&projectId=bea99957-1862-4ad8-9558-57b91e42ce64","","9058","
    <div style=""display: flex; justify-content: center; align-items: center;"">
      <img src=""images/red_deck_2.png"" style=""width: 300px; height: 300px; margin-right: 10px;"" />
      <img src=""images/blue_deck_1.png"" style=""width: 300px; height: 300px;"" />
    </div>","1","1",""
"","","","","","html-keyboard-response","13","221983","0.0-11.0-0.0","2BA7A916DF2543C38FBD337BB3F6469E","2BA7A916DF2543C38FBD337BB3F6469E","938bfd4b-dc26-4196-92fd-0b965b6c8dbc","bea99957-1862-4ad8-9558-57b91e42ce64","{""participantId"":""2BA7A916DF2543C38FBD337BB3F6469E"",""assignmentId"":""938bfd4b-dc26-4196-92fd-0b965b6c8dbc"",""projectId"":""bea99957-1862-4ad8-9558-57b91e42ce64""}","https://test12345.live/?participantId=2BA7A916DF2543C38FBD337BB3F6469E&assignmentId=938bfd4b-dc26-4196-92fd-0b965b6c8dbc&projectId=bea99957-1862-4ad8-9558-57b91e42ce64","","null","<div style=""display: flex; justify-content: center; align-items: center;"">
                    <img src=""images/causal/causal_series_3/causal_series_3_a.jpg"" style=""width: 300px; height: 300px;"" />
                  </div>","null","",""
"","","","","","html-keyboard-response","14","224995","0.0-11.0-1.0","2BA7A916DF2543C38FBD337BB3F6469E","2BA7A916DF2543C38FBD337BB3F6469E","938bfd4b-dc26-4196-92fd-0b965b6c8dbc","bea99957-1862-4ad8-9558-57b91e42ce64","{""participantId"":""2BA7A916DF2543C38FBD337BB3F6469E"",""assignmentId"":""938bfd4b-dc26-4196-92fd-0b965b6c8dbc"",""projectId"":""bea99957-1862-4ad8-9558-57b91e42ce64""}","https://test12345.live/?participantId=2BA7A916DF2543C38FBD337BB3F6469E&assignmentId=938bfd4b-dc26-4196-92fd-0b965b6c8dbc&projectId=bea99957-1862-4ad8-9558-57b91e42ce64","","null","<div style=""display: flex; justify-content: center; align-items: center;"">
                    <img src=""images/causal/causal_series_3/causal_series_3_b.jpg"" style=""width: 300px; height: 300px;"" />
                  </div>","null","",""
"","","","","","html-keyboard-response","15","228006","0.0-11.0-2.0","2BA7A916DF2543C38FBD337BB3F6469E","2BA7A916DF2543C38FBD337BB3F6469E","938bfd4b-dc26-4196-92fd-0b965b6c8dbc","bea99957-1862-4ad8-9558-57b91e42ce64","{""participantId"":""2BA7A916DF2543C38FBD337BB3F6469E"",""assignmentId"":""938bfd4b-dc26-4196-92fd-0b965b6c8dbc"",""projectId"":""bea99957-1862-4ad8-9558-57b91e42ce64""}","https://test12345.live/?participantId=2BA7A916DF2543C38FBD337BB3F6469E&assignmentId=938bfd4b-dc26-4196-92fd-0b965b6c8dbc&projectId=bea99957-1862-4ad8-9558-57b91e42ce64","","null","<div style=""display: flex; justify-content: center; align-items: center;"">
                    <img src=""images/causal/causal_series_3/causal_series_3_c.jpg"" style=""width: 300px; height: 300px;"" />
                  </div>","null","",""
"","","","","","html-keyboard-response","16","231014","0.0-11.0-3.0","2BA7A916DF2543C38FBD337BB3F6469E","2BA7A916DF2543C38FBD337BB3F6469E","938bfd4b-dc26-4196-92fd-0b965b6c8dbc","bea99957-1862-4ad8-9558-57b91e42ce64","{""participantId"":""2BA7A916DF2543C38FBD337BB3F6469E"",""assignmentId"":""938bfd4b-dc26-4196-92fd-0b965b6c8dbc"",""projectId"":""bea99957-1862-4ad8-9558-57b91e42ce64""}","https://test12345.live/?participantId=2BA7A916DF2543C38FBD337BB3F6469E&assignmentId=938bfd4b-dc26-4196-92fd-0b965b6c8dbc&projectId=bea99957-1862-4ad8-9558-57b91e42ce64","","null","<div style=""display: flex; justify-content: center; align-items: center;"">
                    <img src=""images/causal/causal_series_3/causal_series_3_d.jpg"" style=""width: 300px; height: 300px;"" />
                  </div>","null","",""
"","","","","","html-button-response","17","234731","0.0-13.0","2BA7A916DF2543C38FBD337BB3F6469E","2BA7A916DF2543C38FBD337BB3F6469E","938bfd4b-dc26-4196-92fd-0b965b6c8dbc","bea99957-1862-4ad8-9558-57b91e42ce64","{""participantId"":""2BA7A916DF2543C38FBD337BB3F6469E"",""assignmentId"":""938bfd4b-dc26-4196-92fd-0b965b6c8dbc"",""projectId"":""bea99957-1862-4ad8-9558-57b91e42ce64""}","https://test12345.live/?participantId=2BA7A916DF2543C38FBD337BB3F6469E&assignmentId=938bfd4b-dc26-4196-92fd-0b965b6c8dbc&projectId=bea99957-1862-4ad8-9558-57b91e42ce64","","3716","Was there a person in the picture?","0","",""
"","","","","","survey-likert","18","238341","0.0-14.0","2BA7A916DF2543C38FBD337BB3F6469E","2BA7A916DF2543C38FBD337BB3F6469E","938bfd4b-dc26-4196-92fd-0b965b6c8dbc","bea99957-1862-4ad8-9558-57b91e42ce64","{""participantId"":""2BA7A916DF2543C38FBD337BB3F6469E"",""assignmentId"":""938bfd4b-dc26-4196-92fd-0b965b6c8dbc"",""projectId"":""bea99957-1862-4ad8-9558-57b91e42ce64""}","https://test12345.live/?participantId=2BA7A916DF2543C38FBD337BB3F6469E&assignmentId=938bfd4b-dc26-4196-92fd-0b965b6c8dbc&projectId=bea99957-1862-4ad8-9558-57b91e42ce64","","3608","","{""Q0"":4}","","[0]"
"","","","","","html-button-response","19","241354","0.0-15.0","2BA7A916DF2543C38FBD337BB3F6469E","2BA7A916DF2543C38FBD337BB3F6469E","938bfd4b-dc26-4196-92fd-0b965b6c8dbc","bea99957-1862-4ad8-9558-57b91e42ce64","{""participantId"":""2BA7A916DF2543C38FBD337BB3F6469E"",""assignmentId"":""938bfd4b-dc26-4196-92fd-0b965b6c8dbc"",""projectId"":""bea99957-1862-4ad8-9558-57b91e42ce64""}","https://test12345.live/?participantId=2BA7A916DF2543C38FBD337BB3F6469E&assignmentId=938bfd4b-dc26-4196-92fd-0b965b6c8dbc&projectId=bea99957-1862-4ad8-9558-57b91e42ce64","","3010","
    <div style=""display: flex; justify-content: center; align-items: center;"">
      <img src=""images/red_deck_2.png"" style=""width: 300px; height: 300px; margin-right: 10px;"" />
      <img src=""images/blue_deck_1.png"" style=""width: 300px; height: 300px;"" />
    </div>","0","0",""
"","","","","","html-keyboard-response","20","244366","0.0-17.0-0.0","2BA7A916DF2543C38FBD337BB3F6469E","2BA7A916DF2543C38FBD337BB3F6469E","938bfd4b-dc26-4196-92fd-0b965b6c8dbc","bea99957-1862-4ad8-9558-57b91e42ce64","{""participantId"":""2BA7A916DF2543C38FBD337BB3F6469E"",""assignmentId"":""938bfd4b-dc26-4196-92fd-0b965b6c8dbc"",""projectId"":""bea99957-1862-4ad8-9558-57b91e42ce64""}","https://test12345.live/?participantId=2BA7A916DF2543C38FBD337BB3F6469E&assignmentId=938bfd4b-dc26-4196-92fd-0b965b6c8dbc&projectId=bea99957-1862-4ad8-9558-57b91e42ce64","","null","<div style=""display: flex; justify-content: center; align-items: center;"">
                    <img src=""images/semantic/semantic_series_5/semantic_series_5_a.jpg"" style=""width: 300px; height: 300px;"" />
                  </div>","null","",""
"","","","","","html-keyboard-response","21","247372","0.0-17.0-1.0","2BA7A916DF2543C38FBD337BB3F6469E","2BA7A916DF2543C38FBD337BB3F6469E","938bfd4b-dc26-4196-92fd-0b965b6c8dbc","bea99957-1862-4ad8-9558-57b91e42ce64","{""participantId"":""2BA7A916DF2543C38FBD337BB3F6469E"",""assignmentId"":""938bfd4b-dc26-4196-92fd-0b965b6c8dbc"",""projectId"":""bea99957-1862-4ad8-9558-57b91e42ce64""}","https://test12345.live/?participantId=2BA7A916DF2543C38FBD337BB3F6469E&assignmentId=938bfd4b-dc26-4196-92fd-0b965b6c8dbc&projectId=bea99957-1862-4ad8-9558-57b91e42ce64","","null","<div style=""display: flex; justify-content: center; align-items: center;"">
                    <img src=""images/semantic/semantic_series_5/semantic_series_5_b.jpg"" style=""width: 300px; height: 300px;"" />
                  </div>","null","",""
"","","","","","html-keyboard-response","22","250385","0.0-17.0-2.0","2BA7A916DF2543C38FBD337BB3F6469E","2BA7A916DF2543C38FBD337BB3F6469E","938bfd4b-dc26-4196-92fd-0b965b6c8dbc","bea99957-1862-4ad8-9558-57b91e42ce64","{""participantId"":""2BA7A916DF2543C38FBD337BB3F6469E"",""assignmentId"":""938bfd4b-dc26-4196-92fd-0b965b6c8dbc"",""projectId"":""bea99957-1862-4ad8-9558-57b91e42ce64""}","https://test12345.live/?participantId=2BA7A916DF2543C38FBD337BB3F6469E&assignmentId=938bfd4b-dc26-4196-92fd-0b965b6c8dbc&projectId=bea99957-1862-4ad8-9558-57b91e42ce64","","null","<div style=""display: flex; justify-content: center; align-items: center;"">
                    <img src=""images/semantic/semantic_series_5/semantic_series_5_c.jpg"" style=""width: 300px; height: 300px;"" />
                  </div>","null","",""
"","","","","","html-keyboard-response","23","253391","0.0-17.0-3.0","2BA7A916DF2543C38FBD337BB3F6469E","2BA7A916DF2543C38FBD337BB3F6469E","938bfd4b-dc26-4196-92fd-0b965b6c8dbc","bea99957-1862-4ad8-9558-57b91e42ce64","{""participantId"":""2BA7A916DF2543C38FBD337BB3F6469E"",""assignmentId"":""938bfd4b-dc26-4196-92fd-0b965b6c8dbc"",""projectId"":""bea99957-1862-4ad8-9558-57b91e42ce64""}","https://test12345.live/?participantId=2BA7A916DF2543C38FBD337BB3F6469E&assignmentId=938bfd4b-dc26-4196-92fd-0b965b6c8dbc&projectId=bea99957-1862-4ad8-9558-57b91e42ce64","","null","<div style=""display: flex; justify-content: center; align-items: center;"">
                    <img src=""images/semantic/semantic_series_5/semantic_series_5_d.jpg"" style=""width: 300px; height: 300px;"" />
                  </div>","null","",""
"","","","","","html-button-response","24","277736","0.0-18.0","2BA7A916DF2543C38FBD337BB3F6469E","2BA7A916DF2543C38FBD337BB3F6469E","938bfd4b-dc26-4196-92fd-0b965b6c8dbc","bea99957-1862-4ad8-9558-57b91e42ce64","{""participantId"":""2BA7A916DF2543C38FBD337BB3F6469E"",""assignmentId"":""938bfd4b-dc26-4196-92fd-0b965b6c8dbc"",""projectId"":""bea99957-1862-4ad8-9558-57b91e42ce64""}","https://test12345.live/?participantId=2BA7A916DF2543C38FBD337BB3F6469E&assignmentId=938bfd4b-dc26-4196-92fd-0b965b6c8dbc&projectId=bea99957-1862-4ad8-9558-57b91e42ce64","","24344","Was there a person in the picture?","0","",""
"","","","","","survey-likert","25","287572","0.0-19.0","2BA7A916DF2543C38FBD337BB3F6469E","2BA7A916DF2543C38FBD337BB3F6469E","938bfd4b-dc26-4196-92fd-0b965b6c8dbc","bea99957-1862-4ad8-9558-57b91e42ce64","{""participantId"":""2BA7A916DF2543C38FBD337BB3F6469E"",""assignmentId"":""938bfd4b-dc26-4196-92fd-0b965b6c8dbc"",""projectId"":""bea99957-1862-4ad8-9558-57b91e42ce64""}","https://test12345.live/?participantId=2BA7A916DF2543C38FBD337BB3F6469E&assignmentId=938bfd4b-dc26-4196-92fd-0b965b6c8dbc&projectId=bea99957-1862-4ad8-9558-57b91e42ce64","","9833","","{""Q0"":3}","","[0]"
"","","","","","html-button-response","26","295251","0.0-20.0","2BA7A916DF2543C38FBD337BB3F6469E","2BA7A916DF2543C38FBD337BB3F6469E","938bfd4b-dc26-4196-92fd-0b965b6c8dbc","bea99957-1862-4ad8-9558-57b91e42ce64","{""participantId"":""2BA7A916DF2543C38FBD337BB3F6469E"",""assignmentId"":""938bfd4b-dc26-4196-92fd-0b965b6c8dbc"",""projectId"":""bea99957-1862-4ad8-9558-57b91e42ce64""}","https://test12345.live/?participantId=2BA7A916DF2543C38FBD337BB3F6469E&assignmentId=938bfd4b-dc26-4196-92fd-0b965b6c8dbc&projectId=bea99957-1862-4ad8-9558-57b91e42ce64","","7676","
    <div style=""display: flex; justify-content: center; align-items: center;"">
      <img src=""images/red_deck_2.png"" style=""width: 300px; height: 300px; margin-right: 10px;"" />
      <img src=""images/blue_deck_1.png"" style=""width: 300px; height: 300px;"" />
    </div>","1","1",""
"","","","","","html-keyboard-response","27","298257","0.0-21.0-0.0","2BA7A916DF2543C38FBD337BB3F6469E","2BA7A916DF2543C38FBD337BB3F6469E","938bfd4b-dc26-4196-92fd-0b965b6c8dbc","bea99957-1862-4ad8-9558-57b91e42ce64","{""participantId"":""2BA7A916DF2543C38FBD337BB3F6469E"",""assignmentId"":""938bfd4b-dc26-4196-92fd-0b965b6c8dbc"",""projectId"":""bea99957-1862-4ad8-9558-57b91e42ce64""}","https://test12345.live/?participantId=2BA7A916DF2543C38FBD337BB3F6469E&assignmentId=938bfd4b-dc26-4196-92fd-0b965b6c8dbc&projectId=bea99957-1862-4ad8-9558-57b91e42ce64","","null","<div style=""display: flex; justify-content: center; align-items: center;"">
                    <img src=""images/causal/causal_series_13/causal_series_13_a.jpg"" style=""width: 300px; height: 300px;"" />
                  </div>","null","",""
"","","","","","html-keyboard-response","28","301260","0.0-21.0-1.0","2BA7A916DF2543C38FBD337BB3F6469E","2BA7A916DF2543C38FBD337BB3F6469E","938bfd4b-dc26-4196-92fd-0b965b6c8dbc","bea99957-1862-4ad8-9558-57b91e42ce64","{""participantId"":""2BA7A916DF2543C38FBD337BB3F6469E"",""assignmentId"":""938bfd4b-dc26-4196-92fd-0b965b6c8dbc"",""projectId"":""bea99957-1862-4ad8-9558-57b91e42ce64""}","https://test12345.live/?participantId=2BA7A916DF2543C38FBD337BB3F6469E&assignmentId=938bfd4b-dc26-4196-92fd-0b965b6c8dbc&projectId=bea99957-1862-4ad8-9558-57b91e42ce64","","null","<div style=""display: flex; justify-content: center; align-items: center;"">
                    <img src=""images/causal/causal_series_13/causal_series_13_b.jpg"" style=""width: 300px; height: 300px;"" />
                  </div>","null","",""
"","","","","","html-keyboard-response","29","304265","0.0-21.0-2.0","2BA7A916DF2543C38FBD337BB3F6469E","2BA7A916DF2543C38FBD337BB3F6469E","938bfd4b-dc26-4196-92fd-0b965b6c8dbc","bea99957-1862-4ad8-9558-57b91e42ce64","{""participantId"":""2BA7A916DF2543C38FBD337BB3F6469E"",""assignmentId"":""938bfd4b-dc26-4196-92fd-0b965b6c8dbc"",""projectId"":""bea99957-1862-4ad8-9558-57b91e42ce64""}","https://test12345.live/?participantId=2BA7A916DF2543C38FBD337BB3F6469E&assignmentId=938bfd4b-dc26-4196-92fd-0b965b6c8dbc&projectId=bea99957-1862-4ad8-9558-57b91e42ce64","","null","<div style=""display: flex; justify-content: center; align-items: center;"">
                    <img src=""images/causal/causal_series_13/causal_series_13_c.jpg"" style=""width: 300px; height: 300px;"" />
                  </div>","null","",""
"","","","","","html-keyboard-response","30","307269","0.0-21.0-3.0","2BA7A916DF2543C38FBD337BB3F6469E","2BA7A916DF2543C38FBD337BB3F6469E","938bfd4b-dc26-4196-92fd-0b965b6c8dbc","bea99957-1862-4ad8-9558-57b91e42ce64","{""participantId"":""2BA7A916DF2543C38FBD337BB3F6469E"",""assignmentId"":""938bfd4b-dc26-4196-92fd-0b965b6c8dbc"",""projectId"":""bea99957-1862-4ad8-9558-57b91e42ce64""}","https://test12345.live/?participantId=2BA7A916DF2543C38FBD337BB3F6469E&assignmentId=938bfd4b-dc26-4196-92fd-0b965b6c8dbc&projectId=bea99957-1862-4ad8-9558-57b91e42ce64","","null","<div style=""display: flex; justify-content: center; align-items: center;"">
                    <img src=""images/causal/causal_series_13/causal_series_13_d.jpg"" style=""width: 300px; height: 300px;"" />
                  </div>","null","",""
"","","","","","html-button-response","31","312689","0.0-23.0","2BA7A916DF2543C38FBD337BB3F6469E","2BA7A916DF2543C38FBD337BB3F6469E","938bfd4b-dc26-4196-92fd-0b965b6c8dbc","bea99957-1862-4ad8-9558-57b91e42ce64","{""participantId"":""2BA7A916DF2543C38FBD337BB3F6469E"",""assignmentId"":""938bfd4b-dc26-4196-92fd-0b965b6c8dbc"",""projectId"":""bea99957-1862-4ad8-9558-57b91e42ce64""}","https://test12345.live/?participantId=2BA7A916DF2543C38FBD337BB3F6469E&assignmentId=938bfd4b-dc26-4196-92fd-0b965b6c8dbc&projectId=bea99957-1862-4ad8-9558-57b91e42ce64","","5418","Was there a person in the picture?","0","",""
"","","","","","survey-likert","32","314577","0.0-24.0","2BA7A916DF2543C38FBD337BB3F6469E","2BA7A916DF2543C38FBD337BB3F6469E","938bfd4b-dc26-4196-92fd-0b965b6c8dbc","bea99957-1862-4ad8-9558-57b91e42ce64","{""participantId"":""2BA7A916DF2543C38FBD337BB3F6469E"",""assignmentId"":""938bfd4b-dc26-4196-92fd-0b965b6c8dbc"",""projectId"":""bea99957-1862-4ad8-9558-57b91e42ce64""}","https://test12345.live/?participantId=2BA7A916DF2543C38FBD337BB3F6469E&assignmentId=938bfd4b-dc26-4196-92fd-0b965b6c8dbc&projectId=bea99957-1862-4ad8-9558-57b91e42ce64","","1886","","{""Q0"":4}","","[0]"
"","","","","","html-button-response","33","333356","0.0-25.0","2BA7A916DF2543C38FBD337BB3F6469E","2BA7A916DF2543C38FBD337BB3F6469E","938bfd4b-dc26-4196-92fd-0b965b6c8dbc","bea99957-1862-4ad8-9558-57b91e42ce64","{""participantId"":""2BA7A916DF2543C38FBD337BB3F6469E"",""assignmentId"":""938bfd4b-dc26-4196-92fd-0b965b6c8dbc"",""projectId"":""bea99957-1862-4ad8-9558-57b91e42ce64""}","https://test12345.live/?participantId=2BA7A916DF2543C38FBD337BB3F6469E&assignmentId=938bfd4b-dc26-4196-92fd-0b965b6c8dbc&projectId=bea99957-1862-4ad8-9558-57b91e42ce64","","18776","
    <div style=""display: flex; justify-content: center; align-items: center;"">
      <img src=""images/red_deck_2.png"" style=""width: 300px; height: 300px; margin-right: 10px;"" />
      <img src=""images/blue_deck_1.png"" style=""width: 300px; height: 300px;"" />
    </div>","1","1",""
"","","","","","html-keyboard-response","34","336364","0.0-26.0-0.0","2BA7A916DF2543C38FBD337BB3F6469E","2BA7A916DF2543C38FBD337BB3F6469E","938bfd4b-dc26-4196-92fd-0b965b6c8dbc","bea99957-1862-4ad8-9558-57b91e42ce64","{""participantId"":""2BA7A916DF2543C38FBD337BB3F6469E"",""assignmentId"":""938bfd4b-dc26-4196-92fd-0b965b6c8dbc"",""projectId"":""bea99957-1862-4ad8-9558-57b91e42ce64""}","https://test12345.live/?participantId=2BA7A916DF2543C38FBD337BB3F6469E&assignmentId=938bfd4b-dc26-4196-92fd-0b965b6c8dbc&projectId=bea99957-1862-4ad8-9558-57b91e42ce64","","null","<div style=""display: flex; justify-content: center; align-items: center;"">
                    <img src=""images/causal/causal_series_1/causal_series_1_a.jpg"" style=""width: 300px; height: 300px;"" />
                  </div>","null","",""
"","","","","","html-keyboard-response","35","339368","0.0-26.0-1.0","2BA7A916DF2543C38FBD337BB3F6469E","2BA7A916DF2543C38FBD337BB3F6469E","938bfd4b-dc26-4196-92fd-0b965b6c8dbc","bea99957-1862-4ad8-9558-57b91e42ce64","{""participantId"":""2BA7A916DF2543C38FBD337BB3F6469E"",""assignmentId"":""938bfd4b-dc26-4196-92fd-0b965b6c8dbc"",""projectId"":""bea99957-1862-4ad8-9558-57b91e42ce64""}","https://test12345.live/?participantId=2BA7A916DF2543C38FBD337BB3F6469E&assignmentId=938bfd4b-dc26-4196-92fd-0b965b6c8dbc&projectId=bea99957-1862-4ad8-9558-57b91e42ce64","","null","<div style=""display: flex; justify-content: center; align-items: center;"">
                    <img src=""images/causal/causal_series_1/causal_series_1_b.jpg"" style=""width: 300px; height: 300px;"" />
                  </div>","null","",""
"","","","","","html-keyboard-response","36","342379","0.0-26.0-2.0","2BA7A916DF2543C38FBD337BB3F6469E","2BA7A916DF2543C38FBD337BB3F6469E","938bfd4b-dc26-4196-92fd-0b965b6c8dbc","bea99957-1862-4ad8-9558-57b91e42ce64","{""participantId"":""2BA7A916DF2543C38FBD337BB3F6469E"",""assignmentId"":""938bfd4b-dc26-4196-92fd-0b965b6c8dbc"",""projectId"":""bea99957-1862-4ad8-9558-57b91e42ce64""}","https://test12345.live/?participantId=2BA7A916DF2543C38FBD337BB3F6469E&assignmentId=938bfd4b-dc26-4196-92fd-0b965b6c8dbc&projectId=bea99957-1862-4ad8-9558-57b91e42ce64","","null","<div style=""display: flex; justify-content: center; align-items: center;"">
                    <img src=""images/causal/causal_series_1/causal_series_1_c.jpg"" style=""width: 300px; height: 300px;"" />
                  </div>","null","",""
"","","","","","html-keyboard-response","37","345390","0.0-26.0-3.0","2BA7A916DF2543C38FBD337BB3F6469E","2BA7A916DF2543C38FBD337BB3F6469E","938bfd4b-dc26-4196-92fd-0b965b6c8dbc","bea99957-1862-4ad8-9558-57b91e42ce64","{""participantId"":""2BA7A916DF2543C38FBD337BB3F6469E"",""assignmentId"":""938bfd4b-dc26-4196-92fd-0b965b6c8dbc"",""projectId"":""bea99957-1862-4ad8-9558-57b91e42ce64""}","https://test12345.live/?participantId=2BA7A916DF2543C38FBD337BB3F6469E&assignmentId=938bfd4b-dc26-4196-92fd-0b965b6c8dbc&projectId=bea99957-1862-4ad8-9558-57b91e42ce64","","null","<div style=""display: flex; justify-content: center; align-items: center;"">
                    <img src=""images/causal/causal_series_1/causal_series_1_d.jpg"" style=""width: 300px; height: 300px;"" />
                  </div>","null","",""
"","","","","","html-button-response","38","357409","0.0-28.0","2BA7A916DF2543C38FBD337BB3F6469E","2BA7A916DF2543C38FBD337BB3F6469E","938bfd4b-dc26-4196-92fd-0b965b6c8dbc","bea99957-1862-4ad8-9558-57b91e42ce64","{""participantId"":""2BA7A916DF2543C38FBD337BB3F6469E"",""assignmentId"":""938bfd4b-dc26-4196-92fd-0b965b6c8dbc"",""projectId"":""bea99957-1862-4ad8-9558-57b91e42ce64""}","https://test12345.live/?participantId=2BA7A916DF2543C38FBD337BB3F6469E&assignmentId=938bfd4b-dc26-4196-92fd-0b965b6c8dbc&projectId=bea99957-1862-4ad8-9558-57b91e42ce64","","12018","Was there a person in the picture?","0","",""
"","","","","","survey-likert","39","361047","0.0-29.0","2BA7A916DF2543C38FBD337BB3F6469E","2BA7A916DF2543C38FBD337BB3F6469E","938bfd4b-dc26-4196-92fd-0b965b6c8dbc","bea99957-1862-4ad8-9558-57b91e42ce64","{""participantId"":""2BA7A916DF2543C38FBD337BB3F6469E"",""assignmentId"":""938bfd4b-dc26-4196-92fd-0b965b6c8dbc"",""projectId"":""bea99957-1862-4ad8-9558-57b91e42ce64""}","https://test12345.live/?participantId=2BA7A916DF2543C38FBD337BB3F6469E&assignmentId=938bfd4b-dc26-4196-92fd-0b965b6c8dbc&projectId=bea99957-1862-4ad8-9558-57b91e42ce64","","3637","","{""Q0"":2}","","[0]"
"","","","","","html-button-response","40","363720","0.0-30.0","2BA7A916DF2543C38FBD337BB3F6469E","2BA7A916DF2543C38FBD337BB3F6469E","938bfd4b-dc26-4196-92fd-0b965b6c8dbc","bea99957-1862-4ad8-9558-57b91e42ce64","{""participantId"":""2BA7A916DF2543C38FBD337BB3F6469E"",""assignmentId"":""938bfd4b-dc26-4196-92fd-0b965b6c8dbc"",""projectId"":""bea99957-1862-4ad8-9558-57b91e42ce64""}","https://test12345.live/?participantId=2BA7A916DF2543C38FBD337BB3F6469E&assignmentId=938bfd4b-dc26-4196-92fd-0b965b6c8dbc&projectId=bea99957-1862-4ad8-9558-57b91e42ce64","","2671","
    <div style=""display: flex; justify-content: center; align-items: center;"">
      <img src=""images/red_deck_2.png"" style=""width: 300px; height: 300px; margin-right: 10px;"" />
      <img src=""images/blue_deck_1.png"" style=""width: 300px; height: 300px;"" />
    </div>","1","1",""
"","","","","","html-keyboard-response","41","366727","0.0-31.0-0.0","2BA7A916DF2543C38FBD337BB3F6469E","2BA7A916DF2543C38FBD337BB3F6469E","938bfd4b-dc26-4196-92fd-0b965b6c8dbc","bea99957-1862-4ad8-9558-57b91e42ce64","{""participantId"":""2BA7A916DF2543C38FBD337BB3F6469E"",""assignmentId"":""938bfd4b-dc26-4196-92fd-0b965b6c8dbc"",""projectId"":""bea99957-1862-4ad8-9558-57b91e42ce64""}","https://test12345.live/?participantId=2BA7A916DF2543C38FBD337BB3F6469E&assignmentId=938bfd4b-dc26-4196-92fd-0b965b6c8dbc&projectId=bea99957-1862-4ad8-9558-57b91e42ce64","","null","<div style=""display: flex; justify-content: center; align-items: center;"">
                    <img src=""images/causal/causal_series_15/causal_series_15_a.jpg"" style=""width: 300px; height: 300px;"" />
                  </div>","null","",""
"","","","","","html-keyboard-response","42","369738","0.0-31.0-1.0","2BA7A916DF2543C38FBD337BB3F6469E","2BA7A916DF2543C38FBD337BB3F6469E","938bfd4b-dc26-4196-92fd-0b965b6c8dbc","bea99957-1862-4ad8-9558-57b91e42ce64","{""participantId"":""2BA7A916DF2543C38FBD337BB3F6469E"",""assignmentId"":""938bfd4b-dc26-4196-92fd-0b965b6c8dbc"",""projectId"":""bea99957-1862-4ad8-9558-57b91e42ce64""}","https://test12345.live/?participantId=2BA7A916DF2543C38FBD337BB3F6469E&assignmentId=938bfd4b-dc26-4196-92fd-0b965b6c8dbc&projectId=bea99957-1862-4ad8-9558-57b91e42ce64","","null","<div style=""display: flex; justify-content: center; align-items: center;"">
                    <img src=""images/causal/causal_series_15/causal_series_15_b.jpg"" style=""width: 300px; height: 300px;"" />
                  </div>","null","",""
"","","","","","html-keyboard-response","43","372747","0.0-31.0-2.0","2BA7A916DF2543C38FBD337BB3F6469E","2BA7A916DF2543C38FBD337BB3F6469E","938bfd4b-dc26-4196-92fd-0b965b6c8dbc","bea99957-1862-4ad8-9558-57b91e42ce64","{""participantId"":""2BA7A916DF2543C38FBD337BB3F6469E"",""assignmentId"":""938bfd4b-dc26-4196-92fd-0b965b6c8dbc"",""projectId"":""bea99957-1862-4ad8-9558-57b91e42ce64""}","https://test12345.live/?participantId=2BA7A916DF2543C38FBD337BB3F6469E&assignmentId=938bfd4b-dc26-4196-92fd-0b965b6c8dbc&projectId=bea99957-1862-4ad8-9558-57b91e42ce64","","null","<div style=""display: flex; justify-content: center; align-items: center;"">
                    <img src=""images/causal/causal_series_15/causal_series_15_c.jpg"" style=""width: 300px; height: 300px;"" />
                  </div>","null","",""
"","","","","","html-keyboard-response","44","375755","0.0-31.0-3.0","2BA7A916DF2543C38FBD337BB3F6469E","2BA7A916DF2543C38FBD337BB3F6469E","938bfd4b-dc26-4196-92fd-0b965b6c8dbc","bea99957-1862-4ad8-9558-57b91e42ce64","{""participantId"":""2BA7A916DF2543C38FBD337BB3F6469E"",""assignmentId"":""938bfd4b-dc26-4196-92fd-0b965b6c8dbc"",""projectId"":""bea99957-1862-4ad8-9558-57b91e42ce64""}","https://test12345.live/?participantId=2BA7A916DF2543C38FBD337BB3F6469E&assignmentId=938bfd4b-dc26-4196-92fd-0b965b6c8dbc&projectId=bea99957-1862-4ad8-9558-57b91e42ce64","","null","<div style=""display: flex; justify-content: center; align-items: center;"">
                    <img src=""images/causal/causal_series_15/causal_series_15_d.jpg"" style=""width: 300px; height: 300px;"" />
                  </div>","null","",""
"","","","","","html-button-response","45","377766","0.0-33.0","2BA7A916DF2543C38FBD337BB3F6469E","2BA7A916DF2543C38FBD337BB3F6469E","938bfd4b-dc26-4196-92fd-0b965b6c8dbc","bea99957-1862-4ad8-9558-57b91e42ce64","{""participantId"":""2BA7A916DF2543C38FBD337BB3F6469E"",""assignmentId"":""938bfd4b-dc26-4196-92fd-0b965b6c8dbc"",""projectId"":""bea99957-1862-4ad8-9558-57b91e42ce64""}","https://test12345.live/?participantId=2BA7A916DF2543C38FBD337BB3F6469E&assignmentId=938bfd4b-dc26-4196-92fd-0b965b6c8dbc&projectId=bea99957-1862-4ad8-9558-57b91e42ce64","","2009","Was there a person in the picture?","0","",""
"","","","","","survey-likert","46","379325","0.0-34.0","2BA7A916DF2543C38FBD337BB3F6469E","2BA7A916DF2543C38FBD337BB3F6469E","938bfd4b-dc26-4196-92fd-0b965b6c8dbc","bea99957-1862-4ad8-9558-57b91e42ce64","{""participantId"":""2BA7A916DF2543C38FBD337BB3F6469E"",""assignmentId"":""938bfd4b-dc26-4196-92fd-0b965b6c8dbc"",""projectId"":""bea99957-1862-4ad8-9558-57b91e42ce64""}","https://test12345.live/?participantId=2BA7A916DF2543C38FBD337BB3F6469E&assignmentId=938bfd4b-dc26-4196-92fd-0b965b6c8dbc&projectId=bea99957-1862-4ad8-9558-57b91e42ce64","","1558","","{""Q0"":4}","","[0]"
"","","","","","html-button-response","47","381977","0.0-35.0","2BA7A916DF2543C38FBD337BB3F6469E","2BA7A916DF2543C38FBD337BB3F6469E","938bfd4b-dc26-4196-92fd-0b965b6c8dbc","bea99957-1862-4ad8-9558-57b91e42ce64","{""participantId"":""2BA7A916DF2543C38FBD337BB3F6469E"",""assignmentId"":""938bfd4b-dc26-4196-92fd-0b965b6c8dbc"",""projectId"":""bea99957-1862-4ad8-9558-57b91e42ce64""}","https://test12345.live/?participantId=2BA7A916DF2543C38FBD337BB3F6469E&assignmentId=938bfd4b-dc26-4196-92fd-0b965b6c8dbc&projectId=bea99957-1862-4ad8-9558-57b91e42ce64","","2650","
    <div style=""display: flex; justify-content: center; align-items: center;"">
      <img src=""images/red_deck_2.png"" style=""width: 300px; height: 300px; margin-right: 10px;"" />
      <img src=""images/blue_deck_1.png"" style=""width: 300px; height: 300px;"" />
    </div>","0","0",""
"","","","","","html-keyboard-response","48","384991","0.0-37.0-0.0","2BA7A916DF2543C38FBD337BB3F6469E","2BA7A916DF2543C38FBD337BB3F6469E","938bfd4b-dc26-4196-92fd-0b965b6c8dbc","bea99957-1862-4ad8-9558-57b91e42ce64","{""participantId"":""2BA7A916DF2543C38FBD337BB3F6469E"",""assignmentId"":""938bfd4b-dc26-4196-92fd-0b965b6c8dbc"",""projectId"":""bea99957-1862-4ad8-9558-57b91e42ce64""}","https://test12345.live/?participantId=2BA7A916DF2543C38FBD337BB3F6469E&assignmentId=938bfd4b-dc26-4196-92fd-0b965b6c8dbc&projectId=bea99957-1862-4ad8-9558-57b91e42ce64","","null","<div style=""display: flex; justify-content: center; align-items: center;"">
                    <img src=""images/semantic/semantic_series_14/semantic_series_14_a.jpg"" style=""width: 300px; height: 300px;"" />
                  </div>","null","",""
"","","","","","html-keyboard-response","49","387996","0.0-37.0-1.0","2BA7A916DF2543C38FBD337BB3F6469E","2BA7A916DF2543C38FBD337BB3F6469E","938bfd4b-dc26-4196-92fd-0b965b6c8dbc","bea99957-1862-4ad8-9558-57b91e42ce64","{""participantId"":""2BA7A916DF2543C38FBD337BB3F6469E"",""assignmentId"":""938bfd4b-dc26-4196-92fd-0b965b6c8dbc"",""projectId"":""bea99957-1862-4ad8-9558-57b91e42ce64""}","https://test12345.live/?participantId=2BA7A916DF2543C38FBD337BB3F6469E&assignmentId=938bfd4b-dc26-4196-92fd-0b965b6c8dbc&projectId=bea99957-1862-4ad8-9558-57b91e42ce64","","null","<div style=""display: flex; justify-content: center; align-items: center;"">
                    <img src=""images/semantic/semantic_series_14/semantic_series_14_b.jpg"" style=""width: 300px; height: 300px;"" />
                  </div>","null","",""
"","","","","","html-keyboard-response","50","391002","0.0-37.0-2.0","2BA7A916DF2543C38FBD337BB3F6469E","2BA7A916DF2543C38FBD337BB3F6469E","938bfd4b-dc26-4196-92fd-0b965b6c8dbc","bea99957-1862-4ad8-9558-57b91e42ce64","{""participantId"":""2BA7A916DF2543C38FBD337BB3F6469E"",""assignmentId"":""938bfd4b-dc26-4196-92fd-0b965b6c8dbc"",""projectId"":""bea99957-1862-4ad8-9558-57b91e42ce64""}","https://test12345.live/?participantId=2BA7A916DF2543C38FBD337BB3F6469E&assignmentId=938bfd4b-dc26-4196-92fd-0b965b6c8dbc&projectId=bea99957-1862-4ad8-9558-57b91e42ce64","","null","<div style=""display: flex; justify-content: center; align-items: center;"">
                    <img src=""images/semantic/semantic_series_14/semantic_series_14_c.jpg"" style=""width: 300px; height: 300px;"" />
                  </div>","null","",""
"","","","","","html-keyboard-response","51","394006","0.0-37.0-3.0","2BA7A916DF2543C38FBD337BB3F6469E","2BA7A916DF2543C38FBD337BB3F6469E","938bfd4b-dc26-4196-92fd-0b965b6c8dbc","bea99957-1862-4ad8-9558-57b91e42ce64","{""participantId"":""2BA7A916DF2543C38FBD337BB3F6469E"",""assignmentId"":""938bfd4b-dc26-4196-92fd-0b965b6c8dbc"",""projectId"":""bea99957-1862-4ad8-9558-57b91e42ce64""}","https://test12345.live/?participantId=2BA7A916DF2543C38FBD337BB3F6469E&assignmentId=938bfd4b-dc26-4196-92fd-0b965b6c8dbc&projectId=bea99957-1862-4ad8-9558-57b91e42ce64","","null","<div style=""display: flex; justify-content: center; align-items: center;"">
                    <img src=""images/semantic/semantic_series_14/semantic_series_14_d.jpg"" style=""width: 300px; height: 300px;"" />
                  </div>","null","",""
"","","","","","html-button-response","52","395380","0.0-38.0","2BA7A916DF2543C38FBD337BB3F6469E","2BA7A916DF2543C38FBD337BB3F6469E","938bfd4b-dc26-4196-92fd-0b965b6c8dbc","bea99957-1862-4ad8-9558-57b91e42ce64","{""participantId"":""2BA7A916DF2543C38FBD337BB3F6469E"",""assignmentId"":""938bfd4b-dc26-4196-92fd-0b965b6c8dbc"",""projectId"":""bea99957-1862-4ad8-9558-57b91e42ce64""}","https://test12345.live/?participantId=2BA7A916DF2543C38FBD337BB3F6469E&assignmentId=938bfd4b-dc26-4196-92fd-0b965b6c8dbc&projectId=bea99957-1862-4ad8-9558-57b91e42ce64","","1372","Was there a person in the picture?","0","",""
"","","","","","survey-likert","53","397834","0.0-39.0","2BA7A916DF2543C38FBD337BB3F6469E","2BA7A916DF2543C38FBD337BB3F6469E","938bfd4b-dc26-4196-92fd-0b965b6c8dbc","bea99957-1862-4ad8-9558-57b91e42ce64","{""participantId"":""2BA7A916DF2543C38FBD337BB3F6469E"",""assignmentId"":""938bfd4b-dc26-4196-92fd-0b965b6c8dbc"",""projectId"":""bea99957-1862-4ad8-9558-57b91e42ce64""}","https://test12345.live/?participantId=2BA7A916DF2543C38FBD337BB3F6469E&assignmentId=938bfd4b-dc26-4196-92fd-0b965b6c8dbc&projectId=bea99957-1862-4ad8-9558-57b91e42ce64","","2452","","{""Q0"":2}","","[0]"
"","","","","","html-button-response","54","399776","0.0-40.0","2BA7A916DF2543C38FBD337BB3F6469E","2BA7A916DF2543C38FBD337BB3F6469E","938bfd4b-dc26-4196-92fd-0b965b6c8dbc","bea99957-1862-4ad8-9558-57b91e42ce64","{""participantId"":""2BA7A916DF2543C38FBD337BB3F6469E"",""assignmentId"":""938bfd4b-dc26-4196-92fd-0b965b6c8dbc"",""projectId"":""bea99957-1862-4ad8-9558-57b91e42ce64""}","https://test12345.live/?participantId=2BA7A916DF2543C38FBD337BB3F6469E&assignmentId=938bfd4b-dc26-4196-92fd-0b965b6c8dbc&projectId=bea99957-1862-4ad8-9558-57b91e42ce64","","1941","
    <div style=""display: flex; justify-content: center; align-items: center;"">
      <img src=""images/red_deck_2.png"" style=""width: 300px; height: 300px; margin-right: 10px;"" />
      <img src=""images/blue_deck_1.png"" style=""width: 300px; height: 300px;"" />
    </div>","1","1",""
"","","","","","html-keyboard-response","55","402793","0.0-41.0-0.0","2BA7A916DF2543C38FBD337BB3F6469E","2BA7A916DF2543C38FBD337BB3F6469E","938bfd4b-dc26-4196-92fd-0b965b6c8dbc","bea99957-1862-4ad8-9558-57b91e42ce64","{""participantId"":""2BA7A916DF2543C38FBD337BB3F6469E"",""assignmentId"":""938bfd4b-dc26-4196-92fd-0b965b6c8dbc"",""projectId"":""bea99957-1862-4ad8-9558-57b91e42ce64""}","https://test12345.live/?participantId=2BA7A916DF2543C38FBD337BB3F6469E&assignmentId=938bfd4b-dc26-4196-92fd-0b965b6c8dbc&projectId=bea99957-1862-4ad8-9558-57b91e42ce64","","null","<div style=""display: flex; justify-content: center; align-items: center;"">
                    <img src=""images/causal/causal_series_6/causal_series_6_a.jpg"" style=""width: 300px; height: 300px;"" />
                  </div>","null","",""
"","","","","","html-keyboard-response","56","405796","0.0-41.0-1.0","2BA7A916DF2543C38FBD337BB3F6469E","2BA7A916DF2543C38FBD337BB3F6469E","938bfd4b-dc26-4196-92fd-0b965b6c8dbc","bea99957-1862-4ad8-9558-57b91e42ce64","{""participantId"":""2BA7A916DF2543C38FBD337BB3F6469E"",""assignmentId"":""938bfd4b-dc26-4196-92fd-0b965b6c8dbc"",""projectId"":""bea99957-1862-4ad8-9558-57b91e42ce64""}","https://test12345.live/?participantId=2BA7A916DF2543C38FBD337BB3F6469E&assignmentId=938bfd4b-dc26-4196-92fd-0b965b6c8dbc&projectId=bea99957-1862-4ad8-9558-57b91e42ce64","","null","<div style=""display: flex; justify-content: center; align-items: center;"">
                    <img src=""images/causal/causal_series_6/causal_series_6_b.jpg"" style=""width: 300px; height: 300px;"" />
                  </div>","null","",""
"","","","","","html-keyboard-response","57","408805","0.0-41.0-2.0","2BA7A916DF2543C38FBD337BB3F6469E","2BA7A916DF2543C38FBD337BB3F6469E","938bfd4b-dc26-4196-92fd-0b965b6c8dbc","bea99957-1862-4ad8-9558-57b91e42ce64","{""participantId"":""2BA7A916DF2543C38FBD337BB3F6469E"",""assignmentId"":""938bfd4b-dc26-4196-92fd-0b965b6c8dbc"",""projectId"":""bea99957-1862-4ad8-9558-57b91e42ce64""}","https://test12345.live/?participantId=2BA7A916DF2543C38FBD337BB3F6469E&assignmentId=938bfd4b-dc26-4196-92fd-0b965b6c8dbc&projectId=bea99957-1862-4ad8-9558-57b91e42ce64","","null","<div style=""display: flex; justify-content: center; align-items: center;"">
                    <img src=""images/causal/causal_series_6/causal_series_6_c.jpg"" style=""width: 300px; height: 300px;"" />
                  </div>","null","",""
"","","","","","html-keyboard-response","58","411810","0.0-41.0-3.0","2BA7A916DF2543C38FBD337BB3F6469E","2BA7A916DF2543C38FBD337BB3F6469E","938bfd4b-dc26-4196-92fd-0b965b6c8dbc","bea99957-1862-4ad8-9558-57b91e42ce64","{""participantId"":""2BA7A916DF2543C38FBD337BB3F6469E"",""assignmentId"":""938bfd4b-dc26-4196-92fd-0b965b6c8dbc"",""projectId"":""bea99957-1862-4ad8-9558-57b91e42ce64""}","https://test12345.live/?participantId=2BA7A916DF2543C38FBD337BB3F6469E&assignmentId=938bfd4b-dc26-4196-92fd-0b965b6c8dbc&projectId=bea99957-1862-4ad8-9558-57b91e42ce64","","null","<div style=""display: flex; justify-content: center; align-items: center;"">
                    <img src=""images/causal/causal_series_6/causal_series_6_d.jpg"" style=""width: 300px; height: 300px;"" />
                  </div>","null","",""
"","","","","","html-button-response","59","413164","0.0-43.0","2BA7A916DF2543C38FBD337BB3F6469E","2BA7A916DF2543C38FBD337BB3F6469E","938bfd4b-dc26-4196-92fd-0b965b6c8dbc","bea99957-1862-4ad8-9558-57b91e42ce64","{""participantId"":""2BA7A916DF2543C38FBD337BB3F6469E"",""assignmentId"":""938bfd4b-dc26-4196-92fd-0b965b6c8dbc"",""projectId"":""bea99957-1862-4ad8-9558-57b91e42ce64""}","https://test12345.live/?participantId=2BA7A916DF2543C38FBD337BB3F6469E&assignmentId=938bfd4b-dc26-4196-92fd-0b965b6c8dbc&projectId=bea99957-1862-4ad8-9558-57b91e42ce64","","1353","Was there a person in the picture?","1","",""
"","","","","","survey-likert","60","414631","0.0-44.0","2BA7A916DF2543C38FBD337BB3F6469E","2BA7A916DF2543C38FBD337BB3F6469E","938bfd4b-dc26-4196-92fd-0b965b6c8dbc","bea99957-1862-4ad8-9558-57b91e42ce64","{""participantId"":""2BA7A916DF2543C38FBD337BB3F6469E"",""assignmentId"":""938bfd4b-dc26-4196-92fd-0b965b6c8dbc"",""projectId"":""bea99957-1862-4ad8-9558-57b91e42ce64""}","https://test12345.live/?participantId=2BA7A916DF2543C38FBD337BB3F6469E&assignmentId=938bfd4b-dc26-4196-92fd-0b965b6c8dbc&projectId=bea99957-1862-4ad8-9558-57b91e42ce64","","1467","","{""Q0"":2}","","[0]"
"","","","","","html-button-response","61","416404","0.0-45.0","2BA7A916DF2543C38FBD337BB3F6469E","2BA7A916DF2543C38FBD337BB3F6469E","938bfd4b-dc26-4196-92fd-0b965b6c8dbc","bea99957-1862-4ad8-9558-57b91e42ce64","{""participantId"":""2BA7A916DF2543C38FBD337BB3F6469E"",""assignmentId"":""938bfd4b-dc26-4196-92fd-0b965b6c8dbc"",""projectId"":""bea99957-1862-4ad8-9558-57b91e42ce64""}","https://test12345.live/?participantId=2BA7A916DF2543C38FBD337BB3F6469E&assignmentId=938bfd4b-dc26-4196-92fd-0b965b6c8dbc&projectId=bea99957-1862-4ad8-9558-57b91e42ce64","","1771","
    <div style=""display: flex; justify-content: center; align-items: center;"">
      <img src=""images/red_deck_2.png"" style=""width: 300px; height: 300px; margin-right: 10px;"" />
      <img src=""images/blue_deck_1.png"" style=""width: 300px; height: 300px;"" />
    </div>","1","1",""
"","","","","","html-keyboard-response","62","419416","0.0-46.0-0.0","2BA7A916DF2543C38FBD337BB3F6469E","2BA7A916DF2543C38FBD337BB3F6469E","938bfd4b-dc26-4196-92fd-0b965b6c8dbc","bea99957-1862-4ad8-9558-57b91e42ce64","{""participantId"":""2BA7A916DF2543C38FBD337BB3F6469E"",""assignmentId"":""938bfd4b-dc26-4196-92fd-0b965b6c8dbc"",""projectId"":""bea99957-1862-4ad8-9558-57b91e42ce64""}","https://test12345.live/?participantId=2BA7A916DF2543C38FBD337BB3F6469E&assignmentId=938bfd4b-dc26-4196-92fd-0b965b6c8dbc&projectId=bea99957-1862-4ad8-9558-57b91e42ce64","","null","<div style=""display: flex; justify-content: center; align-items: center;"">
                    <img src=""images/causal/causal_series_14/causal_series_14_a.jpg"" style=""width: 300px; height: 300px;"" />
                  </div>","null","",""
"","","","","","html-keyboard-response","63","422432","0.0-46.0-1.0","2BA7A916DF2543C38FBD337BB3F6469E","2BA7A916DF2543C38FBD337BB3F6469E","938bfd4b-dc26-4196-92fd-0b965b6c8dbc","bea99957-1862-4ad8-9558-57b91e42ce64","{""participantId"":""2BA7A916DF2543C38FBD337BB3F6469E"",""assignmentId"":""938bfd4b-dc26-4196-92fd-0b965b6c8dbc"",""projectId"":""bea99957-1862-4ad8-9558-57b91e42ce64""}","https://test12345.live/?participantId=2BA7A916DF2543C38FBD337BB3F6469E&assignmentId=938bfd4b-dc26-4196-92fd-0b965b6c8dbc&projectId=bea99957-1862-4ad8-9558-57b91e42ce64","","null","<div style=""display: flex; justify-content: center; align-items: center;"">
                    <img src=""images/causal/causal_series_14/causal_series_14_b.jpg"" style=""width: 300px; height: 300px;"" />
                  </div>","null","",""
"","","","","","html-keyboard-response","64","425441","0.0-46.0-2.0","2BA7A916DF2543C38FBD337BB3F6469E","2BA7A916DF2543C38FBD337BB3F6469E","938bfd4b-dc26-4196-92fd-0b965b6c8dbc","bea99957-1862-4ad8-9558-57b91e42ce64","{""participantId"":""2BA7A916DF2543C38FBD337BB3F6469E"",""assignmentId"":""938bfd4b-dc26-4196-92fd-0b965b6c8dbc"",""projectId"":""bea99957-1862-4ad8-9558-57b91e42ce64""}","https://test12345.live/?participantId=2BA7A916DF2543C38FBD337BB3F6469E&assignmentId=938bfd4b-dc26-4196-92fd-0b965b6c8dbc&projectId=bea99957-1862-4ad8-9558-57b91e42ce64","","null","<div style=""display: flex; justify-content: center; align-items: center;"">
                    <img src=""images/causal/causal_series_14/causal_series_14_c.jpg"" style=""width: 300px; height: 300px;"" />
                  </div>","null","",""
"","","","","","html-keyboard-response","65","428450","0.0-46.0-3.0","2BA7A916DF2543C38FBD337BB3F6469E","2BA7A916DF2543C38FBD337BB3F6469E","938bfd4b-dc26-4196-92fd-0b965b6c8dbc","bea99957-1862-4ad8-9558-57b91e42ce64","{""participantId"":""2BA7A916DF2543C38FBD337BB3F6469E"",""assignmentId"":""938bfd4b-dc26-4196-92fd-0b965b6c8dbc"",""projectId"":""bea99957-1862-4ad8-9558-57b91e42ce64""}","https://test12345.live/?participantId=2BA7A916DF2543C38FBD337BB3F6469E&assignmentId=938bfd4b-dc26-4196-92fd-0b965b6c8dbc&projectId=bea99957-1862-4ad8-9558-57b91e42ce64","","null","<div style=""display: flex; justify-content: center; align-items: center;"">
                    <img src=""images/causal/causal_series_14/causal_series_14_d.jpg"" style=""width: 300px; height: 300px;"" />
                  </div>","null","",""
"","","","","","html-button-response","66","430090","0.0-48.0","2BA7A916DF2543C38FBD337BB3F6469E","2BA7A916DF2543C38FBD337BB3F6469E","938bfd4b-dc26-4196-92fd-0b965b6c8dbc","bea99957-1862-4ad8-9558-57b91e42ce64","{""participantId"":""2BA7A916DF2543C38FBD337BB3F6469E"",""assignmentId"":""938bfd4b-dc26-4196-92fd-0b965b6c8dbc"",""projectId"":""bea99957-1862-4ad8-9558-57b91e42ce64""}","https://test12345.live/?participantId=2BA7A916DF2543C38FBD337BB3F6469E&assignmentId=938bfd4b-dc26-4196-92fd-0b965b6c8dbc&projectId=bea99957-1862-4ad8-9558-57b91e42ce64","","1638","Was there a person in the picture?","0","",""
"","","","","","survey-likert","67","432593","0.0-49.0","2BA7A916DF2543C38FBD337BB3F6469E","2BA7A916DF2543C38FBD337BB3F6469E","938bfd4b-dc26-4196-92fd-0b965b6c8dbc","bea99957-1862-4ad8-9558-57b91e42ce64","{""participantId"":""2BA7A916DF2543C38FBD337BB3F6469E"",""assignmentId"":""938bfd4b-dc26-4196-92fd-0b965b6c8dbc"",""projectId"":""bea99957-1862-4ad8-9558-57b91e42ce64""}","https://test12345.live/?participantId=2BA7A916DF2543C38FBD337BB3F6469E&assignmentId=938bfd4b-dc26-4196-92fd-0b965b6c8dbc&projectId=bea99957-1862-4ad8-9558-57b91e42ce64","","2502","","{""Q0"":3}","","[0]"
"","","","","","html-button-response","68","436386","0.0-50.0","2BA7A916DF2543C38FBD337BB3F6469E","2BA7A916DF2543C38FBD337BB3F6469E","938bfd4b-dc26-4196-92fd-0b965b6c8dbc","bea99957-1862-4ad8-9558-57b91e42ce64","{""participantId"":""2BA7A916DF2543C38FBD337BB3F6469E"",""assignmentId"":""938bfd4b-dc26-4196-92fd-0b965b6c8dbc"",""projectId"":""bea99957-1862-4ad8-9558-57b91e42ce64""}","https://test12345.live/?participantId=2BA7A916DF2543C38FBD337BB3F6469E&assignmentId=938bfd4b-dc26-4196-92fd-0b965b6c8dbc&projectId=bea99957-1862-4ad8-9558-57b91e42ce64","","3791","
    <div style=""display: flex; justify-content: center; align-items: center;"">
      <img src=""images/red_deck_2.png"" style=""width: 300px; height: 300px; margin-right: 10px;"" />
      <img src=""images/blue_deck_1.png"" style=""width: 300px; height: 300px;"" />
    </div>","0","0",""
"","","","","","html-keyboard-response","69","439403","0.0-52.0-0.0","2BA7A916DF2543C38FBD337BB3F6469E","2BA7A916DF2543C38FBD337BB3F6469E","938bfd4b-dc26-4196-92fd-0b965b6c8dbc","bea99957-1862-4ad8-9558-57b91e42ce64","{""participantId"":""2BA7A916DF2543C38FBD337BB3F6469E"",""assignmentId"":""938bfd4b-dc26-4196-92fd-0b965b6c8dbc"",""projectId"":""bea99957-1862-4ad8-9558-57b91e42ce64""}","https://test12345.live/?participantId=2BA7A916DF2543C38FBD337BB3F6469E&assignmentId=938bfd4b-dc26-4196-92fd-0b965b6c8dbc&projectId=bea99957-1862-4ad8-9558-57b91e42ce64","","null","<div style=""display: flex; justify-content: center; align-items: center;"">
                    <img src=""images/semantic/semantic_series_6/semantic_series_6_a.jpg"" style=""width: 300px; height: 300px;"" />
                  </div>","null","",""
"","","","","","html-keyboard-response","70","442419","0.0-52.0-1.0","2BA7A916DF2543C38FBD337BB3F6469E","2BA7A916DF2543C38FBD337BB3F6469E","938bfd4b-dc26-4196-92fd-0b965b6c8dbc","bea99957-1862-4ad8-9558-57b91e42ce64","{""participantId"":""2BA7A916DF2543C38FBD337BB3F6469E"",""assignmentId"":""938bfd4b-dc26-4196-92fd-0b965b6c8dbc"",""projectId"":""bea99957-1862-4ad8-9558-57b91e42ce64""}","https://test12345.live/?participantId=2BA7A916DF2543C38FBD337BB3F6469E&assignmentId=938bfd4b-dc26-4196-92fd-0b965b6c8dbc&projectId=bea99957-1862-4ad8-9558-57b91e42ce64","","null","<div style=""display: flex; justify-content: center; align-items: center;"">
                    <img src=""images/semantic/semantic_series_6/semantic_series_6_b.jpg"" style=""width: 300px; height: 300px;"" />
                  </div>","null","",""
"","","","","","html-keyboard-response","71","445435","0.0-52.0-2.0","2BA7A916DF2543C38FBD337BB3F6469E","2BA7A916DF2543C38FBD337BB3F6469E","938bfd4b-dc26-4196-92fd-0b965b6c8dbc","bea99957-1862-4ad8-9558-57b91e42ce64","{""participantId"":""2BA7A916DF2543C38FBD337BB3F6469E"",""assignmentId"":""938bfd4b-dc26-4196-92fd-0b965b6c8dbc"",""projectId"":""bea99957-1862-4ad8-9558-57b91e42ce64""}","https://test12345.live/?participantId=2BA7A916DF2543C38FBD337BB3F6469E&assignmentId=938bfd4b-dc26-4196-92fd-0b965b6c8dbc&projectId=bea99957-1862-4ad8-9558-57b91e42ce64","","null","<div style=""display: flex; justify-content: center; align-items: center;"">
                    <img src=""images/semantic/semantic_series_6/semantic_series_6_c.jpg"" style=""width: 300px; height: 300px;"" />
                  </div>","null","",""
"","","","","","html-keyboard-response","72","448439","0.0-52.0-3.0","2BA7A916DF2543C38FBD337BB3F6469E","2BA7A916DF2543C38FBD337BB3F6469E","938bfd4b-dc26-4196-92fd-0b965b6c8dbc","bea99957-1862-4ad8-9558-57b91e42ce64","{""participantId"":""2BA7A916DF2543C38FBD337BB3F6469E"",""assignmentId"":""938bfd4b-dc26-4196-92fd-0b965b6c8dbc"",""projectId"":""bea99957-1862-4ad8-9558-57b91e42ce64""}","https://test12345.live/?participantId=2BA7A916DF2543C38FBD337BB3F6469E&assignmentId=938bfd4b-dc26-4196-92fd-0b965b6c8dbc&projectId=bea99957-1862-4ad8-9558-57b91e42ce64","","null","<div style=""display: flex; justify-content: center; align-items: center;"">
                    <img src=""images/semantic/semantic_series_6/semantic_series_6_d.jpg"" style=""width: 300px; height: 300px;"" />
                  </div>","null","",""
"","","","","","html-button-response","73","450172","0.0-53.0","2BA7A916DF2543C38FBD337BB3F6469E","2BA7A916DF2543C38FBD337BB3F6469E","938bfd4b-dc26-4196-92fd-0b965b6c8dbc","bea99957-1862-4ad8-9558-57b91e42ce64","{""participantId"":""2BA7A916DF2543C38FBD337BB3F6469E"",""assignmentId"":""938bfd4b-dc26-4196-92fd-0b965b6c8dbc"",""projectId"":""bea99957-1862-4ad8-9558-57b91e42ce64""}","https://test12345.live/?participantId=2BA7A916DF2543C38FBD337BB3F6469E&assignmentId=938bfd4b-dc26-4196-92fd-0b965b6c8dbc&projectId=bea99957-1862-4ad8-9558-57b91e42ce64","","1732","Was there a person in the picture?","1","",""
"","","","","","survey-likert","74","453179","0.0-54.0","2BA7A916DF2543C38FBD337BB3F6469E","2BA7A916DF2543C38FBD337BB3F6469E","938bfd4b-dc26-4196-92fd-0b965b6c8dbc","bea99957-1862-4ad8-9558-57b91e42ce64","{""participantId"":""2BA7A916DF2543C38FBD337BB3F6469E"",""assignmentId"":""938bfd4b-dc26-4196-92fd-0b965b6c8dbc"",""projectId"":""bea99957-1862-4ad8-9558-57b91e42ce64""}","https://test12345.live/?participantId=2BA7A916DF2543C38FBD337BB3F6469E&assignmentId=938bfd4b-dc26-4196-92fd-0b965b6c8dbc&projectId=bea99957-1862-4ad8-9558-57b91e42ce64","","3005","","{""Q0"":1}","","[0]"
"","","","","","html-button-response","75","454972","0.0-55.0","2BA7A916DF2543C38FBD337BB3F6469E","2BA7A916DF2543C38FBD337BB3F6469E","938bfd4b-dc26-4196-92fd-0b965b6c8dbc","bea99957-1862-4ad8-9558-57b91e42ce64","{""participantId"":""2BA7A916DF2543C38FBD337BB3F6469E"",""assignmentId"":""938bfd4b-dc26-4196-92fd-0b965b6c8dbc"",""projectId"":""bea99957-1862-4ad8-9558-57b91e42ce64""}","https://test12345.live/?participantId=2BA7A916DF2543C38FBD337BB3F6469E&assignmentId=938bfd4b-dc26-4196-92fd-0b965b6c8dbc&projectId=bea99957-1862-4ad8-9558-57b91e42ce64","","1791","
    <div style=""display: flex; justify-content: center; align-items: center;"">
      <img src=""images/red_deck_2.png"" style=""width: 300px; height: 300px; margin-right: 10px;"" />
      <img src=""images/blue_deck_1.png"" style=""width: 300px; height: 300px;"" />
    </div>","0","0",""
"","","","","","html-keyboard-response","76","457977","0.0-57.0-0.0","2BA7A916DF2543C38FBD337BB3F6469E","2BA7A916DF2543C38FBD337BB3F6469E","938bfd4b-dc26-4196-92fd-0b965b6c8dbc","bea99957-1862-4ad8-9558-57b91e42ce64","{""participantId"":""2BA7A916DF2543C38FBD337BB3F6469E"",""assignmentId"":""938bfd4b-dc26-4196-92fd-0b965b6c8dbc"",""projectId"":""bea99957-1862-4ad8-9558-57b91e42ce64""}","https://test12345.live/?participantId=2BA7A916DF2543C38FBD337BB3F6469E&assignmentId=938bfd4b-dc26-4196-92fd-0b965b6c8dbc&projectId=bea99957-1862-4ad8-9558-57b91e42ce64","","null","<div style=""display: flex; justify-content: center; align-items: center;"">
                    <img src=""images/semantic/semantic_series_16/semantic_series_16_a.jpg"" style=""width: 300px; height: 300px;"" />
                  </div>","null","",""
"","","","","","html-keyboard-response","77","460982","0.0-57.0-1.0","2BA7A916DF2543C38FBD337BB3F6469E","2BA7A916DF2543C38FBD337BB3F6469E","938bfd4b-dc26-4196-92fd-0b965b6c8dbc","bea99957-1862-4ad8-9558-57b91e42ce64","{""participantId"":""2BA7A916DF2543C38FBD337BB3F6469E"",""assignmentId"":""938bfd4b-dc26-4196-92fd-0b965b6c8dbc"",""projectId"":""bea99957-1862-4ad8-9558-57b91e42ce64""}","https://test12345.live/?participantId=2BA7A916DF2543C38FBD337BB3F6469E&assignmentId=938bfd4b-dc26-4196-92fd-0b965b6c8dbc&projectId=bea99957-1862-4ad8-9558-57b91e42ce64","","null","<div style=""display: flex; justify-content: center; align-items: center;"">
                    <img src=""images/semantic/semantic_series_16/semantic_series_16_b.jpg"" style=""width: 300px; height: 300px;"" />
                  </div>","null","",""
"","","","","","html-keyboard-response","78","463988","0.0-57.0-2.0","2BA7A916DF2543C38FBD337BB3F6469E","2BA7A916DF2543C38FBD337BB3F6469E","938bfd4b-dc26-4196-92fd-0b965b6c8dbc","bea99957-1862-4ad8-9558-57b91e42ce64","{""participantId"":""2BA7A916DF2543C38FBD337BB3F6469E"",""assignmentId"":""938bfd4b-dc26-4196-92fd-0b965b6c8dbc"",""projectId"":""bea99957-1862-4ad8-9558-57b91e42ce64""}","https://test12345.live/?participantId=2BA7A916DF2543C38FBD337BB3F6469E&assignmentId=938bfd4b-dc26-4196-92fd-0b965b6c8dbc&projectId=bea99957-1862-4ad8-9558-57b91e42ce64","","null","<div style=""display: flex; justify-content: center; align-items: center;"">
                    <img src=""images/semantic/semantic_series_16/semantic_series_16_c.jpg"" style=""width: 300px; height: 300px;"" />
                  </div>","null","",""
"","","","","","html-keyboard-response","79","466999","0.0-57.0-3.0","2BA7A916DF2543C38FBD337BB3F6469E","2BA7A916DF2543C38FBD337BB3F6469E","938bfd4b-dc26-4196-92fd-0b965b6c8dbc","bea99957-1862-4ad8-9558-57b91e42ce64","{""participantId"":""2BA7A916DF2543C38FBD337BB3F6469E"",""assignmentId"":""938bfd4b-dc26-4196-92fd-0b965b6c8dbc"",""projectId"":""bea99957-1862-4ad8-9558-57b91e42ce64""}","https://test12345.live/?participantId=2BA7A916DF2543C38FBD337BB3F6469E&assignmentId=938bfd4b-dc26-4196-92fd-0b965b6c8dbc&projectId=bea99957-1862-4ad8-9558-57b91e42ce64","","null","<div style=""display: flex; justify-content: center; align-items: center;"">
                    <img src=""images/semantic/semantic_series_16/semantic_series_16_d.jpg"" style=""width: 300px; height: 300px;"" />
                  </div>","null","",""
"","","","","","html-button-response","80","468404","0.0-58.0","2BA7A916DF2543C38FBD337BB3F6469E","2BA7A916DF2543C38FBD337BB3F6469E","938bfd4b-dc26-4196-92fd-0b965b6c8dbc","bea99957-1862-4ad8-9558-57b91e42ce64","{""participantId"":""2BA7A916DF2543C38FBD337BB3F6469E"",""assignmentId"":""938bfd4b-dc26-4196-92fd-0b965b6c8dbc"",""projectId"":""bea99957-1862-4ad8-9558-57b91e42ce64""}","https://test12345.live/?participantId=2BA7A916DF2543C38FBD337BB3F6469E&assignmentId=938bfd4b-dc26-4196-92fd-0b965b6c8dbc&projectId=bea99957-1862-4ad8-9558-57b91e42ce64","","1404","Was there a person in the picture?","0","",""
"","","","","","survey-likert","81","470262","0.0-59.0","2BA7A916DF2543C38FBD337BB3F6469E","2BA7A916DF2543C38FBD337BB3F6469E","938bfd4b-dc26-4196-92fd-0b965b6c8dbc","bea99957-1862-4ad8-9558-57b91e42ce64","{""participantId"":""2BA7A916DF2543C38FBD337BB3F6469E"",""assignmentId"":""938bfd4b-dc26-4196-92fd-0b965b6c8dbc"",""projectId"":""bea99957-1862-4ad8-9558-57b91e42ce64""}","https://test12345.live/?participantId=2BA7A916DF2543C38FBD337BB3F6469E&assignmentId=938bfd4b-dc26-4196-92fd-0b965b6c8dbc&projectId=bea99957-1862-4ad8-9558-57b91e42ce64","","1857","","{""Q0"":1}","","[0]"
"","","","","","html-button-response","82","472481","0.0-60.0","2BA7A916DF2543C38FBD337BB3F6469E","2BA7A916DF2543C38FBD337BB3F6469E","938bfd4b-dc26-4196-92fd-0b965b6c8dbc","bea99957-1862-4ad8-9558-57b91e42ce64","{""participantId"":""2BA7A916DF2543C38FBD337BB3F6469E"",""assignmentId"":""938bfd4b-dc26-4196-92fd-0b965b6c8dbc"",""projectId"":""bea99957-1862-4ad8-9558-57b91e42ce64""}","https://test12345.live/?participantId=2BA7A916DF2543C38FBD337BB3F6469E&assignmentId=938bfd4b-dc26-4196-92fd-0b965b6c8dbc&projectId=bea99957-1862-4ad8-9558-57b91e42ce64","","2217","
    <div style=""display: flex; justify-content: center; align-items: center;"">
      <img src=""images/red_deck_2.png"" style=""width: 300px; height: 300px; margin-right: 10px;"" />
      <img src=""images/blue_deck_1.png"" style=""width: 300px; height: 300px;"" />
    </div>","1","1",""
"","","","","","html-keyboard-response","83","475496","0.0-61.0-0.0","2BA7A916DF2543C38FBD337BB3F6469E","2BA7A916DF2543C38FBD337BB3F6469E","938bfd4b-dc26-4196-92fd-0b965b6c8dbc","bea99957-1862-4ad8-9558-57b91e42ce64","{""participantId"":""2BA7A916DF2543C38FBD337BB3F6469E"",""assignmentId"":""938bfd4b-dc26-4196-92fd-0b965b6c8dbc"",""projectId"":""bea99957-1862-4ad8-9558-57b91e42ce64""}","https://test12345.live/?participantId=2BA7A916DF2543C38FBD337BB3F6469E&assignmentId=938bfd4b-dc26-4196-92fd-0b965b6c8dbc&projectId=bea99957-1862-4ad8-9558-57b91e42ce64","","null","<div style=""display: flex; justify-content: center; align-items: center;"">
                    <img src=""images/causal/causal_series_4/causal_series_4_a.jpg"" style=""width: 300px; height: 300px;"" />
                  </div>","null","",""
"","","","","","html-keyboard-response","84","478503","0.0-61.0-1.0","2BA7A916DF2543C38FBD337BB3F6469E","2BA7A916DF2543C38FBD337BB3F6469E","938bfd4b-dc26-4196-92fd-0b965b6c8dbc","bea99957-1862-4ad8-9558-57b91e42ce64","{""participantId"":""2BA7A916DF2543C38FBD337BB3F6469E"",""assignmentId"":""938bfd4b-dc26-4196-92fd-0b965b6c8dbc"",""projectId"":""bea99957-1862-4ad8-9558-57b91e42ce64""}","https://test12345.live/?participantId=2BA7A916DF2543C38FBD337BB3F6469E&assignmentId=938bfd4b-dc26-4196-92fd-0b965b6c8dbc&projectId=bea99957-1862-4ad8-9558-57b91e42ce64","","null","<div style=""display: flex; justify-content: center; align-items: center;"">
                    <img src=""images/causal/causal_series_4/causal_series_4_b.jpg"" style=""width: 300px; height: 300px;"" />
                  </div>","null","",""
"","","","","","html-keyboard-response","85","481512","0.0-61.0-2.0","2BA7A916DF2543C38FBD337BB3F6469E","2BA7A916DF2543C38FBD337BB3F6469E","938bfd4b-dc26-4196-92fd-0b965b6c8dbc","bea99957-1862-4ad8-9558-57b91e42ce64","{""participantId"":""2BA7A916DF2543C38FBD337BB3F6469E"",""assignmentId"":""938bfd4b-dc26-4196-92fd-0b965b6c8dbc"",""projectId"":""bea99957-1862-4ad8-9558-57b91e42ce64""}","https://test12345.live/?participantId=2BA7A916DF2543C38FBD337BB3F6469E&assignmentId=938bfd4b-dc26-4196-92fd-0b965b6c8dbc&projectId=bea99957-1862-4ad8-9558-57b91e42ce64","","null","<div style=""display: flex; justify-content: center; align-items: center;"">
                    <img src=""images/causal/causal_series_4/causal_series_4_c.jpg"" style=""width: 300px; height: 300px;"" />
                  </div>","null","",""
"","","","","","html-keyboard-response","86","484514","0.0-61.0-3.0","2BA7A916DF2543C38FBD337BB3F6469E","2BA7A916DF2543C38FBD337BB3F6469E","938bfd4b-dc26-4196-92fd-0b965b6c8dbc","bea99957-1862-4ad8-9558-57b91e42ce64","{""participantId"":""2BA7A916DF2543C38FBD337BB3F6469E"",""assignmentId"":""938bfd4b-dc26-4196-92fd-0b965b6c8dbc"",""projectId"":""bea99957-1862-4ad8-9558-57b91e42ce64""}","https://test12345.live/?participantId=2BA7A916DF2543C38FBD337BB3F6469E&assignmentId=938bfd4b-dc26-4196-92fd-0b965b6c8dbc&projectId=bea99957-1862-4ad8-9558-57b91e42ce64","","null","<div style=""display: flex; justify-content: center; align-items: center;"">
                    <img src=""images/causal/causal_series_4/causal_series_4_d.jpg"" style=""width: 300px; height: 300px;"" />
                  </div>","null","",""
"","","","","","html-button-response","87","486219","0.0-63.0","2BA7A916DF2543C38FBD337BB3F6469E","2BA7A916DF2543C38FBD337BB3F6469E","938bfd4b-dc26-4196-92fd-0b965b6c8dbc","bea99957-1862-4ad8-9558-57b91e42ce64","{""participantId"":""2BA7A916DF2543C38FBD337BB3F6469E"",""assignmentId"":""938bfd4b-dc26-4196-92fd-0b965b6c8dbc"",""projectId"":""bea99957-1862-4ad8-9558-57b91e42ce64""}","https://test12345.live/?participantId=2BA7A916DF2543C38FBD337BB3F6469E&assignmentId=938bfd4b-dc26-4196-92fd-0b965b6c8dbc&projectId=bea99957-1862-4ad8-9558-57b91e42ce64","","1704","Was there a person in the picture?","1","",""
"","","","","","survey-likert","88","488645","0.0-64.0","2BA7A916DF2543C38FBD337BB3F6469E","2BA7A916DF2543C38FBD337BB3F6469E","938bfd4b-dc26-4196-92fd-0b965b6c8dbc","bea99957-1862-4ad8-9558-57b91e42ce64","{""participantId"":""2BA7A916DF2543C38FBD337BB3F6469E"",""assignmentId"":""938bfd4b-dc26-4196-92fd-0b965b6c8dbc"",""projectId"":""bea99957-1862-4ad8-9558-57b91e42ce64""}","https://test12345.live/?participantId=2BA7A916DF2543C38FBD337BB3F6469E&assignmentId=938bfd4b-dc26-4196-92fd-0b965b6c8dbc&projectId=bea99957-1862-4ad8-9558-57b91e42ce64","","2425","","{""Q0"":2}","","[0]"
"","","","","","html-button-response","89","489857","0.0-65.0","2BA7A916DF2543C38FBD337BB3F6469E","2BA7A916DF2543C38FBD337BB3F6469E","938bfd4b-dc26-4196-92fd-0b965b6c8dbc","bea99957-1862-4ad8-9558-57b91e42ce64","{""participantId"":""2BA7A916DF2543C38FBD337BB3F6469E"",""assignmentId"":""938bfd4b-dc26-4196-92fd-0b965b6c8dbc"",""projectId"":""bea99957-1862-4ad8-9558-57b91e42ce64""}","https://test12345.live/?participantId=2BA7A916DF2543C38FBD337BB3F6469E&assignmentId=938bfd4b-dc26-4196-92fd-0b965b6c8dbc&projectId=bea99957-1862-4ad8-9558-57b91e42ce64","","1210","
    <div style=""display: flex; justify-content: center; align-items: center;"">
      <img src=""images/red_deck_2.png"" style=""width: 300px; height: 300px; margin-right: 10px;"" />
      <img src=""images/blue_deck_1.png"" style=""width: 300px; height: 300px;"" />
    </div>","0","0",""
"","","","","","html-keyboard-response","90","492867","0.0-67.0-0.0","2BA7A916DF2543C38FBD337BB3F6469E","2BA7A916DF2543C38FBD337BB3F6469E","938bfd4b-dc26-4196-92fd-0b965b6c8dbc","bea99957-1862-4ad8-9558-57b91e42ce64","{""participantId"":""2BA7A916DF2543C38FBD337BB3F6469E"",""assignmentId"":""938bfd4b-dc26-4196-92fd-0b965b6c8dbc"",""projectId"":""bea99957-1862-4ad8-9558-57b91e42ce64""}","https://test12345.live/?participantId=2BA7A916DF2543C38FBD337BB3F6469E&assignmentId=938bfd4b-dc26-4196-92fd-0b965b6c8dbc&projectId=bea99957-1862-4ad8-9558-57b91e42ce64","","null","<div style=""display: flex; justify-content: center; align-items: center;"">
                    <img src=""images/semantic/semantic_series_3/semantic_series_3_a.jpg"" style=""width: 300px; height: 300px;"" />
                  </div>","null","",""
"","","","","","html-keyboard-response","91","495874","0.0-67.0-1.0","2BA7A916DF2543C38FBD337BB3F6469E","2BA7A916DF2543C38FBD337BB3F6469E","938bfd4b-dc26-4196-92fd-0b965b6c8dbc","bea99957-1862-4ad8-9558-57b91e42ce64","{""participantId"":""2BA7A916DF2543C38FBD337BB3F6469E"",""assignmentId"":""938bfd4b-dc26-4196-92fd-0b965b6c8dbc"",""projectId"":""bea99957-1862-4ad8-9558-57b91e42ce64""}","https://test12345.live/?participantId=2BA7A916DF2543C38FBD337BB3F6469E&assignmentId=938bfd4b-dc26-4196-92fd-0b965b6c8dbc&projectId=bea99957-1862-4ad8-9558-57b91e42ce64","","null","<div style=""display: flex; justify-content: center; align-items: center;"">
                    <img src=""images/semantic/semantic_series_3/semantic_series_3_b.jpg"" style=""width: 300px; height: 300px;"" />
                  </div>","null","",""
"","","","","","html-keyboard-response","92","498881","0.0-67.0-2.0","2BA7A916DF2543C38FBD337BB3F6469E","2BA7A916DF2543C38FBD337BB3F6469E","938bfd4b-dc26-4196-92fd-0b965b6c8dbc","bea99957-1862-4ad8-9558-57b91e42ce64","{""participantId"":""2BA7A916DF2543C38FBD337BB3F6469E"",""assignmentId"":""938bfd4b-dc26-4196-92fd-0b965b6c8dbc"",""projectId"":""bea99957-1862-4ad8-9558-57b91e42ce64""}","https://test12345.live/?participantId=2BA7A916DF2543C38FBD337BB3F6469E&assignmentId=938bfd4b-dc26-4196-92fd-0b965b6c8dbc&projectId=bea99957-1862-4ad8-9558-57b91e42ce64","","null","<div style=""display: flex; justify-content: center; align-items: center;"">
                    <img src=""images/semantic/semantic_series_3/semantic_series_3_c.jpg"" style=""width: 300px; height: 300px;"" />
                  </div>","null","",""
"","","","","","html-keyboard-response","93","501895","0.0-67.0-3.0","2BA7A916DF2543C38FBD337BB3F6469E","2BA7A916DF2543C38FBD337BB3F6469E","938bfd4b-dc26-4196-92fd-0b965b6c8dbc","bea99957-1862-4ad8-9558-57b91e42ce64","{""participantId"":""2BA7A916DF2543C38FBD337BB3F6469E"",""assignmentId"":""938bfd4b-dc26-4196-92fd-0b965b6c8dbc"",""projectId"":""bea99957-1862-4ad8-9558-57b91e42ce64""}","https://test12345.live/?participantId=2BA7A916DF2543C38FBD337BB3F6469E&assignmentId=938bfd4b-dc26-4196-92fd-0b965b6c8dbc&projectId=bea99957-1862-4ad8-9558-57b91e42ce64","","null","<div style=""display: flex; justify-content: center; align-items: center;"">
                    <img src=""images/semantic/semantic_series_3/semantic_series_3_d.jpg"" style=""width: 300px; height: 300px;"" />
                  </div>","null","",""
"","","","","","html-button-response","94","503338","0.0-68.0","2BA7A916DF2543C38FBD337BB3F6469E","2BA7A916DF2543C38FBD337BB3F6469E","938bfd4b-dc26-4196-92fd-0b965b6c8dbc","bea99957-1862-4ad8-9558-57b91e42ce64","{""participantId"":""2BA7A916DF2543C38FBD337BB3F6469E"",""assignmentId"":""938bfd4b-dc26-4196-92fd-0b965b6c8dbc"",""projectId"":""bea99957-1862-4ad8-9558-57b91e42ce64""}","https://test12345.live/?participantId=2BA7A916DF2543C38FBD337BB3F6469E&assignmentId=938bfd4b-dc26-4196-92fd-0b965b6c8dbc&projectId=bea99957-1862-4ad8-9558-57b91e42ce64","","1442","Was there a person in the picture?","0","",""
"","","","","","survey-likert","95","505076","0.0-69.0","2BA7A916DF2543C38FBD337BB3F6469E","2BA7A916DF2543C38FBD337BB3F6469E","938bfd4b-dc26-4196-92fd-0b965b6c8dbc","bea99957-1862-4ad8-9558-57b91e42ce64","{""participantId"":""2BA7A916DF2543C38FBD337BB3F6469E"",""assignmentId"":""938bfd4b-dc26-4196-92fd-0b965b6c8dbc"",""projectId"":""bea99957-1862-4ad8-9558-57b91e42ce64""}","https://test12345.live/?participantId=2BA7A916DF2543C38FBD337BB3F6469E&assignmentId=938bfd4b-dc26-4196-92fd-0b965b6c8dbc&projectId=bea99957-1862-4ad8-9558-57b91e42ce64","","1737","","{""Q0"":2}","","[0]"
"","","","","","html-button-response","96","506934","0.0-70.0","2BA7A916DF2543C38FBD337BB3F6469E","2BA7A916DF2543C38FBD337BB3F6469E","938bfd4b-dc26-4196-92fd-0b965b6c8dbc","bea99957-1862-4ad8-9558-57b91e42ce64","{""participantId"":""2BA7A916DF2543C38FBD337BB3F6469E"",""assignmentId"":""938bfd4b-dc26-4196-92fd-0b965b6c8dbc"",""projectId"":""bea99957-1862-4ad8-9558-57b91e42ce64""}","https://test12345.live/?participantId=2BA7A916DF2543C38FBD337BB3F6469E&assignmentId=938bfd4b-dc26-4196-92fd-0b965b6c8dbc&projectId=bea99957-1862-4ad8-9558-57b91e42ce64","","1856","
    <div style=""display: flex; justify-content: center; align-items: center;"">
      <img src=""images/red_deck_2.png"" style=""width: 300px; height: 300px; margin-right: 10px;"" />
      <img src=""images/blue_deck_1.png"" style=""width: 300px; height: 300px;"" />
    </div>","1","1",""
"","","","","","html-keyboard-response","97","509946","0.0-71.0-0.0","2BA7A916DF2543C38FBD337BB3F6469E","2BA7A916DF2543C38FBD337BB3F6469E","938bfd4b-dc26-4196-92fd-0b965b6c8dbc","bea99957-1862-4ad8-9558-57b91e42ce64","{""participantId"":""2BA7A916DF2543C38FBD337BB3F6469E"",""assignmentId"":""938bfd4b-dc26-4196-92fd-0b965b6c8dbc"",""projectId"":""bea99957-1862-4ad8-9558-57b91e42ce64""}","https://test12345.live/?participantId=2BA7A916DF2543C38FBD337BB3F6469E&assignmentId=938bfd4b-dc26-4196-92fd-0b965b6c8dbc&projectId=bea99957-1862-4ad8-9558-57b91e42ce64","","null","<div style=""display: flex; justify-content: center; align-items: center;"">
                    <img src=""images/causal/causal_series_16/causal_series_16_a.jpg"" style=""width: 300px; height: 300px;"" />
                  </div>","null","",""
"","","","","","html-keyboard-response","98","512954","0.0-71.0-1.0","2BA7A916DF2543C38FBD337BB3F6469E","2BA7A916DF2543C38FBD337BB3F6469E","938bfd4b-dc26-4196-92fd-0b965b6c8dbc","bea99957-1862-4ad8-9558-57b91e42ce64","{""participantId"":""2BA7A916DF2543C38FBD337BB3F6469E"",""assignmentId"":""938bfd4b-dc26-4196-92fd-0b965b6c8dbc"",""projectId"":""bea99957-1862-4ad8-9558-57b91e42ce64""}","https://test12345.live/?participantId=2BA7A916DF2543C38FBD337BB3F6469E&assignmentId=938bfd4b-dc26-4196-92fd-0b965b6c8dbc&projectId=bea99957-1862-4ad8-9558-57b91e42ce64","","null","<div style=""display: flex; justify-content: center; align-items: center;"">
                    <img src=""images/causal/causal_series_16/causal_series_16_b.jpg"" style=""width: 300px; height: 300px;"" />
                  </div>","null","",""
"","","","","","html-keyboard-response","99","515963","0.0-71.0-2.0","2BA7A916DF2543C38FBD337BB3F6469E","2BA7A916DF2543C38FBD337BB3F6469E","938bfd4b-dc26-4196-92fd-0b965b6c8dbc","bea99957-1862-4ad8-9558-57b91e42ce64","{""participantId"":""2BA7A916DF2543C38FBD337BB3F6469E"",""assignmentId"":""938bfd4b-dc26-4196-92fd-0b965b6c8dbc"",""projectId"":""bea99957-1862-4ad8-9558-57b91e42ce64""}","https://test12345.live/?participantId=2BA7A916DF2543C38FBD337BB3F6469E&assignmentId=938bfd4b-dc26-4196-92fd-0b965b6c8dbc&projectId=bea99957-1862-4ad8-9558-57b91e42ce64","","null","<div style=""display: flex; justify-content: center; align-items: center;"">
                    <img src=""images/causal/causal_series_16/causal_series_16_c.jpg"" style=""width: 300px; height: 300px;"" />
                  </div>","null","",""
"","","","","","html-keyboard-response","100","518970","0.0-71.0-3.0","2BA7A916DF2543C38FBD337BB3F6469E","2BA7A916DF2543C38FBD337BB3F6469E","938bfd4b-dc26-4196-92fd-0b965b6c8dbc","bea99957-1862-4ad8-9558-57b91e42ce64","{""participantId"":""2BA7A916DF2543C38FBD337BB3F6469E"",""assignmentId"":""938bfd4b-dc26-4196-92fd-0b965b6c8dbc"",""projectId"":""bea99957-1862-4ad8-9558-57b91e42ce64""}","https://test12345.live/?participantId=2BA7A916DF2543C38FBD337BB3F6469E&assignmentId=938bfd4b-dc26-4196-92fd-0b965b6c8dbc&projectId=bea99957-1862-4ad8-9558-57b91e42ce64","","null","<div style=""display: flex; justify-content: center; align-items: center;"">
                    <img src=""images/causal/causal_series_16/causal_series_16_d.jpg"" style=""width: 300px; height: 300px;"" />
                  </div>","null","",""
"","","","","","html-button-response","101","520366","0.0-73.0","2BA7A916DF2543C38FBD337BB3F6469E","2BA7A916DF2543C38FBD337BB3F6469E","938bfd4b-dc26-4196-92fd-0b965b6c8dbc","bea99957-1862-4ad8-9558-57b91e42ce64","{""participantId"":""2BA7A916DF2543C38FBD337BB3F6469E"",""assignmentId"":""938bfd4b-dc26-4196-92fd-0b965b6c8dbc"",""projectId"":""bea99957-1862-4ad8-9558-57b91e42ce64""}","https://test12345.live/?participantId=2BA7A916DF2543C38FBD337BB3F6469E&assignmentId=938bfd4b-dc26-4196-92fd-0b965b6c8dbc&projectId=bea99957-1862-4ad8-9558-57b91e42ce64","","1394","Was there a person in the picture?","0","",""
"","","","","","survey-likert","102","521841","0.0-74.0","2BA7A916DF2543C38FBD337BB3F6469E","2BA7A916DF2543C38FBD337BB3F6469E","938bfd4b-dc26-4196-92fd-0b965b6c8dbc","bea99957-1862-4ad8-9558-57b91e42ce64","{""participantId"":""2BA7A916DF2543C38FBD337BB3F6469E"",""assignmentId"":""938bfd4b-dc26-4196-92fd-0b965b6c8dbc"",""projectId"":""bea99957-1862-4ad8-9558-57b91e42ce64""}","https://test12345.live/?participantId=2BA7A916DF2543C38FBD337BB3F6469E&assignmentId=938bfd4b-dc26-4196-92fd-0b965b6c8dbc&projectId=bea99957-1862-4ad8-9558-57b91e42ce64","","1474","","{""Q0"":2}","","[0]"
"","","","","","html-button-response","103","528934","0.0-75.0","2BA7A916DF2543C38FBD337BB3F6469E","2BA7A916DF2543C38FBD337BB3F6469E","938bfd4b-dc26-4196-92fd-0b965b6c8dbc","bea99957-1862-4ad8-9558-57b91e42ce64","{""participantId"":""2BA7A916DF2543C38FBD337BB3F6469E"",""assignmentId"":""938bfd4b-dc26-4196-92fd-0b965b6c8dbc"",""projectId"":""bea99957-1862-4ad8-9558-57b91e42ce64""}","https://test12345.live/?participantId=2BA7A916DF2543C38FBD337BB3F6469E&assignmentId=938bfd4b-dc26-4196-92fd-0b965b6c8dbc&projectId=bea99957-1862-4ad8-9558-57b91e42ce64","","7091","
    <div style=""display: flex; justify-content: center; align-items: center;"">
      <img src=""images/red_deck_2.png"" style=""width: 300px; height: 300px; margin-right: 10px;"" />
      <img src=""images/blue_deck_1.png"" style=""width: 300px; height: 300px;"" />
    </div>","0","0",""
"","","","","","html-keyboard-response","104","531950","0.0-77.0-0.0","2BA7A916DF2543C38FBD337BB3F6469E","2BA7A916DF2543C38FBD337BB3F6469E","938bfd4b-dc26-4196-92fd-0b965b6c8dbc","bea99957-1862-4ad8-9558-57b91e42ce64","{""participantId"":""2BA7A916DF2543C38FBD337BB3F6469E"",""assignmentId"":""938bfd4b-dc26-4196-92fd-0b965b6c8dbc"",""projectId"":""bea99957-1862-4ad8-9558-57b91e42ce64""}","https://test12345.live/?participantId=2BA7A916DF2543C38FBD337BB3F6469E&assignmentId=938bfd4b-dc26-4196-92fd-0b965b6c8dbc&projectId=bea99957-1862-4ad8-9558-57b91e42ce64","","null","<div style=""display: flex; justify-content: center; align-items: center;"">
                    <img src=""images/semantic/semantic_series_2/semantic_series_2_a.jpg"" style=""width: 300px; height: 300px;"" />
                  </div>","null","",""
"","","","","","html-keyboard-response","105","534951","0.0-77.0-1.0","2BA7A916DF2543C38FBD337BB3F6469E","2BA7A916DF2543C38FBD337BB3F6469E","938bfd4b-dc26-4196-92fd-0b965b6c8dbc","bea99957-1862-4ad8-9558-57b91e42ce64","{""participantId"":""2BA7A916DF2543C38FBD337BB3F6469E"",""assignmentId"":""938bfd4b-dc26-4196-92fd-0b965b6c8dbc"",""projectId"":""bea99957-1862-4ad8-9558-57b91e42ce64""}","https://test12345.live/?participantId=2BA7A916DF2543C38FBD337BB3F6469E&assignmentId=938bfd4b-dc26-4196-92fd-0b965b6c8dbc&projectId=bea99957-1862-4ad8-9558-57b91e42ce64","","null","<div style=""display: flex; justify-content: center; align-items: center;"">
                    <img src=""images/semantic/semantic_series_2/semantic_series_2_b.jpg"" style=""width: 300px; height: 300px;"" />
                  </div>","null","",""
"","","","","","html-keyboard-response","106","537960","0.0-77.0-2.0","2BA7A916DF2543C38FBD337BB3F6469E","2BA7A916DF2543C38FBD337BB3F6469E","938bfd4b-dc26-4196-92fd-0b965b6c8dbc","bea99957-1862-4ad8-9558-57b91e42ce64","{""participantId"":""2BA7A916DF2543C38FBD337BB3F6469E"",""assignmentId"":""938bfd4b-dc26-4196-92fd-0b965b6c8dbc"",""projectId"":""bea99957-1862-4ad8-9558-57b91e42ce64""}","https://test12345.live/?participantId=2BA7A916DF2543C38FBD337BB3F6469E&assignmentId=938bfd4b-dc26-4196-92fd-0b965b6c8dbc&projectId=bea99957-1862-4ad8-9558-57b91e42ce64","","null","<div style=""display: flex; justify-content: center; align-items: center;"">
                    <img src=""images/semantic/semantic_series_2/semantic_series_2_c.jpg"" style=""width: 300px; height: 300px;"" />
                  </div>","null","",""
"","","","","","html-keyboard-response","107","540967","0.0-77.0-3.0","2BA7A916DF2543C38FBD337BB3F6469E","2BA7A916DF2543C38FBD337BB3F6469E","938bfd4b-dc26-4196-92fd-0b965b6c8dbc","bea99957-1862-4ad8-9558-57b91e42ce64","{""participantId"":""2BA7A916DF2543C38FBD337BB3F6469E"",""assignmentId"":""938bfd4b-dc26-4196-92fd-0b965b6c8dbc"",""projectId"":""bea99957-1862-4ad8-9558-57b91e42ce64""}","https://test12345.live/?participantId=2BA7A916DF2543C38FBD337BB3F6469E&assignmentId=938bfd4b-dc26-4196-92fd-0b965b6c8dbc&projectId=bea99957-1862-4ad8-9558-57b91e42ce64","","null","<div style=""display: flex; justify-content: center; align-items: center;"">
                    <img src=""images/semantic/semantic_series_2/semantic_series_2_d.jpg"" style=""width: 300px; height: 300px;"" />
                  </div>","null","",""
"","","","","","html-button-response","108","542301","0.0-78.0","2BA7A916DF2543C38FBD337BB3F6469E","2BA7A916DF2543C38FBD337BB3F6469E","938bfd4b-dc26-4196-92fd-0b965b6c8dbc","bea99957-1862-4ad8-9558-57b91e42ce64","{""participantId"":""2BA7A916DF2543C38FBD337BB3F6469E"",""assignmentId"":""938bfd4b-dc26-4196-92fd-0b965b6c8dbc"",""projectId"":""bea99957-1862-4ad8-9558-57b91e42ce64""}","https://test12345.live/?participantId=2BA7A916DF2543C38FBD337BB3F6469E&assignmentId=938bfd4b-dc26-4196-92fd-0b965b6c8dbc&projectId=bea99957-1862-4ad8-9558-57b91e42ce64","","1333","Was there a person in the picture?","0","",""
"","","","","","survey-likert","109","544025","0.0-79.0","2BA7A916DF2543C38FBD337BB3F6469E","2BA7A916DF2543C38FBD337BB3F6469E","938bfd4b-dc26-4196-92fd-0b965b6c8dbc","bea99957-1862-4ad8-9558-57b91e42ce64","{""participantId"":""2BA7A916DF2543C38FBD337BB3F6469E"",""assignmentId"":""938bfd4b-dc26-4196-92fd-0b965b6c8dbc"",""projectId"":""bea99957-1862-4ad8-9558-57b91e42ce64""}","https://test12345.live/?participantId=2BA7A916DF2543C38FBD337BB3F6469E&assignmentId=938bfd4b-dc26-4196-92fd-0b965b6c8dbc&projectId=bea99957-1862-4ad8-9558-57b91e42ce64","","1723","","{""Q0"":2}","","[0]"
"","","","","","html-button-response","110","548174","0.0-80.0","2BA7A916DF2543C38FBD337BB3F6469E","2BA7A916DF2543C38FBD337BB3F6469E","938bfd4b-dc26-4196-92fd-0b965b6c8dbc","bea99957-1862-4ad8-9558-57b91e42ce64","{""participantId"":""2BA7A916DF2543C38FBD337BB3F6469E"",""assignmentId"":""938bfd4b-dc26-4196-92fd-0b965b6c8dbc"",""projectId"":""bea99957-1862-4ad8-9558-57b91e42ce64""}","https://test12345.live/?participantId=2BA7A916DF2543C38FBD337BB3F6469E&assignmentId=938bfd4b-dc26-4196-92fd-0b965b6c8dbc&projectId=bea99957-1862-4ad8-9558-57b91e42ce64","","4147","
    <div style=""display: flex; justify-content: center; align-items: center;"">
      <img src=""images/red_deck_2.png"" style=""width: 300px; height: 300px; margin-right: 10px;"" />
      <img src=""images/blue_deck_1.png"" style=""width: 300px; height: 300px;"" />
    </div>","1","1",""
"","","","","","html-keyboard-response","111","551178","0.0-81.0-0.0","2BA7A916DF2543C38FBD337BB3F6469E","2BA7A916DF2543C38FBD337BB3F6469E","938bfd4b-dc26-4196-92fd-0b965b6c8dbc","bea99957-1862-4ad8-9558-57b91e42ce64","{""participantId"":""2BA7A916DF2543C38FBD337BB3F6469E"",""assignmentId"":""938bfd4b-dc26-4196-92fd-0b965b6c8dbc"",""projectId"":""bea99957-1862-4ad8-9558-57b91e42ce64""}","https://test12345.live/?participantId=2BA7A916DF2543C38FBD337BB3F6469E&assignmentId=938bfd4b-dc26-4196-92fd-0b965b6c8dbc&projectId=bea99957-1862-4ad8-9558-57b91e42ce64","","null","<div style=""display: flex; justify-content: center; align-items: center;"">
                    <img src=""images/causal/causal_series_12/causal_series_12_a.jpg"" style=""width: 300px; height: 300px;"" />
                  </div>","null","",""
"","","","","","html-keyboard-response","112","554186","0.0-81.0-1.0","2BA7A916DF2543C38FBD337BB3F6469E","2BA7A916DF2543C38FBD337BB3F6469E","938bfd4b-dc26-4196-92fd-0b965b6c8dbc","bea99957-1862-4ad8-9558-57b91e42ce64","{""participantId"":""2BA7A916DF2543C38FBD337BB3F6469E"",""assignmentId"":""938bfd4b-dc26-4196-92fd-0b965b6c8dbc"",""projectId"":""bea99957-1862-4ad8-9558-57b91e42ce64""}","https://test12345.live/?participantId=2BA7A916DF2543C38FBD337BB3F6469E&assignmentId=938bfd4b-dc26-4196-92fd-0b965b6c8dbc&projectId=bea99957-1862-4ad8-9558-57b91e42ce64","","null","<div style=""display: flex; justify-content: center; align-items: center;"">
                    <img src=""images/causal/causal_series_12/causal_series_12_b.jpg"" style=""width: 300px; height: 300px;"" />
                  </div>","null","",""
"","","","","","html-keyboard-response","113","557193","0.0-81.0-2.0","2BA7A916DF2543C38FBD337BB3F6469E","2BA7A916DF2543C38FBD337BB3F6469E","938bfd4b-dc26-4196-92fd-0b965b6c8dbc","bea99957-1862-4ad8-9558-57b91e42ce64","{""participantId"":""2BA7A916DF2543C38FBD337BB3F6469E"",""assignmentId"":""938bfd4b-dc26-4196-92fd-0b965b6c8dbc"",""projectId"":""bea99957-1862-4ad8-9558-57b91e42ce64""}","https://test12345.live/?participantId=2BA7A916DF2543C38FBD337BB3F6469E&assignmentId=938bfd4b-dc26-4196-92fd-0b965b6c8dbc&projectId=bea99957-1862-4ad8-9558-57b91e42ce64","","null","<div style=""display: flex; justify-content: center; align-items: center;"">
                    <img src=""images/causal/causal_series_12/causal_series_12_c.jpg"" style=""width: 300px; height: 300px;"" />
                  </div>","null","",""
"","","","","","html-keyboard-response","114","560195","0.0-81.0-3.0","2BA7A916DF2543C38FBD337BB3F6469E","2BA7A916DF2543C38FBD337BB3F6469E","938bfd4b-dc26-4196-92fd-0b965b6c8dbc","bea99957-1862-4ad8-9558-57b91e42ce64","{""participantId"":""2BA7A916DF2543C38FBD337BB3F6469E"",""assignmentId"":""938bfd4b-dc26-4196-92fd-0b965b6c8dbc"",""projectId"":""bea99957-1862-4ad8-9558-57b91e42ce64""}","https://test12345.live/?participantId=2BA7A916DF2543C38FBD337BB3F6469E&assignmentId=938bfd4b-dc26-4196-92fd-0b965b6c8dbc&projectId=bea99957-1862-4ad8-9558-57b91e42ce64","","null","<div style=""display: flex; justify-content: center; align-items: center;"">
                    <img src=""images/causal/causal_series_12/causal_series_12_d.jpg"" style=""width: 300px; height: 300px;"" />
                  </div>","null","",""
"","","","","","html-button-response","115","562279","0.0-83.0","2BA7A916DF2543C38FBD337BB3F6469E","2BA7A916DF2543C38FBD337BB3F6469E","938bfd4b-dc26-4196-92fd-0b965b6c8dbc","bea99957-1862-4ad8-9558-57b91e42ce64","{""participantId"":""2BA7A916DF2543C38FBD337BB3F6469E"",""assignmentId"":""938bfd4b-dc26-4196-92fd-0b965b6c8dbc"",""projectId"":""bea99957-1862-4ad8-9558-57b91e42ce64""}","https://test12345.live/?participantId=2BA7A916DF2543C38FBD337BB3F6469E&assignmentId=938bfd4b-dc26-4196-92fd-0b965b6c8dbc&projectId=bea99957-1862-4ad8-9558-57b91e42ce64","","2082","Was there a person in the picture?","1","",""
"","","","","","survey-likert","116","564315","0.0-84.0","2BA7A916DF2543C38FBD337BB3F6469E","2BA7A916DF2543C38FBD337BB3F6469E","938bfd4b-dc26-4196-92fd-0b965b6c8dbc","bea99957-1862-4ad8-9558-57b91e42ce64","{""participantId"":""2BA7A916DF2543C38FBD337BB3F6469E"",""assignmentId"":""938bfd4b-dc26-4196-92fd-0b965b6c8dbc"",""projectId"":""bea99957-1862-4ad8-9558-57b91e42ce64""}","https://test12345.live/?participantId=2BA7A916DF2543C38FBD337BB3F6469E&assignmentId=938bfd4b-dc26-4196-92fd-0b965b6c8dbc&projectId=bea99957-1862-4ad8-9558-57b91e42ce64","","2035","","{""Q0"":3}","","[0]"
"","","","","","html-button-response","117","577540","0.0-85.0","2BA7A916DF2543C38FBD337BB3F6469E","2BA7A916DF2543C38FBD337BB3F6469E","938bfd4b-dc26-4196-92fd-0b965b6c8dbc","bea99957-1862-4ad8-9558-57b91e42ce64","{""participantId"":""2BA7A916DF2543C38FBD337BB3F6469E"",""assignmentId"":""938bfd4b-dc26-4196-92fd-0b965b6c8dbc"",""projectId"":""bea99957-1862-4ad8-9558-57b91e42ce64""}","https://test12345.live/?participantId=2BA7A916DF2543C38FBD337BB3F6469E&assignmentId=938bfd4b-dc26-4196-92fd-0b965b6c8dbc&projectId=bea99957-1862-4ad8-9558-57b91e42ce64","","13224","
    <div style=""display: flex; justify-content: center; align-items: center;"">
      <img src=""images/red_deck_2.png"" style=""width: 300px; height: 300px; margin-right: 10px;"" />
      <img src=""images/blue_deck_1.png"" style=""width: 300px; height: 300px;"" />
    </div>","0","0",""
"","","","","","html-keyboard-response","118","580552","0.0-87.0-0.0","2BA7A916DF2543C38FBD337BB3F6469E","2BA7A916DF2543C38FBD337BB3F6469E","938bfd4b-dc26-4196-92fd-0b965b6c8dbc","bea99957-1862-4ad8-9558-57b91e42ce64","{""participantId"":""2BA7A916DF2543C38FBD337BB3F6469E"",""assignmentId"":""938bfd4b-dc26-4196-92fd-0b965b6c8dbc"",""projectId"":""bea99957-1862-4ad8-9558-57b91e42ce64""}","https://test12345.live/?participantId=2BA7A916DF2543C38FBD337BB3F6469E&assignmentId=938bfd4b-dc26-4196-92fd-0b965b6c8dbc&projectId=bea99957-1862-4ad8-9558-57b91e42ce64","","null","<div style=""display: flex; justify-content: center; align-items: center;"">
                    <img src=""images/semantic/semantic_series_8/semantic_series_8_a.jpg"" style=""width: 300px; height: 300px;"" />
                  </div>","null","",""
"","","","","","html-keyboard-response","119","583556","0.0-87.0-1.0","2BA7A916DF2543C38FBD337BB3F6469E","2BA7A916DF2543C38FBD337BB3F6469E","938bfd4b-dc26-4196-92fd-0b965b6c8dbc","bea99957-1862-4ad8-9558-57b91e42ce64","{""participantId"":""2BA7A916DF2543C38FBD337BB3F6469E"",""assignmentId"":""938bfd4b-dc26-4196-92fd-0b965b6c8dbc"",""projectId"":""bea99957-1862-4ad8-9558-57b91e42ce64""}","https://test12345.live/?participantId=2BA7A916DF2543C38FBD337BB3F6469E&assignmentId=938bfd4b-dc26-4196-92fd-0b965b6c8dbc&projectId=bea99957-1862-4ad8-9558-57b91e42ce64","","null","<div style=""display: flex; justify-content: center; align-items: center;"">
                    <img src=""images/semantic/semantic_series_8/semantic_series_8_b.jpg"" style=""width: 300px; height: 300px;"" />
                  </div>","null","",""
"","","","","","html-keyboard-response","120","586557","0.0-87.0-2.0","2BA7A916DF2543C38FBD337BB3F6469E","2BA7A916DF2543C38FBD337BB3F6469E","938bfd4b-dc26-4196-92fd-0b965b6c8dbc","bea99957-1862-4ad8-9558-57b91e42ce64","{""participantId"":""2BA7A916DF2543C38FBD337BB3F6469E"",""assignmentId"":""938bfd4b-dc26-4196-92fd-0b965b6c8dbc"",""projectId"":""bea99957-1862-4ad8-9558-57b91e42ce64""}","https://test12345.live/?participantId=2BA7A916DF2543C38FBD337BB3F6469E&assignmentId=938bfd4b-dc26-4196-92fd-0b965b6c8dbc&projectId=bea99957-1862-4ad8-9558-57b91e42ce64","","null","<div style=""display: flex; justify-content: center; align-items: center;"">
                    <img src=""images/semantic/semantic_series_8/semantic_series_8_c.jpg"" style=""width: 300px; height: 300px;"" />
                  </div>","null","",""
"","","","","","html-keyboard-response","121","589561","0.0-87.0-3.0","2BA7A916DF2543C38FBD337BB3F6469E","2BA7A916DF2543C38FBD337BB3F6469E","938bfd4b-dc26-4196-92fd-0b965b6c8dbc","bea99957-1862-4ad8-9558-57b91e42ce64","{""participantId"":""2BA7A916DF2543C38FBD337BB3F6469E"",""assignmentId"":""938bfd4b-dc26-4196-92fd-0b965b6c8dbc"",""projectId"":""bea99957-1862-4ad8-9558-57b91e42ce64""}","https://test12345.live/?participantId=2BA7A916DF2543C38FBD337BB3F6469E&assignmentId=938bfd4b-dc26-4196-92fd-0b965b6c8dbc&projectId=bea99957-1862-4ad8-9558-57b91e42ce64","","null","<div style=""display: flex; justify-content: center; align-items: center;"">
                    <img src=""images/semantic/semantic_series_8/semantic_series_8_d.jpg"" style=""width: 300px; height: 300px;"" />
                  </div>","null","",""
"","","","","","html-button-response","122","591936","0.0-88.0","2BA7A916DF2543C38FBD337BB3F6469E","2BA7A916DF2543C38FBD337BB3F6469E","938bfd4b-dc26-4196-92fd-0b965b6c8dbc","bea99957-1862-4ad8-9558-57b91e42ce64","{""participantId"":""2BA7A916DF2543C38FBD337BB3F6469E"",""assignmentId"":""938bfd4b-dc26-4196-92fd-0b965b6c8dbc"",""projectId"":""bea99957-1862-4ad8-9558-57b91e42ce64""}","https://test12345.live/?participantId=2BA7A916DF2543C38FBD337BB3F6469E&assignmentId=938bfd4b-dc26-4196-92fd-0b965b6c8dbc&projectId=bea99957-1862-4ad8-9558-57b91e42ce64","","2374","Was there a person in the picture?","1","",""
"","","","","","survey-likert","123","593880","0.0-89.0","2BA7A916DF2543C38FBD337BB3F6469E","2BA7A916DF2543C38FBD337BB3F6469E","938bfd4b-dc26-4196-92fd-0b965b6c8dbc","bea99957-1862-4ad8-9558-57b91e42ce64","{""participantId"":""2BA7A916DF2543C38FBD337BB3F6469E"",""assignmentId"":""938bfd4b-dc26-4196-92fd-0b965b6c8dbc"",""projectId"":""bea99957-1862-4ad8-9558-57b91e42ce64""}","https://test12345.live/?participantId=2BA7A916DF2543C38FBD337BB3F6469E&assignmentId=938bfd4b-dc26-4196-92fd-0b965b6c8dbc&projectId=bea99957-1862-4ad8-9558-57b91e42ce64","","1942","","{""Q0"":1}","","[0]"
"","","","","","html-button-response","124","595595","0.0-90.0","2BA7A916DF2543C38FBD337BB3F6469E","2BA7A916DF2543C38FBD337BB3F6469E","938bfd4b-dc26-4196-92fd-0b965b6c8dbc","bea99957-1862-4ad8-9558-57b91e42ce64","{""participantId"":""2BA7A916DF2543C38FBD337BB3F6469E"",""assignmentId"":""938bfd4b-dc26-4196-92fd-0b965b6c8dbc"",""projectId"":""bea99957-1862-4ad8-9558-57b91e42ce64""}","https://test12345.live/?participantId=2BA7A916DF2543C38FBD337BB3F6469E&assignmentId=938bfd4b-dc26-4196-92fd-0b965b6c8dbc&projectId=bea99957-1862-4ad8-9558-57b91e42ce64","","1714","
    <div style=""display: flex; justify-content: center; align-items: center;"">
      <img src=""images/red_deck_2.png"" style=""width: 300px; height: 300px; margin-right: 10px;"" />
      <img src=""images/blue_deck_1.png"" style=""width: 300px; height: 300px;"" />
    </div>","1","1",""
"","","","","","html-keyboard-response","125","598600","0.0-91.0-0.0","2BA7A916DF2543C38FBD337BB3F6469E","2BA7A916DF2543C38FBD337BB3F6469E","938bfd4b-dc26-4196-92fd-0b965b6c8dbc","bea99957-1862-4ad8-9558-57b91e42ce64","{""participantId"":""2BA7A916DF2543C38FBD337BB3F6469E"",""assignmentId"":""938bfd4b-dc26-4196-92fd-0b965b6c8dbc"",""projectId"":""bea99957-1862-4ad8-9558-57b91e42ce64""}","https://test12345.live/?participantId=2BA7A916DF2543C38FBD337BB3F6469E&assignmentId=938bfd4b-dc26-4196-92fd-0b965b6c8dbc&projectId=bea99957-1862-4ad8-9558-57b91e42ce64","","null","<div style=""display: flex; justify-content: center; align-items: center;"">
                    <img src=""images/causal/causal_series_8/causal_series_8_a.jpg"" style=""width: 300px; height: 300px;"" />
                  </div>","null","",""
"","","","","","html-keyboard-response","126","601603","0.0-91.0-1.0","2BA7A916DF2543C38FBD337BB3F6469E","2BA7A916DF2543C38FBD337BB3F6469E","938bfd4b-dc26-4196-92fd-0b965b6c8dbc","bea99957-1862-4ad8-9558-57b91e42ce64","{""participantId"":""2BA7A916DF2543C38FBD337BB3F6469E"",""assignmentId"":""938bfd4b-dc26-4196-92fd-0b965b6c8dbc"",""projectId"":""bea99957-1862-4ad8-9558-57b91e42ce64""}","https://test12345.live/?participantId=2BA7A916DF2543C38FBD337BB3F6469E&assignmentId=938bfd4b-dc26-4196-92fd-0b965b6c8dbc&projectId=bea99957-1862-4ad8-9558-57b91e42ce64","","null","<div style=""display: flex; justify-content: center; align-items: center;"">
                    <img src=""images/causal/causal_series_8/causal_series_8_b.jpg"" style=""width: 300px; height: 300px;"" />
                  </div>","null","",""
"","","","","","html-keyboard-response","127","604607","0.0-91.0-2.0","2BA7A916DF2543C38FBD337BB3F6469E","2BA7A916DF2543C38FBD337BB3F6469E","938bfd4b-dc26-4196-92fd-0b965b6c8dbc","bea99957-1862-4ad8-9558-57b91e42ce64","{""participantId"":""2BA7A916DF2543C38FBD337BB3F6469E"",""assignmentId"":""938bfd4b-dc26-4196-92fd-0b965b6c8dbc"",""projectId"":""bea99957-1862-4ad8-9558-57b91e42ce64""}","https://test12345.live/?participantId=2BA7A916DF2543C38FBD337BB3F6469E&assignmentId=938bfd4b-dc26-4196-92fd-0b965b6c8dbc&projectId=bea99957-1862-4ad8-9558-57b91e42ce64","","null","<div style=""display: flex; justify-content: center; align-items: center;"">
                    <img src=""images/causal/causal_series_8/causal_series_8_c.jpg"" style=""width: 300px; height: 300px;"" />
                  </div>","null","",""
"","","","","","html-keyboard-response","128","607612","0.0-91.0-3.0","2BA7A916DF2543C38FBD337BB3F6469E","2BA7A916DF2543C38FBD337BB3F6469E","938bfd4b-dc26-4196-92fd-0b965b6c8dbc","bea99957-1862-4ad8-9558-57b91e42ce64","{""participantId"":""2BA7A916DF2543C38FBD337BB3F6469E"",""assignmentId"":""938bfd4b-dc26-4196-92fd-0b965b6c8dbc"",""projectId"":""bea99957-1862-4ad8-9558-57b91e42ce64""}","https://test12345.live/?participantId=2BA7A916DF2543C38FBD337BB3F6469E&assignmentId=938bfd4b-dc26-4196-92fd-0b965b6c8dbc&projectId=bea99957-1862-4ad8-9558-57b91e42ce64","","null","<div style=""display: flex; justify-content: center; align-items: center;"">
                    <img src=""images/causal/causal_series_8/causal_series_8_d.jpg"" style=""width: 300px; height: 300px;"" />
                  </div>","null","",""
"","","","","","html-button-response","129","609126","0.0-93.0","2BA7A916DF2543C38FBD337BB3F6469E","2BA7A916DF2543C38FBD337BB3F6469E","938bfd4b-dc26-4196-92fd-0b965b6c8dbc","bea99957-1862-4ad8-9558-57b91e42ce64","{""participantId"":""2BA7A916DF2543C38FBD337BB3F6469E"",""assignmentId"":""938bfd4b-dc26-4196-92fd-0b965b6c8dbc"",""projectId"":""bea99957-1862-4ad8-9558-57b91e42ce64""}","https://test12345.live/?participantId=2BA7A916DF2543C38FBD337BB3F6469E&assignmentId=938bfd4b-dc26-4196-92fd-0b965b6c8dbc&projectId=bea99957-1862-4ad8-9558-57b91e42ce64","","1512","Was there a person in the picture?","1","",""
"","","","","","survey-likert","130","610822","0.0-94.0","2BA7A916DF2543C38FBD337BB3F6469E","2BA7A916DF2543C38FBD337BB3F6469E","938bfd4b-dc26-4196-92fd-0b965b6c8dbc","bea99957-1862-4ad8-9558-57b91e42ce64","{""participantId"":""2BA7A916DF2543C38FBD337BB3F6469E"",""assignmentId"":""938bfd4b-dc26-4196-92fd-0b965b6c8dbc"",""projectId"":""bea99957-1862-4ad8-9558-57b91e42ce64""}","https://test12345.live/?participantId=2BA7A916DF2543C38FBD337BB3F6469E&assignmentId=938bfd4b-dc26-4196-92fd-0b965b6c8dbc&projectId=bea99957-1862-4ad8-9558-57b91e42ce64","","1694","","{""Q0"":2}","","[0]"
"","","","","","survey-text","131","620069","0.0-95.0","2BA7A916DF2543C38FBD337BB3F6469E","2BA7A916DF2543C38FBD337BB3F6469E","938bfd4b-dc26-4196-92fd-0b965b6c8dbc","bea99957-1862-4ad8-9558-57b91e42ce64","{""participantId"":""2BA7A916DF2543C38FBD337BB3F6469E"",""assignmentId"":""938bfd4b-dc26-4196-92fd-0b965b6c8dbc"",""projectId"":""bea99957-1862-4ad8-9558-57b91e42ce64""}","https://test12345.live/?participantId=2BA7A916DF2543C38FBD337BB3F6469E&assignmentId=938bfd4b-dc26-4196-92fd-0b965b6c8dbc&projectId=bea99957-1862-4ad8-9558-57b91e42ce64","","9240","","{""Q0"":""One is red and one is blue.""}","",""
