"success","timeout","failed_images","failed_audio","failed_video","trial_type","trial_index","time_elapsed","internal_node_id","view_history","rt","stimulus","response","choice","trial_name"
"true","false","[]","[]","[]","preload","0","2911","0.0-0.0","","","","","",""
"","","","","","instructions","1","7036","0.0-1.0","[{""page_index"":0,""viewing_time"":4124}]","4124","","","",""
"","","","","","instructions","2","22829","0.0-2.0","[{""page_index"":0,""viewing_time"":15793}]","15793","","","",""
"true","","","","","fullscreen","3","25497","0.0-3.0","","1666","","","",""
"","","","","","instructions","4","31053","0.0-4.0","[{""page_index"":0,""viewing_time"":5556}]","5556","","","",""
"","","","","","html-button-response","5","35200","0.0-5.0","","4145","
    <div style=""display: flex; justify-content: center; align-items: center; flex-direction: column;"">
      <div style=""display: flex; justify-content: center; align-items: center;"">
        <img src=""images/instructions/1.png"" style=""width: 300px; height: 300px; margin-right: 10px;"" />
        <img src=""images/instructions/2.png"" style=""width: 300px; height: 300px;"" />
      </div>
      <p>Does event 1 lead to event 2?</p>
    </div>","0","0",""
"","","","","","html-button-response","6","36356","0.0-6.0","","1156","
    <div style=""display: flex; justify-content: center; align-items: center; flex-direction: column;"">
      <div style=""display: flex; justify-content: center; align-items: center;"">
        <img src=""images/instructions/3.png"" style=""width: 300px; height: 300px; margin-right: 10px;"" />
        <img src=""images/instructions/4.png"" style=""width: 300px; height: 300px;"" />
      </div>
      <p>YES, event 1 does lead to event 2.</p>
    </div>","0","0",""
"","","","","","html-button-response","7","37937","0.0-7.0","","1580","
    <div style=""display: flex; justify-content: center; align-items: center; flex-direction: column;"">
      <div style=""display: flex; justify-content: center; align-items: center;"">
        <img src=""images/instructions/5.png"" style=""width: 300px; height: 300px; margin-right: 10px;"" />
        <img src=""images/instructions/6.png"" style=""width: 300px; height: 300px;"" />
      </div>
      <p>Does event 1 lead to event 2?</p>
    </div>","1","1",""
"","","","","","html-button-response","8","40853","0.0-8.0","","2916","
    <div style=""display: flex; justify-content: center; align-items: center; flex-direction: column;"">
      <div style=""display: flex; justify-content: center; align-items: center;"">
        <img src=""images/instructions/7.png"" style=""width: 300px; height: 300px; margin-right: 10px;"" />
        <img src=""images/instructions/8.png"" style=""width: 300px; height: 300px;"" />
      </div>
      <p>NO, event 1 does not lead to event 2.</p>
    </div>","0","0",""
"","","","","","instructions","9","42948","0.0-9.0","[{""page_index"":0,""viewing_time"":2095}]","2095","","","",""
"","","","","","html-button-response","10","46444","0.0-10.0","","3495","
    <div style=""display: flex; justify-content: center; align-items: center; flex-direction: column;"">
      <div style=""display: flex; justify-content: center; align-items: center;"">
        <img src=""images/semantic/semantic_7/1.png"" style=""width: 300px; height: 300px; margin-right: 10px;"" />
        <img src=""images/semantic/semantic_7/2.png"" style=""width: 300px; height: 300px;"" />
      </div>
      <p>Does event 1 lead to event 2?</p>
    </div>","1","1","semantic_7"
"","","","","","html-button-response","11","48680","0.0-11.0","","2235","
    <div style=""display: flex; justify-content: center; align-items: center; flex-direction: column;"">
      <div style=""display: flex; justify-content: center; align-items: center;"">
        <img src=""images/causal/causal_5/1.png"" style=""width: 300px; height: 300px; margin-right: 10px;"" />
        <img src=""images/causal/causal_5/2.png"" style=""width: 300px; height: 300px;"" />
      </div>
      <p>Does event 1 lead to event 2?</p>
    </div>","0","0","causal_5"
"","","","","","html-button-response","12","53019","0.0-12.0","","4339","
    <div style=""display: flex; justify-content: center; align-items: center; flex-direction: column;"">
      <div style=""display: flex; justify-content: center; align-items: center;"">
        <img src=""images/schematic/schematic_1/1.png"" style=""width: 300px; height: 300px; margin-right: 10px;"" />
        <img src=""images/schematic/schematic_1/2.png"" style=""width: 300px; height: 300px;"" />
      </div>
      <p>Does event 1 lead to event 2?</p>
    </div>","0","0","schematic_1"
"","","","","","html-button-response","13","55853","0.0-13.0","","2834","
    <div style=""display: flex; justify-content: center; align-items: center; flex-direction: column;"">
      <div style=""display: flex; justify-content: center; align-items: center;"">
        <img src=""images/schematic/schematic_7/1.png"" style=""width: 300px; height: 300px; margin-right: 10px;"" />
        <img src=""images/schematic/schematic_7/2.png"" style=""width: 300px; height: 300px;"" />
      </div>
      <p>Does event 1 lead to event 2?</p>
    </div>","0","0","schematic_7"
"","","","","","html-button-response","14","57206","0.0-14.0","","1352","
    <div style=""display: flex; justify-content: center; align-items: center; flex-direction: column;"">
      <div style=""display: flex; justify-content: center; align-items: center;"">
        <img src=""images/causal/causal_2/1.png"" style=""width: 300px; height: 300px; margin-right: 10px;"" />
        <img src=""images/causal/causal_2/2.png"" style=""width: 300px; height: 300px;"" />
      </div>
      <p>Does event 1 lead to event 2?</p>
    </div>","0","0","causal_2"
"","","","","","html-button-response","15","60520","0.0-15.0","","3313","
    <div style=""display: flex; justify-content: center; align-items: center; flex-direction: column;"">
      <div style=""display: flex; justify-content: center; align-items: center;"">
        <img src=""images/schematic/schematic_3/1.png"" style=""width: 300px; height: 300px; margin-right: 10px;"" />
        <img src=""images/schematic/schematic_3/2.png"" style=""width: 300px; height: 300px;"" />
      </div>
      <p>Does event 1 lead to event 2?</p>
    </div>","0","0","schematic_3"
"","","","","","html-button-response","16","63357","0.0-16.0","","2836","
    <div style=""display: flex; justify-content: center; align-items: center; flex-direction: column;"">
      <div style=""display: flex; justify-content: center; align-items: center;"">
        <img src=""images/schematic/schematic_4/1.png"" style=""width: 300px; height: 300px; margin-right: 10px;"" />
        <img src=""images/schematic/schematic_4/2.png"" style=""width: 300px; height: 300px;"" />
      </div>
      <p>Does event 1 lead to event 2?</p>
    </div>","0","0","schematic_4"
"","","","","","html-button-response","17","66824","0.0-17.0","","3466","
    <div style=""display: flex; justify-content: center; align-items: center; flex-direction: column;"">
      <div style=""display: flex; justify-content: center; align-items: center;"">
        <img src=""images/causal/causal_1/1.png"" style=""width: 300px; height: 300px; margin-right: 10px;"" />
        <img src=""images/causal/causal_1/2.png"" style=""width: 300px; height: 300px;"" />
      </div>
      <p>Does event 1 lead to event 2?</p>
    </div>","0","0","causal_1"
"","","","","","html-button-response","18","68835","0.0-18.0","","2010","
    <div style=""display: flex; justify-content: center; align-items: center; flex-direction: column;"">
      <div style=""display: flex; justify-content: center; align-items: center;"">
        <img src=""images/schematic/schematic_2/1.png"" style=""width: 300px; height: 300px; margin-right: 10px;"" />
        <img src=""images/schematic/schematic_2/2.png"" style=""width: 300px; height: 300px;"" />
      </div>
      <p>Does event 1 lead to event 2?</p>
    </div>","0","0","schematic_2"
"","","","","","html-button-response","19","70672","0.0-19.0","","1837","
    <div style=""display: flex; justify-content: center; align-items: center; flex-direction: column;"">
      <div style=""display: flex; justify-content: center; align-items: center;"">
        <img src=""images/schematic/schematic_5/1.png"" style=""width: 300px; height: 300px; margin-right: 10px;"" />
        <img src=""images/schematic/schematic_5/2.png"" style=""width: 300px; height: 300px;"" />
      </div>
      <p>Does event 1 lead to event 2?</p>
    </div>","0","0","schematic_5"
"","","","","","html-button-response","20","72859","0.0-20.0","","2186","
    <div style=""display: flex; justify-content: center; align-items: center; flex-direction: column;"">
      <div style=""display: flex; justify-content: center; align-items: center;"">
        <img src=""images/schematic/schematic_8/1.png"" style=""width: 300px; height: 300px; margin-right: 10px;"" />
        <img src=""images/schematic/schematic_8/2.png"" style=""width: 300px; height: 300px;"" />
      </div>
      <p>Does event 1 lead to event 2?</p>
    </div>","0","0","schematic_8"
"","","","","","html-button-response","21","78153","0.0-21.0","","5293","
    <div style=""display: flex; justify-content: center; align-items: center; flex-direction: column;"">
      <div style=""display: flex; justify-content: center; align-items: center;"">
        <img src=""images/causal/causal_7/1.png"" style=""width: 300px; height: 300px; margin-right: 10px;"" />
        <img src=""images/causal/causal_7/2.png"" style=""width: 300px; height: 300px;"" />
      </div>
      <p>Does event 1 lead to event 2?</p>
    </div>","0","0","causal_7"
"","","","","","html-button-response","22","80446","0.0-22.0","","2292","
    <div style=""display: flex; justify-content: center; align-items: center; flex-direction: column;"">
      <div style=""display: flex; justify-content: center; align-items: center;"">
        <img src=""images/semantic/semantic_6/1.png"" style=""width: 300px; height: 300px; margin-right: 10px;"" />
        <img src=""images/semantic/semantic_6/2.png"" style=""width: 300px; height: 300px;"" />
      </div>
      <p>Does event 1 lead to event 2?</p>
    </div>","1","1","semantic_6"
"","","","","","html-button-response","23","84432","0.0-23.0","","3986","
    <div style=""display: flex; justify-content: center; align-items: center; flex-direction: column;"">
      <div style=""display: flex; justify-content: center; align-items: center;"">
        <img src=""images/semantic/semantic_8/1.png"" style=""width: 300px; height: 300px; margin-right: 10px;"" />
        <img src=""images/semantic/semantic_8/2.png"" style=""width: 300px; height: 300px;"" />
      </div>
      <p>Does event 1 lead to event 2?</p>
    </div>","1","1","semantic_8"
"","","","","","html-button-response","24","86623","0.0-24.0","","2190","
    <div style=""display: flex; justify-content: center; align-items: center; flex-direction: column;"">
      <div style=""display: flex; justify-content: center; align-items: center;"">
        <img src=""images/semantic/semantic_2/1.png"" style=""width: 300px; height: 300px; margin-right: 10px;"" />
        <img src=""images/semantic/semantic_2/2.png"" style=""width: 300px; height: 300px;"" />
      </div>
      <p>Does event 1 lead to event 2?</p>
    </div>","1","1","semantic_2"
"","","","","","html-button-response","25","89998","0.0-25.0","","3374","
    <div style=""display: flex; justify-content: center; align-items: center; flex-direction: column;"">
      <div style=""display: flex; justify-content: center; align-items: center;"">
        <img src=""images/causal/causal_6/1.png"" style=""width: 300px; height: 300px; margin-right: 10px;"" />
        <img src=""images/causal/causal_6/2.png"" style=""width: 300px; height: 300px;"" />
      </div>
      <p>Does event 1 lead to event 2?</p>
    </div>","0","0","causal_6"
"","","","","","html-button-response","26","93473","0.0-26.0","","3475","
    <div style=""display: flex; justify-content: center; align-items: center; flex-direction: column;"">
      <div style=""display: flex; justify-content: center; align-items: center;"">
        <img src=""images/causal/causal_3/1.png"" style=""width: 300px; height: 300px; margin-right: 10px;"" />
        <img src=""images/causal/causal_3/2.png"" style=""width: 300px; height: 300px;"" />
      </div>
      <p>Does event 1 lead to event 2?</p>
    </div>","0","0","causal_3"
"","","","","","html-button-response","27","96243","0.0-27.0","","2770","
    <div style=""display: flex; justify-content: center; align-items: center; flex-direction: column;"">
      <div style=""display: flex; justify-content: center; align-items: center;"">
        <img src=""images/causal/causal_4/1.png"" style=""width: 300px; height: 300px; margin-right: 10px;"" />
        <img src=""images/causal/causal_4/2.png"" style=""width: 300px; height: 300px;"" />
      </div>
      <p>Does event 1 lead to event 2?</p>
    </div>","0","0","causal_4"
"","","","","","html-button-response","28","100432","0.0-28.0","","4189","
    <div style=""display: flex; justify-content: center; align-items: center; flex-direction: column;"">
      <div style=""display: flex; justify-content: center; align-items: center;"">
        <img src=""images/causal/causal_8/1.png"" style=""width: 300px; height: 300px; margin-right: 10px;"" />
        <img src=""images/causal/causal_8/2.png"" style=""width: 300px; height: 300px;"" />
      </div>
      <p>Does event 1 lead to event 2?</p>
    </div>","0","0","causal_8"
"","","","","","html-button-response","29","103748","0.0-29.0","","3314","
    <div style=""display: flex; justify-content: center; align-items: center; flex-direction: column;"">
      <div style=""display: flex; justify-content: center; align-items: center;"">
        <img src=""images/semantic/semantic_4/1.png"" style=""width: 300px; height: 300px; margin-right: 10px;"" />
        <img src=""images/semantic/semantic_4/2.png"" style=""width: 300px; height: 300px;"" />
      </div>
      <p>Does event 1 lead to event 2?</p>
    </div>","0","0","semantic_4"
"","","","","","html-button-response","30","106073","0.0-30.0","","2325","
    <div style=""display: flex; justify-content: center; align-items: center; flex-direction: column;"">
      <div style=""display: flex; justify-content: center; align-items: center;"">
        <img src=""images/semantic/semantic_5/1.png"" style=""width: 300px; height: 300px; margin-right: 10px;"" />
        <img src=""images/semantic/semantic_5/2.png"" style=""width: 300px; height: 300px;"" />
      </div>
      <p>Does event 1 lead to event 2?</p>
    </div>","1","1","semantic_5"
"","","","","","html-button-response","31","109907","0.0-31.0","","3833","
    <div style=""display: flex; justify-content: center; align-items: center; flex-direction: column;"">
      <div style=""display: flex; justify-content: center; align-items: center;"">
        <img src=""images/semantic/semantic_3/1.png"" style=""width: 300px; height: 300px; margin-right: 10px;"" />
        <img src=""images/semantic/semantic_3/2.png"" style=""width: 300px; height: 300px;"" />
      </div>
      <p>Does event 1 lead to event 2?</p>
    </div>","1","1","semantic_3"
"","","","","","html-button-response","32","113325","0.0-32.0","","3417","
    <div style=""display: flex; justify-content: center; align-items: center; flex-direction: column;"">
      <div style=""display: flex; justify-content: center; align-items: center;"">
        <img src=""images/semantic/semantic_1/1.png"" style=""width: 300px; height: 300px; margin-right: 10px;"" />
        <img src=""images/semantic/semantic_1/2.png"" style=""width: 300px; height: 300px;"" />
      </div>
      <p>Does event 1 lead to event 2?</p>
    </div>","1","1","semantic_1"
"","","","","","html-button-response","33","118314","0.0-33.0","","4988","
    <div style=""display: flex; justify-content: center; align-items: center; flex-direction: column;"">
      <div style=""display: flex; justify-content: center; align-items: center;"">
        <img src=""images/schematic/schematic_6/1.png"" style=""width: 300px; height: 300px; margin-right: 10px;"" />
        <img src=""images/schematic/schematic_6/2.png"" style=""width: 300px; height: 300px;"" />
      </div>
      <p>Does event 1 lead to event 2?</p>
    </div>","0","0","schematic_6"
"","","","","","survey-text","34","133366","0.0-34.0","","15048","","{""Q0"":""FEMALE"",""Q1"":""30""}","",""
"","","","","","instructions","35","147679","0.0-35.0","[{""page_index"":0,""viewing_time"":14313}]","14313","","","",""
"","","","","","survey-text","36","151753","0.0-36.0","","4073","","{""Q0"":""AJFHBG898""}","",""
