"success","timeout","failed_images","failed_audio","failed_video","trial_type","trial_index","time_elapsed","internal_node_id","subject_id","study_id","session_id","view_history","rt","stimulus","response","choice"
"true","false","[]","[]","[]","preload","0","4333","0.0-0.0","6D7BAF4403DD4517914461848AF27DAD","d0c6942e-2d4f-4a74-a9c7-d4b13fdd8df9","58046770-4c03-4bc2-b4bc-e7359011db5d","","","","",""
"","","","","","instructions","1","10362","0.0-1.0","6D7BAF4403DD4517914461848AF27DAD","d0c6942e-2d4f-4a74-a9c7-d4b13fdd8df9","58046770-4c03-4bc2-b4bc-e7359011db5d","[{""page_index"":0,""viewing_time"":6029}]","6029","","",""
"","","","","","instructions","2","14870","0.0-2.0","6D7BAF4403DD4517914461848AF27DAD","d0c6942e-2d4f-4a74-a9c7-d4b13fdd8df9","58046770-4c03-4bc2-b4bc-e7359011db5d","[{""page_index"":0,""viewing_time"":4506}]","4506","","",""
"true","","","","","fullscreen","3","17572","0.0-3.0","6D7BAF4403DD4517914461848AF27DAD","d0c6942e-2d4f-4a74-a9c7-d4b13fdd8df9","58046770-4c03-4bc2-b4bc-e7359011db5d","","1688","","",""
"","","","","","instructions","4","32271","0.0-4.0","6D7BAF4403DD4517914461848AF27DAD","d0c6942e-2d4f-4a74-a9c7-d4b13fdd8df9","58046770-4c03-4bc2-b4bc-e7359011db5d","[{""page_index"":0,""viewing_time"":14698}]","14699","","",""
"","","","","","html-keyboard-response","5","35286","0.0-5.0","6D7BAF4403DD4517914461848AF27DAD","d0c6942e-2d4f-4a74-a9c7-d4b13fdd8df9","58046770-4c03-4bc2-b4bc-e7359011db5d","","null","<div style=""display: flex; justify-content: center; align-items: center;"">
                <img src=""images/causal/causal_series_5/causal_series_5_a.jpg"" style=""width: 300px; height: 300px;"" />
              </div>","null",""
"","","","","","html-keyboard-response","6","38288","0.0-6.0","6D7BAF4403DD4517914461848AF27DAD","d0c6942e-2d4f-4a74-a9c7-d4b13fdd8df9","58046770-4c03-4bc2-b4bc-e7359011db5d","","null","<div style=""display: flex; justify-content: center; align-items: center;"">
                <img src=""images/causal/causal_series_5/causal_series_5_b.jpg"" style=""width: 300px; height: 300px;"" />
              </div>","null",""
"","","","","","html-keyboard-response","7","41303","0.0-7.0","6D7BAF4403DD4517914461848AF27DAD","d0c6942e-2d4f-4a74-a9c7-d4b13fdd8df9","58046770-4c03-4bc2-b4bc-e7359011db5d","","null","<div style=""display: flex; justify-content: center; align-items: center;"">
                <img src=""images/causal/causal_series_5/causal_series_5_c.jpg"" style=""width: 300px; height: 300px;"" />
              </div>","null",""
"","","","","","html-button-response","8","45778","0.0-8.0","6D7BAF4403DD4517914461848AF27DAD","d0c6942e-2d4f-4a74-a9c7-d4b13fdd8df9","58046770-4c03-4bc2-b4bc-e7359011db5d","","4475","
    <div style=""display: flex; justify-content: center; align-items: center;"">
      <img src=""images/red_deck_2.png"" style=""width: 300px; height: 300px; margin-right: 10px;"" />
      <img src=""images/blue_deck_1.png"" style=""width: 300px; height: 300px;"" />
    </div>","0","0"
"","","","","","html-keyboard-response","9","48792","0.0-9.0-0.0-0.0","6D7BAF4403DD4517914461848AF27DAD","d0c6942e-2d4f-4a74-a9c7-d4b13fdd8df9","58046770-4c03-4bc2-b4bc-e7359011db5d","","null","<div style=""display: flex; justify-content: center; align-items: center;"">
                <img src=""images/causal/causal_series_5/causal_series_5_d.jpg"" style=""width: 300px; height: 300px;"" />
              </div>","null",""
"","","","","","html-keyboard-response","10","51807","0.0-10.0","6D7BAF4403DD4517914461848AF27DAD","d0c6942e-2d4f-4a74-a9c7-d4b13fdd8df9","58046770-4c03-4bc2-b4bc-e7359011db5d","","null","<div style=""display: flex; justify-content: center; align-items: center;"">
                <img src=""images/other/blank.jpg"" style=""width: 300px; height: 300px;"" />
              </div>","null",""
"","","","","","html-keyboard-response","11","54858","0.0-11.0","6D7BAF4403DD4517914461848AF27DAD","d0c6942e-2d4f-4a74-a9c7-d4b13fdd8df9","58046770-4c03-4bc2-b4bc-e7359011db5d","","null","<div style=""display: flex; justify-content: center; align-items: center;"">
                <img src=""images/causal/causal_series_11/causal_series_11_a.jpg"" style=""width: 300px; height: 300px;"" />
              </div>","null",""
"","","","","","html-keyboard-response","12","57865","0.0-12.0","6D7BAF4403DD4517914461848AF27DAD","d0c6942e-2d4f-4a74-a9c7-d4b13fdd8df9","58046770-4c03-4bc2-b4bc-e7359011db5d","","null","<div style=""display: flex; justify-content: center; align-items: center;"">
                <img src=""images/causal/causal_series_11/causal_series_11_b.jpg"" style=""width: 300px; height: 300px;"" />
              </div>","null",""
"","","","","","html-keyboard-response","13","60865","0.0-13.0","6D7BAF4403DD4517914461848AF27DAD","d0c6942e-2d4f-4a74-a9c7-d4b13fdd8df9","58046770-4c03-4bc2-b4bc-e7359011db5d","","null","<div style=""display: flex; justify-content: center; align-items: center;"">
                <img src=""images/causal/causal_series_11/causal_series_11_c.jpg"" style=""width: 300px; height: 300px;"" />
              </div>","null",""
"","","","","","html-button-response","14","63574","0.0-14.0","6D7BAF4403DD4517914461848AF27DAD","d0c6942e-2d4f-4a74-a9c7-d4b13fdd8df9","58046770-4c03-4bc2-b4bc-e7359011db5d","","2708","
    <div style=""display: flex; justify-content: center; align-items: center;"">
      <img src=""images/red_deck_2.png"" style=""width: 300px; height: 300px; margin-right: 10px;"" />
      <img src=""images/blue_deck_1.png"" style=""width: 300px; height: 300px;"" />
    </div>","0","0"
"","","","","","html-keyboard-response","15","66695","0.0-15.0-0.0-0.0","6D7BAF4403DD4517914461848AF27DAD","d0c6942e-2d4f-4a74-a9c7-d4b13fdd8df9","58046770-4c03-4bc2-b4bc-e7359011db5d","","null","<div style=""display: flex; justify-content: center; align-items: center;"">
                <img src=""images/causal/causal_series_11/causal_series_11_d.jpg"" style=""width: 300px; height: 300px;"" />
              </div>","null",""
"","","","","","html-keyboard-response","16","69703","0.0-16.0","6D7BAF4403DD4517914461848AF27DAD","d0c6942e-2d4f-4a74-a9c7-d4b13fdd8df9","58046770-4c03-4bc2-b4bc-e7359011db5d","","null","<div style=""display: flex; justify-content: center; align-items: center;"">
                <img src=""images/other/blank.jpg"" style=""width: 300px; height: 300px;"" />
              </div>","null",""
"","","","","","html-keyboard-response","17","72716","0.0-17.0","6D7BAF4403DD4517914461848AF27DAD","d0c6942e-2d4f-4a74-a9c7-d4b13fdd8df9","58046770-4c03-4bc2-b4bc-e7359011db5d","","null","<div style=""display: flex; justify-content: center; align-items: center;"">
                <img src=""images/causal/causal_series_6/causal_series_6_a.jpg"" style=""width: 300px; height: 300px;"" />
              </div>","null",""
"","","","","","html-keyboard-response","18","76000","0.0-18.0","6D7BAF4403DD4517914461848AF27DAD","d0c6942e-2d4f-4a74-a9c7-d4b13fdd8df9","58046770-4c03-4bc2-b4bc-e7359011db5d","","null","<div style=""display: flex; justify-content: center; align-items: center;"">
                <img src=""images/causal/causal_series_6/causal_series_6_b.jpg"" style=""width: 300px; height: 300px;"" />
              </div>","null",""
"","","","","","html-keyboard-response","19","79002","0.0-19.0","6D7BAF4403DD4517914461848AF27DAD","d0c6942e-2d4f-4a74-a9c7-d4b13fdd8df9","58046770-4c03-4bc2-b4bc-e7359011db5d","","null","<div style=""display: flex; justify-content: center; align-items: center;"">
                <img src=""images/causal/causal_series_6/causal_series_6_c.jpg"" style=""width: 300px; height: 300px;"" />
              </div>","null",""
"","","","","","html-button-response","20","80007","0.0-20.0","6D7BAF4403DD4517914461848AF27DAD","d0c6942e-2d4f-4a74-a9c7-d4b13fdd8df9","58046770-4c03-4bc2-b4bc-e7359011db5d","","1005","
    <div style=""display: flex; justify-content: center; align-items: center;"">
      <img src=""images/red_deck_2.png"" style=""width: 300px; height: 300px; margin-right: 10px;"" />
      <img src=""images/blue_deck_1.png"" style=""width: 300px; height: 300px;"" />
    </div>","0","0"
"","","","","","html-keyboard-response","21","83010","0.0-21.0-0.0-0.0","6D7BAF4403DD4517914461848AF27DAD","d0c6942e-2d4f-4a74-a9c7-d4b13fdd8df9","58046770-4c03-4bc2-b4bc-e7359011db5d","","null","<div style=""display: flex; justify-content: center; align-items: center;"">
                <img src=""images/causal/causal_series_6/causal_series_6_d.jpg"" style=""width: 300px; height: 300px;"" />
              </div>","null",""
"","","","","","html-keyboard-response","22","86024","0.0-22.0","6D7BAF4403DD4517914461848AF27DAD","d0c6942e-2d4f-4a74-a9c7-d4b13fdd8df9","58046770-4c03-4bc2-b4bc-e7359011db5d","","null","<div style=""display: flex; justify-content: center; align-items: center;"">
                <img src=""images/other/blank.jpg"" style=""width: 300px; height: 300px;"" />
              </div>","null",""
"","","","","","html-keyboard-response","23","89030","0.0-23.0","6D7BAF4403DD4517914461848AF27DAD","d0c6942e-2d4f-4a74-a9c7-d4b13fdd8df9","58046770-4c03-4bc2-b4bc-e7359011db5d","","null","<div style=""display: flex; justify-content: center; align-items: center;"">
                <img src=""images/causal/causal_series_18/causal_series_18_a.jpg"" style=""width: 300px; height: 300px;"" />
              </div>","null",""
"","","","","","html-keyboard-response","24","92033","0.0-24.0","6D7BAF4403DD4517914461848AF27DAD","d0c6942e-2d4f-4a74-a9c7-d4b13fdd8df9","58046770-4c03-4bc2-b4bc-e7359011db5d","","null","<div style=""display: flex; justify-content: center; align-items: center;"">
                <img src=""images/causal/causal_series_18/causal_series_18_b.jpg"" style=""width: 300px; height: 300px;"" />
              </div>","null",""
"","","","","","html-keyboard-response","25","95050","0.0-25.0","6D7BAF4403DD4517914461848AF27DAD","d0c6942e-2d4f-4a74-a9c7-d4b13fdd8df9","58046770-4c03-4bc2-b4bc-e7359011db5d","","null","<div style=""display: flex; justify-content: center; align-items: center;"">
                <img src=""images/causal/causal_series_18/causal_series_18_c.jpg"" style=""width: 300px; height: 300px;"" />
              </div>","null",""
"","","","","","html-button-response","26","96019","0.0-26.0","6D7BAF4403DD4517914461848AF27DAD","d0c6942e-2d4f-4a74-a9c7-d4b13fdd8df9","58046770-4c03-4bc2-b4bc-e7359011db5d","","970","
    <div style=""display: flex; justify-content: center; align-items: center;"">
      <img src=""images/red_deck_2.png"" style=""width: 300px; height: 300px; margin-right: 10px;"" />
      <img src=""images/blue_deck_1.png"" style=""width: 300px; height: 300px;"" />
    </div>","0","0"
"","","","","","html-keyboard-response","27","99025","0.0-27.0-0.0-0.0","6D7BAF4403DD4517914461848AF27DAD","d0c6942e-2d4f-4a74-a9c7-d4b13fdd8df9","58046770-4c03-4bc2-b4bc-e7359011db5d","","null","<div style=""display: flex; justify-content: center; align-items: center;"">
                <img src=""images/causal/causal_series_18/causal_series_18_d.jpg"" style=""width: 300px; height: 300px;"" />
              </div>","null",""
"","","","","","html-keyboard-response","28","102040","0.0-28.0","6D7BAF4403DD4517914461848AF27DAD","d0c6942e-2d4f-4a74-a9c7-d4b13fdd8df9","58046770-4c03-4bc2-b4bc-e7359011db5d","","null","<div style=""display: flex; justify-content: center; align-items: center;"">
                <img src=""images/other/blank.jpg"" style=""width: 300px; height: 300px;"" />
              </div>","null",""
"","","","","","html-keyboard-response","29","105045","0.0-29.0","6D7BAF4403DD4517914461848AF27DAD","d0c6942e-2d4f-4a74-a9c7-d4b13fdd8df9","58046770-4c03-4bc2-b4bc-e7359011db5d","","null","<div style=""display: flex; justify-content: center; align-items: center;"">
                <img src=""images/causal/causal_series_4/causal_series_4_a.jpg"" style=""width: 300px; height: 300px;"" />
              </div>","null",""
"","","","","","html-keyboard-response","30","108049","0.0-30.0","6D7BAF4403DD4517914461848AF27DAD","d0c6942e-2d4f-4a74-a9c7-d4b13fdd8df9","58046770-4c03-4bc2-b4bc-e7359011db5d","","null","<div style=""display: flex; justify-content: center; align-items: center;"">
                <img src=""images/causal/causal_series_4/causal_series_4_b.jpg"" style=""width: 300px; height: 300px;"" />
              </div>","null",""
"","","","","","html-keyboard-response","31","111311","0.0-31.0","6D7BAF4403DD4517914461848AF27DAD","d0c6942e-2d4f-4a74-a9c7-d4b13fdd8df9","58046770-4c03-4bc2-b4bc-e7359011db5d","","null","<div style=""display: flex; justify-content: center; align-items: center;"">
                <img src=""images/causal/causal_series_4/causal_series_4_c.jpg"" style=""width: 300px; height: 300px;"" />
              </div>","null",""
"","","","","","html-button-response","32","112594","0.0-32.0","6D7BAF4403DD4517914461848AF27DAD","d0c6942e-2d4f-4a74-a9c7-d4b13fdd8df9","58046770-4c03-4bc2-b4bc-e7359011db5d","","1283","
    <div style=""display: flex; justify-content: center; align-items: center;"">
      <img src=""images/red_deck_2.png"" style=""width: 300px; height: 300px; margin-right: 10px;"" />
      <img src=""images/blue_deck_1.png"" style=""width: 300px; height: 300px;"" />
    </div>","0","0"
"","","","","","html-keyboard-response","33","115602","0.0-33.0-0.0-0.0","6D7BAF4403DD4517914461848AF27DAD","d0c6942e-2d4f-4a74-a9c7-d4b13fdd8df9","58046770-4c03-4bc2-b4bc-e7359011db5d","","null","<div style=""display: flex; justify-content: center; align-items: center;"">
                <img src=""images/causal/causal_series_4/causal_series_4_d.jpg"" style=""width: 300px; height: 300px;"" />
              </div>","null",""
"","","","","","html-keyboard-response","34","118614","0.0-34.0","6D7BAF4403DD4517914461848AF27DAD","d0c6942e-2d4f-4a74-a9c7-d4b13fdd8df9","58046770-4c03-4bc2-b4bc-e7359011db5d","","null","<div style=""display: flex; justify-content: center; align-items: center;"">
                <img src=""images/other/blank.jpg"" style=""width: 300px; height: 300px;"" />
              </div>","null",""
"","","","","","html-keyboard-response","35","121626","0.0-35.0","6D7BAF4403DD4517914461848AF27DAD","d0c6942e-2d4f-4a74-a9c7-d4b13fdd8df9","58046770-4c03-4bc2-b4bc-e7359011db5d","","null","<div style=""display: flex; justify-content: center; align-items: center;"">
                <img src=""images/causal/causal_series_16/causal_series_16_a.jpg"" style=""width: 300px; height: 300px;"" />
              </div>","null",""
"","","","","","html-keyboard-response","36","124627","0.0-36.0","6D7BAF4403DD4517914461848AF27DAD","d0c6942e-2d4f-4a74-a9c7-d4b13fdd8df9","58046770-4c03-4bc2-b4bc-e7359011db5d","","null","<div style=""display: flex; justify-content: center; align-items: center;"">
                <img src=""images/causal/causal_series_16/causal_series_16_b.jpg"" style=""width: 300px; height: 300px;"" />
              </div>","null",""
"","","","","","html-keyboard-response","37","127628","0.0-37.0","6D7BAF4403DD4517914461848AF27DAD","d0c6942e-2d4f-4a74-a9c7-d4b13fdd8df9","58046770-4c03-4bc2-b4bc-e7359011db5d","","null","<div style=""display: flex; justify-content: center; align-items: center;"">
                <img src=""images/causal/causal_series_16/causal_series_16_c.jpg"" style=""width: 300px; height: 300px;"" />
              </div>","null",""
"","","","","","html-button-response","38","132022","0.0-38.0","6D7BAF4403DD4517914461848AF27DAD","d0c6942e-2d4f-4a74-a9c7-d4b13fdd8df9","58046770-4c03-4bc2-b4bc-e7359011db5d","","4393","
    <div style=""display: flex; justify-content: center; align-items: center;"">
      <img src=""images/red_deck_2.png"" style=""width: 300px; height: 300px; margin-right: 10px;"" />
      <img src=""images/blue_deck_1.png"" style=""width: 300px; height: 300px;"" />
    </div>","0","0"
"","","","","","html-keyboard-response","39","135145","0.0-39.0-0.0-0.0","6D7BAF4403DD4517914461848AF27DAD","d0c6942e-2d4f-4a74-a9c7-d4b13fdd8df9","58046770-4c03-4bc2-b4bc-e7359011db5d","","null","<div style=""display: flex; justify-content: center; align-items: center;"">
                <img src=""images/causal/causal_series_16/causal_series_16_d.jpg"" style=""width: 300px; height: 300px;"" />
              </div>","null",""
"","","","","","html-keyboard-response","40","138146","0.0-40.0","6D7BAF4403DD4517914461848AF27DAD","d0c6942e-2d4f-4a74-a9c7-d4b13fdd8df9","58046770-4c03-4bc2-b4bc-e7359011db5d","","null","<div style=""display: flex; justify-content: center; align-items: center;"">
                <img src=""images/other/blank.jpg"" style=""width: 300px; height: 300px;"" />
              </div>","null",""
"","","","","","html-keyboard-response","41","141151","0.0-41.0","6D7BAF4403DD4517914461848AF27DAD","d0c6942e-2d4f-4a74-a9c7-d4b13fdd8df9","58046770-4c03-4bc2-b4bc-e7359011db5d","","null","<div style=""display: flex; justify-content: center; align-items: center;"">
                <img src=""images/causal/causal_series_2/causal_series_2_a.jpg"" style=""width: 300px; height: 300px;"" />
              </div>","null",""
"","","","","","html-keyboard-response","42","144159","0.0-42.0","6D7BAF4403DD4517914461848AF27DAD","d0c6942e-2d4f-4a74-a9c7-d4b13fdd8df9","58046770-4c03-4bc2-b4bc-e7359011db5d","","null","<div style=""display: flex; justify-content: center; align-items: center;"">
                <img src=""images/causal/causal_series_2/causal_series_2_b.jpg"" style=""width: 300px; height: 300px;"" />
              </div>","null",""
"","","","","","html-keyboard-response","43","147170","0.0-43.0","6D7BAF4403DD4517914461848AF27DAD","d0c6942e-2d4f-4a74-a9c7-d4b13fdd8df9","58046770-4c03-4bc2-b4bc-e7359011db5d","","null","<div style=""display: flex; justify-content: center; align-items: center;"">
                <img src=""images/causal/causal_series_2/causal_series_2_c.jpg"" style=""width: 300px; height: 300px;"" />
              </div>","null",""
"","","","","","html-button-response","44","147901","0.0-44.0","6D7BAF4403DD4517914461848AF27DAD","d0c6942e-2d4f-4a74-a9c7-d4b13fdd8df9","58046770-4c03-4bc2-b4bc-e7359011db5d","","730","
    <div style=""display: flex; justify-content: center; align-items: center;"">
      <img src=""images/red_deck_2.png"" style=""width: 300px; height: 300px; margin-right: 10px;"" />
      <img src=""images/blue_deck_1.png"" style=""width: 300px; height: 300px;"" />
    </div>","1","1"
"","","","","","html-keyboard-response","45","150910","0.0-45.0-1.0-0.0","6D7BAF4403DD4517914461848AF27DAD","d0c6942e-2d4f-4a74-a9c7-d4b13fdd8df9","58046770-4c03-4bc2-b4bc-e7359011db5d","","null","<div style=""display: flex; justify-content: center; align-items: center;"">
                <img src=""images/semantic/semantic_series_1/semantic_series_1_d.jpg"" style=""width: 300px; height: 300px;"" />
              </div>","null",""
"","","","","","html-keyboard-response","46","153911","0.0-46.0","6D7BAF4403DD4517914461848AF27DAD","d0c6942e-2d4f-4a74-a9c7-d4b13fdd8df9","58046770-4c03-4bc2-b4bc-e7359011db5d","","null","<div style=""display: flex; justify-content: center; align-items: center;"">
                <img src=""images/other/blank.jpg"" style=""width: 300px; height: 300px;"" />
              </div>","null",""
"","","","","","html-keyboard-response","47","156912","0.0-47.0","6D7BAF4403DD4517914461848AF27DAD","d0c6942e-2d4f-4a74-a9c7-d4b13fdd8df9","58046770-4c03-4bc2-b4bc-e7359011db5d","","null","<div style=""display: flex; justify-content: center; align-items: center;"">
                <img src=""images/causal/causal_series_9/causal_series_9_a.jpg"" style=""width: 300px; height: 300px;"" />
              </div>","null",""
"","","","","","html-keyboard-response","48","159919","0.0-48.0","6D7BAF4403DD4517914461848AF27DAD","d0c6942e-2d4f-4a74-a9c7-d4b13fdd8df9","58046770-4c03-4bc2-b4bc-e7359011db5d","","null","<div style=""display: flex; justify-content: center; align-items: center;"">
                <img src=""images/causal/causal_series_9/causal_series_9_b.jpg"" style=""width: 300px; height: 300px;"" />
              </div>","null",""
"","","","","","html-keyboard-response","49","162925","0.0-49.0","6D7BAF4403DD4517914461848AF27DAD","d0c6942e-2d4f-4a74-a9c7-d4b13fdd8df9","58046770-4c03-4bc2-b4bc-e7359011db5d","","null","<div style=""display: flex; justify-content: center; align-items: center;"">
                <img src=""images/causal/causal_series_9/causal_series_9_c.jpg"" style=""width: 300px; height: 300px;"" />
              </div>","null",""
"","","","","","html-button-response","50","164788","0.0-50.0","6D7BAF4403DD4517914461848AF27DAD","d0c6942e-2d4f-4a74-a9c7-d4b13fdd8df9","58046770-4c03-4bc2-b4bc-e7359011db5d","","1863","
    <div style=""display: flex; justify-content: center; align-items: center;"">
      <img src=""images/red_deck_2.png"" style=""width: 300px; height: 300px; margin-right: 10px;"" />
      <img src=""images/blue_deck_1.png"" style=""width: 300px; height: 300px;"" />
    </div>","0","0"
"","","","","","html-keyboard-response","51","167792","0.0-51.0-0.0-0.0","6D7BAF4403DD4517914461848AF27DAD","d0c6942e-2d4f-4a74-a9c7-d4b13fdd8df9","58046770-4c03-4bc2-b4bc-e7359011db5d","","null","<div style=""display: flex; justify-content: center; align-items: center;"">
                <img src=""images/causal/causal_series_9/causal_series_9_d.jpg"" style=""width: 300px; height: 300px;"" />
              </div>","null",""
"","","","","","html-keyboard-response","52","170874","0.0-52.0","6D7BAF4403DD4517914461848AF27DAD","d0c6942e-2d4f-4a74-a9c7-d4b13fdd8df9","58046770-4c03-4bc2-b4bc-e7359011db5d","","null","<div style=""display: flex; justify-content: center; align-items: center;"">
                <img src=""images/other/blank.jpg"" style=""width: 300px; height: 300px;"" />
              </div>","null",""
"","","","","","html-keyboard-response","53","174024","0.0-53.0","6D7BAF4403DD4517914461848AF27DAD","d0c6942e-2d4f-4a74-a9c7-d4b13fdd8df9","58046770-4c03-4bc2-b4bc-e7359011db5d","","null","<div style=""display: flex; justify-content: center; align-items: center;"">
                <img src=""images/causal/causal_series_17/causal_series_17_a.jpg"" style=""width: 300px; height: 300px;"" />
              </div>","null",""
"","","","","","html-keyboard-response","54","177027","0.0-54.0","6D7BAF4403DD4517914461848AF27DAD","d0c6942e-2d4f-4a74-a9c7-d4b13fdd8df9","58046770-4c03-4bc2-b4bc-e7359011db5d","","null","<div style=""display: flex; justify-content: center; align-items: center;"">
                <img src=""images/causal/causal_series_17/causal_series_17_b.jpg"" style=""width: 300px; height: 300px;"" />
              </div>","null",""
"","","","","","html-keyboard-response","55","180036","0.0-55.0","6D7BAF4403DD4517914461848AF27DAD","d0c6942e-2d4f-4a74-a9c7-d4b13fdd8df9","58046770-4c03-4bc2-b4bc-e7359011db5d","","null","<div style=""display: flex; justify-content: center; align-items: center;"">
                <img src=""images/causal/causal_series_17/causal_series_17_c.jpg"" style=""width: 300px; height: 300px;"" />
              </div>","null",""
"","","","","","html-button-response","56","183051","0.0-56.0","6D7BAF4403DD4517914461848AF27DAD","d0c6942e-2d4f-4a74-a9c7-d4b13fdd8df9","58046770-4c03-4bc2-b4bc-e7359011db5d","","3015","
    <div style=""display: flex; justify-content: center; align-items: center;"">
      <img src=""images/red_deck_2.png"" style=""width: 300px; height: 300px; margin-right: 10px;"" />
      <img src=""images/blue_deck_1.png"" style=""width: 300px; height: 300px;"" />
    </div>","0","0"
"","","","","","html-keyboard-response","57","186223","0.0-57.0-0.0-0.0","6D7BAF4403DD4517914461848AF27DAD","d0c6942e-2d4f-4a74-a9c7-d4b13fdd8df9","58046770-4c03-4bc2-b4bc-e7359011db5d","","null","<div style=""display: flex; justify-content: center; align-items: center;"">
                <img src=""images/causal/causal_series_17/causal_series_17_d.jpg"" style=""width: 300px; height: 300px;"" />
              </div>","null",""
"","","","","","html-keyboard-response","58","189235","0.0-58.0","6D7BAF4403DD4517914461848AF27DAD","d0c6942e-2d4f-4a74-a9c7-d4b13fdd8df9","58046770-4c03-4bc2-b4bc-e7359011db5d","","null","<div style=""display: flex; justify-content: center; align-items: center;"">
                <img src=""images/other/blank.jpg"" style=""width: 300px; height: 300px;"" />
              </div>","null",""
"","","","","","html-keyboard-response","59","192239","0.0-59.0","6D7BAF4403DD4517914461848AF27DAD","d0c6942e-2d4f-4a74-a9c7-d4b13fdd8df9","58046770-4c03-4bc2-b4bc-e7359011db5d","","null","<div style=""display: flex; justify-content: center; align-items: center;"">
                <img src=""images/causal/causal_series_14/causal_series_14_a.jpg"" style=""width: 300px; height: 300px;"" />
              </div>","null",""
"","","","","","html-keyboard-response","60","195247","0.0-60.0","6D7BAF4403DD4517914461848AF27DAD","d0c6942e-2d4f-4a74-a9c7-d4b13fdd8df9","58046770-4c03-4bc2-b4bc-e7359011db5d","","null","<div style=""display: flex; justify-content: center; align-items: center;"">
                <img src=""images/causal/causal_series_14/causal_series_14_b.jpg"" style=""width: 300px; height: 300px;"" />
              </div>","null",""
"","","","","","html-keyboard-response","61","198256","0.0-61.0","6D7BAF4403DD4517914461848AF27DAD","d0c6942e-2d4f-4a74-a9c7-d4b13fdd8df9","58046770-4c03-4bc2-b4bc-e7359011db5d","","null","<div style=""display: flex; justify-content: center; align-items: center;"">
                <img src=""images/causal/causal_series_14/causal_series_14_c.jpg"" style=""width: 300px; height: 300px;"" />
              </div>","null",""
"","","","","","html-button-response","62","199545","0.0-62.0","6D7BAF4403DD4517914461848AF27DAD","d0c6942e-2d4f-4a74-a9c7-d4b13fdd8df9","58046770-4c03-4bc2-b4bc-e7359011db5d","","1289","
    <div style=""display: flex; justify-content: center; align-items: center;"">
      <img src=""images/red_deck_2.png"" style=""width: 300px; height: 300px; margin-right: 10px;"" />
      <img src=""images/blue_deck_1.png"" style=""width: 300px; height: 300px;"" />
    </div>","0","0"
"","","","","","html-keyboard-response","63","202558","0.0-63.0-0.0-0.0","6D7BAF4403DD4517914461848AF27DAD","d0c6942e-2d4f-4a74-a9c7-d4b13fdd8df9","58046770-4c03-4bc2-b4bc-e7359011db5d","","null","<div style=""display: flex; justify-content: center; align-items: center;"">
                <img src=""images/causal/causal_series_14/causal_series_14_d.jpg"" style=""width: 300px; height: 300px;"" />
              </div>","null",""
"","","","","","html-keyboard-response","64","205564","0.0-64.0","6D7BAF4403DD4517914461848AF27DAD","d0c6942e-2d4f-4a74-a9c7-d4b13fdd8df9","58046770-4c03-4bc2-b4bc-e7359011db5d","","null","<div style=""display: flex; justify-content: center; align-items: center;"">
                <img src=""images/other/blank.jpg"" style=""width: 300px; height: 300px;"" />
              </div>","null",""
"","","","","","html-keyboard-response","65","208568","0.0-65.0","6D7BAF4403DD4517914461848AF27DAD","d0c6942e-2d4f-4a74-a9c7-d4b13fdd8df9","58046770-4c03-4bc2-b4bc-e7359011db5d","","null","<div style=""display: flex; justify-content: center; align-items: center;"">
                <img src=""images/causal/causal_series_15/causal_series_15_a.jpg"" style=""width: 300px; height: 300px;"" />
              </div>","null",""
"","","","","","html-keyboard-response","66","211569","0.0-66.0","6D7BAF4403DD4517914461848AF27DAD","d0c6942e-2d4f-4a74-a9c7-d4b13fdd8df9","58046770-4c03-4bc2-b4bc-e7359011db5d","","null","<div style=""display: flex; justify-content: center; align-items: center;"">
                <img src=""images/causal/causal_series_15/causal_series_15_b.jpg"" style=""width: 300px; height: 300px;"" />
              </div>","null",""
"","","","","","html-keyboard-response","67","214583","0.0-67.0","6D7BAF4403DD4517914461848AF27DAD","d0c6942e-2d4f-4a74-a9c7-d4b13fdd8df9","58046770-4c03-4bc2-b4bc-e7359011db5d","","null","<div style=""display: flex; justify-content: center; align-items: center;"">
                <img src=""images/causal/causal_series_15/causal_series_15_c.jpg"" style=""width: 300px; height: 300px;"" />
              </div>","null",""
"","","","","","html-button-response","68","216021","0.0-68.0","6D7BAF4403DD4517914461848AF27DAD","d0c6942e-2d4f-4a74-a9c7-d4b13fdd8df9","58046770-4c03-4bc2-b4bc-e7359011db5d","","1437","
    <div style=""display: flex; justify-content: center; align-items: center;"">
      <img src=""images/red_deck_2.png"" style=""width: 300px; height: 300px; margin-right: 10px;"" />
      <img src=""images/blue_deck_1.png"" style=""width: 300px; height: 300px;"" />
    </div>","1","1"
"","","","","","html-keyboard-response","69","219022","0.0-69.0-1.0-0.0","6D7BAF4403DD4517914461848AF27DAD","d0c6942e-2d4f-4a74-a9c7-d4b13fdd8df9","58046770-4c03-4bc2-b4bc-e7359011db5d","","null","<div style=""display: flex; justify-content: center; align-items: center;"">
                <img src=""images/semantic/semantic_series_14/semantic_series_14_d.jpg"" style=""width: 300px; height: 300px;"" />
              </div>","null",""
"","","","","","html-keyboard-response","70","222029","0.0-70.0","6D7BAF4403DD4517914461848AF27DAD","d0c6942e-2d4f-4a74-a9c7-d4b13fdd8df9","58046770-4c03-4bc2-b4bc-e7359011db5d","","null","<div style=""display: flex; justify-content: center; align-items: center;"">
                <img src=""images/other/blank.jpg"" style=""width: 300px; height: 300px;"" />
              </div>","null",""
"","","","","","html-keyboard-response","71","225031","0.0-71.0","6D7BAF4403DD4517914461848AF27DAD","d0c6942e-2d4f-4a74-a9c7-d4b13fdd8df9","58046770-4c03-4bc2-b4bc-e7359011db5d","","null","<div style=""display: flex; justify-content: center; align-items: center;"">
                <img src=""images/causal/causal_series_10/causal_series_10_a.jpg"" style=""width: 300px; height: 300px;"" />
              </div>","null",""
"","","","","","html-keyboard-response","72","228310","0.0-72.0","6D7BAF4403DD4517914461848AF27DAD","d0c6942e-2d4f-4a74-a9c7-d4b13fdd8df9","58046770-4c03-4bc2-b4bc-e7359011db5d","","null","<div style=""display: flex; justify-content: center; align-items: center;"">
                <img src=""images/causal/causal_series_10/causal_series_10_b.jpg"" style=""width: 300px; height: 300px;"" />
              </div>","null",""
"","","","","","html-keyboard-response","73","231316","0.0-73.0","6D7BAF4403DD4517914461848AF27DAD","d0c6942e-2d4f-4a74-a9c7-d4b13fdd8df9","58046770-4c03-4bc2-b4bc-e7359011db5d","","null","<div style=""display: flex; justify-content: center; align-items: center;"">
                <img src=""images/causal/causal_series_10/causal_series_10_c.jpg"" style=""width: 300px; height: 300px;"" />
              </div>","null",""
"","","","","","html-button-response","74","233620","0.0-74.0","6D7BAF4403DD4517914461848AF27DAD","d0c6942e-2d4f-4a74-a9c7-d4b13fdd8df9","58046770-4c03-4bc2-b4bc-e7359011db5d","","2303","
    <div style=""display: flex; justify-content: center; align-items: center;"">
      <img src=""images/red_deck_2.png"" style=""width: 300px; height: 300px; margin-right: 10px;"" />
      <img src=""images/blue_deck_1.png"" style=""width: 300px; height: 300px;"" />
    </div>","0","0"
"","","","","","html-keyboard-response","75","236633","0.0-75.0-0.0-0.0","6D7BAF4403DD4517914461848AF27DAD","d0c6942e-2d4f-4a74-a9c7-d4b13fdd8df9","58046770-4c03-4bc2-b4bc-e7359011db5d","","null","<div style=""display: flex; justify-content: center; align-items: center;"">
                <img src=""images/causal/causal_series_10/causal_series_10_d.jpg"" style=""width: 300px; height: 300px;"" />
              </div>","null",""
"","","","","","html-keyboard-response","76","239634","0.0-76.0","6D7BAF4403DD4517914461848AF27DAD","d0c6942e-2d4f-4a74-a9c7-d4b13fdd8df9","58046770-4c03-4bc2-b4bc-e7359011db5d","","null","<div style=""display: flex; justify-content: center; align-items: center;"">
                <img src=""images/other/blank.jpg"" style=""width: 300px; height: 300px;"" />
              </div>","null",""
"","","","","","html-keyboard-response","77","242637","0.0-77.0","6D7BAF4403DD4517914461848AF27DAD","d0c6942e-2d4f-4a74-a9c7-d4b13fdd8df9","58046770-4c03-4bc2-b4bc-e7359011db5d","","null","<div style=""display: flex; justify-content: center; align-items: center;"">
                <img src=""images/causal/causal_series_7/causal_series_7_a.jpg"" style=""width: 300px; height: 300px;"" />
              </div>","null",""
"","","","","","html-keyboard-response","78","245956","0.0-78.0","6D7BAF4403DD4517914461848AF27DAD","d0c6942e-2d4f-4a74-a9c7-d4b13fdd8df9","58046770-4c03-4bc2-b4bc-e7359011db5d","","null","<div style=""display: flex; justify-content: center; align-items: center;"">
                <img src=""images/causal/causal_series_7/causal_series_7_b.jpg"" style=""width: 300px; height: 300px;"" />
              </div>","null",""
"","","","","","html-keyboard-response","79","248970","0.0-79.0","6D7BAF4403DD4517914461848AF27DAD","d0c6942e-2d4f-4a74-a9c7-d4b13fdd8df9","58046770-4c03-4bc2-b4bc-e7359011db5d","","null","<div style=""display: flex; justify-content: center; align-items: center;"">
                <img src=""images/causal/causal_series_7/causal_series_7_c.jpg"" style=""width: 300px; height: 300px;"" />
              </div>","null",""
"","","","","","html-button-response","80","250710","0.0-80.0","6D7BAF4403DD4517914461848AF27DAD","d0c6942e-2d4f-4a74-a9c7-d4b13fdd8df9","58046770-4c03-4bc2-b4bc-e7359011db5d","","1738","
    <div style=""display: flex; justify-content: center; align-items: center;"">
      <img src=""images/red_deck_2.png"" style=""width: 300px; height: 300px; margin-right: 10px;"" />
      <img src=""images/blue_deck_1.png"" style=""width: 300px; height: 300px;"" />
    </div>","0","0"
"","","","","","html-keyboard-response","81","253723","0.0-81.0-0.0-0.0","6D7BAF4403DD4517914461848AF27DAD","d0c6942e-2d4f-4a74-a9c7-d4b13fdd8df9","58046770-4c03-4bc2-b4bc-e7359011db5d","","null","<div style=""display: flex; justify-content: center; align-items: center;"">
                <img src=""images/causal/causal_series_7/causal_series_7_d.jpg"" style=""width: 300px; height: 300px;"" />
              </div>","null",""
"","","","","","html-keyboard-response","82","256728","0.0-82.0","6D7BAF4403DD4517914461848AF27DAD","d0c6942e-2d4f-4a74-a9c7-d4b13fdd8df9","58046770-4c03-4bc2-b4bc-e7359011db5d","","null","<div style=""display: flex; justify-content: center; align-items: center;"">
                <img src=""images/other/blank.jpg"" style=""width: 300px; height: 300px;"" />
              </div>","null",""
"","","","","","html-keyboard-response","83","259734","0.0-83.0","6D7BAF4403DD4517914461848AF27DAD","d0c6942e-2d4f-4a74-a9c7-d4b13fdd8df9","58046770-4c03-4bc2-b4bc-e7359011db5d","","null","<div style=""display: flex; justify-content: center; align-items: center;"">
                <img src=""images/causal/causal_series_13/causal_series_13_a.jpg"" style=""width: 300px; height: 300px;"" />
              </div>","null",""
"","","","","","html-keyboard-response","84","262740","0.0-84.0","6D7BAF4403DD4517914461848AF27DAD","d0c6942e-2d4f-4a74-a9c7-d4b13fdd8df9","58046770-4c03-4bc2-b4bc-e7359011db5d","","null","<div style=""display: flex; justify-content: center; align-items: center;"">
                <img src=""images/causal/causal_series_13/causal_series_13_b.jpg"" style=""width: 300px; height: 300px;"" />
              </div>","null",""
"","","","","","html-keyboard-response","85","265790","0.0-85.0","6D7BAF4403DD4517914461848AF27DAD","d0c6942e-2d4f-4a74-a9c7-d4b13fdd8df9","58046770-4c03-4bc2-b4bc-e7359011db5d","","null","<div style=""display: flex; justify-content: center; align-items: center;"">
                <img src=""images/causal/causal_series_13/causal_series_13_c.jpg"" style=""width: 300px; height: 300px;"" />
              </div>","null",""
"","","","","","html-button-response","86","267560","0.0-86.0","6D7BAF4403DD4517914461848AF27DAD","d0c6942e-2d4f-4a74-a9c7-d4b13fdd8df9","58046770-4c03-4bc2-b4bc-e7359011db5d","","1770","
    <div style=""display: flex; justify-content: center; align-items: center;"">
      <img src=""images/red_deck_2.png"" style=""width: 300px; height: 300px; margin-right: 10px;"" />
      <img src=""images/blue_deck_1.png"" style=""width: 300px; height: 300px;"" />
    </div>","1","1"
"","","","","","html-keyboard-response","87","270776","0.0-87.0-1.0-0.0","6D7BAF4403DD4517914461848AF27DAD","d0c6942e-2d4f-4a74-a9c7-d4b13fdd8df9","58046770-4c03-4bc2-b4bc-e7359011db5d","","null","<div style=""display: flex; justify-content: center; align-items: center;"">
                <img src=""images/semantic/semantic_series_12/semantic_series_12_d.jpg"" style=""width: 300px; height: 300px;"" />
              </div>","null",""
"","","","","","html-keyboard-response","88","273790","0.0-88.0","6D7BAF4403DD4517914461848AF27DAD","d0c6942e-2d4f-4a74-a9c7-d4b13fdd8df9","58046770-4c03-4bc2-b4bc-e7359011db5d","","null","<div style=""display: flex; justify-content: center; align-items: center;"">
                <img src=""images/other/blank.jpg"" style=""width: 300px; height: 300px;"" />
              </div>","null",""
"","","","","","html-keyboard-response","89","277170","0.0-89.0","6D7BAF4403DD4517914461848AF27DAD","d0c6942e-2d4f-4a74-a9c7-d4b13fdd8df9","58046770-4c03-4bc2-b4bc-e7359011db5d","","null","<div style=""display: flex; justify-content: center; align-items: center;"">
                <img src=""images/causal/causal_series_1/causal_series_1_a.jpg"" style=""width: 300px; height: 300px;"" />
              </div>","null",""
"","","","","","html-keyboard-response","90","280182","0.0-90.0","6D7BAF4403DD4517914461848AF27DAD","d0c6942e-2d4f-4a74-a9c7-d4b13fdd8df9","58046770-4c03-4bc2-b4bc-e7359011db5d","","null","<div style=""display: flex; justify-content: center; align-items: center;"">
                <img src=""images/causal/causal_series_1/causal_series_1_b.jpg"" style=""width: 300px; height: 300px;"" />
              </div>","null",""
"","","","","","html-keyboard-response","91","283188","0.0-91.0","6D7BAF4403DD4517914461848AF27DAD","d0c6942e-2d4f-4a74-a9c7-d4b13fdd8df9","58046770-4c03-4bc2-b4bc-e7359011db5d","","null","<div style=""display: flex; justify-content: center; align-items: center;"">
                <img src=""images/causal/causal_series_1/causal_series_1_c.jpg"" style=""width: 300px; height: 300px;"" />
              </div>","null",""
"","","","","","html-button-response","92","284526","0.0-92.0","6D7BAF4403DD4517914461848AF27DAD","d0c6942e-2d4f-4a74-a9c7-d4b13fdd8df9","58046770-4c03-4bc2-b4bc-e7359011db5d","","1337","
    <div style=""display: flex; justify-content: center; align-items: center;"">
      <img src=""images/red_deck_2.png"" style=""width: 300px; height: 300px; margin-right: 10px;"" />
      <img src=""images/blue_deck_1.png"" style=""width: 300px; height: 300px;"" />
    </div>","0","0"
"","","","","","html-keyboard-response","93","287537","0.0-93.0-0.0-0.0","6D7BAF4403DD4517914461848AF27DAD","d0c6942e-2d4f-4a74-a9c7-d4b13fdd8df9","58046770-4c03-4bc2-b4bc-e7359011db5d","","null","<div style=""display: flex; justify-content: center; align-items: center;"">
                <img src=""images/causal/causal_series_1/causal_series_1_d.jpg"" style=""width: 300px; height: 300px;"" />
              </div>","null",""
"","","","","","html-keyboard-response","94","290545","0.0-94.0","6D7BAF4403DD4517914461848AF27DAD","d0c6942e-2d4f-4a74-a9c7-d4b13fdd8df9","58046770-4c03-4bc2-b4bc-e7359011db5d","","null","<div style=""display: flex; justify-content: center; align-items: center;"">
                <img src=""images/other/blank.jpg"" style=""width: 300px; height: 300px;"" />
              </div>","null",""
"","","","","","html-keyboard-response","95","293552","0.0-95.0","6D7BAF4403DD4517914461848AF27DAD","d0c6942e-2d4f-4a74-a9c7-d4b13fdd8df9","58046770-4c03-4bc2-b4bc-e7359011db5d","","null","<div style=""display: flex; justify-content: center; align-items: center;"">
                <img src=""images/causal/causal_series_3/causal_series_3_a.jpg"" style=""width: 300px; height: 300px;"" />
              </div>","null",""
"","","","","","html-keyboard-response","96","296559","0.0-96.0","6D7BAF4403DD4517914461848AF27DAD","d0c6942e-2d4f-4a74-a9c7-d4b13fdd8df9","58046770-4c03-4bc2-b4bc-e7359011db5d","","null","<div style=""display: flex; justify-content: center; align-items: center;"">
                <img src=""images/causal/causal_series_3/causal_series_3_b.jpg"" style=""width: 300px; height: 300px;"" />
              </div>","null",""
"","","","","","html-keyboard-response","97","299715","0.0-97.0","6D7BAF4403DD4517914461848AF27DAD","d0c6942e-2d4f-4a74-a9c7-d4b13fdd8df9","58046770-4c03-4bc2-b4bc-e7359011db5d","","null","<div style=""display: flex; justify-content: center; align-items: center;"">
                <img src=""images/causal/causal_series_3/causal_series_3_c.jpg"" style=""width: 300px; height: 300px;"" />
              </div>","null",""
"","","","","","html-button-response","98","300793","0.0-98.0","6D7BAF4403DD4517914461848AF27DAD","d0c6942e-2d4f-4a74-a9c7-d4b13fdd8df9","58046770-4c03-4bc2-b4bc-e7359011db5d","","1078","
    <div style=""display: flex; justify-content: center; align-items: center;"">
      <img src=""images/red_deck_2.png"" style=""width: 300px; height: 300px; margin-right: 10px;"" />
      <img src=""images/blue_deck_1.png"" style=""width: 300px; height: 300px;"" />
    </div>","0","0"
"","","","","","html-keyboard-response","99","303799","0.0-99.0-0.0-0.0","6D7BAF4403DD4517914461848AF27DAD","d0c6942e-2d4f-4a74-a9c7-d4b13fdd8df9","58046770-4c03-4bc2-b4bc-e7359011db5d","","null","<div style=""display: flex; justify-content: center; align-items: center;"">
                <img src=""images/causal/causal_series_3/causal_series_3_d.jpg"" style=""width: 300px; height: 300px;"" />
              </div>","null",""
"","","","","","html-keyboard-response","100","306806","0.0-100.0","6D7BAF4403DD4517914461848AF27DAD","d0c6942e-2d4f-4a74-a9c7-d4b13fdd8df9","58046770-4c03-4bc2-b4bc-e7359011db5d","","null","<div style=""display: flex; justify-content: center; align-items: center;"">
                <img src=""images/other/blank.jpg"" style=""width: 300px; height: 300px;"" />
              </div>","null",""
"","","","","","html-keyboard-response","101","309817","0.0-101.0","6D7BAF4403DD4517914461848AF27DAD","d0c6942e-2d4f-4a74-a9c7-d4b13fdd8df9","58046770-4c03-4bc2-b4bc-e7359011db5d","","null","<div style=""display: flex; justify-content: center; align-items: center;"">
                <img src=""images/causal/causal_series_8/causal_series_8_a.jpg"" style=""width: 300px; height: 300px;"" />
              </div>","null",""
"","","","","","html-keyboard-response","102","312831","0.0-102.0","6D7BAF4403DD4517914461848AF27DAD","d0c6942e-2d4f-4a74-a9c7-d4b13fdd8df9","58046770-4c03-4bc2-b4bc-e7359011db5d","","null","<div style=""display: flex; justify-content: center; align-items: center;"">
                <img src=""images/causal/causal_series_8/causal_series_8_b.jpg"" style=""width: 300px; height: 300px;"" />
              </div>","null",""
"","","","","","html-keyboard-response","103","315838","0.0-103.0","6D7BAF4403DD4517914461848AF27DAD","d0c6942e-2d4f-4a74-a9c7-d4b13fdd8df9","58046770-4c03-4bc2-b4bc-e7359011db5d","","null","<div style=""display: flex; justify-content: center; align-items: center;"">
                <img src=""images/causal/causal_series_8/causal_series_8_c.jpg"" style=""width: 300px; height: 300px;"" />
              </div>","null",""
"","","","","","html-button-response","104","316947","0.0-104.0","6D7BAF4403DD4517914461848AF27DAD","d0c6942e-2d4f-4a74-a9c7-d4b13fdd8df9","58046770-4c03-4bc2-b4bc-e7359011db5d","","1108","
    <div style=""display: flex; justify-content: center; align-items: center;"">
      <img src=""images/red_deck_2.png"" style=""width: 300px; height: 300px; margin-right: 10px;"" />
      <img src=""images/blue_deck_1.png"" style=""width: 300px; height: 300px;"" />
    </div>","1","1"
"","","","","","html-keyboard-response","105","319957","0.0-105.0-1.0-0.0","6D7BAF4403DD4517914461848AF27DAD","d0c6942e-2d4f-4a74-a9c7-d4b13fdd8df9","58046770-4c03-4bc2-b4bc-e7359011db5d","","null","<div style=""display: flex; justify-content: center; align-items: center;"">
                <img src=""images/semantic/semantic_series_7/semantic_series_7_d.jpg"" style=""width: 300px; height: 300px;"" />
              </div>","null",""
"","","","","","html-keyboard-response","106","322964","0.0-106.0","6D7BAF4403DD4517914461848AF27DAD","d0c6942e-2d4f-4a74-a9c7-d4b13fdd8df9","58046770-4c03-4bc2-b4bc-e7359011db5d","","null","<div style=""display: flex; justify-content: center; align-items: center;"">
                <img src=""images/other/blank.jpg"" style=""width: 300px; height: 300px;"" />
              </div>","null",""
"","","","","","html-keyboard-response","107","325971","0.0-107.0","6D7BAF4403DD4517914461848AF27DAD","d0c6942e-2d4f-4a74-a9c7-d4b13fdd8df9","58046770-4c03-4bc2-b4bc-e7359011db5d","","null","<div style=""display: flex; justify-content: center; align-items: center;"">
                <img src=""images/causal/causal_series_12/causal_series_12_a.jpg"" style=""width: 300px; height: 300px;"" />
              </div>","null",""
"","","","","","html-keyboard-response","108","328975","0.0-108.0","6D7BAF4403DD4517914461848AF27DAD","d0c6942e-2d4f-4a74-a9c7-d4b13fdd8df9","58046770-4c03-4bc2-b4bc-e7359011db5d","","null","<div style=""display: flex; justify-content: center; align-items: center;"">
                <img src=""images/causal/causal_series_12/causal_series_12_b.jpg"" style=""width: 300px; height: 300px;"" />
              </div>","null",""
"","","","","","html-keyboard-response","109","331980","0.0-109.0","6D7BAF4403DD4517914461848AF27DAD","d0c6942e-2d4f-4a74-a9c7-d4b13fdd8df9","58046770-4c03-4bc2-b4bc-e7359011db5d","","null","<div style=""display: flex; justify-content: center; align-items: center;"">
                <img src=""images/causal/causal_series_12/causal_series_12_c.jpg"" style=""width: 300px; height: 300px;"" />
              </div>","null",""
"","","","","","html-button-response","110","333511","0.0-110.0","6D7BAF4403DD4517914461848AF27DAD","d0c6942e-2d4f-4a74-a9c7-d4b13fdd8df9","58046770-4c03-4bc2-b4bc-e7359011db5d","","1531","
    <div style=""display: flex; justify-content: center; align-items: center;"">
      <img src=""images/red_deck_2.png"" style=""width: 300px; height: 300px; margin-right: 10px;"" />
      <img src=""images/blue_deck_1.png"" style=""width: 300px; height: 300px;"" />
    </div>","0","0"
"","","","","","html-keyboard-response","111","336525","0.0-111.0-0.0-0.0","6D7BAF4403DD4517914461848AF27DAD","d0c6942e-2d4f-4a74-a9c7-d4b13fdd8df9","58046770-4c03-4bc2-b4bc-e7359011db5d","","null","<div style=""display: flex; justify-content: center; align-items: center;"">
                <img src=""images/causal/causal_series_12/causal_series_12_d.jpg"" style=""width: 300px; height: 300px;"" />
              </div>","null",""
"","","","","","html-keyboard-response","112","339536","0.0-112.0","6D7BAF4403DD4517914461848AF27DAD","d0c6942e-2d4f-4a74-a9c7-d4b13fdd8df9","58046770-4c03-4bc2-b4bc-e7359011db5d","","null","<div style=""display: flex; justify-content: center; align-items: center;"">
                <img src=""images/other/blank.jpg"" style=""width: 300px; height: 300px;"" />
              </div>","null",""
"","","","","","survey-text","113","356563","0.0-113.0","6D7BAF4403DD4517914461848AF27DAD","d0c6942e-2d4f-4a74-a9c7-d4b13fdd8df9","58046770-4c03-4bc2-b4bc-e7359011db5d","","16994","","{""Q0"":""One has red and white on the back while the other is a dark blue and white back.""}",""
"","","","","","survey-text","114","363487","0.0-114.0","6D7BAF4403DD4517914461848AF27DAD","d0c6942e-2d4f-4a74-a9c7-d4b13fdd8df9","58046770-4c03-4bc2-b4bc-e7359011db5d","","6921","","{""Q0"":""I would say perhaps the red deck.""}",""
"","","","","","html-button-response","115","373322","0.0-115.0","6D7BAF4403DD4517914461848AF27DAD","d0c6942e-2d4f-4a74-a9c7-d4b13fdd8df9","58046770-4c03-4bc2-b4bc-e7359011db5d","","9835","Which color deck does the fourth image continue the story from the series?","1",""
"","","","","","html-button-response","116","374657","0.0-116.0","6D7BAF4403DD4517914461848AF27DAD","d0c6942e-2d4f-4a74-a9c7-d4b13fdd8df9","58046770-4c03-4bc2-b4bc-e7359011db5d","","1336","Which color deck does the fourth image not follow the story from the series?","0",""
"","","","","","survey-text","117","379949","0.0-117.0","6D7BAF4403DD4517914461848AF27DAD","d0c6942e-2d4f-4a74-a9c7-d4b13fdd8df9","58046770-4c03-4bc2-b4bc-e7359011db5d","","5281","","{""Q0"":""FEMALE"",""Q1"":""32""}",""
"","","","","","instructions","118","382788","0.0-118.0","6D7BAF4403DD4517914461848AF27DAD","d0c6942e-2d4f-4a74-a9c7-d4b13fdd8df9","58046770-4c03-4bc2-b4bc-e7359011db5d","[{""page_index"":0,""viewing_time"":2838}]","2838","","",""
