"success","timeout","failed_images","failed_audio","failed_video","trial_type","trial_index","time_elapsed","internal_node_id","subject","subject_id","study_id","session_id","urlvar","current_url","view_history","rt","stimulus","response","choice","question_order"
"true","false","[]","[]","[]","preload","0","93172","0.0-0.0","32A64E3242154F8A8592D9409928953F","32A64E3242154F8A8592D9409928953F","7537c2b8-f4c1-4914-9908-affe0df85d4e","bea99957-1862-4ad8-9558-57b91e42ce64","{""participantId"":""32A64E3242154F8A8592D9409928953F"",""assignmentId"":""7537c2b8-f4c1-4914-9908-affe0df85d4e"",""projectId"":""bea99957-1862-4ad8-9558-57b91e42ce64""}","https://test12345.live/?participantId=32A64E3242154F8A8592D9409928953F&assignmentId=7537c2b8-f4c1-4914-9908-affe0df85d4e&projectId=bea99957-1862-4ad8-9558-57b91e42ce64","","","","","",""
"","","","","","instructions","1","111156","0.0-1.0","32A64E3242154F8A8592D9409928953F","32A64E3242154F8A8592D9409928953F","7537c2b8-f4c1-4914-9908-affe0df85d4e","bea99957-1862-4ad8-9558-57b91e42ce64","{""participantId"":""32A64E3242154F8A8592D9409928953F"",""assignmentId"":""7537c2b8-f4c1-4914-9908-affe0df85d4e"",""projectId"":""bea99957-1862-4ad8-9558-57b91e42ce64""}","https://test12345.live/?participantId=32A64E3242154F8A8592D9409928953F&assignmentId=7537c2b8-f4c1-4914-9908-affe0df85d4e&projectId=bea99957-1862-4ad8-9558-57b91e42ce64","[{""page_index"":0,""viewing_time"":17981}]","17982","","","",""
"","","","","","instructions","2","153679","0.0-2.0","32A64E3242154F8A8592D9409928953F","32A64E3242154F8A8592D9409928953F","7537c2b8-f4c1-4914-9908-affe0df85d4e","bea99957-1862-4ad8-9558-57b91e42ce64","{""participantId"":""32A64E3242154F8A8592D9409928953F"",""assignmentId"":""7537c2b8-f4c1-4914-9908-affe0df85d4e"",""projectId"":""bea99957-1862-4ad8-9558-57b91e42ce64""}","https://test12345.live/?participantId=32A64E3242154F8A8592D9409928953F&assignmentId=7537c2b8-f4c1-4914-9908-affe0df85d4e&projectId=bea99957-1862-4ad8-9558-57b91e42ce64","[{""page_index"":0,""viewing_time"":42529}]","42529","","","",""
"true","","","","","fullscreen","3","166764","0.0-3.0","32A64E3242154F8A8592D9409928953F","32A64E3242154F8A8592D9409928953F","7537c2b8-f4c1-4914-9908-affe0df85d4e","bea99957-1862-4ad8-9558-57b91e42ce64","{""participantId"":""32A64E3242154F8A8592D9409928953F"",""assignmentId"":""7537c2b8-f4c1-4914-9908-affe0df85d4e"",""projectId"":""bea99957-1862-4ad8-9558-57b91e42ce64""}","https://test12345.live/?participantId=32A64E3242154F8A8592D9409928953F&assignmentId=7537c2b8-f4c1-4914-9908-affe0df85d4e&projectId=bea99957-1862-4ad8-9558-57b91e42ce64","","12067","","","",""
"","","","","","instructions","4","190148","0.0-4.0","32A64E3242154F8A8592D9409928953F","32A64E3242154F8A8592D9409928953F","7537c2b8-f4c1-4914-9908-affe0df85d4e","bea99957-1862-4ad8-9558-57b91e42ce64","{""participantId"":""32A64E3242154F8A8592D9409928953F"",""assignmentId"":""7537c2b8-f4c1-4914-9908-affe0df85d4e"",""projectId"":""bea99957-1862-4ad8-9558-57b91e42ce64""}","https://test12345.live/?participantId=32A64E3242154F8A8592D9409928953F&assignmentId=7537c2b8-f4c1-4914-9908-affe0df85d4e&projectId=bea99957-1862-4ad8-9558-57b91e42ce64","[{""page_index"":0,""viewing_time"":23382}]","23382","","","",""
"","","","","","html-button-response","5","205690","0.0-5.0","32A64E3242154F8A8592D9409928953F","32A64E3242154F8A8592D9409928953F","7537c2b8-f4c1-4914-9908-affe0df85d4e","bea99957-1862-4ad8-9558-57b91e42ce64","{""participantId"":""32A64E3242154F8A8592D9409928953F"",""assignmentId"":""7537c2b8-f4c1-4914-9908-affe0df85d4e"",""projectId"":""bea99957-1862-4ad8-9558-57b91e42ce64""}","https://test12345.live/?participantId=32A64E3242154F8A8592D9409928953F&assignmentId=7537c2b8-f4c1-4914-9908-affe0df85d4e&projectId=bea99957-1862-4ad8-9558-57b91e42ce64","","15541","
    <div style=""display: flex; justify-content: center; align-items: center;"">
      <img src=""images/red_deck_2.png"" style=""width: 300px; height: 300px; margin-right: 10px;"" />
      <img src=""images/blue_deck_1.png"" style=""width: 300px; height: 300px;"" />
    </div>","0","0",""
"","","","","","html-keyboard-response","6","208705","0.0-7.0-0.0","32A64E3242154F8A8592D9409928953F","32A64E3242154F8A8592D9409928953F","7537c2b8-f4c1-4914-9908-affe0df85d4e","bea99957-1862-4ad8-9558-57b91e42ce64","{""participantId"":""32A64E3242154F8A8592D9409928953F"",""assignmentId"":""7537c2b8-f4c1-4914-9908-affe0df85d4e"",""projectId"":""bea99957-1862-4ad8-9558-57b91e42ce64""}","https://test12345.live/?participantId=32A64E3242154F8A8592D9409928953F&assignmentId=7537c2b8-f4c1-4914-9908-affe0df85d4e&projectId=bea99957-1862-4ad8-9558-57b91e42ce64","","null","<div style=""display: flex; justify-content: center; align-items: center;"">
                    <img src=""images/semantic/semantic_series_18/semantic_series_18_a.jpg"" style=""width: 300px; height: 300px;"" />
                  </div>","null","",""
"","","","","","html-keyboard-response","7","211708","0.0-7.0-1.0","32A64E3242154F8A8592D9409928953F","32A64E3242154F8A8592D9409928953F","7537c2b8-f4c1-4914-9908-affe0df85d4e","bea99957-1862-4ad8-9558-57b91e42ce64","{""participantId"":""32A64E3242154F8A8592D9409928953F"",""assignmentId"":""7537c2b8-f4c1-4914-9908-affe0df85d4e"",""projectId"":""bea99957-1862-4ad8-9558-57b91e42ce64""}","https://test12345.live/?participantId=32A64E3242154F8A8592D9409928953F&assignmentId=7537c2b8-f4c1-4914-9908-affe0df85d4e&projectId=bea99957-1862-4ad8-9558-57b91e42ce64","","null","<div style=""display: flex; justify-content: center; align-items: center;"">
                    <img src=""images/semantic/semantic_series_18/semantic_series_18_b.jpg"" style=""width: 300px; height: 300px;"" />
                  </div>","null","",""
"","","","","","html-keyboard-response","8","214736","0.0-7.0-2.0","32A64E3242154F8A8592D9409928953F","32A64E3242154F8A8592D9409928953F","7537c2b8-f4c1-4914-9908-affe0df85d4e","bea99957-1862-4ad8-9558-57b91e42ce64","{""participantId"":""32A64E3242154F8A8592D9409928953F"",""assignmentId"":""7537c2b8-f4c1-4914-9908-affe0df85d4e"",""projectId"":""bea99957-1862-4ad8-9558-57b91e42ce64""}","https://test12345.live/?participantId=32A64E3242154F8A8592D9409928953F&assignmentId=7537c2b8-f4c1-4914-9908-affe0df85d4e&projectId=bea99957-1862-4ad8-9558-57b91e42ce64","","null","<div style=""display: flex; justify-content: center; align-items: center;"">
                    <img src=""images/semantic/semantic_series_18/semantic_series_18_c.jpg"" style=""width: 300px; height: 300px;"" />
                  </div>","null","",""
"","","","","","html-keyboard-response","9","217745","0.0-7.0-3.0","32A64E3242154F8A8592D9409928953F","32A64E3242154F8A8592D9409928953F","7537c2b8-f4c1-4914-9908-affe0df85d4e","bea99957-1862-4ad8-9558-57b91e42ce64","{""participantId"":""32A64E3242154F8A8592D9409928953F"",""assignmentId"":""7537c2b8-f4c1-4914-9908-affe0df85d4e"",""projectId"":""bea99957-1862-4ad8-9558-57b91e42ce64""}","https://test12345.live/?participantId=32A64E3242154F8A8592D9409928953F&assignmentId=7537c2b8-f4c1-4914-9908-affe0df85d4e&projectId=bea99957-1862-4ad8-9558-57b91e42ce64","","null","<div style=""display: flex; justify-content: center; align-items: center;"">
                    <img src=""images/semantic/semantic_series_18/semantic_series_18_d.jpg"" style=""width: 300px; height: 300px;"" />
                  </div>","null","",""
"","","","","","html-button-response","10","220062","0.0-8.0","32A64E3242154F8A8592D9409928953F","32A64E3242154F8A8592D9409928953F","7537c2b8-f4c1-4914-9908-affe0df85d4e","bea99957-1862-4ad8-9558-57b91e42ce64","{""participantId"":""32A64E3242154F8A8592D9409928953F"",""assignmentId"":""7537c2b8-f4c1-4914-9908-affe0df85d4e"",""projectId"":""bea99957-1862-4ad8-9558-57b91e42ce64""}","https://test12345.live/?participantId=32A64E3242154F8A8592D9409928953F&assignmentId=7537c2b8-f4c1-4914-9908-affe0df85d4e&projectId=bea99957-1862-4ad8-9558-57b91e42ce64","","2315","Was there a person in the picture?","1","",""
"","","","","","survey-likert","11","231910","0.0-9.0","32A64E3242154F8A8592D9409928953F","32A64E3242154F8A8592D9409928953F","7537c2b8-f4c1-4914-9908-affe0df85d4e","bea99957-1862-4ad8-9558-57b91e42ce64","{""participantId"":""32A64E3242154F8A8592D9409928953F"",""assignmentId"":""7537c2b8-f4c1-4914-9908-affe0df85d4e"",""projectId"":""bea99957-1862-4ad8-9558-57b91e42ce64""}","https://test12345.live/?participantId=32A64E3242154F8A8592D9409928953F&assignmentId=7537c2b8-f4c1-4914-9908-affe0df85d4e&projectId=bea99957-1862-4ad8-9558-57b91e42ce64","","11846","","{""Q0"":2}","","[0]"
"","","","","","html-button-response","12","233779","0.0-10.0","32A64E3242154F8A8592D9409928953F","32A64E3242154F8A8592D9409928953F","7537c2b8-f4c1-4914-9908-affe0df85d4e","bea99957-1862-4ad8-9558-57b91e42ce64","{""participantId"":""32A64E3242154F8A8592D9409928953F"",""assignmentId"":""7537c2b8-f4c1-4914-9908-affe0df85d4e"",""projectId"":""bea99957-1862-4ad8-9558-57b91e42ce64""}","https://test12345.live/?participantId=32A64E3242154F8A8592D9409928953F&assignmentId=7537c2b8-f4c1-4914-9908-affe0df85d4e&projectId=bea99957-1862-4ad8-9558-57b91e42ce64","","1867","
    <div style=""display: flex; justify-content: center; align-items: center;"">
      <img src=""images/red_deck_2.png"" style=""width: 300px; height: 300px; margin-right: 10px;"" />
      <img src=""images/blue_deck_1.png"" style=""width: 300px; height: 300px;"" />
    </div>","0","0",""
"","","","","","html-keyboard-response","13","236796","0.0-12.0-0.0","32A64E3242154F8A8592D9409928953F","32A64E3242154F8A8592D9409928953F","7537c2b8-f4c1-4914-9908-affe0df85d4e","bea99957-1862-4ad8-9558-57b91e42ce64","{""participantId"":""32A64E3242154F8A8592D9409928953F"",""assignmentId"":""7537c2b8-f4c1-4914-9908-affe0df85d4e"",""projectId"":""bea99957-1862-4ad8-9558-57b91e42ce64""}","https://test12345.live/?participantId=32A64E3242154F8A8592D9409928953F&assignmentId=7537c2b8-f4c1-4914-9908-affe0df85d4e&projectId=bea99957-1862-4ad8-9558-57b91e42ce64","","null","<div style=""display: flex; justify-content: center; align-items: center;"">
                    <img src=""images/semantic/semantic_series_12/semantic_series_12_a.jpg"" style=""width: 300px; height: 300px;"" />
                  </div>","null","",""
"","","","","","html-keyboard-response","14","239808","0.0-12.0-1.0","32A64E3242154F8A8592D9409928953F","32A64E3242154F8A8592D9409928953F","7537c2b8-f4c1-4914-9908-affe0df85d4e","bea99957-1862-4ad8-9558-57b91e42ce64","{""participantId"":""32A64E3242154F8A8592D9409928953F"",""assignmentId"":""7537c2b8-f4c1-4914-9908-affe0df85d4e"",""projectId"":""bea99957-1862-4ad8-9558-57b91e42ce64""}","https://test12345.live/?participantId=32A64E3242154F8A8592D9409928953F&assignmentId=7537c2b8-f4c1-4914-9908-affe0df85d4e&projectId=bea99957-1862-4ad8-9558-57b91e42ce64","","null","<div style=""display: flex; justify-content: center; align-items: center;"">
                    <img src=""images/semantic/semantic_series_12/semantic_series_12_b.jpg"" style=""width: 300px; height: 300px;"" />
                  </div>","null","",""
"","","","","","html-keyboard-response","15","242822","0.0-12.0-2.0","32A64E3242154F8A8592D9409928953F","32A64E3242154F8A8592D9409928953F","7537c2b8-f4c1-4914-9908-affe0df85d4e","bea99957-1862-4ad8-9558-57b91e42ce64","{""participantId"":""32A64E3242154F8A8592D9409928953F"",""assignmentId"":""7537c2b8-f4c1-4914-9908-affe0df85d4e"",""projectId"":""bea99957-1862-4ad8-9558-57b91e42ce64""}","https://test12345.live/?participantId=32A64E3242154F8A8592D9409928953F&assignmentId=7537c2b8-f4c1-4914-9908-affe0df85d4e&projectId=bea99957-1862-4ad8-9558-57b91e42ce64","","null","<div style=""display: flex; justify-content: center; align-items: center;"">
                    <img src=""images/semantic/semantic_series_12/semantic_series_12_c.jpg"" style=""width: 300px; height: 300px;"" />
                  </div>","null","",""
"","","","","","html-keyboard-response","16","245828","0.0-12.0-3.0","32A64E3242154F8A8592D9409928953F","32A64E3242154F8A8592D9409928953F","7537c2b8-f4c1-4914-9908-affe0df85d4e","bea99957-1862-4ad8-9558-57b91e42ce64","{""participantId"":""32A64E3242154F8A8592D9409928953F"",""assignmentId"":""7537c2b8-f4c1-4914-9908-affe0df85d4e"",""projectId"":""bea99957-1862-4ad8-9558-57b91e42ce64""}","https://test12345.live/?participantId=32A64E3242154F8A8592D9409928953F&assignmentId=7537c2b8-f4c1-4914-9908-affe0df85d4e&projectId=bea99957-1862-4ad8-9558-57b91e42ce64","","null","<div style=""display: flex; justify-content: center; align-items: center;"">
                    <img src=""images/semantic/semantic_series_12/semantic_series_12_d.jpg"" style=""width: 300px; height: 300px;"" />
                  </div>","null","",""
"","","","","","html-button-response","17","247979","0.0-13.0","32A64E3242154F8A8592D9409928953F","32A64E3242154F8A8592D9409928953F","7537c2b8-f4c1-4914-9908-affe0df85d4e","bea99957-1862-4ad8-9558-57b91e42ce64","{""participantId"":""32A64E3242154F8A8592D9409928953F"",""assignmentId"":""7537c2b8-f4c1-4914-9908-affe0df85d4e"",""projectId"":""bea99957-1862-4ad8-9558-57b91e42ce64""}","https://test12345.live/?participantId=32A64E3242154F8A8592D9409928953F&assignmentId=7537c2b8-f4c1-4914-9908-affe0df85d4e&projectId=bea99957-1862-4ad8-9558-57b91e42ce64","","2149","Was there a person in the picture?","0","",""
"","","","","","survey-likert","18","251558","0.0-14.0","32A64E3242154F8A8592D9409928953F","32A64E3242154F8A8592D9409928953F","7537c2b8-f4c1-4914-9908-affe0df85d4e","bea99957-1862-4ad8-9558-57b91e42ce64","{""participantId"":""32A64E3242154F8A8592D9409928953F"",""assignmentId"":""7537c2b8-f4c1-4914-9908-affe0df85d4e"",""projectId"":""bea99957-1862-4ad8-9558-57b91e42ce64""}","https://test12345.live/?participantId=32A64E3242154F8A8592D9409928953F&assignmentId=7537c2b8-f4c1-4914-9908-affe0df85d4e&projectId=bea99957-1862-4ad8-9558-57b91e42ce64","","3578","","{""Q0"":3}","","[0]"
"","","","","","html-button-response","19","252969","0.0-15.0","32A64E3242154F8A8592D9409928953F","32A64E3242154F8A8592D9409928953F","7537c2b8-f4c1-4914-9908-affe0df85d4e","bea99957-1862-4ad8-9558-57b91e42ce64","{""participantId"":""32A64E3242154F8A8592D9409928953F"",""assignmentId"":""7537c2b8-f4c1-4914-9908-affe0df85d4e"",""projectId"":""bea99957-1862-4ad8-9558-57b91e42ce64""}","https://test12345.live/?participantId=32A64E3242154F8A8592D9409928953F&assignmentId=7537c2b8-f4c1-4914-9908-affe0df85d4e&projectId=bea99957-1862-4ad8-9558-57b91e42ce64","","1409","
    <div style=""display: flex; justify-content: center; align-items: center;"">
      <img src=""images/red_deck_2.png"" style=""width: 300px; height: 300px; margin-right: 10px;"" />
      <img src=""images/blue_deck_1.png"" style=""width: 300px; height: 300px;"" />
    </div>","1","1",""
"","","","","","html-keyboard-response","20","255985","0.0-16.0-0.0","32A64E3242154F8A8592D9409928953F","32A64E3242154F8A8592D9409928953F","7537c2b8-f4c1-4914-9908-affe0df85d4e","bea99957-1862-4ad8-9558-57b91e42ce64","{""participantId"":""32A64E3242154F8A8592D9409928953F"",""assignmentId"":""7537c2b8-f4c1-4914-9908-affe0df85d4e"",""projectId"":""bea99957-1862-4ad8-9558-57b91e42ce64""}","https://test12345.live/?participantId=32A64E3242154F8A8592D9409928953F&assignmentId=7537c2b8-f4c1-4914-9908-affe0df85d4e&projectId=bea99957-1862-4ad8-9558-57b91e42ce64","","null","<div style=""display: flex; justify-content: center; align-items: center;"">
                    <img src=""images/causal/causal_series_9/causal_series_9_a.jpg"" style=""width: 300px; height: 300px;"" />
                  </div>","null","",""
"","","","","","html-keyboard-response","21","259002","0.0-16.0-1.0","32A64E3242154F8A8592D9409928953F","32A64E3242154F8A8592D9409928953F","7537c2b8-f4c1-4914-9908-affe0df85d4e","bea99957-1862-4ad8-9558-57b91e42ce64","{""participantId"":""32A64E3242154F8A8592D9409928953F"",""assignmentId"":""7537c2b8-f4c1-4914-9908-affe0df85d4e"",""projectId"":""bea99957-1862-4ad8-9558-57b91e42ce64""}","https://test12345.live/?participantId=32A64E3242154F8A8592D9409928953F&assignmentId=7537c2b8-f4c1-4914-9908-affe0df85d4e&projectId=bea99957-1862-4ad8-9558-57b91e42ce64","","null","<div style=""display: flex; justify-content: center; align-items: center;"">
                    <img src=""images/causal/causal_series_9/causal_series_9_b.jpg"" style=""width: 300px; height: 300px;"" />
                  </div>","null","",""
"","","","","","html-keyboard-response","22","262006","0.0-16.0-2.0","32A64E3242154F8A8592D9409928953F","32A64E3242154F8A8592D9409928953F","7537c2b8-f4c1-4914-9908-affe0df85d4e","bea99957-1862-4ad8-9558-57b91e42ce64","{""participantId"":""32A64E3242154F8A8592D9409928953F"",""assignmentId"":""7537c2b8-f4c1-4914-9908-affe0df85d4e"",""projectId"":""bea99957-1862-4ad8-9558-57b91e42ce64""}","https://test12345.live/?participantId=32A64E3242154F8A8592D9409928953F&assignmentId=7537c2b8-f4c1-4914-9908-affe0df85d4e&projectId=bea99957-1862-4ad8-9558-57b91e42ce64","","null","<div style=""display: flex; justify-content: center; align-items: center;"">
                    <img src=""images/causal/causal_series_9/causal_series_9_c.jpg"" style=""width: 300px; height: 300px;"" />
                  </div>","null","",""
"","","","","","html-keyboard-response","23","265022","0.0-16.0-3.0","32A64E3242154F8A8592D9409928953F","32A64E3242154F8A8592D9409928953F","7537c2b8-f4c1-4914-9908-affe0df85d4e","bea99957-1862-4ad8-9558-57b91e42ce64","{""participantId"":""32A64E3242154F8A8592D9409928953F"",""assignmentId"":""7537c2b8-f4c1-4914-9908-affe0df85d4e"",""projectId"":""bea99957-1862-4ad8-9558-57b91e42ce64""}","https://test12345.live/?participantId=32A64E3242154F8A8592D9409928953F&assignmentId=7537c2b8-f4c1-4914-9908-affe0df85d4e&projectId=bea99957-1862-4ad8-9558-57b91e42ce64","","null","<div style=""display: flex; justify-content: center; align-items: center;"">
                    <img src=""images/causal/causal_series_9/causal_series_9_d.jpg"" style=""width: 300px; height: 300px;"" />
                  </div>","null","",""
"","","","","","html-button-response","24","266913","0.0-18.0","32A64E3242154F8A8592D9409928953F","32A64E3242154F8A8592D9409928953F","7537c2b8-f4c1-4914-9908-affe0df85d4e","bea99957-1862-4ad8-9558-57b91e42ce64","{""participantId"":""32A64E3242154F8A8592D9409928953F"",""assignmentId"":""7537c2b8-f4c1-4914-9908-affe0df85d4e"",""projectId"":""bea99957-1862-4ad8-9558-57b91e42ce64""}","https://test12345.live/?participantId=32A64E3242154F8A8592D9409928953F&assignmentId=7537c2b8-f4c1-4914-9908-affe0df85d4e&projectId=bea99957-1862-4ad8-9558-57b91e42ce64","","1889","Was there a person in the picture?","1","",""
"","","","","","survey-likert","25","270131","0.0-19.0","32A64E3242154F8A8592D9409928953F","32A64E3242154F8A8592D9409928953F","7537c2b8-f4c1-4914-9908-affe0df85d4e","bea99957-1862-4ad8-9558-57b91e42ce64","{""participantId"":""32A64E3242154F8A8592D9409928953F"",""assignmentId"":""7537c2b8-f4c1-4914-9908-affe0df85d4e"",""projectId"":""bea99957-1862-4ad8-9558-57b91e42ce64""}","https://test12345.live/?participantId=32A64E3242154F8A8592D9409928953F&assignmentId=7537c2b8-f4c1-4914-9908-affe0df85d4e&projectId=bea99957-1862-4ad8-9558-57b91e42ce64","","3216","","{""Q0"":1}","","[0]"
"","","","","","html-button-response","26","272469","0.0-20.0","32A64E3242154F8A8592D9409928953F","32A64E3242154F8A8592D9409928953F","7537c2b8-f4c1-4914-9908-affe0df85d4e","bea99957-1862-4ad8-9558-57b91e42ce64","{""participantId"":""32A64E3242154F8A8592D9409928953F"",""assignmentId"":""7537c2b8-f4c1-4914-9908-affe0df85d4e"",""projectId"":""bea99957-1862-4ad8-9558-57b91e42ce64""}","https://test12345.live/?participantId=32A64E3242154F8A8592D9409928953F&assignmentId=7537c2b8-f4c1-4914-9908-affe0df85d4e&projectId=bea99957-1862-4ad8-9558-57b91e42ce64","","2337","
    <div style=""display: flex; justify-content: center; align-items: center;"">
      <img src=""images/red_deck_2.png"" style=""width: 300px; height: 300px; margin-right: 10px;"" />
      <img src=""images/blue_deck_1.png"" style=""width: 300px; height: 300px;"" />
    </div>","1","1",""
"","","","","","html-keyboard-response","27","275484","0.0-21.0-0.0","32A64E3242154F8A8592D9409928953F","32A64E3242154F8A8592D9409928953F","7537c2b8-f4c1-4914-9908-affe0df85d4e","bea99957-1862-4ad8-9558-57b91e42ce64","{""participantId"":""32A64E3242154F8A8592D9409928953F"",""assignmentId"":""7537c2b8-f4c1-4914-9908-affe0df85d4e"",""projectId"":""bea99957-1862-4ad8-9558-57b91e42ce64""}","https://test12345.live/?participantId=32A64E3242154F8A8592D9409928953F&assignmentId=7537c2b8-f4c1-4914-9908-affe0df85d4e&projectId=bea99957-1862-4ad8-9558-57b91e42ce64","","null","<div style=""display: flex; justify-content: center; align-items: center;"">
                    <img src=""images/causal/causal_series_6/causal_series_6_a.jpg"" style=""width: 300px; height: 300px;"" />
                  </div>","null","",""
"","","","","","html-keyboard-response","28","278488","0.0-21.0-1.0","32A64E3242154F8A8592D9409928953F","32A64E3242154F8A8592D9409928953F","7537c2b8-f4c1-4914-9908-affe0df85d4e","bea99957-1862-4ad8-9558-57b91e42ce64","{""participantId"":""32A64E3242154F8A8592D9409928953F"",""assignmentId"":""7537c2b8-f4c1-4914-9908-affe0df85d4e"",""projectId"":""bea99957-1862-4ad8-9558-57b91e42ce64""}","https://test12345.live/?participantId=32A64E3242154F8A8592D9409928953F&assignmentId=7537c2b8-f4c1-4914-9908-affe0df85d4e&projectId=bea99957-1862-4ad8-9558-57b91e42ce64","","null","<div style=""display: flex; justify-content: center; align-items: center;"">
                    <img src=""images/causal/causal_series_6/causal_series_6_b.jpg"" style=""width: 300px; height: 300px;"" />
                  </div>","null","",""
"","","","","","html-keyboard-response","29","281491","0.0-21.0-2.0","32A64E3242154F8A8592D9409928953F","32A64E3242154F8A8592D9409928953F","7537c2b8-f4c1-4914-9908-affe0df85d4e","bea99957-1862-4ad8-9558-57b91e42ce64","{""participantId"":""32A64E3242154F8A8592D9409928953F"",""assignmentId"":""7537c2b8-f4c1-4914-9908-affe0df85d4e"",""projectId"":""bea99957-1862-4ad8-9558-57b91e42ce64""}","https://test12345.live/?participantId=32A64E3242154F8A8592D9409928953F&assignmentId=7537c2b8-f4c1-4914-9908-affe0df85d4e&projectId=bea99957-1862-4ad8-9558-57b91e42ce64","","null","<div style=""display: flex; justify-content: center; align-items: center;"">
                    <img src=""images/causal/causal_series_6/causal_series_6_c.jpg"" style=""width: 300px; height: 300px;"" />
                  </div>","null","",""
"","","","","","html-keyboard-response","30","284502","0.0-21.0-3.0","32A64E3242154F8A8592D9409928953F","32A64E3242154F8A8592D9409928953F","7537c2b8-f4c1-4914-9908-affe0df85d4e","bea99957-1862-4ad8-9558-57b91e42ce64","{""participantId"":""32A64E3242154F8A8592D9409928953F"",""assignmentId"":""7537c2b8-f4c1-4914-9908-affe0df85d4e"",""projectId"":""bea99957-1862-4ad8-9558-57b91e42ce64""}","https://test12345.live/?participantId=32A64E3242154F8A8592D9409928953F&assignmentId=7537c2b8-f4c1-4914-9908-affe0df85d4e&projectId=bea99957-1862-4ad8-9558-57b91e42ce64","","null","<div style=""display: flex; justify-content: center; align-items: center;"">
                    <img src=""images/causal/causal_series_6/causal_series_6_d.jpg"" style=""width: 300px; height: 300px;"" />
                  </div>","null","",""
"","","","","","html-button-response","31","286519","0.0-23.0","32A64E3242154F8A8592D9409928953F","32A64E3242154F8A8592D9409928953F","7537c2b8-f4c1-4914-9908-affe0df85d4e","bea99957-1862-4ad8-9558-57b91e42ce64","{""participantId"":""32A64E3242154F8A8592D9409928953F"",""assignmentId"":""7537c2b8-f4c1-4914-9908-affe0df85d4e"",""projectId"":""bea99957-1862-4ad8-9558-57b91e42ce64""}","https://test12345.live/?participantId=32A64E3242154F8A8592D9409928953F&assignmentId=7537c2b8-f4c1-4914-9908-affe0df85d4e&projectId=bea99957-1862-4ad8-9558-57b91e42ce64","","2015","Was there a person in the picture?","1","",""
"","","","","","survey-likert","32","289544","0.0-24.0","32A64E3242154F8A8592D9409928953F","32A64E3242154F8A8592D9409928953F","7537c2b8-f4c1-4914-9908-affe0df85d4e","bea99957-1862-4ad8-9558-57b91e42ce64","{""participantId"":""32A64E3242154F8A8592D9409928953F"",""assignmentId"":""7537c2b8-f4c1-4914-9908-affe0df85d4e"",""projectId"":""bea99957-1862-4ad8-9558-57b91e42ce64""}","https://test12345.live/?participantId=32A64E3242154F8A8592D9409928953F&assignmentId=7537c2b8-f4c1-4914-9908-affe0df85d4e&projectId=bea99957-1862-4ad8-9558-57b91e42ce64","","3024","","{""Q0"":1}","","[0]"
"","","","","","html-button-response","33","292548","0.0-25.0","32A64E3242154F8A8592D9409928953F","32A64E3242154F8A8592D9409928953F","7537c2b8-f4c1-4914-9908-affe0df85d4e","bea99957-1862-4ad8-9558-57b91e42ce64","{""participantId"":""32A64E3242154F8A8592D9409928953F"",""assignmentId"":""7537c2b8-f4c1-4914-9908-affe0df85d4e"",""projectId"":""bea99957-1862-4ad8-9558-57b91e42ce64""}","https://test12345.live/?participantId=32A64E3242154F8A8592D9409928953F&assignmentId=7537c2b8-f4c1-4914-9908-affe0df85d4e&projectId=bea99957-1862-4ad8-9558-57b91e42ce64","","3002","
    <div style=""display: flex; justify-content: center; align-items: center;"">
      <img src=""images/red_deck_2.png"" style=""width: 300px; height: 300px; margin-right: 10px;"" />
      <img src=""images/blue_deck_1.png"" style=""width: 300px; height: 300px;"" />
    </div>","1","1",""
"","","","","","html-keyboard-response","34","295562","0.0-26.0-0.0","32A64E3242154F8A8592D9409928953F","32A64E3242154F8A8592D9409928953F","7537c2b8-f4c1-4914-9908-affe0df85d4e","bea99957-1862-4ad8-9558-57b91e42ce64","{""participantId"":""32A64E3242154F8A8592D9409928953F"",""assignmentId"":""7537c2b8-f4c1-4914-9908-affe0df85d4e"",""projectId"":""bea99957-1862-4ad8-9558-57b91e42ce64""}","https://test12345.live/?participantId=32A64E3242154F8A8592D9409928953F&assignmentId=7537c2b8-f4c1-4914-9908-affe0df85d4e&projectId=bea99957-1862-4ad8-9558-57b91e42ce64","","null","<div style=""display: flex; justify-content: center; align-items: center;"">
                    <img src=""images/causal/causal_series_16/causal_series_16_a.jpg"" style=""width: 300px; height: 300px;"" />
                  </div>","null","",""
"","","","","","html-keyboard-response","35","298564","0.0-26.0-1.0","32A64E3242154F8A8592D9409928953F","32A64E3242154F8A8592D9409928953F","7537c2b8-f4c1-4914-9908-affe0df85d4e","bea99957-1862-4ad8-9558-57b91e42ce64","{""participantId"":""32A64E3242154F8A8592D9409928953F"",""assignmentId"":""7537c2b8-f4c1-4914-9908-affe0df85d4e"",""projectId"":""bea99957-1862-4ad8-9558-57b91e42ce64""}","https://test12345.live/?participantId=32A64E3242154F8A8592D9409928953F&assignmentId=7537c2b8-f4c1-4914-9908-affe0df85d4e&projectId=bea99957-1862-4ad8-9558-57b91e42ce64","","null","<div style=""display: flex; justify-content: center; align-items: center;"">
                    <img src=""images/causal/causal_series_16/causal_series_16_b.jpg"" style=""width: 300px; height: 300px;"" />
                  </div>","null","",""
"","","","","","html-keyboard-response","36","301573","0.0-26.0-2.0","32A64E3242154F8A8592D9409928953F","32A64E3242154F8A8592D9409928953F","7537c2b8-f4c1-4914-9908-affe0df85d4e","bea99957-1862-4ad8-9558-57b91e42ce64","{""participantId"":""32A64E3242154F8A8592D9409928953F"",""assignmentId"":""7537c2b8-f4c1-4914-9908-affe0df85d4e"",""projectId"":""bea99957-1862-4ad8-9558-57b91e42ce64""}","https://test12345.live/?participantId=32A64E3242154F8A8592D9409928953F&assignmentId=7537c2b8-f4c1-4914-9908-affe0df85d4e&projectId=bea99957-1862-4ad8-9558-57b91e42ce64","","null","<div style=""display: flex; justify-content: center; align-items: center;"">
                    <img src=""images/causal/causal_series_16/causal_series_16_c.jpg"" style=""width: 300px; height: 300px;"" />
                  </div>","null","",""
"","","","","","html-keyboard-response","37","304575","0.0-26.0-3.0","32A64E3242154F8A8592D9409928953F","32A64E3242154F8A8592D9409928953F","7537c2b8-f4c1-4914-9908-affe0df85d4e","bea99957-1862-4ad8-9558-57b91e42ce64","{""participantId"":""32A64E3242154F8A8592D9409928953F"",""assignmentId"":""7537c2b8-f4c1-4914-9908-affe0df85d4e"",""projectId"":""bea99957-1862-4ad8-9558-57b91e42ce64""}","https://test12345.live/?participantId=32A64E3242154F8A8592D9409928953F&assignmentId=7537c2b8-f4c1-4914-9908-affe0df85d4e&projectId=bea99957-1862-4ad8-9558-57b91e42ce64","","null","<div style=""display: flex; justify-content: center; align-items: center;"">
                    <img src=""images/causal/causal_series_16/causal_series_16_d.jpg"" style=""width: 300px; height: 300px;"" />
                  </div>","null","",""
"","","","","","html-button-response","38","308018","0.0-28.0","32A64E3242154F8A8592D9409928953F","32A64E3242154F8A8592D9409928953F","7537c2b8-f4c1-4914-9908-affe0df85d4e","bea99957-1862-4ad8-9558-57b91e42ce64","{""participantId"":""32A64E3242154F8A8592D9409928953F"",""assignmentId"":""7537c2b8-f4c1-4914-9908-affe0df85d4e"",""projectId"":""bea99957-1862-4ad8-9558-57b91e42ce64""}","https://test12345.live/?participantId=32A64E3242154F8A8592D9409928953F&assignmentId=7537c2b8-f4c1-4914-9908-affe0df85d4e&projectId=bea99957-1862-4ad8-9558-57b91e42ce64","","3442","Was there a person in the picture?","1","",""
"","","","","","survey-likert","39","312223","0.0-29.0","32A64E3242154F8A8592D9409928953F","32A64E3242154F8A8592D9409928953F","7537c2b8-f4c1-4914-9908-affe0df85d4e","bea99957-1862-4ad8-9558-57b91e42ce64","{""participantId"":""32A64E3242154F8A8592D9409928953F"",""assignmentId"":""7537c2b8-f4c1-4914-9908-affe0df85d4e"",""projectId"":""bea99957-1862-4ad8-9558-57b91e42ce64""}","https://test12345.live/?participantId=32A64E3242154F8A8592D9409928953F&assignmentId=7537c2b8-f4c1-4914-9908-affe0df85d4e&projectId=bea99957-1862-4ad8-9558-57b91e42ce64","","4203","","{""Q0"":1}","","[0]"
"","","","","","html-button-response","40","314268","0.0-30.0","32A64E3242154F8A8592D9409928953F","32A64E3242154F8A8592D9409928953F","7537c2b8-f4c1-4914-9908-affe0df85d4e","bea99957-1862-4ad8-9558-57b91e42ce64","{""participantId"":""32A64E3242154F8A8592D9409928953F"",""assignmentId"":""7537c2b8-f4c1-4914-9908-affe0df85d4e"",""projectId"":""bea99957-1862-4ad8-9558-57b91e42ce64""}","https://test12345.live/?participantId=32A64E3242154F8A8592D9409928953F&assignmentId=7537c2b8-f4c1-4914-9908-affe0df85d4e&projectId=bea99957-1862-4ad8-9558-57b91e42ce64","","2044","
    <div style=""display: flex; justify-content: center; align-items: center;"">
      <img src=""images/red_deck_2.png"" style=""width: 300px; height: 300px; margin-right: 10px;"" />
      <img src=""images/blue_deck_1.png"" style=""width: 300px; height: 300px;"" />
    </div>","0","0",""
"","","","","","html-keyboard-response","41","317281","0.0-32.0-0.0","32A64E3242154F8A8592D9409928953F","32A64E3242154F8A8592D9409928953F","7537c2b8-f4c1-4914-9908-affe0df85d4e","bea99957-1862-4ad8-9558-57b91e42ce64","{""participantId"":""32A64E3242154F8A8592D9409928953F"",""assignmentId"":""7537c2b8-f4c1-4914-9908-affe0df85d4e"",""projectId"":""bea99957-1862-4ad8-9558-57b91e42ce64""}","https://test12345.live/?participantId=32A64E3242154F8A8592D9409928953F&assignmentId=7537c2b8-f4c1-4914-9908-affe0df85d4e&projectId=bea99957-1862-4ad8-9558-57b91e42ce64","","null","<div style=""display: flex; justify-content: center; align-items: center;"">
                    <img src=""images/semantic/semantic_series_8/semantic_series_8_a.jpg"" style=""width: 300px; height: 300px;"" />
                  </div>","null","",""
"","","","","","html-keyboard-response","42","320285","0.0-32.0-1.0","32A64E3242154F8A8592D9409928953F","32A64E3242154F8A8592D9409928953F","7537c2b8-f4c1-4914-9908-affe0df85d4e","bea99957-1862-4ad8-9558-57b91e42ce64","{""participantId"":""32A64E3242154F8A8592D9409928953F"",""assignmentId"":""7537c2b8-f4c1-4914-9908-affe0df85d4e"",""projectId"":""bea99957-1862-4ad8-9558-57b91e42ce64""}","https://test12345.live/?participantId=32A64E3242154F8A8592D9409928953F&assignmentId=7537c2b8-f4c1-4914-9908-affe0df85d4e&projectId=bea99957-1862-4ad8-9558-57b91e42ce64","","null","<div style=""display: flex; justify-content: center; align-items: center;"">
                    <img src=""images/semantic/semantic_series_8/semantic_series_8_b.jpg"" style=""width: 300px; height: 300px;"" />
                  </div>","null","",""
"","","","","","html-keyboard-response","43","323290","0.0-32.0-2.0","32A64E3242154F8A8592D9409928953F","32A64E3242154F8A8592D9409928953F","7537c2b8-f4c1-4914-9908-affe0df85d4e","bea99957-1862-4ad8-9558-57b91e42ce64","{""participantId"":""32A64E3242154F8A8592D9409928953F"",""assignmentId"":""7537c2b8-f4c1-4914-9908-affe0df85d4e"",""projectId"":""bea99957-1862-4ad8-9558-57b91e42ce64""}","https://test12345.live/?participantId=32A64E3242154F8A8592D9409928953F&assignmentId=7537c2b8-f4c1-4914-9908-affe0df85d4e&projectId=bea99957-1862-4ad8-9558-57b91e42ce64","","null","<div style=""display: flex; justify-content: center; align-items: center;"">
                    <img src=""images/semantic/semantic_series_8/semantic_series_8_c.jpg"" style=""width: 300px; height: 300px;"" />
                  </div>","null","",""
"","","","","","html-keyboard-response","44","326292","0.0-32.0-3.0","32A64E3242154F8A8592D9409928953F","32A64E3242154F8A8592D9409928953F","7537c2b8-f4c1-4914-9908-affe0df85d4e","bea99957-1862-4ad8-9558-57b91e42ce64","{""participantId"":""32A64E3242154F8A8592D9409928953F"",""assignmentId"":""7537c2b8-f4c1-4914-9908-affe0df85d4e"",""projectId"":""bea99957-1862-4ad8-9558-57b91e42ce64""}","https://test12345.live/?participantId=32A64E3242154F8A8592D9409928953F&assignmentId=7537c2b8-f4c1-4914-9908-affe0df85d4e&projectId=bea99957-1862-4ad8-9558-57b91e42ce64","","null","<div style=""display: flex; justify-content: center; align-items: center;"">
                    <img src=""images/semantic/semantic_series_8/semantic_series_8_d.jpg"" style=""width: 300px; height: 300px;"" />
                  </div>","null","",""
"","","","","","html-button-response","45","328963","0.0-33.0","32A64E3242154F8A8592D9409928953F","32A64E3242154F8A8592D9409928953F","7537c2b8-f4c1-4914-9908-affe0df85d4e","bea99957-1862-4ad8-9558-57b91e42ce64","{""participantId"":""32A64E3242154F8A8592D9409928953F"",""assignmentId"":""7537c2b8-f4c1-4914-9908-affe0df85d4e"",""projectId"":""bea99957-1862-4ad8-9558-57b91e42ce64""}","https://test12345.live/?participantId=32A64E3242154F8A8592D9409928953F&assignmentId=7537c2b8-f4c1-4914-9908-affe0df85d4e&projectId=bea99957-1862-4ad8-9558-57b91e42ce64","","2670","Was there a person in the picture?","1","",""
"","","","","","survey-likert","46","333268","0.0-34.0","32A64E3242154F8A8592D9409928953F","32A64E3242154F8A8592D9409928953F","7537c2b8-f4c1-4914-9908-affe0df85d4e","bea99957-1862-4ad8-9558-57b91e42ce64","{""participantId"":""32A64E3242154F8A8592D9409928953F"",""assignmentId"":""7537c2b8-f4c1-4914-9908-affe0df85d4e"",""projectId"":""bea99957-1862-4ad8-9558-57b91e42ce64""}","https://test12345.live/?participantId=32A64E3242154F8A8592D9409928953F&assignmentId=7537c2b8-f4c1-4914-9908-affe0df85d4e&projectId=bea99957-1862-4ad8-9558-57b91e42ce64","","4304","","{""Q0"":2}","","[0]"
"","","","","","html-button-response","47","335143","0.0-35.0","32A64E3242154F8A8592D9409928953F","32A64E3242154F8A8592D9409928953F","7537c2b8-f4c1-4914-9908-affe0df85d4e","bea99957-1862-4ad8-9558-57b91e42ce64","{""participantId"":""32A64E3242154F8A8592D9409928953F"",""assignmentId"":""7537c2b8-f4c1-4914-9908-affe0df85d4e"",""projectId"":""bea99957-1862-4ad8-9558-57b91e42ce64""}","https://test12345.live/?participantId=32A64E3242154F8A8592D9409928953F&assignmentId=7537c2b8-f4c1-4914-9908-affe0df85d4e&projectId=bea99957-1862-4ad8-9558-57b91e42ce64","","1873","
    <div style=""display: flex; justify-content: center; align-items: center;"">
      <img src=""images/red_deck_2.png"" style=""width: 300px; height: 300px; margin-right: 10px;"" />
      <img src=""images/blue_deck_1.png"" style=""width: 300px; height: 300px;"" />
    </div>","1","1",""
"","","","","","html-keyboard-response","48","338145","0.0-36.0-0.0","32A64E3242154F8A8592D9409928953F","32A64E3242154F8A8592D9409928953F","7537c2b8-f4c1-4914-9908-affe0df85d4e","bea99957-1862-4ad8-9558-57b91e42ce64","{""participantId"":""32A64E3242154F8A8592D9409928953F"",""assignmentId"":""7537c2b8-f4c1-4914-9908-affe0df85d4e"",""projectId"":""bea99957-1862-4ad8-9558-57b91e42ce64""}","https://test12345.live/?participantId=32A64E3242154F8A8592D9409928953F&assignmentId=7537c2b8-f4c1-4914-9908-affe0df85d4e&projectId=bea99957-1862-4ad8-9558-57b91e42ce64","","null","<div style=""display: flex; justify-content: center; align-items: center;"">
                    <img src=""images/causal/causal_series_2/causal_series_2_a.jpg"" style=""width: 300px; height: 300px;"" />
                  </div>","null","",""
"","","","","","html-keyboard-response","49","341154","0.0-36.0-1.0","32A64E3242154F8A8592D9409928953F","32A64E3242154F8A8592D9409928953F","7537c2b8-f4c1-4914-9908-affe0df85d4e","bea99957-1862-4ad8-9558-57b91e42ce64","{""participantId"":""32A64E3242154F8A8592D9409928953F"",""assignmentId"":""7537c2b8-f4c1-4914-9908-affe0df85d4e"",""projectId"":""bea99957-1862-4ad8-9558-57b91e42ce64""}","https://test12345.live/?participantId=32A64E3242154F8A8592D9409928953F&assignmentId=7537c2b8-f4c1-4914-9908-affe0df85d4e&projectId=bea99957-1862-4ad8-9558-57b91e42ce64","","null","<div style=""display: flex; justify-content: center; align-items: center;"">
                    <img src=""images/causal/causal_series_2/causal_series_2_b.jpg"" style=""width: 300px; height: 300px;"" />
                  </div>","null","",""
"","","","","","html-keyboard-response","50","344169","0.0-36.0-2.0","32A64E3242154F8A8592D9409928953F","32A64E3242154F8A8592D9409928953F","7537c2b8-f4c1-4914-9908-affe0df85d4e","bea99957-1862-4ad8-9558-57b91e42ce64","{""participantId"":""32A64E3242154F8A8592D9409928953F"",""assignmentId"":""7537c2b8-f4c1-4914-9908-affe0df85d4e"",""projectId"":""bea99957-1862-4ad8-9558-57b91e42ce64""}","https://test12345.live/?participantId=32A64E3242154F8A8592D9409928953F&assignmentId=7537c2b8-f4c1-4914-9908-affe0df85d4e&projectId=bea99957-1862-4ad8-9558-57b91e42ce64","","null","<div style=""display: flex; justify-content: center; align-items: center;"">
                    <img src=""images/causal/causal_series_2/causal_series_2_c.jpg"" style=""width: 300px; height: 300px;"" />
                  </div>","null","",""
"","","","","","html-keyboard-response","51","347171","0.0-36.0-3.0","32A64E3242154F8A8592D9409928953F","32A64E3242154F8A8592D9409928953F","7537c2b8-f4c1-4914-9908-affe0df85d4e","bea99957-1862-4ad8-9558-57b91e42ce64","{""participantId"":""32A64E3242154F8A8592D9409928953F"",""assignmentId"":""7537c2b8-f4c1-4914-9908-affe0df85d4e"",""projectId"":""bea99957-1862-4ad8-9558-57b91e42ce64""}","https://test12345.live/?participantId=32A64E3242154F8A8592D9409928953F&assignmentId=7537c2b8-f4c1-4914-9908-affe0df85d4e&projectId=bea99957-1862-4ad8-9558-57b91e42ce64","","null","<div style=""display: flex; justify-content: center; align-items: center;"">
                    <img src=""images/causal/causal_series_2/causal_series_2_d.jpg"" style=""width: 300px; height: 300px;"" />
                  </div>","null","",""
"","","","","","html-button-response","52","349436","0.0-38.0","32A64E3242154F8A8592D9409928953F","32A64E3242154F8A8592D9409928953F","7537c2b8-f4c1-4914-9908-affe0df85d4e","bea99957-1862-4ad8-9558-57b91e42ce64","{""participantId"":""32A64E3242154F8A8592D9409928953F"",""assignmentId"":""7537c2b8-f4c1-4914-9908-affe0df85d4e"",""projectId"":""bea99957-1862-4ad8-9558-57b91e42ce64""}","https://test12345.live/?participantId=32A64E3242154F8A8592D9409928953F&assignmentId=7537c2b8-f4c1-4914-9908-affe0df85d4e&projectId=bea99957-1862-4ad8-9558-57b91e42ce64","","2264","Was there a person in the picture?","0","",""
"","","","","","survey-likert","53","352692","0.0-39.0","32A64E3242154F8A8592D9409928953F","32A64E3242154F8A8592D9409928953F","7537c2b8-f4c1-4914-9908-affe0df85d4e","bea99957-1862-4ad8-9558-57b91e42ce64","{""participantId"":""32A64E3242154F8A8592D9409928953F"",""assignmentId"":""7537c2b8-f4c1-4914-9908-affe0df85d4e"",""projectId"":""bea99957-1862-4ad8-9558-57b91e42ce64""}","https://test12345.live/?participantId=32A64E3242154F8A8592D9409928953F&assignmentId=7537c2b8-f4c1-4914-9908-affe0df85d4e&projectId=bea99957-1862-4ad8-9558-57b91e42ce64","","3255","","{""Q0"":4}","","[0]"
"","","","","","html-button-response","54","354476","0.0-40.0","32A64E3242154F8A8592D9409928953F","32A64E3242154F8A8592D9409928953F","7537c2b8-f4c1-4914-9908-affe0df85d4e","bea99957-1862-4ad8-9558-57b91e42ce64","{""participantId"":""32A64E3242154F8A8592D9409928953F"",""assignmentId"":""7537c2b8-f4c1-4914-9908-affe0df85d4e"",""projectId"":""bea99957-1862-4ad8-9558-57b91e42ce64""}","https://test12345.live/?participantId=32A64E3242154F8A8592D9409928953F&assignmentId=7537c2b8-f4c1-4914-9908-affe0df85d4e&projectId=bea99957-1862-4ad8-9558-57b91e42ce64","","1782","
    <div style=""display: flex; justify-content: center; align-items: center;"">
      <img src=""images/red_deck_2.png"" style=""width: 300px; height: 300px; margin-right: 10px;"" />
      <img src=""images/blue_deck_1.png"" style=""width: 300px; height: 300px;"" />
    </div>","1","1",""
"","","","","","html-keyboard-response","55","357491","0.0-41.0-0.0","32A64E3242154F8A8592D9409928953F","32A64E3242154F8A8592D9409928953F","7537c2b8-f4c1-4914-9908-affe0df85d4e","bea99957-1862-4ad8-9558-57b91e42ce64","{""participantId"":""32A64E3242154F8A8592D9409928953F"",""assignmentId"":""7537c2b8-f4c1-4914-9908-affe0df85d4e"",""projectId"":""bea99957-1862-4ad8-9558-57b91e42ce64""}","https://test12345.live/?participantId=32A64E3242154F8A8592D9409928953F&assignmentId=7537c2b8-f4c1-4914-9908-affe0df85d4e&projectId=bea99957-1862-4ad8-9558-57b91e42ce64","","null","<div style=""display: flex; justify-content: center; align-items: center;"">
                    <img src=""images/causal/causal_series_12/causal_series_12_a.jpg"" style=""width: 300px; height: 300px;"" />
                  </div>","null","",""
"","","","","","html-keyboard-response","56","360500","0.0-41.0-1.0","32A64E3242154F8A8592D9409928953F","32A64E3242154F8A8592D9409928953F","7537c2b8-f4c1-4914-9908-affe0df85d4e","bea99957-1862-4ad8-9558-57b91e42ce64","{""participantId"":""32A64E3242154F8A8592D9409928953F"",""assignmentId"":""7537c2b8-f4c1-4914-9908-affe0df85d4e"",""projectId"":""bea99957-1862-4ad8-9558-57b91e42ce64""}","https://test12345.live/?participantId=32A64E3242154F8A8592D9409928953F&assignmentId=7537c2b8-f4c1-4914-9908-affe0df85d4e&projectId=bea99957-1862-4ad8-9558-57b91e42ce64","","null","<div style=""display: flex; justify-content: center; align-items: center;"">
                    <img src=""images/causal/causal_series_12/causal_series_12_b.jpg"" style=""width: 300px; height: 300px;"" />
                  </div>","null","",""
"","","","","","html-keyboard-response","57","363509","0.0-41.0-2.0","32A64E3242154F8A8592D9409928953F","32A64E3242154F8A8592D9409928953F","7537c2b8-f4c1-4914-9908-affe0df85d4e","bea99957-1862-4ad8-9558-57b91e42ce64","{""participantId"":""32A64E3242154F8A8592D9409928953F"",""assignmentId"":""7537c2b8-f4c1-4914-9908-affe0df85d4e"",""projectId"":""bea99957-1862-4ad8-9558-57b91e42ce64""}","https://test12345.live/?participantId=32A64E3242154F8A8592D9409928953F&assignmentId=7537c2b8-f4c1-4914-9908-affe0df85d4e&projectId=bea99957-1862-4ad8-9558-57b91e42ce64","","null","<div style=""display: flex; justify-content: center; align-items: center;"">
                    <img src=""images/causal/causal_series_12/causal_series_12_c.jpg"" style=""width: 300px; height: 300px;"" />
                  </div>","null","",""
"","","","","","html-keyboard-response","58","366514","0.0-41.0-3.0","32A64E3242154F8A8592D9409928953F","32A64E3242154F8A8592D9409928953F","7537c2b8-f4c1-4914-9908-affe0df85d4e","bea99957-1862-4ad8-9558-57b91e42ce64","{""participantId"":""32A64E3242154F8A8592D9409928953F"",""assignmentId"":""7537c2b8-f4c1-4914-9908-affe0df85d4e"",""projectId"":""bea99957-1862-4ad8-9558-57b91e42ce64""}","https://test12345.live/?participantId=32A64E3242154F8A8592D9409928953F&assignmentId=7537c2b8-f4c1-4914-9908-affe0df85d4e&projectId=bea99957-1862-4ad8-9558-57b91e42ce64","","null","<div style=""display: flex; justify-content: center; align-items: center;"">
                    <img src=""images/causal/causal_series_12/causal_series_12_d.jpg"" style=""width: 300px; height: 300px;"" />
                  </div>","null","",""
"","","","","","html-button-response","59","373544","0.0-43.0","32A64E3242154F8A8592D9409928953F","32A64E3242154F8A8592D9409928953F","7537c2b8-f4c1-4914-9908-affe0df85d4e","bea99957-1862-4ad8-9558-57b91e42ce64","{""participantId"":""32A64E3242154F8A8592D9409928953F"",""assignmentId"":""7537c2b8-f4c1-4914-9908-affe0df85d4e"",""projectId"":""bea99957-1862-4ad8-9558-57b91e42ce64""}","https://test12345.live/?participantId=32A64E3242154F8A8592D9409928953F&assignmentId=7537c2b8-f4c1-4914-9908-affe0df85d4e&projectId=bea99957-1862-4ad8-9558-57b91e42ce64","","7028","Was there a person in the picture?","1","",""
"","","","","","survey-likert","60","376619","0.0-44.0","32A64E3242154F8A8592D9409928953F","32A64E3242154F8A8592D9409928953F","7537c2b8-f4c1-4914-9908-affe0df85d4e","bea99957-1862-4ad8-9558-57b91e42ce64","{""participantId"":""32A64E3242154F8A8592D9409928953F"",""assignmentId"":""7537c2b8-f4c1-4914-9908-affe0df85d4e"",""projectId"":""bea99957-1862-4ad8-9558-57b91e42ce64""}","https://test12345.live/?participantId=32A64E3242154F8A8592D9409928953F&assignmentId=7537c2b8-f4c1-4914-9908-affe0df85d4e&projectId=bea99957-1862-4ad8-9558-57b91e42ce64","","3074","","{""Q0"":1}","","[0]"
"","","","","","html-button-response","61","378090","0.0-45.0","32A64E3242154F8A8592D9409928953F","32A64E3242154F8A8592D9409928953F","7537c2b8-f4c1-4914-9908-affe0df85d4e","bea99957-1862-4ad8-9558-57b91e42ce64","{""participantId"":""32A64E3242154F8A8592D9409928953F"",""assignmentId"":""7537c2b8-f4c1-4914-9908-affe0df85d4e"",""projectId"":""bea99957-1862-4ad8-9558-57b91e42ce64""}","https://test12345.live/?participantId=32A64E3242154F8A8592D9409928953F&assignmentId=7537c2b8-f4c1-4914-9908-affe0df85d4e&projectId=bea99957-1862-4ad8-9558-57b91e42ce64","","1470","
    <div style=""display: flex; justify-content: center; align-items: center;"">
      <img src=""images/red_deck_2.png"" style=""width: 300px; height: 300px; margin-right: 10px;"" />
      <img src=""images/blue_deck_1.png"" style=""width: 300px; height: 300px;"" />
    </div>","1","1",""
"","","","","","html-keyboard-response","62","381093","0.0-46.0-0.0","32A64E3242154F8A8592D9409928953F","32A64E3242154F8A8592D9409928953F","7537c2b8-f4c1-4914-9908-affe0df85d4e","bea99957-1862-4ad8-9558-57b91e42ce64","{""participantId"":""32A64E3242154F8A8592D9409928953F"",""assignmentId"":""7537c2b8-f4c1-4914-9908-affe0df85d4e"",""projectId"":""bea99957-1862-4ad8-9558-57b91e42ce64""}","https://test12345.live/?participantId=32A64E3242154F8A8592D9409928953F&assignmentId=7537c2b8-f4c1-4914-9908-affe0df85d4e&projectId=bea99957-1862-4ad8-9558-57b91e42ce64","","null","<div style=""display: flex; justify-content: center; align-items: center;"">
                    <img src=""images/causal/causal_series_8/causal_series_8_a.jpg"" style=""width: 300px; height: 300px;"" />
                  </div>","null","",""
"","","","","","html-keyboard-response","63","384105","0.0-46.0-1.0","32A64E3242154F8A8592D9409928953F","32A64E3242154F8A8592D9409928953F","7537c2b8-f4c1-4914-9908-affe0df85d4e","bea99957-1862-4ad8-9558-57b91e42ce64","{""participantId"":""32A64E3242154F8A8592D9409928953F"",""assignmentId"":""7537c2b8-f4c1-4914-9908-affe0df85d4e"",""projectId"":""bea99957-1862-4ad8-9558-57b91e42ce64""}","https://test12345.live/?participantId=32A64E3242154F8A8592D9409928953F&assignmentId=7537c2b8-f4c1-4914-9908-affe0df85d4e&projectId=bea99957-1862-4ad8-9558-57b91e42ce64","","null","<div style=""display: flex; justify-content: center; align-items: center;"">
                    <img src=""images/causal/causal_series_8/causal_series_8_b.jpg"" style=""width: 300px; height: 300px;"" />
                  </div>","null","",""
"","","","","","html-keyboard-response","64","387120","0.0-46.0-2.0","32A64E3242154F8A8592D9409928953F","32A64E3242154F8A8592D9409928953F","7537c2b8-f4c1-4914-9908-affe0df85d4e","bea99957-1862-4ad8-9558-57b91e42ce64","{""participantId"":""32A64E3242154F8A8592D9409928953F"",""assignmentId"":""7537c2b8-f4c1-4914-9908-affe0df85d4e"",""projectId"":""bea99957-1862-4ad8-9558-57b91e42ce64""}","https://test12345.live/?participantId=32A64E3242154F8A8592D9409928953F&assignmentId=7537c2b8-f4c1-4914-9908-affe0df85d4e&projectId=bea99957-1862-4ad8-9558-57b91e42ce64","","null","<div style=""display: flex; justify-content: center; align-items: center;"">
                    <img src=""images/causal/causal_series_8/causal_series_8_c.jpg"" style=""width: 300px; height: 300px;"" />
                  </div>","null","",""
"","","","","","html-keyboard-response","65","390122","0.0-46.0-3.0","32A64E3242154F8A8592D9409928953F","32A64E3242154F8A8592D9409928953F","7537c2b8-f4c1-4914-9908-affe0df85d4e","bea99957-1862-4ad8-9558-57b91e42ce64","{""participantId"":""32A64E3242154F8A8592D9409928953F"",""assignmentId"":""7537c2b8-f4c1-4914-9908-affe0df85d4e"",""projectId"":""bea99957-1862-4ad8-9558-57b91e42ce64""}","https://test12345.live/?participantId=32A64E3242154F8A8592D9409928953F&assignmentId=7537c2b8-f4c1-4914-9908-affe0df85d4e&projectId=bea99957-1862-4ad8-9558-57b91e42ce64","","null","<div style=""display: flex; justify-content: center; align-items: center;"">
                    <img src=""images/causal/causal_series_8/causal_series_8_d.jpg"" style=""width: 300px; height: 300px;"" />
                  </div>","null","",""
"","","","","","html-button-response","66","393682","0.0-48.0","32A64E3242154F8A8592D9409928953F","32A64E3242154F8A8592D9409928953F","7537c2b8-f4c1-4914-9908-affe0df85d4e","bea99957-1862-4ad8-9558-57b91e42ce64","{""participantId"":""32A64E3242154F8A8592D9409928953F"",""assignmentId"":""7537c2b8-f4c1-4914-9908-affe0df85d4e"",""projectId"":""bea99957-1862-4ad8-9558-57b91e42ce64""}","https://test12345.live/?participantId=32A64E3242154F8A8592D9409928953F&assignmentId=7537c2b8-f4c1-4914-9908-affe0df85d4e&projectId=bea99957-1862-4ad8-9558-57b91e42ce64","","3558","Was there a person in the picture?","1","",""
"","","","","","survey-likert","67","396616","0.0-49.0","32A64E3242154F8A8592D9409928953F","32A64E3242154F8A8592D9409928953F","7537c2b8-f4c1-4914-9908-affe0df85d4e","bea99957-1862-4ad8-9558-57b91e42ce64","{""participantId"":""32A64E3242154F8A8592D9409928953F"",""assignmentId"":""7537c2b8-f4c1-4914-9908-affe0df85d4e"",""projectId"":""bea99957-1862-4ad8-9558-57b91e42ce64""}","https://test12345.live/?participantId=32A64E3242154F8A8592D9409928953F&assignmentId=7537c2b8-f4c1-4914-9908-affe0df85d4e&projectId=bea99957-1862-4ad8-9558-57b91e42ce64","","2933","","{""Q0"":3}","","[0]"
"","","","","","html-button-response","68","398460","0.0-50.0","32A64E3242154F8A8592D9409928953F","32A64E3242154F8A8592D9409928953F","7537c2b8-f4c1-4914-9908-affe0df85d4e","bea99957-1862-4ad8-9558-57b91e42ce64","{""participantId"":""32A64E3242154F8A8592D9409928953F"",""assignmentId"":""7537c2b8-f4c1-4914-9908-affe0df85d4e"",""projectId"":""bea99957-1862-4ad8-9558-57b91e42ce64""}","https://test12345.live/?participantId=32A64E3242154F8A8592D9409928953F&assignmentId=7537c2b8-f4c1-4914-9908-affe0df85d4e&projectId=bea99957-1862-4ad8-9558-57b91e42ce64","","1843","
    <div style=""display: flex; justify-content: center; align-items: center;"">
      <img src=""images/red_deck_2.png"" style=""width: 300px; height: 300px; margin-right: 10px;"" />
      <img src=""images/blue_deck_1.png"" style=""width: 300px; height: 300px;"" />
    </div>","1","1",""
"","","","","","html-keyboard-response","69","401472","0.0-51.0-0.0","32A64E3242154F8A8592D9409928953F","32A64E3242154F8A8592D9409928953F","7537c2b8-f4c1-4914-9908-affe0df85d4e","bea99957-1862-4ad8-9558-57b91e42ce64","{""participantId"":""32A64E3242154F8A8592D9409928953F"",""assignmentId"":""7537c2b8-f4c1-4914-9908-affe0df85d4e"",""projectId"":""bea99957-1862-4ad8-9558-57b91e42ce64""}","https://test12345.live/?participantId=32A64E3242154F8A8592D9409928953F&assignmentId=7537c2b8-f4c1-4914-9908-affe0df85d4e&projectId=bea99957-1862-4ad8-9558-57b91e42ce64","","null","<div style=""display: flex; justify-content: center; align-items: center;"">
                    <img src=""images/causal/causal_series_10/causal_series_10_a.jpg"" style=""width: 300px; height: 300px;"" />
                  </div>","null","",""
"","","","","","html-keyboard-response","70","404480","0.0-51.0-1.0","32A64E3242154F8A8592D9409928953F","32A64E3242154F8A8592D9409928953F","7537c2b8-f4c1-4914-9908-affe0df85d4e","bea99957-1862-4ad8-9558-57b91e42ce64","{""participantId"":""32A64E3242154F8A8592D9409928953F"",""assignmentId"":""7537c2b8-f4c1-4914-9908-affe0df85d4e"",""projectId"":""bea99957-1862-4ad8-9558-57b91e42ce64""}","https://test12345.live/?participantId=32A64E3242154F8A8592D9409928953F&assignmentId=7537c2b8-f4c1-4914-9908-affe0df85d4e&projectId=bea99957-1862-4ad8-9558-57b91e42ce64","","null","<div style=""display: flex; justify-content: center; align-items: center;"">
                    <img src=""images/causal/causal_series_10/causal_series_10_b.jpg"" style=""width: 300px; height: 300px;"" />
                  </div>","null","",""
"","","","","","html-keyboard-response","71","407495","0.0-51.0-2.0","32A64E3242154F8A8592D9409928953F","32A64E3242154F8A8592D9409928953F","7537c2b8-f4c1-4914-9908-affe0df85d4e","bea99957-1862-4ad8-9558-57b91e42ce64","{""participantId"":""32A64E3242154F8A8592D9409928953F"",""assignmentId"":""7537c2b8-f4c1-4914-9908-affe0df85d4e"",""projectId"":""bea99957-1862-4ad8-9558-57b91e42ce64""}","https://test12345.live/?participantId=32A64E3242154F8A8592D9409928953F&assignmentId=7537c2b8-f4c1-4914-9908-affe0df85d4e&projectId=bea99957-1862-4ad8-9558-57b91e42ce64","","null","<div style=""display: flex; justify-content: center; align-items: center;"">
                    <img src=""images/causal/causal_series_10/causal_series_10_c.jpg"" style=""width: 300px; height: 300px;"" />
                  </div>","null","",""
"","","","","","html-keyboard-response","72","410497","0.0-51.0-3.0","32A64E3242154F8A8592D9409928953F","32A64E3242154F8A8592D9409928953F","7537c2b8-f4c1-4914-9908-affe0df85d4e","bea99957-1862-4ad8-9558-57b91e42ce64","{""participantId"":""32A64E3242154F8A8592D9409928953F"",""assignmentId"":""7537c2b8-f4c1-4914-9908-affe0df85d4e"",""projectId"":""bea99957-1862-4ad8-9558-57b91e42ce64""}","https://test12345.live/?participantId=32A64E3242154F8A8592D9409928953F&assignmentId=7537c2b8-f4c1-4914-9908-affe0df85d4e&projectId=bea99957-1862-4ad8-9558-57b91e42ce64","","null","<div style=""display: flex; justify-content: center; align-items: center;"">
                    <img src=""images/causal/causal_series_10/causal_series_10_d.jpg"" style=""width: 300px; height: 300px;"" />
                  </div>","null","",""
"","","","","","html-button-response","73","412482","0.0-53.0","32A64E3242154F8A8592D9409928953F","32A64E3242154F8A8592D9409928953F","7537c2b8-f4c1-4914-9908-affe0df85d4e","bea99957-1862-4ad8-9558-57b91e42ce64","{""participantId"":""32A64E3242154F8A8592D9409928953F"",""assignmentId"":""7537c2b8-f4c1-4914-9908-affe0df85d4e"",""projectId"":""bea99957-1862-4ad8-9558-57b91e42ce64""}","https://test12345.live/?participantId=32A64E3242154F8A8592D9409928953F&assignmentId=7537c2b8-f4c1-4914-9908-affe0df85d4e&projectId=bea99957-1862-4ad8-9558-57b91e42ce64","","1983","Was there a person in the picture?","1","",""
"","","","","","survey-likert","74","415295","0.0-54.0","32A64E3242154F8A8592D9409928953F","32A64E3242154F8A8592D9409928953F","7537c2b8-f4c1-4914-9908-affe0df85d4e","bea99957-1862-4ad8-9558-57b91e42ce64","{""participantId"":""32A64E3242154F8A8592D9409928953F"",""assignmentId"":""7537c2b8-f4c1-4914-9908-affe0df85d4e"",""projectId"":""bea99957-1862-4ad8-9558-57b91e42ce64""}","https://test12345.live/?participantId=32A64E3242154F8A8592D9409928953F&assignmentId=7537c2b8-f4c1-4914-9908-affe0df85d4e&projectId=bea99957-1862-4ad8-9558-57b91e42ce64","","2812","","{""Q0"":2}","","[0]"
"","","","","","html-button-response","75","418101","0.0-55.0","32A64E3242154F8A8592D9409928953F","32A64E3242154F8A8592D9409928953F","7537c2b8-f4c1-4914-9908-affe0df85d4e","bea99957-1862-4ad8-9558-57b91e42ce64","{""participantId"":""32A64E3242154F8A8592D9409928953F"",""assignmentId"":""7537c2b8-f4c1-4914-9908-affe0df85d4e"",""projectId"":""bea99957-1862-4ad8-9558-57b91e42ce64""}","https://test12345.live/?participantId=32A64E3242154F8A8592D9409928953F&assignmentId=7537c2b8-f4c1-4914-9908-affe0df85d4e&projectId=bea99957-1862-4ad8-9558-57b91e42ce64","","2805","
    <div style=""display: flex; justify-content: center; align-items: center;"">
      <img src=""images/red_deck_2.png"" style=""width: 300px; height: 300px; margin-right: 10px;"" />
      <img src=""images/blue_deck_1.png"" style=""width: 300px; height: 300px;"" />
    </div>","1","1",""
"","","","","","html-keyboard-response","76","421118","0.0-56.0-0.0","32A64E3242154F8A8592D9409928953F","32A64E3242154F8A8592D9409928953F","7537c2b8-f4c1-4914-9908-affe0df85d4e","bea99957-1862-4ad8-9558-57b91e42ce64","{""participantId"":""32A64E3242154F8A8592D9409928953F"",""assignmentId"":""7537c2b8-f4c1-4914-9908-affe0df85d4e"",""projectId"":""bea99957-1862-4ad8-9558-57b91e42ce64""}","https://test12345.live/?participantId=32A64E3242154F8A8592D9409928953F&assignmentId=7537c2b8-f4c1-4914-9908-affe0df85d4e&projectId=bea99957-1862-4ad8-9558-57b91e42ce64","","null","<div style=""display: flex; justify-content: center; align-items: center;"">
                    <img src=""images/causal/causal_series_5/causal_series_5_a.jpg"" style=""width: 300px; height: 300px;"" />
                  </div>","null","",""
"","","","","","html-keyboard-response","77","424133","0.0-56.0-1.0","32A64E3242154F8A8592D9409928953F","32A64E3242154F8A8592D9409928953F","7537c2b8-f4c1-4914-9908-affe0df85d4e","bea99957-1862-4ad8-9558-57b91e42ce64","{""participantId"":""32A64E3242154F8A8592D9409928953F"",""assignmentId"":""7537c2b8-f4c1-4914-9908-affe0df85d4e"",""projectId"":""bea99957-1862-4ad8-9558-57b91e42ce64""}","https://test12345.live/?participantId=32A64E3242154F8A8592D9409928953F&assignmentId=7537c2b8-f4c1-4914-9908-affe0df85d4e&projectId=bea99957-1862-4ad8-9558-57b91e42ce64","","null","<div style=""display: flex; justify-content: center; align-items: center;"">
                    <img src=""images/causal/causal_series_5/causal_series_5_b.jpg"" style=""width: 300px; height: 300px;"" />
                  </div>","null","",""
"","","","","","html-keyboard-response","78","427141","0.0-56.0-2.0","32A64E3242154F8A8592D9409928953F","32A64E3242154F8A8592D9409928953F","7537c2b8-f4c1-4914-9908-affe0df85d4e","bea99957-1862-4ad8-9558-57b91e42ce64","{""participantId"":""32A64E3242154F8A8592D9409928953F"",""assignmentId"":""7537c2b8-f4c1-4914-9908-affe0df85d4e"",""projectId"":""bea99957-1862-4ad8-9558-57b91e42ce64""}","https://test12345.live/?participantId=32A64E3242154F8A8592D9409928953F&assignmentId=7537c2b8-f4c1-4914-9908-affe0df85d4e&projectId=bea99957-1862-4ad8-9558-57b91e42ce64","","null","<div style=""display: flex; justify-content: center; align-items: center;"">
                    <img src=""images/causal/causal_series_5/causal_series_5_c.jpg"" style=""width: 300px; height: 300px;"" />
                  </div>","null","",""
"","","","","","html-keyboard-response","79","430153","0.0-56.0-3.0","32A64E3242154F8A8592D9409928953F","32A64E3242154F8A8592D9409928953F","7537c2b8-f4c1-4914-9908-affe0df85d4e","bea99957-1862-4ad8-9558-57b91e42ce64","{""participantId"":""32A64E3242154F8A8592D9409928953F"",""assignmentId"":""7537c2b8-f4c1-4914-9908-affe0df85d4e"",""projectId"":""bea99957-1862-4ad8-9558-57b91e42ce64""}","https://test12345.live/?participantId=32A64E3242154F8A8592D9409928953F&assignmentId=7537c2b8-f4c1-4914-9908-affe0df85d4e&projectId=bea99957-1862-4ad8-9558-57b91e42ce64","","null","<div style=""display: flex; justify-content: center; align-items: center;"">
                    <img src=""images/causal/causal_series_5/causal_series_5_d.jpg"" style=""width: 300px; height: 300px;"" />
                  </div>","null","",""
"","","","","","html-button-response","80","432655","0.0-58.0","32A64E3242154F8A8592D9409928953F","32A64E3242154F8A8592D9409928953F","7537c2b8-f4c1-4914-9908-affe0df85d4e","bea99957-1862-4ad8-9558-57b91e42ce64","{""participantId"":""32A64E3242154F8A8592D9409928953F"",""assignmentId"":""7537c2b8-f4c1-4914-9908-affe0df85d4e"",""projectId"":""bea99957-1862-4ad8-9558-57b91e42ce64""}","https://test12345.live/?participantId=32A64E3242154F8A8592D9409928953F&assignmentId=7537c2b8-f4c1-4914-9908-affe0df85d4e&projectId=bea99957-1862-4ad8-9558-57b91e42ce64","","2500","Was there a person in the picture?","0","",""
"","","","","","survey-likert","81","436033","0.0-59.0","32A64E3242154F8A8592D9409928953F","32A64E3242154F8A8592D9409928953F","7537c2b8-f4c1-4914-9908-affe0df85d4e","bea99957-1862-4ad8-9558-57b91e42ce64","{""participantId"":""32A64E3242154F8A8592D9409928953F"",""assignmentId"":""7537c2b8-f4c1-4914-9908-affe0df85d4e"",""projectId"":""bea99957-1862-4ad8-9558-57b91e42ce64""}","https://test12345.live/?participantId=32A64E3242154F8A8592D9409928953F&assignmentId=7537c2b8-f4c1-4914-9908-affe0df85d4e&projectId=bea99957-1862-4ad8-9558-57b91e42ce64","","3377","","{""Q0"":2}","","[0]"
"","","","","","html-button-response","82","437767","0.0-60.0","32A64E3242154F8A8592D9409928953F","32A64E3242154F8A8592D9409928953F","7537c2b8-f4c1-4914-9908-affe0df85d4e","bea99957-1862-4ad8-9558-57b91e42ce64","{""participantId"":""32A64E3242154F8A8592D9409928953F"",""assignmentId"":""7537c2b8-f4c1-4914-9908-affe0df85d4e"",""projectId"":""bea99957-1862-4ad8-9558-57b91e42ce64""}","https://test12345.live/?participantId=32A64E3242154F8A8592D9409928953F&assignmentId=7537c2b8-f4c1-4914-9908-affe0df85d4e&projectId=bea99957-1862-4ad8-9558-57b91e42ce64","","1732","
    <div style=""display: flex; justify-content: center; align-items: center;"">
      <img src=""images/red_deck_2.png"" style=""width: 300px; height: 300px; margin-right: 10px;"" />
      <img src=""images/blue_deck_1.png"" style=""width: 300px; height: 300px;"" />
    </div>","1","1",""
"","","","","","html-keyboard-response","83","440772","0.0-61.0-0.0","32A64E3242154F8A8592D9409928953F","32A64E3242154F8A8592D9409928953F","7537c2b8-f4c1-4914-9908-affe0df85d4e","bea99957-1862-4ad8-9558-57b91e42ce64","{""participantId"":""32A64E3242154F8A8592D9409928953F"",""assignmentId"":""7537c2b8-f4c1-4914-9908-affe0df85d4e"",""projectId"":""bea99957-1862-4ad8-9558-57b91e42ce64""}","https://test12345.live/?participantId=32A64E3242154F8A8592D9409928953F&assignmentId=7537c2b8-f4c1-4914-9908-affe0df85d4e&projectId=bea99957-1862-4ad8-9558-57b91e42ce64","","null","<div style=""display: flex; justify-content: center; align-items: center;"">
                    <img src=""images/causal/causal_series_1/causal_series_1_a.jpg"" style=""width: 300px; height: 300px;"" />
                  </div>","null","",""
"","","","","","html-keyboard-response","84","443788","0.0-61.0-1.0","32A64E3242154F8A8592D9409928953F","32A64E3242154F8A8592D9409928953F","7537c2b8-f4c1-4914-9908-affe0df85d4e","bea99957-1862-4ad8-9558-57b91e42ce64","{""participantId"":""32A64E3242154F8A8592D9409928953F"",""assignmentId"":""7537c2b8-f4c1-4914-9908-affe0df85d4e"",""projectId"":""bea99957-1862-4ad8-9558-57b91e42ce64""}","https://test12345.live/?participantId=32A64E3242154F8A8592D9409928953F&assignmentId=7537c2b8-f4c1-4914-9908-affe0df85d4e&projectId=bea99957-1862-4ad8-9558-57b91e42ce64","","null","<div style=""display: flex; justify-content: center; align-items: center;"">
                    <img src=""images/causal/causal_series_1/causal_series_1_b.jpg"" style=""width: 300px; height: 300px;"" />
                  </div>","null","",""
"","","","","","html-keyboard-response","85","446795","0.0-61.0-2.0","32A64E3242154F8A8592D9409928953F","32A64E3242154F8A8592D9409928953F","7537c2b8-f4c1-4914-9908-affe0df85d4e","bea99957-1862-4ad8-9558-57b91e42ce64","{""participantId"":""32A64E3242154F8A8592D9409928953F"",""assignmentId"":""7537c2b8-f4c1-4914-9908-affe0df85d4e"",""projectId"":""bea99957-1862-4ad8-9558-57b91e42ce64""}","https://test12345.live/?participantId=32A64E3242154F8A8592D9409928953F&assignmentId=7537c2b8-f4c1-4914-9908-affe0df85d4e&projectId=bea99957-1862-4ad8-9558-57b91e42ce64","","null","<div style=""display: flex; justify-content: center; align-items: center;"">
                    <img src=""images/causal/causal_series_1/causal_series_1_c.jpg"" style=""width: 300px; height: 300px;"" />
                  </div>","null","",""
"","","","","","html-keyboard-response","86","449797","0.0-61.0-3.0","32A64E3242154F8A8592D9409928953F","32A64E3242154F8A8592D9409928953F","7537c2b8-f4c1-4914-9908-affe0df85d4e","bea99957-1862-4ad8-9558-57b91e42ce64","{""participantId"":""32A64E3242154F8A8592D9409928953F"",""assignmentId"":""7537c2b8-f4c1-4914-9908-affe0df85d4e"",""projectId"":""bea99957-1862-4ad8-9558-57b91e42ce64""}","https://test12345.live/?participantId=32A64E3242154F8A8592D9409928953F&assignmentId=7537c2b8-f4c1-4914-9908-affe0df85d4e&projectId=bea99957-1862-4ad8-9558-57b91e42ce64","","null","<div style=""display: flex; justify-content: center; align-items: center;"">
                    <img src=""images/causal/causal_series_1/causal_series_1_d.jpg"" style=""width: 300px; height: 300px;"" />
                  </div>","null","",""
"","","","","","html-button-response","87","452284","0.0-63.0","32A64E3242154F8A8592D9409928953F","32A64E3242154F8A8592D9409928953F","7537c2b8-f4c1-4914-9908-affe0df85d4e","bea99957-1862-4ad8-9558-57b91e42ce64","{""participantId"":""32A64E3242154F8A8592D9409928953F"",""assignmentId"":""7537c2b8-f4c1-4914-9908-affe0df85d4e"",""projectId"":""bea99957-1862-4ad8-9558-57b91e42ce64""}","https://test12345.live/?participantId=32A64E3242154F8A8592D9409928953F&assignmentId=7537c2b8-f4c1-4914-9908-affe0df85d4e&projectId=bea99957-1862-4ad8-9558-57b91e42ce64","","2486","Was there a person in the picture?","0","",""
"","","","","","survey-likert","88","455501","0.0-64.0","32A64E3242154F8A8592D9409928953F","32A64E3242154F8A8592D9409928953F","7537c2b8-f4c1-4914-9908-affe0df85d4e","bea99957-1862-4ad8-9558-57b91e42ce64","{""participantId"":""32A64E3242154F8A8592D9409928953F"",""assignmentId"":""7537c2b8-f4c1-4914-9908-affe0df85d4e"",""projectId"":""bea99957-1862-4ad8-9558-57b91e42ce64""}","https://test12345.live/?participantId=32A64E3242154F8A8592D9409928953F&assignmentId=7537c2b8-f4c1-4914-9908-affe0df85d4e&projectId=bea99957-1862-4ad8-9558-57b91e42ce64","","3216","","{""Q0"":4}","","[0]"
"","","","","","html-button-response","89","457204","0.0-65.0","32A64E3242154F8A8592D9409928953F","32A64E3242154F8A8592D9409928953F","7537c2b8-f4c1-4914-9908-affe0df85d4e","bea99957-1862-4ad8-9558-57b91e42ce64","{""participantId"":""32A64E3242154F8A8592D9409928953F"",""assignmentId"":""7537c2b8-f4c1-4914-9908-affe0df85d4e"",""projectId"":""bea99957-1862-4ad8-9558-57b91e42ce64""}","https://test12345.live/?participantId=32A64E3242154F8A8592D9409928953F&assignmentId=7537c2b8-f4c1-4914-9908-affe0df85d4e&projectId=bea99957-1862-4ad8-9558-57b91e42ce64","","1702","
    <div style=""display: flex; justify-content: center; align-items: center;"">
      <img src=""images/red_deck_2.png"" style=""width: 300px; height: 300px; margin-right: 10px;"" />
      <img src=""images/blue_deck_1.png"" style=""width: 300px; height: 300px;"" />
    </div>","1","1",""
"","","","","","html-keyboard-response","90","460217","0.0-66.0-0.0","32A64E3242154F8A8592D9409928953F","32A64E3242154F8A8592D9409928953F","7537c2b8-f4c1-4914-9908-affe0df85d4e","bea99957-1862-4ad8-9558-57b91e42ce64","{""participantId"":""32A64E3242154F8A8592D9409928953F"",""assignmentId"":""7537c2b8-f4c1-4914-9908-affe0df85d4e"",""projectId"":""bea99957-1862-4ad8-9558-57b91e42ce64""}","https://test12345.live/?participantId=32A64E3242154F8A8592D9409928953F&assignmentId=7537c2b8-f4c1-4914-9908-affe0df85d4e&projectId=bea99957-1862-4ad8-9558-57b91e42ce64","","null","<div style=""display: flex; justify-content: center; align-items: center;"">
                    <img src=""images/causal/causal_series_7/causal_series_7_a.jpg"" style=""width: 300px; height: 300px;"" />
                  </div>","null","",""
"","","","","","html-keyboard-response","91","463220","0.0-66.0-1.0","32A64E3242154F8A8592D9409928953F","32A64E3242154F8A8592D9409928953F","7537c2b8-f4c1-4914-9908-affe0df85d4e","bea99957-1862-4ad8-9558-57b91e42ce64","{""participantId"":""32A64E3242154F8A8592D9409928953F"",""assignmentId"":""7537c2b8-f4c1-4914-9908-affe0df85d4e"",""projectId"":""bea99957-1862-4ad8-9558-57b91e42ce64""}","https://test12345.live/?participantId=32A64E3242154F8A8592D9409928953F&assignmentId=7537c2b8-f4c1-4914-9908-affe0df85d4e&projectId=bea99957-1862-4ad8-9558-57b91e42ce64","","null","<div style=""display: flex; justify-content: center; align-items: center;"">
                    <img src=""images/causal/causal_series_7/causal_series_7_b.jpg"" style=""width: 300px; height: 300px;"" />
                  </div>","null","",""
"","","","","","html-keyboard-response","92","466230","0.0-66.0-2.0","32A64E3242154F8A8592D9409928953F","32A64E3242154F8A8592D9409928953F","7537c2b8-f4c1-4914-9908-affe0df85d4e","bea99957-1862-4ad8-9558-57b91e42ce64","{""participantId"":""32A64E3242154F8A8592D9409928953F"",""assignmentId"":""7537c2b8-f4c1-4914-9908-affe0df85d4e"",""projectId"":""bea99957-1862-4ad8-9558-57b91e42ce64""}","https://test12345.live/?participantId=32A64E3242154F8A8592D9409928953F&assignmentId=7537c2b8-f4c1-4914-9908-affe0df85d4e&projectId=bea99957-1862-4ad8-9558-57b91e42ce64","","null","<div style=""display: flex; justify-content: center; align-items: center;"">
                    <img src=""images/causal/causal_series_7/causal_series_7_c.jpg"" style=""width: 300px; height: 300px;"" />
                  </div>","null","",""
"","","","","","html-keyboard-response","93","469242","0.0-66.0-3.0","32A64E3242154F8A8592D9409928953F","32A64E3242154F8A8592D9409928953F","7537c2b8-f4c1-4914-9908-affe0df85d4e","bea99957-1862-4ad8-9558-57b91e42ce64","{""participantId"":""32A64E3242154F8A8592D9409928953F"",""assignmentId"":""7537c2b8-f4c1-4914-9908-affe0df85d4e"",""projectId"":""bea99957-1862-4ad8-9558-57b91e42ce64""}","https://test12345.live/?participantId=32A64E3242154F8A8592D9409928953F&assignmentId=7537c2b8-f4c1-4914-9908-affe0df85d4e&projectId=bea99957-1862-4ad8-9558-57b91e42ce64","","null","<div style=""display: flex; justify-content: center; align-items: center;"">
                    <img src=""images/causal/causal_series_7/causal_series_7_d.jpg"" style=""width: 300px; height: 300px;"" />
                  </div>","null","",""
"","","","","","html-button-response","94","471492","0.0-68.0","32A64E3242154F8A8592D9409928953F","32A64E3242154F8A8592D9409928953F","7537c2b8-f4c1-4914-9908-affe0df85d4e","bea99957-1862-4ad8-9558-57b91e42ce64","{""participantId"":""32A64E3242154F8A8592D9409928953F"",""assignmentId"":""7537c2b8-f4c1-4914-9908-affe0df85d4e"",""projectId"":""bea99957-1862-4ad8-9558-57b91e42ce64""}","https://test12345.live/?participantId=32A64E3242154F8A8592D9409928953F&assignmentId=7537c2b8-f4c1-4914-9908-affe0df85d4e&projectId=bea99957-1862-4ad8-9558-57b91e42ce64","","2249","Was there a person in the picture?","1","",""
"","","","","","survey-likert","95","476251","0.0-69.0","32A64E3242154F8A8592D9409928953F","32A64E3242154F8A8592D9409928953F","7537c2b8-f4c1-4914-9908-affe0df85d4e","bea99957-1862-4ad8-9558-57b91e42ce64","{""participantId"":""32A64E3242154F8A8592D9409928953F"",""assignmentId"":""7537c2b8-f4c1-4914-9908-affe0df85d4e"",""projectId"":""bea99957-1862-4ad8-9558-57b91e42ce64""}","https://test12345.live/?participantId=32A64E3242154F8A8592D9409928953F&assignmentId=7537c2b8-f4c1-4914-9908-affe0df85d4e&projectId=bea99957-1862-4ad8-9558-57b91e42ce64","","4758","","{""Q0"":2}","","[0]"
"","","","","","html-button-response","96","478156","0.0-70.0","32A64E3242154F8A8592D9409928953F","32A64E3242154F8A8592D9409928953F","7537c2b8-f4c1-4914-9908-affe0df85d4e","bea99957-1862-4ad8-9558-57b91e42ce64","{""participantId"":""32A64E3242154F8A8592D9409928953F"",""assignmentId"":""7537c2b8-f4c1-4914-9908-affe0df85d4e"",""projectId"":""bea99957-1862-4ad8-9558-57b91e42ce64""}","https://test12345.live/?participantId=32A64E3242154F8A8592D9409928953F&assignmentId=7537c2b8-f4c1-4914-9908-affe0df85d4e&projectId=bea99957-1862-4ad8-9558-57b91e42ce64","","1903","
    <div style=""display: flex; justify-content: center; align-items: center;"">
      <img src=""images/red_deck_2.png"" style=""width: 300px; height: 300px; margin-right: 10px;"" />
      <img src=""images/blue_deck_1.png"" style=""width: 300px; height: 300px;"" />
    </div>","1","1",""
"","","","","","html-keyboard-response","97","481172","0.0-71.0-0.0","32A64E3242154F8A8592D9409928953F","32A64E3242154F8A8592D9409928953F","7537c2b8-f4c1-4914-9908-affe0df85d4e","bea99957-1862-4ad8-9558-57b91e42ce64","{""participantId"":""32A64E3242154F8A8592D9409928953F"",""assignmentId"":""7537c2b8-f4c1-4914-9908-affe0df85d4e"",""projectId"":""bea99957-1862-4ad8-9558-57b91e42ce64""}","https://test12345.live/?participantId=32A64E3242154F8A8592D9409928953F&assignmentId=7537c2b8-f4c1-4914-9908-affe0df85d4e&projectId=bea99957-1862-4ad8-9558-57b91e42ce64","","null","<div style=""display: flex; justify-content: center; align-items: center;"">
                    <img src=""images/causal/causal_series_15/causal_series_15_a.jpg"" style=""width: 300px; height: 300px;"" />
                  </div>","null","",""
"","","","","","html-keyboard-response","98","484179","0.0-71.0-1.0","32A64E3242154F8A8592D9409928953F","32A64E3242154F8A8592D9409928953F","7537c2b8-f4c1-4914-9908-affe0df85d4e","bea99957-1862-4ad8-9558-57b91e42ce64","{""participantId"":""32A64E3242154F8A8592D9409928953F"",""assignmentId"":""7537c2b8-f4c1-4914-9908-affe0df85d4e"",""projectId"":""bea99957-1862-4ad8-9558-57b91e42ce64""}","https://test12345.live/?participantId=32A64E3242154F8A8592D9409928953F&assignmentId=7537c2b8-f4c1-4914-9908-affe0df85d4e&projectId=bea99957-1862-4ad8-9558-57b91e42ce64","","null","<div style=""display: flex; justify-content: center; align-items: center;"">
                    <img src=""images/causal/causal_series_15/causal_series_15_b.jpg"" style=""width: 300px; height: 300px;"" />
                  </div>","null","",""
"","","","","","html-keyboard-response","99","487186","0.0-71.0-2.0","32A64E3242154F8A8592D9409928953F","32A64E3242154F8A8592D9409928953F","7537c2b8-f4c1-4914-9908-affe0df85d4e","bea99957-1862-4ad8-9558-57b91e42ce64","{""participantId"":""32A64E3242154F8A8592D9409928953F"",""assignmentId"":""7537c2b8-f4c1-4914-9908-affe0df85d4e"",""projectId"":""bea99957-1862-4ad8-9558-57b91e42ce64""}","https://test12345.live/?participantId=32A64E3242154F8A8592D9409928953F&assignmentId=7537c2b8-f4c1-4914-9908-affe0df85d4e&projectId=bea99957-1862-4ad8-9558-57b91e42ce64","","null","<div style=""display: flex; justify-content: center; align-items: center;"">
                    <img src=""images/causal/causal_series_15/causal_series_15_c.jpg"" style=""width: 300px; height: 300px;"" />
                  </div>","null","",""
"","","","","","html-keyboard-response","100","490191","0.0-71.0-3.0","32A64E3242154F8A8592D9409928953F","32A64E3242154F8A8592D9409928953F","7537c2b8-f4c1-4914-9908-affe0df85d4e","bea99957-1862-4ad8-9558-57b91e42ce64","{""participantId"":""32A64E3242154F8A8592D9409928953F"",""assignmentId"":""7537c2b8-f4c1-4914-9908-affe0df85d4e"",""projectId"":""bea99957-1862-4ad8-9558-57b91e42ce64""}","https://test12345.live/?participantId=32A64E3242154F8A8592D9409928953F&assignmentId=7537c2b8-f4c1-4914-9908-affe0df85d4e&projectId=bea99957-1862-4ad8-9558-57b91e42ce64","","null","<div style=""display: flex; justify-content: center; align-items: center;"">
                    <img src=""images/causal/causal_series_15/causal_series_15_d.jpg"" style=""width: 300px; height: 300px;"" />
                  </div>","null","",""
"","","","","","html-button-response","101","492435","0.0-73.0","32A64E3242154F8A8592D9409928953F","32A64E3242154F8A8592D9409928953F","7537c2b8-f4c1-4914-9908-affe0df85d4e","bea99957-1862-4ad8-9558-57b91e42ce64","{""participantId"":""32A64E3242154F8A8592D9409928953F"",""assignmentId"":""7537c2b8-f4c1-4914-9908-affe0df85d4e"",""projectId"":""bea99957-1862-4ad8-9558-57b91e42ce64""}","https://test12345.live/?participantId=32A64E3242154F8A8592D9409928953F&assignmentId=7537c2b8-f4c1-4914-9908-affe0df85d4e&projectId=bea99957-1862-4ad8-9558-57b91e42ce64","","2242","Was there a person in the picture?","0","",""
"","","","","","survey-likert","102","495702","0.0-74.0","32A64E3242154F8A8592D9409928953F","32A64E3242154F8A8592D9409928953F","7537c2b8-f4c1-4914-9908-affe0df85d4e","bea99957-1862-4ad8-9558-57b91e42ce64","{""participantId"":""32A64E3242154F8A8592D9409928953F"",""assignmentId"":""7537c2b8-f4c1-4914-9908-affe0df85d4e"",""projectId"":""bea99957-1862-4ad8-9558-57b91e42ce64""}","https://test12345.live/?participantId=32A64E3242154F8A8592D9409928953F&assignmentId=7537c2b8-f4c1-4914-9908-affe0df85d4e&projectId=bea99957-1862-4ad8-9558-57b91e42ce64","","3265","","{""Q0"":4}","","[0]"
"","","","","","html-button-response","103","501256","0.0-75.0","32A64E3242154F8A8592D9409928953F","32A64E3242154F8A8592D9409928953F","7537c2b8-f4c1-4914-9908-affe0df85d4e","bea99957-1862-4ad8-9558-57b91e42ce64","{""participantId"":""32A64E3242154F8A8592D9409928953F"",""assignmentId"":""7537c2b8-f4c1-4914-9908-affe0df85d4e"",""projectId"":""bea99957-1862-4ad8-9558-57b91e42ce64""}","https://test12345.live/?participantId=32A64E3242154F8A8592D9409928953F&assignmentId=7537c2b8-f4c1-4914-9908-affe0df85d4e&projectId=bea99957-1862-4ad8-9558-57b91e42ce64","","5552","
    <div style=""display: flex; justify-content: center; align-items: center;"">
      <img src=""images/red_deck_2.png"" style=""width: 300px; height: 300px; margin-right: 10px;"" />
      <img src=""images/blue_deck_1.png"" style=""width: 300px; height: 300px;"" />
    </div>","1","1",""
"","","","","","html-keyboard-response","104","504260","0.0-76.0-0.0","32A64E3242154F8A8592D9409928953F","32A64E3242154F8A8592D9409928953F","7537c2b8-f4c1-4914-9908-affe0df85d4e","bea99957-1862-4ad8-9558-57b91e42ce64","{""participantId"":""32A64E3242154F8A8592D9409928953F"",""assignmentId"":""7537c2b8-f4c1-4914-9908-affe0df85d4e"",""projectId"":""bea99957-1862-4ad8-9558-57b91e42ce64""}","https://test12345.live/?participantId=32A64E3242154F8A8592D9409928953F&assignmentId=7537c2b8-f4c1-4914-9908-affe0df85d4e&projectId=bea99957-1862-4ad8-9558-57b91e42ce64","","null","<div style=""display: flex; justify-content: center; align-items: center;"">
                    <img src=""images/causal/causal_series_13/causal_series_13_a.jpg"" style=""width: 300px; height: 300px;"" />
                  </div>","null","",""
"","","","","","html-keyboard-response","105","507274","0.0-76.0-1.0","32A64E3242154F8A8592D9409928953F","32A64E3242154F8A8592D9409928953F","7537c2b8-f4c1-4914-9908-affe0df85d4e","bea99957-1862-4ad8-9558-57b91e42ce64","{""participantId"":""32A64E3242154F8A8592D9409928953F"",""assignmentId"":""7537c2b8-f4c1-4914-9908-affe0df85d4e"",""projectId"":""bea99957-1862-4ad8-9558-57b91e42ce64""}","https://test12345.live/?participantId=32A64E3242154F8A8592D9409928953F&assignmentId=7537c2b8-f4c1-4914-9908-affe0df85d4e&projectId=bea99957-1862-4ad8-9558-57b91e42ce64","","null","<div style=""display: flex; justify-content: center; align-items: center;"">
                    <img src=""images/causal/causal_series_13/causal_series_13_b.jpg"" style=""width: 300px; height: 300px;"" />
                  </div>","null","",""
"","","","","","html-keyboard-response","106","510282","0.0-76.0-2.0","32A64E3242154F8A8592D9409928953F","32A64E3242154F8A8592D9409928953F","7537c2b8-f4c1-4914-9908-affe0df85d4e","bea99957-1862-4ad8-9558-57b91e42ce64","{""participantId"":""32A64E3242154F8A8592D9409928953F"",""assignmentId"":""7537c2b8-f4c1-4914-9908-affe0df85d4e"",""projectId"":""bea99957-1862-4ad8-9558-57b91e42ce64""}","https://test12345.live/?participantId=32A64E3242154F8A8592D9409928953F&assignmentId=7537c2b8-f4c1-4914-9908-affe0df85d4e&projectId=bea99957-1862-4ad8-9558-57b91e42ce64","","null","<div style=""display: flex; justify-content: center; align-items: center;"">
                    <img src=""images/causal/causal_series_13/causal_series_13_c.jpg"" style=""width: 300px; height: 300px;"" />
                  </div>","null","",""
"","","","","","html-keyboard-response","107","513293","0.0-76.0-3.0","32A64E3242154F8A8592D9409928953F","32A64E3242154F8A8592D9409928953F","7537c2b8-f4c1-4914-9908-affe0df85d4e","bea99957-1862-4ad8-9558-57b91e42ce64","{""participantId"":""32A64E3242154F8A8592D9409928953F"",""assignmentId"":""7537c2b8-f4c1-4914-9908-affe0df85d4e"",""projectId"":""bea99957-1862-4ad8-9558-57b91e42ce64""}","https://test12345.live/?participantId=32A64E3242154F8A8592D9409928953F&assignmentId=7537c2b8-f4c1-4914-9908-affe0df85d4e&projectId=bea99957-1862-4ad8-9558-57b91e42ce64","","null","<div style=""display: flex; justify-content: center; align-items: center;"">
                    <img src=""images/causal/causal_series_13/causal_series_13_d.jpg"" style=""width: 300px; height: 300px;"" />
                  </div>","null","",""
"","","","","","html-button-response","108","520000","0.0-78.0","32A64E3242154F8A8592D9409928953F","32A64E3242154F8A8592D9409928953F","7537c2b8-f4c1-4914-9908-affe0df85d4e","bea99957-1862-4ad8-9558-57b91e42ce64","{""participantId"":""32A64E3242154F8A8592D9409928953F"",""assignmentId"":""7537c2b8-f4c1-4914-9908-affe0df85d4e"",""projectId"":""bea99957-1862-4ad8-9558-57b91e42ce64""}","https://test12345.live/?participantId=32A64E3242154F8A8592D9409928953F&assignmentId=7537c2b8-f4c1-4914-9908-affe0df85d4e&projectId=bea99957-1862-4ad8-9558-57b91e42ce64","","6706","Was there a person in the picture?","0","",""
"","","","","","survey-likert","109","524184","0.0-79.0","32A64E3242154F8A8592D9409928953F","32A64E3242154F8A8592D9409928953F","7537c2b8-f4c1-4914-9908-affe0df85d4e","bea99957-1862-4ad8-9558-57b91e42ce64","{""participantId"":""32A64E3242154F8A8592D9409928953F"",""assignmentId"":""7537c2b8-f4c1-4914-9908-affe0df85d4e"",""projectId"":""bea99957-1862-4ad8-9558-57b91e42ce64""}","https://test12345.live/?participantId=32A64E3242154F8A8592D9409928953F&assignmentId=7537c2b8-f4c1-4914-9908-affe0df85d4e&projectId=bea99957-1862-4ad8-9558-57b91e42ce64","","4183","","{""Q0"":4}","","[0]"
"","","","","","html-button-response","110","526569","0.0-80.0","32A64E3242154F8A8592D9409928953F","32A64E3242154F8A8592D9409928953F","7537c2b8-f4c1-4914-9908-affe0df85d4e","bea99957-1862-4ad8-9558-57b91e42ce64","{""participantId"":""32A64E3242154F8A8592D9409928953F"",""assignmentId"":""7537c2b8-f4c1-4914-9908-affe0df85d4e"",""projectId"":""bea99957-1862-4ad8-9558-57b91e42ce64""}","https://test12345.live/?participantId=32A64E3242154F8A8592D9409928953F&assignmentId=7537c2b8-f4c1-4914-9908-affe0df85d4e&projectId=bea99957-1862-4ad8-9558-57b91e42ce64","","2383","
    <div style=""display: flex; justify-content: center; align-items: center;"">
      <img src=""images/red_deck_2.png"" style=""width: 300px; height: 300px; margin-right: 10px;"" />
      <img src=""images/blue_deck_1.png"" style=""width: 300px; height: 300px;"" />
    </div>","1","1",""
"","","","","","html-keyboard-response","111","529574","0.0-81.0-0.0","32A64E3242154F8A8592D9409928953F","32A64E3242154F8A8592D9409928953F","7537c2b8-f4c1-4914-9908-affe0df85d4e","bea99957-1862-4ad8-9558-57b91e42ce64","{""participantId"":""32A64E3242154F8A8592D9409928953F"",""assignmentId"":""7537c2b8-f4c1-4914-9908-affe0df85d4e"",""projectId"":""bea99957-1862-4ad8-9558-57b91e42ce64""}","https://test12345.live/?participantId=32A64E3242154F8A8592D9409928953F&assignmentId=7537c2b8-f4c1-4914-9908-affe0df85d4e&projectId=bea99957-1862-4ad8-9558-57b91e42ce64","","null","<div style=""display: flex; justify-content: center; align-items: center;"">
                    <img src=""images/causal/causal_series_11/causal_series_11_a.jpg"" style=""width: 300px; height: 300px;"" />
                  </div>","null","",""
"","","","","","html-keyboard-response","112","532577","0.0-81.0-1.0","32A64E3242154F8A8592D9409928953F","32A64E3242154F8A8592D9409928953F","7537c2b8-f4c1-4914-9908-affe0df85d4e","bea99957-1862-4ad8-9558-57b91e42ce64","{""participantId"":""32A64E3242154F8A8592D9409928953F"",""assignmentId"":""7537c2b8-f4c1-4914-9908-affe0df85d4e"",""projectId"":""bea99957-1862-4ad8-9558-57b91e42ce64""}","https://test12345.live/?participantId=32A64E3242154F8A8592D9409928953F&assignmentId=7537c2b8-f4c1-4914-9908-affe0df85d4e&projectId=bea99957-1862-4ad8-9558-57b91e42ce64","","null","<div style=""display: flex; justify-content: center; align-items: center;"">
                    <img src=""images/causal/causal_series_11/causal_series_11_b.jpg"" style=""width: 300px; height: 300px;"" />
                  </div>","null","",""
"","","","","","html-keyboard-response","113","535589","0.0-81.0-2.0","32A64E3242154F8A8592D9409928953F","32A64E3242154F8A8592D9409928953F","7537c2b8-f4c1-4914-9908-affe0df85d4e","bea99957-1862-4ad8-9558-57b91e42ce64","{""participantId"":""32A64E3242154F8A8592D9409928953F"",""assignmentId"":""7537c2b8-f4c1-4914-9908-affe0df85d4e"",""projectId"":""bea99957-1862-4ad8-9558-57b91e42ce64""}","https://test12345.live/?participantId=32A64E3242154F8A8592D9409928953F&assignmentId=7537c2b8-f4c1-4914-9908-affe0df85d4e&projectId=bea99957-1862-4ad8-9558-57b91e42ce64","","null","<div style=""display: flex; justify-content: center; align-items: center;"">
                    <img src=""images/causal/causal_series_11/causal_series_11_c.jpg"" style=""width: 300px; height: 300px;"" />
                  </div>","null","",""
"","","","","","html-keyboard-response","114","538601","0.0-81.0-3.0","32A64E3242154F8A8592D9409928953F","32A64E3242154F8A8592D9409928953F","7537c2b8-f4c1-4914-9908-affe0df85d4e","bea99957-1862-4ad8-9558-57b91e42ce64","{""participantId"":""32A64E3242154F8A8592D9409928953F"",""assignmentId"":""7537c2b8-f4c1-4914-9908-affe0df85d4e"",""projectId"":""bea99957-1862-4ad8-9558-57b91e42ce64""}","https://test12345.live/?participantId=32A64E3242154F8A8592D9409928953F&assignmentId=7537c2b8-f4c1-4914-9908-affe0df85d4e&projectId=bea99957-1862-4ad8-9558-57b91e42ce64","","null","<div style=""display: flex; justify-content: center; align-items: center;"">
                    <img src=""images/causal/causal_series_11/causal_series_11_d.jpg"" style=""width: 300px; height: 300px;"" />
                  </div>","null","",""
"","","","","","html-button-response","115","540521","0.0-83.0","32A64E3242154F8A8592D9409928953F","32A64E3242154F8A8592D9409928953F","7537c2b8-f4c1-4914-9908-affe0df85d4e","bea99957-1862-4ad8-9558-57b91e42ce64","{""participantId"":""32A64E3242154F8A8592D9409928953F"",""assignmentId"":""7537c2b8-f4c1-4914-9908-affe0df85d4e"",""projectId"":""bea99957-1862-4ad8-9558-57b91e42ce64""}","https://test12345.live/?participantId=32A64E3242154F8A8592D9409928953F&assignmentId=7537c2b8-f4c1-4914-9908-affe0df85d4e&projectId=bea99957-1862-4ad8-9558-57b91e42ce64","","1919","Was there a person in the picture?","0","",""
"","","","","","survey-likert","116","547598","0.0-84.0","32A64E3242154F8A8592D9409928953F","32A64E3242154F8A8592D9409928953F","7537c2b8-f4c1-4914-9908-affe0df85d4e","bea99957-1862-4ad8-9558-57b91e42ce64","{""participantId"":""32A64E3242154F8A8592D9409928953F"",""assignmentId"":""7537c2b8-f4c1-4914-9908-affe0df85d4e"",""projectId"":""bea99957-1862-4ad8-9558-57b91e42ce64""}","https://test12345.live/?participantId=32A64E3242154F8A8592D9409928953F&assignmentId=7537c2b8-f4c1-4914-9908-affe0df85d4e&projectId=bea99957-1862-4ad8-9558-57b91e42ce64","","7076","","{""Q0"":3}","","[0]"
"","","","","","html-button-response","117","549372","0.0-85.0","32A64E3242154F8A8592D9409928953F","32A64E3242154F8A8592D9409928953F","7537c2b8-f4c1-4914-9908-affe0df85d4e","bea99957-1862-4ad8-9558-57b91e42ce64","{""participantId"":""32A64E3242154F8A8592D9409928953F"",""assignmentId"":""7537c2b8-f4c1-4914-9908-affe0df85d4e"",""projectId"":""bea99957-1862-4ad8-9558-57b91e42ce64""}","https://test12345.live/?participantId=32A64E3242154F8A8592D9409928953F&assignmentId=7537c2b8-f4c1-4914-9908-affe0df85d4e&projectId=bea99957-1862-4ad8-9558-57b91e42ce64","","1772","
    <div style=""display: flex; justify-content: center; align-items: center;"">
      <img src=""images/red_deck_2.png"" style=""width: 300px; height: 300px; margin-right: 10px;"" />
      <img src=""images/blue_deck_1.png"" style=""width: 300px; height: 300px;"" />
    </div>","1","1",""
"","","","","","html-keyboard-response","118","552386","0.0-86.0-0.0","32A64E3242154F8A8592D9409928953F","32A64E3242154F8A8592D9409928953F","7537c2b8-f4c1-4914-9908-affe0df85d4e","bea99957-1862-4ad8-9558-57b91e42ce64","{""participantId"":""32A64E3242154F8A8592D9409928953F"",""assignmentId"":""7537c2b8-f4c1-4914-9908-affe0df85d4e"",""projectId"":""bea99957-1862-4ad8-9558-57b91e42ce64""}","https://test12345.live/?participantId=32A64E3242154F8A8592D9409928953F&assignmentId=7537c2b8-f4c1-4914-9908-affe0df85d4e&projectId=bea99957-1862-4ad8-9558-57b91e42ce64","","null","<div style=""display: flex; justify-content: center; align-items: center;"">
                    <img src=""images/causal/causal_series_3/causal_series_3_a.jpg"" style=""width: 300px; height: 300px;"" />
                  </div>","null","",""
"","","","","","html-keyboard-response","119","555403","0.0-86.0-1.0","32A64E3242154F8A8592D9409928953F","32A64E3242154F8A8592D9409928953F","7537c2b8-f4c1-4914-9908-affe0df85d4e","bea99957-1862-4ad8-9558-57b91e42ce64","{""participantId"":""32A64E3242154F8A8592D9409928953F"",""assignmentId"":""7537c2b8-f4c1-4914-9908-affe0df85d4e"",""projectId"":""bea99957-1862-4ad8-9558-57b91e42ce64""}","https://test12345.live/?participantId=32A64E3242154F8A8592D9409928953F&assignmentId=7537c2b8-f4c1-4914-9908-affe0df85d4e&projectId=bea99957-1862-4ad8-9558-57b91e42ce64","","null","<div style=""display: flex; justify-content: center; align-items: center;"">
                    <img src=""images/causal/causal_series_3/causal_series_3_b.jpg"" style=""width: 300px; height: 300px;"" />
                  </div>","null","",""
"","","","","","html-keyboard-response","120","558417","0.0-86.0-2.0","32A64E3242154F8A8592D9409928953F","32A64E3242154F8A8592D9409928953F","7537c2b8-f4c1-4914-9908-affe0df85d4e","bea99957-1862-4ad8-9558-57b91e42ce64","{""participantId"":""32A64E3242154F8A8592D9409928953F"",""assignmentId"":""7537c2b8-f4c1-4914-9908-affe0df85d4e"",""projectId"":""bea99957-1862-4ad8-9558-57b91e42ce64""}","https://test12345.live/?participantId=32A64E3242154F8A8592D9409928953F&assignmentId=7537c2b8-f4c1-4914-9908-affe0df85d4e&projectId=bea99957-1862-4ad8-9558-57b91e42ce64","","null","<div style=""display: flex; justify-content: center; align-items: center;"">
                    <img src=""images/causal/causal_series_3/causal_series_3_c.jpg"" style=""width: 300px; height: 300px;"" />
                  </div>","null","",""
"","","","","","html-keyboard-response","121","561432","0.0-86.0-3.0","32A64E3242154F8A8592D9409928953F","32A64E3242154F8A8592D9409928953F","7537c2b8-f4c1-4914-9908-affe0df85d4e","bea99957-1862-4ad8-9558-57b91e42ce64","{""participantId"":""32A64E3242154F8A8592D9409928953F"",""assignmentId"":""7537c2b8-f4c1-4914-9908-affe0df85d4e"",""projectId"":""bea99957-1862-4ad8-9558-57b91e42ce64""}","https://test12345.live/?participantId=32A64E3242154F8A8592D9409928953F&assignmentId=7537c2b8-f4c1-4914-9908-affe0df85d4e&projectId=bea99957-1862-4ad8-9558-57b91e42ce64","","null","<div style=""display: flex; justify-content: center; align-items: center;"">
                    <img src=""images/causal/causal_series_3/causal_series_3_d.jpg"" style=""width: 300px; height: 300px;"" />
                  </div>","null","",""
"","","","","","html-button-response","122","567031","0.0-88.0","32A64E3242154F8A8592D9409928953F","32A64E3242154F8A8592D9409928953F","7537c2b8-f4c1-4914-9908-affe0df85d4e","bea99957-1862-4ad8-9558-57b91e42ce64","{""participantId"":""32A64E3242154F8A8592D9409928953F"",""assignmentId"":""7537c2b8-f4c1-4914-9908-affe0df85d4e"",""projectId"":""bea99957-1862-4ad8-9558-57b91e42ce64""}","https://test12345.live/?participantId=32A64E3242154F8A8592D9409928953F&assignmentId=7537c2b8-f4c1-4914-9908-affe0df85d4e&projectId=bea99957-1862-4ad8-9558-57b91e42ce64","","5598","Was there a person in the picture?","0","",""
"","","","","","survey-likert","123","570460","0.0-89.0","32A64E3242154F8A8592D9409928953F","32A64E3242154F8A8592D9409928953F","7537c2b8-f4c1-4914-9908-affe0df85d4e","bea99957-1862-4ad8-9558-57b91e42ce64","{""participantId"":""32A64E3242154F8A8592D9409928953F"",""assignmentId"":""7537c2b8-f4c1-4914-9908-affe0df85d4e"",""projectId"":""bea99957-1862-4ad8-9558-57b91e42ce64""}","https://test12345.live/?participantId=32A64E3242154F8A8592D9409928953F&assignmentId=7537c2b8-f4c1-4914-9908-affe0df85d4e&projectId=bea99957-1862-4ad8-9558-57b91e42ce64","","3427","","{""Q0"":4}","","[0]"
"","","","","","html-button-response","124","571941","0.0-90.0","32A64E3242154F8A8592D9409928953F","32A64E3242154F8A8592D9409928953F","7537c2b8-f4c1-4914-9908-affe0df85d4e","bea99957-1862-4ad8-9558-57b91e42ce64","{""participantId"":""32A64E3242154F8A8592D9409928953F"",""assignmentId"":""7537c2b8-f4c1-4914-9908-affe0df85d4e"",""projectId"":""bea99957-1862-4ad8-9558-57b91e42ce64""}","https://test12345.live/?participantId=32A64E3242154F8A8592D9409928953F&assignmentId=7537c2b8-f4c1-4914-9908-affe0df85d4e&projectId=bea99957-1862-4ad8-9558-57b91e42ce64","","1479","
    <div style=""display: flex; justify-content: center; align-items: center;"">
      <img src=""images/red_deck_2.png"" style=""width: 300px; height: 300px; margin-right: 10px;"" />
      <img src=""images/blue_deck_1.png"" style=""width: 300px; height: 300px;"" />
    </div>","1","1",""
"","","","","","html-keyboard-response","125","574957","0.0-91.0-0.0","32A64E3242154F8A8592D9409928953F","32A64E3242154F8A8592D9409928953F","7537c2b8-f4c1-4914-9908-affe0df85d4e","bea99957-1862-4ad8-9558-57b91e42ce64","{""participantId"":""32A64E3242154F8A8592D9409928953F"",""assignmentId"":""7537c2b8-f4c1-4914-9908-affe0df85d4e"",""projectId"":""bea99957-1862-4ad8-9558-57b91e42ce64""}","https://test12345.live/?participantId=32A64E3242154F8A8592D9409928953F&assignmentId=7537c2b8-f4c1-4914-9908-affe0df85d4e&projectId=bea99957-1862-4ad8-9558-57b91e42ce64","","null","<div style=""display: flex; justify-content: center; align-items: center;"">
                    <img src=""images/causal/causal_series_18/causal_series_18_a.jpg"" style=""width: 300px; height: 300px;"" />
                  </div>","null","",""
"","","","","","html-keyboard-response","126","577959","0.0-91.0-1.0","32A64E3242154F8A8592D9409928953F","32A64E3242154F8A8592D9409928953F","7537c2b8-f4c1-4914-9908-affe0df85d4e","bea99957-1862-4ad8-9558-57b91e42ce64","{""participantId"":""32A64E3242154F8A8592D9409928953F"",""assignmentId"":""7537c2b8-f4c1-4914-9908-affe0df85d4e"",""projectId"":""bea99957-1862-4ad8-9558-57b91e42ce64""}","https://test12345.live/?participantId=32A64E3242154F8A8592D9409928953F&assignmentId=7537c2b8-f4c1-4914-9908-affe0df85d4e&projectId=bea99957-1862-4ad8-9558-57b91e42ce64","","null","<div style=""display: flex; justify-content: center; align-items: center;"">
                    <img src=""images/causal/causal_series_18/causal_series_18_b.jpg"" style=""width: 300px; height: 300px;"" />
                  </div>","null","",""
"","","","","","html-keyboard-response","127","580969","0.0-91.0-2.0","32A64E3242154F8A8592D9409928953F","32A64E3242154F8A8592D9409928953F","7537c2b8-f4c1-4914-9908-affe0df85d4e","bea99957-1862-4ad8-9558-57b91e42ce64","{""participantId"":""32A64E3242154F8A8592D9409928953F"",""assignmentId"":""7537c2b8-f4c1-4914-9908-affe0df85d4e"",""projectId"":""bea99957-1862-4ad8-9558-57b91e42ce64""}","https://test12345.live/?participantId=32A64E3242154F8A8592D9409928953F&assignmentId=7537c2b8-f4c1-4914-9908-affe0df85d4e&projectId=bea99957-1862-4ad8-9558-57b91e42ce64","","null","<div style=""display: flex; justify-content: center; align-items: center;"">
                    <img src=""images/causal/causal_series_18/causal_series_18_c.jpg"" style=""width: 300px; height: 300px;"" />
                  </div>","null","",""
"","","","","","html-keyboard-response","128","583985","0.0-91.0-3.0","32A64E3242154F8A8592D9409928953F","32A64E3242154F8A8592D9409928953F","7537c2b8-f4c1-4914-9908-affe0df85d4e","bea99957-1862-4ad8-9558-57b91e42ce64","{""participantId"":""32A64E3242154F8A8592D9409928953F"",""assignmentId"":""7537c2b8-f4c1-4914-9908-affe0df85d4e"",""projectId"":""bea99957-1862-4ad8-9558-57b91e42ce64""}","https://test12345.live/?participantId=32A64E3242154F8A8592D9409928953F&assignmentId=7537c2b8-f4c1-4914-9908-affe0df85d4e&projectId=bea99957-1862-4ad8-9558-57b91e42ce64","","null","<div style=""display: flex; justify-content: center; align-items: center;"">
                    <img src=""images/causal/causal_series_18/causal_series_18_d.jpg"" style=""width: 300px; height: 300px;"" />
                  </div>","null","",""
"","","","","","html-button-response","129","586777","0.0-93.0","32A64E3242154F8A8592D9409928953F","32A64E3242154F8A8592D9409928953F","7537c2b8-f4c1-4914-9908-affe0df85d4e","bea99957-1862-4ad8-9558-57b91e42ce64","{""participantId"":""32A64E3242154F8A8592D9409928953F"",""assignmentId"":""7537c2b8-f4c1-4914-9908-affe0df85d4e"",""projectId"":""bea99957-1862-4ad8-9558-57b91e42ce64""}","https://test12345.live/?participantId=32A64E3242154F8A8592D9409928953F&assignmentId=7537c2b8-f4c1-4914-9908-affe0df85d4e&projectId=bea99957-1862-4ad8-9558-57b91e42ce64","","2791","Was there a person in the picture?","1","",""
"","","","","","survey-likert","130","590397","0.0-94.0","32A64E3242154F8A8592D9409928953F","32A64E3242154F8A8592D9409928953F","7537c2b8-f4c1-4914-9908-affe0df85d4e","bea99957-1862-4ad8-9558-57b91e42ce64","{""participantId"":""32A64E3242154F8A8592D9409928953F"",""assignmentId"":""7537c2b8-f4c1-4914-9908-affe0df85d4e"",""projectId"":""bea99957-1862-4ad8-9558-57b91e42ce64""}","https://test12345.live/?participantId=32A64E3242154F8A8592D9409928953F&assignmentId=7537c2b8-f4c1-4914-9908-affe0df85d4e&projectId=bea99957-1862-4ad8-9558-57b91e42ce64","","3618","","{""Q0"":0}","","[0]"
"","","","","","survey-text","131","655852","0.0-95.0","32A64E3242154F8A8592D9409928953F","32A64E3242154F8A8592D9409928953F","7537c2b8-f4c1-4914-9908-affe0df85d4e","bea99957-1862-4ad8-9558-57b91e42ce64","{""participantId"":""32A64E3242154F8A8592D9409928953F"",""assignmentId"":""7537c2b8-f4c1-4914-9908-affe0df85d4e"",""projectId"":""bea99957-1862-4ad8-9558-57b91e42ce64""}","https://test12345.live/?participantId=32A64E3242154F8A8592D9409928953F&assignmentId=7537c2b8-f4c1-4914-9908-affe0df85d4e&projectId=bea99957-1862-4ad8-9558-57b91e42ce64","","65449","","{""Q0"":""one is red and one is blue. one had animations and cartoon while the other had human images.""}","",""
