"success","timeout","failed_images","failed_audio","failed_video","trial_type","trial_index","time_elapsed","internal_node_id","view_history","rt","stimulus","response","firstImageNumber","secondImageNumber","response_made","stimulus_type"
"true","false","[]","[]","[]","preload","0","6139","0.0-0.0","","","","","","","",""
"","","","","","instructions","1","260532","0.0-1.0","[{""page_index"":0,""viewing_time"":254397}]","254398","","","","","",""
"","","","","","html-button-response","2","277314","0.0-2.0","","16780","
        <div style=""display: flex; justify-content: center; align-items: center;"">
          <div style=""text-align: center; margin-right: 20px;"">
            <p style=""font-size: 24px; font-weight: bold;"">Event 1</p>
            <img src=""images/instructions/1.png"" style=""width: 300px; height: auto;"">
          </div>
          <div style=""text-align: center; margin-left: 20px;"">
            <p style=""font-size: 24px; font-weight: bold;"">Event 2</p>
            <img src=""images/instructions/2.png"" style=""width: 300px; height: auto;"">
          </div>
        </div>
        <p style=""text-align: center; margin-top: 20px;"">Does Event 1 lead to Event 2?</p>","0","","","",""
"","","","","","html-button-response","3","281048","0.0-3.0","","3731","
        <div style=""display: flex; justify-content: center; align-items: center;"">
          <div style=""text-align: center; margin-right: 20px;"">
            <p style=""font-size: 24px; font-weight: bold;"">Event 1</p>
            <img src=""images/instructions/1.png"" style=""width: 300px; height: auto;"">
          </div>
          <div style=""text-align: center; margin-left: 20px;"">
            <p style=""font-size: 24px; font-weight: bold;"">Event 2</p>
            <img src=""images/instructions/2.png"" style=""width: 300px; height: auto;"">
          </div>
        </div>
        <h2>Correct Answer</h2>
        <p>The correct answer is: <strong>Event 1 leads to Event 2</strong>.</p>
        <p>Click ""Next"" to proceed to the next example.</p>","0","","","",""
"","","","","","html-button-response","4","291215","0.0-4.0","","10165","
        <div style=""display: flex; justify-content: center; align-items: center;"">
          <div style=""text-align: center; margin-right: 20px;"">
            <p style=""font-size: 24px; font-weight: bold;"">Event 1</p>
            <img src=""images/instructions/2.png"" style=""width: 300px; height: auto;"">
          </div>
          <div style=""text-align: center; margin-left: 20px;"">
            <p style=""font-size: 24px; font-weight: bold;"">Event 2</p>
            <img src=""images/instructions/1.png"" style=""width: 300px; height: auto;"">
          </div>
        </div>
        <p style=""text-align: center; margin-top: 20px;"">Does Event 1 lead to Event 2?</p>","1","","","",""
"","","","","","html-button-response","5","305397","0.0-5.0","","14181","
        <div style=""display: flex; justify-content: center; align-items: center;"">
          <div style=""text-align: center; margin-right: 20px;"">
            <p style=""font-size: 24px; font-weight: bold;"">Event 1</p>
            <img src=""images/instructions/2.png"" style=""width: 300px; height: auto;"">
          </div>
          <div style=""text-align: center; margin-left: 20px;"">
            <p style=""font-size: 24px; font-weight: bold;"">Event 2</p>
            <img src=""images/instructions/1.png"" style=""width: 300px; height: auto;"">
          </div>
        </div>
        <h2>Correct Answer</h2>
        <p>The correct answer is: <strong>Event 2 leads to Event 1</strong>.</p>
        <p>Click ""Next"" to proceed to the next example.</p>","0","","","",""
"","","","","","html-button-response","6","316349","0.0-6.0","","10949","
        <div style=""display: flex; justify-content: center; align-items: center;"">
          <div style=""text-align: center; margin-right: 20px;"">
            <p style=""font-size: 24px; font-weight: bold;"">Event 1</p>
            <img src=""images/instructions/5.png"" style=""width: 300px; height: auto;"">
          </div>
          <div style=""text-align: center; margin-left: 20px;"">
            <p style=""font-size: 24px; font-weight: bold;"">Event 2</p>
            <img src=""images/instructions/6.png"" style=""width: 300px; height: auto;"">
          </div>
        </div>
        <p style=""text-align: center; margin-top: 20px;"">Does Event 1 lead to Event 2?</p>","2","","","",""
"","","","","","html-button-response","7","322748","0.0-7.0","","6397","
        <div style=""display: flex; justify-content: center; align-items: center;"">
          <div style=""text-align: center; margin-right: 20px;"">
            <p style=""font-size: 24px; font-weight: bold;"">Event 1</p>
            <img src=""images/instructions/5.png"" style=""width: 300px; height: auto;"">
          </div>
          <div style=""text-align: center; margin-left: 20px;"">
            <p style=""font-size: 24px; font-weight: bold;"">Event 2</p>
            <img src=""images/instructions/6.png"" style=""width: 300px; height: auto;"">
          </div>
        </div>
        <h2>Correct Answer</h2>
        <p>The correct answer is: <strong>Events are unrelated</strong>.</p>
        <p>Click ""Next"" to proceed to the experiment.</p>","0","","","",""
"","","","","","html-button-response","8","329148","0.0-8.0","","6399","
        <h2>Get Ready!</h2>
        <p>You have completed the examples. The experiment is about to begin.</p>
        <p>Click ""Start"" to begin the experiment.</p>","0","","","",""
"","","","","","html-button-response","9","335865","0.0-9.0","","6715","
      <div style=""display: flex; justify-content: center; align-items: center;"">
        <div style=""text-align: center; margin-right: 20px;"">
          <p style=""font-size: 24px; font-weight: bold;"">Event 1</p>
          <img src=""images/causal/cat_care_semantic/cat_care_semantic_3.png"" style=""width: 300px; height: auto;"">
        </div>
        <div style=""text-align: center; margin-left: 20px;"">
          <p style=""font-size: 24px; font-weight: bold;"">Event 2</p>
          <img src=""images/causal/cat_care_semantic/cat_care_semantic_5.png"" style=""width: 300px; height: auto;"">
        </div>
      </div>
      <p style=""text-align: center; margin-top: 20px;"">Does Event 1 lead to Event 2?</p>","2","3","5","true","physical_activity_semantic"
"","","","","","html-button-response","10","341915","0.0-10.0","","6047","
      <div style=""display: flex; justify-content: center; align-items: center;"">
        <div style=""text-align: center; margin-right: 20px;"">
          <p style=""font-size: 24px; font-weight: bold;"">Event 1</p>
          <img src=""images/causal/flight_scheme/flight_scheme_1.png"" style=""width: 300px; height: auto;"">
        </div>
        <div style=""text-align: center; margin-left: 20px;"">
          <p style=""font-size: 24px; font-weight: bold;"">Event 2</p>
          <img src=""images/causal/flight_scheme/flight_scheme_2.png"" style=""width: 300px; height: auto;"">
        </div>
      </div>
      <p style=""text-align: center; margin-top: 20px;"">Does Event 1 lead to Event 2?</p>","0","1","2","true","dog_causal"
"","","","","","html-button-response","11","358315","0.0-11.0","","16398","
      <div style=""display: flex; justify-content: center; align-items: center;"">
        <div style=""text-align: center; margin-right: 20px;"">
          <p style=""font-size: 24px; font-weight: bold;"">Event 1</p>
          <img src=""images/causal/saving_a_cat_causal/saving_a_cat_causal_2.png"" style=""width: 300px; height: auto;"">
        </div>
        <div style=""text-align: center; margin-left: 20px;"">
          <p style=""font-size: 24px; font-weight: bold;"">Event 2</p>
          <img src=""images/causal/saving_a_cat_causal/saving_a_cat_causal_7.png"" style=""width: 300px; height: auto;"">
        </div>
      </div>
      <p style=""text-align: center; margin-top: 20px;"">Does Event 1 lead to Event 2?</p>","0","2","7","true","package_causal"
"","","","","","html-button-response","12","370565","0.0-12.0","","12248","
      <div style=""display: flex; justify-content: center; align-items: center;"">
        <div style=""text-align: center; margin-right: 20px;"">
          <p style=""font-size: 24px; font-weight: bold;"">Event 1</p>
          <img src=""images/causal/flight_scheme/flight_scheme_8.png"" style=""width: 300px; height: auto;"">
        </div>
        <div style=""text-align: center; margin-left: 20px;"">
          <p style=""font-size: 24px; font-weight: bold;"">Event 2</p>
          <img src=""images/causal/flight_scheme/flight_scheme_6.png"" style=""width: 300px; height: auto;"">
        </div>
      </div>
      <p style=""text-align: center; margin-top: 20px;"">Does Event 1 lead to Event 2?</p>","1","8","6","true","dog_causal"
"","","","","","html-button-response","13","377681","0.0-13.0","","7114","
      <div style=""display: flex; justify-content: center; align-items: center;"">
        <div style=""text-align: center; margin-right: 20px;"">
          <p style=""font-size: 24px; font-weight: bold;"">Event 1</p>
          <img src=""images/causal/cat_care_semantic/cat_care_semantic_5.png"" style=""width: 300px; height: auto;"">
        </div>
        <div style=""text-align: center; margin-left: 20px;"">
          <p style=""font-size: 24px; font-weight: bold;"">Event 2</p>
          <img src=""images/causal/cat_care_semantic/cat_care_semantic_8.png"" style=""width: 300px; height: auto;"">
        </div>
      </div>
      <p style=""text-align: center; margin-top: 20px;"">Does Event 1 lead to Event 2?</p>","2","5","8","true","physical_activity_semantic"
"","","","","","html-button-response","14","384715","0.0-14.0","","7032","
      <div style=""display: flex; justify-content: center; align-items: center;"">
        <div style=""text-align: center; margin-right: 20px;"">
          <p style=""font-size: 24px; font-weight: bold;"">Event 1</p>
          <img src=""images/causal/saving_a_cat_causal/saving_a_cat_causal_6.png"" style=""width: 300px; height: auto;"">
        </div>
        <div style=""text-align: center; margin-left: 20px;"">
          <p style=""font-size: 24px; font-weight: bold;"">Event 2</p>
          <img src=""images/causal/saving_a_cat_causal/saving_a_cat_causal_4.png"" style=""width: 300px; height: auto;"">
        </div>
      </div>
      <p style=""text-align: center; margin-top: 20px;"">Does Event 1 lead to Event 2?</p>","1","6","4","true","package_causal"
"","","","","","html-button-response","15","392365","0.0-15.0","","7648","
      <div style=""display: flex; justify-content: center; align-items: center;"">
        <div style=""text-align: center; margin-right: 20px;"">
          <p style=""font-size: 24px; font-weight: bold;"">Event 1</p>
          <img src=""images/causal/flight_scheme/flight_scheme_8.png"" style=""width: 300px; height: auto;"">
        </div>
        <div style=""text-align: center; margin-left: 20px;"">
          <p style=""font-size: 24px; font-weight: bold;"">Event 2</p>
          <img src=""images/causal/flight_scheme/flight_scheme_7.png"" style=""width: 300px; height: auto;"">
        </div>
      </div>
      <p style=""text-align: center; margin-top: 20px;"">Does Event 1 lead to Event 2?</p>","1","8","7","true","dog_causal"
"","","","","","html-button-response","16","398582","0.0-16.0","","6216","
      <div style=""display: flex; justify-content: center; align-items: center;"">
        <div style=""text-align: center; margin-right: 20px;"">
          <p style=""font-size: 24px; font-weight: bold;"">Event 1</p>
          <img src=""images/causal/cat_care_semantic/cat_care_semantic_4.png"" style=""width: 300px; height: auto;"">
        </div>
        <div style=""text-align: center; margin-left: 20px;"">
          <p style=""font-size: 24px; font-weight: bold;"">Event 2</p>
          <img src=""images/causal/cat_care_semantic/cat_care_semantic_1.png"" style=""width: 300px; height: auto;"">
        </div>
      </div>
      <p style=""text-align: center; margin-top: 20px;"">Does Event 1 lead to Event 2?</p>","1","4","1","true","physical_activity_semantic"
"","","","","","html-button-response","17","403748","0.0-17.0","","5165","
      <div style=""display: flex; justify-content: center; align-items: center;"">
        <div style=""text-align: center; margin-right: 20px;"">
          <p style=""font-size: 24px; font-weight: bold;"">Event 1</p>
          <img src=""images/causal/flight_scheme/flight_scheme_3.png"" style=""width: 300px; height: auto;"">
        </div>
        <div style=""text-align: center; margin-left: 20px;"">
          <p style=""font-size: 24px; font-weight: bold;"">Event 2</p>
          <img src=""images/causal/flight_scheme/flight_scheme_8.png"" style=""width: 300px; height: auto;"">
        </div>
      </div>
      <p style=""text-align: center; margin-top: 20px;"">Does Event 1 lead to Event 2?</p>","0","3","8","true","dog_causal"
"","","","","","html-button-response","18","418949","0.0-18.0","","15199","
      <div style=""display: flex; justify-content: center; align-items: center;"">
        <div style=""text-align: center; margin-right: 20px;"">
          <p style=""font-size: 24px; font-weight: bold;"">Event 1</p>
          <img src=""images/causal/cat_care_semantic/cat_care_semantic_10.png"" style=""width: 300px; height: auto;"">
        </div>
        <div style=""text-align: center; margin-left: 20px;"">
          <p style=""font-size: 24px; font-weight: bold;"">Event 2</p>
          <img src=""images/causal/cat_care_semantic/cat_care_semantic_7.png"" style=""width: 300px; height: auto;"">
        </div>
      </div>
      <p style=""text-align: center; margin-top: 20px;"">Does Event 1 lead to Event 2?</p>","2","10","7","true","physical_activity_semantic"
"","","","","","html-button-response","19","424699","0.0-19.0","","5748","
      <div style=""display: flex; justify-content: center; align-items: center;"">
        <div style=""text-align: center; margin-right: 20px;"">
          <p style=""font-size: 24px; font-weight: bold;"">Event 1</p>
          <img src=""images/causal/saving_a_cat_causal/saving_a_cat_causal_10.png"" style=""width: 300px; height: auto;"">
        </div>
        <div style=""text-align: center; margin-left: 20px;"">
          <p style=""font-size: 24px; font-weight: bold;"">Event 2</p>
          <img src=""images/causal/saving_a_cat_causal/saving_a_cat_causal_3.png"" style=""width: 300px; height: auto;"">
        </div>
      </div>
      <p style=""text-align: center; margin-top: 20px;"">Does Event 1 lead to Event 2?</p>","0","10","3","true","package_causal"
"","","","","","html-button-response","20","430699","0.0-20.0","","5998","
      <div style=""display: flex; justify-content: center; align-items: center;"">
        <div style=""text-align: center; margin-right: 20px;"">
          <p style=""font-size: 24px; font-weight: bold;"">Event 1</p>
          <img src=""images/causal/saving_a_cat_causal/saving_a_cat_causal_4.png"" style=""width: 300px; height: auto;"">
        </div>
        <div style=""text-align: center; margin-left: 20px;"">
          <p style=""font-size: 24px; font-weight: bold;"">Event 2</p>
          <img src=""images/causal/saving_a_cat_causal/saving_a_cat_causal_8.png"" style=""width: 300px; height: auto;"">
        </div>
      </div>
      <p style=""text-align: center; margin-top: 20px;"">Does Event 1 lead to Event 2?</p>","0","4","8","true","package_causal"
"","","","","","html-button-response","21","436332","0.0-21.0","","5632","
      <div style=""display: flex; justify-content: center; align-items: center;"">
        <div style=""text-align: center; margin-right: 20px;"">
          <p style=""font-size: 24px; font-weight: bold;"">Event 1</p>
          <img src=""images/causal/flight_scheme/flight_scheme_3.png"" style=""width: 300px; height: auto;"">
        </div>
        <div style=""text-align: center; margin-left: 20px;"">
          <p style=""font-size: 24px; font-weight: bold;"">Event 2</p>
          <img src=""images/causal/flight_scheme/flight_scheme_4.png"" style=""width: 300px; height: auto;"">
        </div>
      </div>
      <p style=""text-align: center; margin-top: 20px;"">Does Event 1 lead to Event 2?</p>","0","3","4","true","dog_causal"
"","","","","","html-button-response","22","443048","0.0-22.0","","6715","
      <div style=""display: flex; justify-content: center; align-items: center;"">
        <div style=""text-align: center; margin-right: 20px;"">
          <p style=""font-size: 24px; font-weight: bold;"">Event 1</p>
          <img src=""images/causal/cat_care_semantic/cat_care_semantic_5.png"" style=""width: 300px; height: auto;"">
        </div>
        <div style=""text-align: center; margin-left: 20px;"">
          <p style=""font-size: 24px; font-weight: bold;"">Event 2</p>
          <img src=""images/causal/cat_care_semantic/cat_care_semantic_4.png"" style=""width: 300px; height: auto;"">
        </div>
      </div>
      <p style=""text-align: center; margin-top: 20px;"">Does Event 1 lead to Event 2?</p>","2","5","4","true","physical_activity_semantic"
"","","","","","html-button-response","23","448431","0.0-23.0","","5382","
      <div style=""display: flex; justify-content: center; align-items: center;"">
        <div style=""text-align: center; margin-right: 20px;"">
          <p style=""font-size: 24px; font-weight: bold;"">Event 1</p>
          <img src=""images/causal/flight_scheme/flight_scheme_1.png"" style=""width: 300px; height: auto;"">
        </div>
        <div style=""text-align: center; margin-left: 20px;"">
          <p style=""font-size: 24px; font-weight: bold;"">Event 2</p>
          <img src=""images/causal/flight_scheme/flight_scheme_7.png"" style=""width: 300px; height: auto;"">
        </div>
      </div>
      <p style=""text-align: center; margin-top: 20px;"">Does Event 1 lead to Event 2?</p>","0","1","7","true","dog_causal"
"","","","","","html-button-response","24","454449","0.0-24.0","","6016","
      <div style=""display: flex; justify-content: center; align-items: center;"">
        <div style=""text-align: center; margin-right: 20px;"">
          <p style=""font-size: 24px; font-weight: bold;"">Event 1</p>
          <img src=""images/causal/cat_care_semantic/cat_care_semantic_2.png"" style=""width: 300px; height: auto;"">
        </div>
        <div style=""text-align: center; margin-left: 20px;"">
          <p style=""font-size: 24px; font-weight: bold;"">Event 2</p>
          <img src=""images/causal/cat_care_semantic/cat_care_semantic_4.png"" style=""width: 300px; height: auto;"">
        </div>
      </div>
      <p style=""text-align: center; margin-top: 20px;"">Does Event 1 lead to Event 2?</p>","0","2","4","true","physical_activity_semantic"
"","","","","","html-button-response","25","460116","0.0-25.0","","5665","
      <div style=""display: flex; justify-content: center; align-items: center;"">
        <div style=""text-align: center; margin-right: 20px;"">
          <p style=""font-size: 24px; font-weight: bold;"">Event 1</p>
          <img src=""images/causal/flight_scheme/flight_scheme_6.png"" style=""width: 300px; height: auto;"">
        </div>
        <div style=""text-align: center; margin-left: 20px;"">
          <p style=""font-size: 24px; font-weight: bold;"">Event 2</p>
          <img src=""images/causal/flight_scheme/flight_scheme_5.png"" style=""width: 300px; height: auto;"">
        </div>
      </div>
      <p style=""text-align: center; margin-top: 20px;"">Does Event 1 lead to Event 2?</p>","1","6","5","true","dog_causal"
"","","","","","html-button-response","26","465147","0.0-26.0","","5030","
      <div style=""display: flex; justify-content: center; align-items: center;"">
        <div style=""text-align: center; margin-right: 20px;"">
          <p style=""font-size: 24px; font-weight: bold;"">Event 1</p>
          <img src=""images/causal/cat_care_semantic/cat_care_semantic_2.png"" style=""width: 300px; height: auto;"">
        </div>
        <div style=""text-align: center; margin-left: 20px;"">
          <p style=""font-size: 24px; font-weight: bold;"">Event 2</p>
          <img src=""images/causal/cat_care_semantic/cat_care_semantic_5.png"" style=""width: 300px; height: auto;"">
        </div>
      </div>
      <p style=""text-align: center; margin-top: 20px;"">Does Event 1 lead to Event 2?</p>","0","2","5","true","physical_activity_semantic"
"","","","","","html-button-response","27","473582","0.0-27.0","","8433","
      <div style=""display: flex; justify-content: center; align-items: center;"">
        <div style=""text-align: center; margin-right: 20px;"">
          <p style=""font-size: 24px; font-weight: bold;"">Event 1</p>
          <img src=""images/causal/saving_a_cat_causal/saving_a_cat_causal_4.png"" style=""width: 300px; height: auto;"">
        </div>
        <div style=""text-align: center; margin-left: 20px;"">
          <p style=""font-size: 24px; font-weight: bold;"">Event 2</p>
          <img src=""images/causal/saving_a_cat_causal/saving_a_cat_causal_2.png"" style=""width: 300px; height: auto;"">
        </div>
      </div>
      <p style=""text-align: center; margin-top: 20px;"">Does Event 1 lead to Event 2?</p>","1","4","2","true","package_causal"
"","","","","","html-button-response","28","487865","0.0-28.0","","14282","
      <div style=""display: flex; justify-content: center; align-items: center;"">
        <div style=""text-align: center; margin-right: 20px;"">
          <p style=""font-size: 24px; font-weight: bold;"">Event 1</p>
          <img src=""images/causal/cat_care_semantic/cat_care_semantic_2.png"" style=""width: 300px; height: auto;"">
        </div>
        <div style=""text-align: center; margin-left: 20px;"">
          <p style=""font-size: 24px; font-weight: bold;"">Event 2</p>
          <img src=""images/causal/cat_care_semantic/cat_care_semantic_9.png"" style=""width: 300px; height: auto;"">
        </div>
      </div>
      <p style=""text-align: center; margin-top: 20px;"">Does Event 1 lead to Event 2?</p>","0","2","9","true","physical_activity_semantic"
"","","","","","html-button-response","29","493750","0.0-29.0","","5882","
      <div style=""display: flex; justify-content: center; align-items: center;"">
        <div style=""text-align: center; margin-right: 20px;"">
          <p style=""font-size: 24px; font-weight: bold;"">Event 1</p>
          <img src=""images/causal/saving_a_cat_causal/saving_a_cat_causal_1.png"" style=""width: 300px; height: auto;"">
        </div>
        <div style=""text-align: center; margin-left: 20px;"">
          <p style=""font-size: 24px; font-weight: bold;"">Event 2</p>
          <img src=""images/causal/saving_a_cat_causal/saving_a_cat_causal_4.png"" style=""width: 300px; height: auto;"">
        </div>
      </div>
      <p style=""text-align: center; margin-top: 20px;"">Does Event 1 lead to Event 2?</p>","0","1","4","true","package_causal"
"","","","","","html-button-response","30","499565","0.0-30.0","","5814","
      <div style=""display: flex; justify-content: center; align-items: center;"">
        <div style=""text-align: center; margin-right: 20px;"">
          <p style=""font-size: 24px; font-weight: bold;"">Event 1</p>
          <img src=""images/causal/flight_scheme/flight_scheme_9.png"" style=""width: 300px; height: auto;"">
        </div>
        <div style=""text-align: center; margin-left: 20px;"">
          <p style=""font-size: 24px; font-weight: bold;"">Event 2</p>
          <img src=""images/causal/flight_scheme/flight_scheme_4.png"" style=""width: 300px; height: auto;"">
        </div>
      </div>
      <p style=""text-align: center; margin-top: 20px;"">Does Event 1 lead to Event 2?</p>","1","9","4","true","dog_causal"
"","","","","","html-button-response","31","506149","0.0-31.0","","6582","
      <div style=""display: flex; justify-content: center; align-items: center;"">
        <div style=""text-align: center; margin-right: 20px;"">
          <p style=""font-size: 24px; font-weight: bold;"">Event 1</p>
          <img src=""images/causal/cat_care_semantic/cat_care_semantic_8.png"" style=""width: 300px; height: auto;"">
        </div>
        <div style=""text-align: center; margin-left: 20px;"">
          <p style=""font-size: 24px; font-weight: bold;"">Event 2</p>
          <img src=""images/causal/cat_care_semantic/cat_care_semantic_9.png"" style=""width: 300px; height: auto;"">
        </div>
      </div>
      <p style=""text-align: center; margin-top: 20px;"">Does Event 1 lead to Event 2?</p>","2","8","9","true","physical_activity_semantic"
"","","","","","html-button-response","32","514749","0.0-32.0","","8599","
      <div style=""display: flex; justify-content: center; align-items: center;"">
        <div style=""text-align: center; margin-right: 20px;"">
          <p style=""font-size: 24px; font-weight: bold;"">Event 1</p>
          <img src=""images/causal/saving_a_cat_causal/saving_a_cat_causal_2.png"" style=""width: 300px; height: auto;"">
        </div>
        <div style=""text-align: center; margin-left: 20px;"">
          <p style=""font-size: 24px; font-weight: bold;"">Event 2</p>
          <img src=""images/causal/saving_a_cat_causal/saving_a_cat_causal_9.png"" style=""width: 300px; height: auto;"">
        </div>
      </div>
      <p style=""text-align: center; margin-top: 20px;"">Does Event 1 lead to Event 2?</p>","0","2","9","true","package_causal"
"","","","","","html-button-response","33","531916","0.0-33.0","","17166","
      <div style=""display: flex; justify-content: center; align-items: center;"">
        <div style=""text-align: center; margin-right: 20px;"">
          <p style=""font-size: 24px; font-weight: bold;"">Event 1</p>
          <img src=""images/causal/flight_scheme/flight_scheme_10.png"" style=""width: 300px; height: auto;"">
        </div>
        <div style=""text-align: center; margin-left: 20px;"">
          <p style=""font-size: 24px; font-weight: bold;"">Event 2</p>
          <img src=""images/causal/flight_scheme/flight_scheme_3.png"" style=""width: 300px; height: auto;"">
        </div>
      </div>
      <p style=""text-align: center; margin-top: 20px;"">Does Event 1 lead to Event 2?</p>","1","10","3","true","dog_causal"
"","","","","","html-button-response","34","537533","0.0-34.0","","5615","
      <div style=""display: flex; justify-content: center; align-items: center;"">
        <div style=""text-align: center; margin-right: 20px;"">
          <p style=""font-size: 24px; font-weight: bold;"">Event 1</p>
          <img src=""images/causal/flight_scheme/flight_scheme_10.png"" style=""width: 300px; height: auto;"">
        </div>
        <div style=""text-align: center; margin-left: 20px;"">
          <p style=""font-size: 24px; font-weight: bold;"">Event 2</p>
          <img src=""images/causal/flight_scheme/flight_scheme_5.png"" style=""width: 300px; height: auto;"">
        </div>
      </div>
      <p style=""text-align: center; margin-top: 20px;"">Does Event 1 lead to Event 2?</p>","1","10","5","true","dog_causal"
"","","","","","html-button-response","35","543149","0.0-35.0","","5614","
      <div style=""display: flex; justify-content: center; align-items: center;"">
        <div style=""text-align: center; margin-right: 20px;"">
          <p style=""font-size: 24px; font-weight: bold;"">Event 1</p>
          <img src=""images/causal/flight_scheme/flight_scheme_7.png"" style=""width: 300px; height: auto;"">
        </div>
        <div style=""text-align: center; margin-left: 20px;"">
          <p style=""font-size: 24px; font-weight: bold;"">Event 2</p>
          <img src=""images/causal/flight_scheme/flight_scheme_10.png"" style=""width: 300px; height: auto;"">
        </div>
      </div>
      <p style=""text-align: center; margin-top: 20px;"">Does Event 1 lead to Event 2?</p>","0","7","10","true","dog_causal"
"","","","","","html-button-response","36","548816","0.0-36.0","","5665","
      <div style=""display: flex; justify-content: center; align-items: center;"">
        <div style=""text-align: center; margin-right: 20px;"">
          <p style=""font-size: 24px; font-weight: bold;"">Event 1</p>
          <img src=""images/causal/cat_care_semantic/cat_care_semantic_7.png"" style=""width: 300px; height: auto;"">
        </div>
        <div style=""text-align: center; margin-left: 20px;"">
          <p style=""font-size: 24px; font-weight: bold;"">Event 2</p>
          <img src=""images/causal/cat_care_semantic/cat_care_semantic_1.png"" style=""width: 300px; height: auto;"">
        </div>
      </div>
      <p style=""text-align: center; margin-top: 20px;"">Does Event 1 lead to Event 2?</p>","2","7","1","true","physical_activity_semantic"
"","","","","","html-button-response","37","565349","0.0-37.0","","16532","
      <div style=""display: flex; justify-content: center; align-items: center;"">
        <div style=""text-align: center; margin-right: 20px;"">
          <p style=""font-size: 24px; font-weight: bold;"">Event 1</p>
          <img src=""images/causal/cat_care_semantic/cat_care_semantic_10.png"" style=""width: 300px; height: auto;"">
        </div>
        <div style=""text-align: center; margin-left: 20px;"">
          <p style=""font-size: 24px; font-weight: bold;"">Event 2</p>
          <img src=""images/causal/cat_care_semantic/cat_care_semantic_3.png"" style=""width: 300px; height: auto;"">
        </div>
      </div>
      <p style=""text-align: center; margin-top: 20px;"">Does Event 1 lead to Event 2?</p>","1","10","3","true","physical_activity_semantic"
"","","","","","html-button-response","38","570449","0.0-38.0","","5098","
      <div style=""display: flex; justify-content: center; align-items: center;"">
        <div style=""text-align: center; margin-right: 20px;"">
          <p style=""font-size: 24px; font-weight: bold;"">Event 1</p>
          <img src=""images/causal/flight_scheme/flight_scheme_2.png"" style=""width: 300px; height: auto;"">
        </div>
        <div style=""text-align: center; margin-left: 20px;"">
          <p style=""font-size: 24px; font-weight: bold;"">Event 2</p>
          <img src=""images/causal/flight_scheme/flight_scheme_3.png"" style=""width: 300px; height: auto;"">
        </div>
      </div>
      <p style=""text-align: center; margin-top: 20px;"">Does Event 1 lead to Event 2?</p>","0","2","3","true","dog_causal"
"","","","","","html-button-response","39","579449","0.0-39.0","","8999","
      <div style=""display: flex; justify-content: center; align-items: center;"">
        <div style=""text-align: center; margin-right: 20px;"">
          <p style=""font-size: 24px; font-weight: bold;"">Event 1</p>
          <img src=""images/causal/cat_care_semantic/cat_care_semantic_6.png"" style=""width: 300px; height: auto;"">
        </div>
        <div style=""text-align: center; margin-left: 20px;"">
          <p style=""font-size: 24px; font-weight: bold;"">Event 2</p>
          <img src=""images/causal/cat_care_semantic/cat_care_semantic_4.png"" style=""width: 300px; height: auto;"">
        </div>
      </div>
      <p style=""text-align: center; margin-top: 20px;"">Does Event 1 lead to Event 2?</p>","2","6","4","true","physical_activity_semantic"
"","","","","","html-button-response","40","585099","0.0-40.0","","5650","
      <div style=""display: flex; justify-content: center; align-items: center;"">
        <div style=""text-align: center; margin-right: 20px;"">
          <p style=""font-size: 24px; font-weight: bold;"">Event 1</p>
          <img src=""images/causal/flight_scheme/flight_scheme_4.png"" style=""width: 300px; height: auto;"">
        </div>
        <div style=""text-align: center; margin-left: 20px;"">
          <p style=""font-size: 24px; font-weight: bold;"">Event 2</p>
          <img src=""images/causal/flight_scheme/flight_scheme_8.png"" style=""width: 300px; height: auto;"">
        </div>
      </div>
      <p style=""text-align: center; margin-top: 20px;"">Does Event 1 lead to Event 2?</p>","0","4","8","true","dog_causal"
"","","","","","html-button-response","41","593733","0.0-41.0","","8632","
      <div style=""display: flex; justify-content: center; align-items: center;"">
        <div style=""text-align: center; margin-right: 20px;"">
          <p style=""font-size: 24px; font-weight: bold;"">Event 1</p>
          <img src=""images/causal/saving_a_cat_causal/saving_a_cat_causal_3.png"" style=""width: 300px; height: auto;"">
        </div>
        <div style=""text-align: center; margin-left: 20px;"">
          <p style=""font-size: 24px; font-weight: bold;"">Event 2</p>
          <img src=""images/causal/saving_a_cat_causal/saving_a_cat_causal_4.png"" style=""width: 300px; height: auto;"">
        </div>
      </div>
      <p style=""text-align: center; margin-top: 20px;"">Does Event 1 lead to Event 2?</p>","0","3","4","true","package_causal"
"","","","","","html-button-response","42","599432","0.0-42.0","","5697","
      <div style=""display: flex; justify-content: center; align-items: center;"">
        <div style=""text-align: center; margin-right: 20px;"">
          <p style=""font-size: 24px; font-weight: bold;"">Event 1</p>
          <img src=""images/causal/cat_care_semantic/cat_care_semantic_9.png"" style=""width: 300px; height: auto;"">
        </div>
        <div style=""text-align: center; margin-left: 20px;"">
          <p style=""font-size: 24px; font-weight: bold;"">Event 2</p>
          <img src=""images/causal/cat_care_semantic/cat_care_semantic_6.png"" style=""width: 300px; height: auto;"">
        </div>
      </div>
      <p style=""text-align: center; margin-top: 20px;"">Does Event 1 lead to Event 2?</p>","2","9","6","true","physical_activity_semantic"
"","","","","","html-button-response","43","604800","0.0-43.0","","5368","
      <div style=""display: flex; justify-content: center; align-items: center;"">
        <div style=""text-align: center; margin-right: 20px;"">
          <p style=""font-size: 24px; font-weight: bold;"">Event 1</p>
          <img src=""images/causal/cat_care_semantic/cat_care_semantic_1.png"" style=""width: 300px; height: auto;"">
        </div>
        <div style=""text-align: center; margin-left: 20px;"">
          <p style=""font-size: 24px; font-weight: bold;"">Event 2</p>
          <img src=""images/causal/cat_care_semantic/cat_care_semantic_5.png"" style=""width: 300px; height: auto;"">
        </div>
      </div>
      <p style=""text-align: center; margin-top: 20px;"">Does Event 1 lead to Event 2?</p>","2","1","5","true","physical_activity_semantic"
"","","","","","html-button-response","44","624216","0.0-44.0","","19415","
      <div style=""display: flex; justify-content: center; align-items: center;"">
        <div style=""text-align: center; margin-right: 20px;"">
          <p style=""font-size: 24px; font-weight: bold;"">Event 1</p>
          <img src=""images/causal/flight_scheme/flight_scheme_5.png"" style=""width: 300px; height: auto;"">
        </div>
        <div style=""text-align: center; margin-left: 20px;"">
          <p style=""font-size: 24px; font-weight: bold;"">Event 2</p>
          <img src=""images/causal/flight_scheme/flight_scheme_8.png"" style=""width: 300px; height: auto;"">
        </div>
      </div>
      <p style=""text-align: center; margin-top: 20px;"">Does Event 1 lead to Event 2?</p>","0","5","8","true","dog_causal"
"","","","","","html-button-response","45","630099","0.0-45.0","","5881","
      <div style=""display: flex; justify-content: center; align-items: center;"">
        <div style=""text-align: center; margin-right: 20px;"">
          <p style=""font-size: 24px; font-weight: bold;"">Event 1</p>
          <img src=""images/causal/cat_care_semantic/cat_care_semantic_9.png"" style=""width: 300px; height: auto;"">
        </div>
        <div style=""text-align: center; margin-left: 20px;"">
          <p style=""font-size: 24px; font-weight: bold;"">Event 2</p>
          <img src=""images/causal/cat_care_semantic/cat_care_semantic_3.png"" style=""width: 300px; height: auto;"">
        </div>
      </div>
      <p style=""text-align: center; margin-top: 20px;"">Does Event 1 lead to Event 2?</p>","2","9","3","true","physical_activity_semantic"
"","","","","","html-button-response","46","637466","0.0-46.0","","7365","
      <div style=""display: flex; justify-content: center; align-items: center;"">
        <div style=""text-align: center; margin-right: 20px;"">
          <p style=""font-size: 24px; font-weight: bold;"">Event 1</p>
          <img src=""images/causal/saving_a_cat_causal/saving_a_cat_causal_2.png"" style=""width: 300px; height: auto;"">
        </div>
        <div style=""text-align: center; margin-left: 20px;"">
          <p style=""font-size: 24px; font-weight: bold;"">Event 2</p>
          <img src=""images/causal/saving_a_cat_causal/saving_a_cat_causal_3.png"" style=""width: 300px; height: auto;"">
        </div>
      </div>
      <p style=""text-align: center; margin-top: 20px;"">Does Event 1 lead to Event 2?</p>","0","2","3","true","package_causal"
"","","","","","html-button-response","47","646784","0.0-47.0","","9317","
      <div style=""display: flex; justify-content: center; align-items: center;"">
        <div style=""text-align: center; margin-right: 20px;"">
          <p style=""font-size: 24px; font-weight: bold;"">Event 1</p>
          <img src=""images/causal/saving_a_cat_causal/saving_a_cat_causal_5.png"" style=""width: 300px; height: auto;"">
        </div>
        <div style=""text-align: center; margin-left: 20px;"">
          <p style=""font-size: 24px; font-weight: bold;"">Event 2</p>
          <img src=""images/causal/saving_a_cat_causal/saving_a_cat_causal_7.png"" style=""width: 300px; height: auto;"">
        </div>
      </div>
      <p style=""text-align: center; margin-top: 20px;"">Does Event 1 lead to Event 2?</p>","0","5","7","true","package_causal"
"","","","","","html-button-response","48","652933","0.0-48.0","","6148","
      <div style=""display: flex; justify-content: center; align-items: center;"">
        <div style=""text-align: center; margin-right: 20px;"">
          <p style=""font-size: 24px; font-weight: bold;"">Event 1</p>
          <img src=""images/causal/cat_care_semantic/cat_care_semantic_4.png"" style=""width: 300px; height: auto;"">
        </div>
        <div style=""text-align: center; margin-left: 20px;"">
          <p style=""font-size: 24px; font-weight: bold;"">Event 2</p>
          <img src=""images/causal/cat_care_semantic/cat_care_semantic_3.png"" style=""width: 300px; height: auto;"">
        </div>
      </div>
      <p style=""text-align: center; margin-top: 20px;"">Does Event 1 lead to Event 2?</p>","2","4","3","true","physical_activity_semantic"
"","","","","","html-button-response","49","658566","0.0-49.0","","5632","
      <div style=""display: flex; justify-content: center; align-items: center;"">
        <div style=""text-align: center; margin-right: 20px;"">
          <p style=""font-size: 24px; font-weight: bold;"">Event 1</p>
          <img src=""images/causal/cat_care_semantic/cat_care_semantic_10.png"" style=""width: 300px; height: auto;"">
        </div>
        <div style=""text-align: center; margin-left: 20px;"">
          <p style=""font-size: 24px; font-weight: bold;"">Event 2</p>
          <img src=""images/causal/cat_care_semantic/cat_care_semantic_5.png"" style=""width: 300px; height: auto;"">
        </div>
      </div>
      <p style=""text-align: center; margin-top: 20px;"">Does Event 1 lead to Event 2?</p>","2","10","5","true","physical_activity_semantic"
"","","","","","html-button-response","50","664166","0.0-50.0","","5598","
      <div style=""display: flex; justify-content: center; align-items: center;"">
        <div style=""text-align: center; margin-right: 20px;"">
          <p style=""font-size: 24px; font-weight: bold;"">Event 1</p>
          <img src=""images/causal/flight_scheme/flight_scheme_5.png"" style=""width: 300px; height: auto;"">
        </div>
        <div style=""text-align: center; margin-left: 20px;"">
          <p style=""font-size: 24px; font-weight: bold;"">Event 2</p>
          <img src=""images/causal/flight_scheme/flight_scheme_4.png"" style=""width: 300px; height: auto;"">
        </div>
      </div>
      <p style=""text-align: center; margin-top: 20px;"">Does Event 1 lead to Event 2?</p>","1","5","4","true","dog_causal"
"","","","","","html-button-response","51","670567","0.0-51.0","","6399","
      <div style=""display: flex; justify-content: center; align-items: center;"">
        <div style=""text-align: center; margin-right: 20px;"">
          <p style=""font-size: 24px; font-weight: bold;"">Event 1</p>
          <img src=""images/causal/cat_care_semantic/cat_care_semantic_9.png"" style=""width: 300px; height: auto;"">
        </div>
        <div style=""text-align: center; margin-left: 20px;"">
          <p style=""font-size: 24px; font-weight: bold;"">Event 2</p>
          <img src=""images/causal/cat_care_semantic/cat_care_semantic_4.png"" style=""width: 300px; height: auto;"">
        </div>
      </div>
      <p style=""text-align: center; margin-top: 20px;"">Does Event 1 lead to Event 2?</p>","1","9","4","true","physical_activity_semantic"
"","","","","","html-button-response","52","677917","0.0-52.0","","7348","
      <div style=""display: flex; justify-content: center; align-items: center;"">
        <div style=""text-align: center; margin-right: 20px;"">
          <p style=""font-size: 24px; font-weight: bold;"">Event 1</p>
          <img src=""images/causal/saving_a_cat_causal/saving_a_cat_causal_8.png"" style=""width: 300px; height: auto;"">
        </div>
        <div style=""text-align: center; margin-left: 20px;"">
          <p style=""font-size: 24px; font-weight: bold;"">Event 2</p>
          <img src=""images/causal/saving_a_cat_causal/saving_a_cat_causal_7.png"" style=""width: 300px; height: auto;"">
        </div>
      </div>
      <p style=""text-align: center; margin-top: 20px;"">Does Event 1 lead to Event 2?</p>","1","8","7","true","package_causal"
"","","","","","html-button-response","53","683517","0.0-53.0","","5599","
      <div style=""display: flex; justify-content: center; align-items: center;"">
        <div style=""text-align: center; margin-right: 20px;"">
          <p style=""font-size: 24px; font-weight: bold;"">Event 1</p>
          <img src=""images/causal/cat_care_semantic/cat_care_semantic_8.png"" style=""width: 300px; height: auto;"">
        </div>
        <div style=""text-align: center; margin-left: 20px;"">
          <p style=""font-size: 24px; font-weight: bold;"">Event 2</p>
          <img src=""images/causal/cat_care_semantic/cat_care_semantic_10.png"" style=""width: 300px; height: auto;"">
        </div>
      </div>
      <p style=""text-align: center; margin-top: 20px;"">Does Event 1 lead to Event 2?</p>","2","8","10","true","physical_activity_semantic"
"","","","","","html-button-response","54","695933","0.0-54.0","","12414","
      <div style=""display: flex; justify-content: center; align-items: center;"">
        <div style=""text-align: center; margin-right: 20px;"">
          <p style=""font-size: 24px; font-weight: bold;"">Event 1</p>
          <img src=""images/causal/flight_scheme/flight_scheme_6.png"" style=""width: 300px; height: auto;"">
        </div>
        <div style=""text-align: center; margin-left: 20px;"">
          <p style=""font-size: 24px; font-weight: bold;"">Event 2</p>
          <img src=""images/causal/flight_scheme/flight_scheme_2.png"" style=""width: 300px; height: auto;"">
        </div>
      </div>
      <p style=""text-align: center; margin-top: 20px;"">Does Event 1 lead to Event 2?</p>","1","6","2","true","dog_causal"
"","","","","","html-button-response","55","701700","0.0-55.0","","5766","
      <div style=""display: flex; justify-content: center; align-items: center;"">
        <div style=""text-align: center; margin-right: 20px;"">
          <p style=""font-size: 24px; font-weight: bold;"">Event 1</p>
          <img src=""images/causal/flight_scheme/flight_scheme_1.png"" style=""width: 300px; height: auto;"">
        </div>
        <div style=""text-align: center; margin-left: 20px;"">
          <p style=""font-size: 24px; font-weight: bold;"">Event 2</p>
          <img src=""images/causal/flight_scheme/flight_scheme_5.png"" style=""width: 300px; height: auto;"">
        </div>
      </div>
      <p style=""text-align: center; margin-top: 20px;"">Does Event 1 lead to Event 2?</p>","0","1","5","true","dog_causal"
"","","","","","html-button-response","56","707250","0.0-56.0","","5549","
      <div style=""display: flex; justify-content: center; align-items: center;"">
        <div style=""text-align: center; margin-right: 20px;"">
          <p style=""font-size: 24px; font-weight: bold;"">Event 1</p>
          <img src=""images/causal/saving_a_cat_causal/saving_a_cat_causal_8.png"" style=""width: 300px; height: auto;"">
        </div>
        <div style=""text-align: center; margin-left: 20px;"">
          <p style=""font-size: 24px; font-weight: bold;"">Event 2</p>
          <img src=""images/causal/saving_a_cat_causal/saving_a_cat_causal_1.png"" style=""width: 300px; height: auto;"">
        </div>
      </div>
      <p style=""text-align: center; margin-top: 20px;"">Does Event 1 lead to Event 2?</p>","1","8","1","true","package_causal"
"","","","","","html-button-response","57","718118","0.0-57.0","","10866","
      <div style=""display: flex; justify-content: center; align-items: center;"">
        <div style=""text-align: center; margin-right: 20px;"">
          <p style=""font-size: 24px; font-weight: bold;"">Event 1</p>
          <img src=""images/causal/flight_scheme/flight_scheme_7.png"" style=""width: 300px; height: auto;"">
        </div>
        <div style=""text-align: center; margin-left: 20px;"">
          <p style=""font-size: 24px; font-weight: bold;"">Event 2</p>
          <img src=""images/causal/flight_scheme/flight_scheme_9.png"" style=""width: 300px; height: auto;"">
        </div>
      </div>
      <p style=""text-align: center; margin-top: 20px;"">Does Event 1 lead to Event 2?</p>","2","7","9","true","dog_causal"
"","","","","","html-button-response","58","723767","0.0-58.0","","5648","
      <div style=""display: flex; justify-content: center; align-items: center;"">
        <div style=""text-align: center; margin-right: 20px;"">
          <p style=""font-size: 24px; font-weight: bold;"">Event 1</p>
          <img src=""images/causal/flight_scheme/flight_scheme_4.png"" style=""width: 300px; height: auto;"">
        </div>
        <div style=""text-align: center; margin-left: 20px;"">
          <p style=""font-size: 24px; font-weight: bold;"">Event 2</p>
          <img src=""images/causal/flight_scheme/flight_scheme_1.png"" style=""width: 300px; height: auto;"">
        </div>
      </div>
      <p style=""text-align: center; margin-top: 20px;"">Does Event 1 lead to Event 2?</p>","1","4","1","true","dog_causal"
"","","","","","html-button-response","59","730034","0.0-59.0","","6265","
      <div style=""display: flex; justify-content: center; align-items: center;"">
        <div style=""text-align: center; margin-right: 20px;"">
          <p style=""font-size: 24px; font-weight: bold;"">Event 1</p>
          <img src=""images/causal/saving_a_cat_causal/saving_a_cat_causal_5.png"" style=""width: 300px; height: auto;"">
        </div>
        <div style=""text-align: center; margin-left: 20px;"">
          <p style=""font-size: 24px; font-weight: bold;"">Event 2</p>
          <img src=""images/causal/saving_a_cat_causal/saving_a_cat_causal_10.png"" style=""width: 300px; height: auto;"">
        </div>
      </div>
      <p style=""text-align: center; margin-top: 20px;"">Does Event 1 lead to Event 2?</p>","2","5","10","true","package_causal"
"","","","","","html-button-response","60","735867","0.0-60.0","","5831","
      <div style=""display: flex; justify-content: center; align-items: center;"">
        <div style=""text-align: center; margin-right: 20px;"">
          <p style=""font-size: 24px; font-weight: bold;"">Event 1</p>
          <img src=""images/causal/saving_a_cat_causal/saving_a_cat_causal_6.png"" style=""width: 300px; height: auto;"">
        </div>
        <div style=""text-align: center; margin-left: 20px;"">
          <p style=""font-size: 24px; font-weight: bold;"">Event 2</p>
          <img src=""images/causal/saving_a_cat_causal/saving_a_cat_causal_3.png"" style=""width: 300px; height: auto;"">
        </div>
      </div>
      <p style=""text-align: center; margin-top: 20px;"">Does Event 1 lead to Event 2?</p>","1","6","3","true","package_causal"
"","","","","","html-button-response","61","777384","0.0-61.0","","41516","
      <div style=""display: flex; justify-content: center; align-items: center;"">
        <div style=""text-align: center; margin-right: 20px;"">
          <p style=""font-size: 24px; font-weight: bold;"">Event 1</p>
          <img src=""images/causal/saving_a_cat_causal/saving_a_cat_causal_9.png"" style=""width: 300px; height: auto;"">
        </div>
        <div style=""text-align: center; margin-left: 20px;"">
          <p style=""font-size: 24px; font-weight: bold;"">Event 2</p>
          <img src=""images/causal/saving_a_cat_causal/saving_a_cat_causal_3.png"" style=""width: 300px; height: auto;"">
        </div>
      </div>
      <p style=""text-align: center; margin-top: 20px;"">Does Event 1 lead to Event 2?</p>","1","9","3","true","package_causal"
"","","","","","html-button-response","62","783318","0.0-62.0","","5932","
      <div style=""display: flex; justify-content: center; align-items: center;"">
        <div style=""text-align: center; margin-right: 20px;"">
          <p style=""font-size: 24px; font-weight: bold;"">Event 1</p>
          <img src=""images/causal/saving_a_cat_causal/saving_a_cat_causal_10.png"" style=""width: 300px; height: auto;"">
        </div>
        <div style=""text-align: center; margin-left: 20px;"">
          <p style=""font-size: 24px; font-weight: bold;"">Event 2</p>
          <img src=""images/causal/saving_a_cat_causal/saving_a_cat_causal_1.png"" style=""width: 300px; height: auto;"">
        </div>
      </div>
      <p style=""text-align: center; margin-top: 20px;"">Does Event 1 lead to Event 2?</p>","2","10","1","true","package_causal"
"","","","","","html-button-response","63","789151","0.0-63.0","","5832","
      <div style=""display: flex; justify-content: center; align-items: center;"">
        <div style=""text-align: center; margin-right: 20px;"">
          <p style=""font-size: 24px; font-weight: bold;"">Event 1</p>
          <img src=""images/causal/flight_scheme/flight_scheme_1.png"" style=""width: 300px; height: auto;"">
        </div>
        <div style=""text-align: center; margin-left: 20px;"">
          <p style=""font-size: 24px; font-weight: bold;"">Event 2</p>
          <img src=""images/causal/flight_scheme/flight_scheme_6.png"" style=""width: 300px; height: auto;"">
        </div>
      </div>
      <p style=""text-align: center; margin-top: 20px;"">Does Event 1 lead to Event 2?</p>","0","1","6","true","dog_causal"
"","","","","","html-button-response","64","794934","0.0-64.0","","5782","
      <div style=""display: flex; justify-content: center; align-items: center;"">
        <div style=""text-align: center; margin-right: 20px;"">
          <p style=""font-size: 24px; font-weight: bold;"">Event 1</p>
          <img src=""images/causal/saving_a_cat_causal/saving_a_cat_causal_9.png"" style=""width: 300px; height: auto;"">
        </div>
        <div style=""text-align: center; margin-left: 20px;"">
          <p style=""font-size: 24px; font-weight: bold;"">Event 2</p>
          <img src=""images/causal/saving_a_cat_causal/saving_a_cat_causal_8.png"" style=""width: 300px; height: auto;"">
        </div>
      </div>
      <p style=""text-align: center; margin-top: 20px;"">Does Event 1 lead to Event 2?</p>","1","9","8","true","package_causal"
"","","","","","html-button-response","65","800617","0.0-65.0","","5682","
      <div style=""display: flex; justify-content: center; align-items: center;"">
        <div style=""text-align: center; margin-right: 20px;"">
          <p style=""font-size: 24px; font-weight: bold;"">Event 1</p>
          <img src=""images/causal/cat_care_semantic/cat_care_semantic_2.png"" style=""width: 300px; height: auto;"">
        </div>
        <div style=""text-align: center; margin-left: 20px;"">
          <p style=""font-size: 24px; font-weight: bold;"">Event 2</p>
          <img src=""images/causal/cat_care_semantic/cat_care_semantic_8.png"" style=""width: 300px; height: auto;"">
        </div>
      </div>
      <p style=""text-align: center; margin-top: 20px;"">Does Event 1 lead to Event 2?</p>","2","2","8","true","physical_activity_semantic"
"","","","","","html-button-response","66","810101","0.0-66.0","","9482","
      <div style=""display: flex; justify-content: center; align-items: center;"">
        <div style=""text-align: center; margin-right: 20px;"">
          <p style=""font-size: 24px; font-weight: bold;"">Event 1</p>
          <img src=""images/causal/flight_scheme/flight_scheme_4.png"" style=""width: 300px; height: auto;"">
        </div>
        <div style=""text-align: center; margin-left: 20px;"">
          <p style=""font-size: 24px; font-weight: bold;"">Event 2</p>
          <img src=""images/causal/flight_scheme/flight_scheme_6.png"" style=""width: 300px; height: auto;"">
        </div>
      </div>
      <p style=""text-align: center; margin-top: 20px;"">Does Event 1 lead to Event 2?</p>","0","4","6","true","dog_causal"
"","","","","","html-button-response","67","833851","0.0-67.0","","23748","
      <div style=""display: flex; justify-content: center; align-items: center;"">
        <div style=""text-align: center; margin-right: 20px;"">
          <p style=""font-size: 24px; font-weight: bold;"">Event 1</p>
          <img src=""images/causal/cat_care_semantic/cat_care_semantic_5.png"" style=""width: 300px; height: auto;"">
        </div>
        <div style=""text-align: center; margin-left: 20px;"">
          <p style=""font-size: 24px; font-weight: bold;"">Event 2</p>
          <img src=""images/causal/cat_care_semantic/cat_care_semantic_9.png"" style=""width: 300px; height: auto;"">
        </div>
      </div>
      <p style=""text-align: center; margin-top: 20px;"">Does Event 1 lead to Event 2?</p>","2","5","9","true","physical_activity_semantic"
"","","","","","html-button-response","68","857984","0.0-68.0","","24132","
      <div style=""display: flex; justify-content: center; align-items: center;"">
        <div style=""text-align: center; margin-right: 20px;"">
          <p style=""font-size: 24px; font-weight: bold;"">Event 1</p>
          <img src=""images/causal/saving_a_cat_causal/saving_a_cat_causal_1.png"" style=""width: 300px; height: auto;"">
        </div>
        <div style=""text-align: center; margin-left: 20px;"">
          <p style=""font-size: 24px; font-weight: bold;"">Event 2</p>
          <img src=""images/causal/saving_a_cat_causal/saving_a_cat_causal_9.png"" style=""width: 300px; height: auto;"">
        </div>
      </div>
      <p style=""text-align: center; margin-top: 20px;"">Does Event 1 lead to Event 2?</p>","0","1","9","true","package_causal"
"","","","","","html-button-response","69","863684","0.0-69.0","","5698","
      <div style=""display: flex; justify-content: center; align-items: center;"">
        <div style=""text-align: center; margin-right: 20px;"">
          <p style=""font-size: 24px; font-weight: bold;"">Event 1</p>
          <img src=""images/causal/flight_scheme/flight_scheme_7.png"" style=""width: 300px; height: auto;"">
        </div>
        <div style=""text-align: center; margin-left: 20px;"">
          <p style=""font-size: 24px; font-weight: bold;"">Event 2</p>
          <img src=""images/causal/flight_scheme/flight_scheme_4.png"" style=""width: 300px; height: auto;"">
        </div>
      </div>
      <p style=""text-align: center; margin-top: 20px;"">Does Event 1 lead to Event 2?</p>","2","7","4","true","dog_causal"
"","","","","","html-button-response","70","869552","0.0-70.0","","5866","
      <div style=""display: flex; justify-content: center; align-items: center;"">
        <div style=""text-align: center; margin-right: 20px;"">
          <p style=""font-size: 24px; font-weight: bold;"">Event 1</p>
          <img src=""images/causal/cat_care_semantic/cat_care_semantic_3.png"" style=""width: 300px; height: auto;"">
        </div>
        <div style=""text-align: center; margin-left: 20px;"">
          <p style=""font-size: 24px; font-weight: bold;"">Event 2</p>
          <img src=""images/causal/cat_care_semantic/cat_care_semantic_7.png"" style=""width: 300px; height: auto;"">
        </div>
      </div>
      <p style=""text-align: center; margin-top: 20px;"">Does Event 1 lead to Event 2?</p>","2","3","7","true","physical_activity_semantic"
"","","","","","html-button-response","71","876901","0.0-71.0","","7348","
      <div style=""display: flex; justify-content: center; align-items: center;"">
        <div style=""text-align: center; margin-right: 20px;"">
          <p style=""font-size: 24px; font-weight: bold;"">Event 1</p>
          <img src=""images/causal/cat_care_semantic/cat_care_semantic_2.png"" style=""width: 300px; height: auto;"">
        </div>
        <div style=""text-align: center; margin-left: 20px;"">
          <p style=""font-size: 24px; font-weight: bold;"">Event 2</p>
          <img src=""images/causal/cat_care_semantic/cat_care_semantic_10.png"" style=""width: 300px; height: auto;"">
        </div>
      </div>
      <p style=""text-align: center; margin-top: 20px;"">Does Event 1 lead to Event 2?</p>","1","2","10","true","physical_activity_semantic"
"","","","","","html-button-response","72","882718","0.0-72.0","","5815","
      <div style=""display: flex; justify-content: center; align-items: center;"">
        <div style=""text-align: center; margin-right: 20px;"">
          <p style=""font-size: 24px; font-weight: bold;"">Event 1</p>
          <img src=""images/causal/flight_scheme/flight_scheme_9.png"" style=""width: 300px; height: auto;"">
        </div>
        <div style=""text-align: center; margin-left: 20px;"">
          <p style=""font-size: 24px; font-weight: bold;"">Event 2</p>
          <img src=""images/causal/flight_scheme/flight_scheme_6.png"" style=""width: 300px; height: auto;"">
        </div>
      </div>
      <p style=""text-align: center; margin-top: 20px;"">Does Event 1 lead to Event 2?</p>","1","9","6","true","dog_causal"
"","","","","","html-button-response","73","888635","0.0-73.0","","5915","
      <div style=""display: flex; justify-content: center; align-items: center;"">
        <div style=""text-align: center; margin-right: 20px;"">
          <p style=""font-size: 24px; font-weight: bold;"">Event 1</p>
          <img src=""images/causal/cat_care_semantic/cat_care_semantic_5.png"" style=""width: 300px; height: auto;"">
        </div>
        <div style=""text-align: center; margin-left: 20px;"">
          <p style=""font-size: 24px; font-weight: bold;"">Event 2</p>
          <img src=""images/causal/cat_care_semantic/cat_care_semantic_7.png"" style=""width: 300px; height: auto;"">
        </div>
      </div>
      <p style=""text-align: center; margin-top: 20px;"">Does Event 1 lead to Event 2?</p>","2","5","7","true","physical_activity_semantic"
"","","","","","html-button-response","74","894835","0.0-74.0","","6198","
      <div style=""display: flex; justify-content: center; align-items: center;"">
        <div style=""text-align: center; margin-right: 20px;"">
          <p style=""font-size: 24px; font-weight: bold;"">Event 1</p>
          <img src=""images/causal/saving_a_cat_causal/saving_a_cat_causal_10.png"" style=""width: 300px; height: auto;"">
        </div>
        <div style=""text-align: center; margin-left: 20px;"">
          <p style=""font-size: 24px; font-weight: bold;"">Event 2</p>
          <img src=""images/causal/saving_a_cat_causal/saving_a_cat_causal_2.png"" style=""width: 300px; height: auto;"">
        </div>
      </div>
      <p style=""text-align: center; margin-top: 20px;"">Does Event 1 lead to Event 2?</p>","2","10","2","true","package_causal"
"","","","","","html-button-response","75","942385","0.0-75.0","","47549","
      <div style=""display: flex; justify-content: center; align-items: center;"">
        <div style=""text-align: center; margin-right: 20px;"">
          <p style=""font-size: 24px; font-weight: bold;"">Event 1</p>
          <img src=""images/causal/saving_a_cat_causal/saving_a_cat_causal_7.png"" style=""width: 300px; height: auto;"">
        </div>
        <div style=""text-align: center; margin-left: 20px;"">
          <p style=""font-size: 24px; font-weight: bold;"">Event 2</p>
          <img src=""images/causal/saving_a_cat_causal/saving_a_cat_causal_3.png"" style=""width: 300px; height: auto;"">
        </div>
      </div>
      <p style=""text-align: center; margin-top: 20px;"">Does Event 1 lead to Event 2?</p>","1","7","3","true","package_causal"
"","","","","","html-button-response","76","948518","0.0-76.0","","6132","
      <div style=""display: flex; justify-content: center; align-items: center;"">
        <div style=""text-align: center; margin-right: 20px;"">
          <p style=""font-size: 24px; font-weight: bold;"">Event 1</p>
          <img src=""images/causal/cat_care_semantic/cat_care_semantic_10.png"" style=""width: 300px; height: auto;"">
        </div>
        <div style=""text-align: center; margin-left: 20px;"">
          <p style=""font-size: 24px; font-weight: bold;"">Event 2</p>
          <img src=""images/causal/cat_care_semantic/cat_care_semantic_4.png"" style=""width: 300px; height: auto;"">
        </div>
      </div>
      <p style=""text-align: center; margin-top: 20px;"">Does Event 1 lead to Event 2?</p>","2","10","4","true","physical_activity_semantic"
"","","","","","html-button-response","77","954436","0.0-77.0","","5916","
      <div style=""display: flex; justify-content: center; align-items: center;"">
        <div style=""text-align: center; margin-right: 20px;"">
          <p style=""font-size: 24px; font-weight: bold;"">Event 1</p>
          <img src=""images/causal/flight_scheme/flight_scheme_4.png"" style=""width: 300px; height: auto;"">
        </div>
        <div style=""text-align: center; margin-left: 20px;"">
          <p style=""font-size: 24px; font-weight: bold;"">Event 2</p>
          <img src=""images/causal/flight_scheme/flight_scheme_2.png"" style=""width: 300px; height: auto;"">
        </div>
      </div>
      <p style=""text-align: center; margin-top: 20px;"">Does Event 1 lead to Event 2?</p>","1","4","2","true","dog_causal"
"","","","","","html-button-response","78","960218","0.0-78.0","","5781","
      <div style=""display: flex; justify-content: center; align-items: center;"">
        <div style=""text-align: center; margin-right: 20px;"">
          <p style=""font-size: 24px; font-weight: bold;"">Event 1</p>
          <img src=""images/causal/cat_care_semantic/cat_care_semantic_8.png"" style=""width: 300px; height: auto;"">
        </div>
        <div style=""text-align: center; margin-left: 20px;"">
          <p style=""font-size: 24px; font-weight: bold;"">Event 2</p>
          <img src=""images/causal/cat_care_semantic/cat_care_semantic_4.png"" style=""width: 300px; height: auto;"">
        </div>
      </div>
      <p style=""text-align: center; margin-top: 20px;"">Does Event 1 lead to Event 2?</p>","2","8","4","true","physical_activity_semantic"
"","","","","","html-button-response","79","975019","0.0-79.0","","14799","
      <div style=""display: flex; justify-content: center; align-items: center;"">
        <div style=""text-align: center; margin-right: 20px;"">
          <p style=""font-size: 24px; font-weight: bold;"">Event 1</p>
          <img src=""images/causal/cat_care_semantic/cat_care_semantic_10.png"" style=""width: 300px; height: auto;"">
        </div>
        <div style=""text-align: center; margin-left: 20px;"">
          <p style=""font-size: 24px; font-weight: bold;"">Event 2</p>
          <img src=""images/causal/cat_care_semantic/cat_care_semantic_6.png"" style=""width: 300px; height: auto;"">
        </div>
      </div>
      <p style=""text-align: center; margin-top: 20px;"">Does Event 1 lead to Event 2?</p>","2","10","6","true","physical_activity_semantic"
"","","","","","html-button-response","80","983786","0.0-80.0","","8766","
      <div style=""display: flex; justify-content: center; align-items: center;"">
        <div style=""text-align: center; margin-right: 20px;"">
          <p style=""font-size: 24px; font-weight: bold;"">Event 1</p>
          <img src=""images/causal/cat_care_semantic/cat_care_semantic_6.png"" style=""width: 300px; height: auto;"">
        </div>
        <div style=""text-align: center; margin-left: 20px;"">
          <p style=""font-size: 24px; font-weight: bold;"">Event 2</p>
          <img src=""images/causal/cat_care_semantic/cat_care_semantic_5.png"" style=""width: 300px; height: auto;"">
        </div>
      </div>
      <p style=""text-align: center; margin-top: 20px;"">Does Event 1 lead to Event 2?</p>","2","6","5","true","physical_activity_semantic"
"","","","","","html-button-response","81","989435","0.0-81.0","","5647","
      <div style=""display: flex; justify-content: center; align-items: center;"">
        <div style=""text-align: center; margin-right: 20px;"">
          <p style=""font-size: 24px; font-weight: bold;"">Event 1</p>
          <img src=""images/causal/cat_care_semantic/cat_care_semantic_9.png"" style=""width: 300px; height: auto;"">
        </div>
        <div style=""text-align: center; margin-left: 20px;"">
          <p style=""font-size: 24px; font-weight: bold;"">Event 2</p>
          <img src=""images/causal/cat_care_semantic/cat_care_semantic_1.png"" style=""width: 300px; height: auto;"">
        </div>
      </div>
      <p style=""text-align: center; margin-top: 20px;"">Does Event 1 lead to Event 2?</p>","2","9","1","true","physical_activity_semantic"
"","","","","","html-button-response","82","994619","0.0-82.0","","5183","
      <div style=""display: flex; justify-content: center; align-items: center;"">
        <div style=""text-align: center; margin-right: 20px;"">
          <p style=""font-size: 24px; font-weight: bold;"">Event 1</p>
          <img src=""images/causal/saving_a_cat_causal/saving_a_cat_causal_6.png"" style=""width: 300px; height: auto;"">
        </div>
        <div style=""text-align: center; margin-left: 20px;"">
          <p style=""font-size: 24px; font-weight: bold;"">Event 2</p>
          <img src=""images/causal/saving_a_cat_causal/saving_a_cat_causal_5.png"" style=""width: 300px; height: auto;"">
        </div>
      </div>
      <p style=""text-align: center; margin-top: 20px;"">Does Event 1 lead to Event 2?</p>","1","6","5","true","package_causal"
"","","","","","html-button-response","83","1000836","0.0-83.0","","6216","
      <div style=""display: flex; justify-content: center; align-items: center;"">
        <div style=""text-align: center; margin-right: 20px;"">
          <p style=""font-size: 24px; font-weight: bold;"">Event 1</p>
          <img src=""images/causal/saving_a_cat_causal/saving_a_cat_causal_10.png"" style=""width: 300px; height: auto;"">
        </div>
        <div style=""text-align: center; margin-left: 20px;"">
          <p style=""font-size: 24px; font-weight: bold;"">Event 2</p>
          <img src=""images/causal/saving_a_cat_causal/saving_a_cat_causal_6.png"" style=""width: 300px; height: auto;"">
        </div>
      </div>
      <p style=""text-align: center; margin-top: 20px;"">Does Event 1 lead to Event 2?</p>","2","10","6","true","package_causal"
"","","","","","html-button-response","84","1006469","0.0-84.0","","5632","
      <div style=""display: flex; justify-content: center; align-items: center;"">
        <div style=""text-align: center; margin-right: 20px;"">
          <p style=""font-size: 24px; font-weight: bold;"">Event 1</p>
          <img src=""images/causal/cat_care_semantic/cat_care_semantic_10.png"" style=""width: 300px; height: auto;"">
        </div>
        <div style=""text-align: center; margin-left: 20px;"">
          <p style=""font-size: 24px; font-weight: bold;"">Event 2</p>
          <img src=""images/causal/cat_care_semantic/cat_care_semantic_1.png"" style=""width: 300px; height: auto;"">
        </div>
      </div>
      <p style=""text-align: center; margin-top: 20px;"">Does Event 1 lead to Event 2?</p>","2","10","1","true","physical_activity_semantic"
"","","","","","html-button-response","85","1036952","0.0-85.0","","30482","
      <div style=""display: flex; justify-content: center; align-items: center;"">
        <div style=""text-align: center; margin-right: 20px;"">
          <p style=""font-size: 24px; font-weight: bold;"">Event 1</p>
          <img src=""images/causal/cat_care_semantic/cat_care_semantic_2.png"" style=""width: 300px; height: auto;"">
        </div>
        <div style=""text-align: center; margin-left: 20px;"">
          <p style=""font-size: 24px; font-weight: bold;"">Event 2</p>
          <img src=""images/causal/cat_care_semantic/cat_care_semantic_7.png"" style=""width: 300px; height: auto;"">
        </div>
      </div>
      <p style=""text-align: center; margin-top: 20px;"">Does Event 1 lead to Event 2?</p>","2","2","7","true","physical_activity_semantic"
"","","","","","html-button-response","86","1042670","0.0-86.0","","5715","
      <div style=""display: flex; justify-content: center; align-items: center;"">
        <div style=""text-align: center; margin-right: 20px;"">
          <p style=""font-size: 24px; font-weight: bold;"">Event 1</p>
          <img src=""images/causal/saving_a_cat_causal/saving_a_cat_causal_6.png"" style=""width: 300px; height: auto;"">
        </div>
        <div style=""text-align: center; margin-left: 20px;"">
          <p style=""font-size: 24px; font-weight: bold;"">Event 2</p>
          <img src=""images/causal/saving_a_cat_causal/saving_a_cat_causal_8.png"" style=""width: 300px; height: auto;"">
        </div>
      </div>
      <p style=""text-align: center; margin-top: 20px;"">Does Event 1 lead to Event 2?</p>","0","6","8","true","package_causal"
"","","","","","html-button-response","87","1065386","0.0-87.0","","22715","
      <div style=""display: flex; justify-content: center; align-items: center;"">
        <div style=""text-align: center; margin-right: 20px;"">
          <p style=""font-size: 24px; font-weight: bold;"">Event 1</p>
          <img src=""images/causal/saving_a_cat_causal/saving_a_cat_causal_7.png"" style=""width: 300px; height: auto;"">
        </div>
        <div style=""text-align: center; margin-left: 20px;"">
          <p style=""font-size: 24px; font-weight: bold;"">Event 2</p>
          <img src=""images/causal/saving_a_cat_causal/saving_a_cat_causal_10.png"" style=""width: 300px; height: auto;"">
        </div>
      </div>
      <p style=""text-align: center; margin-top: 20px;"">Does Event 1 lead to Event 2?</p>","2","7","10","true","package_causal"
"","","","","","html-button-response","88","1071037","0.0-88.0","","5649","
      <div style=""display: flex; justify-content: center; align-items: center;"">
        <div style=""text-align: center; margin-right: 20px;"">
          <p style=""font-size: 24px; font-weight: bold;"">Event 1</p>
          <img src=""images/causal/cat_care_semantic/cat_care_semantic_8.png"" style=""width: 300px; height: auto;"">
        </div>
        <div style=""text-align: center; margin-left: 20px;"">
          <p style=""font-size: 24px; font-weight: bold;"">Event 2</p>
          <img src=""images/causal/cat_care_semantic/cat_care_semantic_1.png"" style=""width: 300px; height: auto;"">
        </div>
      </div>
      <p style=""text-align: center; margin-top: 20px;"">Does Event 1 lead to Event 2?</p>","2","8","1","true","physical_activity_semantic"
"","","","","","html-button-response","89","1078003","0.0-89.0","","6965","
      <div style=""display: flex; justify-content: center; align-items: center;"">
        <div style=""text-align: center; margin-right: 20px;"">
          <p style=""font-size: 24px; font-weight: bold;"">Event 1</p>
          <img src=""images/causal/flight_scheme/flight_scheme_2.png"" style=""width: 300px; height: auto;"">
        </div>
        <div style=""text-align: center; margin-left: 20px;"">
          <p style=""font-size: 24px; font-weight: bold;"">Event 2</p>
          <img src=""images/causal/flight_scheme/flight_scheme_8.png"" style=""width: 300px; height: auto;"">
        </div>
      </div>
      <p style=""text-align: center; margin-top: 20px;"">Does Event 1 lead to Event 2?</p>","0","2","8","true","dog_causal"
"","","","","","html-button-response","90","1083770","0.0-90.0","","5765","
      <div style=""display: flex; justify-content: center; align-items: center;"">
        <div style=""text-align: center; margin-right: 20px;"">
          <p style=""font-size: 24px; font-weight: bold;"">Event 1</p>
          <img src=""images/causal/flight_scheme/flight_scheme_1.png"" style=""width: 300px; height: auto;"">
        </div>
        <div style=""text-align: center; margin-left: 20px;"">
          <p style=""font-size: 24px; font-weight: bold;"">Event 2</p>
          <img src=""images/causal/flight_scheme/flight_scheme_8.png"" style=""width: 300px; height: auto;"">
        </div>
      </div>
      <p style=""text-align: center; margin-top: 20px;"">Does Event 1 lead to Event 2?</p>","0","1","8","true","dog_causal"
"","","","","","html-button-response","91","1103435","0.0-91.0","","19665","
      <div style=""display: flex; justify-content: center; align-items: center;"">
        <div style=""text-align: center; margin-right: 20px;"">
          <p style=""font-size: 24px; font-weight: bold;"">Event 1</p>
          <img src=""images/causal/flight_scheme/flight_scheme_9.png"" style=""width: 300px; height: auto;"">
        </div>
        <div style=""text-align: center; margin-left: 20px;"">
          <p style=""font-size: 24px; font-weight: bold;"">Event 2</p>
          <img src=""images/causal/flight_scheme/flight_scheme_2.png"" style=""width: 300px; height: auto;"">
        </div>
      </div>
      <p style=""text-align: center; margin-top: 20px;"">Does Event 1 lead to Event 2?</p>","1","9","2","true","dog_causal"
"","","","","","html-button-response","92","1109786","0.0-92.0","","6350","
      <div style=""display: flex; justify-content: center; align-items: center;"">
        <div style=""text-align: center; margin-right: 20px;"">
          <p style=""font-size: 24px; font-weight: bold;"">Event 1</p>
          <img src=""images/causal/saving_a_cat_causal/saving_a_cat_causal_8.png"" style=""width: 300px; height: auto;"">
        </div>
        <div style=""text-align: center; margin-left: 20px;"">
          <p style=""font-size: 24px; font-weight: bold;"">Event 2</p>
          <img src=""images/causal/saving_a_cat_causal/saving_a_cat_causal_3.png"" style=""width: 300px; height: auto;"">
        </div>
      </div>
      <p style=""text-align: center; margin-top: 20px;"">Does Event 1 lead to Event 2?</p>","1","8","3","true","package_causal"
"","","","","","html-button-response","93","1115536","0.0-93.0","","5749","
      <div style=""display: flex; justify-content: center; align-items: center;"">
        <div style=""text-align: center; margin-right: 20px;"">
          <p style=""font-size: 24px; font-weight: bold;"">Event 1</p>
          <img src=""images/causal/flight_scheme/flight_scheme_5.png"" style=""width: 300px; height: auto;"">
        </div>
        <div style=""text-align: center; margin-left: 20px;"">
          <p style=""font-size: 24px; font-weight: bold;"">Event 2</p>
          <img src=""images/causal/flight_scheme/flight_scheme_9.png"" style=""width: 300px; height: auto;"">
        </div>
      </div>
      <p style=""text-align: center; margin-top: 20px;"">Does Event 1 lead to Event 2?</p>","0","5","9","true","dog_causal"
"","","","","","html-button-response","94","1123036","0.0-94.0","","7498","
      <div style=""display: flex; justify-content: center; align-items: center;"">
        <div style=""text-align: center; margin-right: 20px;"">
          <p style=""font-size: 24px; font-weight: bold;"">Event 1</p>
          <img src=""images/causal/saving_a_cat_causal/saving_a_cat_causal_6.png"" style=""width: 300px; height: auto;"">
        </div>
        <div style=""text-align: center; margin-left: 20px;"">
          <p style=""font-size: 24px; font-weight: bold;"">Event 2</p>
          <img src=""images/causal/saving_a_cat_causal/saving_a_cat_causal_9.png"" style=""width: 300px; height: auto;"">
        </div>
      </div>
      <p style=""text-align: center; margin-top: 20px;"">Does Event 1 lead to Event 2?</p>","0","6","9","true","package_causal"
"","","","","","html-button-response","95","1130637","0.0-95.0","","7599","
      <div style=""display: flex; justify-content: center; align-items: center;"">
        <div style=""text-align: center; margin-right: 20px;"">
          <p style=""font-size: 24px; font-weight: bold;"">Event 1</p>
          <img src=""images/causal/saving_a_cat_causal/saving_a_cat_causal_1.png"" style=""width: 300px; height: auto;"">
        </div>
        <div style=""text-align: center; margin-left: 20px;"">
          <p style=""font-size: 24px; font-weight: bold;"">Event 2</p>
          <img src=""images/causal/saving_a_cat_causal/saving_a_cat_causal_7.png"" style=""width: 300px; height: auto;"">
        </div>
      </div>
      <p style=""text-align: center; margin-top: 20px;"">Does Event 1 lead to Event 2?</p>","0","1","7","true","package_causal"
"","","","","","html-button-response","96","1136371","0.0-96.0","","5732","
      <div style=""display: flex; justify-content: center; align-items: center;"">
        <div style=""text-align: center; margin-right: 20px;"">
          <p style=""font-size: 24px; font-weight: bold;"">Event 1</p>
          <img src=""images/causal/saving_a_cat_causal/saving_a_cat_causal_5.png"" style=""width: 300px; height: auto;"">
        </div>
        <div style=""text-align: center; margin-left: 20px;"">
          <p style=""font-size: 24px; font-weight: bold;"">Event 2</p>
          <img src=""images/causal/saving_a_cat_causal/saving_a_cat_causal_9.png"" style=""width: 300px; height: auto;"">
        </div>
      </div>
      <p style=""text-align: center; margin-top: 20px;"">Does Event 1 lead to Event 2?</p>","0","5","9","true","package_causal"
"","","","","","html-button-response","97","1149004","0.0-97.0","","12632","
      <div style=""display: flex; justify-content: center; align-items: center;"">
        <div style=""text-align: center; margin-right: 20px;"">
          <p style=""font-size: 24px; font-weight: bold;"">Event 1</p>
          <img src=""images/causal/saving_a_cat_causal/saving_a_cat_causal_2.png"" style=""width: 300px; height: auto;"">
        </div>
        <div style=""text-align: center; margin-left: 20px;"">
          <p style=""font-size: 24px; font-weight: bold;"">Event 2</p>
          <img src=""images/causal/saving_a_cat_causal/saving_a_cat_causal_1.png"" style=""width: 300px; height: auto;"">
        </div>
      </div>
      <p style=""text-align: center; margin-top: 20px;"">Does Event 1 lead to Event 2?</p>","1","2","1","true","package_causal"
"","","","","","html-button-response","98","1175171","0.0-98.0","","26165","
      <div style=""display: flex; justify-content: center; align-items: center;"">
        <div style=""text-align: center; margin-right: 20px;"">
          <p style=""font-size: 24px; font-weight: bold;"">Event 1</p>
          <img src=""images/causal/saving_a_cat_causal/saving_a_cat_causal_1.png"" style=""width: 300px; height: auto;"">
        </div>
        <div style=""text-align: center; margin-left: 20px;"">
          <p style=""font-size: 24px; font-weight: bold;"">Event 2</p>
          <img src=""images/causal/saving_a_cat_causal/saving_a_cat_causal_6.png"" style=""width: 300px; height: auto;"">
        </div>
      </div>
      <p style=""text-align: center; margin-top: 20px;"">Does Event 1 lead to Event 2?</p>","0","1","6","true","package_causal"
"","","","","","html-button-response","99","1180236","0.0-99.0","","5064","
      <div style=""display: flex; justify-content: center; align-items: center;"">
        <div style=""text-align: center; margin-right: 20px;"">
          <p style=""font-size: 24px; font-weight: bold;"">Event 1</p>
          <img src=""images/causal/flight_scheme/flight_scheme_7.png"" style=""width: 300px; height: auto;"">
        </div>
        <div style=""text-align: center; margin-left: 20px;"">
          <p style=""font-size: 24px; font-weight: bold;"">Event 2</p>
          <img src=""images/causal/flight_scheme/flight_scheme_3.png"" style=""width: 300px; height: auto;"">
        </div>
      </div>
      <p style=""text-align: center; margin-top: 20px;"">Does Event 1 lead to Event 2?</p>","1","7","3","true","dog_causal"
"","","","","","html-button-response","100","1185503","0.0-100.0","","5266","
      <div style=""display: flex; justify-content: center; align-items: center;"">
        <div style=""text-align: center; margin-right: 20px;"">
          <p style=""font-size: 24px; font-weight: bold;"">Event 1</p>
          <img src=""images/causal/saving_a_cat_causal/saving_a_cat_causal_6.png"" style=""width: 300px; height: auto;"">
        </div>
        <div style=""text-align: center; margin-left: 20px;"">
          <p style=""font-size: 24px; font-weight: bold;"">Event 2</p>
          <img src=""images/causal/saving_a_cat_causal/saving_a_cat_causal_2.png"" style=""width: 300px; height: auto;"">
        </div>
      </div>
      <p style=""text-align: center; margin-top: 20px;"">Does Event 1 lead to Event 2?</p>","1","6","2","true","package_causal"
"","","","","","html-button-response","101","1191854","0.0-101.0","","6349","
      <div style=""display: flex; justify-content: center; align-items: center;"">
        <div style=""text-align: center; margin-right: 20px;"">
          <p style=""font-size: 24px; font-weight: bold;"">Event 1</p>
          <img src=""images/causal/cat_care_semantic/cat_care_semantic_7.png"" style=""width: 300px; height: auto;"">
        </div>
        <div style=""text-align: center; margin-left: 20px;"">
          <p style=""font-size: 24px; font-weight: bold;"">Event 2</p>
          <img src=""images/causal/cat_care_semantic/cat_care_semantic_4.png"" style=""width: 300px; height: auto;"">
        </div>
      </div>
      <p style=""text-align: center; margin-top: 20px;"">Does Event 1 lead to Event 2?</p>","2","7","4","true","physical_activity_semantic"
"","","","","","html-button-response","102","1197687","0.0-102.0","","5831","
      <div style=""display: flex; justify-content: center; align-items: center;"">
        <div style=""text-align: center; margin-right: 20px;"">
          <p style=""font-size: 24px; font-weight: bold;"">Event 1</p>
          <img src=""images/causal/saving_a_cat_causal/saving_a_cat_causal_10.png"" style=""width: 300px; height: auto;"">
        </div>
        <div style=""text-align: center; margin-left: 20px;"">
          <p style=""font-size: 24px; font-weight: bold;"">Event 2</p>
          <img src=""images/causal/saving_a_cat_causal/saving_a_cat_causal_4.png"" style=""width: 300px; height: auto;"">
        </div>
      </div>
      <p style=""text-align: center; margin-top: 20px;"">Does Event 1 lead to Event 2?</p>","1","10","4","true","package_causal"
"","","","","","html-button-response","103","1203321","0.0-103.0","","5633","
      <div style=""display: flex; justify-content: center; align-items: center;"">
        <div style=""text-align: center; margin-right: 20px;"">
          <p style=""font-size: 24px; font-weight: bold;"">Event 1</p>
          <img src=""images/causal/saving_a_cat_causal/saving_a_cat_causal_4.png"" style=""width: 300px; height: auto;"">
        </div>
        <div style=""text-align: center; margin-left: 20px;"">
          <p style=""font-size: 24px; font-weight: bold;"">Event 2</p>
          <img src=""images/causal/saving_a_cat_causal/saving_a_cat_causal_9.png"" style=""width: 300px; height: auto;"">
        </div>
      </div>
      <p style=""text-align: center; margin-top: 20px;"">Does Event 1 lead to Event 2?</p>","0","4","9","true","package_causal"
"","","","","","html-button-response","104","1241620","0.0-104.0","","38298","
      <div style=""display: flex; justify-content: center; align-items: center;"">
        <div style=""text-align: center; margin-right: 20px;"">
          <p style=""font-size: 24px; font-weight: bold;"">Event 1</p>
          <img src=""images/causal/flight_scheme/flight_scheme_9.png"" style=""width: 300px; height: auto;"">
        </div>
        <div style=""text-align: center; margin-left: 20px;"">
          <p style=""font-size: 24px; font-weight: bold;"">Event 2</p>
          <img src=""images/causal/flight_scheme/flight_scheme_10.png"" style=""width: 300px; height: auto;"">
        </div>
      </div>
      <p style=""text-align: center; margin-top: 20px;"">Does Event 1 lead to Event 2?</p>","0","9","10","true","dog_causal"
"","","","","","html-button-response","105","1248037","0.0-105.0","","6415","
      <div style=""display: flex; justify-content: center; align-items: center;"">
        <div style=""text-align: center; margin-right: 20px;"">
          <p style=""font-size: 24px; font-weight: bold;"">Event 1</p>
          <img src=""images/causal/flight_scheme/flight_scheme_4.png"" style=""width: 300px; height: auto;"">
        </div>
        <div style=""text-align: center; margin-left: 20px;"">
          <p style=""font-size: 24px; font-weight: bold;"">Event 2</p>
          <img src=""images/causal/flight_scheme/flight_scheme_10.png"" style=""width: 300px; height: auto;"">
        </div>
      </div>
      <p style=""text-align: center; margin-top: 20px;"">Does Event 1 lead to Event 2?</p>","0","4","10","true","dog_causal"
"","","","","","html-button-response","106","1253788","0.0-106.0","","5749","
      <div style=""display: flex; justify-content: center; align-items: center;"">
        <div style=""text-align: center; margin-right: 20px;"">
          <p style=""font-size: 24px; font-weight: bold;"">Event 1</p>
          <img src=""images/causal/saving_a_cat_causal/saving_a_cat_causal_2.png"" style=""width: 300px; height: auto;"">
        </div>
        <div style=""text-align: center; margin-left: 20px;"">
          <p style=""font-size: 24px; font-weight: bold;"">Event 2</p>
          <img src=""images/causal/saving_a_cat_causal/saving_a_cat_causal_8.png"" style=""width: 300px; height: auto;"">
        </div>
      </div>
      <p style=""text-align: center; margin-top: 20px;"">Does Event 1 lead to Event 2?</p>","0","2","8","true","package_causal"
"","","","","","html-button-response","107","1259403","0.0-107.0","","5614","
      <div style=""display: flex; justify-content: center; align-items: center;"">
        <div style=""text-align: center; margin-right: 20px;"">
          <p style=""font-size: 24px; font-weight: bold;"">Event 1</p>
          <img src=""images/causal/flight_scheme/flight_scheme_10.png"" style=""width: 300px; height: auto;"">
        </div>
        <div style=""text-align: center; margin-left: 20px;"">
          <p style=""font-size: 24px; font-weight: bold;"">Event 2</p>
          <img src=""images/causal/flight_scheme/flight_scheme_8.png"" style=""width: 300px; height: auto;"">
        </div>
      </div>
      <p style=""text-align: center; margin-top: 20px;"">Does Event 1 lead to Event 2?</p>","1","10","8","true","dog_causal"
"","","","","","html-button-response","108","1265904","0.0-108.0","","6500","
      <div style=""display: flex; justify-content: center; align-items: center;"">
        <div style=""text-align: center; margin-right: 20px;"">
          <p style=""font-size: 24px; font-weight: bold;"">Event 1</p>
          <img src=""images/causal/saving_a_cat_causal/saving_a_cat_causal_7.png"" style=""width: 300px; height: auto;"">
        </div>
        <div style=""text-align: center; margin-left: 20px;"">
          <p style=""font-size: 24px; font-weight: bold;"">Event 2</p>
          <img src=""images/causal/saving_a_cat_causal/saving_a_cat_causal_6.png"" style=""width: 300px; height: auto;"">
        </div>
      </div>
      <p style=""text-align: center; margin-top: 20px;"">Does Event 1 lead to Event 2?</p>","1","7","6","true","package_causal"
"","","","","","html-button-response","109","1271804","0.0-109.0","","5898","
      <div style=""display: flex; justify-content: center; align-items: center;"">
        <div style=""text-align: center; margin-right: 20px;"">
          <p style=""font-size: 24px; font-weight: bold;"">Event 1</p>
          <img src=""images/causal/cat_care_semantic/cat_care_semantic_7.png"" style=""width: 300px; height: auto;"">
        </div>
        <div style=""text-align: center; margin-left: 20px;"">
          <p style=""font-size: 24px; font-weight: bold;"">Event 2</p>
          <img src=""images/causal/cat_care_semantic/cat_care_semantic_6.png"" style=""width: 300px; height: auto;"">
        </div>
      </div>
      <p style=""text-align: center; margin-top: 20px;"">Does Event 1 lead to Event 2?</p>","2","7","6","true","physical_activity_semantic"
"","","","","","html-button-response","110","1277637","0.0-110.0","","5831","
      <div style=""display: flex; justify-content: center; align-items: center;"">
        <div style=""text-align: center; margin-right: 20px;"">
          <p style=""font-size: 24px; font-weight: bold;"">Event 1</p>
          <img src=""images/causal/cat_care_semantic/cat_care_semantic_2.png"" style=""width: 300px; height: auto;"">
        </div>
        <div style=""text-align: center; margin-left: 20px;"">
          <p style=""font-size: 24px; font-weight: bold;"">Event 2</p>
          <img src=""images/causal/cat_care_semantic/cat_care_semantic_3.png"" style=""width: 300px; height: auto;"">
        </div>
      </div>
      <p style=""text-align: center; margin-top: 20px;"">Does Event 1 lead to Event 2?</p>","2","2","3","true","physical_activity_semantic"
"","","","","","html-button-response","111","1283455","0.0-111.0","","5816","
      <div style=""display: flex; justify-content: center; align-items: center;"">
        <div style=""text-align: center; margin-right: 20px;"">
          <p style=""font-size: 24px; font-weight: bold;"">Event 1</p>
          <img src=""images/causal/flight_scheme/flight_scheme_5.png"" style=""width: 300px; height: auto;"">
        </div>
        <div style=""text-align: center; margin-left: 20px;"">
          <p style=""font-size: 24px; font-weight: bold;"">Event 2</p>
          <img src=""images/causal/flight_scheme/flight_scheme_2.png"" style=""width: 300px; height: auto;"">
        </div>
      </div>
      <p style=""text-align: center; margin-top: 20px;"">Does Event 1 lead to Event 2?</p>","1","5","2","true","dog_causal"
"","","","","","html-button-response","112","1288520","0.0-112.0","","5064","
      <div style=""display: flex; justify-content: center; align-items: center;"">
        <div style=""text-align: center; margin-right: 20px;"">
          <p style=""font-size: 24px; font-weight: bold;"">Event 1</p>
          <img src=""images/causal/saving_a_cat_causal/saving_a_cat_causal_5.png"" style=""width: 300px; height: auto;"">
        </div>
        <div style=""text-align: center; margin-left: 20px;"">
          <p style=""font-size: 24px; font-weight: bold;"">Event 2</p>
          <img src=""images/causal/saving_a_cat_causal/saving_a_cat_causal_1.png"" style=""width: 300px; height: auto;"">
        </div>
      </div>
      <p style=""text-align: center; margin-top: 20px;"">Does Event 1 lead to Event 2?</p>","1","5","1","true","package_causal"
"","","","","","html-button-response","113","1296088","0.0-113.0","","7567","
      <div style=""display: flex; justify-content: center; align-items: center;"">
        <div style=""text-align: center; margin-right: 20px;"">
          <p style=""font-size: 24px; font-weight: bold;"">Event 1</p>
          <img src=""images/causal/flight_scheme/flight_scheme_6.png"" style=""width: 300px; height: auto;"">
        </div>
        <div style=""text-align: center; margin-left: 20px;"">
          <p style=""font-size: 24px; font-weight: bold;"">Event 2</p>
          <img src=""images/causal/flight_scheme/flight_scheme_7.png"" style=""width: 300px; height: auto;"">
        </div>
      </div>
      <p style=""text-align: center; margin-top: 20px;"">Does Event 1 lead to Event 2?</p>","0","6","7","true","dog_causal"
"","","","","","html-button-response","114","1301820","0.0-114.0","","5731","
      <div style=""display: flex; justify-content: center; align-items: center;"">
        <div style=""text-align: center; margin-right: 20px;"">
          <p style=""font-size: 24px; font-weight: bold;"">Event 1</p>
          <img src=""images/causal/saving_a_cat_causal/saving_a_cat_causal_9.png"" style=""width: 300px; height: auto;"">
        </div>
        <div style=""text-align: center; margin-left: 20px;"">
          <p style=""font-size: 24px; font-weight: bold;"">Event 2</p>
          <img src=""images/causal/saving_a_cat_causal/saving_a_cat_causal_7.png"" style=""width: 300px; height: auto;"">
        </div>
      </div>
      <p style=""text-align: center; margin-top: 20px;"">Does Event 1 lead to Event 2?</p>","1","9","7","true","package_causal"
"","","","","","html-button-response","115","1322038","0.0-115.0","","20216","
      <div style=""display: flex; justify-content: center; align-items: center;"">
        <div style=""text-align: center; margin-right: 20px;"">
          <p style=""font-size: 24px; font-weight: bold;"">Event 1</p>
          <img src=""images/causal/saving_a_cat_causal/saving_a_cat_causal_3.png"" style=""width: 300px; height: auto;"">
        </div>
        <div style=""text-align: center; margin-left: 20px;"">
          <p style=""font-size: 24px; font-weight: bold;"">Event 2</p>
          <img src=""images/causal/saving_a_cat_causal/saving_a_cat_causal_1.png"" style=""width: 300px; height: auto;"">
        </div>
      </div>
      <p style=""text-align: center; margin-top: 20px;"">Does Event 1 lead to Event 2?</p>","1","3","1","true","package_causal"
"","","","","","html-button-response","116","1328021","0.0-116.0","","5981","
      <div style=""display: flex; justify-content: center; align-items: center;"">
        <div style=""text-align: center; margin-right: 20px;"">
          <p style=""font-size: 24px; font-weight: bold;"">Event 1</p>
          <img src=""images/causal/cat_care_semantic/cat_care_semantic_6.png"" style=""width: 300px; height: auto;"">
        </div>
        <div style=""text-align: center; margin-left: 20px;"">
          <p style=""font-size: 24px; font-weight: bold;"">Event 2</p>
          <img src=""images/causal/cat_care_semantic/cat_care_semantic_3.png"" style=""width: 300px; height: auto;"">
        </div>
      </div>
      <p style=""text-align: center; margin-top: 20px;"">Does Event 1 lead to Event 2?</p>","2","6","3","true","physical_activity_semantic"
"","","","","","html-button-response","117","1368638","0.0-117.0","","40616","
      <div style=""display: flex; justify-content: center; align-items: center;"">
        <div style=""text-align: center; margin-right: 20px;"">
          <p style=""font-size: 24px; font-weight: bold;"">Event 1</p>
          <img src=""images/causal/flight_scheme/flight_scheme_3.png"" style=""width: 300px; height: auto;"">
        </div>
        <div style=""text-align: center; margin-left: 20px;"">
          <p style=""font-size: 24px; font-weight: bold;"">Event 2</p>
          <img src=""images/causal/flight_scheme/flight_scheme_9.png"" style=""width: 300px; height: auto;"">
        </div>
      </div>
      <p style=""text-align: center; margin-top: 20px;"">Does Event 1 lead to Event 2?</p>","0","3","9","true","dog_causal"
"","","","","","html-button-response","118","1374855","0.0-118.0","","6215","
      <div style=""display: flex; justify-content: center; align-items: center;"">
        <div style=""text-align: center; margin-right: 20px;"">
          <p style=""font-size: 24px; font-weight: bold;"">Event 1</p>
          <img src=""images/causal/cat_care_semantic/cat_care_semantic_9.png"" style=""width: 300px; height: auto;"">
        </div>
        <div style=""text-align: center; margin-left: 20px;"">
          <p style=""font-size: 24px; font-weight: bold;"">Event 2</p>
          <img src=""images/causal/cat_care_semantic/cat_care_semantic_10.png"" style=""width: 300px; height: auto;"">
        </div>
      </div>
      <p style=""text-align: center; margin-top: 20px;"">Does Event 1 lead to Event 2?</p>","2","9","10","true","physical_activity_semantic"
"","","","","","html-button-response","119","1380605","0.0-119.0","","5748","
      <div style=""display: flex; justify-content: center; align-items: center;"">
        <div style=""text-align: center; margin-right: 20px;"">
          <p style=""font-size: 24px; font-weight: bold;"">Event 1</p>
          <img src=""images/causal/cat_care_semantic/cat_care_semantic_2.png"" style=""width: 300px; height: auto;"">
        </div>
        <div style=""text-align: center; margin-left: 20px;"">
          <p style=""font-size: 24px; font-weight: bold;"">Event 2</p>
          <img src=""images/causal/cat_care_semantic/cat_care_semantic_1.png"" style=""width: 300px; height: auto;"">
        </div>
      </div>
      <p style=""text-align: center; margin-top: 20px;"">Does Event 1 lead to Event 2?</p>","2","2","1","true","physical_activity_semantic"
"","","","","","html-button-response","120","1386889","0.0-120.0","","6282","
      <div style=""display: flex; justify-content: center; align-items: center;"">
        <div style=""text-align: center; margin-right: 20px;"">
          <p style=""font-size: 24px; font-weight: bold;"">Event 1</p>
          <img src=""images/causal/cat_care_semantic/cat_care_semantic_3.png"" style=""width: 300px; height: auto;"">
        </div>
        <div style=""text-align: center; margin-left: 20px;"">
          <p style=""font-size: 24px; font-weight: bold;"">Event 2</p>
          <img src=""images/causal/cat_care_semantic/cat_care_semantic_1.png"" style=""width: 300px; height: auto;"">
        </div>
      </div>
      <p style=""text-align: center; margin-top: 20px;"">Does Event 1 lead to Event 2?</p>","1","3","1","true","physical_activity_semantic"
"","","","","","html-button-response","121","1392805","0.0-121.0","","5915","
      <div style=""display: flex; justify-content: center; align-items: center;"">
        <div style=""text-align: center; margin-right: 20px;"">
          <p style=""font-size: 24px; font-weight: bold;"">Event 1</p>
          <img src=""images/causal/flight_scheme/flight_scheme_1.png"" style=""width: 300px; height: auto;"">
        </div>
        <div style=""text-align: center; margin-left: 20px;"">
          <p style=""font-size: 24px; font-weight: bold;"">Event 2</p>
