"success","timeout","failed_images","failed_audio","failed_video","trial_type","trial_index","time_elapsed","internal_node_id","view_history","rt","stimulus","response","firstImageNumber","secondImageNumber","response_made"
"true","false","[]","[]","[]","preload","0","437","0.0-0.0","","","","","","",""
"","","","","","instructions","1","20723","0.0-1.0","[{""page_index"":0,""viewing_time"":20285}]","20285","","","","",""
"","","","","","html-button-response","2","38474","0.0-2.0","","17749","
          <div style=""display: flex; justify-content: center; align-items: center;"">
            <!-- Event 1 on the left -->
            <div style=""text-align: center; margin-right: 20px;"">
              <p style=""font-size: 24px; font-weight: bold;"">Event 1</p>
              <img src=""images/causal/physical_activity_semantic/physical_activity_semantic_4.png"" style=""width: 300px; height: auto;"">
            </div>
            <!-- Event 2 on the right -->
            <div style=""text-align: center; margin-left: 20px;"">
              <p style=""font-size: 24px; font-weight: bold;"">Event 2</p>
              <img src=""images/causal/physical_activity_semantic/physical_activity_semantic_6.png"" style=""width: 300px; height: auto;"">
            </div>
          </div>
          <p style=""text-align: center; margin-top: 20px;"">Does Event 1 lead to Event 2?</p>","2","4","6","true"
"","","","","","html-button-response","3","50703","0.0-3.0","","12227","
          <div style=""display: flex; justify-content: center; align-items: center;"">
            <!-- Event 1 on the left -->
            <div style=""text-align: center; margin-right: 20px;"">
              <p style=""font-size: 24px; font-weight: bold;"">Event 1</p>
              <img src=""images/causal/physical_activity_semantic/physical_activity_semantic_5.png"" style=""width: 300px; height: auto;"">
            </div>
            <!-- Event 2 on the right -->
            <div style=""text-align: center; margin-left: 20px;"">
              <p style=""font-size: 24px; font-weight: bold;"">Event 2</p>
              <img src=""images/causal/physical_activity_semantic/physical_activity_semantic_7.png"" style=""width: 300px; height: auto;"">
            </div>
          </div>
          <p style=""text-align: center; margin-top: 20px;"">Does Event 1 lead to Event 2?</p>","2","5","7","true"
"","","","","","html-button-response","4","59697","0.0-4.0","","8993","
          <div style=""display: flex; justify-content: center; align-items: center;"">
            <!-- Event 1 on the left -->
            <div style=""text-align: center; margin-right: 20px;"">
              <p style=""font-size: 24px; font-weight: bold;"">Event 1</p>
              <img src=""images/causal/physical_activity_semantic/physical_activity_semantic_2.png"" style=""width: 300px; height: auto;"">
            </div>
            <!-- Event 2 on the right -->
            <div style=""text-align: center; margin-left: 20px;"">
              <p style=""font-size: 24px; font-weight: bold;"">Event 2</p>
              <img src=""images/causal/physical_activity_semantic/physical_activity_semantic_1.png"" style=""width: 300px; height: auto;"">
            </div>
          </div>
          <p style=""text-align: center; margin-top: 20px;"">Does Event 1 lead to Event 2?</p>","2","2","1","true"
"","","","","","html-button-response","5","66597","0.0-5.0","","6899","
          <div style=""display: flex; justify-content: center; align-items: center;"">
            <!-- Event 1 on the left -->
            <div style=""text-align: center; margin-right: 20px;"">
              <p style=""font-size: 24px; font-weight: bold;"">Event 1</p>
              <img src=""images/causal/physical_activity_semantic/physical_activity_semantic_7.png"" style=""width: 300px; height: auto;"">
            </div>
            <!-- Event 2 on the right -->
            <div style=""text-align: center; margin-left: 20px;"">
              <p style=""font-size: 24px; font-weight: bold;"">Event 2</p>
              <img src=""images/causal/physical_activity_semantic/physical_activity_semantic_10.png"" style=""width: 300px; height: auto;"">
            </div>
          </div>
          <p style=""text-align: center; margin-top: 20px;"">Does Event 1 lead to Event 2?</p>","2","7","10","true"
"","","","","","html-button-response","6","76667","0.0-6.0","","10069","
          <div style=""display: flex; justify-content: center; align-items: center;"">
            <!-- Event 1 on the left -->
            <div style=""text-align: center; margin-right: 20px;"">
              <p style=""font-size: 24px; font-weight: bold;"">Event 1</p>
              <img src=""images/causal/physical_activity_semantic/physical_activity_semantic_6.png"" style=""width: 300px; height: auto;"">
            </div>
            <!-- Event 2 on the right -->
            <div style=""text-align: center; margin-left: 20px;"">
              <p style=""font-size: 24px; font-weight: bold;"">Event 2</p>
              <img src=""images/causal/physical_activity_semantic/physical_activity_semantic_2.png"" style=""width: 300px; height: auto;"">
            </div>
          </div>
          <p style=""text-align: center; margin-top: 20px;"">Does Event 1 lead to Event 2?</p>","2","6","2","true"
"","","","","","html-button-response","7","82327","0.0-7.0","","5659","
          <div style=""display: flex; justify-content: center; align-items: center;"">
            <!-- Event 1 on the left -->
            <div style=""text-align: center; margin-right: 20px;"">
              <p style=""font-size: 24px; font-weight: bold;"">Event 1</p>
              <img src=""images/causal/physical_activity_semantic/physical_activity_semantic_8.png"" style=""width: 300px; height: auto;"">
            </div>
            <!-- Event 2 on the right -->
            <div style=""text-align: center; margin-left: 20px;"">
              <p style=""font-size: 24px; font-weight: bold;"">Event 2</p>
              <img src=""images/causal/physical_activity_semantic/physical_activity_semantic_1.png"" style=""width: 300px; height: auto;"">
            </div>
          </div>
          <p style=""text-align: center; margin-top: 20px;"">Does Event 1 lead to Event 2?</p>","2","8","1","true"
"","","","","","html-button-response","8","92913","0.0-8.0","","10585","
          <div style=""display: flex; justify-content: center; align-items: center;"">
            <!-- Event 1 on the left -->
            <div style=""text-align: center; margin-right: 20px;"">
              <p style=""font-size: 24px; font-weight: bold;"">Event 1</p>
              <img src=""images/causal/physical_activity_semantic/physical_activity_semantic_7.png"" style=""width: 300px; height: auto;"">
            </div>
            <!-- Event 2 on the right -->
            <div style=""text-align: center; margin-left: 20px;"">
              <p style=""font-size: 24px; font-weight: bold;"">Event 2</p>
              <img src=""images/causal/physical_activity_semantic/physical_activity_semantic_3.png"" style=""width: 300px; height: auto;"">
            </div>
          </div>
          <p style=""text-align: center; margin-top: 20px;"">Does Event 1 lead to Event 2?</p>","1","7","3","true"
"","","","","","html-button-response","9","99618","0.0-9.0","","6705","
          <div style=""display: flex; justify-content: center; align-items: center;"">
            <!-- Event 1 on the left -->
            <div style=""text-align: center; margin-right: 20px;"">
              <p style=""font-size: 24px; font-weight: bold;"">Event 1</p>
              <img src=""images/causal/physical_activity_semantic/physical_activity_semantic_3.png"" style=""width: 300px; height: auto;"">
            </div>
            <!-- Event 2 on the right -->
            <div style=""text-align: center; margin-left: 20px;"">
              <p style=""font-size: 24px; font-weight: bold;"">Event 2</p>
              <img src=""images/causal/physical_activity_semantic/physical_activity_semantic_8.png"" style=""width: 300px; height: auto;"">
            </div>
          </div>
          <p style=""text-align: center; margin-top: 20px;"">Does Event 1 lead to Event 2?</p>","2","3","8","true"
"","","","","","html-button-response","10","105462","0.0-10.0","","5843","
          <div style=""display: flex; justify-content: center; align-items: center;"">
            <!-- Event 1 on the left -->
            <div style=""text-align: center; margin-right: 20px;"">
              <p style=""font-size: 24px; font-weight: bold;"">Event 1</p>
              <img src=""images/causal/physical_activity_semantic/physical_activity_semantic_6.png"" style=""width: 300px; height: auto;"">
            </div>
            <!-- Event 2 on the right -->
            <div style=""text-align: center; margin-left: 20px;"">
              <p style=""font-size: 24px; font-weight: bold;"">Event 2</p>
              <img src=""images/causal/physical_activity_semantic/physical_activity_semantic_8.png"" style=""width: 300px; height: auto;"">
            </div>
          </div>
          <p style=""text-align: center; margin-top: 20px;"">Does Event 1 lead to Event 2?</p>","2","6","8","true"
"","","","","","html-button-response","11","113531","0.0-11.0","","8068","
          <div style=""display: flex; justify-content: center; align-items: center;"">
            <!-- Event 1 on the left -->
            <div style=""text-align: center; margin-right: 20px;"">
              <p style=""font-size: 24px; font-weight: bold;"">Event 1</p>
              <img src=""images/causal/physical_activity_semantic/physical_activity_semantic_5.png"" style=""width: 300px; height: auto;"">
            </div>
            <!-- Event 2 on the right -->
            <div style=""text-align: center; margin-left: 20px;"">
              <p style=""font-size: 24px; font-weight: bold;"">Event 2</p>
              <img src=""images/causal/physical_activity_semantic/physical_activity_semantic_3.png"" style=""width: 300px; height: auto;"">
            </div>
          </div>
          <p style=""text-align: center; margin-top: 20px;"">Does Event 1 lead to Event 2?</p>","1","5","3","true"
"","","","","","html-button-response","12","119676","0.0-12.0","","6144","
          <div style=""display: flex; justify-content: center; align-items: center;"">
            <!-- Event 1 on the left -->
            <div style=""text-align: center; margin-right: 20px;"">
              <p style=""font-size: 24px; font-weight: bold;"">Event 1</p>
              <img src=""images/causal/physical_activity_semantic/physical_activity_semantic_1.png"" style=""width: 300px; height: auto;"">
            </div>
            <!-- Event 2 on the right -->
            <div style=""text-align: center; margin-left: 20px;"">
              <p style=""font-size: 24px; font-weight: bold;"">Event 2</p>
              <img src=""images/causal/physical_activity_semantic/physical_activity_semantic_10.png"" style=""width: 300px; height: auto;"">
            </div>
          </div>
          <p style=""text-align: center; margin-top: 20px;"">Does Event 1 lead to Event 2?</p>","2","1","10","true"
"","","","","","html-button-response","13","128484","0.0-13.0","","8807","
          <div style=""display: flex; justify-content: center; align-items: center;"">
            <!-- Event 1 on the left -->
            <div style=""text-align: center; margin-right: 20px;"">
              <p style=""font-size: 24px; font-weight: bold;"">Event 1</p>
              <img src=""images/causal/physical_activity_semantic/physical_activity_semantic_2.png"" style=""width: 300px; height: auto;"">
            </div>
            <!-- Event 2 on the right -->
            <div style=""text-align: center; margin-left: 20px;"">
              <p style=""font-size: 24px; font-weight: bold;"">Event 2</p>
              <img src=""images/causal/physical_activity_semantic/physical_activity_semantic_4.png"" style=""width: 300px; height: auto;"">
            </div>
          </div>
          <p style=""text-align: center; margin-top: 20px;"">Does Event 1 lead to Event 2?</p>","2","2","4","true"
"","","","","","html-button-response","14","137268","0.0-14.0","","8784","
          <div style=""display: flex; justify-content: center; align-items: center;"">
            <!-- Event 1 on the left -->
            <div style=""text-align: center; margin-right: 20px;"">
              <p style=""font-size: 24px; font-weight: bold;"">Event 1</p>
              <img src=""images/causal/physical_activity_semantic/physical_activity_semantic_3.png"" style=""width: 300px; height: auto;"">
            </div>
            <!-- Event 2 on the right -->
            <div style=""text-align: center; margin-left: 20px;"">
              <p style=""font-size: 24px; font-weight: bold;"">Event 2</p>
              <img src=""images/causal/physical_activity_semantic/physical_activity_semantic_9.png"" style=""width: 300px; height: auto;"">
            </div>
          </div>
          <p style=""text-align: center; margin-top: 20px;"">Does Event 1 lead to Event 2?</p>","0","3","9","true"
"","","","","","html-button-response","15","142981","0.0-15.0","","5711","
          <div style=""display: flex; justify-content: center; align-items: center;"">
            <!-- Event 1 on the left -->
            <div style=""text-align: center; margin-right: 20px;"">
              <p style=""font-size: 24px; font-weight: bold;"">Event 1</p>
              <img src=""images/causal/physical_activity_semantic/physical_activity_semantic_2.png"" style=""width: 300px; height: auto;"">
            </div>
            <!-- Event 2 on the right -->
            <div style=""text-align: center; margin-left: 20px;"">
              <p style=""font-size: 24px; font-weight: bold;"">Event 2</p>
              <img src=""images/causal/physical_activity_semantic/physical_activity_semantic_10.png"" style=""width: 300px; height: auto;"">
            </div>
          </div>
          <p style=""text-align: center; margin-top: 20px;"">Does Event 1 lead to Event 2?</p>","2","2","10","true"
"","","","","","html-button-response","16","149443","0.0-16.0","","6461","
          <div style=""display: flex; justify-content: center; align-items: center;"">
            <!-- Event 1 on the left -->
            <div style=""text-align: center; margin-right: 20px;"">
              <p style=""font-size: 24px; font-weight: bold;"">Event 1</p>
              <img src=""images/causal/physical_activity_semantic/physical_activity_semantic_7.png"" style=""width: 300px; height: auto;"">
            </div>
            <!-- Event 2 on the right -->
            <div style=""text-align: center; margin-left: 20px;"">
              <p style=""font-size: 24px; font-weight: bold;"">Event 2</p>
              <img src=""images/causal/physical_activity_semantic/physical_activity_semantic_1.png"" style=""width: 300px; height: auto;"">
            </div>
          </div>
          <p style=""text-align: center; margin-top: 20px;"">Does Event 1 lead to Event 2?</p>","2","7","1","true"
"","","","","","html-button-response","17","155425","0.0-17.0","","5981","
          <div style=""display: flex; justify-content: center; align-items: center;"">
            <!-- Event 1 on the left -->
            <div style=""text-align: center; margin-right: 20px;"">
              <p style=""font-size: 24px; font-weight: bold;"">Event 1</p>
              <img src=""images/causal/physical_activity_semantic/physical_activity_semantic_8.png"" style=""width: 300px; height: auto;"">
            </div>
            <!-- Event 2 on the right -->
            <div style=""text-align: center; margin-left: 20px;"">
              <p style=""font-size: 24px; font-weight: bold;"">Event 2</p>
              <img src=""images/causal/physical_activity_semantic/physical_activity_semantic_5.png"" style=""width: 300px; height: auto;"">
            </div>
          </div>
          <p style=""text-align: center; margin-top: 20px;"">Does Event 1 lead to Event 2?</p>","2","8","5","true"
"","","","","","html-button-response","18","161144","0.0-18.0","","5718","
          <div style=""display: flex; justify-content: center; align-items: center;"">
            <!-- Event 1 on the left -->
            <div style=""text-align: center; margin-right: 20px;"">
              <p style=""font-size: 24px; font-weight: bold;"">Event 1</p>
              <img src=""images/causal/physical_activity_semantic/physical_activity_semantic_7.png"" style=""width: 300px; height: auto;"">
            </div>
            <!-- Event 2 on the right -->
            <div style=""text-align: center; margin-left: 20px;"">
              <p style=""font-size: 24px; font-weight: bold;"">Event 2</p>
              <img src=""images/causal/physical_activity_semantic/physical_activity_semantic_4.png"" style=""width: 300px; height: auto;"">
            </div>
          </div>
          <p style=""text-align: center; margin-top: 20px;"">Does Event 1 lead to Event 2?</p>","2","7","4","true"
"","","","","","html-button-response","19","167175","0.0-19.0","","6030","
          <div style=""display: flex; justify-content: center; align-items: center;"">
            <!-- Event 1 on the left -->
            <div style=""text-align: center; margin-right: 20px;"">
              <p style=""font-size: 24px; font-weight: bold;"">Event 1</p>
              <img src=""images/causal/physical_activity_semantic/physical_activity_semantic_9.png"" style=""width: 300px; height: auto;"">
            </div>
            <!-- Event 2 on the right -->
            <div style=""text-align: center; margin-left: 20px;"">
              <p style=""font-size: 24px; font-weight: bold;"">Event 2</p>
              <img src=""images/causal/physical_activity_semantic/physical_activity_semantic_7.png"" style=""width: 300px; height: auto;"">
            </div>
          </div>
          <p style=""text-align: center; margin-top: 20px;"">Does Event 1 lead to Event 2?</p>","2","9","7","true"
"","","","","","html-button-response","20","179219","0.0-20.0","","12043","
          <div style=""display: flex; justify-content: center; align-items: center;"">
            <!-- Event 1 on the left -->
            <div style=""text-align: center; margin-right: 20px;"">
              <p style=""font-size: 24px; font-weight: bold;"">Event 1</p>
              <img src=""images/causal/physical_activity_semantic/physical_activity_semantic_10.png"" style=""width: 300px; height: auto;"">
            </div>
            <!-- Event 2 on the right -->
            <div style=""text-align: center; margin-left: 20px;"">
              <p style=""font-size: 24px; font-weight: bold;"">Event 2</p>
              <img src=""images/causal/physical_activity_semantic/physical_activity_semantic_9.png"" style=""width: 300px; height: auto;"">
            </div>
          </div>
          <p style=""text-align: center; margin-top: 20px;"">Does Event 1 lead to Event 2?</p>","2","10","9","true"
"","","","","","html-button-response","21","185433","0.0-21.0","","6213","
          <div style=""display: flex; justify-content: center; align-items: center;"">
            <!-- Event 1 on the left -->
            <div style=""text-align: center; margin-right: 20px;"">
              <p style=""font-size: 24px; font-weight: bold;"">Event 1</p>
              <img src=""images/causal/physical_activity_semantic/physical_activity_semantic_7.png"" style=""width: 300px; height: auto;"">
            </div>
            <!-- Event 2 on the right -->
            <div style=""text-align: center; margin-left: 20px;"">
              <p style=""font-size: 24px; font-weight: bold;"">Event 2</p>
              <img src=""images/causal/physical_activity_semantic/physical_activity_semantic_6.png"" style=""width: 300px; height: auto;"">
            </div>
          </div>
          <p style=""text-align: center; margin-top: 20px;"">Does Event 1 lead to Event 2?</p>","2","7","6","true"
"","","","","","html-button-response","22","195818","0.0-22.0","","10384","
          <div style=""display: flex; justify-content: center; align-items: center;"">
            <!-- Event 1 on the left -->
            <div style=""text-align: center; margin-right: 20px;"">
              <p style=""font-size: 24px; font-weight: bold;"">Event 1</p>
              <img src=""images/causal/physical_activity_semantic/physical_activity_semantic_8.png"" style=""width: 300px; height: auto;"">
            </div>
            <!-- Event 2 on the right -->
            <div style=""text-align: center; margin-left: 20px;"">
              <p style=""font-size: 24px; font-weight: bold;"">Event 2</p>
              <img src=""images/causal/physical_activity_semantic/physical_activity_semantic_7.png"" style=""width: 300px; height: auto;"">
            </div>
          </div>
          <p style=""text-align: center; margin-top: 20px;"">Does Event 1 lead to Event 2?</p>","1","8","7","true"
"","","","","","html-button-response","23","202239","0.0-23.0","","6420","
          <div style=""display: flex; justify-content: center; align-items: center;"">
            <!-- Event 1 on the left -->
            <div style=""text-align: center; margin-right: 20px;"">
              <p style=""font-size: 24px; font-weight: bold;"">Event 1</p>
              <img src=""images/causal/physical_activity_semantic/physical_activity_semantic_1.png"" style=""width: 300px; height: auto;"">
            </div>
            <!-- Event 2 on the right -->
            <div style=""text-align: center; margin-left: 20px;"">
              <p style=""font-size: 24px; font-weight: bold;"">Event 2</p>
              <img src=""images/causal/physical_activity_semantic/physical_activity_semantic_9.png"" style=""width: 300px; height: auto;"">
            </div>
          </div>
          <p style=""text-align: center; margin-top: 20px;"">Does Event 1 lead to Event 2?</p>","0","1","9","true"
"","","","","","html-button-response","24","207829","0.0-24.0","","5589","
          <div style=""display: flex; justify-content: center; align-items: center;"">
            <!-- Event 1 on the left -->
            <div style=""text-align: center; margin-right: 20px;"">
              <p style=""font-size: 24px; font-weight: bold;"">Event 1</p>
              <img src=""images/causal/physical_activity_semantic/physical_activity_semantic_5.png"" style=""width: 300px; height: auto;"">
            </div>
            <!-- Event 2 on the right -->
            <div style=""text-align: center; margin-left: 20px;"">
              <p style=""font-size: 24px; font-weight: bold;"">Event 2</p>
              <img src=""images/causal/physical_activity_semantic/physical_activity_semantic_1.png"" style=""width: 300px; height: auto;"">
            </div>
          </div>
          <p style=""text-align: center; margin-top: 20px;"">Does Event 1 lead to Event 2?</p>","2","5","1","true"
"","","","","","html-button-response","25","217291","0.0-25.0","","9461","
          <div style=""display: flex; justify-content: center; align-items: center;"">
            <!-- Event 1 on the left -->
            <div style=""text-align: center; margin-right: 20px;"">
              <p style=""font-size: 24px; font-weight: bold;"">Event 1</p>
              <img src=""images/causal/physical_activity_semantic/physical_activity_semantic_2.png"" style=""width: 300px; height: auto;"">
            </div>
            <!-- Event 2 on the right -->
            <div style=""text-align: center; margin-left: 20px;"">
              <p style=""font-size: 24px; font-weight: bold;"">Event 2</p>
              <img src=""images/causal/physical_activity_semantic/physical_activity_semantic_5.png"" style=""width: 300px; height: auto;"">
            </div>
          </div>
          <p style=""text-align: center; margin-top: 20px;"">Does Event 1 lead to Event 2?</p>","2","2","5","true"
"","","","","","html-button-response","26","222890","0.0-26.0","","5598","
          <div style=""display: flex; justify-content: center; align-items: center;"">
            <!-- Event 1 on the left -->
            <div style=""text-align: center; margin-right: 20px;"">
              <p style=""font-size: 24px; font-weight: bold;"">Event 1</p>
              <img src=""images/causal/physical_activity_semantic/physical_activity_semantic_3.png"" style=""width: 300px; height: auto;"">
            </div>
            <!-- Event 2 on the right -->
            <div style=""text-align: center; margin-left: 20px;"">
              <p style=""font-size: 24px; font-weight: bold;"">Event 2</p>
              <img src=""images/causal/physical_activity_semantic/physical_activity_semantic_4.png"" style=""width: 300px; height: auto;"">
            </div>
          </div>
          <p style=""text-align: center; margin-top: 20px;"">Does Event 1 lead to Event 2?</p>","2","3","4","true"
"","","","","","html-button-response","27","236570","0.0-27.0","","13679","
          <div style=""display: flex; justify-content: center; align-items: center;"">
            <!-- Event 1 on the left -->
            <div style=""text-align: center; margin-right: 20px;"">
              <p style=""font-size: 24px; font-weight: bold;"">Event 1</p>
              <img src=""images/causal/physical_activity_semantic/physical_activity_semantic_3.png"" style=""width: 300px; height: auto;"">
            </div>
            <!-- Event 2 on the right -->
            <div style=""text-align: center; margin-left: 20px;"">
              <p style=""font-size: 24px; font-weight: bold;"">Event 2</p>
              <img src=""images/causal/physical_activity_semantic/physical_activity_semantic_1.png"" style=""width: 300px; height: auto;"">
            </div>
          </div>
          <p style=""text-align: center; margin-top: 20px;"">Does Event 1 lead to Event 2?</p>","2","3","1","true"
"","","","","","html-button-response","28","242114","0.0-28.0","","5543","
          <div style=""display: flex; justify-content: center; align-items: center;"">
            <!-- Event 1 on the left -->
            <div style=""text-align: center; margin-right: 20px;"">
              <p style=""font-size: 24px; font-weight: bold;"">Event 1</p>
              <img src=""images/causal/physical_activity_semantic/physical_activity_semantic_3.png"" style=""width: 300px; height: auto;"">
            </div>
            <!-- Event 2 on the right -->
            <div style=""text-align: center; margin-left: 20px;"">
              <p style=""font-size: 24px; font-weight: bold;"">Event 2</p>
              <img src=""images/causal/physical_activity_semantic/physical_activity_semantic_6.png"" style=""width: 300px; height: auto;"">
            </div>
          </div>
          <p style=""text-align: center; margin-top: 20px;"">Does Event 1 lead to Event 2?</p>","2","3","6","true"
"","","","","","html-button-response","29","255954","0.0-29.0","","13839","
          <div style=""display: flex; justify-content: center; align-items: center;"">
            <!-- Event 1 on the left -->
            <div style=""text-align: center; margin-right: 20px;"">
              <p style=""font-size: 24px; font-weight: bold;"">Event 1</p>
              <img src=""images/causal/physical_activity_semantic/physical_activity_semantic_9.png"" style=""width: 300px; height: auto;"">
            </div>
            <!-- Event 2 on the right -->
            <div style=""text-align: center; margin-left: 20px;"">
              <p style=""font-size: 24px; font-weight: bold;"">Event 2</p>
              <img src=""images/causal/physical_activity_semantic/physical_activity_semantic_4.png"" style=""width: 300px; height: auto;"">
            </div>
          </div>
          <p style=""text-align: center; margin-top: 20px;"">Does Event 1 lead to Event 2?</p>","2","9","4","true"
"","","","","","html-button-response","30","262112","0.0-30.0","","6157","
          <div style=""display: flex; justify-content: center; align-items: center;"">
            <!-- Event 1 on the left -->
            <div style=""text-align: center; margin-right: 20px;"">
              <p style=""font-size: 24px; font-weight: bold;"">Event 1</p>
              <img src=""images/causal/physical_activity_semantic/physical_activity_semantic_9.png"" style=""width: 300px; height: auto;"">
            </div>
            <!-- Event 2 on the right -->
            <div style=""text-align: center; margin-left: 20px;"">
              <p style=""font-size: 24px; font-weight: bold;"">Event 2</p>
              <img src=""images/causal/physical_activity_semantic/physical_activity_semantic_5.png"" style=""width: 300px; height: auto;"">
            </div>
          </div>
          <p style=""text-align: center; margin-top: 20px;"">Does Event 1 lead to Event 2?</p>","2","9","5","true"
"","","","","","html-button-response","31","270012","0.0-31.0","","7900","
          <div style=""display: flex; justify-content: center; align-items: center;"">
            <!-- Event 1 on the left -->
            <div style=""text-align: center; margin-right: 20px;"">
              <p style=""font-size: 24px; font-weight: bold;"">Event 1</p>
              <img src=""images/causal/physical_activity_semantic/physical_activity_semantic_9.png"" style=""width: 300px; height: auto;"">
            </div>
            <!-- Event 2 on the right -->
            <div style=""text-align: center; margin-left: 20px;"">
              <p style=""font-size: 24px; font-weight: bold;"">Event 2</p>
              <img src=""images/causal/physical_activity_semantic/physical_activity_semantic_2.png"" style=""width: 300px; height: auto;"">
            </div>
          </div>
          <p style=""text-align: center; margin-top: 20px;"">Does Event 1 lead to Event 2?</p>","2","9","2","true"
"","","","","","html-button-response","32","276709","0.0-32.0","","6697","
          <div style=""display: flex; justify-content: center; align-items: center;"">
            <!-- Event 1 on the left -->
            <div style=""text-align: center; margin-right: 20px;"">
              <p style=""font-size: 24px; font-weight: bold;"">Event 1</p>
              <img src=""images/causal/physical_activity_semantic/physical_activity_semantic_4.png"" style=""width: 300px; height: auto;"">
            </div>
            <!-- Event 2 on the right -->
            <div style=""text-align: center; margin-left: 20px;"">
              <p style=""font-size: 24px; font-weight: bold;"">Event 2</p>
              <img src=""images/causal/physical_activity_semantic/physical_activity_semantic_5.png"" style=""width: 300px; height: auto;"">
            </div>
          </div>
          <p style=""text-align: center; margin-top: 20px;"">Does Event 1 lead to Event 2?</p>","2","4","5","true"
"","","","","","html-button-response","33","285918","0.0-33.0","","9208","
          <div style=""display: flex; justify-content: center; align-items: center;"">
            <!-- Event 1 on the left -->
            <div style=""text-align: center; margin-right: 20px;"">
              <p style=""font-size: 24px; font-weight: bold;"">Event 1</p>
              <img src=""images/causal/physical_activity_semantic/physical_activity_semantic_2.png"" style=""width: 300px; height: auto;"">
            </div>
            <!-- Event 2 on the right -->
            <div style=""text-align: center; margin-left: 20px;"">
              <p style=""font-size: 24px; font-weight: bold;"">Event 2</p>
              <img src=""images/causal/physical_activity_semantic/physical_activity_semantic_8.png"" style=""width: 300px; height: auto;"">
            </div>
          </div>
          <p style=""text-align: center; margin-top: 20px;"">Does Event 1 lead to Event 2?</p>","2","2","8","true"
"","","","","","html-button-response","34","294256","0.0-34.0","","8337","
          <div style=""display: flex; justify-content: center; align-items: center;"">
            <!-- Event 1 on the left -->
            <div style=""text-align: center; margin-right: 20px;"">
              <p style=""font-size: 24px; font-weight: bold;"">Event 1</p>
              <img src=""images/causal/physical_activity_semantic/physical_activity_semantic_10.png"" style=""width: 300px; height: auto;"">
            </div>
            <!-- Event 2 on the right -->
            <div style=""text-align: center; margin-left: 20px;"">
              <p style=""font-size: 24px; font-weight: bold;"">Event 2</p>
              <img src=""images/causal/physical_activity_semantic/physical_activity_semantic_8.png"" style=""width: 300px; height: auto;"">
            </div>
          </div>
          <p style=""text-align: center; margin-top: 20px;"">Does Event 1 lead to Event 2?</p>","1","10","8","true"
"","","","","","html-button-response","35","300098","0.0-35.0","","5841","
          <div style=""display: flex; justify-content: center; align-items: center;"">
            <!-- Event 1 on the left -->
            <div style=""text-align: center; margin-right: 20px;"">
              <p style=""font-size: 24px; font-weight: bold;"">Event 1</p>
              <img src=""images/causal/physical_activity_semantic/physical_activity_semantic_1.png"" style=""width: 300px; height: auto;"">
            </div>
            <!-- Event 2 on the right -->
            <div style=""text-align: center; margin-left: 20px;"">
              <p style=""font-size: 24px; font-weight: bold;"">Event 2</p>
              <img src=""images/causal/physical_activity_semantic/physical_activity_semantic_6.png"" style=""width: 300px; height: auto;"">
            </div>
          </div>
          <p style=""text-align: center; margin-top: 20px;"">Does Event 1 lead to Event 2?</p>","2","1","6","true"
"","","","","","html-button-response","36","305772","0.0-36.0","","5673","
          <div style=""display: flex; justify-content: center; align-items: center;"">
            <!-- Event 1 on the left -->
            <div style=""text-align: center; margin-right: 20px;"">
              <p style=""font-size: 24px; font-weight: bold;"">Event 1</p>
              <img src=""images/causal/physical_activity_semantic/physical_activity_semantic_2.png"" style=""width: 300px; height: auto;"">
            </div>
            <!-- Event 2 on the right -->
            <div style=""text-align: center; margin-left: 20px;"">
              <p style=""font-size: 24px; font-weight: bold;"">Event 2</p>
              <img src=""images/causal/physical_activity_semantic/physical_activity_semantic_7.png"" style=""width: 300px; height: auto;"">
            </div>
          </div>
          <p style=""text-align: center; margin-top: 20px;"">Does Event 1 lead to Event 2?</p>","2","2","7","true"
"","","","","","html-button-response","37","311592","0.0-37.0","","5819","
          <div style=""display: flex; justify-content: center; align-items: center;"">
            <!-- Event 1 on the left -->
            <div style=""text-align: center; margin-right: 20px;"">
              <p style=""font-size: 24px; font-weight: bold;"">Event 1</p>
              <img src=""images/causal/physical_activity_semantic/physical_activity_semantic_1.png"" style=""width: 300px; height: auto;"">
            </div>
            <!-- Event 2 on the right -->
            <div style=""text-align: center; margin-left: 20px;"">
              <p style=""font-size: 24px; font-weight: bold;"">Event 2</p>
              <img src=""images/causal/physical_activity_semantic/physical_activity_semantic_4.png"" style=""width: 300px; height: auto;"">
            </div>
          </div>
          <p style=""text-align: center; margin-top: 20px;"">Does Event 1 lead to Event 2?</p>","2","1","4","true"
"","","","","","html-button-response","38","320136","0.0-38.0","","8543","
          <div style=""display: flex; justify-content: center; align-items: center;"">
            <!-- Event 1 on the left -->
            <div style=""text-align: center; margin-right: 20px;"">
              <p style=""font-size: 24px; font-weight: bold;"">Event 1</p>
              <img src=""images/causal/physical_activity_semantic/physical_activity_semantic_8.png"" style=""width: 300px; height: auto;"">
            </div>
            <!-- Event 2 on the right -->
            <div style=""text-align: center; margin-left: 20px;"">
              <p style=""font-size: 24px; font-weight: bold;"">Event 2</p>
              <img src=""images/causal/physical_activity_semantic/physical_activity_semantic_4.png"" style=""width: 300px; height: auto;"">
            </div>
          </div>
          <p style=""text-align: center; margin-top: 20px;"">Does Event 1 lead to Event 2?</p>","1","8","4","true"
"","","","","","html-button-response","39","329932","0.0-39.0","","9796","
          <div style=""display: flex; justify-content: center; align-items: center;"">
            <!-- Event 1 on the left -->
            <div style=""text-align: center; margin-right: 20px;"">
              <p style=""font-size: 24px; font-weight: bold;"">Event 1</p>
              <img src=""images/causal/physical_activity_semantic/physical_activity_semantic_5.png"" style=""width: 300px; height: auto;"">
            </div>
            <!-- Event 2 on the right -->
            <div style=""text-align: center; margin-left: 20px;"">
              <p style=""font-size: 24px; font-weight: bold;"">Event 2</p>
              <img src=""images/causal/physical_activity_semantic/physical_activity_semantic_6.png"" style=""width: 300px; height: auto;"">
            </div>
          </div>
          <p style=""text-align: center; margin-top: 20px;"">Does Event 1 lead to Event 2?</p>","2","5","6","true"
"","","","","","html-button-response","40","336200","0.0-40.0","","6267","
          <div style=""display: flex; justify-content: center; align-items: center;"">
            <!-- Event 1 on the left -->
            <div style=""text-align: center; margin-right: 20px;"">
              <p style=""font-size: 24px; font-weight: bold;"">Event 1</p>
              <img src=""images/causal/physical_activity_semantic/physical_activity_semantic_8.png"" style=""width: 300px; height: auto;"">
            </div>
            <!-- Event 2 on the right -->
            <div style=""text-align: center; margin-left: 20px;"">
              <p style=""font-size: 24px; font-weight: bold;"">Event 2</p>
              <img src=""images/causal/physical_activity_semantic/physical_activity_semantic_9.png"" style=""width: 300px; height: auto;"">
            </div>
          </div>
          <p style=""text-align: center; margin-top: 20px;"">Does Event 1 lead to Event 2?</p>","2","8","9","true"
"","","","","","html-button-response","41","342251","0.0-41.0","","6050","
          <div style=""display: flex; justify-content: center; align-items: center;"">
            <!-- Event 1 on the left -->
            <div style=""text-align: center; margin-right: 20px;"">
              <p style=""font-size: 24px; font-weight: bold;"">Event 1</p>
              <img src=""images/causal/physical_activity_semantic/physical_activity_semantic_5.png"" style=""width: 300px; height: auto;"">
            </div>
            <!-- Event 2 on the right -->
            <div style=""text-align: center; margin-left: 20px;"">
              <p style=""font-size: 24px; font-weight: bold;"">Event 2</p>
              <img src=""images/causal/physical_activity_semantic/physical_activity_semantic_10.png"" style=""width: 300px; height: auto;"">
            </div>
          </div>
          <p style=""text-align: center; margin-top: 20px;"">Does Event 1 lead to Event 2?</p>","2","5","10","true"
"","","","","","html-button-response","42","350773","0.0-42.0","","8521","
          <div style=""display: flex; justify-content: center; align-items: center;"">
            <!-- Event 1 on the left -->
            <div style=""text-align: center; margin-right: 20px;"">
              <p style=""font-size: 24px; font-weight: bold;"">Event 1</p>
              <img src=""images/causal/physical_activity_semantic/physical_activity_semantic_6.png"" style=""width: 300px; height: auto;"">
            </div>
            <!-- Event 2 on the right -->
            <div style=""text-align: center; margin-left: 20px;"">
              <p style=""font-size: 24px; font-weight: bold;"">Event 2</p>
              <img src=""images/causal/physical_activity_semantic/physical_activity_semantic_9.png"" style=""width: 300px; height: auto;"">
            </div>
          </div>
          <p style=""text-align: center; margin-top: 20px;"">Does Event 1 lead to Event 2?</p>","2","6","9","true"
"","","","","","html-button-response","43","356637","0.0-43.0","","5863","
          <div style=""display: flex; justify-content: center; align-items: center;"">
            <!-- Event 1 on the left -->
            <div style=""text-align: center; margin-right: 20px;"">
              <p style=""font-size: 24px; font-weight: bold;"">Event 1</p>
              <img src=""images/causal/physical_activity_semantic/physical_activity_semantic_4.png"" style=""width: 300px; height: auto;"">
            </div>
            <!-- Event 2 on the right -->
            <div style=""text-align: center; margin-left: 20px;"">
              <p style=""font-size: 24px; font-weight: bold;"">Event 2</p>
              <img src=""images/causal/physical_activity_semantic/physical_activity_semantic_10.png"" style=""width: 300px; height: auto;"">
            </div>
          </div>
          <p style=""text-align: center; margin-top: 20px;"">Does Event 1 lead to Event 2?</p>","2","4","10","true"
"","","","","","html-button-response","44","364935","0.0-44.0","","8297","
          <div style=""display: flex; justify-content: center; align-items: center;"">
            <!-- Event 1 on the left -->
            <div style=""text-align: center; margin-right: 20px;"">
              <p style=""font-size: 24px; font-weight: bold;"">Event 1</p>
              <img src=""images/causal/physical_activity_semantic/physical_activity_semantic_2.png"" style=""width: 300px; height: auto;"">
            </div>
            <!-- Event 2 on the right -->
            <div style=""text-align: center; margin-left: 20px;"">
              <p style=""font-size: 24px; font-weight: bold;"">Event 2</p>
              <img src=""images/causal/physical_activity_semantic/physical_activity_semantic_3.png"" style=""width: 300px; height: auto;"">
            </div>
          </div>
          <p style=""text-align: center; margin-top: 20px;"">Does Event 1 lead to Event 2?</p>","2","2","3","true"
"","","","","","html-button-response","45","380597","0.0-45.0","","15660","
          <div style=""display: flex; justify-content: center; align-items: center;"">
            <!-- Event 1 on the left -->
            <div style=""text-align: center; margin-right: 20px;"">
              <p style=""font-size: 24px; font-weight: bold;"">Event 1</p>
              <img src=""images/causal/physical_activity_semantic/physical_activity_semantic_6.png"" style=""width: 300px; height: auto;"">
            </div>
            <!-- Event 2 on the right -->
            <div style=""text-align: center; margin-left: 20px;"">
              <p style=""font-size: 24px; font-weight: bold;"">Event 2</p>
              <img src=""images/causal/physical_activity_semantic/physical_activity_semantic_10.png"" style=""width: 300px; height: auto;"">
            </div>
          </div>
          <p style=""text-align: center; margin-top: 20px;"">Does Event 1 lead to Event 2?</p>","2","6","10","true"
"","","","","","html-button-response","46","387617","0.0-46.0","","7020","
          <div style=""display: flex; justify-content: center; align-items: center;"">
            <!-- Event 1 on the left -->
            <div style=""text-align: center; margin-right: 20px;"">
              <p style=""font-size: 24px; font-weight: bold;"">Event 1</p>
              <img src=""images/causal/physical_activity_semantic/physical_activity_semantic_3.png"" style=""width: 300px; height: auto;"">
            </div>
            <!-- Event 2 on the right -->
            <div style=""text-align: center; margin-left: 20px;"">
              <p style=""font-size: 24px; font-weight: bold;"">Event 2</p>
              <img src=""images/causal/physical_activity_semantic/physical_activity_semantic_10.png"" style=""width: 300px; height: auto;"">
            </div>
          </div>
          <p style=""text-align: center; margin-top: 20px;"">Does Event 1 lead to Event 2?</p>","2","3","10","true"
"","","","","","instructions","47","401029","0.0-47.0","[{""page_index"":0,""viewing_time"":13411}]","13412","","","","",""
