"success","timeout","failed_images","failed_audio","failed_video","trial_type","trial_index","time_elapsed","internal_node_id","subject_id","study_id","session_id","view_history","rt","stimulus","response","choice"
"true","false","[]","[]","[]","preload","0","5317","0.0-0.0","A15DB2251BC54B749EC57C8171DCEC6B","a9bb223d-3a31-49f5-9cdc-9b2d28b16018","92e08bb8-2bb0-463c-bc98-cd72da82565c","","","","",""
"","","","","","instructions","1","7731","0.0-1.0","A15DB2251BC54B749EC57C8171DCEC6B","a9bb223d-3a31-49f5-9cdc-9b2d28b16018","92e08bb8-2bb0-463c-bc98-cd72da82565c","[{""page_index"":0,""viewing_time"":2412}]","2413","","",""
"","","","","","instructions","2","10351","0.0-2.0","A15DB2251BC54B749EC57C8171DCEC6B","a9bb223d-3a31-49f5-9cdc-9b2d28b16018","92e08bb8-2bb0-463c-bc98-cd72da82565c","[{""page_index"":0,""viewing_time"":2619}]","2619","","",""
"true","","","","","fullscreen","3","12422","0.0-3.0","A15DB2251BC54B749EC57C8171DCEC6B","a9bb223d-3a31-49f5-9cdc-9b2d28b16018","92e08bb8-2bb0-463c-bc98-cd72da82565c","","1063","","",""
"","","","","","instructions","4","19737","0.0-4.0","A15DB2251BC54B749EC57C8171DCEC6B","a9bb223d-3a31-49f5-9cdc-9b2d28b16018","92e08bb8-2bb0-463c-bc98-cd72da82565c","[{""page_index"":0,""viewing_time"":7315}]","7315","","",""
"","","","","","html-keyboard-response","5","22741","0.0-5.0","A15DB2251BC54B749EC57C8171DCEC6B","a9bb223d-3a31-49f5-9cdc-9b2d28b16018","92e08bb8-2bb0-463c-bc98-cd72da82565c","","null","<div style=""display: flex; justify-content: center; align-items: center;"">
                <img src=""images/causal/causal_series_1/causal_series_1_a.jpg"" style=""width: 300px; height: 300px;"" />
              </div>","null",""
"","","","","","html-keyboard-response","6","25744","0.0-6.0","A15DB2251BC54B749EC57C8171DCEC6B","a9bb223d-3a31-49f5-9cdc-9b2d28b16018","92e08bb8-2bb0-463c-bc98-cd72da82565c","","null","<div style=""display: flex; justify-content: center; align-items: center;"">
                <img src=""images/causal/causal_series_1/causal_series_1_b.jpg"" style=""width: 300px; height: 300px;"" />
              </div>","null",""
"","","","","","html-keyboard-response","7","28749","0.0-7.0","A15DB2251BC54B749EC57C8171DCEC6B","a9bb223d-3a31-49f5-9cdc-9b2d28b16018","92e08bb8-2bb0-463c-bc98-cd72da82565c","","null","<div style=""display: flex; justify-content: center; align-items: center;"">
                <img src=""images/causal/causal_series_1/causal_series_1_c.jpg"" style=""width: 300px; height: 300px;"" />
              </div>","null",""
"","","","","","html-button-response","8","32564","0.0-8.0","A15DB2251BC54B749EC57C8171DCEC6B","a9bb223d-3a31-49f5-9cdc-9b2d28b16018","92e08bb8-2bb0-463c-bc98-cd72da82565c","","3813","
    <div style=""display: flex; justify-content: center; align-items: center;"">
      <img src=""images/blue_deck_1.png"" style=""width: 300px; height: 300px; margin-right: 10px;"" />
      <img src=""images/red_deck_2.png"" style=""width: 300px; height: 300px;"" />
    </div>","0","0"
"","","","","","html-keyboard-response","9","35570","0.0-9.0-0.0-0.0","A15DB2251BC54B749EC57C8171DCEC6B","a9bb223d-3a31-49f5-9cdc-9b2d28b16018","92e08bb8-2bb0-463c-bc98-cd72da82565c","","null","<div style=""display: flex; justify-content: center; align-items: center;"">
                <img src=""images/causal/causal_series_1/causal_series_1_d.jpg"" style=""width: 300px; height: 300px;"" />
              </div>","null",""
"","","","","","html-keyboard-response","10","38573","0.0-10.0","A15DB2251BC54B749EC57C8171DCEC6B","a9bb223d-3a31-49f5-9cdc-9b2d28b16018","92e08bb8-2bb0-463c-bc98-cd72da82565c","","null","<div style=""display: flex; justify-content: center; align-items: center;"">
                <img src=""images/other/blank.jpg"" style=""width: 300px; height: 300px;"" />
              </div>","null",""
"","","","","","html-keyboard-response","11","41575","0.0-11.0","A15DB2251BC54B749EC57C8171DCEC6B","a9bb223d-3a31-49f5-9cdc-9b2d28b16018","92e08bb8-2bb0-463c-bc98-cd72da82565c","","null","<div style=""display: flex; justify-content: center; align-items: center;"">
                <img src=""images/causal/causal_series_10/causal_series_10_a.jpg"" style=""width: 300px; height: 300px;"" />
              </div>","null",""
"","","","","","html-keyboard-response","12","44578","0.0-12.0","A15DB2251BC54B749EC57C8171DCEC6B","a9bb223d-3a31-49f5-9cdc-9b2d28b16018","92e08bb8-2bb0-463c-bc98-cd72da82565c","","null","<div style=""display: flex; justify-content: center; align-items: center;"">
                <img src=""images/causal/causal_series_10/causal_series_10_b.jpg"" style=""width: 300px; height: 300px;"" />
              </div>","null",""
"","","","","","html-keyboard-response","13","47583","0.0-13.0","A15DB2251BC54B749EC57C8171DCEC6B","a9bb223d-3a31-49f5-9cdc-9b2d28b16018","92e08bb8-2bb0-463c-bc98-cd72da82565c","","null","<div style=""display: flex; justify-content: center; align-items: center;"">
                <img src=""images/causal/causal_series_10/causal_series_10_c.jpg"" style=""width: 300px; height: 300px;"" />
              </div>","null",""
"","","","","","html-button-response","14","51017","0.0-14.0","A15DB2251BC54B749EC57C8171DCEC6B","a9bb223d-3a31-49f5-9cdc-9b2d28b16018","92e08bb8-2bb0-463c-bc98-cd72da82565c","","3432","
    <div style=""display: flex; justify-content: center; align-items: center;"">
      <img src=""images/blue_deck_1.png"" style=""width: 300px; height: 300px; margin-right: 10px;"" />
      <img src=""images/red_deck_2.png"" style=""width: 300px; height: 300px;"" />
    </div>","1","1"
"","","","","","html-keyboard-response","15","54023","0.0-15.0-1.0-0.0","A15DB2251BC54B749EC57C8171DCEC6B","a9bb223d-3a31-49f5-9cdc-9b2d28b16018","92e08bb8-2bb0-463c-bc98-cd72da82565c","","null","<div style=""display: flex; justify-content: center; align-items: center;"">
                <img src=""images/semantic/semantic_series_9/semantic_series_9_d.jpg"" style=""width: 300px; height: 300px;"" />
              </div>","null",""
"","","","","","html-keyboard-response","16","57026","0.0-16.0","A15DB2251BC54B749EC57C8171DCEC6B","a9bb223d-3a31-49f5-9cdc-9b2d28b16018","92e08bb8-2bb0-463c-bc98-cd72da82565c","","null","<div style=""display: flex; justify-content: center; align-items: center;"">
                <img src=""images/other/blank.jpg"" style=""width: 300px; height: 300px;"" />
              </div>","null",""
"","","","","","html-keyboard-response","17","60033","0.0-17.0","A15DB2251BC54B749EC57C8171DCEC6B","a9bb223d-3a31-49f5-9cdc-9b2d28b16018","92e08bb8-2bb0-463c-bc98-cd72da82565c","","null","<div style=""display: flex; justify-content: center; align-items: center;"">
                <img src=""images/causal/causal_series_3/causal_series_3_a.jpg"" style=""width: 300px; height: 300px;"" />
              </div>","null",""
"","","","","","html-keyboard-response","18","63037","0.0-18.0","A15DB2251BC54B749EC57C8171DCEC6B","a9bb223d-3a31-49f5-9cdc-9b2d28b16018","92e08bb8-2bb0-463c-bc98-cd72da82565c","","null","<div style=""display: flex; justify-content: center; align-items: center;"">
                <img src=""images/causal/causal_series_3/causal_series_3_b.jpg"" style=""width: 300px; height: 300px;"" />
              </div>","null",""
"","","","","","html-keyboard-response","19","66039","0.0-19.0","A15DB2251BC54B749EC57C8171DCEC6B","a9bb223d-3a31-49f5-9cdc-9b2d28b16018","92e08bb8-2bb0-463c-bc98-cd72da82565c","","null","<div style=""display: flex; justify-content: center; align-items: center;"">
                <img src=""images/causal/causal_series_3/causal_series_3_c.jpg"" style=""width: 300px; height: 300px;"" />
              </div>","null",""
"","","","","","html-button-response","20","70639","0.0-20.0","A15DB2251BC54B749EC57C8171DCEC6B","a9bb223d-3a31-49f5-9cdc-9b2d28b16018","92e08bb8-2bb0-463c-bc98-cd72da82565c","","4598","
    <div style=""display: flex; justify-content: center; align-items: center;"">
      <img src=""images/blue_deck_1.png"" style=""width: 300px; height: 300px; margin-right: 10px;"" />
      <img src=""images/red_deck_2.png"" style=""width: 300px; height: 300px;"" />
    </div>","1","1"
"","","","","","html-keyboard-response","21","73645","0.0-21.0-1.0-0.0","A15DB2251BC54B749EC57C8171DCEC6B","a9bb223d-3a31-49f5-9cdc-9b2d28b16018","92e08bb8-2bb0-463c-bc98-cd72da82565c","","null","<div style=""display: flex; justify-content: center; align-items: center;"">
                <img src=""images/semantic/semantic_series_2/semantic_series_2_d.jpg"" style=""width: 300px; height: 300px;"" />
              </div>","null",""
"","","","","","html-keyboard-response","22","76647","0.0-22.0","A15DB2251BC54B749EC57C8171DCEC6B","a9bb223d-3a31-49f5-9cdc-9b2d28b16018","92e08bb8-2bb0-463c-bc98-cd72da82565c","","null","<div style=""display: flex; justify-content: center; align-items: center;"">
                <img src=""images/other/blank.jpg"" style=""width: 300px; height: 300px;"" />
              </div>","null",""
"","","","","","html-keyboard-response","23","79650","0.0-23.0","A15DB2251BC54B749EC57C8171DCEC6B","a9bb223d-3a31-49f5-9cdc-9b2d28b16018","92e08bb8-2bb0-463c-bc98-cd72da82565c","","null","<div style=""display: flex; justify-content: center; align-items: center;"">
                <img src=""images/causal/causal_series_12/causal_series_12_a.jpg"" style=""width: 300px; height: 300px;"" />
              </div>","null",""
"","","","","","html-keyboard-response","24","82653","0.0-24.0","A15DB2251BC54B749EC57C8171DCEC6B","a9bb223d-3a31-49f5-9cdc-9b2d28b16018","92e08bb8-2bb0-463c-bc98-cd72da82565c","","null","<div style=""display: flex; justify-content: center; align-items: center;"">
                <img src=""images/causal/causal_series_12/causal_series_12_b.jpg"" style=""width: 300px; height: 300px;"" />
              </div>","null",""
"","","","","","html-keyboard-response","25","85657","0.0-25.0","A15DB2251BC54B749EC57C8171DCEC6B","a9bb223d-3a31-49f5-9cdc-9b2d28b16018","92e08bb8-2bb0-463c-bc98-cd72da82565c","","null","<div style=""display: flex; justify-content: center; align-items: center;"">
                <img src=""images/causal/causal_series_12/causal_series_12_c.jpg"" style=""width: 300px; height: 300px;"" />
              </div>","null",""
"","","","","","html-button-response","26","86949","0.0-26.0","A15DB2251BC54B749EC57C8171DCEC6B","a9bb223d-3a31-49f5-9cdc-9b2d28b16018","92e08bb8-2bb0-463c-bc98-cd72da82565c","","1290","
    <div style=""display: flex; justify-content: center; align-items: center;"">
      <img src=""images/blue_deck_1.png"" style=""width: 300px; height: 300px; margin-right: 10px;"" />
      <img src=""images/red_deck_2.png"" style=""width: 300px; height: 300px;"" />
    </div>","0","0"
"","","","","","html-keyboard-response","27","89954","0.0-27.0-0.0-0.0","A15DB2251BC54B749EC57C8171DCEC6B","a9bb223d-3a31-49f5-9cdc-9b2d28b16018","92e08bb8-2bb0-463c-bc98-cd72da82565c","","null","<div style=""display: flex; justify-content: center; align-items: center;"">
                <img src=""images/causal/causal_series_12/causal_series_12_d.jpg"" style=""width: 300px; height: 300px;"" />
              </div>","null",""
"","","","","","html-keyboard-response","28","92957","0.0-28.0","A15DB2251BC54B749EC57C8171DCEC6B","a9bb223d-3a31-49f5-9cdc-9b2d28b16018","92e08bb8-2bb0-463c-bc98-cd72da82565c","","null","<div style=""display: flex; justify-content: center; align-items: center;"">
                <img src=""images/other/blank.jpg"" style=""width: 300px; height: 300px;"" />
              </div>","null",""
"","","","","","html-keyboard-response","29","95960","0.0-29.0","A15DB2251BC54B749EC57C8171DCEC6B","a9bb223d-3a31-49f5-9cdc-9b2d28b16018","92e08bb8-2bb0-463c-bc98-cd72da82565c","","null","<div style=""display: flex; justify-content: center; align-items: center;"">
                <img src=""images/causal/causal_series_2/causal_series_2_a.jpg"" style=""width: 300px; height: 300px;"" />
              </div>","null",""
"","","","","","html-keyboard-response","30","98962","0.0-30.0","A15DB2251BC54B749EC57C8171DCEC6B","a9bb223d-3a31-49f5-9cdc-9b2d28b16018","92e08bb8-2bb0-463c-bc98-cd72da82565c","","null","<div style=""display: flex; justify-content: center; align-items: center;"">
                <img src=""images/causal/causal_series_2/causal_series_2_b.jpg"" style=""width: 300px; height: 300px;"" />
              </div>","null",""
"","","","","","html-keyboard-response","31","101964","0.0-31.0","A15DB2251BC54B749EC57C8171DCEC6B","a9bb223d-3a31-49f5-9cdc-9b2d28b16018","92e08bb8-2bb0-463c-bc98-cd72da82565c","","null","<div style=""display: flex; justify-content: center; align-items: center;"">
                <img src=""images/causal/causal_series_2/causal_series_2_c.jpg"" style=""width: 300px; height: 300px;"" />
              </div>","null",""
"","","","","","html-button-response","32","103317","0.0-32.0","A15DB2251BC54B749EC57C8171DCEC6B","a9bb223d-3a31-49f5-9cdc-9b2d28b16018","92e08bb8-2bb0-463c-bc98-cd72da82565c","","1351","
    <div style=""display: flex; justify-content: center; align-items: center;"">
      <img src=""images/blue_deck_1.png"" style=""width: 300px; height: 300px; margin-right: 10px;"" />
      <img src=""images/red_deck_2.png"" style=""width: 300px; height: 300px;"" />
    </div>","0","0"
"","","","","","html-keyboard-response","33","106323","0.0-33.0-0.0-0.0","A15DB2251BC54B749EC57C8171DCEC6B","a9bb223d-3a31-49f5-9cdc-9b2d28b16018","92e08bb8-2bb0-463c-bc98-cd72da82565c","","null","<div style=""display: flex; justify-content: center; align-items: center;"">
                <img src=""images/causal/causal_series_2/causal_series_2_d.jpg"" style=""width: 300px; height: 300px;"" />
              </div>","null",""
"","","","","","html-keyboard-response","34","109325","0.0-34.0","A15DB2251BC54B749EC57C8171DCEC6B","a9bb223d-3a31-49f5-9cdc-9b2d28b16018","92e08bb8-2bb0-463c-bc98-cd72da82565c","","null","<div style=""display: flex; justify-content: center; align-items: center;"">
                <img src=""images/other/blank.jpg"" style=""width: 300px; height: 300px;"" />
              </div>","null",""
"","","","","","html-keyboard-response","35","112328","0.0-35.0","A15DB2251BC54B749EC57C8171DCEC6B","a9bb223d-3a31-49f5-9cdc-9b2d28b16018","92e08bb8-2bb0-463c-bc98-cd72da82565c","","null","<div style=""display: flex; justify-content: center; align-items: center;"">
                <img src=""images/causal/causal_series_18/causal_series_18_a.jpg"" style=""width: 300px; height: 300px;"" />
              </div>","null",""
"","","","","","html-keyboard-response","36","115334","0.0-36.0","A15DB2251BC54B749EC57C8171DCEC6B","a9bb223d-3a31-49f5-9cdc-9b2d28b16018","92e08bb8-2bb0-463c-bc98-cd72da82565c","","null","<div style=""display: flex; justify-content: center; align-items: center;"">
                <img src=""images/causal/causal_series_18/causal_series_18_b.jpg"" style=""width: 300px; height: 300px;"" />
              </div>","null",""
"","","","","","html-keyboard-response","37","118336","0.0-37.0","A15DB2251BC54B749EC57C8171DCEC6B","a9bb223d-3a31-49f5-9cdc-9b2d28b16018","92e08bb8-2bb0-463c-bc98-cd72da82565c","","null","<div style=""display: flex; justify-content: center; align-items: center;"">
                <img src=""images/causal/causal_series_18/causal_series_18_c.jpg"" style=""width: 300px; height: 300px;"" />
              </div>","null",""
"","","","","","html-button-response","38","120753","0.0-38.0","A15DB2251BC54B749EC57C8171DCEC6B","a9bb223d-3a31-49f5-9cdc-9b2d28b16018","92e08bb8-2bb0-463c-bc98-cd72da82565c","","2414","
    <div style=""display: flex; justify-content: center; align-items: center;"">
      <img src=""images/blue_deck_1.png"" style=""width: 300px; height: 300px; margin-right: 10px;"" />
      <img src=""images/red_deck_2.png"" style=""width: 300px; height: 300px;"" />
    </div>","1","1"
"","","","","","html-keyboard-response","39","123758","0.0-39.0-1.0-0.0","A15DB2251BC54B749EC57C8171DCEC6B","a9bb223d-3a31-49f5-9cdc-9b2d28b16018","92e08bb8-2bb0-463c-bc98-cd72da82565c","","null","<div style=""display: flex; justify-content: center; align-items: center;"">
                <img src=""images/semantic/semantic_series_17/semantic_series_17_d.jpg"" style=""width: 300px; height: 300px;"" />
              </div>","null",""
"","","","","","html-keyboard-response","40","126760","0.0-40.0","A15DB2251BC54B749EC57C8171DCEC6B","a9bb223d-3a31-49f5-9cdc-9b2d28b16018","92e08bb8-2bb0-463c-bc98-cd72da82565c","","null","<div style=""display: flex; justify-content: center; align-items: center;"">
                <img src=""images/other/blank.jpg"" style=""width: 300px; height: 300px;"" />
              </div>","null",""
"","","","","","html-keyboard-response","41","129763","0.0-41.0","A15DB2251BC54B749EC57C8171DCEC6B","a9bb223d-3a31-49f5-9cdc-9b2d28b16018","92e08bb8-2bb0-463c-bc98-cd72da82565c","","null","<div style=""display: flex; justify-content: center; align-items: center;"">
                <img src=""images/causal/causal_series_6/causal_series_6_a.jpg"" style=""width: 300px; height: 300px;"" />
              </div>","null",""
"","","","","","html-keyboard-response","42","132767","0.0-42.0","A15DB2251BC54B749EC57C8171DCEC6B","a9bb223d-3a31-49f5-9cdc-9b2d28b16018","92e08bb8-2bb0-463c-bc98-cd72da82565c","","null","<div style=""display: flex; justify-content: center; align-items: center;"">
                <img src=""images/causal/causal_series_6/causal_series_6_b.jpg"" style=""width: 300px; height: 300px;"" />
              </div>","null",""
"","","","","","html-keyboard-response","43","135770","0.0-43.0","A15DB2251BC54B749EC57C8171DCEC6B","a9bb223d-3a31-49f5-9cdc-9b2d28b16018","92e08bb8-2bb0-463c-bc98-cd72da82565c","","null","<div style=""display: flex; justify-content: center; align-items: center;"">
                <img src=""images/causal/causal_series_6/causal_series_6_c.jpg"" style=""width: 300px; height: 300px;"" />
              </div>","null",""
"","","","","","html-button-response","44","137938","0.0-44.0","A15DB2251BC54B749EC57C8171DCEC6B","a9bb223d-3a31-49f5-9cdc-9b2d28b16018","92e08bb8-2bb0-463c-bc98-cd72da82565c","","2167","
    <div style=""display: flex; justify-content: center; align-items: center;"">
      <img src=""images/blue_deck_1.png"" style=""width: 300px; height: 300px; margin-right: 10px;"" />
      <img src=""images/red_deck_2.png"" style=""width: 300px; height: 300px;"" />
    </div>","0","0"
"","","","","","html-keyboard-response","45","140942","0.0-45.0-0.0-0.0","A15DB2251BC54B749EC57C8171DCEC6B","a9bb223d-3a31-49f5-9cdc-9b2d28b16018","92e08bb8-2bb0-463c-bc98-cd72da82565c","","null","<div style=""display: flex; justify-content: center; align-items: center;"">
                <img src=""images/causal/causal_series_6/causal_series_6_d.jpg"" style=""width: 300px; height: 300px;"" />
              </div>","null",""
"","","","","","html-keyboard-response","46","143945","0.0-46.0","A15DB2251BC54B749EC57C8171DCEC6B","a9bb223d-3a31-49f5-9cdc-9b2d28b16018","92e08bb8-2bb0-463c-bc98-cd72da82565c","","null","<div style=""display: flex; justify-content: center; align-items: center;"">
                <img src=""images/other/blank.jpg"" style=""width: 300px; height: 300px;"" />
              </div>","null",""
"","","","","","html-keyboard-response","47","146947","0.0-47.0","A15DB2251BC54B749EC57C8171DCEC6B","a9bb223d-3a31-49f5-9cdc-9b2d28b16018","92e08bb8-2bb0-463c-bc98-cd72da82565c","","null","<div style=""display: flex; justify-content: center; align-items: center;"">
                <img src=""images/causal/causal_series_14/causal_series_14_a.jpg"" style=""width: 300px; height: 300px;"" />
              </div>","null",""
"","","","","","html-keyboard-response","48","149951","0.0-48.0","A15DB2251BC54B749EC57C8171DCEC6B","a9bb223d-3a31-49f5-9cdc-9b2d28b16018","92e08bb8-2bb0-463c-bc98-cd72da82565c","","null","<div style=""display: flex; justify-content: center; align-items: center;"">
                <img src=""images/causal/causal_series_14/causal_series_14_b.jpg"" style=""width: 300px; height: 300px;"" />
              </div>","null",""
"","","","","","html-keyboard-response","49","152953","0.0-49.0","A15DB2251BC54B749EC57C8171DCEC6B","a9bb223d-3a31-49f5-9cdc-9b2d28b16018","92e08bb8-2bb0-463c-bc98-cd72da82565c","","null","<div style=""display: flex; justify-content: center; align-items: center;"">
                <img src=""images/causal/causal_series_14/causal_series_14_c.jpg"" style=""width: 300px; height: 300px;"" />
              </div>","null",""
"","","","","","html-button-response","50","153683","0.0-50.0","A15DB2251BC54B749EC57C8171DCEC6B","a9bb223d-3a31-49f5-9cdc-9b2d28b16018","92e08bb8-2bb0-463c-bc98-cd72da82565c","","728","
    <div style=""display: flex; justify-content: center; align-items: center;"">
      <img src=""images/blue_deck_1.png"" style=""width: 300px; height: 300px; margin-right: 10px;"" />
      <img src=""images/red_deck_2.png"" style=""width: 300px; height: 300px;"" />
    </div>","0","0"
"","","","","","html-keyboard-response","51","156685","0.0-51.0-0.0-0.0","A15DB2251BC54B749EC57C8171DCEC6B","a9bb223d-3a31-49f5-9cdc-9b2d28b16018","92e08bb8-2bb0-463c-bc98-cd72da82565c","","null","<div style=""display: flex; justify-content: center; align-items: center;"">
                <img src=""images/causal/causal_series_14/causal_series_14_d.jpg"" style=""width: 300px; height: 300px;"" />
              </div>","null",""
"","","","","","html-keyboard-response","52","159689","0.0-52.0","A15DB2251BC54B749EC57C8171DCEC6B","a9bb223d-3a31-49f5-9cdc-9b2d28b16018","92e08bb8-2bb0-463c-bc98-cd72da82565c","","null","<div style=""display: flex; justify-content: center; align-items: center;"">
                <img src=""images/other/blank.jpg"" style=""width: 300px; height: 300px;"" />
              </div>","null",""
"","","","","","html-keyboard-response","53","162692","0.0-53.0","A15DB2251BC54B749EC57C8171DCEC6B","a9bb223d-3a31-49f5-9cdc-9b2d28b16018","92e08bb8-2bb0-463c-bc98-cd72da82565c","","null","<div style=""display: flex; justify-content: center; align-items: center;"">
                <img src=""images/causal/causal_series_7/causal_series_7_a.jpg"" style=""width: 300px; height: 300px;"" />
              </div>","null",""
"","","","","","html-keyboard-response","54","165695","0.0-54.0","A15DB2251BC54B749EC57C8171DCEC6B","a9bb223d-3a31-49f5-9cdc-9b2d28b16018","92e08bb8-2bb0-463c-bc98-cd72da82565c","","null","<div style=""display: flex; justify-content: center; align-items: center;"">
                <img src=""images/causal/causal_series_7/causal_series_7_b.jpg"" style=""width: 300px; height: 300px;"" />
              </div>","null",""
"","","","","","html-keyboard-response","55","168701","0.0-55.0","A15DB2251BC54B749EC57C8171DCEC6B","a9bb223d-3a31-49f5-9cdc-9b2d28b16018","92e08bb8-2bb0-463c-bc98-cd72da82565c","","null","<div style=""display: flex; justify-content: center; align-items: center;"">
                <img src=""images/causal/causal_series_7/causal_series_7_c.jpg"" style=""width: 300px; height: 300px;"" />
              </div>","null",""
"","","","","","html-button-response","56","176254","0.0-56.0","A15DB2251BC54B749EC57C8171DCEC6B","a9bb223d-3a31-49f5-9cdc-9b2d28b16018","92e08bb8-2bb0-463c-bc98-cd72da82565c","","7551","
    <div style=""display: flex; justify-content: center; align-items: center;"">
      <img src=""images/blue_deck_1.png"" style=""width: 300px; height: 300px; margin-right: 10px;"" />
      <img src=""images/red_deck_2.png"" style=""width: 300px; height: 300px;"" />
    </div>","0","0"
"","","","","","html-keyboard-response","57","179257","0.0-57.0-0.0-0.0","A15DB2251BC54B749EC57C8171DCEC6B","a9bb223d-3a31-49f5-9cdc-9b2d28b16018","92e08bb8-2bb0-463c-bc98-cd72da82565c","","null","<div style=""display: flex; justify-content: center; align-items: center;"">
                <img src=""images/causal/causal_series_7/causal_series_7_d.jpg"" style=""width: 300px; height: 300px;"" />
              </div>","null",""
"","","","","","html-keyboard-response","58","182260","0.0-58.0","A15DB2251BC54B749EC57C8171DCEC6B","a9bb223d-3a31-49f5-9cdc-9b2d28b16018","92e08bb8-2bb0-463c-bc98-cd72da82565c","","null","<div style=""display: flex; justify-content: center; align-items: center;"">
                <img src=""images/other/blank.jpg"" style=""width: 300px; height: 300px;"" />
              </div>","null",""
"","","","","","html-keyboard-response","59","185262","0.0-59.0","A15DB2251BC54B749EC57C8171DCEC6B","a9bb223d-3a31-49f5-9cdc-9b2d28b16018","92e08bb8-2bb0-463c-bc98-cd72da82565c","","null","<div style=""display: flex; justify-content: center; align-items: center;"">
                <img src=""images/causal/causal_series_8/causal_series_8_a.jpg"" style=""width: 300px; height: 300px;"" />
              </div>","null",""
"","","","","","html-keyboard-response","60","188268","0.0-60.0","A15DB2251BC54B749EC57C8171DCEC6B","a9bb223d-3a31-49f5-9cdc-9b2d28b16018","92e08bb8-2bb0-463c-bc98-cd72da82565c","","null","<div style=""display: flex; justify-content: center; align-items: center;"">
                <img src=""images/causal/causal_series_8/causal_series_8_b.jpg"" style=""width: 300px; height: 300px;"" />
              </div>","null",""
"","","","","","html-keyboard-response","61","191273","0.0-61.0","A15DB2251BC54B749EC57C8171DCEC6B","a9bb223d-3a31-49f5-9cdc-9b2d28b16018","92e08bb8-2bb0-463c-bc98-cd72da82565c","","null","<div style=""display: flex; justify-content: center; align-items: center;"">
                <img src=""images/causal/causal_series_8/causal_series_8_c.jpg"" style=""width: 300px; height: 300px;"" />
              </div>","null",""
"","","","","","html-button-response","62","193416","0.0-62.0","A15DB2251BC54B749EC57C8171DCEC6B","a9bb223d-3a31-49f5-9cdc-9b2d28b16018","92e08bb8-2bb0-463c-bc98-cd72da82565c","","2142","
    <div style=""display: flex; justify-content: center; align-items: center;"">
      <img src=""images/blue_deck_1.png"" style=""width: 300px; height: 300px; margin-right: 10px;"" />
      <img src=""images/red_deck_2.png"" style=""width: 300px; height: 300px;"" />
    </div>","0","0"
"","","","","","html-keyboard-response","63","196420","0.0-63.0-0.0-0.0","A15DB2251BC54B749EC57C8171DCEC6B","a9bb223d-3a31-49f5-9cdc-9b2d28b16018","92e08bb8-2bb0-463c-bc98-cd72da82565c","","null","<div style=""display: flex; justify-content: center; align-items: center;"">
                <img src=""images/causal/causal_series_8/causal_series_8_d.jpg"" style=""width: 300px; height: 300px;"" />
              </div>","null",""
"","","","","","html-keyboard-response","64","199423","0.0-64.0","A15DB2251BC54B749EC57C8171DCEC6B","a9bb223d-3a31-49f5-9cdc-9b2d28b16018","92e08bb8-2bb0-463c-bc98-cd72da82565c","","null","<div style=""display: flex; justify-content: center; align-items: center;"">
                <img src=""images/other/blank.jpg"" style=""width: 300px; height: 300px;"" />
              </div>","null",""
"","","","","","html-keyboard-response","65","202427","0.0-65.0","A15DB2251BC54B749EC57C8171DCEC6B","a9bb223d-3a31-49f5-9cdc-9b2d28b16018","92e08bb8-2bb0-463c-bc98-cd72da82565c","","null","<div style=""display: flex; justify-content: center; align-items: center;"">
                <img src=""images/causal/causal_series_4/causal_series_4_a.jpg"" style=""width: 300px; height: 300px;"" />
              </div>","null",""
"","","","","","html-keyboard-response","66","205433","0.0-66.0","A15DB2251BC54B749EC57C8171DCEC6B","a9bb223d-3a31-49f5-9cdc-9b2d28b16018","92e08bb8-2bb0-463c-bc98-cd72da82565c","","null","<div style=""display: flex; justify-content: center; align-items: center;"">
                <img src=""images/causal/causal_series_4/causal_series_4_b.jpg"" style=""width: 300px; height: 300px;"" />
              </div>","null",""
"","","","","","html-keyboard-response","67","208436","0.0-67.0","A15DB2251BC54B749EC57C8171DCEC6B","a9bb223d-3a31-49f5-9cdc-9b2d28b16018","92e08bb8-2bb0-463c-bc98-cd72da82565c","","null","<div style=""display: flex; justify-content: center; align-items: center;"">
                <img src=""images/causal/causal_series_4/causal_series_4_c.jpg"" style=""width: 300px; height: 300px;"" />
              </div>","null",""
"","","","","","html-button-response","68","213540","0.0-68.0","A15DB2251BC54B749EC57C8171DCEC6B","a9bb223d-3a31-49f5-9cdc-9b2d28b16018","92e08bb8-2bb0-463c-bc98-cd72da82565c","","5102","
    <div style=""display: flex; justify-content: center; align-items: center;"">
      <img src=""images/blue_deck_1.png"" style=""width: 300px; height: 300px; margin-right: 10px;"" />
      <img src=""images/red_deck_2.png"" style=""width: 300px; height: 300px;"" />
    </div>","1","1"
"","","","","","html-keyboard-response","69","216543","0.0-69.0-1.0-0.0","A15DB2251BC54B749EC57C8171DCEC6B","a9bb223d-3a31-49f5-9cdc-9b2d28b16018","92e08bb8-2bb0-463c-bc98-cd72da82565c","","null","<div style=""display: flex; justify-content: center; align-items: center;"">
                <img src=""images/semantic/semantic_series_3/semantic_series_3_d.jpg"" style=""width: 300px; height: 300px;"" />
              </div>","null",""
"","","","","","html-keyboard-response","70","219547","0.0-70.0","A15DB2251BC54B749EC57C8171DCEC6B","a9bb223d-3a31-49f5-9cdc-9b2d28b16018","92e08bb8-2bb0-463c-bc98-cd72da82565c","","null","<div style=""display: flex; justify-content: center; align-items: center;"">
                <img src=""images/other/blank.jpg"" style=""width: 300px; height: 300px;"" />
              </div>","null",""
"","","","","","html-keyboard-response","71","222552","0.0-71.0","A15DB2251BC54B749EC57C8171DCEC6B","a9bb223d-3a31-49f5-9cdc-9b2d28b16018","92e08bb8-2bb0-463c-bc98-cd72da82565c","","null","<div style=""display: flex; justify-content: center; align-items: center;"">
                <img src=""images/causal/causal_series_15/causal_series_15_a.jpg"" style=""width: 300px; height: 300px;"" />
              </div>","null",""
"","","","","","html-keyboard-response","72","225556","0.0-72.0","A15DB2251BC54B749EC57C8171DCEC6B","a9bb223d-3a31-49f5-9cdc-9b2d28b16018","92e08bb8-2bb0-463c-bc98-cd72da82565c","","null","<div style=""display: flex; justify-content: center; align-items: center;"">
                <img src=""images/causal/causal_series_15/causal_series_15_b.jpg"" style=""width: 300px; height: 300px;"" />
              </div>","null",""
"","","","","","html-keyboard-response","73","228564","0.0-73.0","A15DB2251BC54B749EC57C8171DCEC6B","a9bb223d-3a31-49f5-9cdc-9b2d28b16018","92e08bb8-2bb0-463c-bc98-cd72da82565c","","null","<div style=""display: flex; justify-content: center; align-items: center;"">
                <img src=""images/causal/causal_series_15/causal_series_15_c.jpg"" style=""width: 300px; height: 300px;"" />
              </div>","null",""
"","","","","","html-button-response","74","230743","0.0-74.0","A15DB2251BC54B749EC57C8171DCEC6B","a9bb223d-3a31-49f5-9cdc-9b2d28b16018","92e08bb8-2bb0-463c-bc98-cd72da82565c","","2177","
    <div style=""display: flex; justify-content: center; align-items: center;"">
      <img src=""images/blue_deck_1.png"" style=""width: 300px; height: 300px; margin-right: 10px;"" />
      <img src=""images/red_deck_2.png"" style=""width: 300px; height: 300px;"" />
    </div>","1","1"
"","","","","","html-keyboard-response","75","233749","0.0-75.0-1.0-0.0","A15DB2251BC54B749EC57C8171DCEC6B","a9bb223d-3a31-49f5-9cdc-9b2d28b16018","92e08bb8-2bb0-463c-bc98-cd72da82565c","","null","<div style=""display: flex; justify-content: center; align-items: center;"">
                <img src=""images/semantic/semantic_series_14/semantic_series_14_d.jpg"" style=""width: 300px; height: 300px;"" />
              </div>","null",""
"","","","","","html-keyboard-response","76","236752","0.0-76.0","A15DB2251BC54B749EC57C8171DCEC6B","a9bb223d-3a31-49f5-9cdc-9b2d28b16018","92e08bb8-2bb0-463c-bc98-cd72da82565c","","null","<div style=""display: flex; justify-content: center; align-items: center;"">
                <img src=""images/other/blank.jpg"" style=""width: 300px; height: 300px;"" />
              </div>","null",""
"","","","","","html-keyboard-response","77","239754","0.0-77.0","A15DB2251BC54B749EC57C8171DCEC6B","a9bb223d-3a31-49f5-9cdc-9b2d28b16018","92e08bb8-2bb0-463c-bc98-cd72da82565c","","null","<div style=""display: flex; justify-content: center; align-items: center;"">
                <img src=""images/causal/causal_series_13/causal_series_13_a.jpg"" style=""width: 300px; height: 300px;"" />
              </div>","null",""
"","","","","","html-keyboard-response","78","242757","0.0-78.0","A15DB2251BC54B749EC57C8171DCEC6B","a9bb223d-3a31-49f5-9cdc-9b2d28b16018","92e08bb8-2bb0-463c-bc98-cd72da82565c","","null","<div style=""display: flex; justify-content: center; align-items: center;"">
                <img src=""images/causal/causal_series_13/causal_series_13_b.jpg"" style=""width: 300px; height: 300px;"" />
              </div>","null",""
"","","","","","html-keyboard-response","79","245759","0.0-79.0","A15DB2251BC54B749EC57C8171DCEC6B","a9bb223d-3a31-49f5-9cdc-9b2d28b16018","92e08bb8-2bb0-463c-bc98-cd72da82565c","","null","<div style=""display: flex; justify-content: center; align-items: center;"">
                <img src=""images/causal/causal_series_13/causal_series_13_c.jpg"" style=""width: 300px; height: 300px;"" />
              </div>","null",""
"","","","","","html-button-response","80","251957","0.0-80.0","A15DB2251BC54B749EC57C8171DCEC6B","a9bb223d-3a31-49f5-9cdc-9b2d28b16018","92e08bb8-2bb0-463c-bc98-cd72da82565c","","6196","
    <div style=""display: flex; justify-content: center; align-items: center;"">
      <img src=""images/blue_deck_1.png"" style=""width: 300px; height: 300px; margin-right: 10px;"" />
      <img src=""images/red_deck_2.png"" style=""width: 300px; height: 300px;"" />
    </div>","0","0"
"","","","","","html-keyboard-response","81","254960","0.0-81.0-0.0-0.0","A15DB2251BC54B749EC57C8171DCEC6B","a9bb223d-3a31-49f5-9cdc-9b2d28b16018","92e08bb8-2bb0-463c-bc98-cd72da82565c","","null","<div style=""display: flex; justify-content: center; align-items: center;"">
                <img src=""images/causal/causal_series_13/causal_series_13_d.jpg"" style=""width: 300px; height: 300px;"" />
              </div>","null",""
"","","","","","html-keyboard-response","82","257965","0.0-82.0","A15DB2251BC54B749EC57C8171DCEC6B","a9bb223d-3a31-49f5-9cdc-9b2d28b16018","92e08bb8-2bb0-463c-bc98-cd72da82565c","","null","<div style=""display: flex; justify-content: center; align-items: center;"">
                <img src=""images/other/blank.jpg"" style=""width: 300px; height: 300px;"" />
              </div>","null",""
"","","","","","html-keyboard-response","83","260970","0.0-83.0","A15DB2251BC54B749EC57C8171DCEC6B","a9bb223d-3a31-49f5-9cdc-9b2d28b16018","92e08bb8-2bb0-463c-bc98-cd72da82565c","","null","<div style=""display: flex; justify-content: center; align-items: center;"">
                <img src=""images/causal/causal_series_11/causal_series_11_a.jpg"" style=""width: 300px; height: 300px;"" />
              </div>","null",""
"","","","","","html-keyboard-response","84","263973","0.0-84.0","A15DB2251BC54B749EC57C8171DCEC6B","a9bb223d-3a31-49f5-9cdc-9b2d28b16018","92e08bb8-2bb0-463c-bc98-cd72da82565c","","null","<div style=""display: flex; justify-content: center; align-items: center;"">
                <img src=""images/causal/causal_series_11/causal_series_11_b.jpg"" style=""width: 300px; height: 300px;"" />
              </div>","null",""
"","","","","","html-keyboard-response","85","266976","0.0-85.0","A15DB2251BC54B749EC57C8171DCEC6B","a9bb223d-3a31-49f5-9cdc-9b2d28b16018","92e08bb8-2bb0-463c-bc98-cd72da82565c","","null","<div style=""display: flex; justify-content: center; align-items: center;"">
                <img src=""images/causal/causal_series_11/causal_series_11_c.jpg"" style=""width: 300px; height: 300px;"" />
              </div>","null",""
"","","","","","html-button-response","86","268920","0.0-86.0","A15DB2251BC54B749EC57C8171DCEC6B","a9bb223d-3a31-49f5-9cdc-9b2d28b16018","92e08bb8-2bb0-463c-bc98-cd72da82565c","","1943","
    <div style=""display: flex; justify-content: center; align-items: center;"">
      <img src=""images/blue_deck_1.png"" style=""width: 300px; height: 300px; margin-right: 10px;"" />
      <img src=""images/red_deck_2.png"" style=""width: 300px; height: 300px;"" />
    </div>","1","1"
"","","","","","html-keyboard-response","87","271925","0.0-87.0-1.0-0.0","A15DB2251BC54B749EC57C8171DCEC6B","a9bb223d-3a31-49f5-9cdc-9b2d28b16018","92e08bb8-2bb0-463c-bc98-cd72da82565c","","null","<div style=""display: flex; justify-content: center; align-items: center;"">
                <img src=""images/semantic/semantic_series_10/semantic_series_10_d.jpg"" style=""width: 300px; height: 300px;"" />
              </div>","null",""
"","","","","","html-keyboard-response","88","274928","0.0-88.0","A15DB2251BC54B749EC57C8171DCEC6B","a9bb223d-3a31-49f5-9cdc-9b2d28b16018","92e08bb8-2bb0-463c-bc98-cd72da82565c","","null","<div style=""display: flex; justify-content: center; align-items: center;"">
                <img src=""images/other/blank.jpg"" style=""width: 300px; height: 300px;"" />
              </div>","null",""
"","","","","","html-keyboard-response","89","277930","0.0-89.0","A15DB2251BC54B749EC57C8171DCEC6B","a9bb223d-3a31-49f5-9cdc-9b2d28b16018","92e08bb8-2bb0-463c-bc98-cd72da82565c","","null","<div style=""display: flex; justify-content: center; align-items: center;"">
                <img src=""images/causal/causal_series_17/causal_series_17_a.jpg"" style=""width: 300px; height: 300px;"" />
              </div>","null",""
"","","","","","html-keyboard-response","90","280933","0.0-90.0","A15DB2251BC54B749EC57C8171DCEC6B","a9bb223d-3a31-49f5-9cdc-9b2d28b16018","92e08bb8-2bb0-463c-bc98-cd72da82565c","","null","<div style=""display: flex; justify-content: center; align-items: center;"">
                <img src=""images/causal/causal_series_17/causal_series_17_b.jpg"" style=""width: 300px; height: 300px;"" />
              </div>","null",""
"","","","","","html-keyboard-response","91","283935","0.0-91.0","A15DB2251BC54B749EC57C8171DCEC6B","a9bb223d-3a31-49f5-9cdc-9b2d28b16018","92e08bb8-2bb0-463c-bc98-cd72da82565c","","null","<div style=""display: flex; justify-content: center; align-items: center;"">
                <img src=""images/causal/causal_series_17/causal_series_17_c.jpg"" style=""width: 300px; height: 300px;"" />
              </div>","null",""
"","","","","","html-button-response","92","286854","0.0-92.0","A15DB2251BC54B749EC57C8171DCEC6B","a9bb223d-3a31-49f5-9cdc-9b2d28b16018","92e08bb8-2bb0-463c-bc98-cd72da82565c","","2917","
    <div style=""display: flex; justify-content: center; align-items: center;"">
      <img src=""images/blue_deck_1.png"" style=""width: 300px; height: 300px; margin-right: 10px;"" />
      <img src=""images/red_deck_2.png"" style=""width: 300px; height: 300px;"" />
    </div>","1","1"
"","","","","","html-keyboard-response","93","289856","0.0-93.0-1.0-0.0","A15DB2251BC54B749EC57C8171DCEC6B","a9bb223d-3a31-49f5-9cdc-9b2d28b16018","92e08bb8-2bb0-463c-bc98-cd72da82565c","","null","<div style=""display: flex; justify-content: center; align-items: center;"">
                <img src=""images/semantic/semantic_series_16/semantic_series_16_d.jpg"" style=""width: 300px; height: 300px;"" />
              </div>","null",""
"","","","","","html-keyboard-response","94","292859","0.0-94.0","A15DB2251BC54B749EC57C8171DCEC6B","a9bb223d-3a31-49f5-9cdc-9b2d28b16018","92e08bb8-2bb0-463c-bc98-cd72da82565c","","null","<div style=""display: flex; justify-content: center; align-items: center;"">
                <img src=""images/other/blank.jpg"" style=""width: 300px; height: 300px;"" />
              </div>","null",""
"","","","","","html-keyboard-response","95","295862","0.0-95.0","A15DB2251BC54B749EC57C8171DCEC6B","a9bb223d-3a31-49f5-9cdc-9b2d28b16018","92e08bb8-2bb0-463c-bc98-cd72da82565c","","null","<div style=""display: flex; justify-content: center; align-items: center;"">
                <img src=""images/causal/causal_series_16/causal_series_16_a.jpg"" style=""width: 300px; height: 300px;"" />
              </div>","null",""
"","","","","","html-keyboard-response","96","298864","0.0-96.0","A15DB2251BC54B749EC57C8171DCEC6B","a9bb223d-3a31-49f5-9cdc-9b2d28b16018","92e08bb8-2bb0-463c-bc98-cd72da82565c","","null","<div style=""display: flex; justify-content: center; align-items: center;"">
                <img src=""images/causal/causal_series_16/causal_series_16_b.jpg"" style=""width: 300px; height: 300px;"" />
              </div>","null",""
"","","","","","html-keyboard-response","97","301870","0.0-97.0","A15DB2251BC54B749EC57C8171DCEC6B","a9bb223d-3a31-49f5-9cdc-9b2d28b16018","92e08bb8-2bb0-463c-bc98-cd72da82565c","","null","<div style=""display: flex; justify-content: center; align-items: center;"">
                <img src=""images/causal/causal_series_16/causal_series_16_c.jpg"" style=""width: 300px; height: 300px;"" />
              </div>","null",""
"","","","","","html-button-response","98","307027","0.0-98.0","A15DB2251BC54B749EC57C8171DCEC6B","a9bb223d-3a31-49f5-9cdc-9b2d28b16018","92e08bb8-2bb0-463c-bc98-cd72da82565c","","5156","
    <div style=""display: flex; justify-content: center; align-items: center;"">
      <img src=""images/blue_deck_1.png"" style=""width: 300px; height: 300px; margin-right: 10px;"" />
      <img src=""images/red_deck_2.png"" style=""width: 300px; height: 300px;"" />
    </div>","0","0"
"","","","","","html-keyboard-response","99","310033","0.0-99.0-0.0-0.0","A15DB2251BC54B749EC57C8171DCEC6B","a9bb223d-3a31-49f5-9cdc-9b2d28b16018","92e08bb8-2bb0-463c-bc98-cd72da82565c","","null","<div style=""display: flex; justify-content: center; align-items: center;"">
                <img src=""images/causal/causal_series_16/causal_series_16_d.jpg"" style=""width: 300px; height: 300px;"" />
              </div>","null",""
"","","","","","html-keyboard-response","100","313037","0.0-100.0","A15DB2251BC54B749EC57C8171DCEC6B","a9bb223d-3a31-49f5-9cdc-9b2d28b16018","92e08bb8-2bb0-463c-bc98-cd72da82565c","","null","<div style=""display: flex; justify-content: center; align-items: center;"">
                <img src=""images/other/blank.jpg"" style=""width: 300px; height: 300px;"" />
              </div>","null",""
"","","","","","html-keyboard-response","101","316038","0.0-101.0","A15DB2251BC54B749EC57C8171DCEC6B","a9bb223d-3a31-49f5-9cdc-9b2d28b16018","92e08bb8-2bb0-463c-bc98-cd72da82565c","","null","<div style=""display: flex; justify-content: center; align-items: center;"">
                <img src=""images/causal/causal_series_5/causal_series_5_a.jpg"" style=""width: 300px; height: 300px;"" />
              </div>","null",""
"","","","","","html-keyboard-response","102","319041","0.0-102.0","A15DB2251BC54B749EC57C8171DCEC6B","a9bb223d-3a31-49f5-9cdc-9b2d28b16018","92e08bb8-2bb0-463c-bc98-cd72da82565c","","null","<div style=""display: flex; justify-content: center; align-items: center;"">
                <img src=""images/causal/causal_series_5/causal_series_5_b.jpg"" style=""width: 300px; height: 300px;"" />
              </div>","null",""
"","","","","","html-keyboard-response","103","322042","0.0-103.0","A15DB2251BC54B749EC57C8171DCEC6B","a9bb223d-3a31-49f5-9cdc-9b2d28b16018","92e08bb8-2bb0-463c-bc98-cd72da82565c","","null","<div style=""display: flex; justify-content: center; align-items: center;"">
                <img src=""images/causal/causal_series_5/causal_series_5_c.jpg"" style=""width: 300px; height: 300px;"" />
              </div>","null",""
"","","","","","html-button-response","104","324798","0.0-104.0","A15DB2251BC54B749EC57C8171DCEC6B","a9bb223d-3a31-49f5-9cdc-9b2d28b16018","92e08bb8-2bb0-463c-bc98-cd72da82565c","","2755","
    <div style=""display: flex; justify-content: center; align-items: center;"">
      <img src=""images/blue_deck_1.png"" style=""width: 300px; height: 300px; margin-right: 10px;"" />
      <img src=""images/red_deck_2.png"" style=""width: 300px; height: 300px;"" />
    </div>","0","0"
"","","","","","html-keyboard-response","105","327803","0.0-105.0-0.0-0.0","A15DB2251BC54B749EC57C8171DCEC6B","a9bb223d-3a31-49f5-9cdc-9b2d28b16018","92e08bb8-2bb0-463c-bc98-cd72da82565c","","null","<div style=""display: flex; justify-content: center; align-items: center;"">
                <img src=""images/causal/causal_series_5/causal_series_5_d.jpg"" style=""width: 300px; height: 300px;"" />
              </div>","null",""
"","","","","","html-keyboard-response","106","330806","0.0-106.0","A15DB2251BC54B749EC57C8171DCEC6B","a9bb223d-3a31-49f5-9cdc-9b2d28b16018","92e08bb8-2bb0-463c-bc98-cd72da82565c","","null","<div style=""display: flex; justify-content: center; align-items: center;"">
                <img src=""images/other/blank.jpg"" style=""width: 300px; height: 300px;"" />
              </div>","null",""
"","","","","","html-keyboard-response","107","333809","0.0-107.0","A15DB2251BC54B749EC57C8171DCEC6B","a9bb223d-3a31-49f5-9cdc-9b2d28b16018","92e08bb8-2bb0-463c-bc98-cd72da82565c","","null","<div style=""display: flex; justify-content: center; align-items: center;"">
                <img src=""images/causal/causal_series_9/causal_series_9_a.jpg"" style=""width: 300px; height: 300px;"" />
              </div>","null",""
"","","","","","html-keyboard-response","108","336812","0.0-108.0","A15DB2251BC54B749EC57C8171DCEC6B","a9bb223d-3a31-49f5-9cdc-9b2d28b16018","92e08bb8-2bb0-463c-bc98-cd72da82565c","","null","<div style=""display: flex; justify-content: center; align-items: center;"">
                <img src=""images/causal/causal_series_9/causal_series_9_b.jpg"" style=""width: 300px; height: 300px;"" />
              </div>","null",""
"","","","","","html-keyboard-response","109","339814","0.0-109.0","A15DB2251BC54B749EC57C8171DCEC6B","a9bb223d-3a31-49f5-9cdc-9b2d28b16018","92e08bb8-2bb0-463c-bc98-cd72da82565c","","null","<div style=""display: flex; justify-content: center; align-items: center;"">
                <img src=""images/causal/causal_series_9/causal_series_9_c.jpg"" style=""width: 300px; height: 300px;"" />
              </div>","null",""
"","","","","","html-button-response","110","341355","0.0-110.0","A15DB2251BC54B749EC57C8171DCEC6B","a9bb223d-3a31-49f5-9cdc-9b2d28b16018","92e08bb8-2bb0-463c-bc98-cd72da82565c","","1539","
    <div style=""display: flex; justify-content: center; align-items: center;"">
      <img src=""images/blue_deck_1.png"" style=""width: 300px; height: 300px; margin-right: 10px;"" />
      <img src=""images/red_deck_2.png"" style=""width: 300px; height: 300px;"" />
    </div>","0","0"
"","","","","","html-keyboard-response","111","344358","0.0-111.0-0.0-0.0","A15DB2251BC54B749EC57C8171DCEC6B","a9bb223d-3a31-49f5-9cdc-9b2d28b16018","92e08bb8-2bb0-463c-bc98-cd72da82565c","","null","<div style=""display: flex; justify-content: center; align-items: center;"">
                <img src=""images/causal/causal_series_9/causal_series_9_d.jpg"" style=""width: 300px; height: 300px;"" />
              </div>","null",""
"","","","","","html-keyboard-response","112","347363","0.0-112.0","A15DB2251BC54B749EC57C8171DCEC6B","a9bb223d-3a31-49f5-9cdc-9b2d28b16018","92e08bb8-2bb0-463c-bc98-cd72da82565c","","null","<div style=""display: flex; justify-content: center; align-items: center;"">
                <img src=""images/other/blank.jpg"" style=""width: 300px; height: 300px;"" />
              </div>","null",""
"","","","","","survey-text","113","372356","0.0-113.0","A15DB2251BC54B749EC57C8171DCEC6B","a9bb223d-3a31-49f5-9cdc-9b2d28b16018","92e08bb8-2bb0-463c-bc98-cd72da82565c","","24984","","{""Q0"":""one is blue and the other is red.""}",""
"","","","","","survey-text","114","394730","0.0-114.0","A15DB2251BC54B749EC57C8171DCEC6B","a9bb223d-3a31-49f5-9cdc-9b2d28b16018","92e08bb8-2bb0-463c-bc98-cd72da82565c","","22371","","{""Q0"":""I think the blue seemed a little more intriguing overall.""}",""
"","","","","","html-button-response","115","402111","0.0-115.0","A15DB2251BC54B749EC57C8171DCEC6B","a9bb223d-3a31-49f5-9cdc-9b2d28b16018","92e08bb8-2bb0-463c-bc98-cd72da82565c","","7380","Which color deck does the fourth image continue the story from the series?","0",""
"","","","","","html-button-response","116","404946","0.0-116.0","A15DB2251BC54B749EC57C8171DCEC6B","a9bb223d-3a31-49f5-9cdc-9b2d28b16018","92e08bb8-2bb0-463c-bc98-cd72da82565c","","2834","Which color deck does the fourth image not follow the story from the series?","1",""
"","","","","","survey-text","117","411148","0.0-117.0","A15DB2251BC54B749EC57C8171DCEC6B","a9bb223d-3a31-49f5-9cdc-9b2d28b16018","92e08bb8-2bb0-463c-bc98-cd72da82565c","","6198","","{""Q0"":""Female"",""Q1"":""23""}",""
"","","","","","instructions","118","416389","0.0-118.0","A15DB2251BC54B749EC57C8171DCEC6B","a9bb223d-3a31-49f5-9cdc-9b2d28b16018","92e08bb8-2bb0-463c-bc98-cd72da82565c","[{""page_index"":0,""viewing_time"":5240}]","5240","","",""
