"success","timeout","failed_images","failed_audio","failed_video","trial_type","trial_index","time_elapsed","internal_node_id","subject","subject_id","study_id","session_id","urlvar","current_url","view_history","rt","stimulus","response","choice","question_order"
"true","false","[]","[]","[]","preload","0","2261","0.0-0.0","CCDEDEFC1AA840479396F233628F695F","CCDEDEFC1AA840479396F233628F695F","13efd04d-a8f0-42d2-b76d-52c454488338","bea99957-1862-4ad8-9558-57b91e42ce64","{""participantId"":""CCDEDEFC1AA840479396F233628F695F"",""assignmentId"":""13efd04d-a8f0-42d2-b76d-52c454488338"",""projectId"":""bea99957-1862-4ad8-9558-57b91e42ce64""}","https://test12345.live/?participantId=CCDEDEFC1AA840479396F233628F695F&assignmentId=13efd04d-a8f0-42d2-b76d-52c454488338&projectId=bea99957-1862-4ad8-9558-57b91e42ce64","","","","","",""
"","","","","","instructions","1","5428","0.0-1.0","CCDEDEFC1AA840479396F233628F695F","CCDEDEFC1AA840479396F233628F695F","13efd04d-a8f0-42d2-b76d-52c454488338","bea99957-1862-4ad8-9558-57b91e42ce64","{""participantId"":""CCDEDEFC1AA840479396F233628F695F"",""assignmentId"":""13efd04d-a8f0-42d2-b76d-52c454488338"",""projectId"":""bea99957-1862-4ad8-9558-57b91e42ce64""}","https://test12345.live/?participantId=CCDEDEFC1AA840479396F233628F695F&assignmentId=13efd04d-a8f0-42d2-b76d-52c454488338&projectId=bea99957-1862-4ad8-9558-57b91e42ce64","[{""page_index"":0,""viewing_time"":3162}]","3163","","","",""
"","","","","","instructions","2","24119","0.0-2.0","CCDEDEFC1AA840479396F233628F695F","CCDEDEFC1AA840479396F233628F695F","13efd04d-a8f0-42d2-b76d-52c454488338","bea99957-1862-4ad8-9558-57b91e42ce64","{""participantId"":""CCDEDEFC1AA840479396F233628F695F"",""assignmentId"":""13efd04d-a8f0-42d2-b76d-52c454488338"",""projectId"":""bea99957-1862-4ad8-9558-57b91e42ce64""}","https://test12345.live/?participantId=CCDEDEFC1AA840479396F233628F695F&assignmentId=13efd04d-a8f0-42d2-b76d-52c454488338&projectId=bea99957-1862-4ad8-9558-57b91e42ce64","[{""page_index"":0,""viewing_time"":18688}]","18689","","","",""
"true","","","","","fullscreen","3","27044","0.0-3.0","CCDEDEFC1AA840479396F233628F695F","CCDEDEFC1AA840479396F233628F695F","13efd04d-a8f0-42d2-b76d-52c454488338","bea99957-1862-4ad8-9558-57b91e42ce64","{""participantId"":""CCDEDEFC1AA840479396F233628F695F"",""assignmentId"":""13efd04d-a8f0-42d2-b76d-52c454488338"",""projectId"":""bea99957-1862-4ad8-9558-57b91e42ce64""}","https://test12345.live/?participantId=CCDEDEFC1AA840479396F233628F695F&assignmentId=13efd04d-a8f0-42d2-b76d-52c454488338&projectId=bea99957-1862-4ad8-9558-57b91e42ce64","","1918","","","",""
"","","","","","instructions","4","36988","0.0-4.0","CCDEDEFC1AA840479396F233628F695F","CCDEDEFC1AA840479396F233628F695F","13efd04d-a8f0-42d2-b76d-52c454488338","bea99957-1862-4ad8-9558-57b91e42ce64","{""participantId"":""CCDEDEFC1AA840479396F233628F695F"",""assignmentId"":""13efd04d-a8f0-42d2-b76d-52c454488338"",""projectId"":""bea99957-1862-4ad8-9558-57b91e42ce64""}","https://test12345.live/?participantId=CCDEDEFC1AA840479396F233628F695F&assignmentId=13efd04d-a8f0-42d2-b76d-52c454488338&projectId=bea99957-1862-4ad8-9558-57b91e42ce64","[{""page_index"":0,""viewing_time"":9942}]","9942","","","",""
"","","","","","html-button-response","5","42550","0.0-5.0","CCDEDEFC1AA840479396F233628F695F","CCDEDEFC1AA840479396F233628F695F","13efd04d-a8f0-42d2-b76d-52c454488338","bea99957-1862-4ad8-9558-57b91e42ce64","{""participantId"":""CCDEDEFC1AA840479396F233628F695F"",""assignmentId"":""13efd04d-a8f0-42d2-b76d-52c454488338"",""projectId"":""bea99957-1862-4ad8-9558-57b91e42ce64""}","https://test12345.live/?participantId=CCDEDEFC1AA840479396F233628F695F&assignmentId=13efd04d-a8f0-42d2-b76d-52c454488338&projectId=bea99957-1862-4ad8-9558-57b91e42ce64","","5558","
    <div style=""display: flex; justify-content: center; align-items: center;"">
      <img src=""images/red_deck_2.png"" style=""width: 300px; height: 300px; margin-right: 10px;"" />
      <img src=""images/blue_deck_1.png"" style=""width: 300px; height: 300px;"" />
    </div>","1","1",""
"","","","","","html-keyboard-response","6","45562","0.0-6.0-0.0","CCDEDEFC1AA840479396F233628F695F","CCDEDEFC1AA840479396F233628F695F","13efd04d-a8f0-42d2-b76d-52c454488338","bea99957-1862-4ad8-9558-57b91e42ce64","{""participantId"":""CCDEDEFC1AA840479396F233628F695F"",""assignmentId"":""13efd04d-a8f0-42d2-b76d-52c454488338"",""projectId"":""bea99957-1862-4ad8-9558-57b91e42ce64""}","https://test12345.live/?participantId=CCDEDEFC1AA840479396F233628F695F&assignmentId=13efd04d-a8f0-42d2-b76d-52c454488338&projectId=bea99957-1862-4ad8-9558-57b91e42ce64","","null","<div style=""display: flex; justify-content: center; align-items: center;"">
                    <img src=""images/causal/causal_series_5/causal_series_5_a.jpg"" style=""width: 300px; height: 300px;"" />
                  </div>","null","",""
"","","","","","html-keyboard-response","7","48573","0.0-6.0-1.0","CCDEDEFC1AA840479396F233628F695F","CCDEDEFC1AA840479396F233628F695F","13efd04d-a8f0-42d2-b76d-52c454488338","bea99957-1862-4ad8-9558-57b91e42ce64","{""participantId"":""CCDEDEFC1AA840479396F233628F695F"",""assignmentId"":""13efd04d-a8f0-42d2-b76d-52c454488338"",""projectId"":""bea99957-1862-4ad8-9558-57b91e42ce64""}","https://test12345.live/?participantId=CCDEDEFC1AA840479396F233628F695F&assignmentId=13efd04d-a8f0-42d2-b76d-52c454488338&projectId=bea99957-1862-4ad8-9558-57b91e42ce64","","null","<div style=""display: flex; justify-content: center; align-items: center;"">
                    <img src=""images/causal/causal_series_5/causal_series_5_b.jpg"" style=""width: 300px; height: 300px;"" />
                  </div>","null","",""
"","","","","","html-keyboard-response","8","51586","0.0-6.0-2.0","CCDEDEFC1AA840479396F233628F695F","CCDEDEFC1AA840479396F233628F695F","13efd04d-a8f0-42d2-b76d-52c454488338","bea99957-1862-4ad8-9558-57b91e42ce64","{""participantId"":""CCDEDEFC1AA840479396F233628F695F"",""assignmentId"":""13efd04d-a8f0-42d2-b76d-52c454488338"",""projectId"":""bea99957-1862-4ad8-9558-57b91e42ce64""}","https://test12345.live/?participantId=CCDEDEFC1AA840479396F233628F695F&assignmentId=13efd04d-a8f0-42d2-b76d-52c454488338&projectId=bea99957-1862-4ad8-9558-57b91e42ce64","","null","<div style=""display: flex; justify-content: center; align-items: center;"">
                    <img src=""images/causal/causal_series_5/causal_series_5_c.jpg"" style=""width: 300px; height: 300px;"" />
                  </div>","null","",""
"","","","","","html-keyboard-response","9","54599","0.0-6.0-3.0","CCDEDEFC1AA840479396F233628F695F","CCDEDEFC1AA840479396F233628F695F","13efd04d-a8f0-42d2-b76d-52c454488338","bea99957-1862-4ad8-9558-57b91e42ce64","{""participantId"":""CCDEDEFC1AA840479396F233628F695F"",""assignmentId"":""13efd04d-a8f0-42d2-b76d-52c454488338"",""projectId"":""bea99957-1862-4ad8-9558-57b91e42ce64""}","https://test12345.live/?participantId=CCDEDEFC1AA840479396F233628F695F&assignmentId=13efd04d-a8f0-42d2-b76d-52c454488338&projectId=bea99957-1862-4ad8-9558-57b91e42ce64","","null","<div style=""display: flex; justify-content: center; align-items: center;"">
                    <img src=""images/causal/causal_series_5/causal_series_5_d.jpg"" style=""width: 300px; height: 300px;"" />
                  </div>","null","",""
"","","","","","html-button-response","10","56690","0.0-8.0","CCDEDEFC1AA840479396F233628F695F","CCDEDEFC1AA840479396F233628F695F","13efd04d-a8f0-42d2-b76d-52c454488338","bea99957-1862-4ad8-9558-57b91e42ce64","{""participantId"":""CCDEDEFC1AA840479396F233628F695F"",""assignmentId"":""13efd04d-a8f0-42d2-b76d-52c454488338"",""projectId"":""bea99957-1862-4ad8-9558-57b91e42ce64""}","https://test12345.live/?participantId=CCDEDEFC1AA840479396F233628F695F&assignmentId=13efd04d-a8f0-42d2-b76d-52c454488338&projectId=bea99957-1862-4ad8-9558-57b91e42ce64","","2089","Was there a person in the picture?","0","",""
"","","","","","survey-likert","11","60553","0.0-9.0","CCDEDEFC1AA840479396F233628F695F","CCDEDEFC1AA840479396F233628F695F","13efd04d-a8f0-42d2-b76d-52c454488338","bea99957-1862-4ad8-9558-57b91e42ce64","{""participantId"":""CCDEDEFC1AA840479396F233628F695F"",""assignmentId"":""13efd04d-a8f0-42d2-b76d-52c454488338"",""projectId"":""bea99957-1862-4ad8-9558-57b91e42ce64""}","https://test12345.live/?participantId=CCDEDEFC1AA840479396F233628F695F&assignmentId=13efd04d-a8f0-42d2-b76d-52c454488338&projectId=bea99957-1862-4ad8-9558-57b91e42ce64","","3856","","{""Q0"":4}","","[0]"
"","","","","","html-button-response","12","64239","0.0-10.0","CCDEDEFC1AA840479396F233628F695F","CCDEDEFC1AA840479396F233628F695F","13efd04d-a8f0-42d2-b76d-52c454488338","bea99957-1862-4ad8-9558-57b91e42ce64","{""participantId"":""CCDEDEFC1AA840479396F233628F695F"",""assignmentId"":""13efd04d-a8f0-42d2-b76d-52c454488338"",""projectId"":""bea99957-1862-4ad8-9558-57b91e42ce64""}","https://test12345.live/?participantId=CCDEDEFC1AA840479396F233628F695F&assignmentId=13efd04d-a8f0-42d2-b76d-52c454488338&projectId=bea99957-1862-4ad8-9558-57b91e42ce64","","3686","
    <div style=""display: flex; justify-content: center; align-items: center;"">
      <img src=""images/red_deck_2.png"" style=""width: 300px; height: 300px; margin-right: 10px;"" />
      <img src=""images/blue_deck_1.png"" style=""width: 300px; height: 300px;"" />
    </div>","0","0",""
"","","","","","html-keyboard-response","13","67245","0.0-12.0-0.0","CCDEDEFC1AA840479396F233628F695F","CCDEDEFC1AA840479396F233628F695F","13efd04d-a8f0-42d2-b76d-52c454488338","bea99957-1862-4ad8-9558-57b91e42ce64","{""participantId"":""CCDEDEFC1AA840479396F233628F695F"",""assignmentId"":""13efd04d-a8f0-42d2-b76d-52c454488338"",""projectId"":""bea99957-1862-4ad8-9558-57b91e42ce64""}","https://test12345.live/?participantId=CCDEDEFC1AA840479396F233628F695F&assignmentId=13efd04d-a8f0-42d2-b76d-52c454488338&projectId=bea99957-1862-4ad8-9558-57b91e42ce64","","null","<div style=""display: flex; justify-content: center; align-items: center;"">
                    <img src=""images/semantic/semantic_series_10/semantic_series_10_a.jpg"" style=""width: 300px; height: 300px;"" />
                  </div>","null","",""
"","","","","","html-keyboard-response","14","70254","0.0-12.0-1.0","CCDEDEFC1AA840479396F233628F695F","CCDEDEFC1AA840479396F233628F695F","13efd04d-a8f0-42d2-b76d-52c454488338","bea99957-1862-4ad8-9558-57b91e42ce64","{""participantId"":""CCDEDEFC1AA840479396F233628F695F"",""assignmentId"":""13efd04d-a8f0-42d2-b76d-52c454488338"",""projectId"":""bea99957-1862-4ad8-9558-57b91e42ce64""}","https://test12345.live/?participantId=CCDEDEFC1AA840479396F233628F695F&assignmentId=13efd04d-a8f0-42d2-b76d-52c454488338&projectId=bea99957-1862-4ad8-9558-57b91e42ce64","","null","<div style=""display: flex; justify-content: center; align-items: center;"">
                    <img src=""images/semantic/semantic_series_10/semantic_series_10_b.jpg"" style=""width: 300px; height: 300px;"" />
                  </div>","null","",""
"","","","","","html-keyboard-response","15","73258","0.0-12.0-2.0","CCDEDEFC1AA840479396F233628F695F","CCDEDEFC1AA840479396F233628F695F","13efd04d-a8f0-42d2-b76d-52c454488338","bea99957-1862-4ad8-9558-57b91e42ce64","{""participantId"":""CCDEDEFC1AA840479396F233628F695F"",""assignmentId"":""13efd04d-a8f0-42d2-b76d-52c454488338"",""projectId"":""bea99957-1862-4ad8-9558-57b91e42ce64""}","https://test12345.live/?participantId=CCDEDEFC1AA840479396F233628F695F&assignmentId=13efd04d-a8f0-42d2-b76d-52c454488338&projectId=bea99957-1862-4ad8-9558-57b91e42ce64","","null","<div style=""display: flex; justify-content: center; align-items: center;"">
                    <img src=""images/semantic/semantic_series_10/semantic_series_10_c.jpg"" style=""width: 300px; height: 300px;"" />
                  </div>","null","",""
"","","","","","html-keyboard-response","16","76271","0.0-12.0-3.0","CCDEDEFC1AA840479396F233628F695F","CCDEDEFC1AA840479396F233628F695F","13efd04d-a8f0-42d2-b76d-52c454488338","bea99957-1862-4ad8-9558-57b91e42ce64","{""participantId"":""CCDEDEFC1AA840479396F233628F695F"",""assignmentId"":""13efd04d-a8f0-42d2-b76d-52c454488338"",""projectId"":""bea99957-1862-4ad8-9558-57b91e42ce64""}","https://test12345.live/?participantId=CCDEDEFC1AA840479396F233628F695F&assignmentId=13efd04d-a8f0-42d2-b76d-52c454488338&projectId=bea99957-1862-4ad8-9558-57b91e42ce64","","null","<div style=""display: flex; justify-content: center; align-items: center;"">
                    <img src=""images/semantic/semantic_series_10/semantic_series_10_d.jpg"" style=""width: 300px; height: 300px;"" />
                  </div>","null","",""
"","","","","","html-button-response","17","78555","0.0-13.0","CCDEDEFC1AA840479396F233628F695F","CCDEDEFC1AA840479396F233628F695F","13efd04d-a8f0-42d2-b76d-52c454488338","bea99957-1862-4ad8-9558-57b91e42ce64","{""participantId"":""CCDEDEFC1AA840479396F233628F695F"",""assignmentId"":""13efd04d-a8f0-42d2-b76d-52c454488338"",""projectId"":""bea99957-1862-4ad8-9558-57b91e42ce64""}","https://test12345.live/?participantId=CCDEDEFC1AA840479396F233628F695F&assignmentId=13efd04d-a8f0-42d2-b76d-52c454488338&projectId=bea99957-1862-4ad8-9558-57b91e42ce64","","2282","Was there a person in the picture?","1","",""
"","","","","","survey-likert","18","81927","0.0-14.0","CCDEDEFC1AA840479396F233628F695F","CCDEDEFC1AA840479396F233628F695F","13efd04d-a8f0-42d2-b76d-52c454488338","bea99957-1862-4ad8-9558-57b91e42ce64","{""participantId"":""CCDEDEFC1AA840479396F233628F695F"",""assignmentId"":""13efd04d-a8f0-42d2-b76d-52c454488338"",""projectId"":""bea99957-1862-4ad8-9558-57b91e42ce64""}","https://test12345.live/?participantId=CCDEDEFC1AA840479396F233628F695F&assignmentId=13efd04d-a8f0-42d2-b76d-52c454488338&projectId=bea99957-1862-4ad8-9558-57b91e42ce64","","3370","","{""Q0"":4}","","[0]"
"","","","","","html-button-response","19","84916","0.0-15.0","CCDEDEFC1AA840479396F233628F695F","CCDEDEFC1AA840479396F233628F695F","13efd04d-a8f0-42d2-b76d-52c454488338","bea99957-1862-4ad8-9558-57b91e42ce64","{""participantId"":""CCDEDEFC1AA840479396F233628F695F"",""assignmentId"":""13efd04d-a8f0-42d2-b76d-52c454488338"",""projectId"":""bea99957-1862-4ad8-9558-57b91e42ce64""}","https://test12345.live/?participantId=CCDEDEFC1AA840479396F233628F695F&assignmentId=13efd04d-a8f0-42d2-b76d-52c454488338&projectId=bea99957-1862-4ad8-9558-57b91e42ce64","","2984","
    <div style=""display: flex; justify-content: center; align-items: center;"">
      <img src=""images/red_deck_2.png"" style=""width: 300px; height: 300px; margin-right: 10px;"" />
      <img src=""images/blue_deck_1.png"" style=""width: 300px; height: 300px;"" />
    </div>","1","1",""
"","","","","","html-keyboard-response","20","87926","0.0-16.0-0.0","CCDEDEFC1AA840479396F233628F695F","CCDEDEFC1AA840479396F233628F695F","13efd04d-a8f0-42d2-b76d-52c454488338","bea99957-1862-4ad8-9558-57b91e42ce64","{""participantId"":""CCDEDEFC1AA840479396F233628F695F"",""assignmentId"":""13efd04d-a8f0-42d2-b76d-52c454488338"",""projectId"":""bea99957-1862-4ad8-9558-57b91e42ce64""}","https://test12345.live/?participantId=CCDEDEFC1AA840479396F233628F695F&assignmentId=13efd04d-a8f0-42d2-b76d-52c454488338&projectId=bea99957-1862-4ad8-9558-57b91e42ce64","","null","<div style=""display: flex; justify-content: center; align-items: center;"">
                    <img src=""images/causal/causal_series_7/causal_series_7_a.jpg"" style=""width: 300px; height: 300px;"" />
                  </div>","null","",""
"","","","","","html-keyboard-response","21","90933","0.0-16.0-1.0","CCDEDEFC1AA840479396F233628F695F","CCDEDEFC1AA840479396F233628F695F","13efd04d-a8f0-42d2-b76d-52c454488338","bea99957-1862-4ad8-9558-57b91e42ce64","{""participantId"":""CCDEDEFC1AA840479396F233628F695F"",""assignmentId"":""13efd04d-a8f0-42d2-b76d-52c454488338"",""projectId"":""bea99957-1862-4ad8-9558-57b91e42ce64""}","https://test12345.live/?participantId=CCDEDEFC1AA840479396F233628F695F&assignmentId=13efd04d-a8f0-42d2-b76d-52c454488338&projectId=bea99957-1862-4ad8-9558-57b91e42ce64","","null","<div style=""display: flex; justify-content: center; align-items: center;"">
                    <img src=""images/causal/causal_series_7/causal_series_7_b.jpg"" style=""width: 300px; height: 300px;"" />
                  </div>","null","",""
"","","","","","html-keyboard-response","22","93951","0.0-16.0-2.0","CCDEDEFC1AA840479396F233628F695F","CCDEDEFC1AA840479396F233628F695F","13efd04d-a8f0-42d2-b76d-52c454488338","bea99957-1862-4ad8-9558-57b91e42ce64","{""participantId"":""CCDEDEFC1AA840479396F233628F695F"",""assignmentId"":""13efd04d-a8f0-42d2-b76d-52c454488338"",""projectId"":""bea99957-1862-4ad8-9558-57b91e42ce64""}","https://test12345.live/?participantId=CCDEDEFC1AA840479396F233628F695F&assignmentId=13efd04d-a8f0-42d2-b76d-52c454488338&projectId=bea99957-1862-4ad8-9558-57b91e42ce64","","null","<div style=""display: flex; justify-content: center; align-items: center;"">
                    <img src=""images/causal/causal_series_7/causal_series_7_c.jpg"" style=""width: 300px; height: 300px;"" />
                  </div>","null","",""
"","","","","","html-keyboard-response","23","96964","0.0-16.0-3.0","CCDEDEFC1AA840479396F233628F695F","CCDEDEFC1AA840479396F233628F695F","13efd04d-a8f0-42d2-b76d-52c454488338","bea99957-1862-4ad8-9558-57b91e42ce64","{""participantId"":""CCDEDEFC1AA840479396F233628F695F"",""assignmentId"":""13efd04d-a8f0-42d2-b76d-52c454488338"",""projectId"":""bea99957-1862-4ad8-9558-57b91e42ce64""}","https://test12345.live/?participantId=CCDEDEFC1AA840479396F233628F695F&assignmentId=13efd04d-a8f0-42d2-b76d-52c454488338&projectId=bea99957-1862-4ad8-9558-57b91e42ce64","","null","<div style=""display: flex; justify-content: center; align-items: center;"">
                    <img src=""images/causal/causal_series_7/causal_series_7_d.jpg"" style=""width: 300px; height: 300px;"" />
                  </div>","null","",""
"","","","","","html-button-response","24","98986","0.0-18.0","CCDEDEFC1AA840479396F233628F695F","CCDEDEFC1AA840479396F233628F695F","13efd04d-a8f0-42d2-b76d-52c454488338","bea99957-1862-4ad8-9558-57b91e42ce64","{""participantId"":""CCDEDEFC1AA840479396F233628F695F"",""assignmentId"":""13efd04d-a8f0-42d2-b76d-52c454488338"",""projectId"":""bea99957-1862-4ad8-9558-57b91e42ce64""}","https://test12345.live/?participantId=CCDEDEFC1AA840479396F233628F695F&assignmentId=13efd04d-a8f0-42d2-b76d-52c454488338&projectId=bea99957-1862-4ad8-9558-57b91e42ce64","","2019","Was there a person in the picture?","1","",""
"","","","","","survey-likert","25","101518","0.0-19.0","CCDEDEFC1AA840479396F233628F695F","CCDEDEFC1AA840479396F233628F695F","13efd04d-a8f0-42d2-b76d-52c454488338","bea99957-1862-4ad8-9558-57b91e42ce64","{""participantId"":""CCDEDEFC1AA840479396F233628F695F"",""assignmentId"":""13efd04d-a8f0-42d2-b76d-52c454488338"",""projectId"":""bea99957-1862-4ad8-9558-57b91e42ce64""}","https://test12345.live/?participantId=CCDEDEFC1AA840479396F233628F695F&assignmentId=13efd04d-a8f0-42d2-b76d-52c454488338&projectId=bea99957-1862-4ad8-9558-57b91e42ce64","","2529","","{""Q0"":4}","","[0]"
"","","","","","html-button-response","26","103221","0.0-20.0","CCDEDEFC1AA840479396F233628F695F","CCDEDEFC1AA840479396F233628F695F","13efd04d-a8f0-42d2-b76d-52c454488338","bea99957-1862-4ad8-9558-57b91e42ce64","{""participantId"":""CCDEDEFC1AA840479396F233628F695F"",""assignmentId"":""13efd04d-a8f0-42d2-b76d-52c454488338"",""projectId"":""bea99957-1862-4ad8-9558-57b91e42ce64""}","https://test12345.live/?participantId=CCDEDEFC1AA840479396F233628F695F&assignmentId=13efd04d-a8f0-42d2-b76d-52c454488338&projectId=bea99957-1862-4ad8-9558-57b91e42ce64","","1699","
    <div style=""display: flex; justify-content: center; align-items: center;"">
      <img src=""images/red_deck_2.png"" style=""width: 300px; height: 300px; margin-right: 10px;"" />
      <img src=""images/blue_deck_1.png"" style=""width: 300px; height: 300px;"" />
    </div>","0","0",""
"","","","","","html-keyboard-response","27","106238","0.0-22.0-0.0","CCDEDEFC1AA840479396F233628F695F","CCDEDEFC1AA840479396F233628F695F","13efd04d-a8f0-42d2-b76d-52c454488338","bea99957-1862-4ad8-9558-57b91e42ce64","{""participantId"":""CCDEDEFC1AA840479396F233628F695F"",""assignmentId"":""13efd04d-a8f0-42d2-b76d-52c454488338"",""projectId"":""bea99957-1862-4ad8-9558-57b91e42ce64""}","https://test12345.live/?participantId=CCDEDEFC1AA840479396F233628F695F&assignmentId=13efd04d-a8f0-42d2-b76d-52c454488338&projectId=bea99957-1862-4ad8-9558-57b91e42ce64","","null","<div style=""display: flex; justify-content: center; align-items: center;"">
                    <img src=""images/semantic/semantic_series_15/semantic_series_15_a.jpg"" style=""width: 300px; height: 300px;"" />
                  </div>","null","",""
"","","","","","html-keyboard-response","28","109246","0.0-22.0-1.0","CCDEDEFC1AA840479396F233628F695F","CCDEDEFC1AA840479396F233628F695F","13efd04d-a8f0-42d2-b76d-52c454488338","bea99957-1862-4ad8-9558-57b91e42ce64","{""participantId"":""CCDEDEFC1AA840479396F233628F695F"",""assignmentId"":""13efd04d-a8f0-42d2-b76d-52c454488338"",""projectId"":""bea99957-1862-4ad8-9558-57b91e42ce64""}","https://test12345.live/?participantId=CCDEDEFC1AA840479396F233628F695F&assignmentId=13efd04d-a8f0-42d2-b76d-52c454488338&projectId=bea99957-1862-4ad8-9558-57b91e42ce64","","null","<div style=""display: flex; justify-content: center; align-items: center;"">
                    <img src=""images/semantic/semantic_series_15/semantic_series_15_b.jpg"" style=""width: 300px; height: 300px;"" />
                  </div>","null","",""
"","","","","","html-keyboard-response","29","112250","0.0-22.0-2.0","CCDEDEFC1AA840479396F233628F695F","CCDEDEFC1AA840479396F233628F695F","13efd04d-a8f0-42d2-b76d-52c454488338","bea99957-1862-4ad8-9558-57b91e42ce64","{""participantId"":""CCDEDEFC1AA840479396F233628F695F"",""assignmentId"":""13efd04d-a8f0-42d2-b76d-52c454488338"",""projectId"":""bea99957-1862-4ad8-9558-57b91e42ce64""}","https://test12345.live/?participantId=CCDEDEFC1AA840479396F233628F695F&assignmentId=13efd04d-a8f0-42d2-b76d-52c454488338&projectId=bea99957-1862-4ad8-9558-57b91e42ce64","","null","<div style=""display: flex; justify-content: center; align-items: center;"">
                    <img src=""images/semantic/semantic_series_15/semantic_series_15_c.jpg"" style=""width: 300px; height: 300px;"" />
                  </div>","null","",""
"","","","","","html-keyboard-response","30","115255","0.0-22.0-3.0","CCDEDEFC1AA840479396F233628F695F","CCDEDEFC1AA840479396F233628F695F","13efd04d-a8f0-42d2-b76d-52c454488338","bea99957-1862-4ad8-9558-57b91e42ce64","{""participantId"":""CCDEDEFC1AA840479396F233628F695F"",""assignmentId"":""13efd04d-a8f0-42d2-b76d-52c454488338"",""projectId"":""bea99957-1862-4ad8-9558-57b91e42ce64""}","https://test12345.live/?participantId=CCDEDEFC1AA840479396F233628F695F&assignmentId=13efd04d-a8f0-42d2-b76d-52c454488338&projectId=bea99957-1862-4ad8-9558-57b91e42ce64","","null","<div style=""display: flex; justify-content: center; align-items: center;"">
                    <img src=""images/semantic/semantic_series_15/semantic_series_15_d.jpg"" style=""width: 300px; height: 300px;"" />
                  </div>","null","",""
"","","","","","html-button-response","31","117643","0.0-23.0","CCDEDEFC1AA840479396F233628F695F","CCDEDEFC1AA840479396F233628F695F","13efd04d-a8f0-42d2-b76d-52c454488338","bea99957-1862-4ad8-9558-57b91e42ce64","{""participantId"":""CCDEDEFC1AA840479396F233628F695F"",""assignmentId"":""13efd04d-a8f0-42d2-b76d-52c454488338"",""projectId"":""bea99957-1862-4ad8-9558-57b91e42ce64""}","https://test12345.live/?participantId=CCDEDEFC1AA840479396F233628F695F&assignmentId=13efd04d-a8f0-42d2-b76d-52c454488338&projectId=bea99957-1862-4ad8-9558-57b91e42ce64","","2386","Was there a person in the picture?","1","",""
"","","","","","survey-likert","32","120701","0.0-24.0","CCDEDEFC1AA840479396F233628F695F","CCDEDEFC1AA840479396F233628F695F","13efd04d-a8f0-42d2-b76d-52c454488338","bea99957-1862-4ad8-9558-57b91e42ce64","{""participantId"":""CCDEDEFC1AA840479396F233628F695F"",""assignmentId"":""13efd04d-a8f0-42d2-b76d-52c454488338"",""projectId"":""bea99957-1862-4ad8-9558-57b91e42ce64""}","https://test12345.live/?participantId=CCDEDEFC1AA840479396F233628F695F&assignmentId=13efd04d-a8f0-42d2-b76d-52c454488338&projectId=bea99957-1862-4ad8-9558-57b91e42ce64","","3055","","{""Q0"":1}","","[0]"
"","","","","","html-button-response","33","122537","0.0-25.0","CCDEDEFC1AA840479396F233628F695F","CCDEDEFC1AA840479396F233628F695F","13efd04d-a8f0-42d2-b76d-52c454488338","bea99957-1862-4ad8-9558-57b91e42ce64","{""participantId"":""CCDEDEFC1AA840479396F233628F695F"",""assignmentId"":""13efd04d-a8f0-42d2-b76d-52c454488338"",""projectId"":""bea99957-1862-4ad8-9558-57b91e42ce64""}","https://test12345.live/?participantId=CCDEDEFC1AA840479396F233628F695F&assignmentId=13efd04d-a8f0-42d2-b76d-52c454488338&projectId=bea99957-1862-4ad8-9558-57b91e42ce64","","1833","
    <div style=""display: flex; justify-content: center; align-items: center;"">
      <img src=""images/red_deck_2.png"" style=""width: 300px; height: 300px; margin-right: 10px;"" />
      <img src=""images/blue_deck_1.png"" style=""width: 300px; height: 300px;"" />
    </div>","1","1",""
"","","","","","html-keyboard-response","34","125556","0.0-26.0-0.0","CCDEDEFC1AA840479396F233628F695F","CCDEDEFC1AA840479396F233628F695F","13efd04d-a8f0-42d2-b76d-52c454488338","bea99957-1862-4ad8-9558-57b91e42ce64","{""participantId"":""CCDEDEFC1AA840479396F233628F695F"",""assignmentId"":""13efd04d-a8f0-42d2-b76d-52c454488338"",""projectId"":""bea99957-1862-4ad8-9558-57b91e42ce64""}","https://test12345.live/?participantId=CCDEDEFC1AA840479396F233628F695F&assignmentId=13efd04d-a8f0-42d2-b76d-52c454488338&projectId=bea99957-1862-4ad8-9558-57b91e42ce64","","null","<div style=""display: flex; justify-content: center; align-items: center;"">
                    <img src=""images/causal/causal_series_8/causal_series_8_a.jpg"" style=""width: 300px; height: 300px;"" />
                  </div>","null","",""
"","","","","","html-keyboard-response","35","128573","0.0-26.0-1.0","CCDEDEFC1AA840479396F233628F695F","CCDEDEFC1AA840479396F233628F695F","13efd04d-a8f0-42d2-b76d-52c454488338","bea99957-1862-4ad8-9558-57b91e42ce64","{""participantId"":""CCDEDEFC1AA840479396F233628F695F"",""assignmentId"":""13efd04d-a8f0-42d2-b76d-52c454488338"",""projectId"":""bea99957-1862-4ad8-9558-57b91e42ce64""}","https://test12345.live/?participantId=CCDEDEFC1AA840479396F233628F695F&assignmentId=13efd04d-a8f0-42d2-b76d-52c454488338&projectId=bea99957-1862-4ad8-9558-57b91e42ce64","","null","<div style=""display: flex; justify-content: center; align-items: center;"">
                    <img src=""images/causal/causal_series_8/causal_series_8_b.jpg"" style=""width: 300px; height: 300px;"" />
                  </div>","null","",""
"","","","","","html-keyboard-response","36","131583","0.0-26.0-2.0","CCDEDEFC1AA840479396F233628F695F","CCDEDEFC1AA840479396F233628F695F","13efd04d-a8f0-42d2-b76d-52c454488338","bea99957-1862-4ad8-9558-57b91e42ce64","{""participantId"":""CCDEDEFC1AA840479396F233628F695F"",""assignmentId"":""13efd04d-a8f0-42d2-b76d-52c454488338"",""projectId"":""bea99957-1862-4ad8-9558-57b91e42ce64""}","https://test12345.live/?participantId=CCDEDEFC1AA840479396F233628F695F&assignmentId=13efd04d-a8f0-42d2-b76d-52c454488338&projectId=bea99957-1862-4ad8-9558-57b91e42ce64","","null","<div style=""display: flex; justify-content: center; align-items: center;"">
                    <img src=""images/causal/causal_series_8/causal_series_8_c.jpg"" style=""width: 300px; height: 300px;"" />
                  </div>","null","",""
"","","","","","html-keyboard-response","37","134595","0.0-26.0-3.0","CCDEDEFC1AA840479396F233628F695F","CCDEDEFC1AA840479396F233628F695F","13efd04d-a8f0-42d2-b76d-52c454488338","bea99957-1862-4ad8-9558-57b91e42ce64","{""participantId"":""CCDEDEFC1AA840479396F233628F695F"",""assignmentId"":""13efd04d-a8f0-42d2-b76d-52c454488338"",""projectId"":""bea99957-1862-4ad8-9558-57b91e42ce64""}","https://test12345.live/?participantId=CCDEDEFC1AA840479396F233628F695F&assignmentId=13efd04d-a8f0-42d2-b76d-52c454488338&projectId=bea99957-1862-4ad8-9558-57b91e42ce64","","null","<div style=""display: flex; justify-content: center; align-items: center;"">
                    <img src=""images/causal/causal_series_8/causal_series_8_d.jpg"" style=""width: 300px; height: 300px;"" />
                  </div>","null","",""
"","","","","","html-button-response","38","136239","0.0-28.0","CCDEDEFC1AA840479396F233628F695F","CCDEDEFC1AA840479396F233628F695F","13efd04d-a8f0-42d2-b76d-52c454488338","bea99957-1862-4ad8-9558-57b91e42ce64","{""participantId"":""CCDEDEFC1AA840479396F233628F695F"",""assignmentId"":""13efd04d-a8f0-42d2-b76d-52c454488338"",""projectId"":""bea99957-1862-4ad8-9558-57b91e42ce64""}","https://test12345.live/?participantId=CCDEDEFC1AA840479396F233628F695F&assignmentId=13efd04d-a8f0-42d2-b76d-52c454488338&projectId=bea99957-1862-4ad8-9558-57b91e42ce64","","1641","Was there a person in the picture?","0","",""
"","","","","","survey-likert","39","138904","0.0-29.0","CCDEDEFC1AA840479396F233628F695F","CCDEDEFC1AA840479396F233628F695F","13efd04d-a8f0-42d2-b76d-52c454488338","bea99957-1862-4ad8-9558-57b91e42ce64","{""participantId"":""CCDEDEFC1AA840479396F233628F695F"",""assignmentId"":""13efd04d-a8f0-42d2-b76d-52c454488338"",""projectId"":""bea99957-1862-4ad8-9558-57b91e42ce64""}","https://test12345.live/?participantId=CCDEDEFC1AA840479396F233628F695F&assignmentId=13efd04d-a8f0-42d2-b76d-52c454488338&projectId=bea99957-1862-4ad8-9558-57b91e42ce64","","2662","","{""Q0"":3}","","[0]"
"","","","","","html-button-response","40","140001","0.0-30.0","CCDEDEFC1AA840479396F233628F695F","CCDEDEFC1AA840479396F233628F695F","13efd04d-a8f0-42d2-b76d-52c454488338","bea99957-1862-4ad8-9558-57b91e42ce64","{""participantId"":""CCDEDEFC1AA840479396F233628F695F"",""assignmentId"":""13efd04d-a8f0-42d2-b76d-52c454488338"",""projectId"":""bea99957-1862-4ad8-9558-57b91e42ce64""}","https://test12345.live/?participantId=CCDEDEFC1AA840479396F233628F695F&assignmentId=13efd04d-a8f0-42d2-b76d-52c454488338&projectId=bea99957-1862-4ad8-9558-57b91e42ce64","","1093","
    <div style=""display: flex; justify-content: center; align-items: center;"">
      <img src=""images/red_deck_2.png"" style=""width: 300px; height: 300px; margin-right: 10px;"" />
      <img src=""images/blue_deck_1.png"" style=""width: 300px; height: 300px;"" />
    </div>","0","0",""
"","","","","","html-keyboard-response","41","143004","0.0-32.0-0.0","CCDEDEFC1AA840479396F233628F695F","CCDEDEFC1AA840479396F233628F695F","13efd04d-a8f0-42d2-b76d-52c454488338","bea99957-1862-4ad8-9558-57b91e42ce64","{""participantId"":""CCDEDEFC1AA840479396F233628F695F"",""assignmentId"":""13efd04d-a8f0-42d2-b76d-52c454488338"",""projectId"":""bea99957-1862-4ad8-9558-57b91e42ce64""}","https://test12345.live/?participantId=CCDEDEFC1AA840479396F233628F695F&assignmentId=13efd04d-a8f0-42d2-b76d-52c454488338&projectId=bea99957-1862-4ad8-9558-57b91e42ce64","","null","<div style=""display: flex; justify-content: center; align-items: center;"">
                    <img src=""images/semantic/semantic_series_3/semantic_series_3_a.jpg"" style=""width: 300px; height: 300px;"" />
                  </div>","null","",""
"","","","","","html-keyboard-response","42","146012","0.0-32.0-1.0","CCDEDEFC1AA840479396F233628F695F","CCDEDEFC1AA840479396F233628F695F","13efd04d-a8f0-42d2-b76d-52c454488338","bea99957-1862-4ad8-9558-57b91e42ce64","{""participantId"":""CCDEDEFC1AA840479396F233628F695F"",""assignmentId"":""13efd04d-a8f0-42d2-b76d-52c454488338"",""projectId"":""bea99957-1862-4ad8-9558-57b91e42ce64""}","https://test12345.live/?participantId=CCDEDEFC1AA840479396F233628F695F&assignmentId=13efd04d-a8f0-42d2-b76d-52c454488338&projectId=bea99957-1862-4ad8-9558-57b91e42ce64","","null","<div style=""display: flex; justify-content: center; align-items: center;"">
                    <img src=""images/semantic/semantic_series_3/semantic_series_3_b.jpg"" style=""width: 300px; height: 300px;"" />
                  </div>","null","",""
"","","","","","html-keyboard-response","43","149019","0.0-32.0-2.0","CCDEDEFC1AA840479396F233628F695F","CCDEDEFC1AA840479396F233628F695F","13efd04d-a8f0-42d2-b76d-52c454488338","bea99957-1862-4ad8-9558-57b91e42ce64","{""participantId"":""CCDEDEFC1AA840479396F233628F695F"",""assignmentId"":""13efd04d-a8f0-42d2-b76d-52c454488338"",""projectId"":""bea99957-1862-4ad8-9558-57b91e42ce64""}","https://test12345.live/?participantId=CCDEDEFC1AA840479396F233628F695F&assignmentId=13efd04d-a8f0-42d2-b76d-52c454488338&projectId=bea99957-1862-4ad8-9558-57b91e42ce64","","null","<div style=""display: flex; justify-content: center; align-items: center;"">
                    <img src=""images/semantic/semantic_series_3/semantic_series_3_c.jpg"" style=""width: 300px; height: 300px;"" />
                  </div>","null","",""
"","","","","","html-keyboard-response","44","152023","0.0-32.0-3.0","CCDEDEFC1AA840479396F233628F695F","CCDEDEFC1AA840479396F233628F695F","13efd04d-a8f0-42d2-b76d-52c454488338","bea99957-1862-4ad8-9558-57b91e42ce64","{""participantId"":""CCDEDEFC1AA840479396F233628F695F"",""assignmentId"":""13efd04d-a8f0-42d2-b76d-52c454488338"",""projectId"":""bea99957-1862-4ad8-9558-57b91e42ce64""}","https://test12345.live/?participantId=CCDEDEFC1AA840479396F233628F695F&assignmentId=13efd04d-a8f0-42d2-b76d-52c454488338&projectId=bea99957-1862-4ad8-9558-57b91e42ce64","","null","<div style=""display: flex; justify-content: center; align-items: center;"">
                    <img src=""images/semantic/semantic_series_3/semantic_series_3_d.jpg"" style=""width: 300px; height: 300px;"" />
                  </div>","null","",""
"","","","","","html-button-response","45","153760","0.0-33.0","CCDEDEFC1AA840479396F233628F695F","CCDEDEFC1AA840479396F233628F695F","13efd04d-a8f0-42d2-b76d-52c454488338","bea99957-1862-4ad8-9558-57b91e42ce64","{""participantId"":""CCDEDEFC1AA840479396F233628F695F"",""assignmentId"":""13efd04d-a8f0-42d2-b76d-52c454488338"",""projectId"":""bea99957-1862-4ad8-9558-57b91e42ce64""}","https://test12345.live/?participantId=CCDEDEFC1AA840479396F233628F695F&assignmentId=13efd04d-a8f0-42d2-b76d-52c454488338&projectId=bea99957-1862-4ad8-9558-57b91e42ce64","","1735","Was there a person in the picture?","0","",""
"","","","","","survey-likert","46","156125","0.0-34.0","CCDEDEFC1AA840479396F233628F695F","CCDEDEFC1AA840479396F233628F695F","13efd04d-a8f0-42d2-b76d-52c454488338","bea99957-1862-4ad8-9558-57b91e42ce64","{""participantId"":""CCDEDEFC1AA840479396F233628F695F"",""assignmentId"":""13efd04d-a8f0-42d2-b76d-52c454488338"",""projectId"":""bea99957-1862-4ad8-9558-57b91e42ce64""}","https://test12345.live/?participantId=CCDEDEFC1AA840479396F233628F695F&assignmentId=13efd04d-a8f0-42d2-b76d-52c454488338&projectId=bea99957-1862-4ad8-9558-57b91e42ce64","","2363","","{""Q0"":1}","","[0]"
"","","","","","html-button-response","47","157332","0.0-35.0","CCDEDEFC1AA840479396F233628F695F","CCDEDEFC1AA840479396F233628F695F","13efd04d-a8f0-42d2-b76d-52c454488338","bea99957-1862-4ad8-9558-57b91e42ce64","{""participantId"":""CCDEDEFC1AA840479396F233628F695F"",""assignmentId"":""13efd04d-a8f0-42d2-b76d-52c454488338"",""projectId"":""bea99957-1862-4ad8-9558-57b91e42ce64""}","https://test12345.live/?participantId=CCDEDEFC1AA840479396F233628F695F&assignmentId=13efd04d-a8f0-42d2-b76d-52c454488338&projectId=bea99957-1862-4ad8-9558-57b91e42ce64","","1203","
    <div style=""display: flex; justify-content: center; align-items: center;"">
      <img src=""images/red_deck_2.png"" style=""width: 300px; height: 300px; margin-right: 10px;"" />
      <img src=""images/blue_deck_1.png"" style=""width: 300px; height: 300px;"" />
    </div>","1","1",""
"","","","","","html-keyboard-response","48","160348","0.0-36.0-0.0","CCDEDEFC1AA840479396F233628F695F","CCDEDEFC1AA840479396F233628F695F","13efd04d-a8f0-42d2-b76d-52c454488338","bea99957-1862-4ad8-9558-57b91e42ce64","{""participantId"":""CCDEDEFC1AA840479396F233628F695F"",""assignmentId"":""13efd04d-a8f0-42d2-b76d-52c454488338"",""projectId"":""bea99957-1862-4ad8-9558-57b91e42ce64""}","https://test12345.live/?participantId=CCDEDEFC1AA840479396F233628F695F&assignmentId=13efd04d-a8f0-42d2-b76d-52c454488338&projectId=bea99957-1862-4ad8-9558-57b91e42ce64","","null","<div style=""display: flex; justify-content: center; align-items: center;"">
                    <img src=""images/causal/causal_series_11/causal_series_11_a.jpg"" style=""width: 300px; height: 300px;"" />
                  </div>","null","",""
"","","","","","html-keyboard-response","49","163351","0.0-36.0-1.0","CCDEDEFC1AA840479396F233628F695F","CCDEDEFC1AA840479396F233628F695F","13efd04d-a8f0-42d2-b76d-52c454488338","bea99957-1862-4ad8-9558-57b91e42ce64","{""participantId"":""CCDEDEFC1AA840479396F233628F695F"",""assignmentId"":""13efd04d-a8f0-42d2-b76d-52c454488338"",""projectId"":""bea99957-1862-4ad8-9558-57b91e42ce64""}","https://test12345.live/?participantId=CCDEDEFC1AA840479396F233628F695F&assignmentId=13efd04d-a8f0-42d2-b76d-52c454488338&projectId=bea99957-1862-4ad8-9558-57b91e42ce64","","null","<div style=""display: flex; justify-content: center; align-items: center;"">
                    <img src=""images/causal/causal_series_11/causal_series_11_b.jpg"" style=""width: 300px; height: 300px;"" />
                  </div>","null","",""
"","","","","","html-keyboard-response","50","166365","0.0-36.0-2.0","CCDEDEFC1AA840479396F233628F695F","CCDEDEFC1AA840479396F233628F695F","13efd04d-a8f0-42d2-b76d-52c454488338","bea99957-1862-4ad8-9558-57b91e42ce64","{""participantId"":""CCDEDEFC1AA840479396F233628F695F"",""assignmentId"":""13efd04d-a8f0-42d2-b76d-52c454488338"",""projectId"":""bea99957-1862-4ad8-9558-57b91e42ce64""}","https://test12345.live/?participantId=CCDEDEFC1AA840479396F233628F695F&assignmentId=13efd04d-a8f0-42d2-b76d-52c454488338&projectId=bea99957-1862-4ad8-9558-57b91e42ce64","","null","<div style=""display: flex; justify-content: center; align-items: center;"">
                    <img src=""images/causal/causal_series_11/causal_series_11_c.jpg"" style=""width: 300px; height: 300px;"" />
                  </div>","null","",""
"","","","","","html-keyboard-response","51","169369","0.0-36.0-3.0","CCDEDEFC1AA840479396F233628F695F","CCDEDEFC1AA840479396F233628F695F","13efd04d-a8f0-42d2-b76d-52c454488338","bea99957-1862-4ad8-9558-57b91e42ce64","{""participantId"":""CCDEDEFC1AA840479396F233628F695F"",""assignmentId"":""13efd04d-a8f0-42d2-b76d-52c454488338"",""projectId"":""bea99957-1862-4ad8-9558-57b91e42ce64""}","https://test12345.live/?participantId=CCDEDEFC1AA840479396F233628F695F&assignmentId=13efd04d-a8f0-42d2-b76d-52c454488338&projectId=bea99957-1862-4ad8-9558-57b91e42ce64","","null","<div style=""display: flex; justify-content: center; align-items: center;"">
                    <img src=""images/causal/causal_series_11/causal_series_11_d.jpg"" style=""width: 300px; height: 300px;"" />
                  </div>","null","",""
"","","","","","html-button-response","52","171286","0.0-38.0","CCDEDEFC1AA840479396F233628F695F","CCDEDEFC1AA840479396F233628F695F","13efd04d-a8f0-42d2-b76d-52c454488338","bea99957-1862-4ad8-9558-57b91e42ce64","{""participantId"":""CCDEDEFC1AA840479396F233628F695F"",""assignmentId"":""13efd04d-a8f0-42d2-b76d-52c454488338"",""projectId"":""bea99957-1862-4ad8-9558-57b91e42ce64""}","https://test12345.live/?participantId=CCDEDEFC1AA840479396F233628F695F&assignmentId=13efd04d-a8f0-42d2-b76d-52c454488338&projectId=bea99957-1862-4ad8-9558-57b91e42ce64","","1915","Was there a person in the picture?","0","",""
"","","","","","survey-likert","53","173626","0.0-39.0","CCDEDEFC1AA840479396F233628F695F","CCDEDEFC1AA840479396F233628F695F","13efd04d-a8f0-42d2-b76d-52c454488338","bea99957-1862-4ad8-9558-57b91e42ce64","{""participantId"":""CCDEDEFC1AA840479396F233628F695F"",""assignmentId"":""13efd04d-a8f0-42d2-b76d-52c454488338"",""projectId"":""bea99957-1862-4ad8-9558-57b91e42ce64""}","https://test12345.live/?participantId=CCDEDEFC1AA840479396F233628F695F&assignmentId=13efd04d-a8f0-42d2-b76d-52c454488338&projectId=bea99957-1862-4ad8-9558-57b91e42ce64","","2338","","{""Q0"":0}","","[0]"
"","","","","","html-button-response","54","174843","0.0-40.0","CCDEDEFC1AA840479396F233628F695F","CCDEDEFC1AA840479396F233628F695F","13efd04d-a8f0-42d2-b76d-52c454488338","bea99957-1862-4ad8-9558-57b91e42ce64","{""participantId"":""CCDEDEFC1AA840479396F233628F695F"",""assignmentId"":""13efd04d-a8f0-42d2-b76d-52c454488338"",""projectId"":""bea99957-1862-4ad8-9558-57b91e42ce64""}","https://test12345.live/?participantId=CCDEDEFC1AA840479396F233628F695F&assignmentId=13efd04d-a8f0-42d2-b76d-52c454488338&projectId=bea99957-1862-4ad8-9558-57b91e42ce64","","1214","
    <div style=""display: flex; justify-content: center; align-items: center;"">
      <img src=""images/red_deck_2.png"" style=""width: 300px; height: 300px; margin-right: 10px;"" />
      <img src=""images/blue_deck_1.png"" style=""width: 300px; height: 300px;"" />
    </div>","0","0",""
"","","","","","html-keyboard-response","55","177860","0.0-42.0-0.0","CCDEDEFC1AA840479396F233628F695F","CCDEDEFC1AA840479396F233628F695F","13efd04d-a8f0-42d2-b76d-52c454488338","bea99957-1862-4ad8-9558-57b91e42ce64","{""participantId"":""CCDEDEFC1AA840479396F233628F695F"",""assignmentId"":""13efd04d-a8f0-42d2-b76d-52c454488338"",""projectId"":""bea99957-1862-4ad8-9558-57b91e42ce64""}","https://test12345.live/?participantId=CCDEDEFC1AA840479396F233628F695F&assignmentId=13efd04d-a8f0-42d2-b76d-52c454488338&projectId=bea99957-1862-4ad8-9558-57b91e42ce64","","null","<div style=""display: flex; justify-content: center; align-items: center;"">
                    <img src=""images/semantic/semantic_series_11/semantic_series_11_a.jpg"" style=""width: 300px; height: 300px;"" />
                  </div>","null","",""
"","","","","","html-keyboard-response","56","180865","0.0-42.0-1.0","CCDEDEFC1AA840479396F233628F695F","CCDEDEFC1AA840479396F233628F695F","13efd04d-a8f0-42d2-b76d-52c454488338","bea99957-1862-4ad8-9558-57b91e42ce64","{""participantId"":""CCDEDEFC1AA840479396F233628F695F"",""assignmentId"":""13efd04d-a8f0-42d2-b76d-52c454488338"",""projectId"":""bea99957-1862-4ad8-9558-57b91e42ce64""}","https://test12345.live/?participantId=CCDEDEFC1AA840479396F233628F695F&assignmentId=13efd04d-a8f0-42d2-b76d-52c454488338&projectId=bea99957-1862-4ad8-9558-57b91e42ce64","","null","<div style=""display: flex; justify-content: center; align-items: center;"">
                    <img src=""images/semantic/semantic_series_11/semantic_series_11_b.jpg"" style=""width: 300px; height: 300px;"" />
                  </div>","null","",""
"","","","","","html-keyboard-response","57","183873","0.0-42.0-2.0","CCDEDEFC1AA840479396F233628F695F","CCDEDEFC1AA840479396F233628F695F","13efd04d-a8f0-42d2-b76d-52c454488338","bea99957-1862-4ad8-9558-57b91e42ce64","{""participantId"":""CCDEDEFC1AA840479396F233628F695F"",""assignmentId"":""13efd04d-a8f0-42d2-b76d-52c454488338"",""projectId"":""bea99957-1862-4ad8-9558-57b91e42ce64""}","https://test12345.live/?participantId=CCDEDEFC1AA840479396F233628F695F&assignmentId=13efd04d-a8f0-42d2-b76d-52c454488338&projectId=bea99957-1862-4ad8-9558-57b91e42ce64","","null","<div style=""display: flex; justify-content: center; align-items: center;"">
                    <img src=""images/semantic/semantic_series_11/semantic_series_11_c.jpg"" style=""width: 300px; height: 300px;"" />
                  </div>","null","",""
"","","","","","html-keyboard-response","58","186890","0.0-42.0-3.0","CCDEDEFC1AA840479396F233628F695F","CCDEDEFC1AA840479396F233628F695F","13efd04d-a8f0-42d2-b76d-52c454488338","bea99957-1862-4ad8-9558-57b91e42ce64","{""participantId"":""CCDEDEFC1AA840479396F233628F695F"",""assignmentId"":""13efd04d-a8f0-42d2-b76d-52c454488338"",""projectId"":""bea99957-1862-4ad8-9558-57b91e42ce64""}","https://test12345.live/?participantId=CCDEDEFC1AA840479396F233628F695F&assignmentId=13efd04d-a8f0-42d2-b76d-52c454488338&projectId=bea99957-1862-4ad8-9558-57b91e42ce64","","null","<div style=""display: flex; justify-content: center; align-items: center;"">
                    <img src=""images/semantic/semantic_series_11/semantic_series_11_d.jpg"" style=""width: 300px; height: 300px;"" />
                  </div>","null","",""
"","","","","","html-button-response","59","188436","0.0-43.0","CCDEDEFC1AA840479396F233628F695F","CCDEDEFC1AA840479396F233628F695F","13efd04d-a8f0-42d2-b76d-52c454488338","bea99957-1862-4ad8-9558-57b91e42ce64","{""participantId"":""CCDEDEFC1AA840479396F233628F695F"",""assignmentId"":""13efd04d-a8f0-42d2-b76d-52c454488338"",""projectId"":""bea99957-1862-4ad8-9558-57b91e42ce64""}","https://test12345.live/?participantId=CCDEDEFC1AA840479396F233628F695F&assignmentId=13efd04d-a8f0-42d2-b76d-52c454488338&projectId=bea99957-1862-4ad8-9558-57b91e42ce64","","1543","Was there a person in the picture?","0","",""
"","","","","","survey-likert","60","190563","0.0-44.0","CCDEDEFC1AA840479396F233628F695F","CCDEDEFC1AA840479396F233628F695F","13efd04d-a8f0-42d2-b76d-52c454488338","bea99957-1862-4ad8-9558-57b91e42ce64","{""participantId"":""CCDEDEFC1AA840479396F233628F695F"",""assignmentId"":""13efd04d-a8f0-42d2-b76d-52c454488338"",""projectId"":""bea99957-1862-4ad8-9558-57b91e42ce64""}","https://test12345.live/?participantId=CCDEDEFC1AA840479396F233628F695F&assignmentId=13efd04d-a8f0-42d2-b76d-52c454488338&projectId=bea99957-1862-4ad8-9558-57b91e42ce64","","2125","","{""Q0"":0}","","[0]"
"","","","","","html-button-response","61","191644","0.0-45.0","CCDEDEFC1AA840479396F233628F695F","CCDEDEFC1AA840479396F233628F695F","13efd04d-a8f0-42d2-b76d-52c454488338","bea99957-1862-4ad8-9558-57b91e42ce64","{""participantId"":""CCDEDEFC1AA840479396F233628F695F"",""assignmentId"":""13efd04d-a8f0-42d2-b76d-52c454488338"",""projectId"":""bea99957-1862-4ad8-9558-57b91e42ce64""}","https://test12345.live/?participantId=CCDEDEFC1AA840479396F233628F695F&assignmentId=13efd04d-a8f0-42d2-b76d-52c454488338&projectId=bea99957-1862-4ad8-9558-57b91e42ce64","","1076","
    <div style=""display: flex; justify-content: center; align-items: center;"">
      <img src=""images/red_deck_2.png"" style=""width: 300px; height: 300px; margin-right: 10px;"" />
      <img src=""images/blue_deck_1.png"" style=""width: 300px; height: 300px;"" />
    </div>","1","1",""
"","","","","","html-keyboard-response","62","194660","0.0-46.0-0.0","CCDEDEFC1AA840479396F233628F695F","CCDEDEFC1AA840479396F233628F695F","13efd04d-a8f0-42d2-b76d-52c454488338","bea99957-1862-4ad8-9558-57b91e42ce64","{""participantId"":""CCDEDEFC1AA840479396F233628F695F"",""assignmentId"":""13efd04d-a8f0-42d2-b76d-52c454488338"",""projectId"":""bea99957-1862-4ad8-9558-57b91e42ce64""}","https://test12345.live/?participantId=CCDEDEFC1AA840479396F233628F695F&assignmentId=13efd04d-a8f0-42d2-b76d-52c454488338&projectId=bea99957-1862-4ad8-9558-57b91e42ce64","","null","<div style=""display: flex; justify-content: center; align-items: center;"">
                    <img src=""images/causal/causal_series_17/causal_series_17_a.jpg"" style=""width: 300px; height: 300px;"" />
                  </div>","null","",""
"","","","","","html-keyboard-response","63","197675","0.0-46.0-1.0","CCDEDEFC1AA840479396F233628F695F","CCDEDEFC1AA840479396F233628F695F","13efd04d-a8f0-42d2-b76d-52c454488338","bea99957-1862-4ad8-9558-57b91e42ce64","{""participantId"":""CCDEDEFC1AA840479396F233628F695F"",""assignmentId"":""13efd04d-a8f0-42d2-b76d-52c454488338"",""projectId"":""bea99957-1862-4ad8-9558-57b91e42ce64""}","https://test12345.live/?participantId=CCDEDEFC1AA840479396F233628F695F&assignmentId=13efd04d-a8f0-42d2-b76d-52c454488338&projectId=bea99957-1862-4ad8-9558-57b91e42ce64","","null","<div style=""display: flex; justify-content: center; align-items: center;"">
                    <img src=""images/causal/causal_series_17/causal_series_17_b.jpg"" style=""width: 300px; height: 300px;"" />
                  </div>","null","",""
"","","","","","html-keyboard-response","64","200685","0.0-46.0-2.0","CCDEDEFC1AA840479396F233628F695F","CCDEDEFC1AA840479396F233628F695F","13efd04d-a8f0-42d2-b76d-52c454488338","bea99957-1862-4ad8-9558-57b91e42ce64","{""participantId"":""CCDEDEFC1AA840479396F233628F695F"",""assignmentId"":""13efd04d-a8f0-42d2-b76d-52c454488338"",""projectId"":""bea99957-1862-4ad8-9558-57b91e42ce64""}","https://test12345.live/?participantId=CCDEDEFC1AA840479396F233628F695F&assignmentId=13efd04d-a8f0-42d2-b76d-52c454488338&projectId=bea99957-1862-4ad8-9558-57b91e42ce64","","null","<div style=""display: flex; justify-content: center; align-items: center;"">
                    <img src=""images/causal/causal_series_17/causal_series_17_c.jpg"" style=""width: 300px; height: 300px;"" />
                  </div>","null","",""
"","","","","","html-keyboard-response","65","203701","0.0-46.0-3.0","CCDEDEFC1AA840479396F233628F695F","CCDEDEFC1AA840479396F233628F695F","13efd04d-a8f0-42d2-b76d-52c454488338","bea99957-1862-4ad8-9558-57b91e42ce64","{""participantId"":""CCDEDEFC1AA840479396F233628F695F"",""assignmentId"":""13efd04d-a8f0-42d2-b76d-52c454488338"",""projectId"":""bea99957-1862-4ad8-9558-57b91e42ce64""}","https://test12345.live/?participantId=CCDEDEFC1AA840479396F233628F695F&assignmentId=13efd04d-a8f0-42d2-b76d-52c454488338&projectId=bea99957-1862-4ad8-9558-57b91e42ce64","","null","<div style=""display: flex; justify-content: center; align-items: center;"">
                    <img src=""images/causal/causal_series_17/causal_series_17_d.jpg"" style=""width: 300px; height: 300px;"" />
                  </div>","null","",""
"","","","","","html-button-response","66","205479","0.0-48.0","CCDEDEFC1AA840479396F233628F695F","CCDEDEFC1AA840479396F233628F695F","13efd04d-a8f0-42d2-b76d-52c454488338","bea99957-1862-4ad8-9558-57b91e42ce64","{""participantId"":""CCDEDEFC1AA840479396F233628F695F"",""assignmentId"":""13efd04d-a8f0-42d2-b76d-52c454488338"",""projectId"":""bea99957-1862-4ad8-9558-57b91e42ce64""}","https://test12345.live/?participantId=CCDEDEFC1AA840479396F233628F695F&assignmentId=13efd04d-a8f0-42d2-b76d-52c454488338&projectId=bea99957-1862-4ad8-9558-57b91e42ce64","","1775","Was there a person in the picture?","0","",""
"","","","","","survey-likert","67","208329","0.0-49.0","CCDEDEFC1AA840479396F233628F695F","CCDEDEFC1AA840479396F233628F695F","13efd04d-a8f0-42d2-b76d-52c454488338","bea99957-1862-4ad8-9558-57b91e42ce64","{""participantId"":""CCDEDEFC1AA840479396F233628F695F"",""assignmentId"":""13efd04d-a8f0-42d2-b76d-52c454488338"",""projectId"":""bea99957-1862-4ad8-9558-57b91e42ce64""}","https://test12345.live/?participantId=CCDEDEFC1AA840479396F233628F695F&assignmentId=13efd04d-a8f0-42d2-b76d-52c454488338&projectId=bea99957-1862-4ad8-9558-57b91e42ce64","","2847","","{""Q0"":0}","","[0]"
"","","","","","html-button-response","68","209402","0.0-50.0","CCDEDEFC1AA840479396F233628F695F","CCDEDEFC1AA840479396F233628F695F","13efd04d-a8f0-42d2-b76d-52c454488338","bea99957-1862-4ad8-9558-57b91e42ce64","{""participantId"":""CCDEDEFC1AA840479396F233628F695F"",""assignmentId"":""13efd04d-a8f0-42d2-b76d-52c454488338"",""projectId"":""bea99957-1862-4ad8-9558-57b91e42ce64""}","https://test12345.live/?participantId=CCDEDEFC1AA840479396F233628F695F&assignmentId=13efd04d-a8f0-42d2-b76d-52c454488338&projectId=bea99957-1862-4ad8-9558-57b91e42ce64","","1069","
    <div style=""display: flex; justify-content: center; align-items: center;"">
      <img src=""images/red_deck_2.png"" style=""width: 300px; height: 300px; margin-right: 10px;"" />
      <img src=""images/blue_deck_1.png"" style=""width: 300px; height: 300px;"" />
    </div>","0","0",""
"","","","","","html-keyboard-response","69","212406","0.0-52.0-0.0","CCDEDEFC1AA840479396F233628F695F","CCDEDEFC1AA840479396F233628F695F","13efd04d-a8f0-42d2-b76d-52c454488338","bea99957-1862-4ad8-9558-57b91e42ce64","{""participantId"":""CCDEDEFC1AA840479396F233628F695F"",""assignmentId"":""13efd04d-a8f0-42d2-b76d-52c454488338"",""projectId"":""bea99957-1862-4ad8-9558-57b91e42ce64""}","https://test12345.live/?participantId=CCDEDEFC1AA840479396F233628F695F&assignmentId=13efd04d-a8f0-42d2-b76d-52c454488338&projectId=bea99957-1862-4ad8-9558-57b91e42ce64","","null","<div style=""display: flex; justify-content: center; align-items: center;"">
                    <img src=""images/semantic/semantic_series_16/semantic_series_16_a.jpg"" style=""width: 300px; height: 300px;"" />
                  </div>","null","",""
"","","","","","html-keyboard-response","70","215414","0.0-52.0-1.0","CCDEDEFC1AA840479396F233628F695F","CCDEDEFC1AA840479396F233628F695F","13efd04d-a8f0-42d2-b76d-52c454488338","bea99957-1862-4ad8-9558-57b91e42ce64","{""participantId"":""CCDEDEFC1AA840479396F233628F695F"",""assignmentId"":""13efd04d-a8f0-42d2-b76d-52c454488338"",""projectId"":""bea99957-1862-4ad8-9558-57b91e42ce64""}","https://test12345.live/?participantId=CCDEDEFC1AA840479396F233628F695F&assignmentId=13efd04d-a8f0-42d2-b76d-52c454488338&projectId=bea99957-1862-4ad8-9558-57b91e42ce64","","null","<div style=""display: flex; justify-content: center; align-items: center;"">
                    <img src=""images/semantic/semantic_series_16/semantic_series_16_b.jpg"" style=""width: 300px; height: 300px;"" />
                  </div>","null","",""
"","","","","","html-keyboard-response","71","218422","0.0-52.0-2.0","CCDEDEFC1AA840479396F233628F695F","CCDEDEFC1AA840479396F233628F695F","13efd04d-a8f0-42d2-b76d-52c454488338","bea99957-1862-4ad8-9558-57b91e42ce64","{""participantId"":""CCDEDEFC1AA840479396F233628F695F"",""assignmentId"":""13efd04d-a8f0-42d2-b76d-52c454488338"",""projectId"":""bea99957-1862-4ad8-9558-57b91e42ce64""}","https://test12345.live/?participantId=CCDEDEFC1AA840479396F233628F695F&assignmentId=13efd04d-a8f0-42d2-b76d-52c454488338&projectId=bea99957-1862-4ad8-9558-57b91e42ce64","","null","<div style=""display: flex; justify-content: center; align-items: center;"">
                    <img src=""images/semantic/semantic_series_16/semantic_series_16_c.jpg"" style=""width: 300px; height: 300px;"" />
                  </div>","null","",""
"","","","","","html-keyboard-response","72","221435","0.0-52.0-3.0","CCDEDEFC1AA840479396F233628F695F","CCDEDEFC1AA840479396F233628F695F","13efd04d-a8f0-42d2-b76d-52c454488338","bea99957-1862-4ad8-9558-57b91e42ce64","{""participantId"":""CCDEDEFC1AA840479396F233628F695F"",""assignmentId"":""13efd04d-a8f0-42d2-b76d-52c454488338"",""projectId"":""bea99957-1862-4ad8-9558-57b91e42ce64""}","https://test12345.live/?participantId=CCDEDEFC1AA840479396F233628F695F&assignmentId=13efd04d-a8f0-42d2-b76d-52c454488338&projectId=bea99957-1862-4ad8-9558-57b91e42ce64","","null","<div style=""display: flex; justify-content: center; align-items: center;"">
                    <img src=""images/semantic/semantic_series_16/semantic_series_16_d.jpg"" style=""width: 300px; height: 300px;"" />
                  </div>","null","",""
"","","","","","html-button-response","73","223183","0.0-53.0","CCDEDEFC1AA840479396F233628F695F","CCDEDEFC1AA840479396F233628F695F","13efd04d-a8f0-42d2-b76d-52c454488338","bea99957-1862-4ad8-9558-57b91e42ce64","{""participantId"":""CCDEDEFC1AA840479396F233628F695F"",""assignmentId"":""13efd04d-a8f0-42d2-b76d-52c454488338"",""projectId"":""bea99957-1862-4ad8-9558-57b91e42ce64""}","https://test12345.live/?participantId=CCDEDEFC1AA840479396F233628F695F&assignmentId=13efd04d-a8f0-42d2-b76d-52c454488338&projectId=bea99957-1862-4ad8-9558-57b91e42ce64","","1745","Was there a person in the picture?","0","",""
"","","","","","survey-likert","74","225350","0.0-54.0","CCDEDEFC1AA840479396F233628F695F","CCDEDEFC1AA840479396F233628F695F","13efd04d-a8f0-42d2-b76d-52c454488338","bea99957-1862-4ad8-9558-57b91e42ce64","{""participantId"":""CCDEDEFC1AA840479396F233628F695F"",""assignmentId"":""13efd04d-a8f0-42d2-b76d-52c454488338"",""projectId"":""bea99957-1862-4ad8-9558-57b91e42ce64""}","https://test12345.live/?participantId=CCDEDEFC1AA840479396F233628F695F&assignmentId=13efd04d-a8f0-42d2-b76d-52c454488338&projectId=bea99957-1862-4ad8-9558-57b91e42ce64","","2165","","{""Q0"":0}","","[0]"
"","","","","","html-button-response","75","226533","0.0-55.0","CCDEDEFC1AA840479396F233628F695F","CCDEDEFC1AA840479396F233628F695F","13efd04d-a8f0-42d2-b76d-52c454488338","bea99957-1862-4ad8-9558-57b91e42ce64","{""participantId"":""CCDEDEFC1AA840479396F233628F695F"",""assignmentId"":""13efd04d-a8f0-42d2-b76d-52c454488338"",""projectId"":""bea99957-1862-4ad8-9558-57b91e42ce64""}","https://test12345.live/?participantId=CCDEDEFC1AA840479396F233628F695F&assignmentId=13efd04d-a8f0-42d2-b76d-52c454488338&projectId=bea99957-1862-4ad8-9558-57b91e42ce64","","1180","
    <div style=""display: flex; justify-content: center; align-items: center;"">
      <img src=""images/red_deck_2.png"" style=""width: 300px; height: 300px; margin-right: 10px;"" />
      <img src=""images/blue_deck_1.png"" style=""width: 300px; height: 300px;"" />
    </div>","1","1",""
"","","","","","html-keyboard-response","76","229540","0.0-56.0-0.0","CCDEDEFC1AA840479396F233628F695F","CCDEDEFC1AA840479396F233628F695F","13efd04d-a8f0-42d2-b76d-52c454488338","bea99957-1862-4ad8-9558-57b91e42ce64","{""participantId"":""CCDEDEFC1AA840479396F233628F695F"",""assignmentId"":""13efd04d-a8f0-42d2-b76d-52c454488338"",""projectId"":""bea99957-1862-4ad8-9558-57b91e42ce64""}","https://test12345.live/?participantId=CCDEDEFC1AA840479396F233628F695F&assignmentId=13efd04d-a8f0-42d2-b76d-52c454488338&projectId=bea99957-1862-4ad8-9558-57b91e42ce64","","null","<div style=""display: flex; justify-content: center; align-items: center;"">
                    <img src=""images/causal/causal_series_13/causal_series_13_a.jpg"" style=""width: 300px; height: 300px;"" />
                  </div>","null","",""
"","","","","","html-keyboard-response","77","232545","0.0-56.0-1.0","CCDEDEFC1AA840479396F233628F695F","CCDEDEFC1AA840479396F233628F695F","13efd04d-a8f0-42d2-b76d-52c454488338","bea99957-1862-4ad8-9558-57b91e42ce64","{""participantId"":""CCDEDEFC1AA840479396F233628F695F"",""assignmentId"":""13efd04d-a8f0-42d2-b76d-52c454488338"",""projectId"":""bea99957-1862-4ad8-9558-57b91e42ce64""}","https://test12345.live/?participantId=CCDEDEFC1AA840479396F233628F695F&assignmentId=13efd04d-a8f0-42d2-b76d-52c454488338&projectId=bea99957-1862-4ad8-9558-57b91e42ce64","","null","<div style=""display: flex; justify-content: center; align-items: center;"">
                    <img src=""images/causal/causal_series_13/causal_series_13_b.jpg"" style=""width: 300px; height: 300px;"" />
                  </div>","null","",""
"","","","","","html-keyboard-response","78","235550","0.0-56.0-2.0","CCDEDEFC1AA840479396F233628F695F","CCDEDEFC1AA840479396F233628F695F","13efd04d-a8f0-42d2-b76d-52c454488338","bea99957-1862-4ad8-9558-57b91e42ce64","{""participantId"":""CCDEDEFC1AA840479396F233628F695F"",""assignmentId"":""13efd04d-a8f0-42d2-b76d-52c454488338"",""projectId"":""bea99957-1862-4ad8-9558-57b91e42ce64""}","https://test12345.live/?participantId=CCDEDEFC1AA840479396F233628F695F&assignmentId=13efd04d-a8f0-42d2-b76d-52c454488338&projectId=bea99957-1862-4ad8-9558-57b91e42ce64","","null","<div style=""display: flex; justify-content: center; align-items: center;"">
                    <img src=""images/causal/causal_series_13/causal_series_13_c.jpg"" style=""width: 300px; height: 300px;"" />
                  </div>","null","",""
"","","","","","html-keyboard-response","79","238568","0.0-56.0-3.0","CCDEDEFC1AA840479396F233628F695F","CCDEDEFC1AA840479396F233628F695F","13efd04d-a8f0-42d2-b76d-52c454488338","bea99957-1862-4ad8-9558-57b91e42ce64","{""participantId"":""CCDEDEFC1AA840479396F233628F695F"",""assignmentId"":""13efd04d-a8f0-42d2-b76d-52c454488338"",""projectId"":""bea99957-1862-4ad8-9558-57b91e42ce64""}","https://test12345.live/?participantId=CCDEDEFC1AA840479396F233628F695F&assignmentId=13efd04d-a8f0-42d2-b76d-52c454488338&projectId=bea99957-1862-4ad8-9558-57b91e42ce64","","null","<div style=""display: flex; justify-content: center; align-items: center;"">
                    <img src=""images/causal/causal_series_13/causal_series_13_d.jpg"" style=""width: 300px; height: 300px;"" />
                  </div>","null","",""
"","","","","","html-button-response","80","240171","0.0-58.0","CCDEDEFC1AA840479396F233628F695F","CCDEDEFC1AA840479396F233628F695F","13efd04d-a8f0-42d2-b76d-52c454488338","bea99957-1862-4ad8-9558-57b91e42ce64","{""participantId"":""CCDEDEFC1AA840479396F233628F695F"",""assignmentId"":""13efd04d-a8f0-42d2-b76d-52c454488338"",""projectId"":""bea99957-1862-4ad8-9558-57b91e42ce64""}","https://test12345.live/?participantId=CCDEDEFC1AA840479396F233628F695F&assignmentId=13efd04d-a8f0-42d2-b76d-52c454488338&projectId=bea99957-1862-4ad8-9558-57b91e42ce64","","1600","Was there a person in the picture?","0","",""
"","","","","","survey-likert","81","242652","0.0-59.0","CCDEDEFC1AA840479396F233628F695F","CCDEDEFC1AA840479396F233628F695F","13efd04d-a8f0-42d2-b76d-52c454488338","bea99957-1862-4ad8-9558-57b91e42ce64","{""participantId"":""CCDEDEFC1AA840479396F233628F695F"",""assignmentId"":""13efd04d-a8f0-42d2-b76d-52c454488338"",""projectId"":""bea99957-1862-4ad8-9558-57b91e42ce64""}","https://test12345.live/?participantId=CCDEDEFC1AA840479396F233628F695F&assignmentId=13efd04d-a8f0-42d2-b76d-52c454488338&projectId=bea99957-1862-4ad8-9558-57b91e42ce64","","2479","","{""Q0"":1}","","[0]"
"","","","","","html-button-response","82","243816","0.0-60.0","CCDEDEFC1AA840479396F233628F695F","CCDEDEFC1AA840479396F233628F695F","13efd04d-a8f0-42d2-b76d-52c454488338","bea99957-1862-4ad8-9558-57b91e42ce64","{""participantId"":""CCDEDEFC1AA840479396F233628F695F"",""assignmentId"":""13efd04d-a8f0-42d2-b76d-52c454488338"",""projectId"":""bea99957-1862-4ad8-9558-57b91e42ce64""}","https://test12345.live/?participantId=CCDEDEFC1AA840479396F233628F695F&assignmentId=13efd04d-a8f0-42d2-b76d-52c454488338&projectId=bea99957-1862-4ad8-9558-57b91e42ce64","","1160","
    <div style=""display: flex; justify-content: center; align-items: center;"">
      <img src=""images/red_deck_2.png"" style=""width: 300px; height: 300px; margin-right: 10px;"" />
      <img src=""images/blue_deck_1.png"" style=""width: 300px; height: 300px;"" />
    </div>","0","0",""
"","","","","","html-keyboard-response","83","246822","0.0-62.0-0.0","CCDEDEFC1AA840479396F233628F695F","CCDEDEFC1AA840479396F233628F695F","13efd04d-a8f0-42d2-b76d-52c454488338","bea99957-1862-4ad8-9558-57b91e42ce64","{""participantId"":""CCDEDEFC1AA840479396F233628F695F"",""assignmentId"":""13efd04d-a8f0-42d2-b76d-52c454488338"",""projectId"":""bea99957-1862-4ad8-9558-57b91e42ce64""}","https://test12345.live/?participantId=CCDEDEFC1AA840479396F233628F695F&assignmentId=13efd04d-a8f0-42d2-b76d-52c454488338&projectId=bea99957-1862-4ad8-9558-57b91e42ce64","","null","<div style=""display: flex; justify-content: center; align-items: center;"">
                    <img src=""images/semantic/semantic_series_8/semantic_series_8_a.jpg"" style=""width: 300px; height: 300px;"" />
                  </div>","null","",""
"","","","","","html-keyboard-response","84","249833","0.0-62.0-1.0","CCDEDEFC1AA840479396F233628F695F","CCDEDEFC1AA840479396F233628F695F","13efd04d-a8f0-42d2-b76d-52c454488338","bea99957-1862-4ad8-9558-57b91e42ce64","{""participantId"":""CCDEDEFC1AA840479396F233628F695F"",""assignmentId"":""13efd04d-a8f0-42d2-b76d-52c454488338"",""projectId"":""bea99957-1862-4ad8-9558-57b91e42ce64""}","https://test12345.live/?participantId=CCDEDEFC1AA840479396F233628F695F&assignmentId=13efd04d-a8f0-42d2-b76d-52c454488338&projectId=bea99957-1862-4ad8-9558-57b91e42ce64","","null","<div style=""display: flex; justify-content: center; align-items: center;"">
                    <img src=""images/semantic/semantic_series_8/semantic_series_8_b.jpg"" style=""width: 300px; height: 300px;"" />
                  </div>","null","",""
"","","","","","html-keyboard-response","85","252837","0.0-62.0-2.0","CCDEDEFC1AA840479396F233628F695F","CCDEDEFC1AA840479396F233628F695F","13efd04d-a8f0-42d2-b76d-52c454488338","bea99957-1862-4ad8-9558-57b91e42ce64","{""participantId"":""CCDEDEFC1AA840479396F233628F695F"",""assignmentId"":""13efd04d-a8f0-42d2-b76d-52c454488338"",""projectId"":""bea99957-1862-4ad8-9558-57b91e42ce64""}","https://test12345.live/?participantId=CCDEDEFC1AA840479396F233628F695F&assignmentId=13efd04d-a8f0-42d2-b76d-52c454488338&projectId=bea99957-1862-4ad8-9558-57b91e42ce64","","null","<div style=""display: flex; justify-content: center; align-items: center;"">
                    <img src=""images/semantic/semantic_series_8/semantic_series_8_c.jpg"" style=""width: 300px; height: 300px;"" />
                  </div>","null","",""
"","","","","","html-keyboard-response","86","255847","0.0-62.0-3.0","CCDEDEFC1AA840479396F233628F695F","CCDEDEFC1AA840479396F233628F695F","13efd04d-a8f0-42d2-b76d-52c454488338","bea99957-1862-4ad8-9558-57b91e42ce64","{""participantId"":""CCDEDEFC1AA840479396F233628F695F"",""assignmentId"":""13efd04d-a8f0-42d2-b76d-52c454488338"",""projectId"":""bea99957-1862-4ad8-9558-57b91e42ce64""}","https://test12345.live/?participantId=CCDEDEFC1AA840479396F233628F695F&assignmentId=13efd04d-a8f0-42d2-b76d-52c454488338&projectId=bea99957-1862-4ad8-9558-57b91e42ce64","","null","<div style=""display: flex; justify-content: center; align-items: center;"">
                    <img src=""images/semantic/semantic_series_8/semantic_series_8_d.jpg"" style=""width: 300px; height: 300px;"" />
                  </div>","null","",""
"","","","","","html-button-response","87","257475","0.0-63.0","CCDEDEFC1AA840479396F233628F695F","CCDEDEFC1AA840479396F233628F695F","13efd04d-a8f0-42d2-b76d-52c454488338","bea99957-1862-4ad8-9558-57b91e42ce64","{""participantId"":""CCDEDEFC1AA840479396F233628F695F"",""assignmentId"":""13efd04d-a8f0-42d2-b76d-52c454488338"",""projectId"":""bea99957-1862-4ad8-9558-57b91e42ce64""}","https://test12345.live/?participantId=CCDEDEFC1AA840479396F233628F695F&assignmentId=13efd04d-a8f0-42d2-b76d-52c454488338&projectId=bea99957-1862-4ad8-9558-57b91e42ce64","","1625","Was there a person in the picture?","1","",""
"","","","","","survey-likert","88","259882","0.0-64.0","CCDEDEFC1AA840479396F233628F695F","CCDEDEFC1AA840479396F233628F695F","13efd04d-a8f0-42d2-b76d-52c454488338","bea99957-1862-4ad8-9558-57b91e42ce64","{""participantId"":""CCDEDEFC1AA840479396F233628F695F"",""assignmentId"":""13efd04d-a8f0-42d2-b76d-52c454488338"",""projectId"":""bea99957-1862-4ad8-9558-57b91e42ce64""}","https://test12345.live/?participantId=CCDEDEFC1AA840479396F233628F695F&assignmentId=13efd04d-a8f0-42d2-b76d-52c454488338&projectId=bea99957-1862-4ad8-9558-57b91e42ce64","","2404","","{""Q0"":3}","","[0]"
"","","","","","html-button-response","89","261078","0.0-65.0","CCDEDEFC1AA840479396F233628F695F","CCDEDEFC1AA840479396F233628F695F","13efd04d-a8f0-42d2-b76d-52c454488338","bea99957-1862-4ad8-9558-57b91e42ce64","{""participantId"":""CCDEDEFC1AA840479396F233628F695F"",""assignmentId"":""13efd04d-a8f0-42d2-b76d-52c454488338"",""projectId"":""bea99957-1862-4ad8-9558-57b91e42ce64""}","https://test12345.live/?participantId=CCDEDEFC1AA840479396F233628F695F&assignmentId=13efd04d-a8f0-42d2-b76d-52c454488338&projectId=bea99957-1862-4ad8-9558-57b91e42ce64","","1192","
    <div style=""display: flex; justify-content: center; align-items: center;"">
      <img src=""images/red_deck_2.png"" style=""width: 300px; height: 300px; margin-right: 10px;"" />
      <img src=""images/blue_deck_1.png"" style=""width: 300px; height: 300px;"" />
    </div>","1","1",""
"","","","","","html-keyboard-response","90","264088","0.0-66.0-0.0","CCDEDEFC1AA840479396F233628F695F","CCDEDEFC1AA840479396F233628F695F","13efd04d-a8f0-42d2-b76d-52c454488338","bea99957-1862-4ad8-9558-57b91e42ce64","{""participantId"":""CCDEDEFC1AA840479396F233628F695F"",""assignmentId"":""13efd04d-a8f0-42d2-b76d-52c454488338"",""projectId"":""bea99957-1862-4ad8-9558-57b91e42ce64""}","https://test12345.live/?participantId=CCDEDEFC1AA840479396F233628F695F&assignmentId=13efd04d-a8f0-42d2-b76d-52c454488338&projectId=bea99957-1862-4ad8-9558-57b91e42ce64","","null","<div style=""display: flex; justify-content: center; align-items: center;"">
                    <img src=""images/causal/causal_series_1/causal_series_1_a.jpg"" style=""width: 300px; height: 300px;"" />
                  </div>","null","",""
"","","","","","html-keyboard-response","91","267096","0.0-66.0-1.0","CCDEDEFC1AA840479396F233628F695F","CCDEDEFC1AA840479396F233628F695F","13efd04d-a8f0-42d2-b76d-52c454488338","bea99957-1862-4ad8-9558-57b91e42ce64","{""participantId"":""CCDEDEFC1AA840479396F233628F695F"",""assignmentId"":""13efd04d-a8f0-42d2-b76d-52c454488338"",""projectId"":""bea99957-1862-4ad8-9558-57b91e42ce64""}","https://test12345.live/?participantId=CCDEDEFC1AA840479396F233628F695F&assignmentId=13efd04d-a8f0-42d2-b76d-52c454488338&projectId=bea99957-1862-4ad8-9558-57b91e42ce64","","null","<div style=""display: flex; justify-content: center; align-items: center;"">
                    <img src=""images/causal/causal_series_1/causal_series_1_b.jpg"" style=""width: 300px; height: 300px;"" />
                  </div>","null","",""
"","","","","","html-keyboard-response","92","270105","0.0-66.0-2.0","CCDEDEFC1AA840479396F233628F695F","CCDEDEFC1AA840479396F233628F695F","13efd04d-a8f0-42d2-b76d-52c454488338","bea99957-1862-4ad8-9558-57b91e42ce64","{""participantId"":""CCDEDEFC1AA840479396F233628F695F"",""assignmentId"":""13efd04d-a8f0-42d2-b76d-52c454488338"",""projectId"":""bea99957-1862-4ad8-9558-57b91e42ce64""}","https://test12345.live/?participantId=CCDEDEFC1AA840479396F233628F695F&assignmentId=13efd04d-a8f0-42d2-b76d-52c454488338&projectId=bea99957-1862-4ad8-9558-57b91e42ce64","","null","<div style=""display: flex; justify-content: center; align-items: center;"">
                    <img src=""images/causal/causal_series_1/causal_series_1_c.jpg"" style=""width: 300px; height: 300px;"" />
                  </div>","null","",""
"","","","","","html-keyboard-response","93","273117","0.0-66.0-3.0","CCDEDEFC1AA840479396F233628F695F","CCDEDEFC1AA840479396F233628F695F","13efd04d-a8f0-42d2-b76d-52c454488338","bea99957-1862-4ad8-9558-57b91e42ce64","{""participantId"":""CCDEDEFC1AA840479396F233628F695F"",""assignmentId"":""13efd04d-a8f0-42d2-b76d-52c454488338"",""projectId"":""bea99957-1862-4ad8-9558-57b91e42ce64""}","https://test12345.live/?participantId=CCDEDEFC1AA840479396F233628F695F&assignmentId=13efd04d-a8f0-42d2-b76d-52c454488338&projectId=bea99957-1862-4ad8-9558-57b91e42ce64","","null","<div style=""display: flex; justify-content: center; align-items: center;"">
                    <img src=""images/causal/causal_series_1/causal_series_1_d.jpg"" style=""width: 300px; height: 300px;"" />
                  </div>","null","",""
"","","","","","html-button-response","94","274779","0.0-68.0","CCDEDEFC1AA840479396F233628F695F","CCDEDEFC1AA840479396F233628F695F","13efd04d-a8f0-42d2-b76d-52c454488338","bea99957-1862-4ad8-9558-57b91e42ce64","{""participantId"":""CCDEDEFC1AA840479396F233628F695F"",""assignmentId"":""13efd04d-a8f0-42d2-b76d-52c454488338"",""projectId"":""bea99957-1862-4ad8-9558-57b91e42ce64""}","https://test12345.live/?participantId=CCDEDEFC1AA840479396F233628F695F&assignmentId=13efd04d-a8f0-42d2-b76d-52c454488338&projectId=bea99957-1862-4ad8-9558-57b91e42ce64","","1659","Was there a person in the picture?","0","",""
"","","","","","survey-likert","95","277011","0.0-69.0","CCDEDEFC1AA840479396F233628F695F","CCDEDEFC1AA840479396F233628F695F","13efd04d-a8f0-42d2-b76d-52c454488338","bea99957-1862-4ad8-9558-57b91e42ce64","{""participantId"":""CCDEDEFC1AA840479396F233628F695F"",""assignmentId"":""13efd04d-a8f0-42d2-b76d-52c454488338"",""projectId"":""bea99957-1862-4ad8-9558-57b91e42ce64""}","https://test12345.live/?participantId=CCDEDEFC1AA840479396F233628F695F&assignmentId=13efd04d-a8f0-42d2-b76d-52c454488338&projectId=bea99957-1862-4ad8-9558-57b91e42ce64","","2230","","{""Q0"":1}","","[0]"
"","","","","","html-button-response","96","278042","0.0-70.0","CCDEDEFC1AA840479396F233628F695F","CCDEDEFC1AA840479396F233628F695F","13efd04d-a8f0-42d2-b76d-52c454488338","bea99957-1862-4ad8-9558-57b91e42ce64","{""participantId"":""CCDEDEFC1AA840479396F233628F695F"",""assignmentId"":""13efd04d-a8f0-42d2-b76d-52c454488338"",""projectId"":""bea99957-1862-4ad8-9558-57b91e42ce64""}","https://test12345.live/?participantId=CCDEDEFC1AA840479396F233628F695F&assignmentId=13efd04d-a8f0-42d2-b76d-52c454488338&projectId=bea99957-1862-4ad8-9558-57b91e42ce64","","1027","
    <div style=""display: flex; justify-content: center; align-items: center;"">
      <img src=""images/red_deck_2.png"" style=""width: 300px; height: 300px; margin-right: 10px;"" />
      <img src=""images/blue_deck_1.png"" style=""width: 300px; height: 300px;"" />
    </div>","0","0",""
"","","","","","html-keyboard-response","97","281054","0.0-72.0-0.0","CCDEDEFC1AA840479396F233628F695F","CCDEDEFC1AA840479396F233628F695F","13efd04d-a8f0-42d2-b76d-52c454488338","bea99957-1862-4ad8-9558-57b91e42ce64","{""participantId"":""CCDEDEFC1AA840479396F233628F695F"",""assignmentId"":""13efd04d-a8f0-42d2-b76d-52c454488338"",""projectId"":""bea99957-1862-4ad8-9558-57b91e42ce64""}","https://test12345.live/?participantId=CCDEDEFC1AA840479396F233628F695F&assignmentId=13efd04d-a8f0-42d2-b76d-52c454488338&projectId=bea99957-1862-4ad8-9558-57b91e42ce64","","null","<div style=""display: flex; justify-content: center; align-items: center;"">
                    <img src=""images/semantic/semantic_series_17/semantic_series_17_a.jpg"" style=""width: 300px; height: 300px;"" />
                  </div>","null","",""
"","","","","","html-keyboard-response","98","284062","0.0-72.0-1.0","CCDEDEFC1AA840479396F233628F695F","CCDEDEFC1AA840479396F233628F695F","13efd04d-a8f0-42d2-b76d-52c454488338","bea99957-1862-4ad8-9558-57b91e42ce64","{""participantId"":""CCDEDEFC1AA840479396F233628F695F"",""assignmentId"":""13efd04d-a8f0-42d2-b76d-52c454488338"",""projectId"":""bea99957-1862-4ad8-9558-57b91e42ce64""}","https://test12345.live/?participantId=CCDEDEFC1AA840479396F233628F695F&assignmentId=13efd04d-a8f0-42d2-b76d-52c454488338&projectId=bea99957-1862-4ad8-9558-57b91e42ce64","","null","<div style=""display: flex; justify-content: center; align-items: center;"">
                    <img src=""images/semantic/semantic_series_17/semantic_series_17_b.jpg"" style=""width: 300px; height: 300px;"" />
                  </div>","null","",""
"","","","","","html-keyboard-response","99","287079","0.0-72.0-2.0","CCDEDEFC1AA840479396F233628F695F","CCDEDEFC1AA840479396F233628F695F","13efd04d-a8f0-42d2-b76d-52c454488338","bea99957-1862-4ad8-9558-57b91e42ce64","{""participantId"":""CCDEDEFC1AA840479396F233628F695F"",""assignmentId"":""13efd04d-a8f0-42d2-b76d-52c454488338"",""projectId"":""bea99957-1862-4ad8-9558-57b91e42ce64""}","https://test12345.live/?participantId=CCDEDEFC1AA840479396F233628F695F&assignmentId=13efd04d-a8f0-42d2-b76d-52c454488338&projectId=bea99957-1862-4ad8-9558-57b91e42ce64","","null","<div style=""display: flex; justify-content: center; align-items: center;"">
                    <img src=""images/semantic/semantic_series_17/semantic_series_17_c.jpg"" style=""width: 300px; height: 300px;"" />
                  </div>","null","",""
"","","","","","html-keyboard-response","100","290092","0.0-72.0-3.0","CCDEDEFC1AA840479396F233628F695F","CCDEDEFC1AA840479396F233628F695F","13efd04d-a8f0-42d2-b76d-52c454488338","bea99957-1862-4ad8-9558-57b91e42ce64","{""participantId"":""CCDEDEFC1AA840479396F233628F695F"",""assignmentId"":""13efd04d-a8f0-42d2-b76d-52c454488338"",""projectId"":""bea99957-1862-4ad8-9558-57b91e42ce64""}","https://test12345.live/?participantId=CCDEDEFC1AA840479396F233628F695F&assignmentId=13efd04d-a8f0-42d2-b76d-52c454488338&projectId=bea99957-1862-4ad8-9558-57b91e42ce64","","null","<div style=""display: flex; justify-content: center; align-items: center;"">
                    <img src=""images/semantic/semantic_series_17/semantic_series_17_d.jpg"" style=""width: 300px; height: 300px;"" />
                  </div>","null","",""
"","","","","","html-button-response","101","291655","0.0-73.0","CCDEDEFC1AA840479396F233628F695F","CCDEDEFC1AA840479396F233628F695F","13efd04d-a8f0-42d2-b76d-52c454488338","bea99957-1862-4ad8-9558-57b91e42ce64","{""participantId"":""CCDEDEFC1AA840479396F233628F695F"",""assignmentId"":""13efd04d-a8f0-42d2-b76d-52c454488338"",""projectId"":""bea99957-1862-4ad8-9558-57b91e42ce64""}","https://test12345.live/?participantId=CCDEDEFC1AA840479396F233628F695F&assignmentId=13efd04d-a8f0-42d2-b76d-52c454488338&projectId=bea99957-1862-4ad8-9558-57b91e42ce64","","1560","Was there a person in the picture?","0","",""
"","","","","","survey-likert","102","293869","0.0-74.0","CCDEDEFC1AA840479396F233628F695F","CCDEDEFC1AA840479396F233628F695F","13efd04d-a8f0-42d2-b76d-52c454488338","bea99957-1862-4ad8-9558-57b91e42ce64","{""participantId"":""CCDEDEFC1AA840479396F233628F695F"",""assignmentId"":""13efd04d-a8f0-42d2-b76d-52c454488338"",""projectId"":""bea99957-1862-4ad8-9558-57b91e42ce64""}","https://test12345.live/?participantId=CCDEDEFC1AA840479396F233628F695F&assignmentId=13efd04d-a8f0-42d2-b76d-52c454488338&projectId=bea99957-1862-4ad8-9558-57b91e42ce64","","2212","","{""Q0"":0}","","[0]"
"","","","","","html-button-response","103","294980","0.0-75.0","CCDEDEFC1AA840479396F233628F695F","CCDEDEFC1AA840479396F233628F695F","13efd04d-a8f0-42d2-b76d-52c454488338","bea99957-1862-4ad8-9558-57b91e42ce64","{""participantId"":""CCDEDEFC1AA840479396F233628F695F"",""assignmentId"":""13efd04d-a8f0-42d2-b76d-52c454488338"",""projectId"":""bea99957-1862-4ad8-9558-57b91e42ce64""}","https://test12345.live/?participantId=CCDEDEFC1AA840479396F233628F695F&assignmentId=13efd04d-a8f0-42d2-b76d-52c454488338&projectId=bea99957-1862-4ad8-9558-57b91e42ce64","","1108","
    <div style=""display: flex; justify-content: center; align-items: center;"">
      <img src=""images/red_deck_2.png"" style=""width: 300px; height: 300px; margin-right: 10px;"" />
      <img src=""images/blue_deck_1.png"" style=""width: 300px; height: 300px;"" />
    </div>","1","1",""
"","","","","","html-keyboard-response","104","297985","0.0-76.0-0.0","CCDEDEFC1AA840479396F233628F695F","CCDEDEFC1AA840479396F233628F695F","13efd04d-a8f0-42d2-b76d-52c454488338","bea99957-1862-4ad8-9558-57b91e42ce64","{""participantId"":""CCDEDEFC1AA840479396F233628F695F"",""assignmentId"":""13efd04d-a8f0-42d2-b76d-52c454488338"",""projectId"":""bea99957-1862-4ad8-9558-57b91e42ce64""}","https://test12345.live/?participantId=CCDEDEFC1AA840479396F233628F695F&assignmentId=13efd04d-a8f0-42d2-b76d-52c454488338&projectId=bea99957-1862-4ad8-9558-57b91e42ce64","","null","<div style=""display: flex; justify-content: center; align-items: center;"">
                    <img src=""images/causal/causal_series_16/causal_series_16_a.jpg"" style=""width: 300px; height: 300px;"" />
                  </div>","null","",""
"","","","","","html-keyboard-response","105","300993","0.0-76.0-1.0","CCDEDEFC1AA840479396F233628F695F","CCDEDEFC1AA840479396F233628F695F","13efd04d-a8f0-42d2-b76d-52c454488338","bea99957-1862-4ad8-9558-57b91e42ce64","{""participantId"":""CCDEDEFC1AA840479396F233628F695F"",""assignmentId"":""13efd04d-a8f0-42d2-b76d-52c454488338"",""projectId"":""bea99957-1862-4ad8-9558-57b91e42ce64""}","https://test12345.live/?participantId=CCDEDEFC1AA840479396F233628F695F&assignmentId=13efd04d-a8f0-42d2-b76d-52c454488338&projectId=bea99957-1862-4ad8-9558-57b91e42ce64","","null","<div style=""display: flex; justify-content: center; align-items: center;"">
                    <img src=""images/causal/causal_series_16/causal_series_16_b.jpg"" style=""width: 300px; height: 300px;"" />
                  </div>","null","",""
"","","","","","html-keyboard-response","106","304003","0.0-76.0-2.0","CCDEDEFC1AA840479396F233628F695F","CCDEDEFC1AA840479396F233628F695F","13efd04d-a8f0-42d2-b76d-52c454488338","bea99957-1862-4ad8-9558-57b91e42ce64","{""participantId"":""CCDEDEFC1AA840479396F233628F695F"",""assignmentId"":""13efd04d-a8f0-42d2-b76d-52c454488338"",""projectId"":""bea99957-1862-4ad8-9558-57b91e42ce64""}","https://test12345.live/?participantId=CCDEDEFC1AA840479396F233628F695F&assignmentId=13efd04d-a8f0-42d2-b76d-52c454488338&projectId=bea99957-1862-4ad8-9558-57b91e42ce64","","null","<div style=""display: flex; justify-content: center; align-items: center;"">
                    <img src=""images/causal/causal_series_16/causal_series_16_c.jpg"" style=""width: 300px; height: 300px;"" />
                  </div>","null","",""
"","","","","","html-keyboard-response","107","307008","0.0-76.0-3.0","CCDEDEFC1AA840479396F233628F695F","CCDEDEFC1AA840479396F233628F695F","13efd04d-a8f0-42d2-b76d-52c454488338","bea99957-1862-4ad8-9558-57b91e42ce64","{""participantId"":""CCDEDEFC1AA840479396F233628F695F"",""assignmentId"":""13efd04d-a8f0-42d2-b76d-52c454488338"",""projectId"":""bea99957-1862-4ad8-9558-57b91e42ce64""}","https://test12345.live/?participantId=CCDEDEFC1AA840479396F233628F695F&assignmentId=13efd04d-a8f0-42d2-b76d-52c454488338&projectId=bea99957-1862-4ad8-9558-57b91e42ce64","","null","<div style=""display: flex; justify-content: center; align-items: center;"">
                    <img src=""images/causal/causal_series_16/causal_series_16_d.jpg"" style=""width: 300px; height: 300px;"" />
                  </div>","null","",""
"","","","","","html-button-response","108","308245","0.0-78.0","CCDEDEFC1AA840479396F233628F695F","CCDEDEFC1AA840479396F233628F695F","13efd04d-a8f0-42d2-b76d-52c454488338","bea99957-1862-4ad8-9558-57b91e42ce64","{""participantId"":""CCDEDEFC1AA840479396F233628F695F"",""assignmentId"":""13efd04d-a8f0-42d2-b76d-52c454488338"",""projectId"":""bea99957-1862-4ad8-9558-57b91e42ce64""}","https://test12345.live/?participantId=CCDEDEFC1AA840479396F233628F695F&assignmentId=13efd04d-a8f0-42d2-b76d-52c454488338&projectId=bea99957-1862-4ad8-9558-57b91e42ce64","","1233","Was there a person in the picture?","0","",""
"","","","","","survey-likert","109","311249","0.0-79.0","CCDEDEFC1AA840479396F233628F695F","CCDEDEFC1AA840479396F233628F695F","13efd04d-a8f0-42d2-b76d-52c454488338","bea99957-1862-4ad8-9558-57b91e42ce64","{""participantId"":""CCDEDEFC1AA840479396F233628F695F"",""assignmentId"":""13efd04d-a8f0-42d2-b76d-52c454488338"",""projectId"":""bea99957-1862-4ad8-9558-57b91e42ce64""}","https://test12345.live/?participantId=CCDEDEFC1AA840479396F233628F695F&assignmentId=13efd04d-a8f0-42d2-b76d-52c454488338&projectId=bea99957-1862-4ad8-9558-57b91e42ce64","","3001","","{""Q0"":0}","","[0]"
"","","","","","html-button-response","110","312384","0.0-80.0","CCDEDEFC1AA840479396F233628F695F","CCDEDEFC1AA840479396F233628F695F","13efd04d-a8f0-42d2-b76d-52c454488338","bea99957-1862-4ad8-9558-57b91e42ce64","{""participantId"":""CCDEDEFC1AA840479396F233628F695F"",""assignmentId"":""13efd04d-a8f0-42d2-b76d-52c454488338"",""projectId"":""bea99957-1862-4ad8-9558-57b91e42ce64""}","https://test12345.live/?participantId=CCDEDEFC1AA840479396F233628F695F&assignmentId=13efd04d-a8f0-42d2-b76d-52c454488338&projectId=bea99957-1862-4ad8-9558-57b91e42ce64","","1132","
    <div style=""display: flex; justify-content: center; align-items: center;"">
      <img src=""images/red_deck_2.png"" style=""width: 300px; height: 300px; margin-right: 10px;"" />
      <img src=""images/blue_deck_1.png"" style=""width: 300px; height: 300px;"" />
    </div>","0","0",""
"","","","","","html-keyboard-response","111","315390","0.0-82.0-0.0","CCDEDEFC1AA840479396F233628F695F","CCDEDEFC1AA840479396F233628F695F","13efd04d-a8f0-42d2-b76d-52c454488338","bea99957-1862-4ad8-9558-57b91e42ce64","{""participantId"":""CCDEDEFC1AA840479396F233628F695F"",""assignmentId"":""13efd04d-a8f0-42d2-b76d-52c454488338"",""projectId"":""bea99957-1862-4ad8-9558-57b91e42ce64""}","https://test12345.live/?participantId=CCDEDEFC1AA840479396F233628F695F&assignmentId=13efd04d-a8f0-42d2-b76d-52c454488338&projectId=bea99957-1862-4ad8-9558-57b91e42ce64","","null","<div style=""display: flex; justify-content: center; align-items: center;"">
                    <img src=""images/semantic/semantic_series_14/semantic_series_14_a.jpg"" style=""width: 300px; height: 300px;"" />
                  </div>","null","",""
"","","","","","html-keyboard-response","112","318401","0.0-82.0-1.0","CCDEDEFC1AA840479396F233628F695F","CCDEDEFC1AA840479396F233628F695F","13efd04d-a8f0-42d2-b76d-52c454488338","bea99957-1862-4ad8-9558-57b91e42ce64","{""participantId"":""CCDEDEFC1AA840479396F233628F695F"",""assignmentId"":""13efd04d-a8f0-42d2-b76d-52c454488338"",""projectId"":""bea99957-1862-4ad8-9558-57b91e42ce64""}","https://test12345.live/?participantId=CCDEDEFC1AA840479396F233628F695F&assignmentId=13efd04d-a8f0-42d2-b76d-52c454488338&projectId=bea99957-1862-4ad8-9558-57b91e42ce64","","null","<div style=""display: flex; justify-content: center; align-items: center;"">
                    <img src=""images/semantic/semantic_series_14/semantic_series_14_b.jpg"" style=""width: 300px; height: 300px;"" />
                  </div>","null","",""
"","","","","","html-keyboard-response","113","321418","0.0-82.0-2.0","CCDEDEFC1AA840479396F233628F695F","CCDEDEFC1AA840479396F233628F695F","13efd04d-a8f0-42d2-b76d-52c454488338","bea99957-1862-4ad8-9558-57b91e42ce64","{""participantId"":""CCDEDEFC1AA840479396F233628F695F"",""assignmentId"":""13efd04d-a8f0-42d2-b76d-52c454488338"",""projectId"":""bea99957-1862-4ad8-9558-57b91e42ce64""}","https://test12345.live/?participantId=CCDEDEFC1AA840479396F233628F695F&assignmentId=13efd04d-a8f0-42d2-b76d-52c454488338&projectId=bea99957-1862-4ad8-9558-57b91e42ce64","","null","<div style=""display: flex; justify-content: center; align-items: center;"">
                    <img src=""images/semantic/semantic_series_14/semantic_series_14_c.jpg"" style=""width: 300px; height: 300px;"" />
                  </div>","null","",""
"","","","","","html-keyboard-response","114","324430","0.0-82.0-3.0","CCDEDEFC1AA840479396F233628F695F","CCDEDEFC1AA840479396F233628F695F","13efd04d-a8f0-42d2-b76d-52c454488338","bea99957-1862-4ad8-9558-57b91e42ce64","{""participantId"":""CCDEDEFC1AA840479396F233628F695F"",""assignmentId"":""13efd04d-a8f0-42d2-b76d-52c454488338"",""projectId"":""bea99957-1862-4ad8-9558-57b91e42ce64""}","https://test12345.live/?participantId=CCDEDEFC1AA840479396F233628F695F&assignmentId=13efd04d-a8f0-42d2-b76d-52c454488338&projectId=bea99957-1862-4ad8-9558-57b91e42ce64","","null","<div style=""display: flex; justify-content: center; align-items: center;"">
                    <img src=""images/semantic/semantic_series_14/semantic_series_14_d.jpg"" style=""width: 300px; height: 300px;"" />
                  </div>","null","",""
"","","","","","html-button-response","115","326307","0.0-83.0","CCDEDEFC1AA840479396F233628F695F","CCDEDEFC1AA840479396F233628F695F","13efd04d-a8f0-42d2-b76d-52c454488338","bea99957-1862-4ad8-9558-57b91e42ce64","{""participantId"":""CCDEDEFC1AA840479396F233628F695F"",""assignmentId"":""13efd04d-a8f0-42d2-b76d-52c454488338"",""projectId"":""bea99957-1862-4ad8-9558-57b91e42ce64""}","https://test12345.live/?participantId=CCDEDEFC1AA840479396F233628F695F&assignmentId=13efd04d-a8f0-42d2-b76d-52c454488338&projectId=bea99957-1862-4ad8-9558-57b91e42ce64","","1876","Was there a person in the picture?","0","",""
"","","","","","survey-likert","116","328540","0.0-84.0","CCDEDEFC1AA840479396F233628F695F","CCDEDEFC1AA840479396F233628F695F","13efd04d-a8f0-42d2-b76d-52c454488338","bea99957-1862-4ad8-9558-57b91e42ce64","{""participantId"":""CCDEDEFC1AA840479396F233628F695F"",""assignmentId"":""13efd04d-a8f0-42d2-b76d-52c454488338"",""projectId"":""bea99957-1862-4ad8-9558-57b91e42ce64""}","https://test12345.live/?participantId=CCDEDEFC1AA840479396F233628F695F&assignmentId=13efd04d-a8f0-42d2-b76d-52c454488338&projectId=bea99957-1862-4ad8-9558-57b91e42ce64","","2230","","{""Q0"":0}","","[0]"
"","","","","","html-button-response","117","329624","0.0-85.0","CCDEDEFC1AA840479396F233628F695F","CCDEDEFC1AA840479396F233628F695F","13efd04d-a8f0-42d2-b76d-52c454488338","bea99957-1862-4ad8-9558-57b91e42ce64","{""participantId"":""CCDEDEFC1AA840479396F233628F695F"",""assignmentId"":""13efd04d-a8f0-42d2-b76d-52c454488338"",""projectId"":""bea99957-1862-4ad8-9558-57b91e42ce64""}","https://test12345.live/?participantId=CCDEDEFC1AA840479396F233628F695F&assignmentId=13efd04d-a8f0-42d2-b76d-52c454488338&projectId=bea99957-1862-4ad8-9558-57b91e42ce64","","1080","
    <div style=""display: flex; justify-content: center; align-items: center;"">
      <img src=""images/red_deck_2.png"" style=""width: 300px; height: 300px; margin-right: 10px;"" />
      <img src=""images/blue_deck_1.png"" style=""width: 300px; height: 300px;"" />
    </div>","1","1",""
"","","","","","html-keyboard-response","118","332629","0.0-86.0-0.0","CCDEDEFC1AA840479396F233628F695F","CCDEDEFC1AA840479396F233628F695F","13efd04d-a8f0-42d2-b76d-52c454488338","bea99957-1862-4ad8-9558-57b91e42ce64","{""participantId"":""CCDEDEFC1AA840479396F233628F695F"",""assignmentId"":""13efd04d-a8f0-42d2-b76d-52c454488338"",""projectId"":""bea99957-1862-4ad8-9558-57b91e42ce64""}","https://test12345.live/?participantId=CCDEDEFC1AA840479396F233628F695F&assignmentId=13efd04d-a8f0-42d2-b76d-52c454488338&projectId=bea99957-1862-4ad8-9558-57b91e42ce64","","null","<div style=""display: flex; justify-content: center; align-items: center;"">
                    <img src=""images/causal/causal_series_9/causal_series_9_a.jpg"" style=""width: 300px; height: 300px;"" />
                  </div>","null","",""
"","","","","","html-keyboard-response","119","335637","0.0-86.0-1.0","CCDEDEFC1AA840479396F233628F695F","CCDEDEFC1AA840479396F233628F695F","13efd04d-a8f0-42d2-b76d-52c454488338","bea99957-1862-4ad8-9558-57b91e42ce64","{""participantId"":""CCDEDEFC1AA840479396F233628F695F"",""assignmentId"":""13efd04d-a8f0-42d2-b76d-52c454488338"",""projectId"":""bea99957-1862-4ad8-9558-57b91e42ce64""}","https://test12345.live/?participantId=CCDEDEFC1AA840479396F233628F695F&assignmentId=13efd04d-a8f0-42d2-b76d-52c454488338&projectId=bea99957-1862-4ad8-9558-57b91e42ce64","","null","<div style=""display: flex; justify-content: center; align-items: center;"">
                    <img src=""images/causal/causal_series_9/causal_series_9_b.jpg"" style=""width: 300px; height: 300px;"" />
                  </div>","null","",""
"","","","","","html-keyboard-response","120","338649","0.0-86.0-2.0","CCDEDEFC1AA840479396F233628F695F","CCDEDEFC1AA840479396F233628F695F","13efd04d-a8f0-42d2-b76d-52c454488338","bea99957-1862-4ad8-9558-57b91e42ce64","{""participantId"":""CCDEDEFC1AA840479396F233628F695F"",""assignmentId"":""13efd04d-a8f0-42d2-b76d-52c454488338"",""projectId"":""bea99957-1862-4ad8-9558-57b91e42ce64""}","https://test12345.live/?participantId=CCDEDEFC1AA840479396F233628F695F&assignmentId=13efd04d-a8f0-42d2-b76d-52c454488338&projectId=bea99957-1862-4ad8-9558-57b91e42ce64","","null","<div style=""display: flex; justify-content: center; align-items: center;"">
                    <img src=""images/causal/causal_series_9/causal_series_9_c.jpg"" style=""width: 300px; height: 300px;"" />
                  </div>","null","",""
"","","","","","html-keyboard-response","121","341654","0.0-86.0-3.0","CCDEDEFC1AA840479396F233628F695F","CCDEDEFC1AA840479396F233628F695F","13efd04d-a8f0-42d2-b76d-52c454488338","bea99957-1862-4ad8-9558-57b91e42ce64","{""participantId"":""CCDEDEFC1AA840479396F233628F695F"",""assignmentId"":""13efd04d-a8f0-42d2-b76d-52c454488338"",""projectId"":""bea99957-1862-4ad8-9558-57b91e42ce64""}","https://test12345.live/?participantId=CCDEDEFC1AA840479396F233628F695F&assignmentId=13efd04d-a8f0-42d2-b76d-52c454488338&projectId=bea99957-1862-4ad8-9558-57b91e42ce64","","null","<div style=""display: flex; justify-content: center; align-items: center;"">
                    <img src=""images/causal/causal_series_9/causal_series_9_d.jpg"" style=""width: 300px; height: 300px;"" />
                  </div>","null","",""
"","","","","","html-button-response","122","342883","0.0-88.0","CCDEDEFC1AA840479396F233628F695F","CCDEDEFC1AA840479396F233628F695F","13efd04d-a8f0-42d2-b76d-52c454488338","bea99957-1862-4ad8-9558-57b91e42ce64","{""participantId"":""CCDEDEFC1AA840479396F233628F695F"",""assignmentId"":""13efd04d-a8f0-42d2-b76d-52c454488338"",""projectId"":""bea99957-1862-4ad8-9558-57b91e42ce64""}","https://test12345.live/?participantId=CCDEDEFC1AA840479396F233628F695F&assignmentId=13efd04d-a8f0-42d2-b76d-52c454488338&projectId=bea99957-1862-4ad8-9558-57b91e42ce64","","1225","Was there a person in the picture?","1","",""
"","","","","","survey-likert","123","345079","0.0-89.0","CCDEDEFC1AA840479396F233628F695F","CCDEDEFC1AA840479396F233628F695F","13efd04d-a8f0-42d2-b76d-52c454488338","bea99957-1862-4ad8-9558-57b91e42ce64","{""participantId"":""CCDEDEFC1AA840479396F233628F695F"",""assignmentId"":""13efd04d-a8f0-42d2-b76d-52c454488338"",""projectId"":""bea99957-1862-4ad8-9558-57b91e42ce64""}","https://test12345.live/?participantId=CCDEDEFC1AA840479396F233628F695F&assignmentId=13efd04d-a8f0-42d2-b76d-52c454488338&projectId=bea99957-1862-4ad8-9558-57b91e42ce64","","2193","","{""Q0"":3}","","[0]"
"","","","","","html-button-response","124","346230","0.0-90.0","CCDEDEFC1AA840479396F233628F695F","CCDEDEFC1AA840479396F233628F695F","13efd04d-a8f0-42d2-b76d-52c454488338","bea99957-1862-4ad8-9558-57b91e42ce64","{""participantId"":""CCDEDEFC1AA840479396F233628F695F"",""assignmentId"":""13efd04d-a8f0-42d2-b76d-52c454488338"",""projectId"":""bea99957-1862-4ad8-9558-57b91e42ce64""}","https://test12345.live/?participantId=CCDEDEFC1AA840479396F233628F695F&assignmentId=13efd04d-a8f0-42d2-b76d-52c454488338&projectId=bea99957-1862-4ad8-9558-57b91e42ce64","","1147","
    <div style=""display: flex; justify-content: center; align-items: center;"">
      <img src=""images/red_deck_2.png"" style=""width: 300px; height: 300px; margin-right: 10px;"" />
      <img src=""images/blue_deck_1.png"" style=""width: 300px; height: 300px;"" />
    </div>","0","0",""
"","","","","","html-keyboard-response","125","349237","0.0-92.0-0.0","CCDEDEFC1AA840479396F233628F695F","CCDEDEFC1AA840479396F233628F695F","13efd04d-a8f0-42d2-b76d-52c454488338","bea99957-1862-4ad8-9558-57b91e42ce64","{""participantId"":""CCDEDEFC1AA840479396F233628F695F"",""assignmentId"":""13efd04d-a8f0-42d2-b76d-52c454488338"",""projectId"":""bea99957-1862-4ad8-9558-57b91e42ce64""}","https://test12345.live/?participantId=CCDEDEFC1AA840479396F233628F695F&assignmentId=13efd04d-a8f0-42d2-b76d-52c454488338&projectId=bea99957-1862-4ad8-9558-57b91e42ce64","","null","<div style=""display: flex; justify-content: center; align-items: center;"">
                    <img src=""images/semantic/semantic_series_12/semantic_series_12_a.jpg"" style=""width: 300px; height: 300px;"" />
                  </div>","null","",""
"","","","","","html-keyboard-response","126","352253","0.0-92.0-1.0","CCDEDEFC1AA840479396F233628F695F","CCDEDEFC1AA840479396F233628F695F","13efd04d-a8f0-42d2-b76d-52c454488338","bea99957-1862-4ad8-9558-57b91e42ce64","{""participantId"":""CCDEDEFC1AA840479396F233628F695F"",""assignmentId"":""13efd04d-a8f0-42d2-b76d-52c454488338"",""projectId"":""bea99957-1862-4ad8-9558-57b91e42ce64""}","https://test12345.live/?participantId=CCDEDEFC1AA840479396F233628F695F&assignmentId=13efd04d-a8f0-42d2-b76d-52c454488338&projectId=bea99957-1862-4ad8-9558-57b91e42ce64","","null","<div style=""display: flex; justify-content: center; align-items: center;"">
                    <img src=""images/semantic/semantic_series_12/semantic_series_12_b.jpg"" style=""width: 300px; height: 300px;"" />
                  </div>","null","",""
"","","","","","html-keyboard-response","127","355270","0.0-92.0-2.0","CCDEDEFC1AA840479396F233628F695F","CCDEDEFC1AA840479396F233628F695F","13efd04d-a8f0-42d2-b76d-52c454488338","bea99957-1862-4ad8-9558-57b91e42ce64","{""participantId"":""CCDEDEFC1AA840479396F233628F695F"",""assignmentId"":""13efd04d-a8f0-42d2-b76d-52c454488338"",""projectId"":""bea99957-1862-4ad8-9558-57b91e42ce64""}","https://test12345.live/?participantId=CCDEDEFC1AA840479396F233628F695F&assignmentId=13efd04d-a8f0-42d2-b76d-52c454488338&projectId=bea99957-1862-4ad8-9558-57b91e42ce64","","null","<div style=""display: flex; justify-content: center; align-items: center;"">
                    <img src=""images/semantic/semantic_series_12/semantic_series_12_c.jpg"" style=""width: 300px; height: 300px;"" />
                  </div>","null","",""
"","","","","","html-keyboard-response","128","358277","0.0-92.0-3.0","CCDEDEFC1AA840479396F233628F695F","CCDEDEFC1AA840479396F233628F695F","13efd04d-a8f0-42d2-b76d-52c454488338","bea99957-1862-4ad8-9558-57b91e42ce64","{""participantId"":""CCDEDEFC1AA840479396F233628F695F"",""assignmentId"":""13efd04d-a8f0-42d2-b76d-52c454488338"",""projectId"":""bea99957-1862-4ad8-9558-57b91e42ce64""}","https://test12345.live/?participantId=CCDEDEFC1AA840479396F233628F695F&assignmentId=13efd04d-a8f0-42d2-b76d-52c454488338&projectId=bea99957-1862-4ad8-9558-57b91e42ce64","","null","<div style=""display: flex; justify-content: center; align-items: center;"">
                    <img src=""images/semantic/semantic_series_12/semantic_series_12_d.jpg"" style=""width: 300px; height: 300px;"" />
                  </div>","null","",""
"","","","","","html-button-response","129","360431","0.0-93.0","CCDEDEFC1AA840479396F233628F695F","CCDEDEFC1AA840479396F233628F695F","13efd04d-a8f0-42d2-b76d-52c454488338","bea99957-1862-4ad8-9558-57b91e42ce64","{""participantId"":""CCDEDEFC1AA840479396F233628F695F"",""assignmentId"":""13efd04d-a8f0-42d2-b76d-52c454488338"",""projectId"":""bea99957-1862-4ad8-9558-57b91e42ce64""}","https://test12345.live/?participantId=CCDEDEFC1AA840479396F233628F695F&assignmentId=13efd04d-a8f0-42d2-b76d-52c454488338&projectId=bea99957-1862-4ad8-9558-57b91e42ce64","","2152","Was there a person in the picture?","1","",""
"","","","","","survey-likert","130","362623","0.0-94.0","CCDEDEFC1AA840479396F233628F695F","CCDEDEFC1AA840479396F233628F695F","13efd04d-a8f0-42d2-b76d-52c454488338","bea99957-1862-4ad8-9558-57b91e42ce64","{""participantId"":""CCDEDEFC1AA840479396F233628F695F"",""assignmentId"":""13efd04d-a8f0-42d2-b76d-52c454488338"",""projectId"":""bea99957-1862-4ad8-9558-57b91e42ce64""}","https://test12345.live/?participantId=CCDEDEFC1AA840479396F233628F695F&assignmentId=13efd04d-a8f0-42d2-b76d-52c454488338&projectId=bea99957-1862-4ad8-9558-57b91e42ce64","","2189","","{""Q0"":3}","","[0]"
"","","","","","survey-text","131","405160","0.0-95.0","CCDEDEFC1AA840479396F233628F695F","CCDEDEFC1AA840479396F233628F695F","13efd04d-a8f0-42d2-b76d-52c454488338","bea99957-1862-4ad8-9558-57b91e42ce64","{""participantId"":""CCDEDEFC1AA840479396F233628F695F"",""assignmentId"":""13efd04d-a8f0-42d2-b76d-52c454488338"",""projectId"":""bea99957-1862-4ad8-9558-57b91e42ce64""}","https://test12345.live/?participantId=CCDEDEFC1AA840479396F233628F695F&assignmentId=13efd04d-a8f0-42d2-b76d-52c454488338&projectId=bea99957-1862-4ad8-9558-57b91e42ce64","","42525","","{""Q0"":""One set was more featured on rain, sadder moments, and the other focused more on sunny happy moments""}","",""
