"success","timeout","failed_images","failed_audio","failed_video","trial_type","trial_index","time_elapsed","internal_node_id","view_history","rt","stimulus","response","firstImageNumber","secondImageNumber","response_made","stimulus_type"
"true","false","[]","[]","[]","preload","0","9519","0.0-0.0","","","","","","","",""
"","","","","","instructions","1","22319","0.0-1.0","[{""page_index"":0,""viewing_time"":12799}]","12799","","","","","",""
"","","","","","html-button-response","2","34548","0.0-2.0","","12228","
        <div style=""display: flex; justify-content: center; align-items: center;"">
          <div style=""text-align: center; margin-right: 20px;"">
            <p style=""font-size: 24px; font-weight: bold;"">Event 1<p>
            <img src=""images/instructions/1.png"" style=""width: 300px; height: auto;"">
          </div>
          <div style=""text-align: center; margin-left: 20px;"">
            <p style=""font-size: 24px; font-weight: bold;"">Event 2</p>
            <img src=""images/instructions/2.png"" style=""width: 300px; height: auto;"">
          </div>
        </div>
        <p style=""text-align: center; margin-top: 20px;"">Did one event cause the other?</p>","0","","","",""
"","","","","","html-button-response","3","36129","0.0-3.0","","1580","
        <div style=""display: flex; justify-content: center; align-items: center;"">
          <div style=""text-align: center; margin-right: 20px;"">
            <p style=""font-size: 24px; font-weight: bold;"">Event 1<p>
            <img src=""images/instructions/1.png"" style=""width: 300px; height: auto;"">
          </div>
          <div style=""text-align: center; margin-left: 20px;"">
            <p style=""font-size: 24px; font-weight: bold;"">Event 2</p>
            <img src=""images/instructions/2.png"" style=""width: 300px; height: auto;"">
          </div>
        </div>
        <h2>Correct Answer</h2>
        <p>The correct answer is: <strong>event 1 causes event 2</strong>.</p>
        <p>Click ""Next"" to proceed to the next example.</p>","0","","","",""
"","","","","","html-button-response","4","43832","0.0-4.0","","7703","
   <div style=""display: flex; justify-content: center; align-items: center;"">
          <div style=""text-align: center; margin-right: 20px;"">
            <p style=""font-size: 24px; font-weight: bold;"">Event 1<p>
            <img src=""images/instructions/1.png"" style=""width: 300px; height: auto;"">
          </div>
          <div style=""text-align: center; margin-left: 20px;"">
            <p style=""font-size: 24px; font-weight: bold;"">Event 2</p>
            <img src=""images/instructions/2.png"" style=""width: 300px; height: auto;"">
          </div>
        </div>
        <p style=""text-align: center; margin-top: 20px;"">Did one event cause the other?</p>","0","","","",""
"","","","","","html-button-response","5","45150","0.0-5.0","","1318","
        <div style=""display: flex; justify-content: center; align-items: center;"">
          <div style=""text-align: center; margin-right: 20px;"">
            <p style=""font-size: 24px; font-weight: bold;"">Event 1<p>
            <img src=""images/instructions/2.png"" style=""width: 300px; height: auto;"">
          </div>
          <div style=""text-align: center; margin-left: 20px;"">
            <p style=""font-size: 24px; font-weight: bold;"">Event 2</p>
            <img src=""images/instructions/1.png"" style=""width: 300px; height: auto;"">
          </div>
        </div>
        <h2>Correct Answer</h2>
        <p>The correct answer is: <strong>event 2 causes event 1</strong>.</p>
        <p>Click ""Next"" to proceed to the next example.</p>","0","","","",""
"","","","","","html-button-response","6","50555","0.0-6.0","","5404","
        <div style=""display: flex; justify-content: center; align-items: center;"">
          <div style=""text-align: center; margin-right: 20px;"">
            <p style=""font-size: 24px; font-weight: bold;"">Event 1<p>
            <img src=""images/instructions/5.png"" style=""width: 300px; height: auto;"">
          </div>
          <div style=""text-align: center; margin-left: 20px;"">
            <p style=""font-size: 24px; font-weight: bold;"">Event 2</p>
            <img src=""images/instructions/6.png"" style=""width: 300px; height: auto;"">
          </div>
        </div>
        <p style=""text-align: center; margin-top: 20px;"">Did one event cause the other?</p>","2","","","",""
"","","","","","html-button-response","7","51624","0.0-7.0","","1069","
        <div style=""display: flex; justify-content: center; align-items: center;"">
          <div style=""text-align: center; margin-right: 20px;"">
            <p style=""font-size: 24px; font-weight: bold;"">Event 1<p>
            <img src=""images/instructions/5.png"" style=""width: 300px; height: auto;"">
          </div>
          <div style=""text-align: center; margin-left: 20px;"">
            <p style=""font-size: 24px; font-weight: bold;"">Event 2</p>
            <img src=""images/instructions/6.png"" style=""width: 300px; height: auto;"">
          </div>
        </div>
        <h2>Correct Answer</h2>
        <p>The correct answer is: <strong>events are unrelated</strong>.</p>
        <p>Click ""Next"" to proceed to the experiment.</p>","0","","","",""
"","","","","","html-button-response","8","53745","0.0-8.0","","2121","
        <h2>Get Ready!</h2>
        <p>You have completed the examples. The experiment is about to begin.</p>
        <p>Click ""Start"" to begin the experiment.</p>","0","","","",""
"","","","","","html-button-response","9","70333","0.0-9.0","","16588","
      <div style=""display: flex; justify-content: center; align-items: center;"">
        <div style=""text-align: center; margin-right: 20px;"">
          <p style=""font-size: 24px; font-weight: bold;"">Event 1<p>
          <img src=""images/causal/coin_causal/coin_causal_8.png"" style=""width: 300px; height: auto;"">
        </div>
        <div style=""text-align: center; margin-left: 20px;"">
          <p style=""font-size: 24px; font-weight: bold;"">Event 2</p>
          <img src=""images/causal/coin_causal/coin_causal_6.png"" style=""width: 300px; height: auto;"">
        </div>
      </div>
      <p style=""text-align: center; margin-top: 20px;"">Did one event cause the other?</p>","0","8","6","true","coin_causal"
"","","","","","html-button-response","10","87424","0.0-10.0","","17090","
      <div style=""display: flex; justify-content: center; align-items: center;"">
        <div style=""text-align: center; margin-right: 20px;"">
          <p style=""font-size: 24px; font-weight: bold;"">Event 1</p>
          <img src=""images/causal/restaurant_scheme/restaurant_scheme_10.png"" style=""width: 300px; height: auto;"">
        </div>
        <div style=""text-align: center; margin-left: 20px;"">
          <p style=""font-size: 24px; font-weight: bold;"">Event 2</p>
          <img src=""images/causal/restaurant_scheme/restaurant_scheme_3.png"" style=""width: 300px; height: auto;"">
        </div>
      </div>
      <p style=""text-align: center; margin-top: 20px;"">Did one event cause the other?</p>","2","10","3","true","restaurant_scheme"
"","","","","","html-button-response","11","100879","0.0-11.0","","13455","
      <div style=""display: flex; justify-content: center; align-items: center;"">
        <div style=""text-align: center; margin-right: 20px;"">
          <p style=""font-size: 24px; font-weight: bold;"">Event 1</p>
          <img src=""images/causal/cat_care_semantic/cat_care_semantic_2.png"" style=""width: 300px; height: auto;"">
        </div>
        <div style=""text-align: center; margin-left: 20px;"">
          <p style=""font-size: 24px; font-weight: bold;"">Event 2</p>
          <img src=""images/causal/cat_care_semantic/cat_care_semantic_4.png"" style=""width: 300px; height: auto;"">
        </div>
      </div>
      <p style=""text-align: center; margin-top: 20px;"">Did one event cause the other?</p>","2","2","4","true","cat_care_semantic"
"","","","","","html-button-response","12","110584","0.0-12.0","","9705","
      <div style=""display: flex; justify-content: center; align-items: center;"">
        <div style=""text-align: center; margin-right: 20px;"">
          <p style=""font-size: 24px; font-weight: bold;"">Event 1</p>
          <img src=""images/causal/cat_care_semantic/cat_care_semantic_10.png"" style=""width: 300px; height: auto;"">
        </div>
        <div style=""text-align: center; margin-left: 20px;"">
          <p style=""font-size: 24px; font-weight: bold;"">Event 2</p>
          <img src=""images/causal/cat_care_semantic/cat_care_semantic_8.png"" style=""width: 300px; height: auto;"">
        </div>
      </div>
      <p style=""text-align: center; margin-top: 20px;"">Did one event cause the other?</p>","2","10","8","true","cat_care_semantic"
"","","","","","html-button-response","13","124228","0.0-13.0","","13643","
      <div style=""display: flex; justify-content: center; align-items: center;"">
        <div style=""text-align: center; margin-right: 20px;"">
          <p style=""font-size: 24px; font-weight: bold;"">Event 1</p>
          <img src=""images/causal/restaurant_scheme/restaurant_scheme_8.png"" style=""width: 300px; height: auto;"">
        </div>
        <div style=""text-align: center; margin-left: 20px;"">
          <p style=""font-size: 24px; font-weight: bold;"">Event 2</p>
          <img src=""images/causal/restaurant_scheme/restaurant_scheme_7.png"" style=""width: 300px; height: auto;"">
        </div>
      </div>
      <p style=""text-align: center; margin-top: 20px;"">Did one event cause the other?</p>","1","8","7","true","restaurant_scheme"
"","","","","","html-button-response","14","132093","0.0-14.0","","7865","
      <div style=""display: flex; justify-content: center; align-items: center;"">
        <div style=""text-align: center; margin-right: 20px;"">
          <p style=""font-size: 24px; font-weight: bold;"">Event 1</p>
          <img src=""images/causal/restaurant_scheme/restaurant_scheme_8.png"" style=""width: 300px; height: auto;"">
        </div>
        <div style=""text-align: center; margin-left: 20px;"">
          <p style=""font-size: 24px; font-weight: bold;"">Event 2</p>
          <img src=""images/causal/restaurant_scheme/restaurant_scheme_4.png"" style=""width: 300px; height: auto;"">
        </div>
      </div>
      <p style=""text-align: center; margin-top: 20px;"">Did one event cause the other?</p>","1","8","4","true","restaurant_scheme"
"","","","","","html-button-response","15","138800","0.0-15.0","","6706","
      <div style=""display: flex; justify-content: center; align-items: center;"">
        <div style=""text-align: center; margin-right: 20px;"">
          <p style=""font-size: 24px; font-weight: bold;"">Event 1</p>
          <img src=""images/causal/cat_care_semantic/cat_care_semantic_9.png"" style=""width: 300px; height: auto;"">
        </div>
        <div style=""text-align: center; margin-left: 20px;"">
          <p style=""font-size: 24px; font-weight: bold;"">Event 2</p>
          <img src=""images/causal/cat_care_semantic/cat_care_semantic_7.png"" style=""width: 300px; height: auto;"">
        </div>
      </div>
      <p style=""text-align: center; margin-top: 20px;"">Did one event cause the other?</p>","2","9","7","true","cat_care_semantic"
"","","","","","html-button-response","16","149345","0.0-16.0","","10545","
      <div style=""display: flex; justify-content: center; align-items: center;"">
        <div style=""text-align: center; margin-right: 20px;"">
          <p style=""font-size: 24px; font-weight: bold;"">Event 1<p>
          <img src=""images/causal/coin_causal/coin_causal_8.png"" style=""width: 300px; height: auto;"">
        </div>
        <div style=""text-align: center; margin-left: 20px;"">
          <p style=""font-size: 24px; font-weight: bold;"">Event 2</p>
          <img src=""images/causal/coin_causal/coin_causal_4.png"" style=""width: 300px; height: auto;"">
        </div>
      </div>
      <p style=""text-align: center; margin-top: 20px;"">Did one event cause the other?</p>","2","8","4","true","coin_causal"
"","","","","","html-button-response","17","154796","0.0-17.0","","5451","
      <div style=""display: flex; justify-content: center; align-items: center;"">
        <div style=""text-align: center; margin-right: 20px;"">
          <p style=""font-size: 24px; font-weight: bold;"">Event 1</p>
          <img src=""images/causal/cat_care_semantic/cat_care_semantic_7.png"" style=""width: 300px; height: auto;"">
        </div>
        <div style=""text-align: center; margin-left: 20px;"">
          <p style=""font-size: 24px; font-weight: bold;"">Event 2</p>
          <img src=""images/causal/cat_care_semantic/cat_care_semantic_2.png"" style=""width: 300px; height: auto;"">
        </div>
      </div>
      <p style=""text-align: center; margin-top: 20px;"">Did one event cause the other?</p>","2","7","2","true","cat_care_semantic"
"","","","","","html-button-response","18","160469","0.0-18.0","","5672","
      <div style=""display: flex; justify-content: center; align-items: center;"">
        <div style=""text-align: center; margin-right: 20px;"">
          <p style=""font-size: 24px; font-weight: bold;"">Event 1</p>
          <img src=""images/causal/cat_care_semantic/cat_care_semantic_4.png"" style=""width: 300px; height: auto;"">
        </div>
        <div style=""text-align: center; margin-left: 20px;"">
          <p style=""font-size: 24px; font-weight: bold;"">Event 2</p>
          <img src=""images/causal/cat_care_semantic/cat_care_semantic_8.png"" style=""width: 300px; height: auto;"">
        </div>
      </div>
      <p style=""text-align: center; margin-top: 20px;"">Did one event cause the other?</p>","2","4","8","true","cat_care_semantic"
"","","","","","html-button-response","19","166807","0.0-19.0","","6337","
      <div style=""display: flex; justify-content: center; align-items: center;"">
        <div style=""text-align: center; margin-right: 20px;"">
          <p style=""font-size: 24px; font-weight: bold;"">Event 1</p>
          <img src=""images/causal/cat_care_semantic/cat_care_semantic_6.png"" style=""width: 300px; height: auto;"">
        </div>
        <div style=""text-align: center; margin-left: 20px;"">
          <p style=""font-size: 24px; font-weight: bold;"">Event 2</p>
          <img src=""images/causal/cat_care_semantic/cat_care_semantic_10.png"" style=""width: 300px; height: auto;"">
        </div>
      </div>
      <p style=""text-align: center; margin-top: 20px;"">Did one event cause the other?</p>","2","6","10","true","cat_care_semantic"
"","","","","","html-button-response","20","175188","0.0-20.0","","8381","
      <div style=""display: flex; justify-content: center; align-items: center;"">
        <div style=""text-align: center; margin-right: 20px;"">
          <p style=""font-size: 24px; font-weight: bold;"">Event 1</p>
          <img src=""images/causal/restaurant_scheme/restaurant_scheme_8.png"" style=""width: 300px; height: auto;"">
        </div>
        <div style=""text-align: center; margin-left: 20px;"">
          <p style=""font-size: 24px; font-weight: bold;"">Event 2</p>
          <img src=""images/causal/restaurant_scheme/restaurant_scheme_6.png"" style=""width: 300px; height: auto;"">
        </div>
      </div>
      <p style=""text-align: center; margin-top: 20px;"">Did one event cause the other?</p>","1","8","6","true","restaurant_scheme"
"","","","","","html-button-response","21","183092","0.0-21.0","","7903","
      <div style=""display: flex; justify-content: center; align-items: center;"">
        <div style=""text-align: center; margin-right: 20px;"">
          <p style=""font-size: 24px; font-weight: bold;"">Event 1<p>
          <img src=""images/causal/coin_causal/coin_causal_5.png"" style=""width: 300px; height: auto;"">
        </div>
        <div style=""text-align: center; margin-left: 20px;"">
          <p style=""font-size: 24px; font-weight: bold;"">Event 2</p>
          <img src=""images/causal/coin_causal/coin_causal_9.png"" style=""width: 300px; height: auto;"">
        </div>
      </div>
      <p style=""text-align: center; margin-top: 20px;"">Did one event cause the other?</p>","2","5","9","true","coin_causal"
"","","","","","html-button-response","22","190344","0.0-22.0","","7252","
      <div style=""display: flex; justify-content: center; align-items: center;"">
        <div style=""text-align: center; margin-right: 20px;"">
          <p style=""font-size: 24px; font-weight: bold;"">Event 1<p>
          <img src=""images/causal/coin_causal/coin_causal_7.png"" style=""width: 300px; height: auto;"">
        </div>
        <div style=""text-align: center; margin-left: 20px;"">
          <p style=""font-size: 24px; font-weight: bold;"">Event 2</p>
          <img src=""images/causal/coin_causal/coin_causal_2.png"" style=""width: 300px; height: auto;"">
        </div>
      </div>
      <p style=""text-align: center; margin-top: 20px;"">Did one event cause the other?</p>","2","7","2","true","coin_causal"
"","","","","","html-button-response","23","197632","0.0-23.0","","7288","
      <div style=""display: flex; justify-content: center; align-items: center;"">
        <div style=""text-align: center; margin-right: 20px;"">
          <p style=""font-size: 24px; font-weight: bold;"">Event 1<p>
          <img src=""images/causal/coin_causal/coin_causal_5.png"" style=""width: 300px; height: auto;"">
        </div>
        <div style=""text-align: center; margin-left: 20px;"">
          <p style=""font-size: 24px; font-weight: bold;"">Event 2</p>
          <img src=""images/causal/coin_causal/coin_causal_4.png"" style=""width: 300px; height: auto;"">
        </div>
      </div>
      <p style=""text-align: center; margin-top: 20px;"">Did one event cause the other?</p>","1","5","4","true","coin_causal"
"","","","","","html-button-response","24","203632","0.0-24.0","","6000","
      <div style=""display: flex; justify-content: center; align-items: center;"">
        <div style=""text-align: center; margin-right: 20px;"">
          <p style=""font-size: 24px; font-weight: bold;"">Event 1</p>
          <img src=""images/causal/restaurant_scheme/restaurant_scheme_3.png"" style=""width: 300px; height: auto;"">
        </div>
        <div style=""text-align: center; margin-left: 20px;"">
          <p style=""font-size: 24px; font-weight: bold;"">Event 2</p>
          <img src=""images/causal/restaurant_scheme/restaurant_scheme_1.png"" style=""width: 300px; height: auto;"">
        </div>
      </div>
      <p style=""text-align: center; margin-top: 20px;"">Did one event cause the other?</p>","1","3","1","true","restaurant_scheme"
"","","","","","html-button-response","25","223649","0.0-25.0","","20017","
      <div style=""display: flex; justify-content: center; align-items: center;"">
        <div style=""text-align: center; margin-right: 20px;"">
          <p style=""font-size: 24px; font-weight: bold;"">Event 1</p>
          <img src=""images/causal/cat_care_semantic/cat_care_semantic_8.png"" style=""width: 300px; height: auto;"">
        </div>
        <div style=""text-align: center; margin-left: 20px;"">
          <p style=""font-size: 24px; font-weight: bold;"">Event 2</p>
          <img src=""images/causal/cat_care_semantic/cat_care_semantic_7.png"" style=""width: 300px; height: auto;"">
        </div>
      </div>
      <p style=""text-align: center; margin-top: 20px;"">Did one event cause the other?</p>","2","8","7","true","cat_care_semantic"
"","","","","","html-button-response","26","229043","0.0-26.0","","5393","
      <div style=""display: flex; justify-content: center; align-items: center;"">
        <div style=""text-align: center; margin-right: 20px;"">
          <p style=""font-size: 24px; font-weight: bold;"">Event 1</p>
          <img src=""images/causal/cat_care_semantic/cat_care_semantic_1.png"" style=""width: 300px; height: auto;"">
        </div>
        <div style=""text-align: center; margin-left: 20px;"">
          <p style=""font-size: 24px; font-weight: bold;"">Event 2</p>
          <img src=""images/causal/cat_care_semantic/cat_care_semantic_5.png"" style=""width: 300px; height: auto;"">
        </div>
      </div>
      <p style=""text-align: center; margin-top: 20px;"">Did one event cause the other?</p>","2","1","5","true","cat_care_semantic"
"","","","","","html-button-response","27","239255","0.0-27.0","","10212","
      <div style=""display: flex; justify-content: center; align-items: center;"">
        <div style=""text-align: center; margin-right: 20px;"">
          <p style=""font-size: 24px; font-weight: bold;"">Event 1</p>
          <img src=""images/causal/restaurant_scheme/restaurant_scheme_10.png"" style=""width: 300px; height: auto;"">
        </div>
        <div style=""text-align: center; margin-left: 20px;"">
          <p style=""font-size: 24px; font-weight: bold;"">Event 2</p>
          <img src=""images/causal/restaurant_scheme/restaurant_scheme_4.png"" style=""width: 300px; height: auto;"">
        </div>
      </div>
      <p style=""text-align: center; margin-top: 20px;"">Did one event cause the other?</p>","2","10","4","true","restaurant_scheme"
"","","","","","html-button-response","28","245229","0.0-28.0","","5975","
      <div style=""display: flex; justify-content: center; align-items: center;"">
        <div style=""text-align: center; margin-right: 20px;"">
          <p style=""font-size: 24px; font-weight: bold;"">Event 1<p>
          <img src=""images/causal/coin_causal/coin_causal_7.png"" style=""width: 300px; height: auto;"">
        </div>
        <div style=""text-align: center; margin-left: 20px;"">
          <p style=""font-size: 24px; font-weight: bold;"">Event 2</p>
          <img src=""images/causal/coin_causal/coin_causal_6.png"" style=""width: 300px; height: auto;"">
        </div>
      </div>
      <p style=""text-align: center; margin-top: 20px;"">Did one event cause the other?</p>","1","7","6","true","coin_causal"
"","","","","","html-button-response","29","251281","0.0-29.0","","6051","
      <div style=""display: flex; justify-content: center; align-items: center;"">
        <div style=""text-align: center; margin-right: 20px;"">
          <p style=""font-size: 24px; font-weight: bold;"">Event 1</p>
          <img src=""images/causal/restaurant_scheme/restaurant_scheme_10.png"" style=""width: 300px; height: auto;"">
        </div>
        <div style=""text-align: center; margin-left: 20px;"">
          <p style=""font-size: 24px; font-weight: bold;"">Event 2</p>
          <img src=""images/causal/restaurant_scheme/restaurant_scheme_6.png"" style=""width: 300px; height: auto;"">
        </div>
      </div>
      <p style=""text-align: center; margin-top: 20px;"">Did one event cause the other?</p>","1","10","6","true","restaurant_scheme"
"","","","","","html-button-response","30","256889","0.0-30.0","","5607","
      <div style=""display: flex; justify-content: center; align-items: center;"">
        <div style=""text-align: center; margin-right: 20px;"">
          <p style=""font-size: 24px; font-weight: bold;"">Event 1<p>
          <img src=""images/causal/coin_causal/coin_causal_4.png"" style=""width: 300px; height: auto;"">
        </div>
        <div style=""text-align: center; margin-left: 20px;"">
          <p style=""font-size: 24px; font-weight: bold;"">Event 2</p>
          <img src=""images/causal/coin_causal/coin_causal_2.png"" style=""width: 300px; height: auto;"">
        </div>
      </div>
      <p style=""text-align: center; margin-top: 20px;"">Did one event cause the other?</p>","1","4","2","true","coin_causal"
"","","","","","html-button-response","31","264229","0.0-31.0","","7340","
      <div style=""display: flex; justify-content: center; align-items: center;"">
        <div style=""text-align: center; margin-right: 20px;"">
          <p style=""font-size: 24px; font-weight: bold;"">Event 1</p>
          <img src=""images/causal/cat_care_semantic/cat_care_semantic_9.png"" style=""width: 300px; height: auto;"">
        </div>
        <div style=""text-align: center; margin-left: 20px;"">
          <p style=""font-size: 24px; font-weight: bold;"">Event 2</p>
          <img src=""images/causal/cat_care_semantic/cat_care_semantic_4.png"" style=""width: 300px; height: auto;"">
        </div>
      </div>
      <p style=""text-align: center; margin-top: 20px;"">Did one event cause the other?</p>","2","9","4","true","cat_care_semantic"
"","","","","","html-button-response","32","269256","0.0-32.0","","5027","
      <div style=""display: flex; justify-content: center; align-items: center;"">
        <div style=""text-align: center; margin-right: 20px;"">
          <p style=""font-size: 24px; font-weight: bold;"">Event 1</p>
          <img src=""images/causal/cat_care_semantic/cat_care_semantic_6.png"" style=""width: 300px; height: auto;"">
        </div>
        <div style=""text-align: center; margin-left: 20px;"">
          <p style=""font-size: 24px; font-weight: bold;"">Event 2</p>
          <img src=""images/causal/cat_care_semantic/cat_care_semantic_4.png"" style=""width: 300px; height: auto;"">
        </div>
      </div>
      <p style=""text-align: center; margin-top: 20px;"">Did one event cause the other?</p>","2","6","4","true","cat_care_semantic"
"","","","","","html-button-response","33","274584","0.0-33.0","","5327","
      <div style=""display: flex; justify-content: center; align-items: center;"">
        <div style=""text-align: center; margin-right: 20px;"">
          <p style=""font-size: 24px; font-weight: bold;"">Event 1</p>
          <img src=""images/causal/cat_care_semantic/cat_care_semantic_6.png"" style=""width: 300px; height: auto;"">
        </div>
        <div style=""text-align: center; margin-left: 20px;"">
          <p style=""font-size: 24px; font-weight: bold;"">Event 2</p>
          <img src=""images/causal/cat_care_semantic/cat_care_semantic_5.png"" style=""width: 300px; height: auto;"">
        </div>
      </div>
      <p style=""text-align: center; margin-top: 20px;"">Did one event cause the other?</p>","2","6","5","true","cat_care_semantic"
"","","","","","html-button-response","34","284692","0.0-34.0","","10108","
      <div style=""display: flex; justify-content: center; align-items: center;"">
        <div style=""text-align: center; margin-right: 20px;"">
          <p style=""font-size: 24px; font-weight: bold;"">Event 1<p>
          <img src=""images/causal/coin_causal/coin_causal_8.png"" style=""width: 300px; height: auto;"">
        </div>
        <div style=""text-align: center; margin-left: 20px;"">
          <p style=""font-size: 24px; font-weight: bold;"">Event 2</p>
          <img src=""images/causal/coin_causal/coin_causal_10.png"" style=""width: 300px; height: auto;"">
        </div>
      </div>
      <p style=""text-align: center; margin-top: 20px;"">Did one event cause the other?</p>","0","8","10","true","coin_causal"
"","","","","","html-button-response","35","290048","0.0-35.0","","5355","
      <div style=""display: flex; justify-content: center; align-items: center;"">
        <div style=""text-align: center; margin-right: 20px;"">
          <p style=""font-size: 24px; font-weight: bold;"">Event 1</p>
          <img src=""images/causal/cat_care_semantic/cat_care_semantic_2.png"" style=""width: 300px; height: auto;"">
        </div>
        <div style=""text-align: center; margin-left: 20px;"">
          <p style=""font-size: 24px; font-weight: bold;"">Event 2</p>
          <img src=""images/causal/cat_care_semantic/cat_care_semantic_8.png"" style=""width: 300px; height: auto;"">
        </div>
      </div>
      <p style=""text-align: center; margin-top: 20px;"">Did one event cause the other?</p>","2","2","8","true","cat_care_semantic"
"","","","","","html-button-response","36","296748","0.0-36.0","","6700","
      <div style=""display: flex; justify-content: center; align-items: center;"">
        <div style=""text-align: center; margin-right: 20px;"">
          <p style=""font-size: 24px; font-weight: bold;"">Event 1</p>
          <img src=""images/causal/restaurant_scheme/restaurant_scheme_1.png"" style=""width: 300px; height: auto;"">
        </div>
        <div style=""text-align: center; margin-left: 20px;"">
          <p style=""font-size: 24px; font-weight: bold;"">Event 2</p>
          <img src=""images/causal/restaurant_scheme/restaurant_scheme_4.png"" style=""width: 300px; height: auto;"">
        </div>
      </div>
      <p style=""text-align: center; margin-top: 20px;"">Did one event cause the other?</p>","0","1","4","true","restaurant_scheme"
"","","","","","html-button-response","37","302055","0.0-37.0","","5306","
      <div style=""display: flex; justify-content: center; align-items: center;"">
        <div style=""text-align: center; margin-right: 20px;"">
          <p style=""font-size: 24px; font-weight: bold;"">Event 1</p>
          <img src=""images/causal/cat_care_semantic/cat_care_semantic_3.png"" style=""width: 300px; height: auto;"">
        </div>
        <div style=""text-align: center; margin-left: 20px;"">
          <p style=""font-size: 24px; font-weight: bold;"">Event 2</p>
          <img src=""images/causal/cat_care_semantic/cat_care_semantic_6.png"" style=""width: 300px; height: auto;"">
        </div>
      </div>
      <p style=""text-align: center; margin-top: 20px;"">Did one event cause the other?</p>","2","3","6","true","cat_care_semantic"
"","","","","","html-button-response","38","309404","0.0-38.0","","7349","
      <div style=""display: flex; justify-content: center; align-items: center;"">
        <div style=""text-align: center; margin-right: 20px;"">
          <p style=""font-size: 24px; font-weight: bold;"">Event 1</p>
          <img src=""images/causal/restaurant_scheme/restaurant_scheme_7.png"" style=""width: 300px; height: auto;"">
        </div>
        <div style=""text-align: center; margin-left: 20px;"">
          <p style=""font-size: 24px; font-weight: bold;"">Event 2</p>
          <img src=""images/causal/restaurant_scheme/restaurant_scheme_2.png"" style=""width: 300px; height: auto;"">
        </div>
      </div>
      <p style=""text-align: center; margin-top: 20px;"">Did one event cause the other?</p>","1","7","2","true","restaurant_scheme"
"","","","","","html-button-response","39","316586","0.0-39.0","","7181","
      <div style=""display: flex; justify-content: center; align-items: center;"">
        <div style=""text-align: center; margin-right: 20px;"">
          <p style=""font-size: 24px; font-weight: bold;"">Event 1</p>
          <img src=""images/causal/cat_care_semantic/cat_care_semantic_2.png"" style=""width: 300px; height: auto;"">
        </div>
        <div style=""text-align: center; margin-left: 20px;"">
          <p style=""font-size: 24px; font-weight: bold;"">Event 2</p>
          <img src=""images/causal/cat_care_semantic/cat_care_semantic_10.png"" style=""width: 300px; height: auto;"">
        </div>
      </div>
      <p style=""text-align: center; margin-top: 20px;"">Did one event cause the other?</p>","1","2","10","true","cat_care_semantic"
"","","","","","html-button-response","40","322757","0.0-40.0","","6170","
      <div style=""display: flex; justify-content: center; align-items: center;"">
        <div style=""text-align: center; margin-right: 20px;"">
          <p style=""font-size: 24px; font-weight: bold;"">Event 1</p>
          <img src=""images/causal/restaurant_scheme/restaurant_scheme_4.png"" style=""width: 300px; height: auto;"">
        </div>
        <div style=""text-align: center; margin-left: 20px;"">
          <p style=""font-size: 24px; font-weight: bold;"">Event 2</p>
          <img src=""images/causal/restaurant_scheme/restaurant_scheme_9.png"" style=""width: 300px; height: auto;"">
        </div>
      </div>
      <p style=""text-align: center; margin-top: 20px;"">Did one event cause the other?</p>","0","4","9","true","restaurant_scheme"
"","","","","","html-button-response","41","329809","0.0-41.0","","7051","
      <div style=""display: flex; justify-content: center; align-items: center;"">
        <div style=""text-align: center; margin-right: 20px;"">
          <p style=""font-size: 24px; font-weight: bold;"">Event 1</p>
          <img src=""images/causal/cat_care_semantic/cat_care_semantic_1.png"" style=""width: 300px; height: auto;"">
        </div>
        <div style=""text-align: center; margin-left: 20px;"">
          <p style=""font-size: 24px; font-weight: bold;"">Event 2</p>
          <img src=""images/causal/cat_care_semantic/cat_care_semantic_7.png"" style=""width: 300px; height: auto;"">
        </div>
      </div>
      <p style=""text-align: center; margin-top: 20px;"">Did one event cause the other?</p>","2","1","7","true","cat_care_semantic"
"","","","","","html-button-response","42","335138","0.0-42.0","","5329","
      <div style=""display: flex; justify-content: center; align-items: center;"">
        <div style=""text-align: center; margin-right: 20px;"">
          <p style=""font-size: 24px; font-weight: bold;"">Event 1<p>
          <img src=""images/causal/coin_causal/coin_causal_10.png"" style=""width: 300px; height: auto;"">
        </div>
        <div style=""text-align: center; margin-left: 20px;"">
          <p style=""font-size: 24px; font-weight: bold;"">Event 2</p>
          <img src=""images/causal/coin_causal/coin_causal_2.png"" style=""width: 300px; height: auto;"">
        </div>
      </div>
      <p style=""text-align: center; margin-top: 20px;"">Did one event cause the other?</p>","2","10","2","true","coin_causal"
"","","","","","html-button-response","43","340526","0.0-43.0","","5387","
      <div style=""display: flex; justify-content: center; align-items: center;"">
        <div style=""text-align: center; margin-right: 20px;"">
          <p style=""font-size: 24px; font-weight: bold;"">Event 1</p>
          <img src=""images/causal/restaurant_scheme/restaurant_scheme_10.png"" style=""width: 300px; height: auto;"">
        </div>
        <div style=""text-align: center; margin-left: 20px;"">
          <p style=""font-size: 24px; font-weight: bold;"">Event 2</p>
          <img src=""images/causal/restaurant_scheme/restaurant_scheme_5.png"" style=""width: 300px; height: auto;"">
        </div>
      </div>
      <p style=""text-align: center; margin-top: 20px;"">Did one event cause the other?</p>","1","10","5","true","restaurant_scheme"
"","","","","","html-button-response","44","348172","0.0-44.0","","7646","
      <div style=""display: flex; justify-content: center; align-items: center;"">
        <div style=""text-align: center; margin-right: 20px;"">
          <p style=""font-size: 24px; font-weight: bold;"">Event 1</p>
          <img src=""images/causal/restaurant_scheme/restaurant_scheme_8.png"" style=""width: 300px; height: auto;"">
        </div>
        <div style=""text-align: center; margin-left: 20px;"">
          <p style=""font-size: 24px; font-weight: bold;"">Event 2</p>
          <img src=""images/causal/restaurant_scheme/restaurant_scheme_1.png"" style=""width: 300px; height: auto;"">
        </div>
      </div>
      <p style=""text-align: center; margin-top: 20px;"">Did one event cause the other?</p>","1","8","1","true","restaurant_scheme"
"","","","","","html-button-response","45","353553","0.0-45.0","","5381","
      <div style=""display: flex; justify-content: center; align-items: center;"">
        <div style=""text-align: center; margin-right: 20px;"">
          <p style=""font-size: 24px; font-weight: bold;"">Event 1</p>
          <img src=""images/causal/restaurant_scheme/restaurant_scheme_6.png"" style=""width: 300px; height: auto;"">
        </div>
        <div style=""text-align: center; margin-left: 20px;"">
          <p style=""font-size: 24px; font-weight: bold;"">Event 2</p>
          <img src=""images/causal/restaurant_scheme/restaurant_scheme_7.png"" style=""width: 300px; height: auto;"">
        </div>
      </div>
      <p style=""text-align: center; margin-top: 20px;"">Did one event cause the other?</p>","0","6","7","true","restaurant_scheme"
"","","","","","html-button-response","46","358860","0.0-46.0","","5307","
      <div style=""display: flex; justify-content: center; align-items: center;"">
        <div style=""text-align: center; margin-right: 20px;"">
          <p style=""font-size: 24px; font-weight: bold;"">Event 1</p>
          <img src=""images/causal/cat_care_semantic/cat_care_semantic_7.png"" style=""width: 300px; height: auto;"">
        </div>
        <div style=""text-align: center; margin-left: 20px;"">
          <p style=""font-size: 24px; font-weight: bold;"">Event 2</p>
          <img src=""images/causal/cat_care_semantic/cat_care_semantic_6.png"" style=""width: 300px; height: auto;"">
        </div>
      </div>
      <p style=""text-align: center; margin-top: 20px;"">Did one event cause the other?</p>","2","7","6","true","cat_care_semantic"
"","","","","","html-button-response","47","364181","0.0-47.0","","5320","
      <div style=""display: flex; justify-content: center; align-items: center;"">
        <div style=""text-align: center; margin-right: 20px;"">
          <p style=""font-size: 24px; font-weight: bold;"">Event 1<p>
          <img src=""images/causal/coin_causal/coin_causal_6.png"" style=""width: 300px; height: auto;"">
        </div>
        <div style=""text-align: center; margin-left: 20px;"">
          <p style=""font-size: 24px; font-weight: bold;"">Event 2</p>
          <img src=""images/causal/coin_causal/coin_causal_10.png"" style=""width: 300px; height: auto;"">
        </div>
      </div>
      <p style=""text-align: center; margin-top: 20px;"">Did one event cause the other?</p>","0","6","10","true","coin_causal"
"","","","","","html-button-response","48","375392","0.0-48.0","","11211","
      <div style=""display: flex; justify-content: center; align-items: center;"">
        <div style=""text-align: center; margin-right: 20px;"">
          <p style=""font-size: 24px; font-weight: bold;"">Event 1</p>
          <img src=""images/causal/cat_care_semantic/cat_care_semantic_8.png"" style=""width: 300px; height: auto;"">
        </div>
        <div style=""text-align: center; margin-left: 20px;"">
          <p style=""font-size: 24px; font-weight: bold;"">Event 2</p>
          <img src=""images/causal/cat_care_semantic/cat_care_semantic_5.png"" style=""width: 300px; height: auto;"">
        </div>
      </div>
      <p style=""text-align: center; margin-top: 20px;"">Did one event cause the other?</p>","1","8","5","true","cat_care_semantic"
"","","","","","html-button-response","49","383728","0.0-49.0","","8335","
      <div style=""display: flex; justify-content: center; align-items: center;"">
        <div style=""text-align: center; margin-right: 20px;"">
          <p style=""font-size: 24px; font-weight: bold;"">Event 1<p>
          <img src=""images/causal/coin_causal/coin_causal_4.png"" style=""width: 300px; height: auto;"">
        </div>
        <div style=""text-align: center; margin-left: 20px;"">
          <p style=""font-size: 24px; font-weight: bold;"">Event 2</p>
          <img src=""images/causal/coin_causal/coin_causal_1.png"" style=""width: 300px; height: auto;"">
        </div>
      </div>
      <p style=""text-align: center; margin-top: 20px;"">Did one event cause the other?</p>","2","4","1","true","coin_causal"
"","","","","","html-button-response","50","393254","0.0-50.0","","9526","
      <div style=""display: flex; justify-content: center; align-items: center;"">
        <div style=""text-align: center; margin-right: 20px;"">
          <p style=""font-size: 24px; font-weight: bold;"">Event 1<p>
          <img src=""images/causal/coin_causal/coin_causal_7.png"" style=""width: 300px; height: auto;"">
        </div>
        <div style=""text-align: center; margin-left: 20px;"">
          <p style=""font-size: 24px; font-weight: bold;"">Event 2</p>
          <img src=""images/causal/coin_causal/coin_causal_3.png"" style=""width: 300px; height: auto;"">
        </div>
      </div>
      <p style=""text-align: center; margin-top: 20px;"">Did one event cause the other?</p>","1","7","3","true","coin_causal"
"","","","","","html-button-response","51","402281","0.0-51.0","","9026","
      <div style=""display: flex; justify-content: center; align-items: center;"">
        <div style=""text-align: center; margin-right: 20px;"">
          <p style=""font-size: 24px; font-weight: bold;"">Event 1</p>
          <img src=""images/causal/restaurant_scheme/restaurant_scheme_9.png"" style=""width: 300px; height: auto;"">
        </div>
        <div style=""text-align: center; margin-left: 20px;"">
          <p style=""font-size: 24px; font-weight: bold;"">Event 2</p>
          <img src=""images/causal/restaurant_scheme/restaurant_scheme_1.png"" style=""width: 300px; height: auto;"">
        </div>
      </div>
      <p style=""text-align: center; margin-top: 20px;"">Did one event cause the other?</p>","1","9","1","true","restaurant_scheme"
"","","","","","html-button-response","52","410155","0.0-52.0","","7873","
      <div style=""display: flex; justify-content: center; align-items: center;"">
        <div style=""text-align: center; margin-right: 20px;"">
          <p style=""font-size: 24px; font-weight: bold;"">Event 1<p>
          <img src=""images/causal/coin_causal/coin_causal_9.png"" style=""width: 300px; height: auto;"">
        </div>
        <div style=""text-align: center; margin-left: 20px;"">
          <p style=""font-size: 24px; font-weight: bold;"">Event 2</p>
          <img src=""images/causal/coin_causal/coin_causal_10.png"" style=""width: 300px; height: auto;"">
        </div>
      </div>
      <p style=""text-align: center; margin-top: 20px;"">Did one event cause the other?</p>","0","9","10","true","coin_causal"
"","","","","","html-button-response","53","420096","0.0-53.0","","9941","
      <div style=""display: flex; justify-content: center; align-items: center;"">
        <div style=""text-align: center; margin-right: 20px;"">
          <p style=""font-size: 24px; font-weight: bold;"">Event 1</p>
          <img src=""images/causal/restaurant_scheme/restaurant_scheme_3.png"" style=""width: 300px; height: auto;"">
        </div>
        <div style=""text-align: center; margin-left: 20px;"">
          <p style=""font-size: 24px; font-weight: bold;"">Event 2</p>
          <img src=""images/causal/restaurant_scheme/restaurant_scheme_9.png"" style=""width: 300px; height: auto;"">
        </div>
      </div>
      <p style=""text-align: center; margin-top: 20px;"">Did one event cause the other?</p>","0","3","9","true","restaurant_scheme"
"","","","","","html-button-response","54","425772","0.0-54.0","","5675","
      <div style=""display: flex; justify-content: center; align-items: center;"">
        <div style=""text-align: center; margin-right: 20px;"">
          <p style=""font-size: 24px; font-weight: bold;"">Event 1<p>
          <img src=""images/causal/coin_causal/coin_causal_1.png"" style=""width: 300px; height: auto;"">
        </div>
        <div style=""text-align: center; margin-left: 20px;"">
          <p style=""font-size: 24px; font-weight: bold;"">Event 2</p>
          <img src=""images/causal/coin_causal/coin_causal_10.png"" style=""width: 300px; height: auto;"">
        </div>
      </div>
      <p style=""text-align: center; margin-top: 20px;"">Did one event cause the other?</p>","2","1","10","true","coin_causal"
"","","","","","html-button-response","55","446424","0.0-55.0","","20652","
      <div style=""display: flex; justify-content: center; align-items: center;"">
        <div style=""text-align: center; margin-right: 20px;"">
          <p style=""font-size: 24px; font-weight: bold;"">Event 1<p>
          <img src=""images/causal/coin_causal/coin_causal_10.png"" style=""width: 300px; height: auto;"">
        </div>
        <div style=""text-align: center; margin-left: 20px;"">
          <p style=""font-size: 24px; font-weight: bold;"">Event 2</p>
          <img src=""images/causal/coin_causal/coin_causal_4.png"" style=""width: 300px; height: auto;"">
        </div>
      </div>
      <p style=""text-align: center; margin-top: 20px;"">Did one event cause the other?</p>","2","10","4","true","coin_causal"
"","","","","","html-button-response","56","455880","0.0-56.0","","9455","
      <div style=""display: flex; justify-content: center; align-items: center;"">
        <div style=""text-align: center; margin-right: 20px;"">
          <p style=""font-size: 24px; font-weight: bold;"">Event 1</p>
          <img src=""images/causal/restaurant_scheme/restaurant_scheme_9.png"" style=""width: 300px; height: auto;"">
        </div>
        <div style=""text-align: center; margin-left: 20px;"">
          <p style=""font-size: 24px; font-weight: bold;"">Event 2</p>
          <img src=""images/causal/restaurant_scheme/restaurant_scheme_6.png"" style=""width: 300px; height: auto;"">
        </div>
      </div>
      <p style=""text-align: center; margin-top: 20px;"">Did one event cause the other?</p>","1","9","6","true","restaurant_scheme"
"","","","","","html-button-response","57","461348","0.0-57.0","","5467","
      <div style=""display: flex; justify-content: center; align-items: center;"">
        <div style=""text-align: center; margin-right: 20px;"">
          <p style=""font-size: 24px; font-weight: bold;"">Event 1</p>
          <img src=""images/causal/restaurant_scheme/restaurant_scheme_4.png"" style=""width: 300px; height: auto;"">
        </div>
        <div style=""text-align: center; margin-left: 20px;"">
          <p style=""font-size: 24px; font-weight: bold;"">Event 2</p>
          <img src=""images/causal/restaurant_scheme/restaurant_scheme_7.png"" style=""width: 300px; height: auto;"">
        </div>
      </div>
      <p style=""text-align: center; margin-top: 20px;"">Did one event cause the other?</p>","0","4","7","true","restaurant_scheme"
"","","","","","html-button-response","58","466706","0.0-58.0","","5357","
      <div style=""display: flex; justify-content: center; align-items: center;"">
        <div style=""text-align: center; margin-right: 20px;"">
          <p style=""font-size: 24px; font-weight: bold;"">Event 1</p>
          <img src=""images/causal/restaurant_scheme/restaurant_scheme_8.png"" style=""width: 300px; height: auto;"">
        </div>
        <div style=""text-align: center; margin-left: 20px;"">
          <p style=""font-size: 24px; font-weight: bold;"">Event 2</p>
          <img src=""images/causal/restaurant_scheme/restaurant_scheme_3.png"" style=""width: 300px; height: auto;"">
        </div>
      </div>
      <p style=""text-align: center; margin-top: 20px;"">Did one event cause the other?</p>","1","8","3","true","restaurant_scheme"
"","","","","","html-button-response","59","474225","0.0-59.0","","7519","
      <div style=""display: flex; justify-content: center; align-items: center;"">
        <div style=""text-align: center; margin-right: 20px;"">
          <p style=""font-size: 24px; font-weight: bold;"">Event 1</p>
          <img src=""images/causal/restaurant_scheme/restaurant_scheme_5.png"" style=""width: 300px; height: auto;"">
        </div>
        <div style=""text-align: center; margin-left: 20px;"">
          <p style=""font-size: 24px; font-weight: bold;"">Event 2</p>
          <img src=""images/causal/restaurant_scheme/restaurant_scheme_9.png"" style=""width: 300px; height: auto;"">
        </div>
      </div>
      <p style=""text-align: center; margin-top: 20px;"">Did one event cause the other?</p>","0","5","9","true","restaurant_scheme"
"","","","","","html-button-response","60","482857","0.0-60.0","","8632","
      <div style=""display: flex; justify-content: center; align-items: center;"">
        <div style=""text-align: center; margin-right: 20px;"">
          <p style=""font-size: 24px; font-weight: bold;"">Event 1</p>
          <img src=""images/causal/restaurant_scheme/restaurant_scheme_7.png"" style=""width: 300px; height: auto;"">
        </div>
        <div style=""text-align: center; margin-left: 20px;"">
          <p style=""font-size: 24px; font-weight: bold;"">Event 2</p>
          <img src=""images/causal/restaurant_scheme/restaurant_scheme_10.png"" style=""width: 300px; height: auto;"">
        </div>
      </div>
      <p style=""text-align: center; margin-top: 20px;"">Did one event cause the other?</p>","0","7","10","true","restaurant_scheme"
"","","","","","html-button-response","61","488245","0.0-61.0","","5388","
      <div style=""display: flex; justify-content: center; align-items: center;"">
        <div style=""text-align: center; margin-right: 20px;"">
          <p style=""font-size: 24px; font-weight: bold;"">Event 1<p>
          <img src=""images/causal/coin_causal/coin_causal_6.png"" style=""width: 300px; height: auto;"">
        </div>
        <div style=""text-align: center; margin-left: 20px;"">
          <p style=""font-size: 24px; font-weight: bold;"">Event 2</p>
          <img src=""images/causal/coin_causal/coin_causal_5.png"" style=""width: 300px; height: auto;"">
        </div>
      </div>
      <p style=""text-align: center; margin-top: 20px;"">Did one event cause the other?</p>","2","6","5","true","coin_causal"
"","","","","","html-button-response","62","502775","0.0-62.0","","14529","
      <div style=""display: flex; justify-content: center; align-items: center;"">
        <div style=""text-align: center; margin-right: 20px;"">
          <p style=""font-size: 24px; font-weight: bold;"">Event 1</p>
          <img src=""images/causal/cat_care_semantic/cat_care_semantic_9.png"" style=""width: 300px; height: auto;"">
        </div>
        <div style=""text-align: center; margin-left: 20px;"">
          <p style=""font-size: 24px; font-weight: bold;"">Event 2</p>
          <img src=""images/causal/cat_care_semantic/cat_care_semantic_2.png"" style=""width: 300px; height: auto;"">
        </div>
      </div>
      <p style=""text-align: center; margin-top: 20px;"">Did one event cause the other?</p>","1","9","2","true","cat_care_semantic"
"","","","","","html-button-response","63","508962","0.0-63.0","","6186","
      <div style=""display: flex; justify-content: center; align-items: center;"">
        <div style=""text-align: center; margin-right: 20px;"">
          <p style=""font-size: 24px; font-weight: bold;"">Event 1<p>
          <img src=""images/causal/coin_causal/coin_causal_7.png"" style=""width: 300px; height: auto;"">
        </div>
        <div style=""text-align: center; margin-left: 20px;"">
          <p style=""font-size: 24px; font-weight: bold;"">Event 2</p>
          <img src=""images/causal/coin_causal/coin_causal_8.png"" style=""width: 300px; height: auto;"">
        </div>
      </div>
      <p style=""text-align: center; margin-top: 20px;"">Did one event cause the other?</p>","0","7","8","true","coin_causal"
"","","","","","html-button-response","64","514755","0.0-64.0","","5793","
      <div style=""display: flex; justify-content: center; align-items: center;"">
        <div style=""text-align: center; margin-right: 20px;"">
          <p style=""font-size: 24px; font-weight: bold;"">Event 1</p>
          <img src=""images/causal/restaurant_scheme/restaurant_scheme_3.png"" style=""width: 300px; height: auto;"">
        </div>
        <div style=""text-align: center; margin-left: 20px;"">
          <p style=""font-size: 24px; font-weight: bold;"">Event 2</p>
          <img src=""images/causal/restaurant_scheme/restaurant_scheme_5.png"" style=""width: 300px; height: auto;"">
        </div>
      </div>
      <p style=""text-align: center; margin-top: 20px;"">Did one event cause the other?</p>","0","3","5","true","restaurant_scheme"
"","","","","","html-button-response","65","520175","0.0-65.0","","5419","
      <div style=""display: flex; justify-content: center; align-items: center;"">
        <div style=""text-align: center; margin-right: 20px;"">
          <p style=""font-size: 24px; font-weight: bold;"">Event 1<p>
          <img src=""images/causal/coin_causal/coin_causal_7.png"" style=""width: 300px; height: auto;"">
        </div>
        <div style=""text-align: center; margin-left: 20px;"">
          <p style=""font-size: 24px; font-weight: bold;"">Event 2</p>
          <img src=""images/causal/coin_causal/coin_causal_9.png"" style=""width: 300px; height: auto;"">
        </div>
      </div>
      <p style=""text-align: center; margin-top: 20px;"">Did one event cause the other?</p>","2","7","9","true","coin_causal"
"","","","","","html-button-response","66","527292","0.0-66.0","","7117","
      <div style=""display: flex; justify-content: center; align-items: center;"">
        <div style=""text-align: center; margin-right: 20px;"">
          <p style=""font-size: 24px; font-weight: bold;"">Event 1<p>
          <img src=""images/causal/coin_causal/coin_causal_4.png"" style=""width: 300px; height: auto;"">
        </div>
        <div style=""text-align: center; margin-left: 20px;"">
          <p style=""font-size: 24px; font-weight: bold;"">Event 2</p>
          <img src=""images/causal/coin_causal/coin_causal_6.png"" style=""width: 300px; height: auto;"">
        </div>
      </div>
      <p style=""text-align: center; margin-top: 20px;"">Did one event cause the other?</p>","0","4","6","true","coin_causal"
"","","","","","html-button-response","67","532672","0.0-67.0","","5379","
      <div style=""display: flex; justify-content: center; align-items: center;"">
        <div style=""text-align: center; margin-right: 20px;"">
          <p style=""font-size: 24px; font-weight: bold;"">Event 1</p>
          <img src=""images/causal/cat_care_semantic/cat_care_semantic_2.png"" style=""width: 300px; height: auto;"">
        </div>
        <div style=""text-align: center; margin-left: 20px;"">
          <p style=""font-size: 24px; font-weight: bold;"">Event 2</p>
          <img src=""images/causal/cat_care_semantic/cat_care_semantic_6.png"" style=""width: 300px; height: auto;"">
        </div>
      </div>
      <p style=""text-align: center; margin-top: 20px;"">Did one event cause the other?</p>","2","2","6","true","cat_care_semantic"
"","","","","","html-button-response","68","543209","0.0-68.0","","10537","
      <div style=""display: flex; justify-content: center; align-items: center;"">
        <div style=""text-align: center; margin-right: 20px;"">
          <p style=""font-size: 24px; font-weight: bold;"">Event 1<p>
          <img src=""images/causal/coin_causal/coin_causal_9.png"" style=""width: 300px; height: auto;"">
        </div>
        <div style=""text-align: center; margin-left: 20px;"">
          <p style=""font-size: 24px; font-weight: bold;"">Event 2</p>
          <img src=""images/causal/coin_causal/coin_causal_1.png"" style=""width: 300px; height: auto;"">
        </div>
      </div>
      <p style=""text-align: center; margin-top: 20px;"">Did one event cause the other?</p>","2","9","1","true","coin_causal"
"","","","","","html-button-response","69","549434","0.0-69.0","","6224","
      <div style=""display: flex; justify-content: center; align-items: center;"">
        <div style=""text-align: center; margin-right: 20px;"">
          <p style=""font-size: 24px; font-weight: bold;"">Event 1<p>
          <img src=""images/causal/coin_causal/coin_causal_8.png"" style=""width: 300px; height: auto;"">
        </div>
        <div style=""text-align: center; margin-left: 20px;"">
          <p style=""font-size: 24px; font-weight: bold;"">Event 2</p>
          <img src=""images/causal/coin_causal/coin_causal_3.png"" style=""width: 300px; height: auto;"">
        </div>
      </div>
      <p style=""text-align: center; margin-top: 20px;"">Did one event cause the other?</p>","2","8","3","true","coin_causal"
"","","","","","html-button-response","70","554829","0.0-70.0","","5395","
      <div style=""display: flex; justify-content: center; align-items: center;"">
        <div style=""text-align: center; margin-right: 20px;"">
          <p style=""font-size: 24px; font-weight: bold;"">Event 1<p>
          <img src=""images/causal/coin_causal/coin_causal_2.png"" style=""width: 300px; height: auto;"">
        </div>
        <div style=""text-align: center; margin-left: 20px;"">
          <p style=""font-size: 24px; font-weight: bold;"">Event 2</p>
          <img src=""images/causal/coin_causal/coin_causal_6.png"" style=""width: 300px; height: auto;"">
        </div>
      </div>
      <p style=""text-align: center; margin-top: 20px;"">Did one event cause the other?</p>","2","2","6","true","coin_causal"
"","","","","","html-button-response","71","560898","0.0-71.0","","6069","
      <div style=""display: flex; justify-content: center; align-items: center;"">
        <div style=""text-align: center; margin-right: 20px;"">
          <p style=""font-size: 24px; font-weight: bold;"">Event 1</p>
          <img src=""images/causal/cat_care_semantic/cat_care_semantic_6.png"" style=""width: 300px; height: auto;"">
        </div>
        <div style=""text-align: center; margin-left: 20px;"">
          <p style=""font-size: 24px; font-weight: bold;"">Event 2</p>
          <img src=""images/causal/cat_care_semantic/cat_care_semantic_1.png"" style=""width: 300px; height: auto;"">
        </div>
      </div>
      <p style=""text-align: center; margin-top: 20px;"">Did one event cause the other?</p>","0","6","1","true","cat_care_semantic"
"","","","","","html-button-response","72","566244","0.0-72.0","","5345","
      <div style=""display: flex; justify-content: center; align-items: center;"">
        <div style=""text-align: center; margin-right: 20px;"">
          <p style=""font-size: 24px; font-weight: bold;"">Event 1<p>
          <img src=""images/causal/coin_causal/coin_causal_7.png"" style=""width: 300px; height: auto;"">
        </div>
        <div style=""text-align: center; margin-left: 20px;"">
          <p style=""font-size: 24px; font-weight: bold;"">Event 2</p>
          <img src=""images/causal/coin_causal/coin_causal_10.png"" style=""width: 300px; height: auto;"">
        </div>
      </div>
      <p style=""text-align: center; margin-top: 20px;"">Did one event cause the other?</p>","0","7","10","true","coin_causal"
"","","","","","html-button-response","73","572528","0.0-73.0","","6283","
      <div style=""display: flex; justify-content: center; align-items: center;"">
        <div style=""text-align: center; margin-right: 20px;"">
          <p style=""font-size: 24px; font-weight: bold;"">Event 1</p>
          <img src=""images/causal/cat_care_semantic/cat_care_semantic_5.png"" style=""width: 300px; height: auto;"">
        </div>
        <div style=""text-align: center; margin-left: 20px;"">
          <p style=""font-size: 24px; font-weight: bold;"">Event 2</p>
          <img src=""images/causal/cat_care_semantic/cat_care_semantic_2.png"" style=""width: 300px; height: auto;"">
        </div>
      </div>
      <p style=""text-align: center; margin-top: 20px;"">Did one event cause the other?</p>","1","5","2","true","cat_care_semantic"
"","","","","","html-button-response","74","581622","0.0-74.0","","9093","
      <div style=""display: flex; justify-content: center; align-items: center;"">
        <div style=""text-align: center; margin-right: 20px;"">
          <p style=""font-size: 24px; font-weight: bold;"">Event 1<p>
          <img src=""images/causal/coin_causal/coin_causal_1.png"" style=""width: 300px; height: auto;"">
        </div>
        <div style=""text-align: center; margin-left: 20px;"">
          <p style=""font-size: 24px; font-weight: bold;"">Event 2</p>
          <img src=""images/causal/coin_causal/coin_causal_2.png"" style=""width: 300px; height: auto;"">
        </div>
      </div>
      <p style=""text-align: center; margin-top: 20px;"">Did one event cause the other?</p>","0","1","2","true","coin_causal"
"","","","","","html-button-response","75","590010","0.0-75.0","","8387","
      <div style=""display: flex; justify-content: center; align-items: center;"">
        <div style=""text-align: center; margin-right: 20px;"">
          <p style=""font-size: 24px; font-weight: bold;"">Event 1</p>
          <img src=""images/causal/cat_care_semantic/cat_care_semantic_7.png"" style=""width: 300px; height: auto;"">
        </div>
        <div style=""text-align: center; margin-left: 20px;"">
          <p style=""font-size: 24px; font-weight: bold;"">Event 2</p>
          <img src=""images/causal/cat_care_semantic/cat_care_semantic_4.png"" style=""width: 300px; height: auto;"">
        </div>
      </div>
      <p style=""text-align: center; margin-top: 20px;"">Did one event cause the other?</p>","2","7","4","true","cat_care_semantic"
"","","","","","html-button-response","76","595445","0.0-76.0","","5435","
      <div style=""display: flex; justify-content: center; align-items: center;"">
        <div style=""text-align: center; margin-right: 20px;"">
          <p style=""font-size: 24px; font-weight: bold;"">Event 1</p>
          <img src=""images/causal/cat_care_semantic/cat_care_semantic_9.png"" style=""width: 300px; height: auto;"">
        </div>
        <div style=""text-align: center; margin-left: 20px;"">
          <p style=""font-size: 24px; font-weight: bold;"">Event 2</p>
          <img src=""images/causal/cat_care_semantic/cat_care_semantic_3.png"" style=""width: 300px; height: auto;"">
        </div>
      </div>
      <p style=""text-align: center; margin-top: 20px;"">Did one event cause the other?</p>","2","9","3","true","cat_care_semantic"
"","","","","","html-button-response","77","600796","0.0-77.0","","5351","
      <div style=""display: flex; justify-content: center; align-items: center;"">
        <div style=""text-align: center; margin-right: 20px;"">
          <p style=""font-size: 24px; font-weight: bold;"">Event 1</p>
          <img src=""images/causal/restaurant_scheme/restaurant_scheme_4.png"" style=""width: 300px; height: auto;"">
        </div>
        <div style=""text-align: center; margin-left: 20px;"">
          <p style=""font-size: 24px; font-weight: bold;"">Event 2</p>
          <img src=""images/causal/restaurant_scheme/restaurant_scheme_3.png"" style=""width: 300px; height: auto;"">
        </div>
      </div>
      <p style=""text-align: center; margin-top: 20px;"">Did one event cause the other?</p>","1","4","3","true","restaurant_scheme"
"","","","","","html-button-response","78","606127","0.0-78.0","","5330","
      <div style=""display: flex; justify-content: center; align-items: center;"">
        <div style=""text-align: center; margin-right: 20px;"">
          <p style=""font-size: 24px; font-weight: bold;"">Event 1</p>
          <img src=""images/causal/cat_care_semantic/cat_care_semantic_4.png"" style=""width: 300px; height: auto;"">
        </div>
        <div style=""text-align: center; margin-left: 20px;"">
          <p style=""font-size: 24px; font-weight: bold;"">Event 2</p>
          <img src=""images/causal/cat_care_semantic/cat_care_semantic_5.png"" style=""width: 300px; height: auto;"">
        </div>
      </div>
      <p style=""text-align: center; margin-top: 20px;"">Did one event cause the other?</p>","2","4","5","true","cat_care_semantic"
"","","","","","html-button-response","79","611710","0.0-79.0","","5582","
      <div style=""display: flex; justify-content: center; align-items: center;"">
        <div style=""text-align: center; margin-right: 20px;"">
          <p style=""font-size: 24px; font-weight: bold;"">Event 1<p>
          <img src=""images/causal/coin_causal/coin_causal_3.png"" style=""width: 300px; height: auto;"">
        </div>
        <div style=""text-align: center; margin-left: 20px;"">
          <p style=""font-size: 24px; font-weight: bold;"">Event 2</p>
          <img src=""images/causal/coin_causal/coin_causal_1.png"" style=""width: 300px; height: auto;"">
        </div>
      </div>
      <p style=""text-align: center; margin-top: 20px;"">Did one event cause the other?</p>","2","3","1","true","coin_causal"
"","","","","","html-button-response","80","624925","0.0-80.0","","13215","
      <div style=""display: flex; justify-content: center; align-items: center;"">
        <div style=""text-align: center; margin-right: 20px;"">
          <p style=""font-size: 24px; font-weight: bold;"">Event 1<p>
          <img src=""images/causal/coin_causal/coin_causal_7.png"" style=""width: 300px; height: auto;"">
        </div>
        <div style=""text-align: center; margin-left: 20px;"">
          <p style=""font-size: 24px; font-weight: bold;"">Event 2</p>
          <img src=""images/causal/coin_causal/coin_causal_5.png"" style=""width: 300px; height: auto;"">
        </div>
      </div>
      <p style=""text-align: center; margin-top: 20px;"">Did one event cause the other?</p>","1","7","5","true","coin_causal"
"","","","","","html-button-response","81","630317","0.0-81.0","","5392","
      <div style=""display: flex; justify-content: center; align-items: center;"">
        <div style=""text-align: center; margin-right: 20px;"">
          <p style=""font-size: 24px; font-weight: bold;"">Event 1<p>
          <img src=""images/causal/coin_causal/coin_causal_6.png"" style=""width: 300px; height: auto;"">
        </div>
        <div style=""text-align: center; margin-left: 20px;"">
          <p style=""font-size: 24px; font-weight: bold;"">Event 2</p>
          <img src=""images/causal/coin_causal/coin_causal_1.png"" style=""width: 300px; height: auto;"">
        </div>
      </div>
      <p style=""text-align: center; margin-top: 20px;"">Did one event cause the other?</p>","2","6","1","true","coin_causal"
"","","","","","html-button-response","82","638818","0.0-82.0","","8501","
      <div style=""display: flex; justify-content: center; align-items: center;"">
        <div style=""text-align: center; margin-right: 20px;"">
          <p style=""font-size: 24px; font-weight: bold;"">Event 1</p>
          <img src=""images/causal/cat_care_semantic/cat_care_semantic_3.png"" style=""width: 300px; height: auto;"">
        </div>
        <div style=""text-align: center; margin-left: 20px;"">
          <p style=""font-size: 24px; font-weight: bold;"">Event 2</p>
          <img src=""images/causal/cat_care_semantic/cat_care_semantic_1.png"" style=""width: 300px; height: auto;"">
        </div>
      </div>
      <p style=""text-align: center; margin-top: 20px;"">Did one event cause the other?</p>","1","3","1","true","cat_care_semantic"
"","","","","","html-button-response","83","644781","0.0-83.0","","5963","
      <div style=""display: flex; justify-content: center; align-items: center;"">
        <div style=""text-align: center; margin-right: 20px;"">
          <p style=""font-size: 24px; font-weight: bold;"">Event 1</p>
          <img src=""images/causal/cat_care_semantic/cat_care_semantic_10.png"" style=""width: 300px; height: auto;"">
        </div>
        <div style=""text-align: center; margin-left: 20px;"">
          <p style=""font-size: 24px; font-weight: bold;"">Event 2</p>
          <img src=""images/causal/cat_care_semantic/cat_care_semantic_1.png"" style=""width: 300px; height: auto;"">
        </div>
      </div>
      <p style=""text-align: center; margin-top: 20px;"">Did one event cause the other?</p>","2","10","1","true","cat_care_semantic"
"","","","","","html-button-response","84","652347","0.0-84.0","","7565","
      <div style=""display: flex; justify-content: center; align-items: center;"">
        <div style=""text-align: center; margin-right: 20px;"">
          <p style=""font-size: 24px; font-weight: bold;"">Event 1</p>
          <img src=""images/causal/cat_care_semantic/cat_care_semantic_10.png"" style=""width: 300px; height: auto;"">
        </div>
        <div style=""text-align: center; margin-left: 20px;"">
          <p style=""font-size: 24px; font-weight: bold;"">Event 2</p>
          <img src=""images/causal/cat_care_semantic/cat_care_semantic_4.png"" style=""width: 300px; height: auto;"">
        </div>
      </div>
      <p style=""text-align: center; margin-top: 20px;"">Did one event cause the other?</p>","2","10","4","true","cat_care_semantic"
"","","","","","html-button-response","85","661624","0.0-85.0","","9277","
      <div style=""display: flex; justify-content: center; align-items: center;"">
        <div style=""text-align: center; margin-right: 20px;"">
          <p style=""font-size: 24px; font-weight: bold;"">Event 1</p>
          <img src=""images/causal/restaurant_scheme/restaurant_scheme_4.png"" style=""width: 300px; height: auto;"">
        </div>
        <div style=""text-align: center; margin-left: 20px;"">
          <p style=""font-size: 24px; font-weight: bold;"">Event 2</p>
          <img src=""images/causal/restaurant_scheme/restaurant_scheme_5.png"" style=""width: 300px; height: auto;"">
        </div>
      </div>
      <p style=""text-align: center; margin-top: 20px;"">Did one event cause the other?</p>","0","4","5","true","restaurant_scheme"
"","","","","","html-button-response","86","667189","0.0-86.0","","5566","
      <div style=""display: flex; justify-content: center; align-items: center;"">
        <div style=""text-align: center; margin-right: 20px;"">
          <p style=""font-size: 24px; font-weight: bold;"">Event 1</p>
          <img src=""images/causal/restaurant_scheme/restaurant_scheme_3.png"" style=""width: 300px; height: auto;"">
        </div>
        <div style=""text-align: center; margin-left: 20px;"">
          <p style=""font-size: 24px; font-weight: bold;"">Event 2</p>
          <img src=""images/causal/restaurant_scheme/restaurant_scheme_7.png"" style=""width: 300px; height: auto;"">
        </div>
      </div>
      <p style=""text-align: center; margin-top: 20px;"">Did one event cause the other?</p>","2","3","7","true","restaurant_scheme"
"","","","","","html-button-response","87","672598","0.0-87.0","","5408","
      <div style=""display: flex; justify-content: center; align-items: center;"">
        <div style=""text-align: center; margin-right: 20px;"">
          <p style=""font-size: 24px; font-weight: bold;"">Event 1<p>
          <img src=""images/causal/coin_causal/coin_causal_5.png"" style=""width: 300px; height: auto;"">
        </div>
        <div style=""text-align: center; margin-left: 20px;"">
          <p style=""font-size: 24px; font-weight: bold;"">Event 2</p>
          <img src=""images/causal/coin_causal/coin_causal_2.png"" style=""width: 300px; height: auto;"">
        </div>
      </div>
      <p style=""text-align: center; margin-top: 20px;"">Did one event cause the other?</p>","2","5","2","true","coin_causal"
"","","","","","html-button-response","88","680645","0.0-88.0","","8047","
      <div style=""display: flex; justify-content: center; align-items: center;"">
        <div style=""text-align: center; margin-right: 20px;"">
          <p style=""font-size: 24px; font-weight: bold;"">Event 1</p>
          <img src=""images/causal/restaurant_scheme/restaurant_scheme_5.png"" style=""width: 300px; height: auto;"">
        </div>
        <div style=""text-align: center; margin-left: 20px;"">
          <p style=""font-size: 24px; font-weight: bold;"">Event 2</p>
          <img src=""images/causal/restaurant_scheme/restaurant_scheme_7.png"" style=""width: 300px; height: auto;"">
        </div>
      </div>
      <p style=""text-align: center; margin-top: 20px;"">Did one event cause the other?</p>","0","5","7","true","restaurant_scheme"
"","","","","","html-button-response","89","696477","0.0-89.0","","15832","
      <div style=""display: flex; justify-content: center; align-items: center;"">
        <div style=""text-align: center; margin-right: 20px;"">
          <p style=""font-size: 24px; font-weight: bold;"">Event 1</p>
          <img src=""images/causal/cat_care_semantic/cat_care_semantic_10.png"" style=""width: 300px; height: auto;"">
        </div>
        <div style=""text-align: center; margin-left: 20px;"">
          <p style=""font-size: 24px; font-weight: bold;"">Event 2</p>
          <img src=""images/causal/cat_care_semantic/cat_care_semantic_3.png"" style=""width: 300px; height: auto;"">
        </div>
      </div>
      <p style=""text-align: center; margin-top: 20px;"">Did one event cause the other?</p>","2","10","3","true","cat_care_semantic"
"","","","","","html-button-response","90","701844","0.0-90.0","","5367","
      <div style=""display: flex; justify-content: center; align-items: center;"">
        <div style=""text-align: center; margin-right: 20px;"">
          <p style=""font-size: 24px; font-weight: bold;"">Event 1<p>
          <img src=""images/causal/coin_causal/coin_causal_1.png"" style=""width: 300px; height: auto;"">
        </div>
        <div style=""text-align: center; margin-left: 20px;"">
          <p style=""font-size: 24px; font-weight: bold;"">Event 2</p>
          <img src=""images/causal/coin_causal/coin_causal_5.png"" style=""width: 300px; height: auto;"">
        </div>
      </div>
      <p style=""text-align: center; margin-top: 20px;"">Did one event cause the other?</p>","2","1","5","true","coin_causal"
"","","","","","html-button-response","91","707196","0.0-91.0","","5352","
      <div style=""display: flex; justify-content: center; align-items: center;"">
        <div style=""text-align: center; margin-right: 20px;"">
          <p style=""font-size: 24px; font-weight: bold;"">Event 1</p>
          <img src=""images/causal/restaurant_scheme/restaurant_scheme_4.png"" style=""width: 300px; height: auto;"">
        </div>
        <div style=""text-align: center; margin-left: 20px;"">
          <p style=""font-size: 24px; font-weight: bold;"">Event 2</p>
          <img src=""images/causal/restaurant_scheme/restaurant_scheme_6.png"" style=""width: 300px; height: auto;"">
        </div>
      </div>
      <p style=""text-align: center; margin-top: 20px;"">Did one event cause the other?</p>","0","4","6","true","restaurant_scheme"
"","","","","","html-button-response","92","712580","0.0-92.0","","5384","
      <div style=""display: flex; justify-content: center; align-items: center;"">
        <div style=""text-align: center; margin-right: 20px;"">
          <p style=""font-size: 24px; font-weight: bold;"">Event 1</p>
          <img src=""images/causal/cat_care_semantic/cat_care_semantic_3.png"" style=""width: 300px; height: auto;"">
        </div>
        <div style=""text-align: center; margin-left: 20px;"">
          <p style=""font-size: 24px; font-weight: bold;"">Event 2</p>
          <img src=""images/causal/cat_care_semantic/cat_care_semantic_8.png"" style=""width: 300px; height: auto;"">
        </div>
      </div>
      <p style=""text-align: center; margin-top: 20px;"">Did one event cause the other?</p>","2","3","8","true","cat_care_semantic"
"","","","","","html-button-response","93","721751","0.0-93.0","","9171","
      <div style=""display: flex; justify-content: center; align-items: center;"">
        <div style=""text-align: center; margin-right: 20px;"">
          <p style=""font-size: 24px; font-weight: bold;"">Event 1</p>
          <img src=""images/causal/restaurant_scheme/restaurant_scheme_2.png"" style=""width: 300px; height: auto;"">
        </div>
        <div style=""text-align: center; margin-left: 20px;"">
          <p style=""font-size: 24px; font-weight: bold;"">Event 2</p>
          <img src=""images/causal/restaurant_scheme/restaurant_scheme_5.png"" style=""width: 300px; height: auto;"">
        </div>
      </div>
      <p style=""text-align: center; margin-top: 20px;"">Did one event cause the other?</p>","2","2","5","true","restaurant_scheme"
"","","","","","html-button-response","94","727170","0.0-94.0","","5418","
      <div style=""display: flex; justify-content: center; align-items: center;"">
        <div style=""text-align: center; margin-right: 20px;"">
          <p style=""font-size: 24px; font-weight: bold;"">Event 1<p>
          <img src=""images/causal/coin_causal/coin_causal_5.png"" style=""width: 300px; height: auto;"">
        </div>
        <div style=""text-align: center; margin-left: 20px;"">
          <p style=""font-size: 24px; font-weight: bold;"">Event 2</p>
          <img src=""images/causal/coin_causal/coin_causal_8.png"" style=""width: 300px; height: auto;"">
        </div>
      </div>
      <p style=""text-align: center; margin-top: 20px;"">Did one event cause the other?</p>","2","5","8","true","coin_causal"
"","","","","","html-button-response","95","732518","0.0-95.0","","5347","
      <div style=""display: flex; justify-content: center; align-items: center;"">
        <div style=""text-align: center; margin-right: 20px;"">
          <p style=""font-size: 24px; font-weight: bold;"">Event 1</p>
          <img src=""images/causal/cat_care_semantic/cat_care_semantic_3.png"" style=""width: 300px; height: auto;"">
        </div>
        <div style=""text-align: center; margin-left: 20px;"">
          <p style=""font-size: 24px; font-weight: bold;"">Event 2</p>
          <img src=""images/causal/cat_care_semantic/cat_care_semantic_5.png"" style=""width: 300px; height: auto;"">
        </div>
      </div>
      <p style=""text-align: center; margin-top: 20px;"">Did one event cause the other?</p>","2","3","5","true","cat_care_semantic"
"","","","","","html-button-response","96","737877","0.0-96.0","","5358","
      <div style=""display: flex; justify-content: center; align-items: center;"">
        <div style=""text-align: center; margin-right: 20px;"">
          <p style=""font-size: 24px; font-weight: bold;"">Event 1</p>
          <img src=""images/causal/cat_care_semantic/cat_care_semantic_5.png"" style=""width: 300px; height: auto;"">
        </div>
        <div style=""text-align: center; margin-left: 20px;"">
          <p style=""font-size: 24px; font-weight: bold;"">Event 2</p>
          <img src=""images/causal/cat_care_semantic/cat_care_semantic_10.png"" style=""width: 300px; height: auto;"">
        </div>
      </div>
      <p style=""text-align: center; margin-top: 20px;"">Did one event cause the other?</p>","2","5","10","true","cat_care_semantic"
"","","","","","html-button-response","97","751995","0.0-97.0","","14118","
      <div style=""display: flex; justify-content: center; align-items: center;"">
        <div style=""text-align: center; margin-right: 20px;"">
          <p style=""font-size: 24px; font-weight: bold;"">Event 1</p>
          <img src=""images/causal/cat_care_semantic/cat_care_semantic_3.png"" style=""width: 300px; height: auto;"">
        </div>
        <div style=""text-align: center; margin-left: 20px;"">
          <p style=""font-size: 24px; font-weight: bold;"">Event 2</p>
          <img src=""images/causal/cat_care_semantic/cat_care_semantic_2.png"" style=""width: 300px; height: auto;"">
        </div>
      </div>
      <p style=""text-align: center; margin-top: 20px;"">Did one event cause the other?</p>","2","3","2","true","cat_care_semantic"
"","","","","","html-button-response","98","757450","0.0-98.0","","5454","
      <div style=""display: flex; justify-content: center; align-items: center;"">
        <div style=""text-align: center; margin-right: 20px;"">
          <p style=""font-size: 24px; font-weight: bold;"">Event 1</p>
          <img src=""images/causal/cat_care_semantic/cat_care_semantic_9.png"" style=""width: 300px; height: auto;"">
        </div>
        <div style=""text-align: center; margin-left: 20px;"">
          <p style=""font-size: 24px; font-weight: bold;"">Event 2</p>
          <img src=""images/causal/cat_care_semantic/cat_care_semantic_6.png"" style=""width: 300px; height: auto;"">
        </div>
      </div>
      <p style=""text-align: center; margin-top: 20px;"">Did one event cause the other?</p>","2","9","6","true","cat_care_semantic"
"","","","","","html-button-response","99","762831","0.0-99.0","","5381","
      <div style=""display: flex; justify-content: center; align-items: center;"">
        <div style=""text-align: center; margin-right: 20px;"">
          <p style=""font-size: 24px; font-weight: bold;"">Event 1</p>
          <img src=""images/causal/cat_care_semantic/cat_care_semantic_8.png"" style=""width: 300px; height: auto;"">
        </div>
        <div style=""text-align: center; margin-left: 20px;"">
          <p style=""font-size: 24px; font-weight: bold;"">Event 2</p>
          <img src=""images/causal/cat_care_semantic/cat_care_semantic_1.png"" style=""width: 300px; height: auto;"">
        </div>
      </div>
      <p style=""text-align: center; margin-top: 20px;"">Did one event cause the other?</p>","2","8","1","true","cat_care_semantic"
"","","","","","html-button-response","100","768953","0.0-100.0","","6121","
      <div style=""display: flex; justify-content: center; align-items: center;"">
        <div style=""text-align: center; margin-right: 20px;"">
          <p style=""font-size: 24px; font-weight: bold;"">Event 1</p>
          <img src=""images/causal/restaurant_scheme/restaurant_scheme_10.png"" style=""width: 300px; height: auto;"">
        </div>
        <div style=""text-align: center; margin-left: 20px;"">
          <p style=""font-size: 24px; font-weight: bold;"">Event 2</p>
          <img src=""images/causal/restaurant_scheme/restaurant_scheme_2.png"" style=""width: 300px; height: auto;"">
        </div>
      </div>
      <p style=""text-align: center; margin-top: 20px;"">Did one event cause the other?</p>","2","10","2","true","restaurant_scheme"
"","","","","","html-button-response","101","778233","0.0-101.0","","9280","
      <div style=""display: flex; justify-content: center; align-items: center;"">
        <div style=""text-align: center; margin-right: 20px;"">
          <p style=""font-size: 24px; font-weight: bold;"">Event 1</p>
          <img src=""images/causal/cat_care_semantic/cat_care_semantic_7.png"" style=""width: 300px; height: auto;"">
        </div>
        <div style=""text-align: center; margin-left: 20px;"">
          <p style=""font-size: 24px; font-weight: bold;"">Event 2</p>
          <img src=""images/causal/cat_care_semantic/cat_care_semantic_3.png"" style=""width: 300px; height: auto;"">
        </div>
      </div>
      <p style=""text-align: center; margin-top: 20px;"">Did one event cause the other?</p>","2","7","3","true","cat_care_semantic"
"","","","","","html-button-response","102","784605","0.0-102.0","","6372","
      <div style=""display: flex; justify-content: center; align-items: center;"">
        <div style=""text-align: center; margin-right: 20px;"">
          <p style=""font-size: 24px; font-weight: bold;"">Event 1</p>
          <img src=""images/causal/restaurant_scheme/restaurant_scheme_3.png"" style=""width: 300px; height: auto;"">
        </div>
        <div style=""text-align: center; margin-left: 20px;"">
          <p style=""font-size: 24px; font-weight: bold;"">Event 2</p>
          <img src=""images/causal/restaurant_scheme/restaurant_scheme_6.png"" style=""width: 300px; height: auto;"">
        </div>
      </div>
      <p style=""text-align: center; margin-top: 20px;"">Did one event cause the other?</p>","2","3","6","true","restaurant_scheme"
"","","","","","html-button-response","103","790782","0.0-103.0","","6176","
      <div style=""display: flex; justify-content: center; align-items: center;"">
        <div style=""text-align: center; margin-right: 20px;"">
          <p style=""font-size: 24px; font-weight: bold;"">Event 1<p>
          <img src=""images/causal/coin_causal/coin_causal_3.png"" style=""width: 300px; height: auto;"">
        </div>
        <div style=""text-align: center; margin-left: 20px;"">
          <p style=""font-size: 24px; font-weight: bold;"">Event 2</p>
          <img src=""images/causal/coin_causal/coin_causal_4.png"" style=""width: 300px; height: auto;"">
        </div>
      </div>
      <p style=""text-align: center; margin-top: 20px;"">Did one event cause the other?</p>","0","3","4","true","coin_causal"
"","","","","","html-button-response","104","796402","0.0-104.0","","5620","
      <div style=""display: flex; justify-content: center; align-items: center;"">
        <div style=""text-align: center; margin-right: 20px;"">
          <p style=""font-size: 24px; font-weight: bold;"">Event 1</p>
          <img src=""images/causal/cat_care_semantic/cat_care_semantic_9.png"" style=""width: 300px; height: auto;"">
        </div>
        <div style=""text-align: center; margin-left: 20px;"">
          <p style=""font-size: 24px; font-weight: bold;"">Event 2</p>
          <img src=""images/causal/cat_care_semantic/cat_care_semantic_5.png"" style=""width: 300px; height: auto;"">
        </div>
      </div>
      <p style=""text-align: center; margin-top: 20px;"">Did one event cause the other?</p>","2","9","5","true","cat_care_semantic"
"","","","","","html-button-response","105","801815","0.0-105.0","","5412","
      <div style=""display: flex; justify-content: center; align-items: center;"">
        <div style=""text-align: center; margin-right: 20px;"">
          <p style=""font-size: 24px; font-weight: bold;"">Event 1</p>
          <img src=""images/causal/restaurant_scheme/restaurant_scheme_6.png"" style=""width: 300px; height: auto;"">
        </div>
        <div style=""text-align: center; margin-left: 20px;"">
          <p style=""font-size: 24px; font-weight: bold;"">Event 2</p>
          <img src=""images/causal/restaurant_scheme/restaurant_scheme_2.png"" style=""width: 300px; height: auto;"">
        </div>
      </div>
      <p style=""text-align: center; margin-top: 20px;"">Did one event cause the other?</p>","2","6","2","true","restaurant_scheme"
"","","","","","html-button-response","106","807201","0.0-106.0","","5385","
      <div style=""display: flex; justify-content: center; align-items: center;"">
        <div style=""text-align: center; margin-right: 20px;"">
          <p style=""font-size: 24px; font-weight: bold;"">Event 1<p>
          <img src=""images/causal/coin_causal/coin_causal_8.png"" style=""width: 300px; height: auto;"">
        </div>
        <div style=""text-align: center; margin-left: 20px;"">
          <p style=""font-size: 24px; font-weight: bold;"">Event 2</p>
          <img src=""images/causal/coin_causal/coin_causal_1.png"" style=""width: 300px; height: auto;"">
        </div>
      </div>
      <p style=""text-align: center; margin-top: 20px;"">Did one event cause the other?</p>","2","8","1","true","coin_causal"
"","","","","","html-button-response","107","812537","0.0-107.0","","5336","
      <div style=""display: flex; justify-content: center; align-items: center;"">
        <div style=""text-align: center; margin-right: 20px;"">
          <p style=""font-size: 24px; font-weight: bold;"">Event 1</p>
          <img src=""images/causal/restaurant_scheme/restaurant_scheme_2.png"" style=""width: 300px; height: auto;"">
        </div>
        <div style=""text-align: center; margin-left: 20px;"">
          <p style=""font-size: 24px; font-weight: bold;"">Event 2</p>
          <img src=""images/causal/restaurant_scheme/restaurant_scheme_8.png"" style=""width: 300px; height: auto;"">
        </div>
      </div>
      <p style=""text-align: center; margin-top: 20px;"">Did one event cause the other?</p>","2","2","8","true","restaurant_scheme"
"","","","","","html-button-response","108","817891","0.0-108.0","","5353","
      <div style=""display: flex; justify-content: center; align-items: center;"">
        <div style=""text-align: center; margin-right: 20px;"">
          <p style=""font-size: 24px; font-weight: bold;"">Event 1</p>
          <img src=""images/causal/cat_care_semantic/cat_care_semantic_9.png"" style=""width: 300px; height: auto;"">
        </div>
        <div style=""text-align: center; margin-left: 20px;"">
          <p style=""font-size: 24px; font-weight: bold;"">Event 2</p>
          <img src=""images/causal/cat_care_semantic/cat_care_semantic_1.png"" style=""width: 300px; height: auto;"">
        </div>
      </div>
      <p style=""text-align: center; margin-top: 20px;"">Did one event cause the other?</p>","2","9","1","true","cat_care_semantic"
"","","","","","html-button-response","109","823175","0.0-109.0","","5284","
      <div style=""display: flex; justify-content: center; align-items: center;"">
        <div style=""text-align: center; margin-right: 20px;"">
          <p style=""font-size: 24px; font-weight: bold;"">Event 1</p>
          <img src=""images/causal/restaurant_scheme/restaurant_scheme_6.png"" style=""width: 300px; height: auto;"">
        </div>
        <div style=""text-align: center; margin-left: 20px;"">
          <p style=""font-size: 24px; font-weight: bold;"">Event 2</p>
          <img src=""images/causal/restaurant_scheme/restaurant_scheme_5.png"" style=""width: 300px; height: auto;"">
        </div>
      </div>
      <p style=""text-align: center; margin-top: 20px;"">Did one event cause the other?</p>","1","6","5","true","restaurant_scheme"
"","","","","","html-button-response","110","828536","0.0-110.0","","5360","
      <div style=""display: flex; justify-content: center; align-items: center;"">
        <div style=""text-align: center; margin-right: 20px;"">
          <p style=""font-size: 24px; font-weight: bold;"">Event 1</p>
          <img src=""images/causal/restaurant_scheme/restaurant_scheme_6.png"" style=""width: 300px; height: auto;"">
        </div>
        <div style=""text-align: center; margin-left: 20px;"">
          <p style=""font-size: 24px; font-weight: bold;"">Event 2</p>
          <img src=""images/causal/restaurant_scheme/restaurant_scheme_1.png"" style=""width: 300px; height: auto;"">
        </div>
      </div>
      <p style=""text-align: center; margin-top: 20px;"">Did one event cause the other?</p>","2","6","1","true","restaurant_scheme"
"","","","","","html-button-response","111","833933","0.0-111.0","","5396","
      <div style=""display: flex; justify-content: center; align-items: center;"">
        <div style=""text-align: center; margin-right: 20px;"">
          <p style=""font-size: 24px; font-weight: bold;"">Event 1</p>
          <img src=""images/causal/cat_care_semantic/cat_care_semantic_5.png"" style=""width: 300px; height: auto;"">
        </div>
        <div style=""text-align: center; margin-left: 20px;"">
          <p style=""font-size: 24px; font-weight: bold;"">Event 2</p>
          <img src=""images/causal/cat_care_semantic/cat_care_semantic_7.png"" style=""width: 300px; height: auto;"">
        </div>
      </div>
      <p style=""text-align: center; margin-top: 20px;"">Did one event cause the other?</p>","2","5","7","true","cat_care_semantic"
"","","","","","html-button-response","112","841197","0.0-112.0","","7264","
      <div style=""display: flex; justify-content: center; align-items: center;"">
        <div style=""text-align: center; margin-right: 20px;"">
          <p style=""font-size: 24px; font-weight: bold;"">Event 1<p>
          <img src=""images/causal/coin_causal/coin_causal_4.png"" style=""width: 300px; height: auto;"">
        </div>
        <div style=""text-align: center; margin-left: 20px;"">
          <p style=""font-size: 24px; font-weight: bold;"">Event 2</p>
          <img src=""images/causal/coin_causal/coin_causal_7.png"" style=""width: 300px; height: auto;"">
        </div>
      </div>
      <p style=""text-align: center; margin-top: 20px;"">Did one event cause the other?</p>","2","4","7","true","coin_causal"
"","","","","","html-button-response","113","846643","0.0-113.0","","5446","
      <div style=""display: flex; justify-content: center; align-items: center;"">
        <div style=""text-align: center; margin-right: 20px;"">
          <p style=""font-size: 24px; font-weight: bold;"">Event 1<p>
          <img src=""images/causal/coin_causal/coin_causal_8.png"" style=""width: 300px; height: auto;"">
        </div>
        <div style=""text-align: center; margin-left: 20px;"">
          <p style=""font-size: 24px; font-weight: bold;"">Event 2</p>
          <img src=""images/causal/coin_causal/coin_causal_2.png"" style=""width: 300px; height: auto;"">
        </div>
      </div>
      <p style=""text-align: center; margin-top: 20px;"">Did one event cause the other?</p>","2","8","2","true","coin_causal"
"","","","","","html-button-response","114","852277","0.0-114.0","","5633","
      <div style=""display: flex; justify-content: center; align-items: center;"">
        <div style=""text-align: center; margin-right: 20px;"">
          <p style=""font-size: 24px; font-weight: bold;"">Event 1</p>
          <img src=""images/causal/restaurant_scheme/restaurant_scheme_1.png"" style=""width: 300px; height: auto;"">
        </div>
        <div style=""text-align: center; margin-left: 20px;"">
          <p style=""font-size: 24px; font-weight: bold;"">Event 2</p>
          <img src=""images/causal/restaurant_scheme/restaurant_scheme_10.png"" style=""width: 300px; height: auto;"">
        </div>
      </div>
      <p style=""text-align: center; margin-top: 20px;"">Did one event cause the other?</p>","2","1","10","true","restaurant_scheme"
"","","","","","html-button-response","115","859879","0.0-115.0","","7601","
      <div style=""display: flex; justify-content: center; align-items: center;"">
        <div style=""text-align: center; margin-right: 20px;"">
          <p style=""font-size: 24px; font-weight: bold;"">Event 1</p>
          <img src=""images/causal/restaurant_scheme/restaurant_scheme_9.png"" style=""width: 300px; height: auto;"">
        </div>
        <div style=""text-align: center; margin-left: 20px;"">
          <p style=""font-size: 24px; font-weight: bold;"">Event 2</p>
          <img src=""images/causal/restaurant_scheme/restaurant_scheme_2.png"" style=""width: 300px; height: auto;"">
        </div>
      </div>
      <p style=""text-align: center; margin-top: 20px;"">Did one event cause the other?</p>","2","9","2","true","restaurant_scheme"
"","","","","","html-button-response","116","865274","0.0-116.0","","5395","
      <div style=""display: flex; justify-content: center; align-items: center;"">
        <div style=""text-align: center; margin-right: 20px;"">
          <p style=""font-size: 24px; font-weight: bold;"">Event 1<p>
          <img src=""images/causal/coin_causal/coin_causal_7.png"" style=""width: 300px; height: auto;"">
        </div>
        <div style=""text-align: center; margin-left: 20px;"">
          <p style=""font-size: 24px; font-weight: bold;"">Event 2</p>
          <img src=""images/causal/coin_causal/coin_causal_1.png"" style=""width: 300px; height: auto;"">
        </div>
      </div>
      <p style=""text-align: center; margin-top: 20px;"">Did one event cause the other?</p>","2","7","1","true","coin_causal"
"","","","","","html-button-response","117","870606","0.0-117.0","","5331","
      <div style=""display: flex; justify-content: center; align-items: center;"">
        <div style=""text-align: center; margin-right: 20px;"">
          <p style=""font-size: 24px; font-weight: bold;"">Event 1<p>
          <img src=""images/causal/coin_causal/coin_causal_3.png"" style=""width: 300px; height: auto;"">
        </div>
        <div style=""text-align: center; margin-left: 20px;"">
          <p style=""font-size: 24px; font-weight: bold;"">Event 2</p>
          <img src=""images/causal/coin_causal/coin_causal_2.png"" style=""width: 300px; height: auto;"">
        </div>
      </div>
      <p style=""text-align: center; margin-top: 20px;"">Did one event cause the other?</p>","1","3","2","true","coin_causal"
"","","","","","html-button-response","118","880305","0.0-118.0","","9698","
      <div style=""display: flex; justify-content: center; align-items: center;"">
        <div style=""text-align: center; margin-right: 20px;"">
          <p style=""font-size: 24px; font-weight: bold;"">Event 1</p>
          <img src=""images/causal/restaurant_scheme/restaurant_scheme_2.png"" style=""width: 300px; height: auto;"">
        </div>
        <div style=""text-align: center; margin-left: 20px;"">
          <p style=""font-size: 24px; font-weight: bold;"">Event 2</p>
          <img src=""images/causal/restaurant_scheme/restaurant_scheme_3.png"" style=""width: 300px; height: auto;"">
        </div>
      </div>
      <p style=""text-align: center; margin-top: 20px;"">Did one event cause the other?</p>","0","2","3","true","restaurant_scheme"
"","","","","","html-button-response","119","885680","0.0-119.0","","5375","
      <div style=""display: flex; justify-content: center; align-items: center;"">
        <div style=""text-align: center; margin-right: 20px;"">
          <p style=""font-size: 24px; font-weight: bold;"">Event 1<p>
          <img src=""images/causal/coin_causal/coin_causal_3.png"" style=""width: 300px; height: auto;"">
        </div>
        <div style=""text-align: center; margin-left: 20px;"">
          <p style=""font-size: 24px; font-weight: bold;"">Event 2</p>
          <img src=""images/causal/coin_causal/coin_causal_9.png"" style=""width: 300px; height: auto;"">
        </div>
      </div>
      <p style=""text-align: center; margin-top: 20px;"">Did one event cause the other?</p>","2","3","9","true","coin_causal"
"","","","","","html-button-response","120","893500","0.0-120.0","","7819","
      <div style=""display: flex; justify-content: center; align-items: center;"">
        <div style=""text-align: center; margin-right: 20px;"">
          <p style=""font-size: 24px; font-weight: bold;"">Event 1</p>
          <img src=""images/causal/cat_care_semantic/cat_care_semantic_10.png"" style=""width: 300px; height: auto;"">
        </div>
        <div style=""text-align: center; margin-left: 20px;"">
          <p style=""font-size: 24px; font-weight: bold;"">Event 2</p>
          <img src=""images/causal/cat_care_semantic/cat_care_semantic_7.png"" style=""width: 300px; height: auto;"">
        </div>
      </div>
      <p style=""text-align: center; margin-top: 20px;"">Did one event cause the other?</p>","2","10","7","true","cat_care_semantic"
"","","","","","html-button-response","121","898945","0.0-121.0","","5445","
      <div style=""display: flex; justify-content: center; align-items: center;"">
        <div style=""text-align: center; margin-right: 20px;"">
          <p style=""font-size: 24px; font-weight: bold;"">Event 1<p>
          <img src=""images/causal/coin_causal/coin_causal_5.png"" style=""width: 300px; height: auto;"">
        </div>
        <div style=""text-align: center; margin-left: 20px;"">
          <p style=""font-size: 24px; font-weight: bold;"">Event 2</p>
          <img src=""images/causal/coin_causal/coin_causal_3.png"" style=""width: 300px; height: auto;"">
        </div>
      </div>
      <p style=""text-align: center; margin-top: 20px;"">Did one event cause the other?</p>","2","5","3","true","coin_causal"
"","","","","","html-button-response","122","905312","0.0-122.0","","6366","
      <div style=""display: flex; justify-content: center; align-items: center;"">
        <div style=""text-align: center; margin-right: 20px;"">
          <p style=""font-size: 24px; font-weight: bold;"">Event 1</p>
          <img src=""images/causal/restaurant_scheme/restaurant_scheme_8.png"" style=""width: 300px; height: auto;"">
        </div>
        <div style=""text-align: center; margin-left: 20px;"">
          <p style=""font-size: 24px; font-weight: bold;"">Event 2</p>
          <img src=""images/causal/restaurant_scheme/restaurant_scheme_10.png"" style=""width: 300px; height: auto;"">
